File: 01_Data/Particleboard/STA/N2/10K_min/Particleboard_STA_N2_10KData_220419_R2.csv
##Temp./Â°C,Time/min,Mass loss(subtr.2)/mg,DSC(subtr.2)/(mW/mg),Sensit./(uV/mW)
49.692,10.00917,0.01272,-0.003956713,1.06052
50.392,10.77807,0.01290883,0.03221899,1.06038
51.092,10.97749,0.01377187,0.05788429,1.06023
51.792,11.1281,0.01892429,0.07978273,1.06009
52.492,11.25689,0.01858608,0.09585873,1.05994
53.192,11.3718,0.01878696,0.10918,1.05979
53.892,11.47808,0.01322905,0.12335,1.05964
54.592,11.5775,0.01347039,0.13551,1.05949
55.292,11.67207,0.01795808,0.14613,1.05934
55.992,11.7628,0.01829341,0.15638,1.05919
56.692,11.85064,0.01360734,0.16571,1.05904
57.392,11.93619,0.01514219,0.17164,1.05889
58.092,12.01955,0.01967171,0.17713,1.05873
58.792,12.10223,0.02174466,0.18201,1.05858
59.492,12.18416,0.02017414,0.18698,1.05842
60.192,12.26441,0.01853051,0.19382,1.05827
60.892,12.34337,0.01718764,0.19889,1.05811
61.592,12.42229,0.01728525,0.20304,1.05795
62.292,12.5008,0.01591245,0.20263,1.05779
62.992,12.5794,0.01655437,0.20813,1.05763
63.692,12.65634,0.01727148,0.21168,1.05747
64.392,12.73329,0.01862486,0.21685,1.05731
65.092,12.81011,0.01777011,0.21842,1.05715
65.792,12.8867,0.01642441,0.22309,1.05698
66.492,12.96258,0.01377819,0.22566,1.05682
67.192,13.0382,0.01616914,0.22989,1.05665
67.892,13.1134,0.01753667,0.23076,1.05648
68.592,13.1886,0.02046825,0.23477,1.05632
69.292,13.26351,0.01909037,0.23804,1.05615
69.992,13.3382,0.01578825,0.241,1.05598
70.692,13.41281,0.0144058,0.24104,1.05581
71.392,13.48691,0.01661646,0.24393,1.05564
72.092,13.5609,0.01296693,0.24658,1.05547
72.792,13.6349,0.01453283,0.24818,1.05529
73.492,13.70854,0.01795133,0.25393,1.05512
74.192,13.7822,0.01661072,0.2544,1.05494
74.892,13.8554,0.01534373,0.25714,1.05477
75.592,13.9288,0.01669031,0.26113,1.05459
76.292,14.0019,0.01667445,0.26033,1.05442
76.992,14.07448,0.01617689,0.26443,1.05424
77.692,14.147,0.01535,0.26656,1.05406
78.392,14.2194,0.01435747,0.27023,1.05388
79.092,14.29185,0.01436,0.26869,1.0537
79.792,14.36365,0.01521457,0.27211,1.05352
80.492,14.4358,0.01681909,0.27426,1.05333
81.192,14.5083,0.01415026,0.2749,1.05315
81.892,14.5806,0.01284733,0.27763,1.05297
82.592,14.65236,0.01289139,0.28003,1.05278
83.292,14.7235,0.01292391,0.27989,1.05259
83.992,14.7948,0.01283595,0.27645,1.05241
84.692,14.86585,0.01147417,0.27768,1.05222
85.392,14.93718,0.01281727,0.28012,1.05203
86.092,15.00816,0.01283025,0.28099,1.05184
86.792,15.0792,0.01282476,0.28221,1.05165
87.492,15.14993,0.01212117,0.28004,1.05146
88.192,15.22015,0.01061337,0.28294,1.05127
88.892,15.29045,0.01238927,0.28021,1.05107
89.592,15.3605,0.01238953,0.28305,1.05088
90.292,15.4303,0.01107098,0.28086,1.05068
90.992,15.5001,0.01107,0.28006,1.05049
91.692,15.5699,0.01107277,0.2805,1.05029
92.392,15.6401,0.01106928,0.2795,1.05009
93.092,15.70999,0.01108451,0.27861,1.0499
93.792,15.77989,0.00703895,0.27997,1.0497
94.492,15.84929,0.005703904,0.27971,1.0495
95.192,15.91881,0.008451482,0.28125,1.04929
95.892,15.98744,0.009868515,0.27785,1.04909
96.592,16.05655,0.008550981,0.27796,1.04889
97.292,16.1256,0.008550003,0.27818,1.04869
97.992,16.19513,0.008522931,0.27594,1.04848
98.692,16.2644,0.006243171,0.27657,1.04828
99.392,16.33332,0.00611808,0.27683,1.04807
100.092,16.40225,0.00729656,0.27568,1.04786
100.792,16.4712,0.0090832,0.27533,1.04766
101.492,16.53998,0.01041913,0.27341,1.04745
102.192,16.6087,0.01174331,0.27168,1.04724
102.892,16.67699,0.007866994,0.27156,1.04703
103.592,16.74573,0.006498793,0.27277,1.04681
104.292,16.81459,0.00379349,0.27169,1.0466
104.992,16.88365,0.00384006,0.27055,1.04639
105.692,16.95251,0.004851322,0.27222,1.04618
106.392,17.02083,0.00749081,0.27058,1.04596
107.092,17.08925,0.01075163,0.26866,1.04574
107.792,17.15795,0.00943001,0.2691,1.04553
108.492,17.22646,0.01079191,0.26883,1.04531
109.192,17.29512,0.01074362,0.26952,1.04509
109.892,17.3632,0.009468465,0.26862,1.04487
110.592,17.43139,0.007398801,0.26944,1.04465
111.292,17.49983,0.00746003,0.27028,1.04443
111.992,17.56834,0.006169143,0.27061,1.04421
112.692,17.6373,0.005487045,0.27177,1.04399
113.392,17.70562,0.0054795,0.27254,1.04377
114.092,17.7742,0.00680103,0.2732,1.04354
114.792,17.8427,0.0081008,0.27277,1.04332
115.492,17.91092,0.00680094,0.27364,1.04309
116.192,17.97878,0.00548168,0.27306,1.04286
116.892,18.04676,0.00548001,0.27236,1.04264
117.592,18.11533,0.005381522,0.27314,1.04241
118.292,18.18412,0.005431335,0.27576,1.04218
118.992,18.25264,0.00551176,0.27369,1.04195
119.692,18.32084,0.00544206,0.27658,1.04172
120.392,18.38887,0.00548008,0.27778,1.04149
121.092,18.4569,0.004166685,0.27819,1.04125
121.792,18.5248,0.004170001,0.27961,1.04102
122.492,18.59256,0.00416999,0.27978,1.04078
123.192,18.66049,0.00371608,0.27992,1.04055
123.892,18.72845,0.004159775,0.27955,1.04031
124.592,18.79618,0.004109697,0.28279,1.04008
125.292,18.86356,0.00548026,0.28002,1.03984
125.992,18.9316,0.00547312,0.28237,1.0396
126.692,18.9999,0.004170367,0.28135,1.03936
127.392,19.0685,0.004171674,0.28284,1.03912
128.092,19.13619,0.004511537,0.28324,1.03888
128.792,19.20399,0.005796649,0.28442,1.03864
129.492,19.2716,0.005810492,0.28554,1.0384
130.192,19.33935,0.00712858,0.28683,1.03815
130.892,19.40707,0.007129998,0.28927,1.03791
131.592,19.47484,0.007129725,0.28641,1.03766
132.292,19.54256,0.008136449,0.28677,1.03742
132.992,19.61032,0.00810999,0.28719,1.03717
133.692,19.67802,0.008109999,0.2901,1.03692
134.392,19.74536,0.008117087,0.28938,1.03668
135.092,19.81269,0.006803126,0.29,1.03643
135.792,19.87998,0.0061406,0.29003,1.03618
136.492,19.9478,0.00680548,0.29225,1.03593
137.192,20.01567,0.005491066,0.29232,1.03567
137.892,20.08343,0.00549001,0.29126,1.03542
138.592,20.1512,0.005445245,0.29217,1.03517
139.292,20.21878,0.005832586,0.29045,1.03491
139.992,20.28632,0.007129905,0.29148,1.03466
140.692,20.3537,0.00713,0.29437,1.0344
141.392,20.42129,0.007130005,0.29588,1.03415
142.092,20.489,0.007133254,0.29571,1.03389
142.792,20.55692,0.005486685,0.29604,1.03363
143.492,20.6243,0.0045162,0.29727,1.03337
144.192,20.69185,0.004486382,0.29812,1.03311
144.892,20.75925,0.00580998,0.29898,1.03285
145.592,20.82676,0.007331239,0.2994,1.03259
146.292,20.89433,0.008647321,0.30256,1.03233
146.992,20.96182,0.00833772,0.30272,1.03207
147.692,21.0293,0.007020296,0.30294,1.0318
148.392,21.0966,0.005700965,0.30567,1.03154
149.092,21.1635,0.005748508,0.30718,1.03127
149.792,21.23072,0.005709545,0.30841,1.03101
150.492,21.2978,0.005700001,0.30756,1.03074
151.192,21.3653,0.0057,0.30828,1.03047
151.892,21.4329,0.00570003,0.31252,1.0302
152.592,21.49971,0.005666545,0.31316,1.02993
153.292,21.56644,0.002326896,0.31553,1.02966
153.992,21.63353,0.000443338,0.31889,1.02939
154.692,21.70112,-0.00228064,0.32291,1.02912
155.392,21.76894,-0.001558731,0.32313,1.02885
156.092,21.8363,0.000415155,0.32447,1.02858
156.792,21.9036,0.00166838,0.32666,1.0283
157.492,21.97081,0.00037172,0.32955,1.02803
158.192,22.03796,-0.000878162,0.33011,1.02775
158.892,22.10495,0.000430414,0.33202,1.02747
159.592,22.17134,0.000430434,0.3342,1.0272
160.292,22.2383,0.001757673,0.33606,1.02692
160.992,22.3054,0.00175998,0.34016,1.02664
161.692,22.37311,0.00176247,0.34266,1.02636
162.392,22.44023,-0.0005125832,0.34485,1.02608
163.092,22.50713,-0.00105105,0.34675,1.0258
163.792,22.57421,0.002082329,0.34668,1.02552
164.492,22.64136,0.000371533,0.35184,1.02523
165.192,22.7086,-0.004363288,0.35585,1.02495
165.892,22.77561,-0.00433951,0.35675,1.02467
166.592,22.84238,-0.00570989,0.36038,1.02438
167.292,22.90931,-0.00636193,0.36393,1.0241
167.992,22.97644,-0.004696245,0.36663,1.02381
168.692,23.04355,-0.00340008,0.37059,1.02352
169.392,23.11071,-0.00309651,0.37265,1.02323
170.092,23.17762,-0.003410065,0.37683,1.02294
170.792,23.24464,-0.004690113,0.37855,1.02266
171.492,23.31155,-0.006046809,0.38191,1.02236
172.192,23.3783,-0.00739547,0.38581,1.02207
172.892,23.44475,-0.00473291,0.38885,1.02178
173.592,23.51115,-0.00602917,0.391,1.02149
174.292,23.57779,-0.00725436,0.39556,1.0212
174.992,23.64474,-0.00735003,0.40039,1.0209
175.692,23.71159,-0.00736254,0.40375,1.02061
176.392,23.7787,-0.008671853,0.40509,1.02031
177.092,23.84538,-0.005886006,0.40765,1.02001
177.792,23.91271,-0.005812625,0.41159,1.01972
178.492,23.98001,-0.008448375,0.41501,1.01942
179.192,24.0472,-0.008372548,0.41984,1.01912
179.892,24.11435,-0.01122451,0.42505,1.01882
180.592,24.18114,-0.01261988,0.42991,1.01852
181.292,24.24833,-0.01261708,0.43217,1.01822
181.992,24.31549,-0.01393519,0.43786,1.01792
182.692,24.3825,-0.01459879,0.44052,1.01761
183.392,24.44882,-0.01318375,0.44377,1.01731
184.092,24.5156,-0.01316974,0.44877,1.01701
184.792,24.58248,-0.0145895,0.4533,1.0167
185.492,24.6497,-0.0195573,0.4558,1.0164
186.192,24.7167,-0.02052879,0.46006,1.01609
186.892,24.78346,-0.02062248,0.46333,1.01578
187.592,24.85022,-0.0206196,0.46868,1.01547
188.292,24.91715,-0.02159587,0.46936,1.01517
188.992,24.98411,-0.0229284,0.47644,1.01486
189.692,25.05114,-0.02425601,0.47813,1.01455
190.392,25.11763,-0.02541545,0.48353,1.01424
191.092,25.18443,-0.02677664,0.48481,1.01392
191.792,25.2512,-0.02982461,0.48936,1.01361
192.492,25.31806,-0.02840569,0.49199,1.0133
193.192,25.38484,-0.02906891,0.49403,1.01298
193.892,25.45164,-0.03042346,0.49862,1.01267
194.592,25.51817,-0.03352722,0.50115,1.01235
195.292,25.58491,-0.03656831,0.50396,1.01204
195.992,25.65166,-0.03764516,0.50747,1.01172
196.692,25.71874,-0.03675128,0.51139,1.0114
197.392,25.78576,-0.03899622,0.5141,1.01109
198.092,25.85219,-0.04071862,0.51537,1.01077
198.792,25.91845,-0.04332843,0.51726,1.01045
199.492,25.98459,-0.04455796,0.51963,1.01013
200.192,26.05184,-0.04466408,0.52138,1.00981
200.892,26.11903,-0.04463263,0.52336,1.00948
201.592,26.18664,-0.04729599,0.52515,1.00916
202.292,26.2536,-0.04793036,0.5268,1.00884
202.992,26.32047,-0.04790721,0.52781,1.00851
203.692,26.3875,-0.05066074,0.53189,1.00819
204.392,26.45448,-0.05198647,0.53135,1.00786
205.092,26.52153,-0.05264855,0.5324,1.00754
205.792,26.58796,-0.0548347,0.53538,1.00721
206.492,26.6549,-0.0565246,0.53362,1.00688
207.192,26.7217,-0.05789087,0.53501,1.00655
207.892,26.7891,-0.06032324,0.53719,1.00622
208.592,26.8558,-0.06317929,0.53769,1.00589
209.292,26.92261,-0.06600426,0.53973,1.00556
209.992,26.9893,-0.06603069,0.54003,1.00523
210.692,27.05602,-0.06602201,0.53985,1.0049
211.392,27.1228,-0.0688708,0.53976,1.00457
212.092,27.18975,-0.07019992,0.54024,1.00423
212.792,27.2567,-0.07150901,0.53842,1.0039
213.492,27.3236,-0.07283911,0.53776,1.00357
214.192,27.3903,-0.07383276,0.53573,1.00323
214.892,27.45702,-0.07667231,0.53871,1.00289
215.592,27.52365,-0.07955777,0.53842,1.00256
216.292,27.5905,-0.08154276,0.53875,1.00222
216.992,27.65705,-0.08533635,0.53493,1.00188
217.692,27.72358,-0.08708599,0.53483,1.00154
218.392,27.78985,-0.08710003,0.5335,1.0012
219.092,27.8565,-0.08829521,0.53656,1.00086
219.792,27.9233,-0.09075288,0.53254,1.00052
220.492,27.99045,-0.09310833,0.53433,1.00018
221.192,28.0572,-0.09620531,0.53374,0.99984
221.892,28.12377,-0.09635577,0.53167,0.99949
222.592,28.19033,-0.09932397,0.53096,0.99915
223.292,28.2568,-0.10071,0.53232,0.9988
223.992,28.3235,-0.10203,0.53293,0.99846
224.692,28.39025,-0.10441,0.53169,0.99811
225.392,28.45702,-0.10699,0.53151,0.99777
226.092,28.52354,-0.10845,0.52999,0.99742
226.792,28.58948,-0.10982,0.53158,0.99707
227.492,28.6558,-0.1109,0.53221,0.99672
228.192,28.72247,-0.11349,0.53329,0.99637
228.892,28.78965,-0.11708,0.53395,0.99602
229.592,28.85687,-0.1233,0.53342,0.99567
230.292,28.9236,-0.12772,0.53438,0.99532
230.992,28.9907,-0.13259,0.5359,0.99497
231.692,29.0575,-0.13455,0.53406,0.99461
232.392,29.1243,-0.13623,0.53386,0.99426
233.092,29.19111,-0.13503,0.53179,0.99391
233.792,29.25778,-0.13832,0.53113,0.99355
234.492,29.32408,-0.13941,0.53168,0.99319
235.192,29.3904,-0.14085,0.53012,0.99284
235.892,29.4567,-0.14383,0.53295,0.99248
236.592,29.52355,-0.14716,0.53018,0.99212
237.292,29.5904,-0.1499,0.53066,0.99176
237.992,29.65765,-0.15212,0.53123,0.99141
238.692,29.725,-0.15488,0.52944,0.99105
239.392,29.79247,-0.15663,0.52657,0.99069
240.092,29.8591,-0.16035,0.52755,0.99032
240.792,29.9258,-0.16312,0.52639,0.98996
241.492,29.99243,-0.16731,0.52786,0.9896
242.192,30.0595,-0.17302,0.52618,0.98924
242.892,30.1264,-0.17843,0.52439,0.98887
243.592,30.19329,-0.17849,0.52733,0.98851
244.292,30.2601,-0.18147,0.52547,0.98814
244.992,30.327,-0.18578,0.52543,0.98778
245.692,30.39378,-0.19109,0.52461,0.98741
246.392,30.46068,-0.19446,0.52373,0.98704
247.092,30.5275,-0.19729,0.52246,0.98668
247.792,30.5941,-0.19804,0.5222,0.98631
248.492,30.66082,-0.20066,0.5217,0.98594
249.192,30.72745,-0.20276,0.52143,0.98557
249.892,30.7944,-0.20859,0.52206,0.9852
250.592,30.8613,-0.2116,0.52076,0.98483
251.292,30.92807,-0.2155,0.52379,0.98446
251.992,30.9946,-0.21848,0.52048,0.98408
252.692,31.06115,-0.2245,0.52209,0.98371
253.392,31.12786,-0.22585,0.52029,0.98334
254.092,31.19475,-0.22845,0.52084,0.98296
254.792,31.26173,-0.23525,0.52225,0.98259
255.492,31.3284,-0.23727,0.52266,0.98221
256.192,31.3952,-0.24165,0.52139,0.98184
256.892,31.46187,-0.24497,0.52228,0.98146
257.592,31.5289,-0.24896,0.52085,0.98108
258.292,31.5956,-0.25305,0.51887,0.9807
258.992,31.66224,-0.25794,0.52238,0.98032
259.692,31.72904,-0.2662,0.51968,0.97994
260.392,31.7955,-0.26774,0.52248,0.97956
261.092,31.8621,-0.27067,0.51912,0.97918
261.792,31.9287,-0.27735,0.5203,0.9788
262.492,31.99568,-0.28073,0.51903,0.97842
263.192,32.0629,-0.28533,0.51889,0.97804
263.892,32.12977,-0.29058,0.51941,0.97765
264.592,32.19644,-0.29748,0.51999,0.97727
265.292,32.26291,-0.30491,0.5185,0.97688
265.992,32.3294,-0.31044,0.516,0.9765
266.692,32.3964,-0.31747,0.5186,0.97611
267.392,32.46318,-0.32302,0.51437,0.97573
268.092,32.5299,-0.32584,0.51526,0.97534
268.792,32.59672,-0.33326,0.51345,0.97495
269.492,32.6636,-0.33832,0.51153,0.97456
270.192,32.73048,-0.34514,0.5075,0.97417
270.892,32.79736,-0.35241,0.50628,0.97378
271.592,32.86411,-0.35909,0.50561,0.97339
272.292,32.93101,-0.3667,0.50339,0.973
272.992,32.99758,-0.3753,0.498,0.97261
273.692,33.06386,-0.38104,0.49613,0.97222
274.392,33.1301,-0.39027,0.49442,0.97183
275.092,33.19656,-0.39797,0.49104,0.97143
275.792,33.26336,-0.40186,0.48742,0.97104
276.492,33.33052,-0.40881,0.48517,0.97064
277.192,33.39792,-0.41678,0.47998,0.97025
277.892,33.4651,-0.42488,0.47652,0.96985
278.592,33.5319,-0.43242,0.47455,0.96946
279.292,33.59847,-0.44118,0.4693,0.96906
279.992,33.66507,-0.44661,0.4626,0.96866
280.692,33.73215,-0.45367,0.45774,0.96826
281.392,33.79911,-0.4621,0.45267,0.96787
282.092,33.86679,-0.47176,0.44539,0.96747
282.792,33.9341,-0.48076,0.4432,0.96707
283.492,34.00136,-0.49025,0.43815,0.96666
284.192,34.06838,-0.49923,0.43391,0.96626
284.892,34.13523,-0.50759,0.43027,0.96586
285.592,34.20194,-0.51538,0.42169,0.96546
286.292,34.2688,-0.52492,0.41816,0.96506
286.992,34.33573,-0.53121,0.41256,0.96465
287.692,34.40289,-0.53921,0.40763,0.96425
288.392,34.46998,-0.54909,0.40554,0.96384
289.092,34.537,-0.56224,0.40054,0.96344
289.792,34.6038,-0.57284,0.39734,0.96303
290.492,34.6707,-0.58303,0.39397,0.96262
291.192,34.73769,-0.59314,0.39183,0.96222
291.892,34.80454,-0.60081,0.3862,0.96181
292.592,34.87148,-0.6124,0.38319,0.9614
293.292,34.93799,-0.62239,0.3844,0.96099
293.992,35.00495,-0.63401,0.38103,0.96058
294.692,35.0718,-0.64479,0.37915,0.96017
295.392,35.13882,-0.65466,0.37735,0.95976
296.092,35.2059,-0.66605,0.37432,0.95935
296.792,35.2729,-0.67604,0.37114,0.95893
297.492,35.33988,-0.68678,0.37021,0.95852
298.192,35.40659,-0.69813,0.37118,0.95811
298.892,35.47358,-0.70941,0.36858,0.95769
299.592,35.54043,-0.72293,0.36654,0.95728
300.292,35.60742,-0.73503,0.36746,0.95687
300.992,35.6743,-0.74707,0.36782,0.95645
301.692,35.74138,-0.76277,0.36594,0.95603
302.392,35.8086,-0.77813,0.36432,0.95562
303.092,35.8759,-0.78851,0.36498,0.9552
303.792,35.94311,-0.7994,0.36549,0.95478
304.492,36.01031,-0.81088,0.36465,0.95436
305.192,36.07723,-0.8267,0.36577,0.95394
305.892,36.1443,-0.84115,0.36552,0.95352
306.592,36.2114,-0.85574,0.36526,0.9531
307.292,36.2786,-0.86737,0.36548,0.95268
307.992,36.34603,-0.88136,0.3671,0.95226
308.692,36.4131,-0.89439,0.36635,0.95184
309.392,36.48022,-0.90772,0.36752,0.95142
310.092,36.54742,-0.92288,0.36739,0.95099
310.792,36.6145,-0.93845,0.36757,0.95057
311.492,36.68152,-0.95292,0.36848,0.95014
312.192,36.74863,-0.9671,0.37132,0.94972
312.892,36.81576,-0.97925,0.36966,0.94929
313.592,36.88326,-0.99513,0.36963,0.94887
314.292,36.95033,-1.01128,0.37133,0.94844
314.992,37.01753,-1.02822,0.37265,0.94801
315.692,37.0846,-1.04645,0.37479,0.94759
316.392,37.1517,-1.06451,0.37306,0.94716
317.092,37.21898,-1.08135,0.37335,0.94673
317.792,37.28584,-1.09647,0.37588,0.9463
318.492,37.35259,-1.11492,0.37486,0.94587
319.192,37.41983,-1.13391,0.37785,0.94544
319.892,37.48753,-1.15354,0.37931,0.94501
320.592,37.5552,-1.17327,0.38282,0.94458
321.292,37.62259,-1.19122,0.3807,0.94415
321.992,37.68977,-1.20919,0.38436,0.94371
322.692,37.75692,-1.22712,0.38106,0.94328
323.392,37.824,-1.24434,0.38491,0.94285
324.092,37.8913,-1.26244,0.38401,0.94241
324.792,37.9587,-1.28351,0.38646,0.94198
325.492,38.02613,-1.30311,0.38905,0.94154
326.192,38.09349,-1.32467,0.38939,0.94111
326.892,38.16072,-1.34466,0.39059,0.94067
327.592,38.22795,-1.36502,0.39096,0.94023
328.292,38.29503,-1.38877,0.3916,0.93979
328.992,38.36223,-1.41213,0.39053,0.93936
329.692,38.42955,-1.43142,0.39011,0.93892
330.392,38.49702,-1.44996,0.38973,0.93848
331.092,38.56452,-1.47289,0.38949,0.93804
331.792,38.63159,-1.49789,0.38975,0.9376
332.492,38.6987,-1.52248,0.39042,0.93716
333.192,38.766,-1.54973,0.39097,0.93672
333.892,38.83319,-1.57092,0.39125,0.93627
334.592,38.9003,-1.58979,0.38941,0.93583
335.292,38.96765,-1.61263,0.38705,0.93539
335.992,39.0353,-1.63843,0.38389,0.93495
336.692,39.1026,-1.66284,0.38451,0.9345
337.392,39.16933,-1.68582,0.38064,0.93406
338.092,39.23663,-1.70904,0.37603,0.93361
338.792,39.30475,-1.72747,0.37073,0.93317
339.492,39.37272,-1.75122,0.36766,0.93272
340.192,39.43994,-1.77562,0.36399,0.93227
340.892,39.5072,-1.79729,0.35801,0.93183
341.592,39.5747,-1.82189,0.35283,0.93138
342.292,39.64261,-1.84549,0.3452,0.93093
342.992,39.71043,-1.87135,0.34041,0.93048
343.692,39.77811,-1.89384,0.33319,0.93003
344.392,39.84559,-1.91661,0.32805,0.92958
345.092,39.91295,-1.94068,0.31988,0.92913
345.792,39.97991,-1.963,0.31172,0.92868
346.492,40.04715,-1.9858,0.30203,0.92823
347.192,40.11456,-2.00691,0.29161,0.92778
347.892,40.18267,-2.02666,0.28396,0.92733
348.592,40.25072,-2.04583,0.27025,0.92687
349.292,40.3185,-2.06781,0.25923,0.92642
349.992,40.38615,-2.08639,0.25187,0.92596
350.692,40.4538,-2.10577,0.2422,0.92551
351.392,40.52135,-2.12611,0.23068,0.92506
352.092,40.58896,-2.1456,0.21971,0.9246
352.792,40.65655,-2.16468,0.2079,0.92414
353.492,40.72428,-2.1813,0.19805,0.92369
354.192,40.79188,-2.19651,0.18727,0.92323
354.892,40.8596,-2.21401,0.17481,0.92277
355.592,40.9272,-2.22999,0.16489,0.92232
356.292,40.99501,-2.24291,0.15123,0.92186
356.992,41.06283,-2.25717,0.13795,0.9214
357.692,41.13089,-2.26839,0.1259,0.92094
358.392,41.19855,-2.28169,0.12025,0.92048
359.092,41.2664,-2.295,0.10761,0.92002
359.792,41.33406,-2.30812,0.10133,0.91956
360.492,41.4019,-2.31975,0.09116126,0.9191
361.192,41.46969,-2.33042,0.08307517,0.91863
361.892,41.5375,-2.33915,0.07318249,0.91817
362.592,41.6052,-2.34738,0.06473857,0.91771
363.292,41.67301,-2.3568,0.0580819,0.91725
363.992,41.7406,-2.3665,0.0478798,0.91678
364.692,41.80839,-2.37408,0.04360784,0.91632
365.392,41.87616,-2.38583,0.0356202,0.91585
366.092,41.94405,-2.39296,0.0333947,0.91539
366.792,42.01195,-2.39697,0.02341997,0.91492
367.492,42.07948,-2.40026,0.02032214,0.91445
368.192,42.14673,-2.40514,0.01448157,0.91399
368.892,42.21437,-2.41062,0.0085975,0.91352
369.592,42.28218,-2.4168,0.003592481,0.91305
370.292,42.35046,-2.42218,0.000918556,0.91258
370.992,42.4185,-2.42689,-0.004479276,0.91212
371.692,42.4863,-2.43089,-0.01168753,0.91165
372.392,42.55404,-2.43803,-0.01343422,0.91118
373.092,42.6218,-2.44348,-0.01414778,0.91071
373.792,42.6899,-2.44629,-0.01974734,0.91024
374.492,42.75777,-2.45173,-0.02088998,0.90976
375.192,42.82557,-2.45452,-0.02330323,0.90929
375.892,42.89335,-2.45563,-0.0272235,0.90882
376.592,42.96131,-2.45738,-0.02922406,0.90835
377.292,43.02924,-2.46104,-0.0317313,0.90788
377.992,43.09715,-2.46549,-0.02968595,0.9074
378.692,43.16506,-2.47143,-0.03172564,0.90693
379.392,43.2331,-2.46992,-0.03546338,0.90645
380.092,43.3011,-2.46998,-0.03521105,0.90598
380.792,43.36911,-2.4687,-0.03559765,0.9055
381.492,43.4371,-2.4749,-0.03390563,0.90503
382.192,43.50506,-2.48002,-0.03350678,0.90455
382.892,43.57306,-2.48236,-0.03674318,0.90407
383.592,43.64096,-2.48545,-0.03352019,0.9036
384.292,43.70881,-2.49009,-0.03634745,0.90312
384.992,43.77675,-2.49358,-0.03646214,0.90264
385.692,43.8448,-2.49374,-0.04102582,0.90216
386.392,43.9127,-2.49565,-0.03751516,0.90168
387.092,43.98052,-2.49788,-0.03903387,0.9012
387.792,44.04828,-2.50121,-0.03807518,0.90072
388.492,44.1162,-2.5053,-0.04021338,0.90024
389.192,44.18421,-2.50836,-0.0423066,0.89976
389.892,44.25222,-2.50838,-0.04284282,0.89928
390.592,44.3202,-2.51039,-0.04225241,0.8988
391.292,44.38816,-2.51329,-0.04109717,0.89832
391.992,44.4562,-2.51623,-0.03999684,0.89784
392.692,44.52428,-2.51619,-0.04391033,0.89735
393.392,44.5923,-2.51973,-0.04478274,0.89687
394.092,44.66041,-2.52443,-0.04552363,0.89638
394.792,44.72846,-2.52523,-0.04357048,0.8959
395.492,44.79675,-2.52936,-0.04340231,0.89542
396.192,44.86488,-2.53212,-0.04509598,0.89493
396.892,44.933,-2.5346,-0.04691138,0.89444
397.592,45.00125,-2.5348,-0.04672199,0.89396
398.292,45.06926,-2.53595,-0.04782339,0.89347
398.992,45.13753,-2.53811,-0.05123351,0.89298
399.692,45.2057,-2.54089,-0.05166428,0.8925
400.392,45.27402,-2.54341,-0.05148373,0.89201
401.092,45.3422,-2.54285,-0.04889236,0.89152
401.792,45.4104,-2.54621,-0.04836665,0.89103
402.492,45.478,-2.54803,-0.05133136,0.89054
403.192,45.54607,-2.55033,-0.04977831,0.89005
403.892,45.614,-2.55263,-0.0450707,0.88956
404.592,45.68266,-2.55605,-0.04553874,0.88907
405.292,45.75121,-2.55723,-0.04291499,0.88858
405.992,45.81963,-2.56105,-0.04133608,0.88809
406.692,45.8876,-2.56509,-0.04050404,0.8876
407.392,45.95582,-2.56589,-0.03963817,0.88711
408.092,46.02425,-2.56774,-0.03990846,0.88661
408.792,46.09308,-2.56913,-0.0406973,0.88612
409.492,46.16137,-2.56765,-0.042132,0.88563
410.192,46.2298,-2.5719,-0.04062296,0.88513
410.892,46.29809,-2.57451,-0.04045952,0.88464
411.592,46.36654,-2.57726,-0.03940473,0.88414
412.292,46.4351,-2.57746,-0.03657496,0.88365
412.992,46.5034,-2.58197,-0.03444192,0.88315
413.692,46.57162,-2.58466,-0.03605387,0.88266
414.392,46.63974,-2.58593,-0.03458819,0.88216
415.092,46.7081,-2.58496,-0.03506287,0.88166
415.792,46.77632,-2.58784,-0.03534166,0.88117
416.492,46.84453,-2.59203,-0.03336765,0.88067
417.192,46.91267,-2.5948,-0.0316222,0.88017
417.892,46.98079,-2.59951,-0.03172404,0.87967
418.592,47.0493,-2.60175,-0.03274451,0.87917
419.292,47.11758,-2.60275,-0.02834057,0.87867
419.992,47.1862,-2.60058,-0.0320563,0.87817
420.692,47.25393,-2.60176,-0.03120084,0.87767
421.392,47.3217,-2.60439,-0.02982456,0.87717
422.092,47.3895,-2.60595,-0.02981771,0.87667
422.792,47.458,-2.61098,-0.02873614,0.87617
423.492,47.52695,-2.61787,-0.02525475,0.87567
424.192,47.59538,-2.62155,-0.02434394,0.87517
424.892,47.66385,-2.62447,-0.02535124,0.87466
425.592,47.73233,-2.62567,-0.02357602,0.87416
426.292,47.80161,-2.62569,-0.0257102,0.87366
426.992,47.8705,-2.62534,-0.02664356,0.87315
427.692,47.93994,-2.62666,-0.0246115,0.87265
428.392,48.00878,-2.62808,-0.02249233,0.87214
429.092,48.0779,-2.62943,-0.02430897,0.87164
429.792,48.14658,-2.6294,-0.02059535,0.87113
430.492,48.21525,-2.6294,-0.02145836,0.87063
431.192,48.28383,-2.62933,-0.0197744,0.87012
431.892,48.35228,-2.63306,-0.0181053,0.86962
432.592,48.4208,-2.63987,-0.0151968,0.86911
433.292,48.48918,-2.64168,-0.01515317,0.8686
433.992,48.558,-2.6441,-0.01257263,0.86809
434.692,48.6267,-2.64911,-0.01004543,0.86758
435.392,48.6956,-2.65126,-0.01116823,0.86708
436.092,48.76444,-2.65111,-0.009931994,0.86657
436.792,48.83302,-2.65167,-0.01127479,0.86606
437.492,48.9017,-2.65264,-0.006898169,0.86555
438.192,48.97025,-2.65518,-0.006517566,0.86504
438.892,49.03918,-2.65517,-0.007280261,0.86453
439.592,49.10798,-2.65541,-0.004478713,0.86402
440.292,49.17673,-2.65709,-0.00643929,0.86351
440.992,49.2453,-2.65714,-0.005536225,0.86299
441.692,49.31389,-2.65835,-0.00496762,0.86248
442.392,49.3825,-2.66101,-0.00489107,0.86197
443.092,49.4512,-2.66417,-0.00322963,0.86146
443.792,49.51996,-2.66692,-0.003978522,0.86094
444.492,49.58867,-2.66822,0.001488832,0.86043
445.192,49.6573,-2.66955,-0.0008244377,0.85992
445.892,49.72591,-2.67086,0.00203482,0.8594
446.592,49.79457,-2.67344,0.001955426,0.85889
447.292,49.86291,-2.6762,0.005282197,0.85837
447.992,49.93132,-2.67771,0.001942194,0.85786
448.692,49.9994,-2.67731,0.003081852,0.85734
449.392,50.06779,-2.67666,0.002460859,0.85683
450.092,50.1364,-2.67718,0.005345635,0.85631
450.792,50.20533,-2.6804,0.005405114,0.85579
451.492,50.27433,-2.68456,0.00480478,0.85528
452.192,50.34329,-2.68524,0.00546146,0.85476
452.892,50.41232,-2.68515,0.004077384,0.85424
453.592,50.4816,-2.68613,0.004725393,0.85372
454.292,50.5506,-2.68829,0.006507118,0.8532
454.992,50.61942,-2.69082,0.005802781,0.85269
455.692,50.68807,-2.69224,0.008160555,0.85217
456.392,50.7568,-2.69355,0.005829277,0.85165
457.092,50.82569,-2.69562,0.00702797,0.85113
457.792,50.89477,-2.6963,0.006951015,0.85061
458.492,50.96365,-2.69762,0.007968626,0.85009
459.192,51.03233,-2.69762,0.01094065,0.84956
459.892,51.10087,-2.69762,0.00697383,0.84904
460.592,51.16963,-2.69915,0.0060455,0.84852
461.292,51.23826,-2.70047,0.006104554,0.848
461.992,51.30702,-2.70178,0.004773706,0.84748
462.692,51.3757,-2.70189,0.007239141,0.84695
463.392,51.44461,-2.69916,0.0078203,0.84643
464.092,51.51345,-2.70196,0.00650105,0.84591
464.792,51.58235,-2.7063,0.01032625,0.84538
465.492,51.65125,-2.70781,0.008756732,0.84486
466.192,51.71994,-2.70856,0.00795183,0.84434
466.892,51.78846,-2.70986,0.009234285,0.84381
467.592,51.85731,-2.71089,0.007128609,0.84328
468.292,51.9263,-2.71221,0.00823254,0.84276
468.992,51.99534,-2.71549,0.009849198,0.84223
469.692,52.064,-2.71993,0.01040727,0.84171
470.392,52.13289,-2.72128,0.009694995,0.84118
471.092,52.202,-2.72248,0.008503329,0.84065
471.792,52.27147,-2.72395,0.01285794,0.84013
472.492,52.34067,-2.72395,0.01007393,0.8396
473.192,52.40952,-2.72395,0.00678618,0.83907
473.892,52.47834,-2.72261,0.009999346,0.83854
474.592,52.54727,-2.72394,0.00530852,0.83801
475.292,52.61611,-2.72533,0.00702481,0.83749
475.992,52.6845,-2.72526,0.00609601,0.83696
476.692,52.7531,-2.72599,0.005715705,0.83643
477.392,52.82187,-2.72749,0.00504706,0.8359
478.092,52.89134,-2.72928,0.006133195,0.83537
478.792,52.96054,-2.72955,0.00332979,0.83484
479.492,53.03006,-2.73064,0.006361616,0.83431
480.192,53.0994,-2.73195,0.002246074,0.83377
480.892,53.1685,-2.73326,0.0004845017,0.83324
481.592,53.23737,-2.73363,-0.0009669121,0.83271
482.292,53.30655,-2.7336,-0.0001644802,0.83218
482.992,53.37588,-2.73459,-0.001837,0.83165
483.692,53.44525,-2.7375,-0.0008421385,0.83111
484.392,53.51455,-2.73871,0.00244009,0.83058
485.092,53.58396,-2.74133,-0.000418978,0.83005
485.792,53.65359,-2.7427,0.001063925,0.82951
486.492,53.72257,-2.7427,-0.0002428889,0.82898
487.192,53.7917,-2.74141,-0.002325002,0.82845
487.892,53.86088,-2.74139,-0.00373982,0.82791
488.592,53.93036,-2.74271,-0.004011789,0.82738
489.292,53.9994,-2.74272,-0.003298036,0.82684
489.992,54.068,-2.74501,-0.00572682,0.8263
490.692,54.13652,-2.74641,-0.008485602,0.82577
491.392,54.2058,-2.74624,-0.00687581,0.82523
492.092,54.27536,-2.74835,-0.003173885,0.8247
492.792,54.34482,-2.75093,-0.00521337,0.82416
493.492,54.41401,-2.75304,-0.005810055,0.82362
494.192,54.48333,-2.7549,-0.005132787,0.82308
494.892,54.55282,-2.75612,-0.005530251,0.82255
495.592,54.62211,-2.7575,-0.008346434,0.82201
496.292,54.69126,-2.7548,-0.007915545,0.82147
496.992,54.76048,-2.75487,-0.00546103,0.82093
497.692,54.82971,-2.75488,-0.007910326,0.82039
498.392,54.8991,-2.75619,-0.01071648,0.81985
499.092,54.9684,-2.75489,-0.01258441,0.81931
499.792,55.03774,-2.75466,-0.01311916,0.81877
500.492,55.107,-2.75484,-0.01348527,0.81823
501.192,55.1762,-2.75733,-0.01038239,0.81769
501.892,55.24566,-2.75792,-0.0136542,0.81715
502.592,55.31519,-2.75485,-0.012251,0.81661
503.292,55.385,-2.75713,-0.01342607,0.81607
503.992,55.4544,-2.76038,-0.01226286,0.81553
504.692,55.52384,-2.76568,-0.01313115,0.81499
505.392,55.59321,-2.76733,-0.01031298,0.81445
506.092,55.6626,-2.7713,-0.008245762,0.8139
506.792,55.732,-2.77364,-0.00515729,0.81336
507.492,55.80106,-2.77231,-0.005079125,0.81282
508.192,55.8703,-2.77228,-0.002592885,0.81227
508.892,55.9394,-2.77099,-0.005881191,0.81173
509.592,56.0082,-2.76837,-0.00230746,0.81119
510.292,56.0772,-2.76837,-0.002369547,0.81064
510.992,56.1461,-2.76979,-9.414173e-05,0.8101
511.692,56.21545,-2.77265,0.000430128,0.80955
512.392,56.2843,-2.7713,0.000448912,0.80901
513.092,56.3536,-2.76991,0.002276665,0.80846
513.792,56.4227,-2.77095,0.004037255,0.80792
514.492,56.49219,-2.77401,0.002961546,0.80737
515.192,56.5613,-2.7754,0.00243216,0.80683
515.892,56.6308,-2.77719,0.002578592,0.80628
516.592,56.7,-2.77802,0.00376188,0.80573
517.292,56.76931,-2.77934,0.00164587,0.80519
517.992,56.83865,-2.77868,0.00274112,0.80464
518.692,56.9076,-2.78009,0.001785468,0.80409
519.392,56.97645,-2.78011,0.002806789,0.80354
520.092,57.04521,-2.7813,0.004169024,0.803
520.792,57.11445,-2.78244,0.003562677,0.80245
521.492,57.1841,-2.78173,0.002208849,0.8019
522.192,57.2541,-2.78721,0.00575172,0.80135
522.892,57.32411,-2.79114,0.005939045,0.8008
523.592,57.39391,-2.78844,0.002903857,0.80025
524.292,57.4633,-2.78236,0.003691416,0.7997
524.992,57.53294,-2.78098,0.00298593,0.79915
525.692,57.60252,-2.78229,0.003201737,0.7986
526.392,57.672,-2.78097,0.0003286469,0.79805
527.092,57.74151,-2.7819,0.00132335,0.7975
527.792,57.81095,-2.78711,0.001557344,0.79695
528.492,57.88045,-2.78924,-0.00104718,0.7964
529.192,57.9499,-2.79283,-0.0003694714,0.79585
529.892,58.01947,-2.79283,-0.002117421,0.7953
530.592,58.089,-2.7902,-0.00214686,0.79474
531.292,58.15855,-2.79038,0.000691369,0.79419
531.992,58.228,-2.79643,-0.001143333,0.79364
532.692,58.2972,-2.79962,-0.001182574,0.79309
533.392,58.3666,-2.79795,-0.00283189,0.79253
534.092,58.43605,-2.78917,-0.009155807,0.79198
534.792,58.50575,-2.7898,-0.005317803,0.79143
535.492,58.57509,-2.79279,-0.0070361,0.79087
536.192,58.6443,-2.79327,-0.0082217,0.79032
536.892,58.71356,-2.79329,-0.007936351,0.78977
537.592,58.78301,-2.79337,-0.00727182,0.78921
538.292,58.8527,-2.79442,-0.01036281,0.78866
538.992,58.9223,-2.79507,-0.009914725,0.7881
539.692,58.99191,-2.7974,-0.009538249,0.78755
540.392,59.06148,-2.79887,-0.01008692,0.78699
541.092,59.13103,-2.80147,-0.009479862,0.78644
541.792,59.2005,-2.8015,-0.006996072,0.78588
542.492,59.27001,-2.80281,-0.01308965,0.78532
543.192,59.3397,-2.80281,-0.01512658,0.78477
543.892,59.40948,-2.80412,-0.01917724,0.78421
544.592,59.47922,-2.80412,-0.02264401,0.78365
545.292,59.5487,-2.80284,-0.02330847,0.7831
545.992,59.6179,-2.80368,-0.02467427,0.78254
546.692,59.68756,-2.80412,-0.02307948,0.78198
547.392,59.7574,-2.80412,-0.02684654,0.78143
548.092,59.82742,-2.80556,-0.02478591,0.78087
548.792,59.897,-2.80558,-0.02652014,0.78031
549.492,59.9667,-2.80555,-0.03187019,0.77975
550.192,60.03638,-2.80426,-0.03126292,0.77919
550.892,60.1061,-2.80259,-0.03095764,0.77863
551.592,60.17595,-2.8092,-0.02991708,0.77807
552.292,60.2456,-2.81169,-0.03580164,0.77752
552.992,60.3154,-2.81017,-0.03468148,0.77696
553.692,60.3849,-2.81189,-0.0339276,0.7764
554.392,60.45476,-2.81379,-0.03471237,0.77584
555.092,60.5246,-2.81307,-0.03728489,0.77528
555.792,60.59455,-2.81169,-0.03799428,0.77472
556.492,60.66438,-2.81302,-0.03916326,0.77415
557.192,60.7341,-2.81301,-0.04105458,0.77359
557.892,60.80424,-2.81301,-0.04015137,0.77303
558.592,60.8744,-2.81301,-0.04248617,0.77247
559.292,60.9444,-2.81302,-0.04245389,0.77191
559.992,61.01409,-2.8149,-0.04412892,0.77135
560.692,61.08348,-2.81564,-0.04227563,0.77079
561.392,61.15291,-2.8163,-0.0432178,0.77022
562.092,61.22288,-2.81631,-0.04386522,0.76966
562.792,61.2932,-2.81696,-0.0440246,0.7691
563.492,61.36359,-2.81696,-0.0433605,0.76854
564.192,61.4334,-2.81696,-0.04499379,0.76797
564.892,61.5032,-2.81947,-0.04485064,0.76741
565.592,61.5732,-2.8192,-0.04913756,0.76685
566.292,61.64329,-2.81816,-0.0492951,0.76628
566.992,61.7133,-2.82595,-0.04576278,0.76572
567.692,61.783,-2.82522,-0.04747928,0.76516
568.392,61.8529,-2.82102,-0.05002316,0.76459
569.092,61.9227,-2.82134,-0.05016262,0.76403
569.792,61.99233,-2.82266,-0.05104469,0.76346
570.492,62.06201,-2.82262,-0.04933605,0.7629
571.192,62.13179,-2.8213,-0.04906103,0.76233
571.892,62.2018,-2.82234,-0.0473075,0.76177
572.592,62.27156,-2.82365,-0.04712494,0.7612
573.292,62.3412,-2.82362,-0.04550385,0.76064
573.992,62.4107,-2.82413,-0.04858601,0.76007
574.692,62.48056,-2.8254,-0.04857166,0.7595
575.392,62.55081,-2.82673,-0.0482869,0.75894
576.092,62.6212,-2.83051,-0.04780767,0.75837
576.792,62.6913,-2.83381,-0.0479159,0.75781
577.492,62.76125,-2.83385,-0.04933826,0.75724
578.192,62.8313,-2.83242,-0.04951606,0.75667
578.892,62.9013,-2.83095,-0.05237618,0.7561
579.592,62.9711,-2.8298,-0.05010786,0.75554
580.292,63.04099,-2.82979,-0.05362298,0.75497
580.992,63.1109,-2.82845,-0.05404047,0.7544
581.692,63.1808,-2.82979,-0.05108003,0.75383
582.392,63.25055,-2.83111,-0.0540756,0.75327
583.092,63.32062,-2.83213,-0.05412091,0.7527
583.792,63.39105,-2.83116,-0.05907394,0.75213
584.492,63.46161,-2.82976,-0.05455099,0.75156
585.192,63.5319,-2.83219,-0.05357843,0.75099
585.892,63.60201,-2.83353,-0.05509856,0.75042
586.592,63.6717,-2.83373,-0.05381694,0.74985
587.292,63.74182,-2.8353,-0.05711322,0.74928
587.992,63.81196,-2.83673,-0.05291745,0.74872
588.692,63.88247,-2.83627,-0.05937347,0.74815
589.392,63.9527,-2.83332,-0.06163876,0.74758
590.092,64.02284,-2.83352,-0.06059461,0.74701
590.792,64.09302,-2.83226,-0.05747719,0.74644
591.492,64.16305,-2.83525,-0.05722219,0.74586
592.192,64.2332,-2.83534,-0.05776002,0.74529
592.892,64.3031,-2.83791,-0.05771628,0.74472
593.592,64.37313,-2.84063,-0.05693793,0.74415
594.292,64.4432,-2.84059,-0.05811123,0.74358
594.992,64.51334,-2.84114,-0.05522576,0.74301
595.692,64.5834,-2.84186,-0.0572222,0.74244
596.392,64.6533,-2.84189,-0.05919605,0.74187
597.092,64.7234,-2.8405,-0.05951858,0.7413
597.792,64.79365,-2.83912,-0.05738406,0.74072
598.492,64.8638,-2.84014,-0.05854953,0.74015
599.192,64.93395,-2.8422,-0.05765688,0.73958
599.892,65.0034,-2.84421,-0.05670908,0.73901
600.592,65.0733,-2.84121,-0.05929772,0.73843
601.292,65.14324,-2.84064,-0.05737536,0.73786
601.992,65.21396,-2.8427,-0.05852781,0.73729
602.692,65.28413,-2.84627,-0.05551669,0.73672
603.392,65.354,-2.84941,-0.05683369,0.73614
604.092,65.42405,-2.84958,-0.05516957,0.73557
604.792,65.49426,-2.84928,-0.05828261,0.735
605.492,65.56458,-2.84516,-0.06030082,0.73442
606.192,65.63471,-2.84483,-0.05840589,0.73385
606.892,65.70509,-2.84651,-0.05900805,0.73327
607.592,65.77574,-2.8479,-0.05672687,0.7327
608.292,65.8463,-2.84789,-0.05451435,0.73213
608.992,65.91675,-2.84921,-0.05919102,0.73155
609.692,65.98698,-2.84921,-0.06070669,0.73098
610.392,66.05723,-2.84811,-0.06091836,0.7304
611.092,66.1275,-2.84581,-0.0572204,0.72983
611.792,66.1978,-2.84692,-0.06144525,0.72925
612.492,66.2681,-2.84712,-0.06122643,0.72868
613.192,66.3385,-2.84581,-0.06495126,0.7281
613.892,66.4089,-2.84645,-0.06330053,0.72753
614.592,66.47917,-2.84712,-0.06349501,0.72695
615.292,66.54916,-2.85019,-0.06039559,0.72637
615.992,66.6196,-2.85283,-0.06170868,0.7258
616.692,66.6898,-2.85083,-0.06447511,0.72522
617.392,66.7602,-2.84849,-0.0622174,0.72465
618.092,66.8304,-2.84901,-0.06265725,0.72407
618.792,66.90093,-2.85296,-0.06305612,0.72349
619.492,66.97137,-2.85592,-0.0619044,0.72292
620.192,67.04179,-2.85384,-0.06318529,0.72234
620.892,67.1121,-2.85036,-0.06278513,0.72176
621.592,67.18235,-2.84978,-0.06042369,0.72119
622.292,67.25251,-2.85367,-0.05793138,0.72061
622.992,67.32263,-2.85543,-0.05978234,0.72003
623.692,67.39283,-2.85646,-0.05826256,0.71946
624.392,67.46251,-2.86028,-0.05614452,0.71888
625.092,67.53271,-2.86172,-0.05751108,0.7183
625.792,67.6028,-2.8606,-0.05885986,0.71772
626.492,67.67357,-2.85744,-0.05629892,0.71714
627.192,67.74391,-2.85741,-0.05795153,0.71657
627.892,67.8142,-2.85753,-0.05723933,0.71599
628.592,67.88415,-2.8548,-0.05499658,0.71541
629.292,67.9543,-2.85343,-0.05417298,0.71483
629.992,68.02445,-2.85656,-0.05312763,0.71425
630.692,68.09489,-2.85928,-0.05232232,0.71367
631.392,68.16494,-2.8593,-0.05213974,0.7131
632.092,68.2351,-2.85677,-0.05554669,0.71252
632.792,68.3048,-2.85373,-0.05518102,0.71194
633.492,68.37512,-2.85277,-0.05483283,0.71136
634.192,68.44534,-2.85266,-0.05484601,0.71078
634.892,68.51594,-2.85572,-0.04983818,0.7102
635.592,68.5861,-2.85977,-0.05022211,0.70962
636.292,68.656,-2.85996,-0.04857504,0.70904
636.992,68.72591,-2.86071,-0.04914144,0.70846
637.692,68.79604,-2.86132,-0.0485988,0.70788
638.392,68.86646,-2.86161,-0.05009732,0.7073
639.092,68.9369,-2.85997,-0.04957386,0.70672
639.792,69.00711,-2.85816,-0.04811467,0.70614
640.492,69.07733,-2.85953,-0.04673413,0.70556
641.192,69.1476,-2.86278,-0.0437251,0.70498
641.892,69.21714,-2.86491,-0.04385442,0.7044
642.592,69.28708,-2.8691,-0.04421123,0.70382
643.292,69.35738,-2.8705,-0.040802,0.70324
643.992,69.42838,-2.87154,-0.04343255,0.70266
644.692,69.49903,-2.86622,-0.04240541,0.70208
645.392,69.5694,-2.86457,-0.03916472,0.7015
646.092,69.63961,-2.86325,-0.0379853,0.70091
646.792,69.70979,-2.86364,-0.0382869,0.70033
647.492,69.78012,-2.86457,-0.03618606,0.69975
648.192,69.85067,-2.86457,-0.03576576,0.69917
648.892,69.92099,-2.86494,-0.03473585,0.69859
649.592,69.9914,-2.86382,-0.03618727,0.69801
650.292,70.06155,-2.86587,-0.03809189,0.69743
650.992,70.1318,-2.86676,-0.03200853,0.69684
651.692,70.2018,-2.8672,-0.03529523,0.69626
652.392,70.2722,-2.86858,-0.03461215,0.69568
653.092,70.3429,-2.87151,-0.03288726,0.6951
653.792,70.41349,-2.8729,-0.03243278,0.69451
654.492,70.48393,-2.87422,-0.02926386,0.69393
655.192,70.5543,-2.87315,-0.02985456,0.69335
655.892,70.6249,-2.8737,-0.02909693,0.69277
656.592,70.69547,-2.87177,-0.03413632,0.69219
657.292,70.76607,-2.86858,-0.03320393,0.6916
657.992,70.83657,-2.86925,-0.033737,0.69102
658.692,70.90717,-2.87429,-0.02781653,0.69044
659.392,70.97775,-2.87296,-0.0302518,0.68985
660.092,71.0481,-2.87147,-0.02911949,0.68927
660.792,71.11848,-2.87147,-0.02616278,0.68869
661.492,71.18898,-2.87016,-0.02662709,0.6881
662.192,71.25927,-2.86621,-0.02550712,0.68752
662.892,71.3297,-2.86346,-0.02646275,0.68694
663.592,71.39999,-2.86614,-0.02580157,0.68635
664.292,71.4706,-2.86741,-0.02400448,0.68577
664.992,71.54088,-2.8661,-0.02092434,0.68519
665.692,71.6112,-2.8648,-0.022149,0.6846
666.392,71.6816,-2.86621,-0.01745033,0.68402
667.092,71.75197,-2.8684,-0.01579498,0.68344
667.792,71.8222,-2.87439,-0.017082,0.68285
668.492,71.8924,-2.87805,-0.01410098,0.68227
669.192,71.96258,-2.8749,-0.01124685,0.68168
669.892,72.033,-2.87499,-0.01379749,0.6811
670.592,72.10338,-2.87635,-0.01229727,0.68052
671.292,72.1739,-2.87894,-0.00931938,0.67993
671.992,72.2441,-2.8762,-0.01199072,0.67935
672.692,72.3144,-2.87584,-0.00762947,0.67876
673.392,72.3844,-2.87348,-0.001978282,0.67818
674.092,72.45473,-2.87919,-0.004794801,0.67759
674.792,72.52532,-2.87904,-0.0038072,0.67701
675.492,72.5963,-2.88021,-0.003479345,0.67642
676.192,72.6669,-2.8798,0.001992657,0.67584
676.892,72.73744,-2.88036,0.0002936867,0.67525
677.592,72.80753,-2.87721,-4.48296e-05,0.67467
678.292,72.87754,-2.8754,0.002805498,0.67408
678.992,72.94734,-2.87828,0.000937234,0.6735
679.692,73.01759,-2.87893,-0.000712638,0.67291
680.392,73.0881,-2.87486,0.001621689,0.67233
681.092,73.15865,-2.87169,0.003409507,0.67174
681.792,73.22933,-2.87412,0.00821621,0.67116
682.492,73.3,-2.87804,0.008439723,0.67057
683.192,73.37051,-2.8819,0.0118318,0.66999
683.892,73.4415,-2.88229,0.009632594,0.6694
684.592,73.51246,-2.87623,0.00360975,0.66882
685.292,73.58352,-2.87962,0.008366752,0.66823
685.992,73.65371,-2.87604,0.00672514,0.66765
686.692,73.7244,-2.8762,0.01015051,0.66706
687.392,73.79515,-2.8773,0.01287068,0.66647
688.092,73.8664,-2.87927,0.008472881,0.66589
688.792,73.93691,-2.88059,0.009422668,0.6653
689.492,74.00746,-2.88182,0.008826623,0.66472
690.192,74.07796,-2.88046,0.00864152,0.66413
690.892,74.1485,-2.87784,0.01179613,0.66354
691.592,74.21893,-2.87989,0.01038361,0.66296
692.292,74.28918,-2.88365,0.0109456,0.66237
692.992,74.35978,-2.8853,0.01443008,0.66179
693.692,74.43058,-2.88522,0.01233783,0.6612
694.392,74.5015,-2.88376,0.01408163,0.66061
695.092,74.57207,-2.88541,0.01691481,0.66003
695.792,74.643,-2.88541,0.01852126,0.65944
696.492,74.71382,-2.88413,0.01654016,0.65886
697.192,74.78486,-2.8864,0.01933637,0.65827
697.892,74.85512,-2.88814,0.01392532,0.65768
698.592,74.92578,-2.88814,0.02276364,0.6571
699.292,74.99639,-2.88961,0.01956676,0.65651
699.992,75.06745,-2.88937,0.02290154,0.65592
700.692,75.13811,-2.88591,0.02134099,0.65534
701.392,75.20876,-2.88266,0.02156299,0.65475
702.092,75.2795,-2.88266,0.02097473,0.65416
702.792,75.3503,-2.88398,0.02072196,0.65358
703.492,75.42129,-2.88531,0.02183348,0.65299
704.192,75.49198,-2.88526,0.02553567,0.6524
704.892,75.5628,-2.88795,0.02725014,0.65182
705.592,75.63335,-2.89078,0.02529524,0.65123
706.292,75.70398,-2.89077,0.02542323,0.65064
706.992,75.77471,-2.88674,0.0272219,0.65006
707.692,75.8455,-2.88693,0.02780876,0.64947
708.392,75.91655,-2.88907,0.026515,0.64888
709.092,75.98745,-2.89023,0.03250534,0.6483
709.792,76.05827,-2.89023,0.02856456,0.64771
710.492,76.12915,-2.89023,0.02947264,0.64712
711.192,76.20016,-2.88881,0.03269033,0.64653
711.892,76.27109,-2.89048,0.03239578,0.64595
712.592,76.342,-2.89105,0.03148448,0.64536
713.292,76.4127,-2.88773,0.02846947,0.64477
713.992,76.48349,-2.88674,0.02911896,0.64419
714.692,76.5543,-2.88668,0.032494,0.6436
715.392,76.62531,-2.88955,0.03271315,0.64301
716.092,76.69623,-2.88854,0.03079824,0.64242
716.792,76.76714,-2.88831,0.03176888,0.64184
717.492,76.838,-2.88891,0.034614,0.64125
718.192,76.90899,-2.89023,0.03507962,0.64066
718.892,76.9799,-2.89024,0.03468415,0.64008
719.592,77.0508,-2.88968,0.03364007,0.63949
720.292,77.12156,-2.89045,0.03475063,0.6389
720.992,77.19264,-2.89148,0.02987138,0.63831
721.692,77.26375,-2.89175,0.03494355,0.63773
722.392,77.33496,-2.8933,0.03058817,0.63714
723.092,77.4057,-2.89468,0.03649314,0.63655
723.792,77.47655,-2.89283,0.03610573,0.63596
724.492,77.54746,-2.89167,0.03617949,0.63538
725.192,77.61855,-2.8958,0.03985137,0.63479
725.892,77.68961,-2.89875,0.03565326,0.6342
726.592,77.76045,-2.89644,0.04041804,0.63362
727.292,77.8313,-2.89337,0.0396913,0.63303
727.992,77.90201,-2.88872,0.03418704,0.63244
728.692,77.97233,-2.89072,0.03564783,0.63185
729.392,78.04252,-2.8909,0.03546774,0.63127
730.092,78.11327,-2.89089,0.03431836,0.63068
730.792,78.18388,-2.89393,0.0401437,0.63009
731.492,78.255,-2.8956,0.0383333,0.6295
732.192,78.32504,-2.89703,0.03696356,0.62892
732.892,78.39616,-2.89703,0.03805689,0.62833
733.592,78.46705,-2.8956,0.03739435,0.62774
734.292,78.53875,-2.89561,0.04014277,0.62715
734.992,78.6097,-2.89713,0.0391325,0.62657
735.692,78.68046,-2.89857,0.04109702,0.62598
736.392,78.75102,-2.89887,0.03941303,0.62539
737.092,78.82199,-2.89857,0.03853606,0.6248
737.792,78.89299,-2.89726,0.0411652,0.62422
738.492,78.96396,-2.89725,0.04198476,0.62363
739.192,79.03483,-2.89587,0.0370542,0.62304
739.892,79.1055,-2.89451,0.03919204,0.62246
740.592,79.17636,-2.89451,0.04153716,0.62187
741.292,79.24701,-2.89736,0.04311071,0.62128
741.992,79.31791,-2.89868,0.04152787,0.62069
742.692,79.3887,-2.89806,0.04605223,0.62011
743.392,79.45955,-2.89969,0.04029787,0.61952
744.092,79.5304,-2.89999,0.04456948,0.61893
744.792,79.60138,-2.90001,0.04964312,0.61834
745.492,79.67235,-2.89867,0.04905366,0.61776
746.192,79.74336,-2.89867,0.04463385,0.61717
746.892,79.81426,-2.89852,0.04366953,0.61658
747.592,79.88516,-2.90143,0.04598164,0.616
748.292,79.95569,-2.9013,0.0415331,0.61541
748.992,80.02623,-2.89942,0.04167819,0.61482
749.692,80.09695,-2.90011,0.04483711,0.61423
750.392,80.16802,-2.90011,0.04236637,0.61365
751.092,80.2396,-2.89878,0.041315,0.61306
751.792,80.31095,-2.90005,0.043229,0.61247
752.492,80.38231,-2.90351,0.04589367,0.61189
753.192,80.45315,-2.90482,0.04484232,0.6113
753.892,80.52431,-2.90482,0.0436448,0.61071
754.592,80.59551,-2.90418,0.04777117,0.61013
755.292,80.66651,-2.90794,0.04768662,0.60954
755.992,80.73744,-2.90791,0.04707528,0.60895
756.692,80.8085,-2.90279,0.04484621,0.60836
757.392,80.87983,-2.90207,0.04193455,0.60778
758.092,80.95087,-2.90472,0.04617667,0.60719
758.792,81.02168,-2.90714,0.04690231,0.6066
759.492,81.0925,-2.90117,0.04535652,0.60602
760.192,81.1636,-2.8979,0.04533048,0.60543
760.892,81.2345,-2.90268,0.04973109,0.60484
761.592,81.30535,-2.90773,0.04726876,0.60426
762.292,81.37618,-2.90778,0.04862154,0.60367
762.992,81.44712,-2.9091,0.05178351,0.60308
763.692,81.51773,-2.90964,0.04961942,0.6025
764.392,81.58839,-2.90935,0.04849485,0.60191
765.092,81.6588,-2.90732,0.0492017,0.60133
765.792,81.72963,-2.90515,0.04902201,0.60074
766.492,81.80057,-2.90383,0.0455114,0.60015
767.192,81.87162,-2.90649,0.043259,0.59957
767.892,81.9426,-2.90684,0.04522161,0.59898
768.592,82.01341,-2.90646,0.04339742,0.59839
769.292,82.08436,-2.90768,0.04678503,0.59781
769.992,82.15526,-2.91095,0.04676002,0.59722
770.692,82.22618,-2.91178,0.04462342,0.59664
771.392,82.297,-2.90789,0.04869153,0.59605
772.092,82.36787,-2.90789,0.04508987,0.59546
772.792,82.4389,-2.90857,0.04616329,0.59488
773.492,82.50961,-2.90777,0.04615966,0.59429
774.192,82.58025,-2.9091,0.04738106,0.59371
774.892,82.65057,-2.9091,0.0460257,0.59312
775.592,82.72201,-2.90778,0.04564386,0.59253
776.292,82.79378,-2.90904,0.04220211,0.59195
776.992,82.8658,-2.91029,0.04212366,0.59136
777.692,82.93684,-2.9074,0.04286047,0.59078
778.392,83.0077,-2.90624,0.04234754,0.59019
779.092,83.0788,-2.90767,0.04403774,0.58961
779.792,83.1495,-2.90636,0.04039284,0.58902
780.492,83.22071,-2.90789,0.0448337,0.58844
781.192,83.29182,-2.90986,0.03955774,0.58785
781.892,83.36339,-2.91173,0.04325896,0.58726
782.592,83.43457,-2.91229,0.04467988,0.58668
783.292,83.5052,-2.91196,0.04431037,0.58609
783.992,83.57591,-2.91052,0.04608098,0.58551
784.692,83.64655,-2.90939,0.04598798,0.58492
785.392,83.71772,-2.90997,0.04558276,0.58434
786.092,83.78859,-2.91129,0.0460495,0.58375
786.792,83.85943,-2.91149,0.04847602,0.58317
787.492,83.93025,-2.90837,0.04539706,0.58258
788.192,84.0018,-2.90701,0.04494085,0.582
788.892,84.07305,-2.90907,0.0439975,0.58142
789.592,84.14435,-2.91275,0.04421547,0.58083
790.292,84.21517,-2.91318,0.04628944,0.58025
790.992,84.28631,-2.91307,0.04531842,0.57966
791.692,84.35728,-2.91598,0.0489365,0.57908
792.392,84.4283,-2.91584,0.04800287,0.57849
793.092,84.49937,-2.91139,0.04650768,0.57791
793.792,84.57049,-2.91087,0.04608526,0.57732
794.492,84.64188,-2.91261,0.04265963,0.57674
795.192,84.7132,-2.9134,0.04730644,0.57616
795.892,84.78448,-2.9159,0.05055798,0.57557
796.592,84.85547,-2.91689,0.04846731,0.57499
797.292,84.92659,-2.91689,0.04831721,0.5744
797.992,84.99767,-2.91557,0.04964946,0.57382