File: 01_Data/MDF/FTIR/ATR/MDF_ATR_210608_R3.tst
4497.79,-0.00456
4493.93,-0.00465
4490.07,-0.00464
4486.22,-0.00439
4482.36,-0.00452
4478.5,-0.00429
4474.64,-0.00457
4470.79,-0.00458
4466.93,-0.00447
4463.07,-0.00406
4459.21,-0.00428
4455.36,-0.00434
4451.5,-0.00422
4447.64,-0.00454
4443.79,-0.00443
4439.93,-0.00416
4436.07,-0.00412
4432.21,-0.00436
4428.36,-0.00430
4424.5,-0.00414
4420.64,-0.00420
4416.78,-0.00404
4412.93,-0.00414
4409.07,-0.00412
4405.21,-0.00388
4401.35,-0.00395
4397.5,-0.00384
4393.64,-0.00386
4389.78,-0.00398
4385.92,-0.00395
4382.07,-0.00389
4378.21,-0.00395
4374.35,-0.00424
4370.49,-0.00414
4366.64,-0.00404
4362.78,-0.00403
4358.92,-0.00391
4355.06,-0.00390
4351.21,-0.00381
4347.35,-0.00387
4343.49,-0.00405
4339.63,-0.00392
4335.78,-0.00385
4331.92,-0.00387
4328.06,-0.00375
4324.2,-0.00364
4320.35,-0.00368
4316.49,-0.00357
4312.63,-0.00363
4308.77,-0.00381
4304.92,-0.00382
4301.06,-0.00378
4297.2,-0.00372
4293.34,-0.00371
4289.49,-0.00356
4285.63,-0.00368
4281.77,-0.00367
4277.91,-0.00371
4274.06,-0.00361
4270.2,-0.00356
4266.34,-0.00358
4262.48,-0.00356
4258.63,-0.00378
4254.77,-0.00361
4250.91,-0.00370
4247.06,-0.00377
4243.2,-0.00348
4239.34,-0.00346
4235.48,-0.00362
4231.63,-0.00370
4227.77,-0.00347
4223.91,-0.00347
4220.05,-0.00337
4216.2,-0.00350
4212.34,-0.00346
4208.48,-0.00333
4204.62,-0.00330
4200.77,-0.00344
4196.91,-0.00365
4193.05,-0.00328
4189.19,-0.00321
4185.34,-0.00344
4181.48,-0.00328
4177.62,-0.00324
4173.76,-0.00317
4169.91,-0.00318
4166.05,-0.00322
4162.19,-0.00341
4158.33,-0.00326
4154.48,-0.00323
4150.62,-0.00332
4146.76,-0.00315
4142.9,-0.00332
4139.05,-0.00308
4135.19,-0.00309
4131.33,-0.00330
4127.47,-0.00339
4123.62,-0.00327
4119.76,-0.00316
4115.9,-0.00309
4112.04,-0.00326
4108.19,-0.00312
4104.33,-0.00293
4100.47,-0.00314
4096.61,-0.00319
4092.76,-0.00333
4088.9,-0.00286
4085.04,-0.00279
4081.18,-0.00286
4077.33,-0.00304
4073.47,-0.00303
4069.61,-0.00305
4065.75,-0.00303
4061.9,-0.00287
4058.04,-0.00284
4054.18,-0.00290
4050.33,-0.00298
4046.47,-0.00266
4042.61,-0.00262
4038.75,-0.00287
4034.9,-0.00269
4031.04,-0.00276
4027.18,-0.00275
4023.32,-0.00249
4019.47,-0.00248
4015.61,-0.00240
4011.75,-0.00242
4007.89,-0.00236
4004.04,-0.00266
4000.18,-0.00280
3996.32,-0.00244
3992.46,-0.00207
3988.61,-0.00238
3984.75,-0.00235
3980.89,-0.00222
3977.03,-0.00174
3973.18,-0.00145
3969.32,-0.00192
3965.46,-0.00226
3961.6,-0.00148
3957.75,-0.00150
3953.89,-0.00165
3950.03,-0.00026
3946.17,-0.00051
3942.32,-0.00072
3938.46,-0.00176
3934.6,-0.00071
3930.74,0.00021
3926.89,-0.00039
3923.03,0.00012
3919.17,0.00026
3915.31,-0.00085
3911.46,-0.00222
3907.6,-0.00061
3903.74,0.00378
3899.88,0.00252
3896.03,0.00011
3892.17,0.00115
3888.31,-0.00002
3884.45,0.00182
3880.6,0.00076
3876.74,-0.00053
3872.88,0.00211
3869.02,0.00251
3865.17,0.00277
3861.31,0.00110
3857.45,0.00155
3853.59,0.00461
3849.74,0.00096
3845.88,0.00029
3842.02,0.00315
3838.17,0.00427
3834.31,0.00114
3830.45,0.00030
3826.59,0.00126
3822.74,0.00227
3818.88,0.00265
3815.02,0.00017
3811.16,-0.00128
3807.31,0.00037
3803.45,0.00178
3799.59,0.00209
3795.73,-0.00031
3791.88,-0.00188
3788.02,-0.00111
3784.16,-0.00034
3780.3,-0.00041
3776.45,-0.00137
3772.59,-0.00071
3768.73,0.00100
3764.87,0.00026
3761.02,0.00077
3757.16,0.00235
3753.3,0.00446
3749.44,0.00665
3745.59,0.00560
3741.73,0.00375
3737.87,0.00533
3734.01,0.00491
3730.16,0.00132
3726.3,0.00277
3722.44,0.00222
3718.58,0.00023
3714.73,0.00126
3710.87,0.00307
3707.01,0.00004
3703.15,-0.00017
3699.3,-0.00077
3695.44,-0.00028
3691.58,0.00262
3687.72,0.00161
3683.87,-0.00079
3680.01,0.00061
3676.15,0.00348
3672.29,0.00368
3668.44,0.00150
3664.58,-0.00105
3660.72,-0.00071
3656.86,0.00056
3653.01,0.00158
3649.15,0.00650
3645.29,0.00185
3641.44,0.00049
3637.58,-0.00010
3633.72,0.00104
3629.86,0.00371
3626.01,0.00155
3622.15,0.00158
3618.29,0.00440
3614.43,0.00412
3610.58,0.00350
3606.72,0.00171
3602.86,0.00126
3599,0.00278
3595.15,0.00248
3591.29,0.00191
3587.43,0.00460
3583.57,0.00179
3579.72,0.00105
3575.86,0.00108
3572,0.00140
3568.14,0.00541
3564.29,0.00441
3560.43,0.00219
3556.57,0.00146
3552.71,0.00249
3548.86,0.00305
3545,0.00431
3541.14,0.00161
3537.28,0.00177
3533.43,0.00177
3529.57,0.00358
3525.71,0.00472
3521.85,0.00319
3518,0.00179
3514.14,0.00159
3510.28,0.00282
3506.42,0.00300
3502.57,0.00440
3498.71,0.00266
3494.85,0.00231
3490.99,0.00236
3487.14,0.00296
3483.28,0.00341
3479.42,0.00301
3475.56,0.00273
3471.71,0.00251
3467.85,0.00286
3463.99,0.00326
3460.13,0.00322
3456.28,0.00296
3452.42,0.00295
3448.56,0.00416
3444.7,0.00432
3440.85,0.00368
3436.99,0.00334
3433.13,0.00363
3429.28,0.00385
3425.42,0.00408
3421.56,0.00491
3417.7,0.00426
3413.85,0.00417
3409.99,0.00414
3406.13,0.00426
3402.27,0.00453
3398.42,0.00493
3394.56,0.00514
3390.7,0.00489
3386.84,0.00480
3382.99,0.00502
3379.13,0.00494
3375.27,0.00480
3371.41,0.00504
3367.56,0.00544
3363.7,0.00545
3359.84,0.00547
3355.98,0.00549
3352.13,0.00525
3348.27,0.00531
3344.41,0.00541
3340.55,0.00568
3336.7,0.00601
3332.84,0.00563
3328.98,0.00569
3325.12,0.00575
3321.27,0.00548
3317.41,0.00542
3313.55,0.00565
3309.69,0.00584
3305.84,0.00555
3301.98,0.00547
3298.12,0.00555
3294.26,0.00551
3290.41,0.00565
3286.55,0.00555
3282.69,0.00571
3278.83,0.00561
3274.98,0.00570
3271.12,0.00551
3267.26,0.00538
3263.4,0.00528
3259.55,0.00510
3255.69,0.00524
3251.83,0.00495
3247.97,0.00496
3244.12,0.00510
3240.26,0.00493
3236.4,0.00486
3232.55,0.00481
3228.69,0.00469
3224.83,0.00439
3220.97,0.00458
3217.12,0.00448
3213.26,0.00436
3209.4,0.00432
3205.54,0.00420
3201.69,0.00428
3197.83,0.00429
3193.97,0.00393
3190.11,0.00382
3186.26,0.00394
3182.4,0.00398
3178.54,0.00399
3174.68,0.00376
3170.83,0.00359
3166.97,0.00344
3163.11,0.00324
3159.25,0.00323
3155.4,0.00326
3151.54,0.00324
3147.68,0.00318
3143.82,0.00315
3139.97,0.00313
3136.11,0.00316
3132.25,0.00312
3128.39,0.00302
3124.54,0.00303
3120.68,0.00317
3116.82,0.00313
3112.96,0.00296
3109.11,0.00283
3105.25,0.00282
3101.39,0.00300
3097.53,0.00270
3093.68,0.00251
3089.82,0.00238
3085.96,0.00238
3082.1,0.00264
3078.25,0.00254
3074.39,0.00230
3070.53,0.00235
3066.67,0.00252
3062.82,0.00243
3058.96,0.00238
3055.1,0.00236
3051.24,0.00222
3047.39,0.00221
3043.53,0.00198
3039.67,0.00196
3035.82,0.00224
3031.96,0.00255
3028.1,0.00219
3024.24,0.00205
3020.39,0.00181
3016.53,0.00177
3012.67,0.00219
3008.81,0.00207
3004.96,0.00205
3001.1,0.00190
2997.24,0.00205
2993.38,0.00209
2989.53,0.00201
2985.67,0.00209
2981.81,0.00222
2977.95,0.00234
2974.1,0.00261
2970.24,0.00289
2966.38,0.00317
2962.52,0.00341
2958.67,0.00348
2954.81,0.00350
2950.95,0.00356
2947.09,0.00369
2943.24,0.00379
2939.38,0.00407
2935.52,0.00447
2931.66,0.00491
2927.81,0.00527
2923.95,0.00566
2920.09,0.00576
2916.23,0.00558
2912.38,0.00535
2908.52,0.00500
2904.66,0.00477
2900.8,0.00470
2896.95,0.00462
2893.09,0.00451
2889.23,0.00438
2885.37,0.00428
2881.52,0.00421
2877.66,0.00427
2873.8,0.00434
2869.94,0.00433
2866.09,0.00432
2862.23,0.00440
2858.37,0.00468
2854.51,0.00494
2850.66,0.00496
2846.8,0.00469
2842.94,0.00422
2839.08,0.00386
2835.23,0.00356
2831.37,0.00343
2827.51,0.00329
2823.66,0.00311
2819.8,0.00299
2815.94,0.00297
2812.08,0.00289
2808.23,0.00281
2804.37,0.00271
2800.51,0.00265
2796.65,0.00271
2792.8,0.00268
2788.94,0.00258
2785.08,0.00260
2781.22,0.00272
2777.37,0.00263
2773.51,0.00259
2769.65,0.00258
2765.79,0.00254
2761.94,0.00250
2758.08,0.00252
2754.22,0.00255
2750.36,0.00257
2746.51,0.00259
2742.65,0.00257
2738.79,0.00249
2734.93,0.00248
2731.08,0.00254
2727.22,0.00250
2723.36,0.00259
2719.5,0.00264
2715.65,0.00259
2711.79,0.00253
2707.93,0.00253
2704.07,0.00251
2700.22,0.00254
2696.36,0.00260
2692.5,0.00253
2688.64,0.00255
2684.79,0.00258
2680.93,0.00253
2677.07,0.00253
2673.21,0.00253
2669.36,0.00250
2665.5,0.00253
2661.64,0.00252
2657.78,0.00247
2653.93,0.00239
2650.07,0.00237
2646.21,0.00226
2642.35,0.00217
2638.5,0.00219
2634.64,0.00215
2630.78,0.00209
2626.93,0.00222
2623.07,0.00217
2619.21,0.00203
2615.35,0.00206
2611.5,0.00196
2607.64,0.00192
2603.78,0.00205
2599.92,0.00203
2596.07,0.00204
2592.21,0.00211
2588.35,0.00205
2584.49,0.00208
2580.64,0.00209
2576.78,0.00209
2572.92,0.00216
2569.06,0.00211
2565.21,0.00198
2561.35,0.00200
2557.49,0.00195
2553.63,0.00198
2549.78,0.00195
2545.92,0.00196
2542.06,0.00209
2538.2,0.00219
2534.35,0.00207
2530.49,0.00197
2526.63,0.00197
2522.77,0.00186
2518.92,0.00193
2515.06,0.00208
2511.2,0.00202
2507.34,0.00198
2503.49,0.00219
2499.63,0.00204
2495.77,0.00203
2491.91,0.00214
2488.06,0.00208
2484.2,0.00194
2480.34,0.00198
2476.48,0.00202
2472.63,0.00213
2468.77,0.00222
2464.91,0.00222
2461.05,0.00206
2457.2,0.00204
2453.34,0.00205
2449.48,0.00194
2445.62,0.00185
2441.77,0.00195
2437.91,0.00205
2434.05,0.00217
2430.2,0.00221
2426.34,0.00213
2422.48,0.00208
2418.62,0.00219
2414.77,0.00214
2410.91,0.00217
2407.05,0.00220
2403.19,0.00224
2399.34,0.00226
2395.48,0.00222
2391.62,0.00211
2387.76,0.00236
2383.91,0.00269
2380.05,0.00268
2376.19,0.00189
2372.33,0.00034
2368.48,-0.00196
2364.62,-0.00390
2360.76,-0.00454
2356.9,-0.00425
2353.05,-0.00145
2349.19,0.00063
2345.33,-0.00094
2341.47,-0.00282
2337.62,-0.00285
2333.76,-0.00211
2329.9,-0.00114
2326.04,-0.00025
2322.19,0.00097
2318.33,0.00182
2314.47,0.00219
2310.61,0.00289
2306.76,0.00286
2302.9,0.00254
2299.04,0.00245
2295.18,0.00245
2291.33,0.00229
2287.47,0.00218
2283.61,0.00203
2279.75,0.00174
2275.9,0.00181
2272.04,0.00169
2268.18,0.00178
2264.32,0.00182
2260.47,0.00190
2256.61,0.00192
2252.75,0.00189
2248.89,0.00193
2245.04,0.00203
2241.18,0.00172
2237.32,0.00163
2233.46,0.00176
2229.61,0.00177
2225.75,0.00165
2221.89,0.00153
2218.04,0.00144
2214.18,0.00136
2210.32,0.00134
2206.46,0.00133
2202.61,0.00154
2198.75,0.00150
2194.89,0.00088
2191.03,0.00081
2187.18,0.00092
2183.32,0.00072
2179.46,0.00054
2175.6,0.00047
2171.75,0.00023
2167.89,-0.00027
2164.03,-0.00039
2160.17,0.00030
2156.32,0.00121
2152.46,0.00180
2148.6,0.00191
2144.74,0.00174
2140.89,0.00166
2137.03,0.00190
2133.17,0.00216
2129.31,0.00193
2125.46,0.00169
2121.6,0.00158
2117.74,0.00153
2113.88,0.00146
2110.03,0.00133
2106.17,0.00147
2102.31,0.00160
2098.45,0.00183
2094.6,0.00194
2090.74,0.00218
2086.88,0.00200
2083.02,0.00174
2079.17,0.00187
2075.31,0.00180
2071.45,0.00190
2067.59,0.00245
2063.74,0.00271
2059.88,0.00205
2056.02,0.00197
2052.16,0.00199
2048.31,0.00166
2044.45,0.00210
2040.59,0.00258
2036.73,0.00213
2032.88,0.00202
2029.02,0.00215
2025.16,0.00243
2021.31,0.00237
2017.45,0.00284
2013.59,0.00239
2009.73,0.00248
2005.88,0.00271
2002.02,0.00233
1998.16,0.00220
1994.3,0.00260
1990.45,0.00324
1986.59,0.00231
1982.73,0.00213
1978.87,0.00220
1975.02,0.00229
1971.16,0.00275
1967.3,0.00366
1963.44,0.00269
1959.59,0.00260
1955.73,0.00306
1951.87,0.00298
1948.01,0.00326
1944.16,0.00428
1940.3,0.00325
1936.44,0.00282
1932.58,0.00296
1928.73,0.00282
1924.87,0.00399
1921.01,0.00453
1917.15,0.00381
1913.3,0.00312
1909.44,0.00403
1905.58,0.00313
1901.72,0.00289
1897.87,0.00324
1894.01,0.00354
1890.15,0.00388
1886.29,0.00373
1882.44,0.00327
1878.58,0.00303
1874.72,0.00320
1870.86,0.00516
1867.01,0.00570
1863.15,0.00369
1859.29,0.00368
1855.43,0.00328
1851.58,0.00341
1847.72,0.00544
1843.86,0.00640
1840,0.00418
1836.15,0.00402
1832.29,0.00448
1828.43,0.00542
1824.57,0.00492
1820.72,0.00370
1816.86,0.00367
1813,0.00451
1809.15,0.00494
1805.29,0.00448
1801.43,0.00609
1797.57,0.00612
1793.72,0.00727
1789.86,0.00578
1786,0.00474
1782.14,0.00556
1778.29,0.00565
1774.43,0.00664
1770.57,0.00775
1766.71,0.00597
1762.86,0.00640
1759,0.00737
1755.14,0.00746
1751.28,0.01077
1747.43,0.01314
1743.57,0.01174
1739.71,0.01130
1735.85,0.01234
1732,0.01301
1728.14,0.00960
1724.28,0.00933
1720.42,0.01061
1716.57,0.01528
1712.71,0.01056
1708.85,0.00953
1704.99,0.01178
1701.14,0.01281
1697.28,0.01355
1693.42,0.00881
1689.56,0.00984
1685.71,0.01192
1681.85,0.01193
1677.99,0.00982
1674.13,0.01034
1670.28,0.01127
1666.42,0.00896
1662.56,0.00958
1658.7,0.00935
1654.85,0.01196
1650.99,0.01289
1647.13,0.01345
1643.27,0.01035
1639.42,0.01082
1635.56,0.01187
1631.7,0.00924
1627.84,0.00971
1623.99,0.01098
1620.13,0.01058
1616.27,0.01064
1612.42,0.00921
1608.56,0.00978
1604.7,0.00958
1600.84,0.00943
1596.99,0.00957
1593.13,0.01000
1589.27,0.00936
1585.41,0.00838
1581.56,0.00819
1577.7,0.00976
1573.84,0.00896
1569.98,0.00894
1566.13,0.00862
1562.27,0.00937
1558.41,0.01356
1554.55,0.01203
1550.7,0.01058
1546.84,0.01103
1542.98,0.01775
1539.12,0.01335
1535.27,0.01244
1531.41,0.01136
1527.55,0.01297
1523.69,0.01631
1519.84,0.01615
1515.98,0.01558
1512.12,0.01592
1508.26,0.02037
1504.41,0.01380
1500.55,0.01355
1496.69,0.01287
1492.83,0.01100
1488.98,0.01361
1485.12,0.00946
1481.26,0.00887
1477.4,0.01019
1473.55,0.01463
1469.69,0.01203
1465.83,0.01281
1461.97,0.01343
1458.12,0.01777
1454.26,0.01565
1450.4,0.01358
1446.54,0.01272
1442.69,0.01132
1438.83,0.01264
1434.97,0.01450
1431.11,0.01416
1427.26,0.01399
1423.4,0.01490
1419.54,0.01657
1415.69,0.01448
1411.83,0.01306
1407.97,0.01231
1404.11,0.01231
1400.26,0.01284
1396.4,0.01475
1392.54,0.01231
1388.68,0.01281
1384.83,0.01260
1380.97,0.01277
1377.11,0.01451
1373.25,0.01540
1369.4,0.01428
1365.54,0.01423
1361.68,0.01507
1357.82,0.01298
1353.97,0.01243
1350.11,0.01196
1346.25,0.01185
1342.39,0.01333
1338.54,0.01608
1334.68,0.01349
1330.82,0.01321
1326.96,0.01332
1323.11,0.01389
1319.25,0.01537
1315.39,0.01525
1311.53,0.01420
1307.68,0.01298
1303.82,0.01210
1299.96,0.01157
1296.1,0.01149
1292.25,0.01143
1288.39,0.01203
1284.53,0.01188
1280.67,0.01228
1276.82,0.01282
1272.96,0.01395
1269.1,0.01518
1265.24,0.01624
1261.39,0.01740
1257.53,0.01722
1253.67,0.01656
1249.81,0.01641
1245.96,0.01679
1242.1,0.01722
1238.24,0.01742
1234.38,0.01743
1230.53,0.01741
1226.67,0.01719
1222.81,0.01662
1218.95,0.01596
1215.1,0.01528
1211.24,0.01462
1207.38,0.01392
1203.53,0.01342
1199.67,0.01283
1195.81,0.01217
1191.95,0.01176
1188.1,0.01169
1184.24,0.01180
1180.38,0.01213
1176.52,0.01291
1172.67,0.01413
1168.81,0.01579
1164.95,0.01788
1161.09,0.01981
1157.24,0.02064
1153.38,0.02042
1149.52,0.01975
1145.66,0.01936
1141.81,0.01916
1137.95,0.01931
1134.09,0.02051
1130.23,0.02233
1126.38,0.02420
1122.52,0.02577
1118.66,0.02679
1114.8,0.02824
1110.95,0.02932
1107.09,0.02993
1103.23,0.03010
1099.37,0.03014
1095.52,0.03020
1091.66,0.03027
1087.8,0.03061
1083.94,0.03102
1080.09,0.03183
1076.23,0.03315
1072.37,0.03428
1068.51,0.03576
1064.66,0.03803
1060.8,0.04081
1056.94,0.04312
1053.08,0.04467
1049.23,0.04544
1045.37,0.04560
1041.51,0.04584
1037.65,0.04695
1033.8,0.04868
1029.94,0.04967
1026.08,0.04958
1022.22,0.04926
1018.37,0.04829
1014.51,0.04679
1010.65,0.04481
1006.8,0.04291
1002.94,0.04152
999.08,0.04052
995.223,0.03986
991.365,0.03930
987.508,0.03822
983.65,0.03685
979.793,0.03455
975.935,0.03209
972.078,0.03014
968.221,0.02898
964.363,0.02742
960.506,0.02593
956.648,0.02413
952.791,0.02277
948.933,0.02141
945.076,0.02075
941.218,0.02002
937.361,0.01941
933.503,0.01906
929.646,0.01866
925.789,0.01826
921.931,0.01810
918.074,0.01785
914.216,0.01807
910.359,0.01764
906.501,0.01798
902.644,0.01857
898.786,0.01931
894.929,0.01920
891.072,0.01897
887.214,0.01831
883.357,0.01767
879.499,0.01784
875.642,0.01762
871.784,0.01697
867.927,0.01677
864.069,0.01670
860.212,0.01707
856.354,0.01717
852.497,0.01656
848.64,0.01635
844.782,0.01642
840.925,0.01705
837.067,0.01701
833.21,0.01729
829.352,0.01747
825.495,0.01800
821.637,0.01850
817.78,0.01841
813.922,0.01858
810.065,0.01938
806.208,0.01975
802.35,0.02021
798.493,0.02055
794.635,0.01979
790.778,0.01873
786.92,0.01805
783.063,0.01816
779.205,0.01828
775.348,0.01922
771.49,0.01977
767.633,0.01792
763.776,0.01860
759.918,0.01928
756.061,0.01919
752.203,0.01960
748.346,0.01976
744.488,0.02028
740.631,0.02060
736.773,0.02011
732.916,0.02065
729.058,0.02136
725.201,0.02190
721.344,0.02295
717.486,0.02372
713.629,0.02410
709.771,0.02438
705.914,0.02522
702.056,0.02545
698.199,0.02585
694.341,0.02596
690.484,0.02603
686.627,0.02604
682.769,0.02605
678.912,0.02684
675.054,0.02853
671.197,0.02998
667.339,0.03089
663.482,0.03135
659.624,0.03154
655.767,0.03118
651.909,0.03113
648.052,0.03158
644.195,0.03232
640.337,0.03318
636.48,0.03375
632.622,0.03400
628.765,0.03338
624.907,0.03356
621.05,0.03175
617.192,0.03531
613.335,0.03612
609.477,0.03454
605.62,0.03622
601.763,0.03774
599.834,0.04007