File: 01_Data/MDF/FTIR/ATR/MDF_ATR_210608_R5.tst
4497.79,-0.00346
4493.93,-0.00347
4490.07,-0.00338
4486.22,-0.00323
4482.36,-0.00348
4478.5,-0.00336
4474.64,-0.00332
4470.79,-0.00321
4466.93,-0.00321
4463.07,-0.00302
4459.21,-0.00313
4455.36,-0.00328
4451.5,-0.00316
4447.64,-0.00340
4443.79,-0.00320
4439.93,-0.00294
4436.07,-0.00285
4432.21,-0.00311
4428.36,-0.00302
4424.5,-0.00287
4420.64,-0.00309
4416.78,-0.00300
4412.93,-0.00293
4409.07,-0.00292
4405.21,-0.00294
4401.35,-0.00293
4397.5,-0.00288
4393.64,-0.00278
4389.78,-0.00280
4385.92,-0.00286
4382.07,-0.00282
4378.21,-0.00279
4374.35,-0.00303
4370.49,-0.00315
4366.64,-0.00288
4362.78,-0.00276
4358.92,-0.00260
4355.06,-0.00271
4351.21,-0.00289
4347.35,-0.00276
4343.49,-0.00285
4339.63,-0.00266
4335.78,-0.00270
4331.92,-0.00277
4328.06,-0.00264
4324.2,-0.00244
4320.35,-0.00249
4316.49,-0.00260
4312.63,-0.00270
4308.77,-0.00284
4304.92,-0.00263
4301.06,-0.00268
4297.2,-0.00269
4293.34,-0.00232
4289.49,-0.00232
4285.63,-0.00246
4281.77,-0.00252
4277.91,-0.00265
4274.06,-0.00259
4270.2,-0.00251
4266.34,-0.00259
4262.48,-0.00256
4258.63,-0.00241
4254.77,-0.00227
4250.91,-0.00232
4247.06,-0.00266
4243.2,-0.00250
4239.34,-0.00240
4235.48,-0.00247
4231.63,-0.00262
4227.77,-0.00256
4223.91,-0.00238
4220.05,-0.00241
4216.2,-0.00245
4212.34,-0.00233
4208.48,-0.00229
4204.62,-0.00236
4200.77,-0.00217
4196.91,-0.00220
4193.05,-0.00216
4189.19,-0.00218
4185.34,-0.00230
4181.48,-0.00223
4177.62,-0.00234
4173.76,-0.00206
4169.91,-0.00220
4166.05,-0.00214
4162.19,-0.00214
4158.33,-0.00213
4154.48,-0.00220
4150.62,-0.00232
4146.76,-0.00218
4142.9,-0.00213
4139.05,-0.00190
4135.19,-0.00199
4131.33,-0.00206
4127.47,-0.00219
4123.62,-0.00203
4119.76,-0.00186
4115.9,-0.00188
4112.04,-0.00206
4108.19,-0.00195
4104.33,-0.00170
4100.47,-0.00211
4096.61,-0.00202
4092.76,-0.00192
4088.9,-0.00160
4085.04,-0.00144
4081.18,-0.00148
4077.33,-0.00197
4073.47,-0.00186
4069.61,-0.00193
4065.75,-0.00204
4061.9,-0.00180
4058.04,-0.00186
4054.18,-0.00183
4050.33,-0.00188
4046.47,-0.00153
4042.61,-0.00132
4038.75,-0.00165
4034.9,-0.00165
4031.04,-0.00160
4027.18,-0.00152
4023.32,-0.00131
4019.47,-0.00123
4015.61,-0.00125
4011.75,-0.00117
4007.89,-0.00108
4004.04,-0.00142
4000.18,-0.00155
3996.32,-0.00115
3992.46,-0.00092
3988.61,-0.00116
3984.75,-0.00122
3980.89,-0.00107
3977.03,-0.00057
3973.18,-0.00020
3969.32,-0.00081
3965.46,-0.00117
3961.6,-0.00021
3957.75,-0.00021
3953.89,-0.00028
3950.03,0.00107
3946.17,0.00069
3942.32,0.00036
3938.46,-0.00069
3934.6,0.00051
3930.74,0.00170
3926.89,0.00100
3923.03,0.00144
3919.17,0.00167
3915.31,0.00030
3911.46,-0.00109
3907.6,0.00067
3903.74,0.00541
3899.88,0.00380
3896.03,0.00137
3892.17,0.00261
3888.31,0.00137
3884.45,0.00333
3880.6,0.00197
3876.74,0.00075
3872.88,0.00349
3869.02,0.00393
3865.17,0.00412
3861.31,0.00224
3857.45,0.00293
3853.59,0.00623
3849.74,0.00246
3845.88,0.00165
3842.02,0.00454
3838.17,0.00631
3834.31,0.00290
3830.45,0.00168
3826.59,0.00230
3822.74,0.00397
3818.88,0.00420
3815.02,0.00143
3811.16,0.00003
3807.31,0.00195
3803.45,0.00361
3799.59,0.00361
3795.73,0.00091
3791.88,-0.00061
3788.02,0.00025
3784.16,0.00100
3780.3,0.00080
3776.45,-0.00032
3772.59,0.00046
3768.73,0.00229
3764.87,0.00170
3761.02,0.00215
3757.16,0.00349
3753.3,0.00622
3749.44,0.00912
3745.59,0.00753
3741.73,0.00535
3737.87,0.00715
3734.01,0.00665
3730.16,0.00263
3726.3,0.00417
3722.44,0.00353
3718.58,0.00161
3714.73,0.00273
3710.87,0.00465
3707.01,0.00116
3703.15,0.00118
3699.3,0.00064
3695.44,0.00123
3691.58,0.00428
3687.72,0.00315
3683.87,0.00067
3680.01,0.00229
3676.15,0.00520
3672.29,0.00472
3668.44,0.00278
3664.58,0.00040
3660.72,0.00062
3656.86,0.00199
3653.01,0.00320
3649.15,0.00895
3645.29,0.00312
3641.44,0.00153
3637.58,0.00103
3633.72,0.00232
3629.86,0.00531
3626.01,0.00286
3622.15,0.00302
3618.29,0.00583
3614.43,0.00565
3610.58,0.00522
3606.72,0.00343
3602.86,0.00301
3599,0.00446
3595.15,0.00413
3591.29,0.00349
3587.43,0.00598
3583.57,0.00320
3579.72,0.00285
3575.86,0.00286
3572,0.00325
3568.14,0.00762
3564.29,0.00622
3560.43,0.00384
3556.57,0.00302
3552.71,0.00414
3548.86,0.00476
3545,0.00614
3541.14,0.00326
3537.28,0.00354
3533.43,0.00375
3529.57,0.00573
3525.71,0.00679
3521.85,0.00514
3518,0.00376
3514.14,0.00362
3510.28,0.00481
3506.42,0.00495
3502.57,0.00632
3498.71,0.00475
3494.85,0.00446
3490.99,0.00448
3487.14,0.00498
3483.28,0.00555
3479.42,0.00526
3475.56,0.00492
3471.71,0.00484
3467.85,0.00511
3463.99,0.00578
3460.13,0.00591
3456.28,0.00550
3452.42,0.00545
3448.56,0.00658
3444.7,0.00685
3440.85,0.00624
3436.99,0.00583
3433.13,0.00622
3429.28,0.00643
3425.42,0.00664
3421.56,0.00756
3417.7,0.00693
3413.85,0.00696
3409.99,0.00704
3406.13,0.00711
3402.27,0.00737
3398.42,0.00777
3394.56,0.00800
3390.7,0.00773
3386.84,0.00780
3382.99,0.00795
3379.13,0.00787
3375.27,0.00782
3371.41,0.00793
3367.56,0.00863
3363.7,0.00852
3359.84,0.00855
3355.98,0.00856
3352.13,0.00832
3348.27,0.00838
3344.41,0.00873
3340.55,0.00898
3336.7,0.00932
3332.84,0.00897
3328.98,0.00902
3325.12,0.00891
3321.27,0.00864
3317.41,0.00866
3313.55,0.00892
3309.69,0.00919
3305.84,0.00891
3301.98,0.00890
3298.12,0.00892
3294.26,0.00887
3290.41,0.00902
3286.55,0.00893
3282.69,0.00905
3278.83,0.00901
3274.98,0.00911
3271.12,0.00877
3267.26,0.00873
3263.4,0.00868
3259.55,0.00849
3255.69,0.00864
3251.83,0.00830
3247.97,0.00827
3244.12,0.00834
3240.26,0.00818
3236.4,0.00807
3232.55,0.00801
3228.69,0.00795
3224.83,0.00760
3220.97,0.00767
3217.12,0.00758
3213.26,0.00753
3209.4,0.00750
3205.54,0.00738
3201.69,0.00755
3197.83,0.00743
3193.97,0.00712
3190.11,0.00703
3186.26,0.00703
3182.4,0.00694
3178.54,0.00697
3174.68,0.00667
3170.83,0.00657
3166.97,0.00641
3163.11,0.00619
3159.25,0.00606
3155.4,0.00612
3151.54,0.00618
3147.68,0.00609
3143.82,0.00593
3139.97,0.00582
3136.11,0.00590
3132.25,0.00593
3128.39,0.00589
3124.54,0.00583
3120.68,0.00578
3116.82,0.00573
3112.96,0.00556
3109.11,0.00543
3105.25,0.00534
3101.39,0.00559
3097.53,0.00538
3093.68,0.00514
3089.82,0.00497
3085.96,0.00491
3082.1,0.00517
3078.25,0.00511
3074.39,0.00479
3070.53,0.00481
3066.67,0.00500
3062.82,0.00489
3058.96,0.00489
3055.1,0.00490
3051.24,0.00466
3047.39,0.00467
3043.53,0.00449
3039.67,0.00433
3035.82,0.00462
3031.96,0.00491
3028.1,0.00444
3024.24,0.00425
3020.39,0.00407
3016.53,0.00404
3012.67,0.00452
3008.81,0.00445
3004.96,0.00439
3001.1,0.00416
2997.24,0.00422
2993.38,0.00426
2989.53,0.00430
2985.67,0.00432
2981.81,0.00443
2977.95,0.00462
2974.1,0.00491
2970.24,0.00520
2966.38,0.00549
2962.52,0.00582
2958.67,0.00598
2954.81,0.00609
2950.95,0.00627
2947.09,0.00641
2943.24,0.00667
2939.38,0.00705
2935.52,0.00761
2931.66,0.00827
2927.81,0.00887
2923.95,0.00934
2920.09,0.00944
2916.23,0.00907
2912.38,0.00856
2908.52,0.00806
2904.66,0.00792
2900.8,0.00781
2896.95,0.00757
2893.09,0.00737
2889.23,0.00718
2885.37,0.00704
2881.52,0.00693
2877.66,0.00693
2873.8,0.00706
2869.94,0.00718
2866.09,0.00715
2862.23,0.00728
2858.37,0.00767
2854.51,0.00805
2850.66,0.00805
2846.8,0.00756
2842.94,0.00691
2839.08,0.00639
2835.23,0.00603
2831.37,0.00576
2827.51,0.00560
2823.66,0.00538
2819.8,0.00525
2815.94,0.00522
2812.08,0.00514
2808.23,0.00499
2804.37,0.00491
2800.51,0.00492
2796.65,0.00487
2792.8,0.00480
2788.94,0.00477
2785.08,0.00473
2781.22,0.00480
2777.37,0.00476
2773.51,0.00472
2769.65,0.00471
2765.79,0.00467
2761.94,0.00462
2758.08,0.00459
2754.22,0.00458
2750.36,0.00464
2746.51,0.00468
2742.65,0.00459
2738.79,0.00461
2734.93,0.00460
2731.08,0.00456
2727.22,0.00456
2723.36,0.00456
2719.5,0.00457
2715.65,0.00454
2711.79,0.00460
2707.93,0.00455
2704.07,0.00452
2700.22,0.00460
2696.36,0.00459
2692.5,0.00451
2688.64,0.00457
2684.79,0.00453
2680.93,0.00444
2677.07,0.00443
2673.21,0.00441
2669.36,0.00448
2665.5,0.00452
2661.64,0.00444
2657.78,0.00439
2653.93,0.00434
2650.07,0.00433
2646.21,0.00411
2642.35,0.00403
2638.5,0.00404
2634.64,0.00397
2630.78,0.00393
2626.93,0.00398
2623.07,0.00389
2619.21,0.00376
2615.35,0.00377
2611.5,0.00367
2607.64,0.00365
2603.78,0.00372
2599.92,0.00375
2596.07,0.00380
2592.21,0.00381
2588.35,0.00378
2584.49,0.00380
2580.64,0.00382
2576.78,0.00375
2572.92,0.00376
2569.06,0.00378
2565.21,0.00371
2561.35,0.00360
2557.49,0.00364
2553.63,0.00363
2549.78,0.00362
2545.92,0.00364
2542.06,0.00376
2538.2,0.00388
2534.35,0.00383
2530.49,0.00374
2526.63,0.00368
2522.77,0.00374
2518.92,0.00383
2515.06,0.00369
2511.2,0.00365
2507.34,0.00363
2503.49,0.00381
2499.63,0.00360
2495.77,0.00369
2491.91,0.00385
2488.06,0.00383
2484.2,0.00382
2480.34,0.00375
2476.48,0.00371
2472.63,0.00378
2468.77,0.00378
2464.91,0.00379
2461.05,0.00369
2457.2,0.00362
2453.34,0.00358
2449.48,0.00363
2445.62,0.00365
2441.77,0.00368
2437.91,0.00377
2434.05,0.00382
2430.2,0.00384
2426.34,0.00387
2422.48,0.00374
2418.62,0.00374
2414.77,0.00378
2410.91,0.00383
2407.05,0.00386
2403.19,0.00385
2399.34,0.00389
2395.48,0.00384
2391.62,0.00386
2387.76,0.00412
2383.91,0.00451
2380.05,0.00450
2376.19,0.00369
2372.33,0.00220
2368.48,-0.00019
2364.62,-0.00203
2360.76,-0.00221
2356.9,-0.00174
2353.05,0.00071
2349.19,0.00256
2345.33,0.00116
2341.47,-0.00069
2337.62,-0.00090
2333.76,-0.00038
2329.9,0.00097
2326.04,0.00164
2322.19,0.00276
2318.33,0.00360
2314.47,0.00398
2310.61,0.00455
2306.76,0.00456
2302.9,0.00436
2299.04,0.00423
2295.18,0.00410
2291.33,0.00393
2287.47,0.00389
2283.61,0.00395
2279.75,0.00368
2275.9,0.00361
2272.04,0.00345
2268.18,0.00367
2264.32,0.00377
2260.47,0.00354
2256.61,0.00361
2252.75,0.00380
2248.89,0.00379
2245.04,0.00396
2241.18,0.00373
2237.32,0.00382
2233.46,0.00364
2229.61,0.00359
2225.75,0.00357
2221.89,0.00353
2218.04,0.00357
2214.18,0.00344
2210.32,0.00319
2206.46,0.00316
2202.61,0.00333
2198.75,0.00326
2194.89,0.00277
2191.03,0.00271
2187.18,0.00297
2183.32,0.00284
2179.46,0.00300
2175.6,0.00289
2171.75,0.00290
2167.89,0.00231
2164.03,0.00183
2160.17,0.00238
2156.32,0.00339
2152.46,0.00391
2148.6,0.00373
2144.74,0.00361
2140.89,0.00385
2137.03,0.00391
2133.17,0.00376
2129.31,0.00358
2125.46,0.00370
2121.6,0.00367
2117.74,0.00343
2113.88,0.00336
2110.03,0.00319
2106.17,0.00327
2102.31,0.00350
2098.45,0.00348
2094.6,0.00371
2090.74,0.00389
2086.88,0.00383
2083.02,0.00358
2079.17,0.00357
2075.31,0.00346
2071.45,0.00359
2067.59,0.00429
2063.74,0.00465
2059.88,0.00400
2056.02,0.00363
2052.16,0.00361
2048.31,0.00351
2044.45,0.00392
2040.59,0.00420
2036.73,0.00373
2032.88,0.00391
2029.02,0.00421
2025.16,0.00457
2021.31,0.00438
2017.45,0.00479
2013.59,0.00431
2009.73,0.00430
2005.88,0.00432
2002.02,0.00434
1998.16,0.00411
1994.3,0.00480
1990.45,0.00523
1986.59,0.00433
1982.73,0.00433
1978.87,0.00411
1975.02,0.00404
1971.16,0.00440
1967.3,0.00550
1963.44,0.00457
1959.59,0.00438
1955.73,0.00458
1951.87,0.00462
1948.01,0.00496
1944.16,0.00636
1940.3,0.00530
1936.44,0.00440
1932.58,0.00472
1928.73,0.00433
1924.87,0.00545
1921.01,0.00621
1917.15,0.00544
1913.3,0.00488
1909.44,0.00591
1905.58,0.00509
1901.72,0.00484
1897.87,0.00516
1894.01,0.00540
1890.15,0.00558
1886.29,0.00519
1882.44,0.00474
1878.58,0.00460
1874.72,0.00469
1870.86,0.00690
1867.01,0.00743
1863.15,0.00533
1859.29,0.00534
1855.43,0.00478
1851.58,0.00492
1847.72,0.00715
1843.86,0.00815
1840,0.00577
1836.15,0.00560
1832.29,0.00599
1828.43,0.00690
1824.57,0.00652
1820.72,0.00534
1816.86,0.00522
1813,0.00599
1809.15,0.00647
1805.29,0.00605
1801.43,0.00780
1797.57,0.00786
1793.72,0.00893
1789.86,0.00742
1786,0.00638
1782.14,0.00715
1778.29,0.00717
1774.43,0.00837
1770.57,0.00945
1766.71,0.00750
1762.86,0.00803
1759,0.00911
1755.14,0.00932
1751.28,0.01272
1747.43,0.01539
1743.57,0.01398
1739.71,0.01371
1735.85,0.01482
1732,0.01565
1728.14,0.01206
1724.28,0.01168
1720.42,0.01290
1716.57,0.01746
1712.71,0.01284
1708.85,0.01189
1704.99,0.01418
1701.14,0.01545
1697.28,0.01637
1693.42,0.01156
1689.56,0.01269
1685.71,0.01484
1681.85,0.01523
1677.99,0.01318
1674.13,0.01396
1670.28,0.01521
1666.42,0.01302
1662.56,0.01387
1658.7,0.01371
1654.85,0.01639
1650.99,0.01752
1647.13,0.01814
1643.27,0.01502
1639.42,0.01549
1635.56,0.01652
1631.7,0.01384
1627.84,0.01449
1623.99,0.01577
1620.13,0.01534
1616.27,0.01540
1612.42,0.01403
1608.56,0.01474
1604.7,0.01471
1600.84,0.01463
1596.99,0.01492
1593.13,0.01539
1589.27,0.01475
1585.41,0.01385
1581.56,0.01363
1577.7,0.01514
1573.84,0.01409
1569.98,0.01396
1566.13,0.01339
1562.27,0.01404
1558.41,0.01823
1554.55,0.01661
1550.7,0.01518
1546.84,0.01575
1542.98,0.02262
1539.12,0.01797
1535.27,0.01705
1531.41,0.01585
1527.55,0.01745
1523.69,0.02075
1519.84,0.02053
1515.98,0.02024
1512.12,0.02075
1508.26,0.02538
1504.41,0.01822
1500.55,0.01786
1496.69,0.01713
1492.83,0.01515
1488.98,0.01784
1485.12,0.01357
1481.26,0.01300
1477.4,0.01452
1473.55,0.01904
1469.69,0.01660
1465.83,0.01758
1461.97,0.01832
1458.12,0.02286
1454.26,0.02065
1450.4,0.01855
1446.54,0.01777
1442.69,0.01629
1438.83,0.01770
1434.97,0.01959
1431.11,0.01928
1427.26,0.01911
1423.4,0.02005
1419.54,0.02179
1415.69,0.01973
1411.83,0.01832
1407.97,0.01747
1404.11,0.01730
1400.26,0.01775
1396.4,0.01960
1392.54,0.01699
1388.68,0.01743
1384.83,0.01711
1380.97,0.01728
1377.11,0.01905
1373.25,0.01999
1369.4,0.01874
1365.54,0.01874
1361.68,0.01965
1357.82,0.01739
1353.97,0.01679
1350.11,0.01630
1346.25,0.01606
1342.39,0.01753
1338.54,0.02026
1334.68,0.01760
1330.82,0.01733
1326.96,0.01747
1323.11,0.01826
1319.25,0.01992
1315.39,0.01990
1311.53,0.01887
1307.68,0.01765
1303.82,0.01665
1299.96,0.01609
1296.1,0.01584
1292.25,0.01574
1288.39,0.01633
1284.53,0.01613
1280.67,0.01652
1276.82,0.01697
1272.96,0.01810
1269.1,0.01925
1265.24,0.02005
1261.39,0.02103
1257.53,0.02112
1253.67,0.02089
1249.81,0.02101
1245.96,0.02148
1242.1,0.02187
1238.24,0.02200
1234.38,0.02208
1230.53,0.02195
1226.67,0.02171
1222.81,0.02108
1218.95,0.02032
1215.1,0.01958
1211.24,0.01899
1207.38,0.01841
1203.53,0.01800
1199.67,0.01750
1195.81,0.01687
1191.95,0.01652
1188.1,0.01647
1184.24,0.01673
1180.38,0.01720
1176.52,0.01798
1172.67,0.01913
1168.81,0.02103
1164.95,0.02346
1161.09,0.02553
1157.24,0.02657
1153.38,0.02643
1149.52,0.02588
1145.66,0.02535
1141.81,0.02502
1137.95,0.02519
1134.09,0.02657
1130.23,0.02853
1126.38,0.03072
1122.52,0.03261
1118.66,0.03373
1114.8,0.03539
1110.95,0.03647
1107.09,0.03682
1103.23,0.03713
1099.37,0.03729
1095.52,0.03734
1091.66,0.03736
1087.8,0.03759
1083.94,0.03814
1080.09,0.03914
1076.23,0.04045
1072.37,0.04179
1068.51,0.04331
1064.66,0.04563
1060.8,0.04865
1056.94,0.05120
1053.08,0.05273
1049.23,0.05358
1045.37,0.05384
1041.51,0.05416
1037.65,0.05541
1033.8,0.05744
1029.94,0.05840
1026.08,0.05816
1022.22,0.05761
1018.37,0.05673
1014.51,0.05535
1010.65,0.05343
1006.8,0.05184
1002.94,0.05031
999.08,0.04932
995.223,0.04868
991.365,0.04801
987.508,0.04697
983.65,0.04552
979.793,0.04333
975.935,0.04046
972.078,0.03853
968.221,0.03700
964.363,0.03555
960.506,0.03365
956.648,0.03198
952.791,0.03063
948.933,0.02886
945.076,0.02798
941.218,0.02730
937.361,0.02668
933.503,0.02616
929.646,0.02560
925.789,0.02509
921.931,0.02465
918.074,0.02408
914.216,0.02372
910.359,0.02367
906.501,0.02448
902.644,0.02510
898.786,0.02569
894.929,0.02582
891.072,0.02501
887.214,0.02419
883.357,0.02439
879.499,0.02403
875.642,0.02404
871.784,0.02354
867.927,0.02299
864.069,0.02307
860.212,0.02306
856.354,0.02289
852.497,0.02275
848.64,0.02282
844.782,0.02315
840.925,0.02334
837.067,0.02330
833.21,0.02328
829.352,0.02348
825.495,0.02391
821.637,0.02444
817.78,0.02446
813.922,0.02436
810.065,0.02499
806.208,0.02568
802.35,0.02604
798.493,0.02630
794.635,0.02586
790.778,0.02505
786.92,0.02461
783.063,0.02410
779.205,0.02441
775.348,0.02560
771.49,0.02568
767.633,0.02531
763.776,0.02569
759.918,0.02591
756.061,0.02603
752.203,0.02663
748.346,0.02689
744.488,0.02769
740.631,0.02816
736.773,0.02753
732.916,0.02831
729.058,0.02894
725.201,0.02938
721.344,0.03042
717.486,0.03129
713.629,0.03187
709.771,0.03218
705.914,0.03294
702.056,0.03332
698.199,0.03364
694.341,0.03403
690.484,0.03429
686.627,0.03433
682.769,0.03444
678.912,0.03518
675.054,0.03694
671.197,0.03836
667.339,0.03955
663.482,0.04072
659.624,0.04107
655.767,0.04051
651.909,0.04053
648.052,0.04069
644.195,0.04155
640.337,0.04274
636.48,0.04371
632.622,0.04440
628.765,0.04379
624.907,0.04418
621.05,0.04419
617.192,0.04606
613.335,0.04649
609.477,0.04492
605.62,0.04643
601.763,0.04909
599.834,0.05116