File: 01_Data/MDF/FTIR/ATR/MDF_ATR_210608_R1.tst
4497.79,-0.00469
4493.93,-0.00452
4490.07,-0.00464
4486.22,-0.00445
4482.36,-0.00473
4478.5,-0.00458
4474.64,-0.00457
4470.79,-0.00443
4466.93,-0.00447
4463.07,-0.00432
4459.21,-0.00428
4455.36,-0.00456
4451.5,-0.00452
4447.64,-0.00476
4443.79,-0.00430
4439.93,-0.00419
4436.07,-0.00432
4432.21,-0.00448
4428.36,-0.00456
4424.5,-0.00446
4420.64,-0.00452
4416.78,-0.00436
4412.93,-0.00436
4409.07,-0.00429
4405.21,-0.00424
4401.35,-0.00432
4397.5,-0.00412
4393.64,-0.00407
4389.78,-0.00402
4385.92,-0.00430
4382.07,-0.00410
4378.21,-0.00383
4374.35,-0.00406
4370.49,-0.00420
4366.64,-0.00412
4362.78,-0.00409
4358.92,-0.00407
4355.06,-0.00423
4351.21,-0.00415
4347.35,-0.00411
4343.49,-0.00424
4339.63,-0.00400
4335.78,-0.00413
4331.92,-0.00416
4328.06,-0.00390
4324.2,-0.00373
4320.35,-0.00377
4316.49,-0.00379
4312.63,-0.00377
4308.77,-0.00381
4304.92,-0.00376
4301.06,-0.00407
4297.2,-0.00398
4293.34,-0.00381
4289.49,-0.00367
4285.63,-0.00402
4281.77,-0.00398
4277.91,-0.00379
4274.06,-0.00388
4270.2,-0.00368
4266.34,-0.00394
4262.48,-0.00386
4258.63,-0.00385
4254.77,-0.00383
4250.91,-0.00391
4247.06,-0.00418
4243.2,-0.00387
4239.34,-0.00370
4235.48,-0.00379
4231.63,-0.00374
4227.77,-0.00373
4223.91,-0.00360
4220.05,-0.00351
4216.2,-0.00365
4212.34,-0.00360
4208.48,-0.00362
4204.62,-0.00356
4200.77,-0.00351
4196.91,-0.00351
4193.05,-0.00344
4189.19,-0.00357
4185.34,-0.00355
4181.48,-0.00354
4177.62,-0.00361
4173.76,-0.00351
4169.91,-0.00349
4166.05,-0.00354
4162.19,-0.00357
4158.33,-0.00349
4154.48,-0.00349
4150.62,-0.00347
4146.76,-0.00337
4142.9,-0.00335
4139.05,-0.00330
4135.19,-0.00328
4131.33,-0.00340
4127.47,-0.00342
4123.62,-0.00349
4119.76,-0.00337
4115.9,-0.00308
4112.04,-0.00317
4108.19,-0.00322
4104.33,-0.00312
4100.47,-0.00345
4096.61,-0.00329
4092.76,-0.00341
4088.9,-0.00317
4085.04,-0.00315
4081.18,-0.00289
4077.33,-0.00306
4073.47,-0.00290
4069.61,-0.00301
4065.75,-0.00316
4061.9,-0.00305
4058.04,-0.00300
4054.18,-0.00295
4050.33,-0.00300
4046.47,-0.00269
4042.61,-0.00275
4038.75,-0.00294
4034.9,-0.00290
4031.04,-0.00283
4027.18,-0.00282
4023.32,-0.00280
4019.47,-0.00273
4015.61,-0.00273
4011.75,-0.00267
4007.89,-0.00242
4004.04,-0.00266
4000.18,-0.00280
3996.32,-0.00245
3992.46,-0.00215
3988.61,-0.00244
3984.75,-0.00243
3980.89,-0.00227
3977.03,-0.00188
3973.18,-0.00162
3969.32,-0.00219
3965.46,-0.00224
3961.6,-0.00131
3957.75,-0.00165
3953.89,-0.00172
3950.03,-0.00039
3946.17,-0.00053
3942.32,-0.00077
3938.46,-0.00191
3934.6,-0.00073
3930.74,0.00046
3926.89,-0.00036
3923.03,0.00019
3919.17,0.00023
3915.31,-0.00100
3911.46,-0.00233
3907.6,-0.00072
3903.74,0.00367
3899.88,0.00235
3896.03,0.00001
3892.17,0.00133
3888.31,0.00018
3884.45,0.00197
3880.6,0.00066
3876.74,-0.00033
3872.88,0.00240
3869.02,0.00305
3865.17,0.00369
3861.31,0.00147
3857.45,0.00176
3853.59,0.00512
3849.74,0.00124
3845.88,0.00033
3842.02,0.00320
3838.17,0.00498
3834.31,0.00118
3830.45,0.00030
3826.59,0.00128
3822.74,0.00296
3818.88,0.00287
3815.02,0.00011
3811.16,-0.00120
3807.31,0.00049
3803.45,0.00210
3799.59,0.00252
3795.73,-0.00019
3791.88,-0.00179
3788.02,-0.00088
3784.16,-0.00023
3780.3,-0.00031
3776.45,-0.00133
3772.59,-0.00077
3768.73,0.00102
3764.87,0.00043
3761.02,0.00096
3757.16,0.00226
3753.3,0.00474
3749.44,0.00811
3745.59,0.00589
3741.73,0.00393
3737.87,0.00547
3734.01,0.00534
3730.16,0.00150
3726.3,0.00313
3722.44,0.00243
3718.58,0.00026
3714.73,0.00130
3710.87,0.00332
3707.01,-0.00007
3703.15,-0.00008
3699.3,-0.00048
3695.44,-0.00006
3691.58,0.00270
3687.72,0.00153
3683.87,-0.00060
3680.01,0.00107
3676.15,0.00435
3672.29,0.00415
3668.44,0.00156
3664.58,-0.00117
3660.72,-0.00090
3656.86,0.00062
3653.01,0.00187
3649.15,0.00687
3645.29,0.00136
3641.44,0.00002
3637.58,-0.00036
3633.72,0.00091
3629.86,0.00361
3626.01,0.00133
3622.15,0.00158
3618.29,0.00448
3614.43,0.00397
3610.58,0.00335
3606.72,0.00154
3602.86,0.00098
3599,0.00240
3595.15,0.00191
3591.29,0.00143
3587.43,0.00398
3583.57,0.00106
3579.72,0.00061
3575.86,0.00043
3572,0.00081
3568.14,0.00506
3564.29,0.00352
3560.43,0.00128
3556.57,0.00056
3552.71,0.00151
3548.86,0.00194
3545,0.00322
3541.14,0.00047
3537.28,0.00075
3533.43,0.00071
3529.57,0.00261
3525.71,0.00354
3521.85,0.00190
3518,0.00053
3514.14,0.00032
3510.28,0.00153
3506.42,0.00150
3502.57,0.00284
3498.71,0.00116
3494.85,0.00073
3490.99,0.00070
3487.14,0.00120
3483.28,0.00153
3479.42,0.00108
3475.56,0.00076
3471.71,0.00062
3467.85,0.00094
3463.99,0.00134
3460.13,0.00138
3456.28,0.00116
3452.42,0.00101
3448.56,0.00204
3444.7,0.00226
3440.85,0.00172
3436.99,0.00123
3433.13,0.00143
3429.28,0.00155
3425.42,0.00166
3421.56,0.00255
3417.7,0.00191
3413.85,0.00166
3409.99,0.00173
3406.13,0.00185
3402.27,0.00208
3398.42,0.00238
3394.56,0.00260
3390.7,0.00230
3386.84,0.00224
3382.99,0.00236
3379.13,0.00224
3375.27,0.00214
3371.41,0.00234
3367.56,0.00286
3363.7,0.00289
3359.84,0.00285
3355.98,0.00281
3352.13,0.00258
3348.27,0.00258
3344.41,0.00275
3340.55,0.00295
3336.7,0.00325
3332.84,0.00286
3328.98,0.00287
3325.12,0.00280
3321.27,0.00273
3317.41,0.00280
3313.55,0.00303
3309.69,0.00313
3305.84,0.00275
3301.98,0.00272
3298.12,0.00298
3294.26,0.00293
3290.41,0.00302
3286.55,0.00307
3282.69,0.00298
3278.83,0.00291
3274.98,0.00317
3271.12,0.00294
3267.26,0.00290
3263.4,0.00286
3259.55,0.00269
3255.69,0.00288
3251.83,0.00258
3247.97,0.00272
3244.12,0.00287
3240.26,0.00268
3236.4,0.00252
3232.55,0.00260
3228.69,0.00259
3224.83,0.00227
3220.97,0.00240
3217.12,0.00232
3213.26,0.00241
3209.4,0.00232
3205.54,0.00228
3201.69,0.00242
3197.83,0.00245
3193.97,0.00210
3190.11,0.00205
3186.26,0.00214
3182.4,0.00215
3178.54,0.00223
3174.68,0.00209
3170.83,0.00198
3166.97,0.00185
3163.11,0.00178
3159.25,0.00175
3155.4,0.00186
3151.54,0.00180
3147.68,0.00170
3143.82,0.00168
3139.97,0.00163
3136.11,0.00176
3132.25,0.00170
3128.39,0.00169
3124.54,0.00177
3120.68,0.00181
3116.82,0.00177
3112.96,0.00163
3109.11,0.00165
3105.25,0.00157
3101.39,0.00178
3097.53,0.00164
3093.68,0.00147
3089.82,0.00138
3085.96,0.00147
3082.1,0.00168
3078.25,0.00152
3074.39,0.00132
3070.53,0.00132
3066.67,0.00161
3062.82,0.00150
3058.96,0.00150
3055.1,0.00163
3051.24,0.00147
3047.39,0.00134
3043.53,0.00125
3039.67,0.00123
3035.82,0.00134
3031.96,0.00165
3028.1,0.00129
3024.24,0.00127
3020.39,0.00108
3016.53,0.00102
3012.67,0.00144
3008.81,0.00133
3004.96,0.00125
3001.1,0.00117
2997.24,0.00129
2993.38,0.00130
2989.53,0.00126
2985.67,0.00133
2981.81,0.00155
2977.95,0.00181
2974.1,0.00224
2970.24,0.00285
2966.38,0.00373
2962.52,0.00411
2958.67,0.00366
2954.81,0.00313
2950.95,0.00275
2947.09,0.00261
2943.24,0.00259
2939.38,0.00263
2935.52,0.00282
2931.66,0.00300
2927.81,0.00312
2923.95,0.00332
2920.09,0.00336
2916.23,0.00341
2912.38,0.00337
2908.52,0.00333
2904.66,0.00333
2900.8,0.00326
2896.95,0.00312
2893.09,0.00310
2889.23,0.00304
2885.37,0.00293
2881.52,0.00284
2877.66,0.00293
2873.8,0.00295
2869.94,0.00299
2866.09,0.00296
2862.23,0.00294
2858.37,0.00308
2854.51,0.00319
2850.66,0.00316
2846.8,0.00295
2842.94,0.00279
2839.08,0.00266
2835.23,0.00251
2831.37,0.00249
2827.51,0.00238
2823.66,0.00221
2819.8,0.00216
2815.94,0.00218
2812.08,0.00216
2808.23,0.00207
2804.37,0.00202
2800.51,0.00205
2796.65,0.00205
2792.8,0.00205
2788.94,0.00201
2785.08,0.00201
2781.22,0.00203
2777.37,0.00203
2773.51,0.00202
2769.65,0.00194
2765.79,0.00189
2761.94,0.00197
2758.08,0.00198
2754.22,0.00200
2750.36,0.00199
2746.51,0.00205
2742.65,0.00201
2738.79,0.00194
2734.93,0.00195
2731.08,0.00198
2727.22,0.00205
2723.36,0.00203
2719.5,0.00203
2715.65,0.00200
2711.79,0.00202
2707.93,0.00201
2704.07,0.00198
2700.22,0.00205
2696.36,0.00209
2692.5,0.00210
2688.64,0.00212
2684.79,0.00207
2680.93,0.00200
2677.07,0.00206
2673.21,0.00202
2669.36,0.00201
2665.5,0.00207
2661.64,0.00204
2657.78,0.00199
2653.93,0.00193
2650.07,0.00186
2646.21,0.00178
2642.35,0.00181
2638.5,0.00182
2634.64,0.00180
2630.78,0.00175
2626.93,0.00176
2623.07,0.00173
2619.21,0.00164
2615.35,0.00160
2611.5,0.00154
2607.64,0.00152
2603.78,0.00159
2599.92,0.00154
2596.07,0.00160
2592.21,0.00173
2588.35,0.00171
2584.49,0.00178
2580.64,0.00187
2576.78,0.00182
2572.92,0.00170
2569.06,0.00178
2565.21,0.00176
2561.35,0.00163
2557.49,0.00163
2553.63,0.00178
2549.78,0.00167
2545.92,0.00168
2542.06,0.00174
2538.2,0.00180
2534.35,0.00192
2530.49,0.00182
2526.63,0.00169
2522.77,0.00170
2518.92,0.00184
2515.06,0.00176
2511.2,0.00180
2507.34,0.00184
2503.49,0.00190
2499.63,0.00175
2495.77,0.00176
2491.91,0.00181
2488.06,0.00188
2484.2,0.00178
2480.34,0.00179
2476.48,0.00190
2472.63,0.00202
2468.77,0.00200
2464.91,0.00182
2461.05,0.00180
2457.2,0.00176
2453.34,0.00173
2449.48,0.00161
2445.62,0.00166
2441.77,0.00174
2437.91,0.00197
2434.05,0.00206
2430.2,0.00200
2426.34,0.00186
2422.48,0.00195
2418.62,0.00200
2414.77,0.00185
2410.91,0.00185
2407.05,0.00187
2403.19,0.00190
2399.34,0.00199
2395.48,0.00202
2391.62,0.00198
2387.76,0.00222
2383.91,0.00263
2380.05,0.00262
2376.19,0.00177
2372.33,0.00021
2368.48,-0.00190
2364.62,-0.00324
2360.76,-0.00366
2356.9,-0.00321
2353.05,-0.00106
2349.19,0.00085
2345.33,-0.00077
2341.47,-0.00270
2337.62,-0.00259
2333.76,-0.00171
2329.9,-0.00108
2326.04,-0.00035
2322.19,0.00090
2318.33,0.00164
2314.47,0.00211
2310.61,0.00272
2306.76,0.00275
2302.9,0.00243
2299.04,0.00233
2295.18,0.00235
2291.33,0.00217
2287.47,0.00192
2283.61,0.00200
2279.75,0.00188
2275.9,0.00172
2272.04,0.00156
2268.18,0.00176
2264.32,0.00196
2260.47,0.00187
2256.61,0.00191
2252.75,0.00208
2248.89,0.00214
2245.04,0.00223
2241.18,0.00189
2237.32,0.00181
2233.46,0.00184
2229.61,0.00188
2225.75,0.00179
2221.89,0.00182
2218.04,0.00192
2214.18,0.00181
2210.32,0.00136
2206.46,0.00151
2202.61,0.00151
2198.75,0.00131
2194.89,0.00095
2191.03,0.00101
2187.18,0.00106
2183.32,0.00076
2179.46,0.00095
2175.6,0.00104
2171.75,0.00069
2167.89,0.00061
2164.03,0.00060
2160.17,0.00096
2156.32,0.00174
2152.46,0.00224
2148.6,0.00195
2144.74,0.00173
2140.89,0.00195
2137.03,0.00216
2133.17,0.00218
2129.31,0.00199
2125.46,0.00165
2121.6,0.00135
2117.74,0.00149
2113.88,0.00170
2110.03,0.00161
2106.17,0.00163
2102.31,0.00171
2098.45,0.00180
2094.6,0.00191
2090.74,0.00225
2086.88,0.00205
2083.02,0.00191
2079.17,0.00199
2075.31,0.00188
2071.45,0.00190
2067.59,0.00243
2063.74,0.00301
2059.88,0.00229
2056.02,0.00211
2052.16,0.00216
2048.31,0.00206
2044.45,0.00247
2040.59,0.00279
2036.73,0.00238
2032.88,0.00234
2029.02,0.00245
2025.16,0.00270
2021.31,0.00286
2017.45,0.00363
2013.59,0.00299
2009.73,0.00279
2005.88,0.00268
2002.02,0.00239
1998.16,0.00226
1994.3,0.00318
1990.45,0.00374
1986.59,0.00282
1982.73,0.00220
1978.87,0.00237
1975.02,0.00267
1971.16,0.00292
1967.3,0.00358
1963.44,0.00282
1959.59,0.00279
1955.73,0.00350
1951.87,0.00308
1948.01,0.00332
1944.16,0.00422
1940.3,0.00353
1936.44,0.00308
1932.58,0.00321
1928.73,0.00292
1924.87,0.00406
1921.01,0.00460
1917.15,0.00381
1913.3,0.00335
1909.44,0.00433
1905.58,0.00340
1901.72,0.00322
1897.87,0.00353
1894.01,0.00375
1890.15,0.00400
1886.29,0.00360
1882.44,0.00315
1878.58,0.00308
1874.72,0.00325
1870.86,0.00533
1867.01,0.00578
1863.15,0.00364
1859.29,0.00362
1855.43,0.00319
1851.58,0.00330
1847.72,0.00522
1843.86,0.00635
1840,0.00420
1836.15,0.00403
1832.29,0.00438
1828.43,0.00528
1824.57,0.00496
1820.72,0.00374
1816.86,0.00362
1813,0.00445
1809.15,0.00493
1805.29,0.00445
1801.43,0.00609
1797.57,0.00625
1793.72,0.00745
1789.86,0.00577
1786,0.00471
1782.14,0.00543
1778.29,0.00558
1774.43,0.00672
1770.57,0.00769
1766.71,0.00568
1762.86,0.00607
1759,0.00690
1755.14,0.00684
1751.28,0.01001
1747.43,0.01227
1743.57,0.01055
1739.71,0.01000
1735.85,0.01115
1732,0.01178
1728.14,0.00834
1724.28,0.00809
1720.42,0.00934
1716.57,0.01415
1712.71,0.00959
1708.85,0.00863
1704.99,0.01105
1701.14,0.01212
1697.28,0.01284
1693.42,0.00811
1689.56,0.00917
1685.71,0.01116
1681.85,0.01105
1677.99,0.00886
1674.13,0.00945
1670.28,0.01040
1666.42,0.00779
1662.56,0.00835
1658.7,0.00797
1654.85,0.01048
1650.99,0.01147
1647.13,0.01229
1643.27,0.00890
1639.42,0.00936
1635.56,0.01055
1631.7,0.00772
1627.84,0.00830
1623.99,0.00956
1620.13,0.00906
1616.27,0.00910
1612.42,0.00763
1608.56,0.00817
1604.7,0.00788
1600.84,0.00762
1596.99,0.00766
1593.13,0.00797
1589.27,0.00744
1585.41,0.00676
1581.56,0.00679
1577.7,0.00867
1573.84,0.00809
1569.98,0.00817
1566.13,0.00798
1562.27,0.00877
1558.41,0.01343
1554.55,0.01164
1550.7,0.01007
1546.84,0.01049
1542.98,0.01749
1539.12,0.01317
1535.27,0.01215
1531.41,0.01097
1527.55,0.01263
1523.69,0.01604
1519.84,0.01567
1515.98,0.01491
1512.12,0.01517
1508.26,0.01987
1504.41,0.01302
1500.55,0.01285
1496.69,0.01265
1492.83,0.01088
1488.98,0.01378
1485.12,0.00978
1481.26,0.00916
1477.4,0.01055
1473.55,0.01478
1469.69,0.01166
1465.83,0.01235
1461.97,0.01288
1458.12,0.01726
1454.26,0.01536
1450.4,0.01338
1446.54,0.01288
1442.69,0.01169
1438.83,0.01302
1434.97,0.01480
1431.11,0.01424
1427.26,0.01388
1423.4,0.01462
1419.54,0.01636
1415.69,0.01440
1411.83,0.01308
1407.97,0.01243
1404.11,0.01251
1400.26,0.01296
1396.4,0.01472
1392.54,0.01211
1388.68,0.01242
1384.83,0.01178
1380.97,0.01166
1377.11,0.01316
1373.25,0.01389
1369.4,0.01253
1365.54,0.01252
1361.68,0.01354
1357.82,0.01149
1353.97,0.01098
1350.11,0.01062
1346.25,0.01038
1342.39,0.01174
1338.54,0.01436
1334.68,0.01162
1330.82,0.01127
1326.96,0.01129
1323.11,0.01193
1319.25,0.01345
1315.39,0.01343
1311.53,0.01244
1307.68,0.01134
1303.82,0.01057
1299.96,0.01025
1296.1,0.01017
1292.25,0.01011
1288.39,0.01069
1284.53,0.01052
1280.67,0.01086
1276.82,0.01129
1272.96,0.01262
1269.1,0.01499
1265.24,0.01823
1261.39,0.02081
1257.53,0.01951
1253.67,0.01651
1249.81,0.01489
1245.96,0.01452
1242.1,0.01453
1238.24,0.01448
1234.38,0.01442
1230.53,0.01429
1226.67,0.01409
1222.81,0.01366
1218.95,0.01310
1215.1,0.01259
1211.24,0.01219
1207.38,0.01184
1203.53,0.01159
1199.67,0.01126
1195.81,0.01080
1191.95,0.01051
1188.1,0.01064
1184.24,0.01077
1180.38,0.01109
1176.52,0.01180
1172.67,0.01272
1168.81,0.01399
1164.95,0.01562
1161.09,0.01695
1157.24,0.01761
1153.38,0.01736
1149.52,0.01698
1145.66,0.01684
1141.81,0.01674
1137.95,0.01717
1134.09,0.01821
1130.23,0.01966
1126.38,0.02136
1122.52,0.02292
1118.66,0.02435
1114.8,0.02634
1110.95,0.02792
1107.09,0.02915
1103.23,0.03008
1099.37,0.03086
1095.52,0.03127
1091.66,0.03139
1087.8,0.03146
1083.94,0.03160
1080.09,0.03207
1076.23,0.03301
1072.37,0.03367
1068.51,0.03465
1064.66,0.03627
1060.8,0.03820
1056.94,0.04007
1053.08,0.04115
1049.23,0.04179
1045.37,0.04202
1041.51,0.04258
1037.65,0.04382
1033.8,0.04557
1029.94,0.04664
1026.08,0.04689
1022.22,0.04707
1018.37,0.04642
1014.51,0.04474
1010.65,0.04193
1006.8,0.03924
1002.94,0.03705
999.08,0.03547
995.223,0.03430
991.365,0.03324
987.508,0.03194
983.65,0.03102
979.793,0.02926
975.935,0.02703
972.078,0.02564
968.221,0.02446
964.363,0.02356
960.506,0.02242
956.648,0.02113
952.791,0.01999
948.933,0.01889
945.076,0.01834
941.218,0.01778
937.361,0.01739
933.503,0.01699
929.646,0.01664
925.789,0.01635
921.931,0.01600
918.074,0.01621
914.216,0.01633
910.359,0.01577
906.501,0.01599
902.644,0.01704
898.786,0.01763
894.929,0.01761
891.072,0.01733
887.214,0.01686
883.357,0.01736
879.499,0.01777
875.642,0.01816
871.784,0.01759
867.927,0.01703
864.069,0.01664
860.212,0.01641
856.354,0.01620
852.497,0.01578
848.64,0.01593
844.782,0.01636
840.925,0.01640
837.067,0.01637
833.21,0.01670
829.352,0.01768
825.495,0.01905
821.637,0.02038
817.78,0.02166
813.922,0.02203
810.065,0.02375
806.208,0.02529
802.35,0.02693
798.493,0.02749
794.635,0.02624
790.778,0.02349
786.92,0.02113
783.063,0.01939
779.205,0.01875
775.348,0.01941
771.49,0.01952
767.633,0.01791
763.776,0.01762
759.918,0.01788
756.061,0.01787
752.203,0.01807
748.346,0.01792
744.488,0.01822
740.631,0.01890
736.773,0.01941
732.916,0.01924
729.058,0.01941
725.201,0.01979
721.344,0.02053
717.486,0.02130
713.629,0.02216
709.771,0.02245
705.914,0.02281
702.056,0.02292
698.199,0.02341
694.341,0.02354
690.484,0.02361
686.627,0.02361
682.769,0.02373
678.912,0.02415
675.054,0.02550
671.197,0.02688
667.339,0.02723
663.482,0.02826
659.624,0.02837
655.767,0.02784
651.909,0.02793
648.052,0.02795
644.195,0.02846
640.337,0.02909
636.48,0.02988
632.622,0.02985
628.765,0.02927
624.907,0.02966
621.05,0.03017
617.192,0.03666
613.335,0.03559
609.477,0.03176
605.62,0.03431
601.763,0.03709
599.834,0.03766