File: 01_Data/MDF/FTIR/ATR/MDF_ATR_210608_R4.tst
4497.79,-0.00362
4493.93,-0.00368
4490.07,-0.00358
4486.22,-0.00357
4482.36,-0.00365
4478.5,-0.00317
4474.64,-0.00342
4470.79,-0.00350
4466.93,-0.00352
4463.07,-0.00333
4459.21,-0.00343
4455.36,-0.00344
4451.5,-0.00327
4447.64,-0.00345
4443.79,-0.00320
4439.93,-0.00290
4436.07,-0.00316
4432.21,-0.00332
4428.36,-0.00324
4424.5,-0.00286
4420.64,-0.00313
4416.78,-0.00301
4412.93,-0.00287
4409.07,-0.00306
4405.21,-0.00302
4401.35,-0.00301
4397.5,-0.00288
4393.64,-0.00283
4389.78,-0.00288
4385.92,-0.00285
4382.07,-0.00289
4378.21,-0.00285
4374.35,-0.00301
4370.49,-0.00296
4366.64,-0.00283
4362.78,-0.00282
4358.92,-0.00273
4355.06,-0.00294
4351.21,-0.00307
4347.35,-0.00293
4343.49,-0.00293
4339.63,-0.00269
4335.78,-0.00267
4331.92,-0.00265
4328.06,-0.00255
4324.2,-0.00259
4320.35,-0.00258
4316.49,-0.00272
4312.63,-0.00270
4308.77,-0.00280
4304.92,-0.00279
4301.06,-0.00279
4297.2,-0.00274
4293.34,-0.00270
4289.49,-0.00249
4285.63,-0.00256
4281.77,-0.00253
4277.91,-0.00247
4274.06,-0.00254
4270.2,-0.00232
4266.34,-0.00252
4262.48,-0.00245
4258.63,-0.00247
4254.77,-0.00246
4250.91,-0.00256
4247.06,-0.00271
4243.2,-0.00252
4239.34,-0.00238
4235.48,-0.00241
4231.63,-0.00261
4227.77,-0.00252
4223.91,-0.00241
4220.05,-0.00246
4216.2,-0.00245
4212.34,-0.00227
4208.48,-0.00238
4204.62,-0.00239
4200.77,-0.00227
4196.91,-0.00225
4193.05,-0.00214
4189.19,-0.00230
4185.34,-0.00244
4181.48,-0.00236
4177.62,-0.00224
4173.76,-0.00214
4169.91,-0.00200
4166.05,-0.00194
4162.19,-0.00219
4158.33,-0.00236
4154.48,-0.00226
4150.62,-0.00219
4146.76,-0.00212
4142.9,-0.00197
4139.05,-0.00207
4135.19,-0.00205
4131.33,-0.00212
4127.47,-0.00210
4123.62,-0.00205
4119.76,-0.00211
4115.9,-0.00201
4112.04,-0.00206
4108.19,-0.00182
4104.33,-0.00175
4100.47,-0.00200
4096.61,-0.00193
4092.76,-0.00189
4088.9,-0.00172
4085.04,-0.00175
4081.18,-0.00180
4077.33,-0.00207
4073.47,-0.00190
4069.61,-0.00184
4065.75,-0.00200
4061.9,-0.00167
4058.04,-0.00161
4054.18,-0.00169
4050.33,-0.00169
4046.47,-0.00145
4042.61,-0.00152
4038.75,-0.00180
4034.9,-0.00173
4031.04,-0.00184
4027.18,-0.00160
4023.32,-0.00135
4019.47,-0.00128
4015.61,-0.00121
4011.75,-0.00127
4007.89,-0.00127
4004.04,-0.00158
4000.18,-0.00150
3996.32,-0.00111
3992.46,-0.00088
3988.61,-0.00108
3984.75,-0.00120
3980.89,-0.00099
3977.03,-0.00071
3973.18,-0.00039
3969.32,-0.00079
3965.46,-0.00107
3961.6,-0.00022
3957.75,-0.00034
3953.89,-0.00042
3950.03,0.00096
3946.17,0.00064
3942.32,0.00038
3938.46,-0.00062
3934.6,0.00057
3930.74,0.00172
3926.89,0.00080
3923.03,0.00125
3919.17,0.00133
3915.31,0.00026
3911.46,-0.00111
3907.6,0.00046
3903.74,0.00487
3899.88,0.00367
3896.03,0.00135
3892.17,0.00222
3888.31,0.00132
3884.45,0.00323
3880.6,0.00181
3876.74,0.00074
3872.88,0.00333
3869.02,0.00389
3865.17,0.00426
3861.31,0.00254
3857.45,0.00300
3853.59,0.00625
3849.74,0.00212
3845.88,0.00129
3842.02,0.00455
3838.17,0.00640
3834.31,0.00265
3830.45,0.00142
3826.59,0.00229
3822.74,0.00370
3818.88,0.00413
3815.02,0.00124
3811.16,-0.00001
3807.31,0.00154
3803.45,0.00295
3799.59,0.00332
3795.73,0.00076
3791.88,-0.00076
3788.02,0.00007
3784.16,0.00092
3780.3,0.00082
3776.45,-0.00022
3772.59,0.00059
3768.73,0.00229
3764.87,0.00152
3761.02,0.00211
3757.16,0.00337
3753.3,0.00594
3749.44,0.00900
3745.59,0.00705
3741.73,0.00517
3737.87,0.00650
3734.01,0.00605
3730.16,0.00249
3726.3,0.00373
3722.44,0.00321
3718.58,0.00130
3714.73,0.00227
3710.87,0.00411
3707.01,0.00112
3703.15,0.00107
3699.3,0.00039
3695.44,0.00096
3691.58,0.00402
3687.72,0.00304
3683.87,0.00044
3680.01,0.00192
3676.15,0.00477
3672.29,0.00457
3668.44,0.00265
3664.58,0.00018
3660.72,0.00044
3656.86,0.00191
3653.01,0.00310
3649.15,0.00835
3645.29,0.00311
3641.44,0.00158
3637.58,0.00114
3633.72,0.00224
3629.86,0.00486
3626.01,0.00268
3622.15,0.00284
3618.29,0.00580
3614.43,0.00546
3610.58,0.00483
3606.72,0.00311
3602.86,0.00274
3599,0.00393
3595.15,0.00383
3591.29,0.00325
3587.43,0.00597
3583.57,0.00304
3579.72,0.00256
3575.86,0.00241
3572,0.00297
3568.14,0.00710
3564.29,0.00570
3560.43,0.00360
3556.57,0.00290
3552.71,0.00403
3548.86,0.00450
3545,0.00578
3541.14,0.00298
3537.28,0.00322
3533.43,0.00334
3529.57,0.00509
3525.71,0.00624
3521.85,0.00484
3518,0.00339
3514.14,0.00323
3510.28,0.00443
3506.42,0.00455
3502.57,0.00579
3498.71,0.00417
3494.85,0.00385
3490.99,0.00384
3487.14,0.00444
3483.28,0.00490
3479.42,0.00460
3475.56,0.00433
3471.71,0.00422
3467.85,0.00454
3463.99,0.00507
3460.13,0.00508
3456.28,0.00488
3452.42,0.00470
3448.56,0.00590
3444.7,0.00611
3440.85,0.00555
3436.99,0.00515
3433.13,0.00548
3429.28,0.00567
3425.42,0.00594
3421.56,0.00687
3417.7,0.00630
3413.85,0.00622
3409.99,0.00633
3406.13,0.00646
3402.27,0.00664
3398.42,0.00694
3394.56,0.00726
3390.7,0.00698
3386.84,0.00692
3382.99,0.00713
3379.13,0.00702
3375.27,0.00694
3371.41,0.00713
3367.56,0.00777
3363.7,0.00780
3359.84,0.00783
3355.98,0.00781
3352.13,0.00758
3348.27,0.00759
3344.41,0.00788
3340.55,0.00813
3336.7,0.00842
3332.84,0.00812
3328.98,0.00809
3325.12,0.00810
3321.27,0.00795
3317.41,0.00789
3313.55,0.00810
3309.69,0.00828
3305.84,0.00796
3301.98,0.00801
3298.12,0.00808
3294.26,0.00814
3290.41,0.00831
3286.55,0.00829
3282.69,0.00835
3278.83,0.00817
3274.98,0.00830
3271.12,0.00812
3267.26,0.00805
3263.4,0.00808
3259.55,0.00786
3255.69,0.00790
3251.83,0.00751
3247.97,0.00767
3244.12,0.00779
3240.26,0.00755
3236.4,0.00740
3232.55,0.00737
3228.69,0.00733
3224.83,0.00705
3220.97,0.00708
3217.12,0.00699
3213.26,0.00695
3209.4,0.00686
3205.54,0.00682
3201.69,0.00691
3197.83,0.00706
3193.97,0.00669
3190.11,0.00652
3186.26,0.00655
3182.4,0.00638
3178.54,0.00650
3174.68,0.00622
3170.83,0.00614
3166.97,0.00598
3163.11,0.00579
3159.25,0.00565
3155.4,0.00567
3151.54,0.00572
3147.68,0.00566
3143.82,0.00549
3139.97,0.00542
3136.11,0.00551
3132.25,0.00545
3128.39,0.00535
3124.54,0.00546
3120.68,0.00555
3116.82,0.00532
3112.96,0.00515
3109.11,0.00509
3105.25,0.00503
3101.39,0.00528
3097.53,0.00511
3093.68,0.00491
3089.82,0.00469
3085.96,0.00468
3082.1,0.00487
3078.25,0.00482
3074.39,0.00459
3070.53,0.00463
3066.67,0.00482
3062.82,0.00459
3058.96,0.00459
3055.1,0.00461
3051.24,0.00453
3047.39,0.00453
3043.53,0.00433
3039.67,0.00427
3035.82,0.00441
3031.96,0.00469
3028.1,0.00428
3024.24,0.00413
3020.39,0.00393
3016.53,0.00389
3012.67,0.00424
3008.81,0.00415
3004.96,0.00410
3001.1,0.00399
2997.24,0.00402
2993.38,0.00407
2989.53,0.00404
2985.67,0.00409
2981.81,0.00433
2977.95,0.00445
2974.1,0.00472
2970.24,0.00505
2966.38,0.00552
2962.52,0.00584
2958.67,0.00595
2954.81,0.00602
2950.95,0.00605
2947.09,0.00619
2943.24,0.00636
2939.38,0.00670
2935.52,0.00731
2931.66,0.00795
2927.81,0.00844
2923.95,0.00891
2920.09,0.00892
2916.23,0.00860
2912.38,0.00818
2908.52,0.00777
2904.66,0.00759
2900.8,0.00746
2896.95,0.00727
2893.09,0.00706
2889.23,0.00688
2885.37,0.00673
2881.52,0.00665
2877.66,0.00672
2873.8,0.00685
2869.94,0.00685
2866.09,0.00685
2862.23,0.00703
2858.37,0.00739
2854.51,0.00775
2850.66,0.00765
2846.8,0.00715
2842.94,0.00658
2839.08,0.00607
2835.23,0.00573
2831.37,0.00553
2827.51,0.00537
2823.66,0.00517
2819.8,0.00506
2815.94,0.00507
2812.08,0.00501
2808.23,0.00482
2804.37,0.00474
2800.51,0.00479
2796.65,0.00477
2792.8,0.00470
2788.94,0.00466
2785.08,0.00461
2781.22,0.00466
2777.37,0.00457
2773.51,0.00461
2769.65,0.00457
2765.79,0.00446
2761.94,0.00444
2758.08,0.00448
2754.22,0.00449
2750.36,0.00447
2746.51,0.00450
2742.65,0.00451
2738.79,0.00443
2734.93,0.00441
2731.08,0.00444
2727.22,0.00449
2723.36,0.00440
2719.5,0.00444
2715.65,0.00445
2711.79,0.00447
2707.93,0.00441
2704.07,0.00447
2700.22,0.00447
2696.36,0.00451
2692.5,0.00444
2688.64,0.00443
2684.79,0.00438
2680.93,0.00437
2677.07,0.00439
2673.21,0.00438
2669.36,0.00445
2665.5,0.00444
2661.64,0.00436
2657.78,0.00425
2653.93,0.00423
2650.07,0.00424
2646.21,0.00403
2642.35,0.00397
2638.5,0.00398
2634.64,0.00383
2630.78,0.00379
2626.93,0.00385
2623.07,0.00377
2619.21,0.00366
2615.35,0.00363
2611.5,0.00368
2607.64,0.00358
2603.78,0.00357
2599.92,0.00358
2596.07,0.00367
2592.21,0.00373
2588.35,0.00370
2584.49,0.00375
2580.64,0.00368
2576.78,0.00359
2572.92,0.00363
2569.06,0.00377
2565.21,0.00360
2561.35,0.00348
2557.49,0.00353
2553.63,0.00345
2549.78,0.00342
2545.92,0.00349
2542.06,0.00358
2538.2,0.00366
2534.35,0.00361
2530.49,0.00368
2526.63,0.00366
2522.77,0.00361
2518.92,0.00358
2515.06,0.00352
2511.2,0.00352
2507.34,0.00359
2503.49,0.00377
2499.63,0.00362
2495.77,0.00346
2491.91,0.00355
2488.06,0.00358
2484.2,0.00350
2480.34,0.00357
2476.48,0.00359
2472.63,0.00360
2468.77,0.00375
2464.91,0.00363
2461.05,0.00354
2457.2,0.00356
2453.34,0.00348
2449.48,0.00338
2445.62,0.00336
2441.77,0.00338
2437.91,0.00351
2434.05,0.00363
2430.2,0.00368
2426.34,0.00360
2422.48,0.00355
2418.62,0.00364
2414.77,0.00359
2410.91,0.00364
2407.05,0.00372
2403.19,0.00374
2399.34,0.00378
2395.48,0.00373
2391.62,0.00378
2387.76,0.00397
2383.91,0.00430
2380.05,0.00427
2376.19,0.00333
2372.33,0.00148
2368.48,-0.00095
2364.62,-0.00263
2360.76,-0.00250
2356.9,-0.00220
2353.05,0.00043
2349.19,0.00218
2345.33,0.00073
2341.47,-0.00125
2337.62,-0.00110
2333.76,-0.00042
2329.9,0.00066
2326.04,0.00123
2322.19,0.00239
2318.33,0.00327
2314.47,0.00379
2310.61,0.00444
2306.76,0.00438
2302.9,0.00418
2299.04,0.00394
2295.18,0.00383
2291.33,0.00374
2287.47,0.00360
2283.61,0.00346
2279.75,0.00324
2275.9,0.00320
2272.04,0.00313
2268.18,0.00322
2264.32,0.00328
2260.47,0.00325
2256.61,0.00329
2252.75,0.00337
2248.89,0.00344
2245.04,0.00364
2241.18,0.00342
2237.32,0.00313
2233.46,0.00323
2229.61,0.00335
2225.75,0.00328
2221.89,0.00329
2218.04,0.00318
2214.18,0.00300
2210.32,0.00279
2206.46,0.00283
2202.61,0.00276
2198.75,0.00288
2194.89,0.00256
2191.03,0.00230
2187.18,0.00216
2183.32,0.00181
2179.46,0.00213
2175.6,0.00257
2171.75,0.00194
2167.89,0.00138
2164.03,0.00143
2160.17,0.00242
2156.32,0.00313
2152.46,0.00334
2148.6,0.00305
2144.74,0.00309
2140.89,0.00335
2137.03,0.00349
2133.17,0.00347
2129.31,0.00318
2125.46,0.00315
2121.6,0.00295
2117.74,0.00286
2113.88,0.00305
2110.03,0.00293
2106.17,0.00295
2102.31,0.00307
2098.45,0.00331
2094.6,0.00348
2090.74,0.00355
2086.88,0.00341
2083.02,0.00326
2079.17,0.00347
2075.31,0.00323
2071.45,0.00334
2067.59,0.00387
2063.74,0.00413
2059.88,0.00387
2056.02,0.00370
2052.16,0.00327
2048.31,0.00306
2044.45,0.00379
2040.59,0.00394
2036.73,0.00342
2032.88,0.00354
2029.02,0.00374
2025.16,0.00388
2021.31,0.00365
2017.45,0.00454
2013.59,0.00396
2009.73,0.00392
2005.88,0.00403
2002.02,0.00386
1998.16,0.00376
1994.3,0.00461
1990.45,0.00511
1986.59,0.00416
1982.73,0.00389
1978.87,0.00366
1975.02,0.00375
1971.16,0.00421
1967.3,0.00513
1963.44,0.00400
1959.59,0.00398
1955.73,0.00465
1951.87,0.00440
1948.01,0.00467
1944.16,0.00571
1940.3,0.00494
1936.44,0.00440
1932.58,0.00444
1928.73,0.00422
1924.87,0.00551
1921.01,0.00604
1917.15,0.00513
1913.3,0.00456
1909.44,0.00557
1905.58,0.00467
1901.72,0.00448
1897.87,0.00495
1894.01,0.00526
1890.15,0.00554
1886.29,0.00508
1882.44,0.00451
1878.58,0.00440
1874.72,0.00455
1870.86,0.00659
1867.01,0.00710
1863.15,0.00515
1859.29,0.00503
1855.43,0.00455
1851.58,0.00473
1847.72,0.00677
1843.86,0.00789
1840,0.00563
1836.15,0.00546
1832.29,0.00584
1828.43,0.00672
1824.57,0.00637
1820.72,0.00516
1816.86,0.00507
1813,0.00594
1809.15,0.00639
1805.29,0.00591
1801.43,0.00768
1797.57,0.00783
1793.72,0.00891
1789.86,0.00731
1786,0.00631
1782.14,0.00710
1778.29,0.00719
1774.43,0.00826
1770.57,0.00930
1766.71,0.00747
1762.86,0.00796
1759,0.00911
1755.14,0.00933
1751.28,0.01281
1747.43,0.01549
1743.57,0.01419
1739.71,0.01389
1735.85,0.01511
1732,0.01593
1728.14,0.01230
1724.28,0.01200
1720.42,0.01327
1716.57,0.01786
1712.71,0.01307
1708.85,0.01200
1704.99,0.01426
1701.14,0.01537
1697.28,0.01637
1693.42,0.01161
1689.56,0.01281
1685.71,0.01490
1681.85,0.01518
1677.99,0.01328
1674.13,0.01415
1670.28,0.01532
1666.42,0.01319
1662.56,0.01407
1658.7,0.01395
1654.85,0.01661
1650.99,0.01780
1647.13,0.01858
1643.27,0.01542
1639.42,0.01576
1635.56,0.01682
1631.7,0.01419
1627.84,0.01479
1623.99,0.01599
1620.13,0.01557
1616.27,0.01565
1612.42,0.01425
1608.56,0.01492
1604.7,0.01478
1600.84,0.01465
1596.99,0.01484
1593.13,0.01534
1589.27,0.01468
1585.41,0.01377
1581.56,0.01357
1577.7,0.01505
1573.84,0.01411
1569.98,0.01393
1566.13,0.01347
1562.27,0.01418
1558.41,0.01816
1554.55,0.01676
1550.7,0.01532
1546.84,0.01595
1542.98,0.02316
1539.12,0.01834
1535.27,0.01716
1531.41,0.01611
1527.55,0.01773
1523.69,0.02125
1519.84,0.02120
1515.98,0.02086
1512.12,0.02146
1508.26,0.02606
1504.41,0.01905
1500.55,0.01873
1496.69,0.01811
1492.83,0.01620
1488.98,0.01891
1485.12,0.01477
1481.26,0.01430
1477.4,0.01587
1473.55,0.02049
1469.69,0.01815
1465.83,0.01921
1461.97,0.02004
1458.12,0.02469
1454.26,0.02262
1450.4,0.02066
1446.54,0.01997
1442.69,0.01858
1438.83,0.01986
1434.97,0.02184
1431.11,0.02163
1427.26,0.02150
1423.4,0.02245
1419.54,0.02423
1415.69,0.02219
1411.83,0.02072
1407.97,0.01985
1404.11,0.01965
1400.26,0.01994
1396.4,0.02160
1392.54,0.01894
1388.68,0.01932
1384.83,0.01888
1380.97,0.01891
1377.11,0.02056
1373.25,0.02138
1369.4,0.02010
1365.54,0.01998
1361.68,0.02085
1357.82,0.01852
1353.97,0.01773
1350.11,0.01727
1346.25,0.01698
1342.39,0.01837
1338.54,0.02111
1334.68,0.01839
1330.82,0.01807
1326.96,0.01827
1323.11,0.01897
1319.25,0.02057
1315.39,0.02056
1311.53,0.01957
1307.68,0.01832
1303.82,0.01743
1299.96,0.01691
1296.1,0.01674
1292.25,0.01671
1288.39,0.01721
1284.53,0.01704
1280.67,0.01751
1276.82,0.01797
1272.96,0.01921
1269.1,0.02054
1265.24,0.02171
1261.39,0.02303
1257.53,0.02301
1253.67,0.02249
1249.81,0.02248
1245.96,0.02286
1242.1,0.02307
1238.24,0.02316
1234.38,0.02316
1230.53,0.02302
1226.67,0.02274
1222.81,0.02210
1218.95,0.02133
1215.1,0.02068
1211.24,0.02010
1207.38,0.01959
1203.53,0.01925
1199.67,0.01885
1195.81,0.01835
1191.95,0.01813
1188.1,0.01821
1184.24,0.01851
1180.38,0.01910
1176.52,0.01996
1172.67,0.02117
1168.81,0.02306
1164.95,0.02557
1161.09,0.02766
1157.24,0.02866
1153.38,0.02863
1149.52,0.02811
1145.66,0.02767
1141.81,0.02737
1137.95,0.02771
1134.09,0.02904
1130.23,0.03095
1126.38,0.03327
1122.52,0.03506
1118.66,0.03630
1114.8,0.03792
1110.95,0.03923
1107.09,0.03981
1103.23,0.04041
1099.37,0.04095
1095.52,0.04146
1091.66,0.04183
1087.8,0.04219
1083.94,0.04279
1080.09,0.04379
1076.23,0.04519
1072.37,0.04639
1068.51,0.04792
1064.66,0.04999
1060.8,0.05269
1056.94,0.05505
1053.08,0.05646
1049.23,0.05728
1045.37,0.05764
1041.51,0.05807
1037.65,0.05935
1033.8,0.06140
1029.94,0.06244
1026.08,0.06240
1022.22,0.06207
1018.37,0.06129
1014.51,0.05970
1010.65,0.05738
1006.8,0.05549
1002.94,0.05396
999.08,0.05267
995.223,0.05177
991.365,0.05089
987.508,0.04974
983.65,0.04840
979.793,0.04577
975.935,0.04276
972.078,0.04074
968.221,0.03888
964.363,0.03737
960.506,0.03586
956.648,0.03388
952.791,0.03206
948.933,0.03027
945.076,0.02940
941.218,0.02850
937.361,0.02774
933.503,0.02712
929.646,0.02656
925.789,0.02599
921.931,0.02588
918.074,0.02532
914.216,0.02517
910.359,0.02516
906.501,0.02583
902.644,0.02657
898.786,0.02701
894.929,0.02683
891.072,0.02625
887.214,0.02591
883.357,0.02628
879.499,0.02679
875.642,0.02711
871.784,0.02654
867.927,0.02543
864.069,0.02481
860.212,0.02472
856.354,0.02458
852.497,0.02411
848.64,0.02404
844.782,0.02425
840.925,0.02450
837.067,0.02448
833.21,0.02444
829.352,0.02509
825.495,0.02566
821.637,0.02603
817.78,0.02647
813.922,0.02656
810.065,0.02744
806.208,0.02817
802.35,0.02898
798.493,0.02920
794.635,0.02864
790.778,0.02787
786.92,0.02668
783.063,0.02665
779.205,0.02710
775.348,0.02821
771.49,0.02818
767.633,0.02754
763.776,0.02763
759.918,0.02795
756.061,0.02743
752.203,0.02809
748.346,0.02839
744.488,0.02924
740.631,0.03015
736.773,0.02981
732.916,0.02956
729.058,0.03009
725.201,0.03081
721.344,0.03206
717.486,0.03310
713.629,0.03411
709.771,0.03450
705.914,0.03490
702.056,0.03523
698.199,0.03566
694.341,0.03584
690.484,0.03599
686.627,0.03597
682.769,0.03634
678.912,0.03714
675.054,0.03922
671.197,0.04107
667.339,0.04214
663.482,0.04341
659.624,0.04397
655.767,0.04307
651.909,0.04304
648.052,0.04341
644.195,0.04433
640.337,0.04527
636.48,0.04593
632.622,0.04656
628.765,0.04608
624.907,0.04632
621.05,0.04705
617.192,0.04958
613.335,0.04697
609.477,0.05059
605.62,0.05639
601.763,0.05507
599.834,0.05662