File: 01_Data/MDF/FTIR/ATR/MDF_ATR_210608_R2.tst
4497.79,-0.00646
4493.93,-0.00633
4490.07,-0.00617
4486.22,-0.00603
4482.36,-0.00604
4478.5,-0.00577
4474.64,-0.00613
4470.79,-0.00617
4466.93,-0.00628
4463.07,-0.00598
4459.21,-0.00594
4455.36,-0.00586
4451.5,-0.00586
4447.64,-0.00619
4443.79,-0.00600
4439.93,-0.00579
4436.07,-0.00575
4432.21,-0.00608
4428.36,-0.00587
4424.5,-0.00581
4420.64,-0.00602
4416.78,-0.00589
4412.93,-0.00571
4409.07,-0.00555
4405.21,-0.00558
4401.35,-0.00585
4397.5,-0.00566
4393.64,-0.00552
4389.78,-0.00551
4385.92,-0.00562
4382.07,-0.00566
4378.21,-0.00565
4374.35,-0.00580
4370.49,-0.00583
4366.64,-0.00580
4362.78,-0.00559
4358.92,-0.00558
4355.06,-0.00549
4351.21,-0.00547
4347.35,-0.00558
4343.49,-0.00582
4339.63,-0.00549
4335.78,-0.00533
4331.92,-0.00525
4328.06,-0.00538
4324.2,-0.00534
4320.35,-0.00537
4316.49,-0.00543
4312.63,-0.00542
4308.77,-0.00510
4304.92,-0.00525
4301.06,-0.00534
4297.2,-0.00528
4293.34,-0.00526
4289.49,-0.00528
4285.63,-0.00533
4281.77,-0.00536
4277.91,-0.00544
4274.06,-0.00533
4270.2,-0.00509
4266.34,-0.00526
4262.48,-0.00530
4258.63,-0.00522
4254.77,-0.00514
4250.91,-0.00523
4247.06,-0.00563
4243.2,-0.00545
4239.34,-0.00506
4235.48,-0.00518
4231.63,-0.00516
4227.77,-0.00508
4223.91,-0.00511
4220.05,-0.00511
4216.2,-0.00530
4212.34,-0.00516
4208.48,-0.00511
4204.62,-0.00499
4200.77,-0.00497
4196.91,-0.00495
4193.05,-0.00481
4189.19,-0.00505
4185.34,-0.00525
4181.48,-0.00496
4177.62,-0.00508
4173.76,-0.00496
4169.91,-0.00494
4166.05,-0.00483
4162.19,-0.00482
4158.33,-0.00477
4154.48,-0.00479
4150.62,-0.00481
4146.76,-0.00494
4142.9,-0.00496
4139.05,-0.00481
4135.19,-0.00459
4131.33,-0.00471
4127.47,-0.00487
4123.62,-0.00470
4119.76,-0.00472
4115.9,-0.00464
4112.04,-0.00479
4108.19,-0.00478
4104.33,-0.00457
4100.47,-0.00471
4096.61,-0.00458
4092.76,-0.00488
4088.9,-0.00453
4085.04,-0.00435
4081.18,-0.00428
4077.33,-0.00469
4073.47,-0.00461
4069.61,-0.00455
4065.75,-0.00464
4061.9,-0.00450
4058.04,-0.00462
4054.18,-0.00459
4050.33,-0.00467
4046.47,-0.00423
4042.61,-0.00417
4038.75,-0.00448
4034.9,-0.00440
4031.04,-0.00460
4027.18,-0.00424
4023.32,-0.00400
4019.47,-0.00402
4015.61,-0.00406
4011.75,-0.00415
4007.89,-0.00405
4004.04,-0.00440
4000.18,-0.00441
3996.32,-0.00396
3992.46,-0.00373
3988.61,-0.00406
3984.75,-0.00400
3980.89,-0.00377
3977.03,-0.00338
3973.18,-0.00319
3969.32,-0.00362
3965.46,-0.00384
3961.6,-0.00301
3957.75,-0.00322
3953.89,-0.00329
3950.03,-0.00204
3946.17,-0.00212
3942.32,-0.00237
3938.46,-0.00348
3934.6,-0.00245
3930.74,-0.00139
3926.89,-0.00190
3923.03,-0.00129
3919.17,-0.00138
3915.31,-0.00247
3911.46,-0.00379
3907.6,-0.00222
3903.74,0.00201
3899.88,0.00091
3896.03,-0.00153
3892.17,-0.00053
3888.31,-0.00144
3884.45,0.00036
3880.6,-0.00087
3876.74,-0.00215
3872.88,0.00037
3869.02,0.00096
3865.17,0.00135
3861.31,-0.00028
3857.45,-0.00012
3853.59,0.00240
3849.74,-0.00050
3845.88,-0.00138
3842.02,0.00157
3838.17,0.00299
3834.31,-0.00041
3830.45,-0.00145
3826.59,-0.00041
3822.74,0.00050
3818.88,0.00116
3815.02,-0.00154
3811.16,-0.00277
3807.31,-0.00117
3803.45,0.00027
3799.59,0.00069
3795.73,-0.00190
3791.88,-0.00334
3788.02,-0.00251
3784.16,-0.00188
3780.3,-0.00199
3776.45,-0.00312
3772.59,-0.00251
3768.73,-0.00076
3764.87,-0.00133
3761.02,-0.00088
3757.16,0.00051
3753.3,0.00246
3749.44,0.00555
3745.59,0.00399
3741.73,0.00203
3737.87,0.00332
3734.01,0.00311
3730.16,-0.00012
3726.3,0.00142
3722.44,0.00062
3718.58,-0.00126
3714.73,-0.00024
3710.87,0.00161
3707.01,-0.00149
3703.15,-0.00168
3699.3,-0.00222
3695.44,-0.00168
3691.58,0.00113
3687.72,0.00017
3683.87,-0.00211
3680.01,-0.00057
3676.15,0.00221
3672.29,0.00173
3668.44,-0.00038
3664.58,-0.00272
3660.72,-0.00237
3656.86,-0.00100
3653.01,0.00012
3649.15,0.00506
3645.29,-0.00011
3641.44,-0.00156
3637.58,-0.00196
3633.72,-0.00074
3629.86,0.00173
3626.01,-0.00044
3622.15,-0.00035
3618.29,0.00205
3614.43,0.00200
3610.58,0.00153
3606.72,-0.00021
3602.86,-0.00099
3599,0.00020
3595.15,-0.00014
3591.29,-0.00054
3587.43,0.00208
3583.57,-0.00082
3579.72,-0.00132
3575.86,-0.00155
3572,-0.00128
3568.14,0.00247
3564.29,0.00133
3560.43,-0.00090
3556.57,-0.00150
3552.71,-0.00057
3548.86,-0.00021
3545,0.00097
3541.14,-0.00175
3537.28,-0.00151
3533.43,-0.00156
3529.57,-0.00001
3525.71,0.00117
3521.85,-0.00043
3518,-0.00175
3514.14,-0.00192
3510.28,-0.00084
3506.42,-0.00090
3502.57,0.00037
3498.71,-0.00118
3494.85,-0.00164
3490.99,-0.00164
3487.14,-0.00119
3483.28,-0.00091
3479.42,-0.00123
3475.56,-0.00163
3471.71,-0.00196
3467.85,-0.00180
3463.99,-0.00131
3460.13,-0.00125
3456.28,-0.00155
3452.42,-0.00183
3448.56,-0.00081
3444.7,-0.00063
3440.85,-0.00110
3436.99,-0.00153
3433.13,-0.00142
3429.28,-0.00139
3425.42,-0.00122
3421.56,-0.00041
3417.7,-0.00110
3413.85,-0.00129
3409.99,-0.00126
3406.13,-0.00118
3402.27,-0.00095
3398.42,-0.00071
3394.56,-0.00051
3390.7,-0.00071
3386.84,-0.00078
3382.99,-0.00068
3379.13,-0.00079
3375.27,-0.00092
3371.41,-0.00080
3367.56,-0.00035
3363.7,-0.00028
3359.84,-0.00019
3355.98,-0.00029
3352.13,-0.00059
3348.27,-0.00072
3344.41,-0.00058
3340.55,-0.00026
3336.7,0.00010
3332.84,-0.00023
3328.98,-0.00024
3325.12,-0.00026
3321.27,-0.00045
3317.41,-0.00050
3313.55,-0.00032
3309.69,-0.00005
3305.84,-0.00021
3301.98,-0.00024
3298.12,-0.00025
3294.26,-0.00015
3290.41,-0.00002
3286.55,-0.00008
3282.69,-0.00005
3278.83,-0.00009
3274.98,0.00011
3271.12,-0.00016
3267.26,-0.00015
3263.4,-0.00010
3259.55,-0.00019
3255.69,0.00002
3251.83,-0.00029
3247.97,-0.00028
3244.12,-0.00005
3240.26,-0.00028
3236.4,-0.00028
3232.55,-0.00015
3228.69,-0.00017
3224.83,-0.00047
3220.97,-0.00026
3217.12,-0.00032
3213.26,-0.00030
3209.4,-0.00041
3205.54,-0.00051
3201.69,-0.00036
3197.83,-0.00027
3193.97,-0.00051
3190.11,-0.00061
3186.26,-0.00043
3182.4,-0.00047
3178.54,-0.00041
3174.68,-0.00056
3170.83,-0.00058
3166.97,-0.00072
3163.11,-0.00076
3159.25,-0.00076
3155.4,-0.00067
3151.54,-0.00061
3147.68,-0.00066
3143.82,-0.00075
3139.97,-0.00075
3136.11,-0.00065
3132.25,-0.00061
3128.39,-0.00061
3124.54,-0.00057
3120.68,-0.00039
3116.82,-0.00034
3112.96,-0.00054
3109.11,-0.00066
3105.25,-0.00068
3101.39,-0.00040
3097.53,-0.00054
3093.68,-0.00073
3089.82,-0.00077
3085.96,-0.00077
3082.1,-0.00046
3078.25,-0.00061
3074.39,-0.00082
3070.53,-0.00075
3066.67,-0.00052
3062.82,-0.00067
3058.96,-0.00073
3055.1,-0.00065
3051.24,-0.00078
3047.39,-0.00074
3043.53,-0.00079
3039.67,-0.00084
3035.82,-0.00064
3031.96,-0.00033
3028.1,-0.00070
3024.24,-0.00080
3020.39,-0.00091
3016.53,-0.00102
3012.67,-0.00060
3008.81,-0.00068
3004.96,-0.00071
3001.1,-0.00084
2997.24,-0.00078
2993.38,-0.00068
2989.53,-0.00073
2985.67,-0.00072
2981.81,-0.00059
2977.95,-0.00045
2974.1,-0.00014
2970.24,0.00024
2966.38,0.00071
2962.52,0.00094
2958.67,0.00075
2954.81,0.00048
2950.95,0.00022
2947.09,0.00018
2943.24,0.00018
2939.38,0.00027
2935.52,0.00045
2931.66,0.00064
2927.81,0.00076
2923.95,0.00098
2920.09,0.00107
2916.23,0.00109
2912.38,0.00105
2908.52,0.00085
2904.66,0.00080
2900.8,0.00085
2896.95,0.00071
2893.09,0.00066
2889.23,0.00058
2885.37,0.00049
2881.52,0.00045
2877.66,0.00050
2873.8,0.00054
2869.94,0.00057
2866.09,0.00059
2862.23,0.00056
2858.37,0.00071
2854.51,0.00086
2850.66,0.00096
2846.8,0.00084
2842.94,0.00061
2839.08,0.00039
2835.23,0.00032
2831.37,0.00015
2827.51,0.00010
2823.66,-0.00001
2819.8,-0.00004
2815.94,0.00001
2812.08,0.00005
2808.23,-0.00004
2804.37,-0.00015
2800.51,-0.00014
2796.65,-0.00009
2792.8,-0.00006
2788.94,-0.00004
2785.08,-0.00002
2781.22,0.00003
2777.37,0.00003
2773.51,-0.00001
2769.65,-0.00002
2765.79,-0.00005
2761.94,-0.00006
2758.08,-0.00006
2754.22,-0.00003
2750.36,-0.00002
2746.51,0.00006
2742.65,0.00008
2738.79,-0.00003
2734.93,-0.00009
2731.08,-0.00001
2727.22,-0.00001
2723.36,-0.00001
2719.5,0.00003
2715.65,0.00001
2711.79,0.00003
2707.93,0.00005
2704.07,0.00007
2700.22,0.00009
2696.36,0.00011
2692.5,0.00009
2688.64,0.00007
2684.79,0.00009
2680.93,0.00008
2677.07,0.00010
2673.21,0.00003
2669.36,0.00008
2665.5,0.00013
2661.64,0.00011
2657.78,0.00006
2653.93,0.00007
2650.07,0.00006
2646.21,-0.00010
2642.35,-0.00011
2638.5,-0.00004
2634.64,-0.00020
2630.78,-0.00029
2626.93,-0.00014
2623.07,-0.00015
2619.21,-0.00028
2615.35,-0.00026
2611.5,-0.00025
2607.64,-0.00023
2603.78,-0.00022
2599.92,-0.00024
2596.07,-0.00013
2592.21,-0.00009
2588.35,-0.00014
2584.49,-0.00012
2580.64,-0.00015
2576.78,-0.00020
2572.92,-0.00012
2569.06,-0.00016
2565.21,-0.00019
2561.35,-0.00022
2557.49,-0.00013
2553.63,-0.00020
2549.78,-0.00020
2545.92,-0.00018
2542.06,-0.00013
2538.2,-0.00001
2534.35,0.00008
2530.49,-0.00010
2526.63,-0.00004
2522.77,-0.00006
2518.92,-0.00002
2515.06,-0.00003
2511.2,-0.00017
2507.34,-0.00007
2503.49,0.00001
2499.63,-0.00019
2495.77,-0.00005
2491.91,-0.00006
2488.06,-0.00008
2484.2,-0.00015
2480.34,-0.00010
2476.48,-0.00006
2472.63,-0.00001
2468.77,0.00008
2464.91,-0.00002
2461.05,-0.00014
2457.2,-0.00011
2453.34,-0.00011
2449.48,-0.00027
2445.62,-0.00023
2441.77,-0.00014
2437.91,-0.00011
2434.05,0.00009
2430.2,0.00012
2426.34,0.00007
2422.48,0.00007
2418.62,0.00009
2414.77,-0.00003
2410.91,0.00008
2407.05,0.00015
2403.19,0.00012
2399.34,0.00023
2395.48,0.00019
2391.62,0.00014
2387.76,0.00031
2383.91,0.00067
2380.05,0.00075
2376.19,-0.00018
2372.33,-0.00173
2368.48,-0.00469
2364.62,-0.00674
2360.76,-0.00719
2356.9,-0.00640
2353.05,-0.00356
2349.19,-0.00155
2345.33,-0.00342
2341.47,-0.00539
2337.62,-0.00547
2333.76,-0.00471
2329.9,-0.00337
2326.04,-0.00251
2322.19,-0.00100
2318.33,-0.00030
2314.47,0.00014
2310.61,0.00080
2306.76,0.00092
2302.9,0.00059
2299.04,0.00032
2295.18,0.00029
2291.33,0.00009
2287.47,0.00002
2283.61,0.00001
2279.75,-0.00012
2275.9,-0.00017
2272.04,-0.00031
2268.18,-0.00053
2264.32,-0.00059
2260.47,-0.00042
2256.61,-0.00042
2252.75,-0.00025
2248.89,-0.00017
2245.04,-0.00014
2241.18,-0.00033
2237.32,-0.00047
2233.46,-0.00048
2229.61,-0.00059
2225.75,-0.00066
2221.89,-0.00074
2218.04,-0.00082
2214.18,-0.00106
2210.32,-0.00127
2206.46,-0.00092
2202.61,-0.00080
2198.75,-0.00122
2194.89,-0.00160
2191.03,-0.00132
2187.18,-0.00143
2183.32,-0.00212
2179.46,-0.00185
2175.6,-0.00152
2171.75,-0.00182
2167.89,-0.00224
2164.03,-0.00257
2160.17,-0.00205
2156.32,-0.00133
2152.46,-0.00081
2148.6,-0.00049
2144.74,-0.00027
2140.89,-0.00031
2137.03,-0.00022
2133.17,-0.00035
2129.31,-0.00031
2125.46,-0.00045
2121.6,-0.00059
2117.74,-0.00068
2113.88,-0.00055
2110.03,-0.00074
2106.17,-0.00076
2102.31,-0.00059
2098.45,-0.00047
2094.6,-0.00016
2090.74,0.00005
2086.88,-0.00008
2083.02,-0.00011
2079.17,0.00004
2075.31,-0.00013
2071.45,-0.00026
2067.59,0.00046
2063.74,0.00072
2059.88,0.00015
2056.02,-0.00021
2052.16,-0.00021
2048.31,-0.00047
2044.45,-0.00009
2040.59,0.00021
2036.73,-0.00044
2032.88,-0.00017
2029.02,-0.00021
2025.16,0.00035
2021.31,-0.00002
2017.45,0.00068
2013.59,0.00008
2009.73,0.00001
2005.88,0.00053
2002.02,0.00042
1998.16,0.00006
1994.3,0.00094
1990.45,0.00144
1986.59,0.00070
1982.73,0.00004
1978.87,-0.00015
1975.02,-0.00014
1971.16,0.00033
1967.3,0.00151
1963.44,0.00071
1959.59,0.00064
1955.73,0.00096
1951.87,0.00100
1948.01,0.00133
1944.16,0.00231
1940.3,0.00143
1936.44,0.00104
1932.58,0.00111
1928.73,0.00088
1924.87,0.00210
1921.01,0.00257
1917.15,0.00172
1913.3,0.00119
1909.44,0.00217
1905.58,0.00140
1901.72,0.00119
1897.87,0.00156
1894.01,0.00202
1890.15,0.00212
1886.29,0.00169
1882.44,0.00132
1878.58,0.00121
1874.72,0.00144
1870.86,0.00338
1867.01,0.00390
1863.15,0.00199
1859.29,0.00189
1855.43,0.00148
1851.58,0.00159
1847.72,0.00357
1843.86,0.00455
1840,0.00244
1836.15,0.00235
1832.29,0.00276
1828.43,0.00360
1824.57,0.00326
1820.72,0.00211
1816.86,0.00206
1813,0.00280
1809.15,0.00320
1805.29,0.00272
1801.43,0.00432
1797.57,0.00451
1793.72,0.00546
1789.86,0.00392
1786,0.00295
1782.14,0.00372
1778.29,0.00376
1774.43,0.00474
1770.57,0.00571
1766.71,0.00382
1762.86,0.00405
1759,0.00481
1755.14,0.00469
1751.28,0.00748
1747.43,0.00935
1743.57,0.00762
1739.71,0.00707
1735.85,0.00805
1732,0.00876
1728.14,0.00529
1724.28,0.00509
1720.42,0.00640
1716.57,0.01102
1712.71,0.00688
1708.85,0.00609
1704.99,0.00843
1701.14,0.00950
1697.28,0.01030
1693.42,0.00580
1689.56,0.00683
1685.71,0.00876
1681.85,0.00870
1677.99,0.00658
1674.13,0.00715
1670.28,0.00806
1666.42,0.00559
1662.56,0.00614
1658.7,0.00583
1654.85,0.00831
1650.99,0.00930
1647.13,0.00999
1643.27,0.00679
1639.42,0.00716
1635.56,0.00815
1631.7,0.00542
1627.84,0.00596
1623.99,0.00710
1620.13,0.00657
1616.27,0.00659
1612.42,0.00514
1608.56,0.00565
1604.7,0.00526
1600.84,0.00497
1596.99,0.00498
1593.13,0.00524
1589.27,0.00470
1585.41,0.00415
1581.56,0.00429
1577.7,0.00613
1573.84,0.00574
1569.98,0.00589
1566.13,0.00578
1562.27,0.00663
1558.41,0.01090
1554.55,0.00944
1550.7,0.00803
1546.84,0.00854
1542.98,0.01519
1539.12,0.01079
1535.27,0.00995
1531.41,0.00877
1527.55,0.01042
1523.69,0.01357
1519.84,0.01315
1515.98,0.01206
1512.12,0.01210
1508.26,0.01630
1504.41,0.00965
1500.55,0.00947
1496.69,0.00923
1492.83,0.00748
1488.98,0.01022
1485.12,0.00616
1481.26,0.00553
1477.4,0.00674
1473.55,0.01059
1469.69,0.00729
1465.83,0.00768
1461.97,0.00795
1458.12,0.01209
1454.26,0.01008
1450.4,0.00814
1446.54,0.00769
1442.69,0.00640
1438.83,0.00764
1434.97,0.00929
1431.11,0.00869
1427.26,0.00820
1423.4,0.00897
1419.54,0.01066
1415.69,0.00883
1411.83,0.00760
1407.97,0.00718
1404.11,0.00748
1400.26,0.00811
1396.4,0.00999
1392.54,0.00749
1388.68,0.00794
1384.83,0.00723
1380.97,0.00699
1377.11,0.00838
1373.25,0.00906
1369.4,0.00794
1365.54,0.00793
1361.68,0.00902
1357.82,0.00716
1353.97,0.00673
1350.11,0.00640
1346.25,0.00627
1342.39,0.00763
1338.54,0.01017
1334.68,0.00734
1330.82,0.00694
1326.96,0.00697
1323.11,0.00746
1319.25,0.00892
1315.39,0.00894
1311.53,0.00807
1307.68,0.00708
1303.82,0.00653
1299.96,0.00636
1296.1,0.00638
1292.25,0.00633
1288.39,0.00679
1284.53,0.00655
1280.67,0.00677
1276.82,0.00699
1272.96,0.00796
1269.1,0.00935
1265.24,0.01101
1261.39,0.01249
1257.53,0.01171
1253.67,0.00991
1249.81,0.00910
1245.96,0.00900
1242.1,0.00905
1238.24,0.00907
1234.38,0.00905
1230.53,0.00898
1226.67,0.00893
1222.81,0.00858
1218.95,0.00823
1215.1,0.00794
1211.24,0.00769
1207.38,0.00739
1203.53,0.00715
1199.67,0.00691
1195.81,0.00652
1191.95,0.00634
1188.1,0.00640
1184.24,0.00652
1180.38,0.00667
1176.52,0.00696
1172.67,0.00748
1168.81,0.00825
1164.95,0.00924
1161.09,0.01008
1157.24,0.01040
1153.38,0.01018
1149.52,0.00994
1145.66,0.00976
1141.81,0.00971
1137.95,0.00994
1134.09,0.01057
1130.23,0.01159
1126.38,0.01266
1122.52,0.01358
1118.66,0.01442
1114.8,0.01556
1110.95,0.01649
1107.09,0.01723
1103.23,0.01771
1099.37,0.01806
1095.52,0.01832
1091.66,0.01841
1087.8,0.01836
1083.94,0.01844
1080.09,0.01880
1076.23,0.01946
1072.37,0.01993
1068.51,0.02049
1064.66,0.02155
1060.8,0.02283
1056.94,0.02388
1053.08,0.02458
1049.23,0.02492
1045.37,0.02506
1041.51,0.02515
1037.65,0.02591
1033.8,0.02712
1029.94,0.02780
1026.08,0.02804
1022.22,0.02803
1018.37,0.02762
1014.51,0.02646
1010.65,0.02494
1006.8,0.02349
1002.94,0.02213
999.08,0.02135
995.223,0.02057
991.365,0.01989
987.508,0.01907
983.65,0.01856
979.793,0.01775
975.935,0.01628
972.078,0.01539
968.221,0.01480
964.363,0.01422
960.506,0.01346
956.648,0.01260
952.791,0.01196
948.933,0.01126
945.076,0.01100
941.218,0.01082
937.361,0.01044
933.503,0.01021
929.646,0.00999
925.789,0.01001
921.931,0.00991
918.074,0.00952
914.216,0.00918
910.359,0.00938
906.501,0.00973
902.644,0.01025
898.786,0.01026
894.929,0.01028
891.072,0.01044
887.214,0.00994
883.357,0.00988
879.499,0.01022
875.642,0.00997
871.784,0.00957
867.927,0.00964
864.069,0.00960
860.212,0.01027
856.354,0.01032
852.497,0.00976
848.64,0.00968
844.782,0.00983
840.925,0.01006
837.067,0.01006
833.21,0.01018
829.352,0.01075
825.495,0.01143
821.637,0.01215
817.78,0.01290
813.922,0.01329
810.065,0.01413
806.208,0.01494
802.35,0.01582
798.493,0.01622
794.635,0.01528
790.778,0.01437
786.92,0.01245
783.063,0.01120
779.205,0.01113
775.348,0.01112
771.49,0.01069
767.633,0.01007
763.776,0.01058
759.918,0.01115
756.061,0.01039
752.203,0.01095
748.346,0.01087
744.488,0.01130
740.631,0.01170
736.773,0.01092
732.916,0.01157
729.058,0.01193
725.201,0.01244
721.344,0.01281
717.486,0.01325
713.629,0.01369
709.771,0.01391
705.914,0.01450
702.056,0.01466
698.199,0.01468
694.341,0.01494
690.484,0.01491
686.627,0.01459
682.769,0.01473
678.912,0.01505
675.054,0.01581
671.197,0.01645
667.339,0.01670
663.482,0.01799
659.624,0.01815
655.767,0.01706
651.909,0.01717
648.052,0.01733
644.195,0.01786
640.337,0.01870
636.48,0.01910
632.622,0.01894
628.765,0.01798
624.907,0.01792
621.05,0.01518
617.192,0.01445
613.335,0.01360
609.477,0.01422
605.62,0.01672
601.763,0.01932
599.834,0.02035