File: 01_Data/Polyester_Microfiber_Sheet/MCC/Polyester_Microfiber_Sheet_MCC_30K_min_211209_R2.txt
Sample ID:	C:\MCC\MCC Cal\Test\Polyester_Microfiber_Sheet_MCC_30K_min_211209_R2.txt
Sample Weight (mg):	4.76
Heating Rate (C/s):	0.5
Combustor Temp (C):	900
N2 Flow Rate (cc/min):	80
O2 Flow Rate (cc/min):	20
Calibration File:	C:\MCC\MCC Cal\Coeff1 JN10440_30_210304.txt.txt
T Correction Coefficients:	0	1.024463	0
Time Shift (s):	14
*
Time (s)	Temperature (C)	N2 flow rate (cc/min)	O2 flow rate (cc/min)	Flow Rate (cc/min)	Oxygen (%)	HRR (W/g)	Heating rate (C/s)
-0.001	107.856	80.008	19.995	103.083	19.817	-0.099	-0.042
2.000	107.867	80.008	19.996	103.068	19.818	-0.182	0.002
4.000	107.895	80.008	19.995	103.077	19.814	0.078	0.009
6.000	107.864	80.008	19.996	103.074	19.817	-0.093	0.000
8.000	107.864	80.008	19.997	103.061	19.816	-0.038	-0.021
10.000	107.864	80.009	19.996	103.075	19.817	-0.097	-0.002
12.000	107.871	80.007	19.995	103.080	19.816	-0.035	-0.004
14.000	107.864	80.009	19.996	103.084	19.815	-0.002	0.038
16.000	107.892	80.009	19.995	103.093	19.813	0.163	-0.012
18.000	107.912	80.008	19.995	103.123	19.814	0.079	-0.007
20.000	107.944	80.009	19.994	103.130	19.810	0.367	0.003
22.000	107.996	80.009	19.995	103.161	19.805	0.731	0.033
24.000	108.121	80.009	19.995	103.187	19.801	0.951	0.073
26.000	108.189	80.008	19.995	103.201	19.797	1.263	0.048
28.000	108.303	80.007	19.995	103.214	19.795	1.370	0.086
30.000	108.466	80.010	19.995	103.240	19.793	1.501	0.079
32.000	108.665	80.009	19.994	103.263	19.786	1.964	0.095
33.999	108.854	80.010	19.994	103.278	19.781	2.304	0.132
35.999	109.139	80.011	19.994	103.283	19.783	2.209	0.134
37.999	109.447	80.012	19.994	103.283	19.779	2.438	0.150
39.999	109.746	80.010	19.994	103.283	19.773	2.881	0.185
41.999	110.039	80.010	19.995	103.285	19.775	2.736	0.140
43.999	110.411	80.009	19.995	103.281	19.773	2.868	0.182
45.999	110.795	80.008	19.994	103.289	19.772	2.967	0.165
47.999	111.234	80.008	19.994	103.292	19.772	2.936	0.224
49.999	111.645	80.009	19.994	103.310	19.772	2.919	0.195
51.999	112.081	80.008	19.993	103.316	19.773	2.861	0.211
53.999	112.542	80.008	19.994	103.311	19.771	2.990	0.252
55.999	113.027	80.008	19.994	103.323	19.768	3.232	0.241
58.000	113.547	80.008	19.993	103.317	19.772	2.928	0.269
59.999	114.085	80.009	19.994	103.315	19.772	2.958	0.280
62.000	114.675	80.009	19.995	103.320	19.771	2.980	0.284
63.999	115.253	80.009	19.994	103.312	19.772	2.943	0.281
65.999	115.835	80.008	19.994	103.315	19.770	3.088	0.294
67.999	116.430	80.009	19.995	103.315	19.772	2.919	0.283
69.999	117.089	80.008	19.994	103.318	19.770	3.057	0.331
72.000	117.745	80.007	19.995	103.320	19.770	3.069	0.319
74.000	118.405	80.008	19.994	103.319	19.770	3.089	0.318
76.000	119.076	80.008	19.995	103.321	19.767	3.267	0.312
78.000	119.738	80.007	19.996	103.327	19.766	3.349	0.323
79.999	120.493	80.008	19.995	103.326	19.768	3.223	0.377
81.999	121.219	80.007	19.995	103.329	19.769	3.155	0.388
84.000	121.960	80.007	19.995	103.322	19.771	3.005	0.351
86.000	122.668	80.008	19.995	103.323	19.770	3.064	0.334
87.999	123.468	80.008	19.994	103.323	19.768	3.185	0.387
89.999	124.242	80.009	19.994	103.322	19.771	3.037	0.383
91.999	124.978	80.010	19.994	103.322	19.769	3.166	0.395
93.999	125.773	80.009	19.994	103.322	19.768	3.225	0.416
95.999	126.568	80.008	19.994	103.323	19.764	3.454	0.397
97.999	127.412	80.009	19.995	103.323	19.770	3.093	0.435
99.999	128.164	80.009	19.994	103.325	19.767	3.263	0.389
101.999	129.018	80.007	19.997	103.329	19.766	3.333	0.410
103.999	129.854	80.009	19.996	103.325	19.767	3.260	0.433
106.000	130.653	80.008	19.996	103.326	19.765	3.408	0.382
107.999	131.506	80.008	19.995	103.335	19.763	3.567	0.446
109.999	132.378	80.009	19.995	103.325	19.767	3.300	0.439
111.999	133.240	80.009	19.995	103.327	19.770	3.071	0.463
113.999	134.115	80.010	19.995	103.338	19.767	3.276	0.433
116.000	134.967	80.008	19.995	103.336	19.765	3.441	0.415
117.999	135.830	80.010	19.993	103.336	19.767	3.249	0.400
119.999	136.766	80.011	19.994	103.330	19.763	3.524	0.438
122.000	137.664	80.010	19.993	103.333	19.762	3.604	0.471
123.999	138.597	80.010	19.994	103.331	19.764	3.489	0.465
125.999	139.558	80.009	19.994	103.334	19.768	3.196	0.467
128.000	140.462	80.009	19.994	103.329	19.771	3.037	0.451
130.000	141.395	80.010	19.994	103.333	19.770	3.070	0.451
132.000	142.337	80.008	19.996	103.338	19.764	3.518	0.480
134.000	143.282	80.008	19.995	103.333	19.766	3.371	0.452
136.000	144.250	80.008	19.995	103.332	19.767	3.258	0.443
138.000	145.238	80.007	19.995	103.336	19.767	3.261	0.497
140.000	146.202	80.008	19.996	103.332	19.767	3.271	0.513
142.000	147.209	80.010	19.995	103.330	19.769	3.150	0.499
144.000	148.127	80.009	19.994	103.325	19.771	3.013	0.458
146.000	149.114	80.008	19.995	103.328	19.770	3.066	0.484
148.000	150.146	80.010	19.994	103.328	19.770	3.057	0.535
150.000	151.145	80.011	19.994	103.329	19.772	2.951	0.515
152.000	152.099	80.010	19.994	103.334	19.775	2.720	0.491
154.000	153.058	80.009	19.994	103.326	19.773	2.898	0.497
156.000	154.089	80.009	19.995	103.324	19.772	2.949	0.494
158.000	155.092	80.008	19.994	103.326	19.769	3.133	0.486
160.000	156.089	80.009	19.995	103.325	19.770	3.106	0.489
162.000	157.082	80.009	19.995	103.325	19.768	3.185	0.504
164.000	158.103	80.008	19.994	103.326	19.768	3.210	0.502
166.000	159.125	80.007	19.995	103.328	19.770	3.078	0.499
168.000	160.095	80.007	19.995	103.326	19.771	3.007	0.474
170.000	161.086	80.009	19.995	103.325	19.776	2.639	0.488
172.000	162.079	80.008	19.994	103.323	19.770	3.055	0.508
174.000	163.051	80.009	19.995	103.321	19.770	3.108	0.494
176.000	164.081	80.009	19.995	103.322	19.768	3.206	0.513
178.000	165.104	80.010	19.994	103.321	19.767	3.294	0.530
180.000	166.103	80.009	19.994	103.323	19.772	2.957	0.497
182.000	167.112	80.008	19.994	103.319	19.771	3.025	0.513
184.000	168.207	80.009	19.994	103.321	19.770	3.076	0.514
186.000	169.183	80.008	19.995	103.321	19.772	2.976	0.476
188.000	170.173	80.009	19.994	103.315	19.772	2.957	0.501
190.000	171.130	80.010	19.995	103.305	19.772	2.948	0.510
192.000	172.137	80.010	19.996	103.300	19.775	2.759	0.520
194.000	173.135	80.008	19.996	103.307	19.772	2.935	0.503
196.000	174.148	80.010	19.996	103.301	19.770	3.065	0.506
198.000	175.120	80.010	19.996	103.301	19.776	2.660	0.463
200.000	176.123	80.009	19.995	103.289	19.775	2.750	0.525
202.000	177.148	80.011	19.996	103.297	19.773	2.843	0.513
204.000	178.152	80.012	19.995	103.287	19.772	2.940	0.512
206.000	179.121	80.009	19.995	103.294	19.775	2.723	0.489
208.000	180.118	80.009	19.995	103.287	19.774	2.801	0.510
210.000	181.107	80.008	19.993	103.284	19.775	2.757	0.487
212.000	182.131	80.010	19.994	103.285	19.776	2.695	0.493
214.000	183.102	80.010	19.994	103.286	19.780	2.397	0.478
216.000	184.120	80.008	19.994	103.294	19.777	2.613	0.488
218.000	185.081	80.009	19.995	103.281	19.777	2.633	0.468
220.000	186.113	80.009	19.994	103.284	19.778	2.551	0.490
222.000	187.106	80.009	19.994	103.284	19.775	2.726	0.496
224.000	188.125	80.010	19.994	103.283	19.777	2.602	0.511
226.000	189.111	80.009	19.994	103.283	19.780	2.406	0.524
228.000	190.078	80.009	19.995	103.284	19.778	2.560	0.491
230.000	191.066	80.008	19.995	103.288	19.779	2.476	0.477
232.000	192.051	80.009	19.994	103.289	19.775	2.735	0.486
234.000	193.039	80.008	19.994	103.282	19.780	2.428	0.481
236.000	194.058	80.009	19.995	103.285	19.777	2.591	0.516
238.000	195.023	80.010	19.994	103.284	19.780	2.405	0.478
240.000	196.001	80.008	19.995	103.285	19.781	2.357	0.486
242.000	197.006	80.008	19.994	103.286	19.779	2.443	0.512
244.000	197.989	80.007	19.993	103.285	19.780	2.394	0.485
246.000	198.940	80.007	19.993	103.287	19.777	2.618	0.487
248.000	199.985	80.008	19.995	103.286	19.780	2.424	0.527
250.000	200.919	80.009	19.994	103.287	19.776	2.644	0.464
252.000	201.923	80.009	19.995	103.280	19.781	2.355	0.463
254.000	202.906	80.009	19.993	103.284	19.775	2.722	0.480
256.000	203.889	80.011	19.994	103.287	19.776	2.675	0.487
258.000	204.894	80.010	19.994	103.282	19.778	2.530	0.488
260.000	205.857	80.011	19.995	103.280	19.777	2.576	0.487
262.000	206.857	80.011	19.994	103.281	19.776	2.656	0.512
264.000	207.836	80.009	19.995	103.273	19.778	2.510	0.488
266.000	208.853	80.010	19.995	103.281	19.778	2.550	0.496
268.000	209.806	80.009	19.995	103.273	19.776	2.684	0.484
270.000	210.782	80.010	19.995	103.274	19.776	2.668	0.494
272.000	211.784	80.010	19.995	103.275	19.775	2.706	0.505
274.000	212.737	80.010	19.994	103.275	19.777	2.600	0.506
276.000	213.737	80.009	19.994	103.277	19.778	2.504	0.476
278.000	214.774	80.010	19.994	103.268	19.776	2.640	0.502
280.000	215.713	80.010	19.994	103.276	19.778	2.552	0.481
282.000	216.728	80.010	19.994	103.273	19.778	2.506	0.508
284.000	217.700	80.012	19.994	103.260	19.779	2.482	0.489
286.000	218.695	80.012	19.994	103.255	19.781	2.307	0.497
288.000	219.655	80.011	19.995	103.253	19.778	2.504	0.467
290.000	220.638	80.010	19.996	103.254	19.781	2.335	0.460
292.000	221.654	80.008	19.995	103.265	19.780	2.369	0.495
294.000	222.679	80.007	19.996	103.253	19.780	2.397	0.529
296.000	223.632	80.007	19.996	103.265	19.780	2.395	0.513
298.000	224.650	80.007	19.996	103.259	19.781	2.362	0.501
300.000	225.671	80.008	19.995	103.265	19.784	2.159	0.497
302.000	226.649	80.008	19.995	103.263	19.782	2.258	0.483
304.000	227.670	80.007	19.994	103.269	19.781	2.343	0.494
306.000	228.673	80.008	19.994	103.257	19.783	2.225	0.499
308.000	229.680	80.008	19.995	103.250	19.778	2.506	0.496
310.000	230.715	80.008	19.995	103.252	19.781	2.332	0.531
312.000	231.697	80.008	19.994	103.263	19.781	2.356	0.495
314.000	232.730	80.008	19.994	103.255	19.781	2.360	0.509
316.000	233.707	80.007	19.994	103.250	19.783	2.182	0.520
318.000	234.741	80.009	19.995	103.255	19.783	2.224	0.506
320.000	235.692	80.009	19.994	103.247	19.782	2.259	0.505
322.000	236.683	80.009	19.996	103.254	19.783	2.194	0.481
324.000	237.741	80.008	19.996	103.249	19.785	2.060	0.506
326.000	238.737	80.008	19.996	103.247	19.786	1.996	0.506
328.000	239.713	80.008	19.994	103.248	19.783	2.199	0.483
330.000	240.756	80.008	19.995	103.246	19.789	1.775	0.512
332.000	241.732	80.009	19.994	103.254	19.788	1.888	0.491
334.000	242.725	80.009	19.994	103.248	19.788	1.859	0.498
336.000	243.743	80.009	19.994	103.242	19.788	1.824	0.488
338.000	244.754	80.011	19.993	103.245	19.793	1.491	0.522
340.000	245.693	80.011	19.994	103.244	19.795	1.396	0.472
342.000	246.736	80.010	19.993	103.244	19.792	1.596	0.507
344.000	247.707	80.010	19.993	103.243	19.792	1.594	0.501
346.000	248.727	80.010	19.994	103.244	19.792	1.566	0.499
348.000	249.735	80.011	19.993	103.243	19.791	1.658	0.501
350.000	250.739	80.010	19.995	103.243	19.794	1.437	0.514
352.000	251.740	80.009	19.995	103.241	19.793	1.517	0.545
354.000	252.730	80.010	19.995	103.242	19.792	1.559	0.471
356.000	253.705	80.010	19.995	103.242	19.791	1.627	0.492
358.000	254.702	80.009	19.995	103.244	19.794	1.444	0.503
360.000	255.682	80.010	19.995	103.245	19.796	1.303	0.498
362.000	256.653	80.009	19.995	103.243	19.796	1.314	0.465
364.000	257.645	80.010	19.995	103.244	19.792	1.579	0.498
366.000	258.624	80.011	19.995	103.245	19.794	1.440	0.501
368.000	259.667	80.010	19.995	103.242	19.794	1.444	0.530
370.000	260.576	80.010	19.994	103.242	19.794	1.477	0.485
372.000	261.607	80.011	19.993	103.231	19.792	1.619	0.496
374.000	262.576	80.010	19.995	103.233	19.794	1.451	0.500
376.000	263.581	80.007	19.996	103.243	19.791	1.687	0.503
378.000	264.485	80.008	19.994	103.242	19.790	1.753	0.462
380.000	265.491	80.008	19.994	103.240	19.796	1.307	0.496
382.000	266.490	80.008	19.996	103.243	19.793	1.507	0.506
384.000	267.486	80.007	19.995	103.246	19.791	1.632	0.505
386.000	268.458	80.008	19.995	103.229	19.792	1.590	0.476
388.000	269.441	80.007	19.995	103.232	19.791	1.668	0.507
390.000	270.455	80.008	19.996	103.240	19.792	1.610	0.491
392.000	271.478	80.008	19.995	103.217	19.794	1.471	0.524
394.000	272.492	80.006	19.995	103.217	19.798	1.195	0.494
396.000	273.460	80.009	19.996	103.217	19.796	1.347	0.453
398.000	274.471	80.008	19.996	103.209	19.795	1.381	0.508
400.000	275.452	80.008	19.995	103.212	19.797	1.239	0.493
402.000	276.378	80.008	19.993	103.229	19.795	1.403	0.458
404.000	277.431	80.008	19.994	103.228	19.794	1.451	0.504
406.000	278.429	80.008	19.994	103.221	19.792	1.583	0.474
408.000	279.446	80.009	19.994	103.216	19.797	1.228	0.497
410.000	280.448	80.008	19.995	103.227	19.795	1.389	0.492
412.000	281.413	80.008	19.994	103.231	19.796	1.292	0.475
414.000	282.411	80.007	19.994	103.223	19.796	1.347	0.496
416.000	283.422	80.009	19.995	103.231	19.794	1.436	0.495
418.000	284.401	80.008	19.995	103.222	19.794	1.449	0.487
420.000	285.438	80.008	19.995	103.217	19.795	1.400	0.501
422.000	286.435	80.010	19.994	103.222	19.796	1.308	0.494
424.000	287.445	80.010	19.994	103.224	19.795	1.394	0.493
426.000	288.445	80.009	19.993	103.221	19.798	1.210	0.461
428.000	289.440	80.010	19.993	103.225	19.796	1.290	0.529
430.000	290.475	80.009	19.993	103.234	19.798	1.184	0.528
432.000	291.447	80.009	19.993	103.219	19.799	1.089	0.525
434.000	292.504	80.009	19.994	103.228	19.799	1.095	0.505
436.000	293.488	80.010	19.994	103.227	19.802	0.884	0.532
438.000	294.548	80.008	19.993	103.227	19.798	1.212	0.551
440.000	295.482	80.010	19.994	103.215	19.798	1.157	0.475
442.000	296.517	80.010	19.993	103.217	19.799	1.104	0.517
444.000	297.510	80.009	19.994	103.217	19.797	1.255	0.510
446.000	298.427	80.010	19.993	103.222	19.798	1.168	0.440
448.000	299.512	80.010	19.993	103.228	19.798	1.193	0.499
450.000	300.510	80.011	19.994	103.211	19.797	1.253	0.497
452.000	301.500	80.010	19.995	103.218	19.798	1.195	0.497
454.000	302.485	80.009	19.995	103.209	19.799	1.107	0.504
456.000	303.486	80.008	19.994	103.208	19.799	1.138	0.469
458.000	304.499	80.008	19.995	103.214	19.796	1.330	0.512
460.000	305.460	80.008	19.994	103.206	19.801	0.968	0.495
462.000	306.491	80.009	19.995	103.208	19.796	1.334	0.477
464.000	307.494	80.009	19.994	103.210	19.798	1.180	0.482
466.000	308.498	80.008	19.994	103.207	19.799	1.107	0.495
468.000	309.533	80.010	19.994	103.209	19.800	1.065	0.509
470.000	310.539	80.009	19.994	103.206	19.800	1.040	0.527
472.000	311.514	80.008	19.994	103.206	19.799	1.082	0.519
474.000	312.586	80.008	19.995	103.208	19.801	0.956	0.548
476.000	313.572	80.009	19.995	103.206	19.802	0.899	0.505
478.000	314.571	80.008	19.995	103.207	19.802	0.937	0.495
480.000	315.591	80.008	19.996	103.204	19.801	0.952	0.509
482.000	316.623	80.008	19.995	103.204	19.804	0.756	0.501
484.000	317.627	80.007	19.994	103.204	19.805	0.680	0.472
486.000	318.637	80.008	19.996	103.202	19.805	0.683	0.478
488.000	319.674	80.007	19.995	103.205	19.809	0.451	0.511
490.000	320.683	80.007	19.995	103.209	19.807	0.583	0.524
492.000	321.653	80.008	19.996	103.206	19.806	0.669	0.479
494.000	322.683	80.007	19.994	103.207	19.807	0.605	0.522
496.000	323.700	80.008	19.995	103.210	19.807	0.544	0.493
498.000	324.702	80.008	19.995	103.215	19.806	0.634	0.498
500.000	325.721	80.008	19.995	103.210	19.806	0.641	0.506
502.000	326.747	80.009	19.995	103.209	19.805	0.700	0.511
504.000	327.737	80.009	19.995	103.208	19.804	0.786	0.500
506.000	328.754	80.010	19.995	103.204	19.803	0.822	0.503
508.000	329.756	80.009	19.994	103.207	19.804	0.766	0.474
510.000	330.811	80.011	19.995	103.208	19.802	0.943	0.515
512.000	331.777	80.010	19.994	103.209	19.801	0.961	0.490
514.000	332.823	80.009	19.994	103.201	19.803	0.857	0.547
516.000	333.851	80.009	19.994	103.202	19.804	0.773	0.509
518.000	334.866	80.009	19.994	103.208	19.802	0.939	0.539
520.000	335.833	80.010	19.995	103.207	19.806	0.632	0.492
522.000	336.863	80.011	19.993	103.205	19.806	0.665	0.509
524.000	337.867	80.010	19.994	103.207	19.806	0.669	0.501
526.000	338.841	80.010	19.993	103.204	19.805	0.685	0.508
528.000	339.844	80.012	19.994	103.205	19.805	0.687	0.488
530.000	340.872	80.012	19.994	103.203	19.807	0.559	0.510
532.000	341.888	80.012	19.993	103.203	19.808	0.526	0.502
534.000	342.877	80.011	19.994	103.204	19.805	0.703	0.482
536.000	343.879	80.011	19.994	103.204	19.808	0.495	0.478
538.000	344.886	80.010	19.994	103.202	19.806	0.661	0.507
540.000	345.912	80.009	19.995	103.199	19.807	0.588	0.507
542.000	346.962	80.008	19.995	103.205	19.807	0.583	0.532
544.000	347.967	80.008	19.995	103.203	19.803	0.813	0.510
546.000	348.980	80.009	19.995	103.203	19.802	0.884	0.515
548.000	350.001	80.008	19.994	103.203	19.800	1.067	0.491
550.000	351.031	80.007	19.995	103.203	19.800	1.056	0.483
552.000	352.023	80.008	19.994	103.200	19.800	1.034	0.505
554.000	353.101	80.008	19.995	103.204	19.798	1.177	0.550
556.000	354.129	80.006	19.994	103.207	19.800	1.025	0.489
558.000	355.152	80.007	19.994	103.203	19.800	1.056	0.512
560.000	356.104	80.009	19.995	103.204	19.800	1.072	0.472
562.000	357.138	80.007	19.994	103.205	19.802	0.910	0.521
564.000	358.152	80.009	19.994	103.204	19.800	1.041	0.537
566.000	359.186	80.008	19.994	103.204	19.798	1.149	0.496
568.000	360.214	80.007	19.994	103.208	19.797	1.279	0.531
570.000	361.224	80.008	19.995	103.207	19.797	1.250	0.498
572.000	362.233	80.008	19.995	103.203	19.791	1.685	0.515
574.000	363.300	80.006	19.996	103.206	19.790	1.750	0.527
576.000	364.312	80.007	19.994	103.206	19.784	2.114	0.505
578.000	365.320	80.006	19.995	103.202	19.783	2.189	0.493
580.000	366.368	80.008	19.994	103.208	19.778	2.540	0.534
582.000	367.397	80.009	19.996	103.201	19.774	2.836	0.513
584.000	368.409	80.009	19.995	103.207	19.769	3.135	0.513
586.000	369.433	80.008	19.994	103.206	19.766	3.336	0.522
588.000	370.454	80.010	19.995	103.207	19.763	3.537	0.522
590.000	371.459	80.009	19.995	103.206	19.760	3.771	0.520
592.000	372.490	80.009	19.994	103.205	19.752	4.285	0.518
594.000	373.460	80.009	19.994	103.206	19.748	4.561	0.516
596.000	374.494	80.009	19.994	103.208	19.742	4.972	0.479
598.000	375.543	80.009	19.994	103.205	19.732	5.622	0.511
600.000	376.561	80.008	19.993	103.207	19.728	5.951	0.528
602.000	377.600	80.008	19.994	103.205	19.723	6.261	0.509
604.000	378.645	80.009	19.994	103.215	19.717	6.648	0.501
606.000	379.689	80.009	19.994	103.215	19.714	6.894	0.516
608.000	380.728	80.010	19.994	103.228	19.708	7.278	0.532
610.000	381.726	80.010	19.993	103.234	19.698	7.918	0.487
612.000	382.738	80.010	19.994	103.232	19.693	8.275	0.488
614.000	383.789	80.010	19.993	103.237	19.681	9.080	0.523
616.000	384.835	80.009	19.995	103.233	19.675	9.518	0.534
618.000	385.843	80.009	19.993	103.241	19.666	10.115	0.475
620.000	386.869	80.008	19.993	103.243	19.653	11.000	0.544
622.000	387.903	80.008	19.994	103.245	19.643	11.665	0.512
624.000	388.912	80.008	19.994	103.256	19.627	12.748	0.475
626.000	389.953	80.009	19.994	103.266	19.615	13.559	0.527
628.000	390.981	80.008	19.993	103.269	19.601	14.553	0.526
630.000	391.986	80.008	19.994	103.258	19.583	15.764	0.527
632.000	393.010	80.008	19.995	103.277	19.575	16.251	0.510
634.000	394.061	80.007	19.994	103.286	19.557	17.514	0.544
636.000	395.123	80.007	19.993	103.287	19.544	18.400	0.549
638.000	396.169	80.008	19.995	103.292	19.523	19.822	0.524
640.000	397.213	80.007	19.995	103.297	19.514	20.394	0.532
642.000	398.211	80.007	19.995	103.289	19.496	21.609	0.520
644.000	399.235	80.007	19.994	103.300	19.479	22.783	0.522
646.000	400.250	80.007	19.995	103.322	19.462	23.975	0.498
648.000	401.272	80.008	19.995	103.328	19.435	25.792	0.525
650.000	402.283	80.006	19.996	103.341	19.408	27.572	0.508
652.000	403.273	80.006	19.995	103.347	19.376	29.768	0.490
654.000	404.311	80.007	19.995	103.353	19.349	31.608	0.507
656.000	405.324	80.006	19.995	103.345	19.321	33.506	0.513
658.000	406.397	80.006	19.995	103.345	19.299	35.045	0.525
660.000	407.418	80.006	19.995	103.350	19.273	36.813	0.503
662.000	408.427	80.007	19.996	103.367	19.249	38.436	0.486
664.000	409.457	80.008	19.996	103.391	19.220	40.407	0.507
666.000	410.475	80.009	19.994	103.417	19.187	42.661	0.466
668.000	411.498	80.008	19.996	103.435	19.148	45.272	0.494
670.000	412.512	80.009	19.996	103.457	19.108	48.011	0.475
672.000	413.576	80.008	19.995	103.472	19.060	51.271	0.540
674.000	414.603	80.007	19.995	103.487	19.006	54.954	0.503
676.000	415.549	80.008	19.996	103.495	18.962	57.941	0.513
678.000	416.597	80.008	19.996	103.508	18.913	61.268	0.487
680.000	417.604	80.009	19.995	103.516	18.860	64.906	0.515
682.000	418.637	80.008	19.995	103.532	18.787	69.868	0.497
684.000	419.620	80.009	19.994	103.601	18.721	74.472	0.498
686.000	420.655	80.010	19.994	103.606	18.661	78.613	0.516
688.000	421.667	80.009	19.994	103.606	18.602	82.604	0.519
690.000	422.656	80.011	19.994	103.607	18.550	86.051	0.473
692.000	423.687	80.011	19.994	103.638	18.488	90.153	0.472
694.000	424.707	80.010	19.994	103.725	18.369	98.284	0.494
696.000	425.684	80.010	19.993	103.855	18.204	109.789	0.538
698.000	426.700	80.009	19.994	103.923	18.088	117.793	0.505
700.000	427.712	80.008	19.995	103.806	18.015	122.710	0.494
702.000	428.665	80.007	19.994	103.653	17.968	125.840	0.496
704.000	429.655	80.008	19.995	103.578	17.922	128.929	0.506
706.000	430.681	80.006	19.994	103.818	17.853	133.743	0.508
708.000	431.750	80.006	19.994	104.042	17.784	138.544	0.560
710.000	432.715	80.008	19.994	104.018	17.737	141.731	0.518
712.000	433.781	80.008	19.993	103.938	17.707	143.816	0.530
714.000	434.730	80.009	19.994	103.869	17.675	145.975	0.548
716.000	435.806	80.008	19.994	103.919	17.642	148.214	0.440
718.000	436.877	80.008	19.994	104.011	17.598	151.236	0.555
720.000	437.874	80.008	19.995	104.050	17.545	154.862	0.527
722.000	438.838	80.008	19.993	104.053	17.509	157.337	0.485
724.000	439.874	80.007	19.993	104.034	17.460	160.653	0.474
726.000	440.823	80.008	19.995	104.027	17.424	163.112	0.540
728.000	441.887	80.007	19.994	104.058	17.387	165.657	0.411
730.000	443.153	80.008	19.995	104.065	17.353	167.951	0.640
732.000	443.861	80.005	19.995	104.070	17.335	169.174	0.409
734.000	444.616	80.007	19.994	104.067	17.314	170.599	0.499
736.000	445.857	80.007	19.994	104.077	17.308	171.018	0.768
738.000	446.629	80.006	19.995	104.076	17.312	170.667	0.413
740.000	448.055	80.008	19.995	104.085	17.326	169.666	0.380
742.000	449.054	80.007	19.995	104.066	17.352	167.861	0.559
744.000	449.992	80.009	19.995	104.061	17.396	164.819	0.463
746.000	451.151	80.009	19.995	104.043	17.448	161.275	0.509
748.000	452.105	80.008	19.994	104.031	17.509	157.005	0.574
750.000	453.015	80.007	19.994	104.005	17.584	151.865	0.536
752.000	454.081	80.009	19.994	103.986	17.675	145.630	0.536
754.000	455.035	80.007	19.994	103.954	17.773	138.901	0.492
756.000	456.076	80.007	19.994	103.930	17.877	131.768	0.487
758.000	457.055	80.007	19.996	103.889	17.989	124.105	0.471
760.000	458.030	80.010	19.995	103.850	18.108	115.971	0.487
762.000	459.089	80.005	19.995	103.806	18.225	107.999	0.467
764.000	460.120	80.006	19.996	103.776	18.353	99.304	0.510
766.000	461.122	80.008	19.996	103.738	18.484	90.374	0.501
768.000	462.129	80.008	19.994	103.703	18.616	81.421	0.519
770.000	463.166	80.008	19.995	103.659	18.738	73.088	0.484
772.000	464.175	80.009	19.995	103.629	18.854	65.172	0.503
774.000	465.153	80.009	19.994	103.605	18.958	58.102	0.475
776.000	466.212	80.011	19.993	103.576	19.052	51.746	0.477
778.000	467.189	80.010	19.994	103.539	19.138	45.933	0.493
780.000	468.180	80.009	19.995	103.508	19.212	40.904	0.487
782.000	469.249	80.009	19.995	103.478	19.279	36.313	0.499
784.000	470.256	80.007	19.994	103.443	19.331	32.801	0.512
786.000	471.338	80.008	19.994	103.408	19.383	29.254	0.537
788.000	472.350	80.008	19.994	103.392	19.426	26.399	0.518
790.000	473.379	80.006	19.994	103.362	19.466	23.639	0.502
792.000	474.417	80.008	19.994	103.352	19.506	20.942	0.542
794.000	475.499	80.007	19.995	103.341	19.537	18.859	0.517
796.000	476.488	80.008	19.995	103.331	19.567	16.846	0.523
798.000	477.516	80.009	19.995	103.321	19.592	15.128	0.498
800.000	478.545	80.008	19.994	103.314	19.616	13.470	0.471
802.000	479.546	80.008	19.994	103.295	19.639	11.949	0.495
804.000	480.558	80.008	19.994	103.295	19.657	10.729	0.485
806.000	481.587	80.008	19.994	103.283	19.678	9.306	0.508
808.000	482.619	80.008	19.995	103.281	19.692	8.379	0.510
810.000	483.635	80.007	19.994	103.277	19.703	7.596	0.482
812.000	484.636	80.007	19.993	103.256	19.716	6.737	0.499
814.000	485.651	80.007	19.994	103.249	19.728	5.928	0.529
816.000	486.690	80.006	19.993	103.249	19.735	5.435	0.544
818.000	487.658	80.007	19.994	103.249	19.745	4.783	0.465
820.000	488.686	80.007	19.994	103.247	19.751	4.349	0.482
822.000	489.659	80.006	19.994	103.246	19.761	3.715	0.512
824.000	490.718	80.007	19.994	103.236	19.765	3.420	0.520
826.000	491.770	80.008	19.993	103.222	19.775	2.732	0.508
828.000	492.741	80.008	19.994	103.225	19.778	2.505	0.478
830.000	493.810	80.008	19.995	103.224	19.780	2.375	0.506
832.000	494.828	80.008	19.995	103.220	19.788	1.844	0.534
834.000	495.830	80.009	19.994	103.216	19.789	1.756	0.498
836.000	496.845	80.009	19.994	103.207	19.792	1.606	0.507
838.000	497.841	80.008	19.995	103.208	19.799	1.096	0.518
840.000	498.829	80.008	19.995	103.205	19.804	0.802	0.461
842.000	499.840	80.009	19.994	103.210	19.808	0.530	0.504
844.000	500.850	80.008	19.994	103.208	19.808	0.480	0.498
846.000	501.880	80.009	19.996	103.206	19.810	0.354	0.498
848.000	502.848	80.008	19.995	103.196	19.814	0.113	0.505
850.000	503.884	80.009	19.995	103.191	19.816	-0.007	0.529
852.000	504.930	80.009	19.995	103.195	19.814	0.090	0.512
854.000	505.965	80.009	19.994	103.192	19.812	0.219	0.501
856.000	506.999	80.009	19.996	103.198	19.815	0.013	0.486
858.000	508.017	80.009	19.995	103.192	19.815	0.026	0.480
860.000	509.099	80.008	19.994	103.193	19.818	-0.164	0.551
862.000	510.111	80.007	19.996	103.192	19.816	-0.057	0.501
864.000	511.124	80.008	19.995	103.196	19.820	-0.287	0.506
866.000	512.096	80.008	19.995	103.190	19.818	-0.183	0.502
868.000	513.116	80.009	19.994	103.183	19.819	-0.267	0.527
870.000	514.156	80.009	19.995	103.177	19.821	-0.380	0.539
872.000	515.198	80.007	19.994	103.175	19.823	-0.482	0.517
874.000	516.252	80.007	19.994	103.176	19.823	-0.517	0.538
876.000	517.277	80.007	19.993	103.172	19.823	-0.511	0.515
878.000	518.324	80.008	19.995	103.171	19.826	-0.736	0.524
880.000	519.385	80.006	19.994	103.169	19.826	-0.720	0.548
882.000	520.417	80.006	19.994	103.179	19.828	-0.868	0.501
884.000	521.430	80.007	19.995	103.171	19.829	-0.891	0.485
886.000	522.470	80.009	19.994	103.167	19.834	-1.247	0.532
888.000	523.544	80.007	19.994	103.168	19.834	-1.242	0.534
890.000	524.572	80.007	19.995	103.169	19.831	-1.025	0.518
892.000	525.622	80.008	19.994	103.165	19.829	-0.889	0.510
894.000	526.648	80.007	19.994	103.170	19.831	-1.036	0.503
896.000	527.683	80.006	19.994	103.170	19.829	-0.917	0.526
898.000	528.760	80.006	19.995	103.171	19.834	-1.246	0.543
900.000	529.791	80.008	19.993	103.169	19.835	-1.295	0.522
902.000	530.803	80.007	19.994	103.168	19.833	-1.165	0.476
904.000	531.850	80.007	19.995	103.173	19.828	-0.862	0.510
906.000	532.884	80.008	19.994	103.172	19.830	-0.973	0.525
908.000	533.924	80.008	19.995	103.161	19.834	-1.229	0.540
910.000	534.964	80.009	19.994	103.169	19.831	-1.076	0.531
912.000	536.007	80.010	19.995	103.168	19.835	-1.306	0.497
914.000	537.016	80.009	19.994	103.166	19.832	-1.101	0.471
916.000	538.070	80.009	19.996	103.162	19.830	-0.968	0.498
918.000	539.090	80.007	19.994	103.168	19.834	-1.257	0.515
920.000	540.143	80.008	19.995	103.168	19.832	-1.087	0.536
922.000	541.181	80.007	19.996	103.163	19.834	-1.229	0.539
924.000	542.224	80.008	19.995	103.166	19.831	-1.068	0.535
926.000	543.276	80.007	19.995	103.166	19.835	-1.342	0.524
928.000	544.304	80.010	19.996	103.166	19.836	-1.399	0.497
930.000	545.345	80.008	19.994	103.161	19.833	-1.193	0.532
932.000	546.353	80.010	19.994	103.160	19.837	-1.479	0.502
934.000	547.439	80.009	19.995	103.159	19.835	-1.320	0.527
936.000	548.492	80.010	19.994	103.162	19.832	-1.127	0.522
938.000	549.520	80.009	19.993	103.161	19.832	-1.131	0.515
940.000	550.534	80.010	19.994	103.164	19.833	-1.187	0.533
942.000	551.553	80.010	19.995	103.162	19.836	-1.419	0.503
944.000	552.589	80.006	19.994	103.154	19.833	-1.216	0.520
946.000	553.645	80.006	19.996	103.161	19.833	-1.198	0.533
948.000	554.630	80.008	19.994	103.166	19.834	-1.266	0.507
950.000	555.673	80.006	19.995	103.164	19.835	-1.315	0.499
952.000	556.721	80.005	19.995	103.156	19.829	-0.899	0.529
954.000	557.735	80.007	19.995	103.164	19.831	-1.085	0.530
956.000	558.779	80.008	19.995	103.156	19.833	-1.167	0.531
958.000	559.825	80.007	19.994	103.164	19.833	-1.193	0.497
960.000	560.817	80.007	19.993	103.161	19.833	-1.182	0.491
962.000	561.844	80.006	19.995	103.167	19.840	-1.640	0.520
964.000	562.822	80.006	19.994	103.165	19.838	-1.528	0.481
966.000	563.844	80.008	19.993	103.164	19.837	-1.428	0.464
968.000	564.866	80.007	19.994	103.158	19.833	-1.216	0.531
970.000	565.895	80.007	19.994	103.168	19.830	-0.983	0.517
972.000	566.878	80.009	19.995	103.166	19.835	-1.337	0.512
974.000	567.948	80.007	19.994	103.154	19.839	-1.602	0.497
976.000	568.962	80.006	19.996	103.157	19.836	-1.360	0.522
978.000	569.953	80.008	19.996	103.167	19.839	-1.565	0.517
980.000	570.971	80.006	19.995	103.165	19.838	-1.508	0.488
982.000	571.996	80.007	19.995	103.160	19.835	-1.348	0.519
984.000	573.033	80.007	19.994	103.160	19.837	-1.431	0.525
986.000	574.110	80.006	19.995	103.151	19.836	-1.413	0.518
988.000	575.134	80.007	19.994	103.153	19.836	-1.375	0.497
990.000	576.173	80.007	19.996	103.158	19.836	-1.423	0.499
992.000	577.235	80.010	19.995	103.155	19.835	-1.342	0.536
994.000	578.275	80.009	19.994	103.145	19.835	-1.319	0.524
996.000	579.294	80.007	19.994	103.143	19.830	-0.972	0.530
998.000	580.306	80.010	19.995	103.150	19.837	-1.434	0.502
1000.000	581.343	80.010	19.994	103.154	19.834	-1.284	0.519
1002.000	582.374	80.009	19.994	103.163	19.837	-1.446	0.499
1004.000	583.396	80.007	19.995	103.161	19.833	-1.214	0.503
1006.000	584.408	80.009	19.994	103.150	19.838	-1.539	0.482
1008.000	585.414	80.008	19.996	103.156	19.831	-1.079	0.497
1010.000	586.475	80.008	19.994	103.161	19.831	-1.026	0.531
1012.000	587.503	80.006	19.995	103.160	19.832	-1.088	0.528
1014.000	588.535	80.012	19.995	103.159	19.829	-0.899	0.513
1016.000	589.586	80.010	19.995	103.148	19.829	-0.922	0.522
1018.000	590.595	80.009	19.995	103.156	19.832	-1.141	0.518
1020.000	591.615	80.010	19.995	103.153	19.829	-0.924	0.491
1022.000	592.616	80.007	19.995	103.158	19.832	-1.138	0.491
1024.000	593.675	80.007	19.995	103.149	19.830	-1.004	0.532
1025.999	594.737	80.007	19.995	103.159	19.832	-1.132	0.531
1027.999	595.755	80.006	19.994	103.150	19.831	-1.074	0.504
1030.000	596.776	80.007	19.995	103.162	19.835	-1.333	0.515
1031.999	597.793	80.005	19.994	103.158	19.831	-1.061	0.525
1034.000	598.803	80.007	19.995	103.155	19.834	-1.224	0.495
1035.999	599.856	80.006	19.997	103.153	19.826	-0.719	0.533
1038.000	600.886	80.006	19.996	103.154	19.831	-1.048	0.506
1039.999	601.920	80.006	19.996	103.152	19.834	-1.225	0.524
1042.000	602.975	80.006	19.996	103.150	19.834	-1.273	0.516
1043.999	603.985	80.009	19.996	103.154	19.832	-1.114	0.506
1045.999	605.020	80.006	19.996	103.154	19.833	-1.211	0.523
1047.999	606.001	80.006	19.995	103.148	19.836	-1.395	0.474
1049.999	607.056	80.009	19.995	103.154	19.834	-1.262	0.531
1051.999	608.043	80.007	19.994	103.142	19.834	-1.245	0.493
1054.000	609.126	80.008	19.994	103.153	19.833	-1.172	0.519
1055.999	610.143	80.008	19.995	103.152	19.835	-1.324	0.487
1058.000	611.169	80.009	19.993	103.143	19.833	-1.201	0.532
1059.999	612.165	80.007	19.996	103.132	19.836	-1.360	0.507
1061.999	613.249	80.007	19.996	103.141	19.834	-1.233	0.519
1063.999	614.274	80.007	19.994	103.140	19.833	-1.163	0.512
1066.000	615.252	80.008	19.994	103.129	19.834	-1.260	0.505
1067.999	616.271	80.006	19.993	103.129	19.835	-1.305	0.467
1069.999	617.302	80.009	19.994	103.135	19.837	-1.468	0.515
1072.000	618.279	80.009	19.994	103.151	19.838	-1.547	0.456
1073.999	619.327	80.009	19.994	103.139	19.834	-1.262	0.501
1075.999	620.311	80.008	19.994	103.145	19.837	-1.439	0.539
1077.999	621.346	80.008	19.994	103.141	19.835	-1.346	0.506
1079.999	622.405	80.008	19.996	103.135	19.838	-1.523	0.510
1082.000	623.426	80.008	19.993	103.139	19.837	-1.466	0.498
1084.000	624.462	80.007	19.993	103.143	19.837	-1.446	0.524
1085.999	625.504	80.007	19.994	103.145	19.837	-1.481	0.531
1087.999	626.548	80.010	19.993	103.142	19.840	-1.629	0.528
1089.999	627.545	80.006	19.992	103.143	19.839	-1.623	0.498
1091.999	628.641	80.010	19.993	103.133	19.839	-1.621	0.492
1093.999	629.704	80.008	19.993	103.137	19.841	-1.753	0.531
1096.000	630.737	80.009	19.994	103.148	19.847	-2.112	0.515
1097.999	631.794	80.010	19.995	103.137	19.844	-1.904	0.520
1099.999	632.873	80.010	19.994	103.131	19.846	-2.047	0.549
1101.999	633.896	80.008	19.994	103.133	19.843	-1.888	0.519
1103.999	635.039	80.008	19.994	103.142	19.848	-2.193	0.553
1105.999	636.093	80.007	19.995	103.139	19.845	-1.968	0.543
1107.999	637.187	80.008	19.995	103.131	19.847	-2.162	0.559
1110.000	638.246	80.006	19.995	103.138	19.845	-2.014	0.543
1111.999	639.314	80.008	19.995	103.134	19.846	-2.059	0.529
1114.000	640.348	80.008	19.994	103.152	19.851	-2.419	0.536
1115.999	641.409	80.007	19.994	103.135	19.849	-2.255	0.499
1118.001	642.509	80.006	19.995	103.129	19.853	-2.521	0.580
1119.999	643.566	80.008	19.996	103.129	19.853	-2.567	0.494
1121.999	644.601	80.010	19.995	103.128	19.857	-2.837	0.528
1124.000	645.637	80.011	19.994	103.143	19.855	-2.686	0.529
1125.999	646.687	80.005	19.994	103.132	19.853	-2.569	0.545
1128.000	647.735	80.010	19.995	103.128	19.856	-2.757	0.511
1129.999	648.828	80.008	19.995	103.130	19.857	-2.826	0.510
1131.999	649.868	80.008	19.995	103.126	19.856	-2.764	0.515
1133.999	650.977	80.005	19.995	103.128	19.860	-2.996	0.547
1135.999	652.058	80.005	19.997	103.129	19.859	-2.954	0.566
1137.999	653.030	80.006	19.995	103.132	19.858	-2.857	0.516
1139.999	654.112	80.005	19.995	103.131	19.860	-2.991	0.496
1142.000	655.169	80.005	19.995	103.130	19.858	-2.845	0.535
1143.999	656.203	80.007	19.994	103.132	19.861	-3.075	0.529
1145.999	657.286	80.008	19.995	103.130	19.863	-3.246	0.510
1147.999	658.288	80.007	19.993	103.132	19.864	-3.265	0.530
1149.999	659.342	80.007	19.993	103.132	19.868	-3.577	0.532
1151.999	660.338	80.007	19.993	103.131	19.865	-3.328	0.504
1153.999	661.361	80.007	19.993	103.130	19.866	-3.394	0.512
1155.999	662.412	80.008	19.993	103.132	19.864	-3.295	0.498
1158.001	663.446	80.007	19.994	103.137	19.867	-3.485	0.499
1159.999	664.490	80.006	19.994	103.131	19.865	-3.350	0.511
1161.999	665.559	80.007	19.994	103.131	19.864	-3.295	0.552
1163.999	666.641	80.009	19.994	103.131	19.867	-3.489	0.529
1165.999	667.643	80.008	19.995	103.129	19.866	-3.408	0.505
1167.999	668.691	80.009	19.994	103.112	19.866	-3.423	0.516
1169.999	669.745	80.008	19.994	103.128	19.866	-3.447	0.553
1171.999	670.757	80.010	19.995	103.124	19.869	-3.648	0.501
1174.000	671.789	80.010	19.994	103.123	19.868	-3.566	0.517
1175.999	672.839	80.010	19.994	103.123	19.868	-3.585	0.521
1178.000	673.821	80.008	19.993	103.123	19.872	-3.827	0.534
1180.000	674.883	80.009	19.992	103.126	19.872	-3.854	0.547
1181.999	675.903	80.010	19.993	103.124	19.869	-3.639	0.519
1183.999	676.982	80.007	19.993	103.125	19.869	-3.602	0.479
1185.999	677.929	80.007	19.994	103.119	19.870	-3.699	0.504
1187.999	678.982	80.007	19.994	103.124	19.870	-3.657	0.532
1189.999	679.965	80.007	19.995	103.127	19.873	-3.863	0.511
1192.000	680.949	80.007	19.994	103.124	19.871	-3.779	0.494
1193.999	682.001	80.008	19.995	103.129	19.873	-3.896	0.513
1196.000	683.010	80.007	19.994	103.127	19.877	-4.131	0.481
1197.999	684.032	80.007	19.995	103.132	19.876	-4.060	0.504
1199.999	685.000	80.007	19.995	103.131	19.879	-4.319	0.466
1201.999	685.998	80.007	19.994	103.133	19.879	-4.285	0.491
1203.999	687.033	80.008	19.994	103.129	19.877	-4.182	0.491
1206.000	688.053	80.008	19.994	103.115	19.876	-4.073	0.497
1207.999	688.989	80.007	19.994	103.127	19.878	-4.212	0.467
1209.999	690.061	80.006	19.994	103.125	19.877	-4.190	0.536
1212.000	691.003	80.007	19.994	103.118	19.878	-4.243	0.469
1213.999	692.051	80.008	19.995	103.126	19.878	-4.201	0.527
1216.000	693.023	80.005	19.995	103.122	19.875	-4.037	0.526
1217.999	694.016	80.004	19.996	103.128	19.879	-4.287	0.496
1219.999	694.959	80.005	19.995	103.123	19.880	-4.369	0.471
1221.999	695.997	80.005	19.995	103.123	19.881	-4.433	0.488
1223.999	697.011	80.007	19.995	103.130	19.879	-4.299	0.490
1226.000	697.958	80.008	19.995	103.132	19.881	-4.435	0.477
1227.999	698.991	80.008	19.995	103.129	19.882	-4.495	0.493
1229.999	700.006	80.008	19.996	103.126	19.885	-4.681	0.507
1231.999	700.983	80.010	19.995	103.122	19.880	-4.378	0.495
1234.000	702.015	80.009	19.995	103.121	19.882	-4.509	0.514
1235.999	703.047	80.009	19.995	103.125	19.886	-4.759	0.529
1238.000	704.069	80.008	19.994	103.126	19.885	-4.673	0.516
1239.999	705.102	80.009	19.995	103.125	19.882	-4.502	0.518
1241.999	706.103	80.007	19.993	103.123	19.888	-4.936	0.512
1243.999	707.129	80.008	19.994	103.114	19.883	-4.544	0.514
1246.000	708.161	80.007	19.994	103.127	19.883	-4.577	0.528
1247.999	709.210	80.010	19.994	103.117	19.882	-4.516	0.499
1249.999	710.216	80.008	19.994	103.115	19.884	-4.638	0.510
1251.999	711.270	80.010	19.994	103.118	19.882	-4.487	0.558
1253.999	712.261	80.010	19.994	103.116	19.882	-4.517	0.501
1255.999	713.325	80.009	19.993	103.114	19.883	-4.595	0.546
1258.000	714.357	80.010	19.994	103.118	19.885	-4.694	0.525
1260.000	715.386	80.009	19.995	103.108	19.882	-4.506	0.514
1261.999	716.438	80.009	19.991	103.115	19.883	-4.559	0.526
1263.999	717.452	80.009	19.994	103.122	19.881	-4.438	0.503
1265.999	718.484	80.008	19.994	103.122	19.881	-4.423	0.513
1267.999	719.500	80.008	19.994	103.125	19.887	-4.814	0.505
1270.000	720.508	80.008	19.993	103.128	19.884	-4.666	0.486
1271.999	721.587	80.007	19.994	103.128	19.887	-4.803	0.535
1273.999	722.586	80.006	19.994	103.124	19.884	-4.620	0.476
1275.999	723.605	80.008	19.993	103.117	19.890	-5.060	0.521
1277.999	724.637	80.007	19.994	103.113	19.888	-4.879	0.527
1279.999	725.636	80.008	19.993	103.119	19.892	-5.157	0.514
1281.999	726.691	80.007	19.994	103.121	19.891	-5.128	0.565
1283.999	727.665	80.008	19.993	103.118	19.891	-5.136	0.486
1285.999	728.723	80.007	19.993	103.100	19.892	-5.197	0.507
1287.999	729.683	80.006	19.994	103.111	19.891	-5.114	0.489
1289.999	730.738	80.008	19.994	103.110	19.891	-5.108	0.535
1291.999	731.771	80.006	19.994	103.118	19.890	-5.051	0.548
1293.999	732.730	80.007	19.995	103.103	19.890	-5.051	0.483
1296.000	733.811	80.007	19.994	103.101	19.889	-4.945	0.507
1297.999	734.812	80.007	19.994	103.121	19.892	-5.178	0.510
1299.999	735.791	80.006	19.995	103.121	19.890	-5.046	0.495
1301.999	736.760	80.007	19.994	103.108	19.896	-5.443	0.509
1303.999	737.754	80.006	19.995	103.121	19.900	-5.698	0.479
1306.000	738.820	80.008	19.994	103.110	19.894	-5.334	0.502
1307.999	739.797	80.008	19.994	103.107	19.891	-5.117	0.487
1309.999	740.809	80.008	19.995	103.105	19.897	-5.477	0.493
1311.999	741.769	80.008	19.995	103.115	19.892	-5.199	0.468
1314.000	742.817	80.007	19.995	103.098	19.893	-5.256	0.493
1315.999	743.847	80.009	19.994	103.099	19.894	-5.284	0.534
1318.000	744.877	80.008	19.995	103.102	19.897	-5.484	0.510
1319.000	745.362	80.008	19.995	103.089	19.890	-5.029	0.500