File: 01_Data/Polyester_Microfiber_Sheet/MCC/Polyester_Microfiber_Sheet_MCC_30K_min_211209_R1.txt
Sample ID:	C:\MCC\MCC Cal\Test\Polyester_Microfiber_Sheet_MCC_30K_min_211209_R1.txt
Sample Weight (mg):	4.19
Heating Rate (C/s):	0.5
Combustor Temp (C):	900
N2 Flow Rate (cc/min):	80
O2 Flow Rate (cc/min):	20
Calibration File:	C:\MCC\MCC Cal\Coeff1 JN10440_30_210304.txt.txt
T Correction Coefficients:	0	1.024463	0
Time Shift (s):	14
*
Time (s)	Temperature (C)	N2 flow rate (cc/min)	O2 flow rate (cc/min)	Flow Rate (cc/min)	Oxygen (%)	HRR (W/g)	Heating rate (C/s)
0.000	108.610	80.009	19.994	103.070	20.145	-0.101	0.019
2.000	108.591	80.007	19.994	103.082	20.140	0.282	0.032
4.000	108.594	80.006	19.993	103.065	20.143	0.025	-0.009
6.000	108.600	80.006	19.995	103.078	20.139	0.334	0.000
8.000	108.585	80.006	19.996	103.069	20.139	0.368	-0.041
10.000	108.591	80.006	19.995	103.087	20.140	0.305	0.002
12.000	108.601	80.006	19.995	103.070	20.141	0.225	-0.010
14.000	108.573	80.007	19.995	103.083	20.138	0.425	-0.004
16.000	108.587	80.007	19.995	103.091	20.135	0.682	0.010
18.000	108.616	80.008	19.996	103.112	20.134	0.724	0.008
20.000	108.619	80.008	19.995	103.112	20.132	0.914	-0.013
22.000	108.667	80.008	19.996	103.133	20.128	1.193	0.040
24.000	108.693	80.008	19.995	103.168	20.126	1.372	0.051
26.000	108.731	80.007	19.994	103.168	20.123	1.631	0.025
28.000	108.822	80.007	19.993	103.174	20.119	1.876	0.034
30.000	108.909	80.007	19.993	103.225	20.115	2.243	0.060
32.001	109.029	80.008	19.993	103.260	20.109	2.696	0.069
34.000	109.216	80.007	19.994	103.287	20.101	3.297	0.087
36.000	109.406	80.007	19.994	103.296	20.099	3.462	0.085
38.000	109.712	80.008	19.995	103.317	20.096	3.707	0.133
40.000	109.975	80.009	19.993	103.321	20.092	3.951	0.134
42.000	110.286	80.010	19.993	103.319	20.090	4.103	0.173
44.000	110.666	80.008	19.994	103.323	20.088	4.261	0.187
46.000	111.029	80.010	19.994	103.333	20.086	4.476	0.220
48.000	111.505	80.008	19.994	103.342	20.083	4.665	0.227
50.000	111.950	80.009	19.994	103.342	20.085	4.495	0.237
52.000	112.410	80.009	19.994	103.335	20.086	4.440	0.229
54.000	112.973	80.007	19.994	103.335	20.083	4.666	0.268
56.000	113.540	80.007	19.995	103.333	20.081	4.805	0.281
58.000	114.083	80.006	19.995	103.326	20.081	4.845	0.283
60.000	114.759	80.007	19.993	103.326	20.081	4.851	0.319
62.001	115.349	80.007	19.994	103.325	20.084	4.605	0.328
64.000	115.983	80.007	19.994	103.330	20.079	4.944	0.328
66.000	116.644	80.009	19.994	103.331	20.083	4.704	0.324
68.000	117.308	80.008	19.994	103.329	20.082	4.782	0.357
70.001	118.013	80.007	19.994	103.334	20.083	4.707	0.334
72.000	118.706	80.008	19.994	103.332	20.082	4.717	0.341
74.000	119.424	80.006	19.994	103.329	20.084	4.582	0.379
76.001	120.134	80.007	19.994	103.336	20.081	4.835	0.380
78.000	120.872	80.007	19.994	103.341	20.082	4.739	0.345
80.000	121.688	80.006	19.995	103.339	20.086	4.437	0.391
82.000	122.515	80.006	19.996	103.354	20.080	4.905	0.399
84.001	123.306	80.006	19.995	103.361	20.087	4.386	0.399
86.001	124.126	80.007	19.994	103.342	20.086	4.409	0.423
88.000	124.961	80.006	19.994	103.354	20.085	4.544	0.404
90.001	125.802	80.006	19.994	103.358	20.084	4.588	0.434
92.000	126.679	80.007	19.995	103.343	20.082	4.721	0.437
94.000	127.551	80.007	19.995	103.359	20.086	4.447	0.446
96.001	128.392	80.007	19.994	103.357	20.086	4.428	0.438
98.001	129.280	80.005	19.994	103.351	20.086	4.454	0.429
100.001	130.205	80.008	19.995	103.339	20.084	4.584	0.462
102.000	131.102	80.009	19.994	103.346	20.085	4.540	0.473
104.001	132.016	80.009	19.994	103.353	20.087	4.405	0.453
106.000	132.939	80.009	19.994	103.336	20.084	4.563	0.466
108.001	133.913	80.008	19.995	103.348	20.084	4.573	0.490
110.000	134.813	80.007	19.996	103.344	20.088	4.291	0.469
112.000	135.795	80.007	19.995	103.352	20.085	4.506	0.481
114.000	136.743	80.008	19.995	103.343	20.085	4.531	0.479
116.000	137.699	80.006	19.996	103.335	20.086	4.424	0.500
118.000	138.706	80.008	19.995	103.338	20.084	4.571	0.491
120.001	139.701	80.010	19.994	103.338	20.087	4.368	0.484
122.000	140.695	80.009	19.994	103.344	20.085	4.493	0.489
124.000	141.652	80.009	19.994	103.341	20.084	4.621	0.480
126.000	142.696	80.010	19.994	103.344	20.081	4.834	0.509
128.000	143.715	80.010	19.994	103.342	20.083	4.687	0.518
130.000	144.689	80.010	19.993	103.331	20.087	4.362	0.511
132.000	145.722	80.009	19.994	103.337	20.087	4.360	0.508
134.000	146.731	80.008	19.993	103.327	20.083	4.703	0.497
136.000	147.712	80.010	19.994	103.323	20.085	4.541	0.485
138.000	148.734	80.009	19.995	103.325	20.088	4.290	0.511
140.000	149.753	80.005	19.994	103.326	20.089	4.225	0.504
142.000	150.756	80.009	19.993	103.329	20.085	4.547	0.514
144.000	151.806	80.005	19.994	103.327	20.090	4.126	0.514
146.000	152.829	80.004	19.995	103.326	20.089	4.216	0.528
148.000	153.830	80.008	19.994	103.327	20.088	4.296	0.484
150.000	154.816	80.008	19.994	103.327	20.090	4.149	0.503
152.000	155.868	80.006	19.994	103.326	20.086	4.441	0.501
154.000	156.840	80.008	19.994	103.323	20.090	4.170	0.503
156.000	157.871	80.008	19.994	103.325	20.090	4.146	0.518
158.000	158.913	80.006	19.995	103.324	20.089	4.197	0.516
160.001	159.919	80.006	19.993	103.323	20.089	4.243	0.508
162.000	160.923	80.008	19.995	103.317	20.094	3.834	0.514
164.000	161.945	80.006	19.994	103.322	20.090	4.167	0.503
166.000	162.962	80.008	19.992	103.321	20.096	3.697	0.519
168.000	163.953	80.008	19.995	103.311	20.094	3.855	0.514
170.000	165.004	80.005	19.995	103.311	20.095	3.779	0.536
172.000	166.032	80.007	19.994	103.302	20.091	4.036	0.517
174.000	167.025	80.008	19.994	103.305	20.094	3.854	0.509
176.001	168.041	80.006	19.994	103.297	20.091	4.093	0.495
178.000	169.004	80.009	19.995	103.302	20.092	3.966	0.475
180.000	170.059	80.008	19.994	103.292	20.090	4.101	0.497
182.001	171.113	80.006	19.995	103.299	20.092	3.998	0.508
184.001	172.074	80.010	19.995	103.288	20.093	3.909	0.489
186.000	173.088	80.008	19.994	103.291	20.095	3.743	0.522
188.000	174.040	80.009	19.994	103.288	20.094	3.850	0.494
190.000	175.051	80.009	19.995	103.290	20.092	3.954	0.500
192.000	176.051	80.006	19.994	103.287	20.092	3.952	0.487
194.001	177.053	80.007	19.995	103.286	20.093	3.903	0.533
196.000	178.033	80.008	19.995	103.289	20.094	3.810	0.481
198.000	179.013	80.007	19.996	103.288	20.094	3.814	0.511
200.001	179.946	80.008	19.995	103.287	20.094	3.863	0.467
202.001	180.968	80.009	19.996	103.300	20.097	3.595	0.480
204.000	181.930	80.007	19.995	103.292	20.094	3.821	0.476
206.001	182.944	80.009	19.994	103.284	20.094	3.806	0.484
208.000	183.931	80.008	19.995	103.290	20.096	3.694	0.500
210.000	184.929	80.007	19.995	103.288	20.093	3.867	0.525
212.000	185.919	80.010	19.995	103.288	20.095	3.787	0.497
214.000	186.901	80.007	19.993	103.288	20.093	3.935	0.500
216.000	187.944	80.010	19.996	103.284	20.091	4.033	0.544
218.001	188.898	80.008	19.994	103.281	20.096	3.686	0.494
220.001	189.868	80.007	19.994	103.282	20.094	3.829	0.505
222.000	190.854	80.006	19.993	103.286	20.093	3.932	0.505
224.001	191.807	80.007	19.994	103.287	20.093	3.936	0.502
226.000	192.808	80.006	19.995	103.287	20.093	3.913	0.493
228.000	193.734	80.004	19.994	103.282	20.097	3.618	0.502
230.000	194.754	80.009	19.994	103.287	20.094	3.827	0.518
232.000	195.737	80.007	19.994	103.286	20.094	3.820	0.499
234.000	196.700	80.008	19.995	103.276	20.097	3.618	0.495
236.001	197.615	80.008	19.994	103.283	20.096	3.643	0.468
238.001	198.613	80.007	19.994	103.282	20.097	3.614	0.476
240.000	199.590	80.008	19.995	103.279	20.096	3.641	0.475
242.000	200.611	80.007	19.995	103.280	20.098	3.504	0.526
244.001	201.516	80.007	19.994	103.272	20.098	3.536	0.463
246.001	202.502	80.008	19.994	103.280	20.099	3.437	0.494
248.001	203.498	80.008	19.994	103.280	20.098	3.537	0.480
250.001	204.498	80.008	19.994	103.277	20.098	3.532	0.489
252.000	205.434	80.007	19.994	103.270	20.094	3.852	0.488
254.001	206.406	80.008	19.995	103.278	20.095	3.728	0.521
256.000	207.405	80.005	19.994	103.281	20.096	3.692	0.507
258.000	208.355	80.009	19.994	103.258	20.095	3.776	0.495
260.000	209.323	80.009	19.994	103.268	20.095	3.744	0.474
262.000	210.292	80.010	19.996	103.279	20.093	3.871	0.465
264.000	211.246	80.007	19.994	103.278	20.095	3.744	0.443
266.000	212.176	80.008	19.995	103.274	20.096	3.700	0.489
268.000	213.171	80.007	19.996	103.261	20.096	3.671	0.493
270.000	214.115	80.009	19.995	103.267	20.092	3.949	0.470
272.000	215.080	80.005	19.995	103.274	20.092	3.945	0.483
274.000	216.046	80.005	19.995	103.278	20.097	3.576	0.511
276.000	217.020	80.008	19.995	103.279	20.096	3.645	0.471
278.000	217.972	80.009	19.995	103.279	20.095	3.755	0.464
280.000	218.962	80.008	19.995	103.277	20.097	3.612	0.467
282.000	219.917	80.007	19.994	103.271	20.098	3.540	0.463
284.000	220.892	80.008	19.995	103.283	20.098	3.485	0.482
286.000	221.865	80.009	19.994	103.278	20.101	3.295	0.501
288.000	222.887	80.007	19.994	103.278	20.097	3.569	0.494
290.000	223.827	80.008	19.995	103.283	20.100	3.365	0.473
292.000	224.802	80.009	19.994	103.275	20.099	3.414	0.506
294.000	225.787	80.009	19.994	103.283	20.099	3.445	0.473
296.001	226.814	80.010	19.996	103.273	20.100	3.384	0.497
298.000	227.797	80.009	19.994	103.270	20.099	3.453	0.503
300.000	228.849	80.011	19.995	103.268	20.100	3.373	0.523
302.001	229.856	80.007	19.996	103.277	20.101	3.308	0.513
304.000	230.834	80.006	19.996	103.278	20.104	3.042	0.528
306.000	231.816	80.006	19.996	103.265	20.103	3.122	0.479
308.001	232.840	80.007	19.995	103.271	20.101	3.300	0.488
310.000	233.839	80.007	19.995	103.269	20.102	3.236	0.499
312.001	234.879	80.006	19.995	103.269	20.100	3.354	0.515
314.000	235.892	80.007	19.995	103.261	20.102	3.241	0.504
316.000	236.865	80.007	19.994	103.260	20.099	3.464	0.514
318.000	237.923	80.008	19.995	103.270	20.102	3.181	0.540
320.000	238.970	80.008	19.995	103.261	20.101	3.310	0.521
322.000	239.952	80.009	19.996	103.271	20.101	3.260	0.497
324.001	240.909	80.007	19.994	103.278	20.101	3.304	0.487
326.000	241.941	80.010	19.995	103.254	20.101	3.293	0.523
328.000	242.948	80.007	19.994	103.263	20.100	3.359	0.497
330.000	243.928	80.007	19.994	103.260	20.102	3.244	0.486
332.000	244.961	80.007	19.995	103.270	20.099	3.441	0.511
334.000	245.976	80.008	19.995	103.274	20.100	3.350	0.519
336.001	246.999	80.007	19.995	103.259	20.098	3.481	0.500
338.000	247.987	80.007	19.994	103.269	20.102	3.188	0.503
340.000	249.015	80.007	19.995	103.263	20.103	3.099	0.519
342.000	250.083	80.007	19.995	103.261	20.102	3.211	0.511
344.000	251.039	80.009	19.994	103.258	20.100	3.381	0.459
346.000	252.087	80.010	19.995	103.254	20.101	3.276	0.518
348.000	253.094	80.013	19.995	103.266	20.101	3.248	0.514
350.000	254.095	80.007	19.995	103.259	20.104	3.091	0.480
352.000	255.083	80.009	19.994	103.254	20.099	3.430	0.529
354.000	256.104	80.010	19.994	103.249	20.099	3.442	0.487
356.000	257.070	80.008	19.994	103.255	20.099	3.402	0.507
358.000	258.065	80.009	19.994	103.252	20.097	3.594	0.504
360.000	259.077	80.009	19.994	103.261	20.101	3.284	0.498
362.000	260.041	80.010	19.994	103.259	20.103	3.126	0.481
364.000	261.048	80.007	19.995	103.252	20.098	3.550	0.502
366.000	262.036	80.010	19.995	103.250	20.099	3.436	0.493
368.001	262.973	80.009	19.994	103.251	20.098	3.493	0.441
370.000	264.022	80.009	19.995	103.254	20.095	3.747	0.510
372.000	264.995	80.010	19.995	103.245	20.097	3.590	0.503
374.000	265.992	80.009	19.994	103.244	20.103	3.124	0.491
376.000	266.996	80.009	19.994	103.252	20.097	3.583	0.501
378.000	267.953	80.011	19.994	103.248	20.097	3.606	0.495
380.001	268.981	80.010	19.994	103.244	20.100	3.387	0.521
382.000	269.959	80.009	19.995	103.250	20.098	3.535	0.526
384.000	270.936	80.008	19.996	103.250	20.095	3.710	0.452
386.000	271.990	80.007	19.994	103.245	20.095	3.779	0.533
388.000	273.001	80.007	19.994	103.245	20.092	4.000	0.508
390.000	273.972	80.007	19.995	103.245	20.097	3.585	0.475
392.000	274.945	80.006	19.995	103.245	20.096	3.668	0.493
394.000	275.960	80.006	19.996	103.247	20.096	3.666	0.509
396.000	276.962	80.006	19.996	103.245	20.092	3.975	0.470
398.000	277.944	80.005	19.995	103.243	20.095	3.752	0.498
400.000	278.942	80.007	19.995	103.245	20.095	3.769	0.511
402.000	279.992	80.009	19.996	103.247	20.093	3.893	0.524
404.000	280.965	80.006	19.995	103.250	20.095	3.758	0.502
406.000	282.013	80.007	19.995	103.249	20.099	3.472	0.510
408.000	282.986	80.008	19.993	103.249	20.095	3.731	0.504
410.000	283.961	80.008	19.995	103.253	20.097	3.613	0.483
412.000	285.019	80.006	19.993	103.256	20.097	3.623	0.504
414.000	285.999	80.009	19.993	103.248	20.094	3.807	0.506
416.000	287.031	80.008	19.994	103.247	20.096	3.705	0.500
418.000	288.063	80.007	19.995	103.249	20.100	3.392	0.514
420.000	289.055	80.008	19.994	103.251	20.096	3.701	0.522
422.000	290.023	80.007	19.995	103.247	20.093	3.882	0.507
424.000	291.067	80.005	19.994	103.249	20.096	3.638	0.530
426.000	292.123	80.007	19.995	103.250	20.095	3.752	0.505
428.000	293.114	80.008	19.995	103.246	20.095	3.760	0.519
430.000	294.108	80.009	19.994	103.248	20.096	3.676	0.516
432.000	295.136	80.009	19.994	103.247	20.091	4.026	0.523
434.000	296.160	80.009	19.994	103.246	20.096	3.659	0.509
436.000	297.119	80.009	19.994	103.243	20.093	3.931	0.496
438.000	298.129	80.010	19.994	103.244	20.094	3.842	0.539
440.000	299.157	80.008	19.995	103.243	20.094	3.808	0.507
442.000	300.149	80.009	19.995	103.243	20.096	3.693	0.480
444.000	301.166	80.008	19.993	103.245	20.092	3.968	0.496
446.000	302.199	80.009	19.993	103.243	20.093	3.865	0.518
448.000	303.183	80.010	19.993	103.242	20.093	3.867	0.517
450.000	304.203	80.010	19.994	103.239	20.093	3.882	0.520
452.000	305.193	80.009	19.994	103.244	20.093	3.880	0.503
454.000	306.200	80.011	19.994	103.245	20.092	3.956	0.528
456.000	307.222	80.010	19.994	103.233	20.091	4.061	0.500
458.000	308.209	80.012	19.994	103.240	20.095	3.726	0.479
460.001	309.201	80.011	19.994	103.236	20.096	3.693	0.489
462.000	310.237	80.011	19.994	103.241	20.093	3.886	0.509
464.000	311.233	80.011	19.995	103.237	20.094	3.815	0.518
466.000	312.302	80.009	19.995	103.243	20.097	3.564	0.520
468.000	313.308	80.008	19.995	103.236	20.094	3.831	0.499
470.000	314.274	80.008	19.994	103.237	20.094	3.810	0.501
472.001	315.332	80.008	19.994	103.231	20.095	3.745	0.534
474.000	316.400	80.008	19.994	103.240	20.093	3.939	0.510
476.000	317.356	80.007	19.994	103.241	20.094	3.846	0.475
478.000	318.420	80.006	19.994	103.239	20.093	3.924	0.528
480.000	319.434	80.007	19.994	103.232	20.094	3.806	0.544
482.000	320.441	80.008	19.994	103.237	20.095	3.742	0.526
484.000	321.476	80.007	19.993	103.222	20.091	4.027	0.505
486.000	322.429	80.008	19.994	103.237	20.089	4.174	0.491
488.000	323.471	80.006	19.994	103.230	20.092	3.993	0.505
490.000	324.480	80.007	19.995	103.222	20.090	4.136	0.514
492.000	325.478	80.007	19.995	103.222	20.090	4.126	0.468
494.000	326.467	80.007	19.995	103.218	20.089	4.174	0.511
496.000	327.474	80.007	19.995	103.209	20.091	4.092	0.495
498.000	328.498	80.006	19.995	103.212	20.093	3.900	0.501
500.000	329.525	80.007	19.994	103.214	20.090	4.166	0.513
502.000	330.540	80.008	19.996	103.223	20.089	4.206	0.507
504.000	331.560	80.008	19.995	103.224	20.087	4.349	0.531
506.000	332.508	80.007	19.994	103.209	20.084	4.555	0.477
508.000	333.589	80.008	19.995	103.210	20.091	4.020	0.499
510.000	334.646	80.008	19.994	103.216	20.094	3.839	0.536
512.000	335.663	80.009	19.995	103.215	20.085	4.499	0.480
514.000	336.711	80.008	19.993	103.223	20.084	4.576	0.573
516.000	337.704	80.009	19.994	103.215	20.084	4.599	0.507
518.000	338.627	80.009	19.994	103.211	20.089	4.195	0.489
520.000	339.523	80.010	19.993	103.208	20.087	4.370	0.400
522.000	340.790	80.008	19.994	103.216	20.087	4.370	0.703
524.000	341.914	80.008	19.994	103.216	20.086	4.433	0.877
526.000	342.797	80.008	19.994	103.207	20.081	4.818	0.490
528.000	343.783	80.009	19.994	103.208	20.080	4.869	0.472
530.000	344.816	80.009	19.994	103.221	20.083	4.707	0.538
532.000	345.773	80.008	19.994	103.216	20.083	4.680	0.533
534.000	346.844	80.011	19.994	103.209	20.077	5.157	0.505
536.000	347.865	80.010	19.994	103.212	20.079	5.004	0.513
538.000	348.897	80.011	19.994	103.212	20.077	5.149	0.505
540.000	349.837	80.010	19.993	103.214	20.084	4.574	0.487
542.000	350.881	80.012	19.993	103.216	20.079	4.949	0.533
544.000	351.939	80.010	19.993	103.220	20.079	4.965	0.547
546.000	352.947	80.010	19.993	103.214	20.078	5.044	0.506
548.000	353.943	80.008	19.993	103.211	20.077	5.130	0.485
550.000	355.041	80.008	19.994	103.212	20.077	5.142	0.536
552.000	356.018	80.007	19.994	103.210	20.080	4.892	0.513
554.000	357.053	80.008	19.995	103.212	20.075	5.303	0.481
556.000	358.108	80.007	19.994	103.213	20.075	5.282	0.516
558.000	359.120	80.007	19.994	103.211	20.070	5.703	0.513
560.000	360.158	80.009	19.995	103.213	20.066	5.949	0.507
562.000	361.212	80.007	19.995	103.213	20.066	5.947	0.538
564.000	362.210	80.008	19.994	103.215	20.065	6.040	0.529
566.000	363.261	80.009	19.995	103.217	20.062	6.256	0.519
568.000	364.262	80.009	19.995	103.212	20.062	6.305	0.493
570.000	365.305	80.009	19.995	103.206	20.059	6.545	0.528
572.000	366.342	80.009	19.994	103.207	20.054	6.922	0.515
574.000	367.322	80.008	19.994	103.213	20.053	6.943	0.515
576.000	368.348	80.008	19.995	103.210	20.046	7.531	0.528
578.001	369.396	80.008	19.994	103.207	20.040	7.966	0.533
580.000	370.440	80.008	19.995	103.216	20.037	8.195	0.504
582.000	371.455	80.008	19.995	103.210	20.034	8.399	0.510
584.000	372.476	80.007	19.995	103.217	20.031	8.685	0.527
586.000	373.496	80.007	19.995	103.217	20.024	9.198	0.492
588.000	374.573	80.008	19.996	103.217	20.018	9.656	0.499
590.000	375.659	80.008	19.995	103.231	20.011	10.234	0.559
592.000	376.690	80.008	19.996	103.216	20.011	10.233	0.536
594.000	377.673	80.009	19.996	103.224	20.005	10.699	0.522
596.000	378.692	80.010	19.994	103.221	19.994	11.477	0.534
598.000	379.788	80.009	19.993	103.237	19.987	12.025	0.519
600.000	380.779	80.029	19.997	103.242	19.984	12.309	0.510
602.000	381.835	80.013	19.996	103.245	19.978	12.749	0.555
604.000	382.822	80.009	19.995	103.242	19.969	13.468	0.487
606.000	383.878	80.009	19.995	103.246	19.960	14.114	0.530
608.000	384.893	80.009	19.995	103.247	19.950	14.886	0.491
610.000	385.910	80.008	19.994	103.249	19.943	15.415	0.515
612.000	386.876	80.008	19.995	103.248	19.933	16.245	0.497
614.000	387.964	80.009	19.994	103.249	19.925	16.857	0.520
616.000	388.970	80.009	19.994	103.255	19.910	17.953	0.497
618.000	390.011	80.010	19.994	103.270	19.904	18.463	0.514
620.000	391.045	80.009	19.993	103.275	19.884	20.011	0.529
622.000	392.030	80.010	19.995	103.273	19.872	20.927	0.500
624.000	393.097	80.009	19.994	103.286	19.856	22.099	0.559
626.001	394.154	80.011	19.993	103.285	19.840	23.351	0.565
628.000	395.231	80.011	19.993	103.285	19.833	23.925	0.571
630.000	396.258	80.009	19.992	103.287	19.817	25.169	0.501
632.000	397.267	80.009	19.994	103.280	19.808	25.860	0.542
634.000	398.310	80.008	19.993	103.302	19.793	26.973	0.515
636.000	399.361	80.009	19.994	103.317	19.780	28.007	0.515
638.000	400.368	80.009	19.993	103.322	19.755	29.912	0.509
640.000	401.404	80.008	19.994	103.322	19.730	31.831	0.513
642.000	402.492	80.007	19.995	103.323	19.708	33.518	0.521
644.001	403.501	80.008	19.995	103.333	19.690	34.905	0.518
646.000	404.497	80.007	19.994	103.337	19.666	36.757	0.497
648.000	405.530	80.009	19.994	103.356	19.638	38.955	0.501
650.000	406.563	80.008	19.994	103.367	19.607	41.368	0.517
652.000	407.543	80.008	19.995	103.392	19.573	43.950	0.488
654.000	408.602	80.008	19.994	103.399	19.541	46.455	0.518
656.001	409.617	80.007	19.996	103.400	19.506	49.126	0.502
658.000	410.675	80.008	19.995	103.399	19.478	51.262	0.540
660.001	411.668	80.008	19.994	103.408	19.444	53.958	0.515
662.000	412.684	80.008	19.995	103.441	19.404	57.016	0.521
664.000	413.677	80.008	19.995	103.474	19.364	60.172	0.521
666.000	414.701	80.008	19.995	103.480	19.325	63.179	0.544
668.000	415.623	80.007	19.994	103.481	19.277	66.828	0.459
670.000	416.651	80.008	19.995	103.485	19.237	69.911	0.492
672.000	417.647	80.007	19.994	103.519	19.181	74.248	0.528
674.001	418.674	80.007	19.994	103.558	19.117	79.214	0.519
676.000	419.649	80.007	19.994	103.589	19.051	84.422	0.508
678.000	420.671	80.008	19.995	103.597	18.996	88.642	0.520
680.000	421.635	80.008	19.994	103.576	18.943	92.702	0.508
682.000	422.628	80.008	19.995	103.582	18.898	96.172	0.495
684.000	423.594	80.009	19.995	103.625	18.829	101.502	0.489
686.001	424.616	80.010	19.996	103.690	18.738	108.618	0.500
688.000	425.604	80.008	19.995	103.770	18.661	114.601	0.512
690.000	426.592	80.008	19.994	103.742	18.590	120.121	0.473
692.000	427.586	80.007	19.995	103.695	18.526	125.089	0.503
694.000	428.580	80.008	19.994	103.689	18.466	129.765	0.501
696.000	429.552	80.008	19.995	103.754	18.413	133.830	0.520
698.000	430.583	80.009	19.994	103.821	18.365	137.626	0.519
700.000	431.540	80.009	19.994	103.806	18.325	140.770	0.496
702.001	432.558	80.010	19.993	103.827	18.285	143.867	0.531
704.000	433.580	80.011	19.994	103.835	18.246	146.885	0.510
706.000	434.602	80.011	19.995	103.862	18.210	149.685	0.527
708.000	435.612	80.011	19.994	103.885	18.168	152.945	0.510
710.000	436.630	80.011	19.994	103.912	18.116	156.960	0.518
712.000	437.623	80.011	19.993	103.942	18.066	160.857	0.503
714.000	438.621	80.011	19.995	103.945	18.022	164.318	0.491
716.000	439.604	80.009	19.995	103.945	17.980	167.534	0.492
718.000	440.566	80.008	19.994	103.945	17.949	169.965	0.481
720.000	441.603	80.008	19.994	103.953	17.910	172.970	0.498
722.000	442.654	80.010	19.994	103.986	17.888	174.638	0.503
724.000	443.636	80.008	19.994	103.993	17.864	176.515	0.515
726.000	444.657	80.009	19.994	103.992	17.847	177.821	0.513
728.000	445.674	80.008	19.993	103.988	17.841	178.205	0.499
730.000	446.654	80.009	19.994	103.993	17.840	178.329	0.501
732.000	447.644	80.008	19.994	103.991	17.853	177.242	0.486
734.000	448.646	80.009	19.994	103.987	17.877	175.331	0.499
736.000	449.669	80.009	19.994	103.979	17.915	172.366	0.499
738.000	450.673	80.009	19.994	103.960	17.959	168.907	0.497
740.000	451.686	80.009	19.994	103.947	18.023	163.884	0.503
742.000	452.697	80.008	19.994	103.925	18.089	158.719	0.500
744.000	453.666	80.008	19.994	103.901	18.168	152.615	0.479
746.000	454.654	80.007	19.994	103.868	18.250	146.220	0.505
748.000	455.694	80.007	19.994	103.842	18.346	138.767	0.500
750.000	456.729	80.006	19.995	103.806	18.445	131.033	0.492
752.000	457.730	80.005	19.995	103.771	18.546	123.277	0.513
754.000	458.790	80.007	19.994	103.741	18.656	114.744	0.494
756.000	459.804	80.007	19.994	103.709	18.774	105.581	0.557
758.000	460.812	80.007	19.994	103.662	18.890	96.604	0.495
760.000	461.822	80.008	19.996	103.625	19.005	87.714	0.500
762.000	462.884	80.009	19.994	103.604	19.117	79.058	0.524
764.000	463.928	80.010	19.995	103.582	19.215	71.499	0.532
766.000	464.947	80.009	19.995	103.554	19.304	64.647	0.524
768.000	465.949	80.008	19.993	103.520	19.384	58.495	0.542
770.000	466.968	80.009	19.995	103.486	19.455	53.018	0.513
772.000	467.955	80.009	19.995	103.442	19.519	48.067	0.492
774.000	469.023	80.008	19.994	103.429	19.572	44.004	0.508
776.001	470.074	80.008	19.996	103.405	19.625	39.906	0.530
778.000	471.077	80.007	19.995	103.395	19.672	36.315	0.493
780.000	472.109	80.007	19.995	103.370	19.709	33.424	0.500
782.000	473.149	80.007	19.995	103.359	19.747	30.538	0.536
784.001	474.177	80.007	19.995	103.356	19.777	28.177	0.537
786.000	475.225	80.009	19.996	103.337	19.807	25.890	0.517
788.000	476.227	80.011	19.994	103.324	19.830	24.101	0.521
790.001	477.230	80.010	19.994	103.322	19.857	22.076	0.515
792.000	478.330	80.010	19.994	103.315	19.873	20.805	0.541
794.000	479.319	80.011	19.994	103.303	19.890	19.511	0.486
796.000	480.351	80.010	19.994	103.291	19.911	17.883	0.532
798.000	481.407	80.010	19.994	103.286	19.924	16.867	0.525
800.000	482.470	80.008	19.994	103.283	19.940	15.645	0.523
802.000	483.470	80.008	19.994	103.283	19.949	14.984	0.499
804.000	484.462	80.009	19.994	103.281	19.960	14.102	0.514
806.000	485.426	80.007	19.994	103.279	19.971	13.280	0.475
808.000	486.510	80.004	19.994	103.270	19.982	12.473	0.530
810.001	487.519	80.007	19.994	103.253	19.988	11.952	0.525
812.000	488.582	80.006	19.994	103.246	19.991	11.769	0.554
814.000	489.597	80.007	19.993	103.250	20.000	11.038	0.508
816.000	490.637	80.007	19.993	103.247	20.011	10.199	0.519
818.001	491.665	80.008	19.993	103.247	20.008	10.467	0.505
820.000	492.708	80.007	19.994	103.246	20.012	10.133	0.511
822.000	493.727	80.008	19.993	103.241	20.013	10.020	0.498
824.000	494.782	80.008	19.994	103.236	20.019	9.587	0.517
826.000	495.797	80.008	19.993	103.237	20.020	9.493	0.492
828.000	496.845	80.007	19.993	103.235	20.028	8.859	0.532
830.000	497.873	80.010	19.995	103.235	20.027	8.973	0.513
832.000	498.879	80.007	19.993	103.215	20.027	8.956	0.526
834.000	499.902	80.008	19.995	103.219	20.028	8.886	0.531
836.000	500.889	80.008	19.993	103.214	20.027	8.966	0.534
838.000	501.917	80.008	19.995	103.210	20.031	8.633	0.501
840.000	502.920	80.006	19.994	103.208	20.038	8.130	0.526
842.000	503.982	80.008	19.995	103.206	20.034	8.440	0.540
844.000	504.970	80.009	19.994	103.205	20.035	8.339	0.493
846.000	505.969	80.010	19.995	103.207	20.043	7.772	0.495
848.000	506.971	80.010	19.994	103.206	20.039	8.071	0.483
850.000	508.024	80.011	19.994	103.204	20.039	8.054	0.514
852.000	509.067	80.010	19.997	103.203	20.042	7.840	0.534
854.000	510.079	80.011	19.996	103.203	20.042	7.819	0.530
856.000	511.103	80.010	19.995	103.205	20.043	7.713	0.508
858.000	512.118	80.009	19.995	103.205	20.044	7.697	0.514
860.000	513.145	80.009	19.994	103.204	20.042	7.808	0.535
862.000	514.183	80.007	19.997	103.204	20.045	7.591	0.511
864.000	515.211	80.008	19.995	103.208	20.045	7.616	0.507
866.000	516.245	80.009	19.995	103.207	20.046	7.496	0.537
868.000	517.280	80.009	19.995	103.206	20.050	7.224	0.522
870.000	518.332	80.010	19.996	103.208	20.045	7.569	0.536
872.000	519.382	80.011	19.995	103.200	20.048	7.331	0.527
874.000	520.398	80.009	19.995	103.202	20.042	7.824	0.531
876.000	521.441	80.009	19.995	103.205	20.045	7.622	0.524
878.000	522.461	80.010	19.995	103.201	20.044	7.669	0.524
880.000	523.531	80.010	19.994	103.197	20.044	7.673	0.526
882.000	524.600	80.009	19.995	103.191	20.048	7.330	0.537
884.000	525.630	80.007	19.994	103.200	20.048	7.325	0.529
886.000	526.624	80.007	19.994	103.198	20.043	7.760	0.531
888.000	527.642	80.007	19.993	103.200	20.043	7.761	0.522
890.000	528.673	80.008	19.994	103.209	20.046	7.528	0.528
892.000	529.702	80.008	19.993	103.198	20.048	7.348	0.510
894.000	530.730	80.009	19.994	103.200	20.048	7.321	0.508
896.000	531.703	80.010	19.994	103.180	20.051	7.093	0.496
898.000	532.761	80.009	19.996	103.185	20.047	7.451	0.485
900.000	533.784	80.008	19.994	103.183	20.046	7.487	0.525
902.000	534.813	80.008	19.994	103.175	20.051	7.105	0.533
904.000	535.836	80.009	19.994	103.196	20.045	7.571	0.549
906.000	536.840	80.009	19.995	103.184	20.045	7.594	0.530
908.000	537.921	80.009	19.994	103.185	20.042	7.788	0.526
910.000	538.954	80.008	19.993	103.198	20.043	7.759	0.542
912.000	539.975	80.008	19.993	103.183	20.048	7.331	0.524
914.000	541.022	80.008	19.994	103.188	20.049	7.315	0.499
916.000	542.064	80.008	19.995	103.192	20.043	7.738	0.537
918.000	543.105	80.007	19.994	103.190	20.042	7.810	0.555
920.000	544.121	80.008	19.995	103.199	20.042	7.792	0.513
922.000	545.168	80.007	19.995	103.190	20.041	7.906	0.506
924.000	546.168	80.009	19.994	103.203	20.042	7.836	0.495
926.000	547.284	80.009	19.993	103.202	20.046	7.494	0.537
928.000	548.334	80.010	19.994	103.187	20.042	7.840	0.521
930.000	549.412	80.010	19.994	103.177	20.038	8.086	0.562
932.000	550.445	80.009	19.993	103.193	20.040	7.940	0.530
934.000	551.459	80.009	19.994	103.187	20.038	8.140	0.531
936.000	552.475	80.009	19.994	103.191	20.037	8.196	0.475
938.000	553.586	80.009	19.994	103.194	20.039	8.078	0.568
940.000	554.671	80.008	19.994	103.176	20.040	7.952	0.516
942.000	555.682	80.010	19.994	103.196	20.039	8.065	0.526
944.000	556.723	80.008	19.994	103.190	20.037	8.228	0.494
946.000	557.780	80.008	19.995	103.191	20.036	8.275	0.535
948.000	558.830	80.009	19.993	103.171	20.038	8.094	0.527
950.000	559.868	80.009	19.995	103.191	20.039	8.076	0.524
952.000	560.892	80.010	19.994	103.182	20.039	8.034	0.528
954.000	561.919	80.008	19.995	103.189	20.038	8.088	0.536
956.000	562.989	80.009	19.995	103.183	20.042	7.837	0.547
958.001	564.002	80.010	19.993	103.176	20.041	7.921	0.529
960.000	565.017	80.010	19.993	103.184	20.040	7.989	0.489
962.000	566.083	80.010	19.994	103.190	20.038	8.149	0.534
964.000	567.141	80.011	19.993	103.175	20.038	8.119	0.520
966.000	568.163	80.009	19.994	103.171	20.039	8.077	0.517
968.000	569.181	80.007	19.994	103.176	20.038	8.113	0.513
970.000	570.239	80.008	19.996	103.174	20.038	8.141	0.532
972.000	571.266	80.008	19.995	103.176	20.037	8.168	0.492
974.000	572.319	80.007	19.995	103.172	20.037	8.230	0.538
976.000	573.372	80.007	19.995	103.167	20.036	8.271	0.525
978.000	574.422	80.007	19.995	103.174	20.036	8.301	0.498
980.000	575.530	80.007	19.996	103.182	20.034	8.431	0.550
982.000	576.523	80.007	19.995	103.184	20.032	8.617	0.487
984.001	577.557	80.009	19.995	103.168	20.036	8.300	0.503
986.000	578.611	80.008	19.995	103.170	20.033	8.475	0.530
988.000	579.595	80.009	19.993	103.179	20.034	8.461	0.495
990.001	580.603	80.010	19.994	103.167	20.033	8.515	0.518
992.000	581.652	80.008	19.995	103.176	20.035	8.322	0.496
994.000	582.689	80.010	19.994	103.173	20.032	8.589	0.531
996.000	583.673	80.008	19.993	103.168	20.032	8.576	0.531
998.000	584.665	80.008	19.995	103.184	20.037	8.210	0.497
1000.000	585.690	80.006	19.995	103.176	20.033	8.534	0.502
1002.000	586.760	80.008	19.995	103.173	20.031	8.629	0.502
1004.000	587.780	80.006	19.994	103.186	20.025	9.105	0.486
1006.000	588.824	80.008	19.994	103.174	20.031	8.681	0.498
1008.000	589.852	80.007	19.994	103.179	20.027	8.938	0.507
1010.000	590.876	80.010	19.994	103.173	20.027	8.997	0.536
1012.000	591.926	80.008	19.994	103.173	20.028	8.854	0.522
1014.000	592.906	80.009	19.993	103.175	20.026	9.045	0.514
1016.000	593.957	80.009	19.993	103.172	20.024	9.213	0.512
1018.000	594.956	80.008	19.993	103.173	20.024	9.229	0.505
1020.000	595.990	80.009	19.995	103.172	20.025	9.098	0.539
1022.000	596.926	80.009	19.994	103.173	20.022	9.336	0.497
1024.000	597.966	80.009	19.993	103.175	20.024	9.203	0.481
1026.000	598.998	80.010	19.995	103.180	20.027	8.935	0.526
1028.000	600.010	80.009	19.993	103.186	20.026	9.045	0.504
1030.001	600.971	80.009	19.994	103.177	20.023	9.289	0.510
1032.000	601.964	80.009	19.994	103.169	20.025	9.150	0.502
1034.000	603.025	80.011	19.994	103.168	20.028	8.891	0.517
1036.000	604.012	80.010	19.995	103.169	20.025	9.119	0.503
1038.000	605.072	80.009	19.994	103.163	20.025	9.114	0.504
1040.000	606.037	80.012	19.994	103.169	20.022	9.342	0.491
1042.001	607.064	80.010	19.994	103.167	20.025	9.125	0.512
1044.000	608.075	80.011	19.995	103.166	20.021	9.415	0.493
1046.000	609.075	80.010	19.995	103.167	20.026	9.081	0.534
1048.000	610.112	80.009	19.994	103.165	20.024	9.173	0.489
1050.000	611.137	80.009	19.994	103.164	20.028	8.923	0.514
1052.001	612.150	80.008	19.995	103.166	20.026	9.041	0.541
1054.000	613.167	80.009	19.994	103.166	20.028	8.929	0.513
1056.001	614.211	80.009	19.995	103.166	20.023	9.266	0.536
1058.001	615.222	80.006	19.994	103.166	20.028	8.925	0.519
1060.000	616.281	80.008	19.995	103.167	20.026	9.018	0.517
1062.001	617.308	80.006	19.995	103.167	20.031	8.656	0.549
1064.000	618.293	80.008	19.995	103.168	20.029	8.839	0.497
1066.000	619.280	80.008	19.997	103.169	20.025	9.085	0.493
1068.001	620.291	80.006	19.996	103.169	20.033	8.519	0.495
1070.001	621.327	80.007	19.995	103.166	20.029	8.788	0.514
1072.000	622.330	80.007	19.996	103.169	20.031	8.628	0.459
1074.000	623.366	80.008	19.996	103.168	20.029	8.812	0.522
1076.000	624.408	80.008	19.994	103.165	20.032	8.553	0.529
1078.001	625.387	80.008	19.995	103.167	20.034	8.412	0.520
1080.000	626.373	80.007	19.994	103.170	20.031	8.658	0.460
1082.000	627.467	80.008	19.995	103.169	20.035	8.380	0.526
1084.000	628.477	80.007	19.994	103.170	20.033	8.483	0.508
1086.001	629.484	80.006	19.992	103.172	20.036	8.241	0.503
1088.000	630.487	80.008	19.994	103.171	20.035	8.343	0.509
1090.000	631.551	80.008	19.994	103.170	20.032	8.563	0.521
1092.001	632.552	80.008	19.994	103.170	20.034	8.407	0.496
1094.000	633.561	80.008	19.994	103.169	20.036	8.314	0.485
1096.000	634.617	80.009	19.995	103.167	20.034	8.451	0.495
1098.001	635.665	80.009	19.992	103.157	20.036	8.300	0.529
1100.001	636.660	80.009	19.995	103.162	20.039	8.037	0.517
1102.001	637.670	80.010	19.994	103.165	20.043	7.750	0.500
1104.000	638.710	80.008	19.995	103.165	20.038	8.117	0.522
1106.000	639.712	80.009	19.994	103.166	20.037	8.199	0.516
1108.000	640.727	80.009	19.994	103.165	20.043	7.771	0.480
1110.001	641.771	80.010	19.995	103.170	20.042	7.853	0.505
1112.001	642.813	80.010	19.992	103.171	20.045	7.554	0.519
1114.000	643.876	80.009	19.993	103.166	20.043	7.763	0.529
1116.001	644.866	80.009	19.994	103.165	20.041	7.908	0.502
1118.002	645.911	80.009	19.995	103.165	20.043	7.733	0.522
1120.000	646.932	80.009	19.994	103.166	20.048	7.369	0.504
1122.000	647.960	80.011	19.995	103.164	20.047	7.401	0.519
1124.000	648.999	80.012	19.995	103.165	20.047	7.411	0.523
1126.000	650.043	80.011	19.994	103.164	20.044	7.694	0.499
1128.000	651.063	80.010	19.992	103.166	20.047	7.416	0.499
1130.000	652.146	80.009	19.993	103.164	20.045	7.620	0.524
1132.000	653.150	80.009	19.993	103.163	20.046	7.472	0.508
1134.000	654.202	80.009	19.995	103.161	20.046	7.521	0.556
1136.000	655.269	80.007	19.994	103.165	20.046	7.521	0.540
1138.000	656.253	80.008	19.995	103.167	20.043	7.708	0.500
1140.000	657.239	80.007	19.995	103.167	20.043	7.754	0.493
1142.001	658.269	80.007	19.994	103.166	20.044	7.683	0.489
1144.000	659.263	80.007	19.994	103.163	20.050	7.233	0.511
1146.000	660.288	80.007	19.995	103.162	20.047	7.403	0.510
1148.000	661.298	80.007	19.995	103.167	20.048	7.380	0.524
1150.000	662.307	80.009	19.994	103.169	20.041	7.858	0.489
1152.000	663.299	80.006	19.993	103.164	20.046	7.527	0.494
1154.000	664.292	80.007	19.994	103.168	20.048	7.361	0.519
1156.000	665.296	80.007	19.994	103.169	20.051	7.135	0.496
1158.000	666.274	80.008	19.995	103.164	20.053	6.957	0.503
1160.000	667.322	80.007	19.995	103.166	20.051	7.105	0.527
1162.000	668.302	80.009	19.996	103.166	20.052	7.062	0.479
1164.001	669.305	80.007	19.996	103.166	20.044	7.699	0.480
1166.000	670.293	80.006	19.996	103.164	20.050	7.171	0.491
1168.001	671.356	80.006	19.995	103.163	20.052	7.079	0.503
1170.000	672.352	80.006	19.996	103.158	20.051	7.131	0.513
1172.000	673.386	80.007	19.997	103.154	20.053	6.952	0.525
1174.000	674.391	80.006	19.994	103.165	20.051	7.143	0.503
1176.001	675.422	80.007	19.996	103.162	20.046	7.500	0.511
1178.000	676.510	80.009	19.995	103.164	20.055	6.830	0.532
1180.000	677.493	80.009	19.995	103.165	20.051	7.091	0.526
1182.001	678.548	80.009	19.993	103.163	20.049	7.249	0.523
1184.000	679.599	80.009	19.996	103.156	20.050	7.228	0.520
1186.000	680.603	80.009	19.994	103.158	20.052	7.074	0.505
1188.000	681.587	80.008	19.994	103.164	20.050	7.168	0.486
1190.000	682.618	80.008	19.994	103.156	20.049	7.300	0.519
1192.000	683.601	80.010	19.995	103.156	20.049	7.255	0.500
1194.000	684.683	80.008	19.994	103.163	20.049	7.266	0.505
1196.000	685.689	80.007	19.994	103.163	20.050	7.232	0.508
1198.000	686.673	80.008	19.993	103.154	20.045	7.611	0.489
1200.000	687.699	80.009	19.995	103.157	20.046	7.470	0.456
1202.000	688.737	80.008	19.993	103.165	20.050	7.163	0.503
1204.000	689.718	80.011	19.995	103.158	20.048	7.354	0.469
1206.000	690.748	80.010	19.993	103.159	20.046	7.527	0.491
1208.000	691.772	80.012	19.994	103.162	20.054	6.929	0.489
1210.000	692.796	80.011	19.994	103.161	20.053	6.952	0.499
1212.000	693.797	80.010	19.993	103.167	20.047	7.415	0.495
1214.000	694.808	80.010	19.994	103.148	20.052	7.068	0.515
1216.000	695.865	80.008	19.993	103.162	20.048	7.321	0.536
1218.000	696.891	80.007	19.993	103.163	20.051	7.141	0.530
1220.001	697.888	80.006	19.994	103.155	20.045	7.563	0.519
1222.000	698.882	80.007	19.996	103.160	20.050	7.190	0.495
1224.000	699.867	80.008	19.995	103.166	20.049	7.242	0.493
1226.001	700.851	80.006	19.994	103.165	20.053	6.956	0.493
1228.000	701.864	80.008	19.995	103.160	20.052	7.084	0.503
1230.000	702.866	80.007	19.996	103.141	20.047	7.399	0.468
1232.000	703.901	80.008	19.996	103.147	20.045	7.549	0.531
1234.000	704.856	80.008	19.995	103.157	20.050	7.175	0.453
1236.000	705.877	80.009	19.995	103.151	20.054	6.926	0.492
1238.000	706.891	80.007	19.995	103.147	20.048	7.368	0.495
1240.000	707.860	80.007	19.995	103.143	20.052	7.008	0.466
1242.000	708.853	80.008	19.995	103.138	20.049	7.256	0.495
1244.001	709.862	80.008	19.995	103.162	20.054	6.880	0.492
1246.000	710.852	80.007	19.993	103.148	20.045	7.608	0.487
1248.000	711.834	80.008	19.994	103.151	20.050	7.222	0.487
1250.000	712.830	80.008	19.995	103.145	20.051	7.136	0.509
1252.001	713.847	80.008	19.995	103.150	20.051	7.088	0.488
1254.000	714.877	80.005	19.995	103.151	20.052	7.036	0.493
1256.000	715.940	80.008	19.994	103.150	20.048	7.367	0.505
1258.000	716.886	80.008	19.996	103.140	20.049	7.255	0.446
1260.000	717.897	80.008	19.995	103.133	20.054	6.908	0.476
1262.000	718.912	80.008	19.994	103.134	20.049	7.292	0.516
1264.000	719.944	80.009	19.996	103.146	20.049	7.252	0.517
1266.000	720.922	80.008	19.995	103.160	20.056	6.752	0.497
1268.001	721.925	80.010	19.996	103.157	20.050	7.170	0.509
1270.000	722.921	80.008	19.996	103.153	20.050	7.179	0.453
1272.000	723.926	80.009	19.995	103.156	20.049	7.249	0.500
1274.000	724.945	80.009	19.994	103.148	20.057	6.651	0.485
1276.000	726.009	80.006	19.993	103.147	20.053	6.971	0.534
1278.000	727.004	80.007	19.993	103.153	20.046	7.476	0.485
1280.000	728.048	80.008	19.994	103.146	20.051	7.097	0.493
1282.000	729.102	80.009	19.995	103.155	20.055	6.844	0.498
1284.000	730.100	80.008	19.995	103.162	20.053	6.968	0.510
1286.000	731.134	80.009	19.993	103.149	20.052	7.033	0.516
1288.000	732.154	80.010	19.995	103.157	20.055	6.809	0.492
1290.001	733.183	80.011	19.994	103.155	20.051	7.137	0.515
1292.000	734.177	80.010	19.995	103.148	20.046	7.499	0.496
1294.000	735.221	80.010	19.993	103.152	20.050	7.164	0.527
1296.000	736.222	80.010	19.994	103.142	20.050	7.165	0.522
1298.000	737.200	80.009	19.995	103.156	20.049	7.265	0.490
1300.000	738.238	80.008	19.994	103.150	20.048	7.355	0.535
1302.000	739.248	80.008	19.995	103.155	20.048	7.340	0.511
1304.000	740.243	80.008	19.994	103.151	20.052	7.072	0.465
1306.001	741.240	80.009	19.994	103.142	20.053	6.978	0.503
1308.000	742.280	80.008	19.994	103.142	20.053	6.984	0.499
1310.000	743.291	80.009	19.994	103.154	20.054	6.919	0.539
1310.501	743.524	80.010	19.994	103.149	20.049	7.247	0.507