File: 01_Data/Polyester_Microfiber_Sheet/MCC/Polyester_Microfiber_Sheet_MCC_30K_min_211209_R3.txt
Sample ID:	C:\MCC\MCC Cal\Test\Polyester_Microfiber_Sheet_MCC_30K_min_211209_R3.txt
Sample Weight (mg):	4.85
Heating Rate (C/s):	0.5
Combustor Temp (C):	900
N2 Flow Rate (cc/min):	80
O2 Flow Rate (cc/min):	20
Calibration File:	C:\MCC\MCC Cal\Coeff1 JN10440_30_210304.txt.txt
T Correction Coefficients:	0	1.024463	0
Time Shift (s):	14
*
Time (s)	Temperature (C)	N2 flow rate (cc/min)	O2 flow rate (cc/min)	Flow Rate (cc/min)	Oxygen (%)	HRR (W/g)	Heating rate (C/s)
0.000	108.004	80.011	19.993	103.045	19.867	0.050	0.006
2.000	108.012	80.023	19.997	103.049	19.870	-0.111	0.004
4.000	108.021	80.010	19.996	103.049	19.871	-0.202	0.014
6.000	108.022	80.010	19.994	103.049	19.872	-0.231	-0.007
8.000	108.050	80.007	19.993	103.055	19.872	-0.245	0.017
10.000	108.020	80.010	19.994	103.075	19.869	-0.023	0.003
12.000	108.004	80.009	19.994	103.111	19.867	0.115	-0.042
14.000	108.027	80.010	19.994	103.125	19.861	0.504	0.012
16.000	108.112	80.011	19.995	103.125	19.858	0.712	0.017
18.000	108.193	80.010	19.994	103.128	19.858	0.710	0.031
20.000	108.286	80.009	19.994	103.127	19.856	0.814	0.034
22.000	108.411	80.009	19.995	103.141	19.851	1.148	0.090
24.000	108.495	80.009	19.993	103.166	19.850	1.207	0.050
26.000	108.690	80.011	19.996	103.171	19.850	1.185	0.077
28.000	108.785	80.009	19.994	103.201	19.848	1.360	0.075
30.000	108.956	80.008	19.994	103.188	19.846	1.448	0.097
32.000	109.174	80.008	19.994	103.207	19.845	1.544	0.080
34.000	109.386	80.008	19.994	103.215	19.842	1.710	0.096
36.001	109.608	80.009	19.995	103.213	19.842	1.712	0.125
38.000	109.839	80.008	19.995	103.231	19.840	1.868	0.104
40.000	110.176	80.008	19.994	103.246	19.838	1.975	0.155
42.000	110.534	80.008	19.995	103.242	19.841	1.832	0.160
44.000	110.857	80.009	19.996	103.245	19.837	2.099	0.147
46.000	111.201	80.009	19.995	103.248	19.834	2.258	0.153
48.000	111.631	80.010	19.995	103.259	19.834	2.280	0.239
50.001	112.043	80.010	19.995	103.254	19.834	2.271	0.211
52.001	112.477	80.010	19.996	103.252	19.835	2.199	0.243
54.000	112.919	80.011	19.994	103.251	19.831	2.474	0.249
56.000	113.389	80.011	19.994	103.246	19.831	2.446	0.272
58.000	113.851	80.010	19.995	103.246	19.831	2.462	0.221
60.000	114.343	80.010	19.994	103.242	19.835	2.236	0.243
62.000	114.861	80.010	19.995	103.246	19.829	2.611	0.236
64.000	115.388	80.010	19.995	103.258	19.828	2.692	0.266
66.000	115.875	80.010	19.996	103.271	19.827	2.749	0.272
68.001	116.417	80.009	19.996	103.276	19.826	2.776	0.240
70.000	116.983	80.011	19.995	103.272	19.824	2.939	0.300
72.001	117.565	80.011	19.996	103.273	19.828	2.665	0.267
74.000	118.243	80.010	19.997	103.278	19.828	2.670	0.326
76.000	118.821	80.011	19.995	103.279	19.831	2.444	0.278
78.000	119.403	80.010	19.996	103.278	19.833	2.363	0.291
80.000	120.057	80.011	19.995	103.279	19.829	2.598	0.309
82.001	120.724	80.010	19.996	103.278	19.827	2.721	0.321
84.001	121.346	80.010	19.995	103.276	19.830	2.534	0.330
86.001	122.101	80.008	19.996	103.277	19.831	2.455	0.349
88.000	122.780	80.008	19.994	103.285	19.832	2.426	0.337
90.000	123.485	80.008	19.993	103.285	19.828	2.649	0.333
92.000	124.185	80.008	19.995	103.287	19.825	2.852	0.314
94.000	124.906	80.008	19.994	103.283	19.830	2.572	0.344
96.000	125.613	80.008	19.994	103.284	19.828	2.688	0.348
98.000	126.334	80.008	19.996	103.285	19.824	2.943	0.351
100.000	127.079	80.009	19.995	103.289	19.823	3.039	0.411
102.000	127.805	80.009	19.993	103.286	19.825	2.845	0.359
104.000	128.582	80.009	19.994	103.285	19.824	2.910	0.398
106.000	129.315	80.008	19.994	103.284	19.825	2.888	0.367
108.001	130.065	80.010	19.994	103.289	19.823	2.978	0.372
110.001	130.845	80.009	19.994	103.291	19.823	3.021	0.398
112.000	131.642	80.008	19.995	103.297	19.821	3.170	0.378
114.000	132.442	80.007	19.993	103.297	19.825	2.872	0.366
116.000	133.232	80.007	19.994	103.316	19.821	3.164	0.414
118.000	134.040	80.008	19.994	103.312	19.824	2.946	0.409
120.000	134.861	80.008	19.994	103.315	19.822	3.044	0.401
122.001	135.692	80.009	19.994	103.318	19.823	3.012	0.438
124.001	136.576	80.008	19.994	103.302	19.821	3.107	0.461
126.000	137.398	80.008	19.995	103.301	19.819	3.256	0.406
128.000	138.307	80.010	19.994	103.311	19.822	3.080	0.485
130.000	139.155	80.010	19.994	103.313	19.822	3.048	0.458
132.000	140.073	80.012	19.995	103.312	19.824	2.962	0.456
134.000	140.949	80.009	19.994	103.312	19.821	3.168	0.453
136.000	141.799	80.009	19.995	103.312	19.823	3.026	0.429
138.000	142.702	80.011	19.995	103.306	19.825	2.859	0.446
140.000	143.632	80.010	19.995	103.316	19.824	2.968	0.474
142.000	144.591	80.009	19.996	103.307	19.821	3.164	0.478
144.000	145.470	80.009	19.995	103.307	19.822	3.104	0.428
146.000	146.422	80.009	19.997	103.303	19.821	3.149	0.456
148.000	147.273	80.009	19.996	103.307	19.824	2.967	0.423
150.000	148.283	80.009	19.995	103.294	19.822	3.085	0.455
152.000	149.195	80.010	19.996	103.297	19.824	2.968	0.481
154.000	150.132	80.010	19.994	103.312	19.826	2.802	0.474
156.000	151.070	80.010	19.994	103.315	19.825	2.852	0.465
158.000	152.055	80.011	19.994	103.313	19.827	2.732	0.505
160.000	152.990	80.009	19.994	103.305	19.826	2.786	0.473
162.000	153.978	80.010	19.995	103.294	19.826	2.814	0.492
164.000	154.899	80.009	19.995	103.291	19.827	2.769	0.503
166.000	155.873	80.007	19.995	103.293	19.826	2.829	0.504
168.000	156.857	80.007	19.996	103.300	19.822	3.058	0.471
170.000	157.823	80.006	19.995	103.305	19.824	2.969	0.488
172.000	158.804	80.008	19.996	103.296	19.823	2.999	0.492
174.000	159.788	80.007	19.995	103.298	19.827	2.712	0.498
176.000	160.737	80.007	19.995	103.296	19.828	2.649	0.489
178.000	161.761	80.008	19.996	103.304	19.825	2.859	0.519
180.000	162.718	80.007	19.995	103.294	19.827	2.737	0.473
182.000	163.744	80.008	19.995	103.304	19.826	2.805	0.487
184.000	164.704	80.009	19.994	103.303	19.826	2.828	0.505
186.000	165.711	80.010	19.994	103.292	19.825	2.871	0.480
188.000	166.699	80.009	19.994	103.296	19.829	2.624	0.477
190.000	167.743	80.009	19.994	103.301	19.826	2.778	0.503
192.000	168.744	80.008	19.995	103.290	19.828	2.677	0.508
194.000	169.738	80.009	19.994	103.292	19.829	2.600	0.488
196.000	170.736	80.008	19.994	103.285	19.829	2.613	0.523
198.000	171.755	80.008	19.995	103.286	19.831	2.466	0.513
200.000	172.704	80.009	19.995	103.282	19.830	2.559	0.501
202.000	173.764	80.008	19.995	103.283	19.827	2.729	0.523
204.000	174.756	80.008	19.994	103.284	19.831	2.444	0.508
206.000	175.755	80.009	19.996	103.285	19.832	2.376	0.491
208.000	176.729	80.009	19.996	103.279	19.833	2.358	0.478
210.000	177.752	80.008	19.995	103.278	19.832	2.408	0.519
212.000	178.777	80.011	19.993	103.281	19.831	2.466	0.517
214.000	179.769	80.011	19.994	103.282	19.829	2.609	0.492
216.000	180.775	80.009	19.994	103.278	19.831	2.455	0.482
218.000	181.790	80.010	19.994	103.281	19.831	2.446	0.534
220.000	182.825	80.011	19.994	103.275	19.832	2.410	0.524
222.000	183.789	80.010	19.993	103.276	19.830	2.519	0.495
224.000	184.782	80.009	19.993	103.282	19.829	2.595	0.511
226.000	185.811	80.009	19.993	103.281	19.833	2.354	0.504
228.000	186.798	80.008	19.994	103.273	19.831	2.476	0.507
230.001	187.821	80.009	19.994	103.282	19.832	2.408	0.482
232.000	188.847	80.009	19.995	103.279	19.830	2.550	0.481
234.000	189.807	80.009	19.995	103.272	19.830	2.519	0.479
236.000	190.830	80.009	19.995	103.275	19.833	2.363	0.502
238.000	191.813	80.010	19.995	103.256	19.833	2.330	0.497
240.000	192.810	80.011	19.994	103.267	19.833	2.365	0.513
242.000	193.776	80.010	19.994	103.269	19.831	2.494	0.469
244.000	194.792	80.010	19.994	103.272	19.832	2.391	0.496
246.000	195.759	80.009	19.993	103.276	19.834	2.266	0.489
248.000	196.737	80.007	19.995	103.257	19.834	2.264	0.502
250.000	197.767	80.009	19.995	103.253	19.835	2.178	0.522
252.000	198.796	80.009	19.994	103.258	19.836	2.172	0.521
254.001	199.736	80.008	19.994	103.249	19.835	2.181	0.493
256.000	200.700	80.007	19.995	103.254	19.832	2.416	0.504
258.000	201.711	80.007	19.996	103.248	19.832	2.409	0.512
260.000	202.704	80.007	19.994	103.257	19.835	2.217	0.472
262.000	203.657	80.008	19.995	103.244	19.838	2.029	0.473
264.000	204.701	80.008	19.994	103.243	19.835	2.232	0.526
266.000	205.686	80.008	19.996	103.248	19.837	2.092	0.515
268.000	206.669	80.008	19.995	103.254	19.834	2.244	0.483
270.000	207.660	80.008	19.995	103.256	19.834	2.303	0.468
272.000	208.660	80.009	19.996	103.243	19.836	2.172	0.504
274.000	209.630	80.008	19.994	103.244	19.835	2.180	0.519
276.000	210.655	80.009	19.994	103.246	19.837	2.067	0.476
278.000	211.636	80.008	19.994	103.246	19.835	2.192	0.485
280.000	212.619	80.007	19.995	103.246	19.839	1.964	0.505
282.000	213.582	80.008	19.994	103.243	19.837	2.056	0.473
284.000	214.548	80.007	19.994	103.245	19.838	2.009	0.476
286.000	215.565	80.007	19.994	103.253	19.835	2.181	0.501
288.000	216.567	80.008	19.994	103.256	19.835	2.181	0.507
290.000	217.551	80.008	19.993	103.247	19.835	2.198	0.495
292.000	218.512	80.008	19.994	103.254	19.837	2.101	0.482
294.000	219.536	80.010	19.994	103.251	19.840	1.875	0.537
296.000	220.464	80.008	19.994	103.252	19.841	1.812	0.469
298.001	221.475	80.008	19.995	103.253	19.840	1.848	0.463
300.000	222.455	80.008	19.993	103.245	19.840	1.902	0.465
302.000	223.442	80.008	19.994	103.253	19.837	2.083	0.541
304.000	224.446	80.008	19.994	103.246	19.838	1.984	0.501
306.000	225.431	80.008	19.994	103.248	19.840	1.867	0.518
308.000	226.427	80.008	19.993	103.247	19.839	1.916	0.506
310.000	227.414	80.008	19.994	103.245	19.839	1.962	0.472
312.000	228.417	80.008	19.994	103.250	19.843	1.681	0.502
314.000	229.434	80.009	19.993	103.246	19.840	1.905	0.499
316.000	230.430	80.009	19.993	103.244	19.840	1.849	0.475
318.000	231.421	80.011	19.994	103.244	19.842	1.735	0.497
320.000	232.474	80.012	19.993	103.240	19.840	1.900	0.547
322.000	233.430	80.009	19.994	103.240	19.841	1.828	0.506
324.000	234.448	80.010	19.995	103.241	19.839	1.957	0.503
326.000	235.435	80.009	19.995	103.240	19.842	1.744	0.497
328.000	236.440	80.009	19.993	103.240	19.842	1.742	0.485
330.000	237.445	80.009	19.993	103.238	19.844	1.598	0.494
332.000	238.442	80.007	19.994	103.237	19.844	1.634	0.512
334.000	239.424	80.007	19.995	103.237	19.842	1.733	0.504
336.000	240.421	80.007	19.994	103.236	19.844	1.578	0.509
338.000	241.423	80.007	19.994	103.236	19.845	1.528	0.482
340.000	242.495	80.008	19.995	103.235	19.848	1.372	0.519
342.000	243.492	80.008	19.994	103.232	19.846	1.491	0.503
344.000	244.481	80.007	19.994	103.220	19.843	1.645	0.467
346.000	245.508	80.007	19.994	103.237	19.848	1.349	0.494
348.001	246.516	80.007	19.994	103.231	19.846	1.455	0.506
350.000	247.541	80.007	19.994	103.239	19.848	1.370	0.525
352.000	248.579	80.008	19.996	103.234	19.847	1.401	0.515
354.000	249.632	80.007	19.995	103.230	19.847	1.395	0.556
356.000	250.658	80.006	19.996	103.229	19.850	1.228	0.500
358.000	251.640	80.006	19.996	103.239	19.845	1.542	0.500
360.000	252.652	80.008	19.996	103.227	19.850	1.236	0.481
362.000	253.601	80.006	19.996	103.215	19.847	1.383	0.482
364.000	254.572	80.007	19.995	103.233	19.849	1.272	0.483
366.000	255.622	80.006	19.996	103.222	19.852	1.069	0.488
368.000	256.603	80.007	19.995	103.219	19.853	1.035	0.499
370.000	257.577	80.007	19.994	103.222	19.850	1.189	0.507
372.000	258.530	80.006	19.994	103.218	19.850	1.182	0.471
374.000	259.553	80.008	19.994	103.223	19.849	1.306	0.517
376.000	260.530	80.009	19.994	103.224	19.852	1.072	0.497
378.000	261.528	80.008	19.994	103.223	19.851	1.167	0.513
380.000	262.547	80.010	19.994	103.232	19.853	1.013	0.499
382.000	263.497	80.008	19.993	103.218	19.848	1.332	0.468
384.000	264.462	80.009	19.994	103.215	19.850	1.223	0.478
386.000	265.445	80.009	19.996	103.217	19.852	1.085	0.490
388.000	266.424	80.009	19.995	103.216	19.851	1.126	0.485
390.000	267.464	80.008	19.995	103.208	19.849	1.259	0.492
392.000	268.409	80.007	19.994	103.213	19.853	1.040	0.481
394.000	269.393	80.009	19.995	103.210	19.854	0.915	0.477
396.000	270.415	80.009	19.993	103.216	19.851	1.124	0.521
398.000	271.449	80.009	19.995	103.225	19.852	1.074	0.532
400.000	272.432	80.009	19.994	103.209	19.850	1.210	0.503
402.000	273.410	80.010	19.993	103.220	19.852	1.053	0.494
404.000	274.387	80.011	19.994	103.220	19.850	1.203	0.520
406.000	275.364	80.010	19.994	103.210	19.855	0.904	0.486
408.000	276.367	80.009	19.993	103.217	19.853	1.013	0.466
410.000	277.354	80.010	19.994	103.205	19.856	0.812	0.481
412.000	278.324	80.007	19.994	103.215	19.855	0.902	0.471
414.000	279.387	80.008	19.994	103.224	19.850	1.216	0.511
416.000	280.351	80.006	19.995	103.211	19.855	0.889	0.471
418.000	281.353	80.008	19.996	103.209	19.853	1.020	0.479
420.000	282.372	80.008	19.994	103.213	19.855	0.871	0.481
422.000	283.394	80.007	19.995	103.210	19.854	0.934	0.502
424.000	284.387	80.006	19.994	103.222	19.855	0.879	0.481
426.000	285.394	80.008	19.994	103.219	19.857	0.732	0.519
428.000	286.401	80.008	19.994	103.211	19.857	0.726	0.510
430.000	287.404	80.007	19.993	103.207	19.857	0.760	0.516
432.000	288.404	80.007	19.995	103.209	19.851	1.124	0.507
434.000	289.384	80.005	19.994	103.212	19.852	1.071	0.483
436.000	290.417	80.007	19.995	103.207	19.855	0.897	0.523
438.000	291.408	80.006	19.993	103.209	19.856	0.794	0.479
440.000	292.430	80.007	19.994	103.209	19.857	0.776	0.525
442.000	293.451	80.007	19.994	103.208	19.857	0.773	0.500
444.000	294.450	80.005	19.996	103.208	19.855	0.902	0.505
446.000	295.440	80.005	19.996	103.209	19.857	0.767	0.500
448.000	296.395	80.005	19.996	103.206	19.851	1.112	0.484
450.000	297.456	80.007	19.996	103.204	19.857	0.735	0.494
452.000	298.519	80.006	19.995	103.204	19.858	0.672	0.528
454.000	299.497	80.007	19.996	103.203	19.857	0.766	0.506
456.000	300.523	80.006	19.994	103.203	19.860	0.545	0.514
458.000	301.508	80.007	19.995	103.206	19.855	0.888	0.500
460.000	302.530	80.008	19.993	103.203	19.859	0.640	0.528
462.000	303.533	80.009	19.994	103.204	19.857	0.760	0.516
464.000	304.574	80.008	19.994	103.201	19.858	0.671	0.514
466.000	305.520	80.009	19.994	103.203	19.854	0.972	0.478
468.000	306.534	80.009	19.996	103.204	19.856	0.832	0.484
470.000	307.526	80.007	19.996	103.204	19.853	0.999	0.480
472.000	308.547	80.008	19.994	103.203	19.856	0.785	0.492
474.000	309.595	80.008	19.992	103.200	19.857	0.728	0.503
476.000	310.570	80.008	19.993	103.203	19.860	0.568	0.472
478.000	311.591	80.009	19.995	103.204	19.859	0.597	0.468
480.000	312.603	80.009	19.993	103.202	19.860	0.536	0.514
482.000	313.591	80.009	19.993	103.205	19.861	0.464	0.503
484.000	314.635	80.010	19.994	103.204	19.858	0.689	0.534
486.000	315.603	80.010	19.993	103.204	19.856	0.787	0.507
488.000	316.641	80.010	19.994	103.204	19.860	0.574	0.509
490.000	317.620	80.009	19.994	103.205	19.859	0.635	0.530
492.000	318.649	80.009	19.994	103.202	19.858	0.681	0.524
494.000	319.688	80.008	19.995	103.205	19.856	0.780	0.518
496.000	320.650	80.007	19.994	103.205	19.857	0.744	0.501
498.000	321.693	80.007	19.994	103.204	19.856	0.785	0.531
500.000	322.647	80.006	19.993	103.201	19.859	0.640	0.512
502.000	323.663	80.007	19.993	103.203	19.859	0.628	0.486
504.000	324.663	80.006	19.994	103.206	19.859	0.606	0.500
506.000	325.678	80.008	19.993	103.208	19.858	0.701	0.517
508.000	326.666	80.007	19.994	103.207	19.858	0.681	0.484
510.000	327.654	80.007	19.995	103.204	19.858	0.681	0.481
512.000	328.692	80.008	19.995	103.204	19.858	0.662	0.512
514.000	329.665	80.008	19.994	103.202	19.859	0.615	0.482
516.000	330.688	80.007	19.996	103.201	19.859	0.633	0.516
518.000	331.699	80.007	19.993	103.202	19.856	0.834	0.498
520.000	332.731	80.007	19.995	103.202	19.857	0.717	0.517
522.000	333.740	80.008	19.995	103.201	19.863	0.335	0.510
524.000	334.757	80.006	19.995	103.202	19.860	0.561	0.516
526.000	335.779	80.007	19.996	103.202	19.858	0.649	0.503
528.000	336.784	80.005	19.994	103.203	19.856	0.785	0.509
530.000	337.785	80.007	19.996	103.196	19.860	0.567	0.510
532.000	338.779	80.007	19.994	103.202	19.857	0.760	0.480
534.000	339.819	80.008	19.993	103.196	19.858	0.647	0.547
536.000	340.865	80.007	19.994	103.194	19.858	0.680	0.533
538.000	341.851	80.008	19.994	103.198	19.861	0.497	0.506
540.000	342.863	80.009	19.995	103.195	19.858	0.669	0.496
542.000	343.869	80.008	19.995	103.196	19.856	0.818	0.493
544.000	344.890	80.009	19.995	103.194	19.859	0.608	0.523
546.000	345.893	80.008	19.997	103.197	19.860	0.565	0.511
548.000	346.910	80.008	19.995	103.200	19.859	0.599	0.496
550.000	347.919	80.008	19.996	103.194	19.862	0.386	0.498
552.000	348.946	80.007	19.995	103.194	19.861	0.500	0.508
554.000	349.973	80.008	19.995	103.197	19.859	0.631	0.528
556.000	351.021	80.008	19.993	103.195	19.860	0.545	0.515
558.000	352.019	80.007	19.994	103.203	19.856	0.837	0.524
560.000	353.070	80.009	19.992	103.201	19.861	0.500	0.534
562.000	354.074	80.010	19.995	103.194	19.860	0.538	0.495
564.000	355.134	80.009	19.993	103.189	19.859	0.642	0.492
566.000	356.115	80.009	19.996	103.200	19.858	0.705	0.497
568.000	357.150	80.010	19.995	103.197	19.857	0.714	0.521
570.000	358.189	80.010	19.995	103.187	19.853	1.008	0.528
572.000	359.180	80.011	19.994	103.194	19.855	0.898	0.498
574.000	360.173	80.007	19.995	103.194	19.852	1.088	0.489
576.000	361.218	80.007	19.996	103.196	19.851	1.122	0.487
578.001	362.238	80.008	19.996	103.189	19.848	1.350	0.500
580.000	363.210	80.007	19.994	103.188	19.846	1.506	0.484
582.000	364.221	80.008	19.994	103.191	19.847	1.442	0.520
584.000	365.226	80.008	19.995	103.202	19.843	1.691	0.507
586.000	366.257	80.008	19.995	103.198	19.843	1.698	0.511
588.000	367.234	80.008	19.995	103.193	19.840	1.899	0.541
590.000	368.239	80.007	19.995	103.201	19.836	2.150	0.478
592.000	369.243	80.008	19.995	103.199	19.829	2.580	0.487
594.000	370.262	80.008	19.994	103.196	19.826	2.799	0.502
596.000	371.247	80.008	19.994	103.196	19.823	2.987	0.494
598.000	372.281	80.007	19.995	103.200	19.820	3.219	0.517
600.000	373.353	80.009	19.996	103.202	19.817	3.421	0.543
602.000	374.366	80.007	19.996	103.203	19.810	3.841	0.498
604.000	375.367	80.006	19.995	103.199	19.803	4.332	0.513
606.000	376.365	80.006	19.996	103.199	19.802	4.374	0.500
608.000	377.407	80.006	19.996	103.198	19.794	4.901	0.526
610.000	378.423	80.005	19.996	103.205	19.790	5.188	0.504
612.000	379.466	80.007	19.996	103.206	19.787	5.425	0.513
614.000	380.523	80.006	19.996	103.208	19.778	6.015	0.537
616.000	381.523	80.008	19.993	103.211	19.771	6.426	0.561
618.000	382.520	80.009	19.993	103.213	19.765	6.844	0.485
620.000	383.594	80.008	19.998	103.207	19.756	7.475	0.521
622.000	384.589	80.009	19.995	103.212	19.743	8.313	0.506
624.000	385.622	80.010	19.997	103.219	19.737	8.722	0.507
626.000	386.628	80.009	19.996	103.221	19.725	9.538	0.509
628.000	387.694	80.007	19.994	103.240	19.718	9.958	0.550
630.000	388.697	80.006	19.995	103.244	19.700	11.146	0.498
632.000	389.712	80.007	19.995	103.247	19.692	11.710	0.504
634.000	390.778	80.007	19.996	103.250	19.676	12.769	0.524
636.000	391.777	80.004	19.995	103.245	19.659	13.929	0.503
638.000	392.816	80.008	19.996	103.244	19.643	14.934	0.506
640.000	393.813	80.008	19.996	103.246	19.629	15.864	0.522
642.000	394.889	80.008	19.995	103.258	19.610	17.147	0.542
644.000	395.894	80.009	19.996	103.290	19.597	18.037	0.503
646.000	397.001	80.008	19.994	103.275	19.584	18.887	0.563
648.000	397.993	80.010	19.994	103.272	19.569	19.877	0.506
650.000	399.050	80.011	19.995	103.272	19.561	20.432	0.511
652.000	400.126	80.012	19.994	103.292	19.545	21.470	0.517
654.000	401.161	80.008	19.996	103.317	19.528	22.638	0.550
656.000	402.208	80.005	19.994	103.325	19.504	24.208	0.535
658.000	403.232	80.007	19.995	103.326	19.482	25.676	0.533
660.000	404.303	80.007	19.994	103.319	19.462	27.043	0.514
662.000	405.326	80.007	19.995	103.321	19.436	28.709	0.537
664.000	406.356	80.007	19.994	103.336	19.409	30.578	0.511
666.000	407.395	80.007	19.994	103.357	19.372	33.031	0.547
668.000	408.435	80.007	19.992	103.378	19.342	35.025	0.509
670.000	409.512	80.007	19.994	103.373	19.312	36.999	0.544
672.000	410.539	80.007	19.995	103.360	19.280	39.164	0.511
674.000	411.540	80.007	19.995	103.383	19.243	41.607	0.501
676.000	412.594	80.009	19.995	103.423	19.207	44.055	0.524
678.000	413.652	80.007	19.993	103.451	19.171	46.459	0.532
680.000	414.632	80.007	19.994	103.458	19.131	49.093	0.490
682.000	415.698	80.008	19.993	103.456	19.084	52.243	0.542
684.000	416.671	80.007	19.995	103.477	19.033	55.668	0.521
686.000	417.708	80.006	19.997	103.493	18.986	58.807	0.518
688.000	418.731	80.005	19.995	103.512	18.932	62.384	0.498
690.000	419.785	80.008	19.994	103.534	18.867	66.766	0.565
692.000	420.792	80.006	19.994	103.573	18.800	71.297	0.550
694.000	421.801	80.005	19.994	103.581	18.740	75.262	0.478
696.000	422.847	80.007	19.993	103.592	18.679	79.412	0.542
698.000	423.814	80.005	19.995	103.584	18.617	83.535	0.470
700.000	424.805	80.007	19.995	103.617	18.548	88.173	0.496
702.000	425.833	80.009	19.994	103.705	18.474	93.136	0.503
704.000	426.824	80.008	19.997	103.705	18.379	99.495	0.482
706.000	427.818	80.009	19.995	103.762	18.284	105.837	0.478
708.000	428.834	80.007	19.996	103.750	18.193	112.037	0.537
710.000	429.804	80.008	19.995	103.806	18.098	118.390	0.455
712.000	430.821	80.009	19.996	103.792	17.990	125.645	0.523
714.000	431.843	80.009	19.995	103.856	17.905	131.274	0.495
716.000	432.827	80.006	19.994	103.864	17.827	136.416	0.466
718.000	433.817	80.009	19.995	103.886	17.730	143.017	0.483
720.000	434.871	80.010	19.995	103.965	17.633	149.689	0.521
722.000	435.887	80.009	19.996	103.969	17.566	154.190	0.512
724.000	436.883	80.009	19.996	104.001	17.521	157.154	0.493
726.000	437.888	80.008	19.996	103.926	17.482	159.808	0.475
728.000	438.911	80.010	19.993	103.920	17.451	161.860	0.512
730.000	439.893	80.011	19.996	104.042	17.426	163.542	0.502
732.000	440.943	80.008	19.994	104.095	17.402	165.151	0.501
734.000	441.935	80.009	19.997	104.091	17.381	166.564	0.511
736.000	442.920	80.008	19.995	104.075	17.363	167.798	0.501
738.000	443.920	80.008	19.996	104.098	17.346	168.883	0.486
740.000	444.904	80.006	19.995	104.099	17.331	169.865	0.483
742.000	445.938	80.006	19.993	104.104	17.314	171.014	0.516
744.000	446.940	80.007	19.995	104.119	17.309	171.288	0.510
746.000	447.962	80.004	19.996	104.103	17.317	170.750	0.506
748.000	448.979	80.007	19.995	104.088	17.334	169.585	0.495
750.001	450.043	80.006	19.995	104.075	17.360	167.751	0.519
752.000	451.010	80.006	19.995	104.063	17.395	165.404	0.509
754.000	452.024	80.005	19.994	104.064	17.450	161.678	0.518
756.000	453.047	80.005	19.995	104.052	17.508	157.695	0.501
758.000	454.093	80.006	19.995	104.015	17.584	152.576	0.497
760.000	455.124	80.008	19.993	103.994	17.671	146.723	0.524
762.000	456.160	80.005	19.995	103.960	17.771	139.987	0.544
764.000	457.177	80.007	19.993	103.932	17.880	132.653	0.528
766.000	458.184	80.006	19.993	103.897	17.991	125.200	0.500
768.000	459.229	80.004	19.995	103.855	18.108	117.340	0.543
770.000	460.241	80.006	19.995	103.823	18.228	109.336	0.506
772.000	461.226	80.005	19.994	103.778	18.353	100.965	0.498
774.000	462.255	80.006	19.994	103.741	18.484	92.229	0.511
776.000	463.315	80.007	19.992	103.697	18.617	83.351	0.520
778.000	464.359	80.009	19.996	103.651	18.750	74.412	0.520
780.000	465.338	80.007	19.993	103.614	18.868	66.542	0.492
782.000	466.373	80.008	19.996	103.595	18.977	59.308	0.549
784.000	467.386	80.010	19.992	103.576	19.075	52.745	0.517
786.000	468.363	80.008	19.994	103.536	19.163	46.875	0.495
788.000	469.390	80.009	19.993	103.494	19.236	42.042	0.515
790.001	470.434	80.005	19.996	103.461	19.305	37.478	0.508
792.000	471.456	80.008	19.995	103.436	19.365	33.478	0.516
794.000	472.474	80.009	19.994	103.414	19.419	29.874	0.542
796.000	473.518	80.008	19.995	103.390	19.466	26.728	0.534
798.000	474.586	80.006	19.998	103.360	19.511	23.733	0.529
800.000	475.648	80.009	19.996	103.357	19.546	21.398	0.512
802.000	476.674	80.010	19.995	103.341	19.580	19.147	0.524
804.000	477.686	80.007	19.994	103.325	19.611	17.110	0.543
806.000	478.765	80.008	19.995	103.318	19.637	15.352	0.525
808.000	479.825	80.009	19.994	103.305	19.660	13.822	0.528
810.000	480.817	80.009	19.994	103.295	19.684	12.215	0.468
812.000	481.854	80.008	19.995	103.290	19.699	11.256	0.514
814.000	482.912	80.008	19.996	103.270	19.719	9.905	0.512
816.000	483.941	80.004	19.996	103.270	19.736	8.752	0.510
818.000	484.958	80.006	19.996	103.259	19.749	7.921	0.481
820.000	486.017	80.005	19.996	103.261	19.763	7.015	0.515
822.000	487.027	80.006	19.996	103.244	19.771	6.479	0.495
824.000	488.067	80.005	19.995	103.244	19.779	5.923	0.542
826.000	489.124	80.004	19.996	103.242	19.789	5.235	0.489
828.000	490.154	80.006	19.994	103.238	19.799	4.625	0.518
830.000	491.208	80.006	19.995	103.238	19.803	4.357	0.507
832.000	492.177	80.006	19.995	103.224	19.811	3.823	0.481
834.000	493.281	80.008	19.996	103.217	19.819	3.256	0.517
836.000	494.300	80.006	19.997	103.209	19.820	3.192	0.526
838.000	495.355	80.006	19.996	103.207	19.828	2.657	0.543
840.000	496.407	80.008	19.993	103.203	19.828	2.652	0.550
842.000	497.444	80.006	19.995	103.203	19.835	2.221	0.520
844.000	498.489	80.006	19.995	103.201	19.838	1.984	0.494
846.000	499.533	80.007	19.992	103.201	19.843	1.701	0.527
848.000	500.599	80.005	19.995	103.201	19.845	1.569	0.513
850.000	501.597	80.007	19.996	103.190	19.846	1.447	0.548
852.000	502.624	80.006	19.996	103.179	19.846	1.450	0.516
854.000	503.655	80.007	19.995	103.170	19.851	1.154	0.521
856.000	504.693	80.006	19.996	103.174	19.853	1.007	0.521
858.000	505.689	80.008	19.995	103.174	19.855	0.896	0.488
860.000	506.730	80.008	19.995	103.168	19.857	0.751	0.515
862.000	507.698	80.008	19.994	103.166	19.858	0.704	0.456
864.000	508.711	80.008	19.996	103.166	19.858	0.679	0.482
866.000	509.724	80.009	19.995	103.164	19.861	0.470	0.533
868.000	510.762	80.007	19.996	103.169	19.861	0.482	0.537
870.000	511.780	80.009	19.992	103.166	19.858	0.660	0.503
872.000	512.812	80.007	19.993	103.164	19.860	0.538	0.490
874.000	513.836	80.008	19.995	103.167	19.860	0.525	0.545
876.000	514.872	80.009	19.995	103.166	19.862	0.394	0.529
878.000	515.858	80.007	19.994	103.163	19.863	0.328	0.514
880.000	516.938	80.008	19.993	103.168	19.861	0.479	0.508
882.000	517.951	80.006	19.995	103.167	19.866	0.176	0.520
884.000	518.992	80.009	19.996	103.166	19.867	0.082	0.537
886.000	519.974	80.006	19.996	103.164	19.867	0.081	0.499
888.000	520.995	80.010	19.997	103.159	19.867	0.106	0.473
890.000	521.969	80.008	19.994	103.161	19.869	-0.059	0.497
892.000	523.033	80.010	19.994	103.158	19.865	0.219	0.523
894.000	524.031	80.011	19.994	103.157	19.868	0.047	0.497
896.000	525.107	80.006	19.995	103.164	19.872	-0.276	0.479
898.000	526.028	80.008	19.995	103.162	19.867	0.072	0.439
900.001	527.131	80.008	19.994	103.161	19.875	-0.446	0.537
902.000	527.991	80.007	19.995	103.143	19.873	-0.296	0.560
904.000	529.174	80.005	19.994	103.157	19.872	-0.256	0.550
906.000	529.786	80.006	19.995	103.156	19.870	-0.090	0.523
908.000	530.899	80.004	19.995	103.153	19.869	-0.075	0.427
910.000	532.190	80.006	19.996	103.153	19.872	-0.231	0.440
912.000	533.343	80.004	19.996	103.147	19.869	-0.050	0.480
914.000	534.677	80.006	19.994	103.147	19.868	0.030	0.717
916.000	535.466	80.008	19.995	103.149	19.870	-0.125	0.957
918.000	536.290	80.005	19.995	103.153	19.874	-0.357	0.687
920.000	537.341	80.006	19.996	103.152	19.872	-0.240	0.549
922.000	538.175	80.005	19.994	103.146	19.876	-0.547	0.467
924.000	539.304	80.008	19.997	103.148	19.873	-0.332	0.520
926.000	540.231	80.007	19.996	103.156	19.872	-0.249	0.451
928.000	541.281	80.006	19.995	103.156	19.877	-0.574	0.468
930.000	542.361	80.005	19.993	103.151	19.877	-0.554	0.549
932.000	543.288	80.007	19.995	103.156	19.875	-0.468	0.516
934.000	544.369	80.006	19.994	103.145	19.875	-0.473	0.500
936.000	545.347	80.006	19.995	103.149	19.875	-0.421	0.502
938.000	546.297	80.006	19.993	103.159	19.875	-0.448	0.528
940.000	547.295	80.006	19.994	103.160	19.874	-0.362	0.526
942.000	548.331	80.006	19.996	103.167	19.874	-0.358	0.513
944.000	549.352	80.008	19.994	103.151	19.879	-0.744	0.567
946.000	550.300	80.008	19.994	103.151	19.878	-0.672	0.496
948.000	551.316	80.007	19.997	103.152	19.874	-0.382	0.522
950.000	552.297	80.009	19.995	103.160	19.876	-0.513	0.531
952.000	553.304	80.008	19.995	103.152	19.874	-0.382	0.464
954.000	554.326	80.007	19.995	103.160	19.876	-0.498	0.503
956.000	555.322	80.008	19.993	103.161	19.875	-0.452	0.499
958.000	556.339	80.006	19.993	103.161	19.871	-0.181	0.502
960.000	557.362	80.007	19.994	103.149	19.875	-0.444	0.539
962.000	558.313	80.008	19.995	103.157	19.878	-0.652	0.502
964.000	559.349	80.006	19.994	103.151	19.877	-0.561	0.485
966.000	560.365	80.010	19.995	103.148	19.877	-0.561	0.518
968.000	561.393	80.011	19.993	103.147	19.875	-0.432	0.511
970.001	562.412	80.011	19.996	103.154	19.873	-0.332	0.482
972.000	563.414	80.011	19.994	103.152	19.874	-0.401	0.503
974.000	564.476	80.009	19.995	103.161	19.878	-0.649	0.519
976.000	565.439	80.007	19.995	103.160	19.877	-0.586	0.487
978.000	566.490	80.008	19.996	103.142	19.877	-0.566	0.537
980.000	567.465	80.006	19.995	103.150	19.876	-0.505	0.503
982.000	568.497	80.005	19.996	103.159	19.880	-0.785	0.526
984.000	569.522	80.010	19.997	103.146	19.874	-0.412	0.522
986.000	570.534	80.007	19.995	103.148	19.875	-0.453	0.518
988.000	571.550	80.006	19.996	103.156	19.873	-0.349	0.517
990.000	572.591	80.007	19.995	103.150	19.875	-0.432	0.499
992.000	573.597	80.006	19.996	103.152	19.874	-0.392	0.503
994.000	574.662	80.007	19.995	103.141	19.875	-0.477	0.516
996.000	575.697	80.006	19.994	103.136	19.875	-0.430	0.493
998.000	576.669	80.007	19.995	103.157	19.874	-0.383	0.462
1000.000	577.721	80.006	19.995	103.137	19.873	-0.290	0.519
1002.000	578.717	80.007	19.996	103.139	19.876	-0.493	0.479
1004.000	579.760	80.007	19.996	103.141	19.871	-0.165	0.515
1006.000	580.743	80.005	19.995	103.140	19.874	-0.391	0.530
1008.000	581.750	80.006	19.996	103.141	19.874	-0.376	0.508
1010.000	582.796	80.005	19.997	103.140	19.872	-0.255	0.543
1012.000	583.787	80.005	19.995	103.144	19.872	-0.236	0.508
1014.000	584.775	80.004	19.995	103.154	19.868	0.002	0.499
1016.000	585.851	80.005	19.995	103.138	19.873	-0.292	0.507
1018.000	586.858	80.007	19.996	103.138	19.868	0.030	0.523
1020.000	587.871	80.006	19.995	103.149	19.867	0.075	0.493
1022.000	588.889	80.008	19.993	103.125	19.867	0.111	0.524
1024.000	589.910	80.009	19.995	103.107	19.871	-0.158	0.533
1026.000	590.923	80.009	19.995	103.179	19.871	-0.172	0.518
1028.000	591.886	80.008	19.995	103.186	19.871	-0.185	0.479
1030.000	592.962	80.008	19.995	103.137	19.869	-0.084	0.520
1032.000	594.029	80.008	19.995	103.151	19.868	0.002	0.547
1034.000	595.080	80.009	19.995	103.140	19.867	0.113	0.560
1036.000	596.111	80.008	19.995	103.152	19.868	-0.007	0.539
1038.000	597.129	80.008	19.997	103.156	19.869	-0.038	0.497
1040.001	598.130	80.008	19.994	103.148	19.869	-0.034	0.512
1042.000	599.175	80.009	19.995	103.138	19.866	0.145	0.510
1044.000	600.180	80.007	19.994	103.151	19.867	0.050	0.490
1046.001	601.191	80.009	19.995	103.140	19.869	-0.036	0.510
1048.000	602.205	80.010	19.994	103.144	19.869	-0.034	0.503
1050.000	603.258	80.010	19.993	103.144	19.868	0.013	0.505
1052.000	604.251	80.010	19.994	103.150	19.871	-0.206	0.507
1054.000	605.300	80.010	19.995	103.150	19.867	0.088	0.492
1056.000	606.333	80.009	19.995	103.148	19.869	-0.072	0.523
1058.001	607.366	80.006	19.994	103.132	19.866	0.149	0.518
1060.000	608.435	80.006	19.995	103.141	19.867	0.059	0.557
1062.000	609.409	80.006	19.994	103.149	19.868	0.009	0.505
1064.000	610.464	80.006	19.996	103.144	19.868	-0.013	0.515
1066.000	611.513	80.006	19.995	103.139	19.870	-0.118	0.514
1068.000	612.504	80.007	19.996	103.138	19.871	-0.208	0.502
1070.000	613.530	80.006	19.995	103.148	19.868	0.043	0.496
1072.000	614.592	80.005	19.995	103.134	19.868	-0.016	0.522
1074.000	615.624	80.007	19.995	103.128	19.869	-0.066	0.518
1076.000	616.610	80.008	19.995	103.128	19.870	-0.136	0.498
1078.000	617.618	80.008	19.995	103.133	19.874	-0.407	0.534
1080.000	618.677	80.007	19.996	103.133	19.865	0.229	0.506
1082.000	619.681	80.006	19.994	103.136	19.869	-0.048	0.506
1084.000	620.690	80.005	19.995	103.136	19.872	-0.271	0.504
1086.000	621.681	80.007	19.994	103.133	19.868	0.020	0.512
1088.000	622.708	80.005	19.995	103.134	19.871	-0.161	0.515
1090.000	623.732	80.005	19.995	103.130	19.870	-0.109	0.502
1092.000	624.751	80.005	19.997	103.132	19.872	-0.247	0.511
1094.000	625.758	80.005	19.996	103.131	19.874	-0.378	0.535
1096.000	626.775	80.006	19.996	103.129	19.873	-0.287	0.539
1098.000	627.788	80.004	19.997	103.139	19.875	-0.439	0.516
1100.000	628.773	80.006	19.996	103.134	19.872	-0.237	0.496
1102.000	629.830	80.006	19.996	103.132	19.873	-0.305	0.515
1104.000	630.858	80.008	19.996	103.128	19.875	-0.434	0.534
1106.001	631.926	80.008	19.996	103.129	19.875	-0.478	0.492
1108.000	632.910	80.007	19.996	103.131	19.875	-0.461	0.511
1110.000	633.953	80.008	19.996	103.125	19.880	-0.792	0.490
1112.000	634.970	80.008	19.996	103.131	19.878	-0.636	0.441
1114.000	636.010	80.007	19.995	103.130	19.878	-0.625	0.534
1116.000	637.035	80.007	19.993	103.133	19.878	-0.640	0.496
1118.000	638.111	80.007	19.994	103.130	19.879	-0.690	0.544
1120.000	639.151	80.008	19.995	103.129	19.878	-0.676	0.517
1122.000	640.229	80.007	19.995	103.127	19.878	-0.665	0.527
1124.000	641.157	80.008	19.994	103.127	19.882	-0.923	0.517
1126.001	642.233	80.008	19.994	103.127	19.882	-0.921	0.523
1128.000	643.254	80.009	19.994	103.128	19.885	-1.091	0.528
1130.001	644.279	80.008	19.994	103.129	19.882	-0.889	0.502
1132.001	645.335	80.009	19.994	103.127	19.883	-0.993	0.503
1134.000	646.334	80.008	19.995	103.123	19.885	-1.097	0.520
1136.001	647.348	80.007	19.994	103.126	19.887	-1.249	0.490
1138.000	648.402	80.008	19.995	103.129	19.889	-1.367	0.490
1140.000	649.450	80.006	19.994	103.131	19.888	-1.287	0.540
1142.001	650.478	80.006	19.995	103.129	19.889	-1.349	0.518
1144.000	651.526	80.006	19.994	103.131	19.886	-1.179	0.516
1146.000	652.515	80.007	19.993	103.128	19.891	-1.489	0.508
1148.001	653.579	80.005	19.992	103.128	19.892	-1.575	0.537
1150.000	654.617	80.006	19.995	103.132	19.890	-1.464	0.516
1152.000	655.688	80.007	19.994	103.128	19.891	-1.521	0.539
1154.000	656.613	80.006	19.995	103.127	19.892	-1.544	0.477
1156.000	657.634	80.007	19.997	103.127	19.892	-1.579	0.486
1158.000	658.667	80.004	19.995	103.124	19.892	-1.555	0.512
1160.000	659.694	80.007	19.996	103.127	19.895	-1.765	0.499
1162.001	660.748	80.007	19.995	103.128	19.890	-1.442	0.489
1164.000	661.760	80.007	19.995	103.122	19.890	-1.448	0.530
1166.000	662.724	80.007	19.997	103.126	19.894	-1.708	0.524
1168.000	663.740	80.008	19.996	103.127	19.894	-1.709	0.457
1170.000	664.778	80.004	19.997	103.124	19.894	-1.706	0.502
1172.000	665.774	80.006	19.996	103.126	19.895	-1.779	0.534
1174.000	666.715	80.006	19.997	103.127	19.891	-1.507	0.471
1176.000	667.386	80.004	19.995	103.125	19.894	-1.681	0.206
1178.000	668.695	80.007	19.995	103.125	19.891	-1.519	0.501
1180.000	669.926	80.008	19.995	103.122	19.892	-1.570	0.360
1182.000	671.007	80.008	19.995	103.122	19.893	-1.652	0.513
1184.000	671.978	80.007	19.995	103.120	19.894	-1.718	0.477
1186.001	673.052	80.007	19.996	103.118	19.899	-2.059	0.569
1188.000	674.026	80.008	19.994	103.123	19.895	-1.783	0.478
1190.000	675.069	80.006	19.996	103.123	19.893	-1.636	0.496
1192.000	676.090	80.006	19.997	103.126	19.894	-1.718	0.542
1194.000	677.126	80.007	19.996	103.127	19.897	-1.933	0.524
1196.000	678.189	80.005	19.995	103.117	19.897	-1.928	0.465
1198.000	679.024	80.007	19.996	103.118	19.905	-2.442	0.240
1200.001	680.209	80.005	19.995	103.123	19.905	-2.453	0.665
1202.000	681.276	80.009	19.995	103.126	19.897	-1.935	0.627
1204.000	682.291	80.007	19.992	103.121	19.898	-1.980	0.501
1206.000	683.287	80.008	19.994	103.115	19.898	-2.005	0.541
1208.001	684.330	80.008	19.992	103.125	19.897	-1.935	0.519
1210.001	685.404	80.010	19.994	103.121	19.901	-2.152	0.511
1212.000	686.440	80.008	19.994	103.127	19.901	-2.201	0.504
1214.000	687.367	80.009	19.995	103.124	19.899	-2.028	0.464
1216.000	688.380	80.011	19.996	103.124	19.901	-2.141	0.437
1218.000	689.457	80.006	19.994	103.121	19.897	-1.930	0.548
1220.000	690.423	80.006	19.995	103.112	19.897	-1.894	0.462
1222.000	691.363	80.006	19.995	103.103	19.900	-2.096	0.475
1224.000	692.462	80.007	19.996	103.103	19.900	-2.116	0.506
1226.000	693.463	80.005	19.996	103.120	19.899	-2.021	0.521
1228.000	694.471	80.005	19.995	103.120	19.898	-1.982	0.517
1230.000	695.503	80.006	19.996	103.121	19.897	-1.903	0.545
1232.000	696.523	80.007	19.995	103.122	19.899	-2.028	0.537
1234.001	697.490	80.007	19.995	103.124	19.900	-2.107	0.507
1236.000	698.516	80.007	19.995	103.115	19.900	-2.125	0.501
1238.000	699.537	80.006	19.994	103.121	19.899	-2.035	0.501
1240.000	700.543	80.007	19.997	103.118	19.896	-1.829	0.515
1242.000	701.531	80.007	19.994	103.113	19.900	-2.112	0.525
1244.000	702.524	80.008	19.995	103.114	19.902	-2.220	0.489
1246.000	703.568	80.008	19.995	103.116	19.898	-1.987	0.517
1248.000	704.591	80.006	19.995	103.102	19.902	-2.216	0.524
1250.000	705.587	80.006	19.992	103.107	19.900	-2.094	0.494
1252.000	706.549	80.006	19.995	103.104	19.900	-2.109	0.481
1254.000	707.587	80.004	19.995	103.108	19.898	-1.996	0.494
1256.000	708.606	80.005	19.995	103.106	19.897	-1.937	0.532
1258.000	709.631	80.005	19.996	103.113	19.901	-2.141	0.532
1260.000	710.625	80.005	19.995	103.115	19.900	-2.132	0.515
1262.000	711.620	80.007	19.995	103.122	19.899	-2.035	0.481
1264.000	712.627	80.006	19.995	103.117	19.900	-2.139	0.516
1266.001	713.666	80.007	19.994	103.120	19.902	-2.213	0.502
1268.000	714.643	80.008	19.994	103.123	19.899	-2.014	0.485
1270.000	715.663	80.008	19.995	103.120	19.900	-2.120	0.514
1272.000	716.702	80.006	19.995	103.122	19.902	-2.259	0.517
1274.000	717.682	80.008	19.996	103.110	19.903	-2.295	0.522
1276.000	718.665	80.005	19.995	103.114	19.905	-2.467	0.493
1278.001	719.725	80.005	19.996	103.120	19.904	-2.349	0.528
1280.000	720.742	80.006	19.995	103.126	19.905	-2.417	0.504
1282.000	721.726	80.006	19.995	103.120	19.901	-2.175	0.480
1284.000	722.780	80.007	19.996	103.102	19.905	-2.438	0.527
1286.000	723.788	80.007	19.997	103.096	19.903	-2.282	0.484
1288.000	724.844	80.008	19.996	103.112	19.904	-2.379	0.517
1290.000	725.848	80.009	19.996	103.111	19.903	-2.289	0.513
1292.000	726.840	80.009	19.995	103.102	19.902	-2.218	0.487
1294.000	727.846	80.009	19.995	103.085	19.906	-2.499	0.494
1296.001	728.846	80.008	19.995	103.088	19.906	-2.475	0.477
1298.001	729.898	80.009	19.994	103.091	19.906	-2.517	0.501
1300.000	730.860	80.007	19.995	103.099	19.905	-2.413	0.485
1302.001	731.899	80.006	19.995	103.105	19.905	-2.461	0.509
1304.000	732.880	80.006	19.995	103.117	19.906	-2.474	0.512
1306.000	733.890	80.006	19.994	103.104	19.905	-2.413	0.477
1308.001	734.910	80.006	19.995	103.094	19.906	-2.477	0.499
1310.001	735.901	80.005	19.995	103.100	19.904	-2.368	0.502
1312.000	736.936	80.006	19.995	103.092	19.901	-2.184	0.503
1314.000	737.895	80.006	19.994	103.093	19.905	-2.422	0.505
1316.000	738.878	80.006	19.994	103.096	19.904	-2.388	0.499
1318.000	739.917	80.007	19.995	103.103	19.906	-2.481	0.496
1320.000	740.905	80.005	19.995	103.099	19.906	-2.497	0.503
1322.001	741.918	80.006	19.996	103.104	19.906	-2.497	0.510
1324.000	742.942	80.008	19.994	103.111	19.902	-2.214	0.496
1325.000	743.431	80.006	19.994	103.104	19.905	-2.436	0.493