File: 01_Data/Gypsum_Wallboard_Gypsum_Core/STA/N2/30K_min/Gypsum_Wallboard_Gypsum_Core_STA_N2_30KData_220222_R3.csv
##Temp./Â°C,Time/min,Mass loss(subtr.2)/mg,DSC(subtr.2)/(mW/mg),Sensit./(uV/mW)
48.777,10.01,-0.00329,0.002427984,1.08891
49.577,10.5747,-0.001992877,0.04122411,1.08823
50.377,10.70525,-0.00214664,0.07398115,1.08756
51.177,10.7988,-0.002944654,0.10158,1.08688
51.977,10.87523,-0.003584146,0.12776,1.08621
52.777,10.9414,-0.002222276,0.15056,1.08554
53.577,11.0021,-0.003538851,0.1723,1.08487
54.377,11.05776,-0.003606092,0.19433,1.0842
55.177,11.1087,-0.003684862,0.21223,1.08354
55.977,11.15655,-0.002625363,0.23066,1.08287
56.777,11.20202,-0.002454671,0.24766,1.0822
57.577,11.24579,-0.00375951,0.26439,1.08154
58.377,11.2877,-0.00317859,0.2788,1.08088
59.177,11.32808,-0.00302691,0.29157,1.08021
59.977,11.36711,-0.003215552,0.30809,1.07955
60.777,11.40497,-0.002127436,0.31905,1.07889
61.577,11.442,-0.00275203,0.33229,1.07823
62.377,11.4781,-0.00324028,0.34434,1.07758
63.177,11.51324,-0.004068706,0.35704,1.07692
63.977,11.5482,-0.003844152,0.36623,1.07627
64.777,11.58275,-0.003082009,0.38038,1.07561
65.577,11.6164,-0.002378644,0.3903,1.07496
66.377,11.64945,-0.00351362,0.40204,1.07431
67.177,11.68212,-0.002791907,0.40826,1.07365
67.977,11.71442,-0.002245538,0.41893,1.073
68.777,11.7463,-0.003398202,0.42915,1.07236
69.577,11.77784,-0.003648164,0.43698,1.07171
70.377,11.80898,-0.003096834,0.44757,1.07106
71.177,11.84003,-0.003071663,0.45465,1.07042
71.977,11.87045,-0.003968037,0.46248,1.06977
72.777,11.90126,-0.00459686,0.47059,1.06913
73.577,11.9316,-0.0042844,0.47813,1.06849
74.377,11.96193,-0.00373381,0.48637,1.06784
75.177,11.9918,-0.00281961,0.49546,1.0672
75.977,12.02161,-0.002721952,0.50278,1.06657
76.777,12.05137,-0.002882568,0.51141,1.06593
77.577,12.08083,-0.003642818,0.52004,1.06529
78.377,12.11023,-0.003818123,0.52727,1.06466
79.177,12.13945,-0.00389305,0.53602,1.06402
79.977,12.1686,-0.00447599,0.5454,1.06339
80.777,12.1971,-0.004575098,0.55424,1.06276
81.577,12.2257,-0.005777027,0.56176,1.06212
82.377,12.25431,-0.00528477,0.57114,1.06149
83.177,12.28302,-0.006446301,0.58057,1.06086
83.977,12.31168,-0.00687111,0.58825,1.06024
84.777,12.3399,-0.00614946,0.59988,1.05961
85.577,12.36823,-0.006117829,0.61074,1.05898
86.377,12.3964,-0.00688606,0.61964,1.05836
87.177,12.4246,-0.00726314,0.63154,1.05774
87.977,12.4526,-0.006227765,0.64313,1.05711
88.777,12.48052,-0.00753745,0.65392,1.05649
89.577,12.50813,-0.00673425,0.66721,1.05587
90.377,12.5359,-0.00759762,0.67843,1.05525
91.177,12.56359,-0.009029411,0.69043,1.05463
91.977,12.59145,-0.008942624,0.70421,1.05402
92.777,12.61887,-0.00996608,0.71977,1.0534
93.577,12.64638,-0.008924583,0.73533,1.05279
94.377,12.6738,-0.0100955,0.75203,1.05217
95.177,12.7012,-0.01020018,0.77094,1.05156
95.977,12.7286,-0.01019569,0.79325,1.05095
96.777,12.7559,-0.01076892,0.81014,1.05034
97.577,12.78316,-0.01151934,0.83204,1.04973
98.377,12.81035,-0.01151432,0.85404,1.04912
99.177,12.83758,-0.01281185,0.87836,1.04851
99.977,12.86482,-0.01283216,0.90596,1.04791
100.777,12.89202,-0.01335374,0.93405,1.0473
101.577,12.9192,-0.01414639,0.96511,1.0467
102.377,12.94629,-0.01414564,0.99322,1.04609
103.177,12.97333,-0.01508196,1.02864,1.04549
103.977,13.00038,-0.0169014,1.06303,1.04489
104.777,13.02754,-0.01847584,1.09874,1.04429
105.577,13.05462,-0.01994964,1.13782,1.04369
106.377,13.08174,-0.02167509,1.17531,1.04309
107.177,13.10878,-0.02315003,1.21482,1.0425
107.977,13.1359,-0.02544898,1.25369,1.0419
108.777,13.16285,-0.02679872,1.29171,1.04131
109.577,13.1899,-0.02806621,1.33351,1.04071
110.377,13.21684,-0.02988398,1.37046,1.04012
111.177,13.2438,-0.03057516,1.41042,1.03953
111.977,13.2708,-0.03314632,1.45194,1.03894
112.777,13.2978,-0.0348325,1.49503,1.03835
113.577,13.32474,-0.03738738,1.53587,1.03776
114.377,13.3517,-0.04115073,1.58049,1.03718
115.177,13.3786,-0.04313054,1.62725,1.03659
115.977,13.40564,-0.04577358,1.68491,1.036
116.777,13.43256,-0.04782223,1.75788,1.03542
117.577,13.4594,-0.04995806,1.87022,1.03484
118.377,13.4863,-0.05397407,2.02322,1.03426
119.177,13.51324,-0.05872856,2.19708,1.03368
119.977,13.54021,-0.0624433,2.38199,1.0331
120.777,13.56719,-0.06661987,2.57092,1.03252
121.577,13.59402,-0.07245933,2.77111,1.03194
122.377,13.6209,-0.08027718,2.97892,1.03136
123.177,13.6479,-0.08619092,3.19475,1.03079
123.977,13.6748,-0.0928505,3.42341,1.03021
124.777,13.70183,-0.10094,3.66298,1.02964
125.577,13.7288,-0.10744,3.91241,1.02907
126.377,13.75578,-0.11522,4.17303,1.02849
127.177,13.7829,-0.12394,4.44639,1.02792
127.977,13.81,-0.13305,4.73101,1.02736
128.777,13.83712,-0.14519,5.02582,1.02679
129.577,13.86423,-0.15785,5.33243,1.02622
130.377,13.8913,-0.16905,5.6446,1.02565
131.177,13.91816,-0.18021,5.96108,1.02509
131.977,13.94525,-0.19357,6.28245,1.02452
132.777,13.97235,-0.20813,6.60988,1.02396
133.577,13.9997,-0.22206,6.93684,1.0234
134.377,14.02704,-0.23821,7.25481,1.02284
135.177,14.0542,-0.25453,7.56039,1.02228
135.977,14.08124,-0.27076,7.84672,1.02172
136.777,14.10844,-0.28803,8.11027,1.02116
137.577,14.1356,-0.3052,8.34126,1.0206
138.377,14.16275,-0.32147,8.53178,1.02005
139.177,14.19,-0.33957,8.67261,1.01949
139.977,14.21711,-0.35829,8.7543,1.01894
140.777,14.2441,-0.37371,8.77241,1.01838
141.577,14.27087,-0.39037,8.71883,1.01783
142.377,14.29768,-0.40773,8.59018,1.01728
143.177,14.3243,-0.42222,8.38849,1.01673
143.977,14.35085,-0.43678,8.11722,1.01618
144.777,14.37713,-0.45096,7.79323,1.01563
145.577,14.40339,-0.46257,7.44159,1.01508
146.377,14.4296,-0.47459,7.15074,1.01454
147.177,14.4556,-0.48403,6.96329,1.01399
147.977,14.48135,-0.49135,6.85553,1.01345
148.777,14.5071,-0.5004,6.80237,1.01291
149.577,14.5327,-0.50998,6.78882,1.01236
150.377,14.55844,-0.51935,6.80468,1.01182
151.177,14.58429,-0.53048,6.84637,1.01128
151.977,14.6099,-0.53951,6.91416,1.01074
152.777,14.6355,-0.54959,6.99072,1.0102
153.577,14.6611,-0.56128,7.07569,1.00967
154.377,14.6867,-0.57107,7.15263,1.00913
155.177,14.7123,-0.58258,7.21037,1.00859
155.977,14.7379,-0.59508,7.22446,1.00806
156.777,14.76341,-0.60551,7.15182,1.00753
157.577,14.7889,-0.61715,6.88619,1.00699
158.377,14.81429,-0.62746,6.3796,1.00646
159.177,14.83956,-0.63549,5.79185,1.00593
159.977,14.86483,-0.64254,5.22803,1.0054
160.777,14.88985,-0.64733,4.70622,1.00487
161.577,14.91479,-0.64976,4.23452,1.00434
162.377,14.9396,-0.65128,3.813,1.00382
163.177,14.9642,-0.65355,3.43725,1.00329
163.977,14.98889,-0.65578,3.10488,1.00277
164.777,15.01346,-0.65774,2.80858,1.00224
165.577,15.0379,-0.65915,2.55318,1.00172
166.377,15.0623,-0.65995,2.3271,1.0012
167.177,15.08658,-0.66041,2.12652,1.00068
167.977,15.11076,-0.66189,1.95345,1.00015
168.777,15.1349,-0.66212,1.7989,0.99964
169.577,15.15911,-0.66317,1.6655,0.99912
170.377,15.18331,-0.66409,1.54559,0.9986
171.177,15.20769,-0.66447,1.44105,0.99808
171.977,15.232,-0.66449,1.34966,0.99757
172.777,15.2563,-0.66484,1.26788,0.99705
173.577,15.28062,-0.6658,1.19329,0.99654
174.377,15.305,-0.6658,1.13257,0.99602
175.177,15.3294,-0.66581,1.07605,0.99551
175.977,15.35387,-0.66701,1.02756,0.995
176.777,15.3781,-0.6671,0.98595,0.99449
177.577,15.4024,-0.66852,0.94561,0.99398
178.377,15.4266,-0.66843,0.91458,0.99347
179.177,15.45081,-0.66843,0.88184,0.99296
179.977,15.47504,-0.6689,0.85508,0.99246
180.777,15.49929,-0.66974,0.8301,0.99195
181.577,15.52353,-0.66975,0.80829,0.99145
182.377,15.54783,-0.67029,0.79027,0.99094
183.177,15.5721,-0.67124,0.77089,0.99044
183.977,15.5965,-0.67173,0.75371,0.98994
184.777,15.6208,-0.67241,0.73908,0.98943
185.577,15.64515,-0.6724,0.72631,0.98893
186.377,15.66945,-0.67299,0.71166,0.98843
187.177,15.6937,-0.67369,0.70465,0.98794
187.977,15.71796,-0.6737,0.6938,0.98744
188.777,15.74214,-0.6737,0.6852,0.98694
189.577,15.76643,-0.6737,0.67442,0.98644
190.377,15.7907,-0.6737,0.6696,0.98595
191.177,15.81492,-0.6737,0.6633,0.98545
191.977,15.8391,-0.6737,0.6572,0.98496
192.777,15.8634,-0.67511,0.65063,0.98447
193.577,15.8876,-0.67501,0.64553,0.98397
194.377,15.91185,-0.67501,0.63646,0.98348
195.177,15.9361,-0.67599,0.63352,0.98299
195.977,15.96035,-0.67633,0.63122,0.9825
196.777,15.98461,-0.67633,0.62515,0.98201
197.577,16.009,-0.67633,0.62297,0.98153
198.377,16.03327,-0.67633,0.61893,0.98104
199.177,16.05746,-0.67633,0.61469,0.98055
199.977,16.08165,-0.67633,0.61045,0.98007
200.777,16.1058,-0.6764,0.60857,0.97958
201.577,16.13,-0.67567,0.60756,0.9791
202.377,16.15419,-0.67604,0.60434,0.97861
203.177,16.17841,-0.67699,0.60054,0.97813
203.977,16.2027,-0.67699,0.60055,0.97765
204.777,16.22692,-0.677,0.59779,0.97717
205.577,16.2512,-0.67775,0.59362,0.97669
206.377,16.27545,-0.67828,0.59172,0.97621
207.177,16.29969,-0.67828,0.58857,0.97573
207.977,16.32394,-0.67962,0.58733,0.97526
208.777,16.34822,-0.67961,0.58904,0.97478
209.577,16.37249,-0.67961,0.58472,0.9743
210.377,16.3967,-0.67961,0.58333,0.97383
211.177,16.4209,-0.67961,0.5784,0.97335
211.977,16.44504,-0.67961,0.57878,0.97288
212.777,16.46921,-0.67961,0.57699,0.97241
213.577,16.49333,-0.67954,0.57435,0.97193
214.377,16.5175,-0.68091,0.57048,0.97146
215.177,16.54172,-0.68093,0.56988,0.97099
215.977,16.56599,-0.68093,0.57155,0.97052
216.777,16.59025,-0.68093,0.56768,0.97005
217.577,16.61439,-0.68093,0.56945,0.96959
218.377,16.63861,-0.68093,0.56463,0.96912
219.177,16.6627,-0.6809,0.56555,0.96865
219.977,16.68688,-0.6821,0.56169,0.96818
220.777,16.71105,-0.68224,0.56329,0.96772
221.577,16.73518,-0.68225,0.56135,0.96725
222.377,16.75926,-0.68284,0.56213,0.96679
223.177,16.7834,-0.68355,0.56016,0.96633
223.977,16.8076,-0.68356,0.55904,0.96587
224.777,16.83182,-0.68306,0.55649,0.9654
225.577,16.85602,-0.68225,0.55873,0.96494
226.377,16.8801,-0.68357,0.55705,0.96448
227.177,16.9042,-0.68357,0.55467,0.96402
227.977,16.9283,-0.68356,0.55643,0.96356
228.777,16.95244,-0.68356,0.55349,0.96311
229.577,16.97671,-0.68355,0.55272,0.96265
230.377,17.00093,-0.68492,0.54949,0.96219
231.177,17.02523,-0.68489,0.55309,0.96174
231.977,17.0496,-0.68488,0.55155,0.96128
232.777,17.07367,-0.68392,0.55011,0.96083
233.577,17.09789,-0.68357,0.54863,0.96037
234.377,17.122,-0.68357,0.54804,0.95992
235.177,17.14626,-0.68495,0.5473,0.95947
235.977,17.17052,-0.68488,0.54748,0.95901
236.777,17.1947,-0.68488,0.54772,0.95856
237.577,17.21893,-0.68488,0.54413,0.95811
238.377,17.24307,-0.68488,0.54297,0.95766
239.177,17.2672,-0.68488,0.54223,0.95721
239.977,17.29145,-0.68488,0.54306,0.95676
240.777,17.31555,-0.68482,0.53886,0.95632
241.577,17.3398,-0.68749,0.54097,0.95587
242.377,17.36394,-0.68752,0.53974,0.95542
243.177,17.38808,-0.68751,0.5383,0.95498
243.977,17.41232,-0.68751,0.53667,0.95453
244.777,17.43646,-0.68751,0.5354,0.95409
245.577,17.46066,-0.68751,0.53811,0.95364
246.377,17.48488,-0.68751,0.53677,0.9532
247.177,17.50904,-0.68751,0.5348,0.95275
247.977,17.53319,-0.68751,0.53146,0.95231
248.777,17.55736,-0.68751,0.53136,0.95187
249.577,17.5815,-0.68751,0.53394,0.95143
250.377,17.60565,-0.68751,0.53192,0.95099
251.177,17.6298,-0.68751,0.53126,0.95055
251.977,17.65399,-0.68751,0.52866,0.95011
252.777,17.67812,-0.68751,0.5276,0.94967
253.577,17.70232,-0.68751,0.52804,0.94923
254.377,17.72648,-0.68751,0.52531,0.9488
255.177,17.75066,-0.6875,0.5255,0.94836
255.977,17.77479,-0.68855,0.52398,0.94792
256.777,17.7989,-0.68883,0.5229,0.94749
257.577,17.82302,-0.68883,0.52269,0.94705
258.377,17.8472,-0.6889,0.52324,0.94662
259.177,17.87133,-0.68818,0.52032,0.94618
259.977,17.89552,-0.68817,0.51939,0.94575
260.777,17.91959,-0.68817,0.51958,0.94532
261.577,17.94365,-0.68817,0.51792,0.94489
262.377,17.96771,-0.68817,0.51742,0.94445
263.177,17.9918,-0.68817,0.5167,0.94402
263.977,18.01599,-0.68817,0.51617,0.94359
264.777,18.0401,-0.68817,0.51539,0.94316
265.577,18.06421,-0.68817,0.51162,0.94273
266.377,18.08834,-0.68817,0.5108,0.9423
267.177,18.11254,-0.68819,0.5112,0.94188
267.977,18.13675,-0.68955,0.51092,0.94145
268.777,18.16096,-0.68949,0.50962,0.94102
269.577,18.18512,-0.68949,0.5071,0.94059
270.377,18.2092,-0.68949,0.50792,0.94017
271.177,18.2332,-0.68949,0.50728,0.93974
271.977,18.25723,-0.6895,0.50601,0.93932
272.777,18.2813,-0.68811,0.50614,0.93889
273.577,18.30537,-0.68814,0.50331,0.93847
274.377,18.32953,-0.68882,0.50208,0.93804
275.177,18.35369,-0.68901,0.50135,0.93762
275.977,18.37787,-0.69017,0.49911,0.9372
276.777,18.402,-0.69015,0.49834,0.93678
277.577,18.42612,-0.69015,0.49819,0.93635
278.377,18.4502,-0.69015,0.49819,0.93593
279.177,18.47435,-0.69015,0.49751,0.93551
279.977,18.4985,-0.69015,0.49363,0.93509
280.777,18.52263,-0.69026,0.49489,0.93467
281.577,18.54682,-0.69149,0.49152,0.93425
282.377,18.57101,-0.69146,0.49125,0.93383
283.177,18.59517,-0.69146,0.48909,0.93341
283.977,18.6193,-0.69146,0.48913,0.933
284.777,18.64345,-0.69146,0.48536,0.93258
285.577,18.66757,-0.69155,0.48423,0.93216
286.377,18.69177,-0.69015,0.48288,0.93174
287.177,18.71594,-0.69015,0.48021,0.93133
287.977,18.7401,-0.69015,0.48117,0.93091
288.777,18.76425,-0.69015,0.48035,0.9305
289.577,18.78839,-0.69015,0.48006,0.93008
290.377,18.8126,-0.69015,0.47688,0.92967
291.177,18.8368,-0.69018,0.47472,0.92925
291.977,18.86104,-0.69121,0.47518,0.92884
292.777,18.88524,-0.69146,0.47292,0.92843
293.577,18.90944,-0.69146,0.47041,0.92801
294.377,18.9337,-0.69146,0.47187,0.9276
295.177,18.95794,-0.69146,0.47073,0.92719
295.977,18.9822,-0.69146,0.46858,0.92678
296.777,19.0064,-0.69146,0.4649,0.92637
297.577,19.03059,-0.69146,0.46354,0.92596
298.377,19.05479,-0.69146,0.46133,0.92555
299.177,19.07899,-0.69146,0.46187,0.92514
299.977,19.1033,-0.69146,0.46103,0.92473
300.777,19.12742,-0.69146,0.46032,0.92432
301.577,19.15162,-0.69144,0.45757,0.92391
302.377,19.1759,-0.69218,0.45788,0.9235
303.177,19.20017,-0.69212,0.45604,0.92309
303.977,19.2244,-0.69212,0.45603,0.92268
304.777,19.2487,-0.69212,0.4549,0.92228
305.577,19.27298,-0.69208,0.45175,0.92187
306.377,19.29723,-0.69307,0.45452,0.92146
307.177,19.32154,-0.69311,0.45254,0.92105
307.977,19.34574,-0.69311,0.45006,0.92065
308.777,19.36991,-0.69311,0.45003,0.92024
309.577,19.39414,-0.69311,0.45021,0.91984
310.377,19.41836,-0.69311,0.44711,0.91943
311.177,19.44259,-0.69311,0.44564,0.91903
311.977,19.4668,-0.69311,0.44593,0.91862
312.777,19.4911,-0.69311,0.44431,0.91822
313.577,19.51545,-0.69308,0.44358,0.91781
314.377,19.5398,-0.69344,0.44402,0.91741
315.177,19.56417,-0.69345,0.44115,0.91701
315.977,19.58846,-0.69397,0.44169,0.91661
316.777,19.61281,-0.69474,0.43995,0.9162
317.577,19.6371,-0.69475,0.43876,0.9158
318.377,19.66137,-0.69476,0.43969,0.9154
319.177,19.68573,-0.6953,0.43837,0.915
319.977,19.71004,-0.69606,0.43939,0.91459
320.777,19.73432,-0.69606,0.43957,0.91419
321.577,19.7587,-0.69606,0.43843,0.91379
322.377,19.78296,-0.69606,0.43565,0.91339
323.177,19.80736,-0.69606,0.43615,0.91299
323.977,19.83171,-0.69606,0.43569,0.91259
324.777,19.85608,-0.69606,0.43564,0.91219
325.577,19.88039,-0.69606,0.43175,0.91179
326.377,19.90471,-0.69606,0.43168,0.91139
327.177,19.92909,-0.69606,0.43118,0.91099
327.977,19.95349,-0.69606,0.4311,0.91059
328.777,19.97789,-0.69606,0.43077,0.9102
329.577,20.00235,-0.69604,0.42952,0.9098
330.377,20.02673,-0.69723,0.42886,0.9094
331.177,20.05106,-0.69738,0.42679,0.909
331.977,20.07548,-0.69738,0.4271,0.9086
332.777,20.09979,-0.69738,0.42961,0.90821
333.577,20.12425,-0.69661,0.42685,0.90781
334.377,20.1486,-0.69607,0.42236,0.90741
335.177,20.1731,-0.69606,0.42403,0.90701
335.977,20.19754,-0.69606,0.42244,0.90662
336.777,20.222,-0.69606,0.42205,0.90622
337.577,20.2464,-0.69606,0.42006,0.90582
338.377,20.27084,-0.69606,0.41891,0.90543
339.177,20.29533,-0.69606,0.41899,0.90503
339.977,20.31979,-0.69606,0.4156,0.90464
340.777,20.34431,-0.69608,0.41664,0.90424
341.577,20.36883,-0.69666,0.41509,0.90385
342.377,20.39326,-0.69674,0.41278,0.90345
343.177,20.41775,-0.69725,0.41194,0.90305
343.977,20.44217,-0.69738,0.40926,0.90266
344.777,20.46658,-0.69738,0.41003,0.90227
345.577,20.49111,-0.69738,0.40818,0.90187
346.377,20.5156,-0.69738,0.40708,0.90148
347.177,20.54016,-0.69738,0.40719,0.90108
347.977,20.56466,-0.69762,0.40413,0.90069
348.777,20.58908,-0.69843,0.40352,0.90029
349.577,20.61359,-0.69773,0.40164,0.8999
350.377,20.63805,-0.69771,0.39784,0.89951
351.177,20.66258,-0.69771,0.39705,0.89911
351.977,20.6871,-0.69771,0.39741,0.89872
352.777,20.7117,-0.69771,0.39524,0.89833
353.577,20.73624,-0.69778,0.39108,0.89793
354.377,20.76089,-0.69706,0.38978,0.89754
355.177,20.78556,-0.69704,0.3874,0.89715
355.977,20.81014,-0.69838,0.38532,0.89675
356.777,20.8348,-0.69838,0.3822,0.89636
357.577,20.8594,-0.69837,0.38158,0.89597
358.377,20.884,-0.69837,0.37846,0.89557
359.177,20.90855,-0.69837,0.37907,0.89518
359.977,20.93311,-0.69837,0.37294,0.89479
360.777,20.9577,-0.69837,0.37065,0.8944
361.577,20.98232,-0.69837,0.36673,0.894
362.377,21.00695,-0.69837,0.36478,0.89361
363.177,21.0316,-0.69837,0.36344,0.89322
363.977,21.05617,-0.69837,0.35823,0.89283
364.777,21.08075,-0.69837,0.35569,0.89243
365.577,21.1053,-0.69837,0.35258,0.89204
366.377,21.13,-0.69837,0.35136,0.89165
367.177,21.15467,-0.69835,0.34465,0.89126
367.977,21.17935,-0.69902,0.34127,0.89087
368.777,21.20401,-0.69903,0.33696,0.89047
369.577,21.2287,-0.69903,0.33362,0.89008
370.377,21.2533,-0.6996,0.32811,0.88969
371.177,21.27799,-0.70001,0.32367,0.8893
371.977,21.30266,-0.70001,0.32226,0.88891
372.777,21.32728,-0.70087,0.31626,0.88852
373.577,21.352,-0.70101,0.31207,0.88812
374.377,21.37668,-0.70101,0.30682,0.88773
375.177,21.4013,-0.70101,0.30043,0.88734
375.977,21.42601,-0.70099,0.29288,0.88695
376.777,21.45074,-0.70167,0.28693,0.88656
377.577,21.47539,-0.70166,0.27877,0.88616
378.377,21.50014,-0.70166,0.27306,0.88577
379.177,21.5248,-0.70141,0.26847,0.88538
379.977,21.54949,-0.70033,0.25705,0.88499
380.777,21.5742,-0.70068,0.25029,0.8846
381.577,21.5989,-0.70156,0.24254,0.88421
382.377,21.62363,-0.70199,0.23252,0.88381
383.177,21.64839,-0.70199,0.22239,0.88342
383.977,21.67312,-0.70199,0.21447,0.88303
384.777,21.69791,-0.70199,0.2061,0.88264
385.577,21.72257,-0.70199,0.19491,0.88225
386.377,21.74731,-0.70199,0.18066,0.88185
387.177,21.772,-0.70198,0.17174,0.88146
387.977,21.79681,-0.70234,0.16054,0.88107
388.777,21.82159,-0.70232,0.14737,0.88068
389.577,21.84636,-0.70232,0.13342,0.88029
390.377,21.8711,-0.70232,0.11945,0.87989
391.177,21.89586,-0.70228,0.10758,0.8795
391.977,21.92067,-0.70265,0.09427073,0.87911
392.777,21.94554,-0.70255,0.07936837,0.87872
393.577,21.9704,-0.70397,0.0643721,0.87832
394.377,21.9953,-0.70397,0.04653174,0.87793
395.177,22.02006,-0.70397,0.03181432,0.87754
395.977,22.04486,-0.7026,0.01894929,0.87714
396.777,22.0697,-0.70265,0.003298745,0.87675
397.577,22.09444,-0.70265,-0.007736876,0.87636
398.377,22.1192,-0.70265,-0.02179791,0.87596
399.177,22.14409,-0.70301,-0.03565051,0.87557
399.977,22.16894,-0.70397,-0.04694922,0.87518
400.777,22.19378,-0.70397,-0.05911908,0.87478
401.577,22.21866,-0.70397,-0.06971481,0.87439
402.377,22.2435,-0.70397,-0.0783859,0.874
403.177,22.26836,-0.70397,-0.08631915,0.8736
403.977,22.29326,-0.70453,-0.09036749,0.87321
404.777,22.31814,-0.70488,-0.09465251,0.87281
405.577,22.34301,-0.70628,-0.09629318,0.87242
406.377,22.36792,-0.70628,-0.10068,0.87203
407.177,22.3929,-0.70604,-0.10009,0.87163
407.977,22.41786,-0.70496,-0.09789475,0.87124
408.777,22.44282,-0.70496,-0.09520445,0.87084
409.577,22.46781,-0.70496,-0.09008364,0.87045
410.377,22.49275,-0.70496,-0.08311728,0.87005
411.177,22.5177,-0.70496,-0.07657792,0.86965
411.977,22.5427,-0.70496,-0.06716461,0.86926
412.777,22.56768,-0.70496,-0.05398698,0.86886
413.577,22.5925,-0.70496,-0.04441131,0.86847
414.377,22.61751,-0.70496,-0.03210414,0.86807
415.177,22.64245,-0.70496,-0.01718466,0.86767
415.977,22.66744,-0.70496,-0.003994124,0.86728
416.777,22.6926,-0.70496,0.00896968,0.86688
417.577,22.7176,-0.70496,0.02322568,0.86648
418.377,22.74268,-0.70496,0.03624904,0.86609
419.177,22.7678,-0.70487,0.05113741,0.86569
419.977,22.79277,-0.70591,0.06360593,0.86529
420.777,22.81778,-0.70594,0.08134107,0.86489
421.577,22.8427,-0.70594,0.09400575,0.8645
422.377,22.86777,-0.70594,0.10611,0.8641
423.177,22.89291,-0.70594,0.12122,0.8637
423.977,22.91787,-0.70594,0.13145,0.8633
424.777,22.94295,-0.70594,0.14345,0.8629
425.577,22.96801,-0.70594,0.1549,0.8625
426.377,22.99316,-0.70594,0.16311,0.8621
427.177,23.0184,-0.70594,0.1783,0.8617
427.977,23.04355,-0.70594,0.18533,0.8613
428.777,23.06865,-0.70594,0.19459,0.8609
429.577,23.0937,-0.70594,0.20772,0.8605
430.377,23.11883,-0.70594,0.21564,0.8601
431.177,23.14394,-0.70594,0.22422,0.8597
431.977,23.16912,-0.70594,0.23014,0.8593
432.777,23.19434,-0.70594,0.23841,0.8589
433.577,23.21953,-0.70594,0.24583,0.8585
434.377,23.24472,-0.70595,0.25181,0.8581
435.177,23.26989,-0.70595,0.26133,0.8577
435.977,23.2951,-0.70498,0.26707,0.85729
436.777,23.32039,-0.70495,0.2711,0.85689
437.577,23.34555,-0.70587,0.28054,0.85649
438.377,23.3706,-0.70627,0.28374,0.85608
439.177,23.3958,-0.70627,0.28847,0.85568
439.977,23.4209,-0.70627,0.2957,0.85528
440.777,23.4461,-0.70627,0.299,0.85487
441.577,23.47138,-0.70627,0.30568,0.85447
442.377,23.49655,-0.70639,0.30935,0.85406
443.177,23.5217,-0.70757,0.31112,0.85366
443.977,23.54702,-0.70759,0.3154,0.85325
444.777,23.57228,-0.70759,0.31837,0.85285
445.577,23.59744,-0.70743,0.32367,0.85244
446.377,23.62272,-0.70629,0.32889,0.85203
447.177,23.648,-0.70627,0.32895,0.85163
447.977,23.67326,-0.70627,0.33323,0.85122
448.777,23.69851,-0.70627,0.3375,0.85081
449.577,23.72372,-0.70627,0.34105,0.85041
450.377,23.749,-0.70627,0.34275,0.85
451.177,23.77429,-0.70626,0.34826,0.84959
451.977,23.79961,-0.70757,0.34902,0.84918
452.777,23.8249,-0.7076,0.35112,0.84877
453.577,23.85016,-0.70759,0.35505,0.84836
454.377,23.8755,-0.70759,0.35669,0.84795
455.177,23.90086,-0.70759,0.35994,0.84754
455.977,23.92624,-0.70759,0.36211,0.84713
456.777,23.9516,-0.70759,0.36424,0.84672
457.577,23.9769,-0.70759,0.36921,0.84631
458.377,24.00225,-0.70759,0.3673,0.8459
459.177,24.0275,-0.70759,0.37107,0.84549
459.977,24.0529,-0.7076,0.37524,0.84507
460.777,24.07827,-0.70691,0.37379,0.84466
461.577,24.10365,-0.70757,0.37604,0.84425
462.377,24.12895,-0.70759,0.37891,0.84383
463.177,24.15431,-0.70759,0.37961,0.84342
463.977,24.17961,-0.70759,0.38189,0.84301
464.777,24.20501,-0.70809,0.38275,0.84259
465.577,24.2304,-0.70858,0.38575,0.84218
466.377,24.25584,-0.70858,0.38542,0.84176
467.177,24.2813,-0.70858,0.38792,0.84134
467.977,24.30659,-0.70855,0.38905,0.84093
468.777,24.332,-0.70876,0.3922,0.84051
469.577,24.3573,-0.70759,0.39199,0.84009
470.377,24.38278,-0.70759,0.39547,0.83968
471.177,24.40819,-0.70759,0.39177,0.83926
471.977,24.43362,-0.70759,0.39769,0.83884
472.777,24.459,-0.70759,0.39706,0.83842
473.577,24.4844,-0.70759,0.40033,0.838
474.377,24.5098,-0.70759,0.39997,0.83758
475.177,24.5352,-0.70757,0.39874,0.83716
475.977,24.56063,-0.70655,0.40105,0.83674
476.777,24.58608,-0.70627,0.40257,0.83632
477.577,24.61148,-0.70626,0.40699,0.8359
478.377,24.63692,-0.70745,0.40661,0.83548
479.177,24.66234,-0.70815,0.40753,0.83505
479.977,24.68775,-0.7089,0.40842,0.83463
480.777,24.71323,-0.70891,0.4065,0.83421
481.577,24.7387,-0.70891,0.4091,0.83378
482.377,24.76419,-0.70891,0.41001,0.83336
483.177,24.78973,-0.70891,0.40669,0.83293
483.977,24.8153,-0.70891,0.41233,0.83251
484.777,24.84081,-0.7089,0.41235,0.83208
485.577,24.8663,-0.70787,0.4126,0.83166
486.377,24.89175,-0.70792,0.41393,0.83123
487.177,24.91724,-0.70792,0.41366,0.8308
487.977,24.94275,-0.70792,0.41425,0.83037
488.777,24.9682,-0.70673,0.41352,0.82995
489.577,24.9938,-0.70659,0.41405,0.82952
490.377,25.0193,-0.7066,0.41939,0.82909
491.177,25.0447,-0.7066,0.41838,0.82866
491.977,25.07005,-0.70693,0.41841,0.82823
492.777,25.09544,-0.7079,0.41731,0.8278
493.577,25.121,-0.70792,0.41983,0.82737
494.377,25.14679,-0.70792,0.41978,0.82693
495.177,25.17258,-0.70792,0.41734,0.8265
495.977,25.19817,-0.70792,0.41856,0.82607
496.777,25.22375,-0.70795,0.41866,0.82564
497.577,25.24928,-0.70762,0.4179,0.8252
498.377,25.2749,-0.70603,0.41981,0.82477
499.177,25.30053,-0.70607,0.42235,0.82433
499.977,25.326,-0.70783,0.42469,0.8239
500.777,25.35164,-0.70928,0.42056,0.82346
501.577,25.3772,-0.70924,0.42433,0.82303
502.377,25.40289,-0.70924,0.42395,0.82259
503.177,25.42869,-0.70924,0.42489,0.82215
503.977,25.45437,-0.70924,0.42429,0.82171
504.777,25.48005,-0.70924,0.42288,0.82127
505.577,25.50572,-0.70797,0.42246,0.82084
506.377,25.53134,-0.70792,0.42364,0.8204
507.177,25.55702,-0.70787,0.42343,0.81996
507.977,25.58278,-0.70928,0.4225,0.81951
508.777,25.60853,-0.70923,0.42439,0.81907
509.577,25.6343,-0.70923,0.42527,0.81863
510.377,25.66007,-0.70923,0.42517,0.81819
511.177,25.68575,-0.70923,0.42419,0.81775
511.977,25.71138,-0.70923,0.42618,0.8173
512.777,25.73709,-0.70923,0.42738,0.81686
513.577,25.76277,-0.70923,0.42734,0.81641
514.377,25.78847,-0.70923,0.42677,0.81597
515.177,25.8142,-0.70922,0.42762,0.81552
515.977,25.8399,-0.71022,0.43139,0.81507
516.777,25.8657,-0.71022,0.43087,0.81463
517.577,25.8914,-0.71022,0.43115,0.81418
518.377,25.91708,-0.71022,0.42833,0.81373
519.177,25.9428,-0.71022,0.43091,0.81328
519.977,25.96856,-0.71022,0.43079,0.81283
520.777,25.9944,-0.71014,0.42826,0.81238
521.577,26.02026,-0.71154,0.43099,0.81193
522.377,26.0461,-0.71151,0.43299,0.81148
523.177,26.07186,-0.71186,0.43096,0.81103
523.977,26.09761,-0.71186,0.42958,0.81058
524.777,26.12337,-0.71093,0.43308,0.81012
525.577,26.1492,-0.71055,0.43107,0.80967
526.377,26.17494,-0.71055,0.43286,0.80921
527.177,26.2008,-0.71055,0.43262,0.80876
527.977,26.2266,-0.71055,0.42871,0.8083
528.777,26.25233,-0.71055,0.42969,0.80785
529.577,26.2781,-0.71056,0.43308,0.80739
530.377,26.30377,-0.71137,0.43107,0.80693
531.177,26.3296,-0.71187,0.4334,0.80647
531.977,26.35543,-0.71184,0.43207,0.80601
532.777,26.38123,-0.71218,0.43319,0.80556
533.577,26.407,-0.71219,0.43451,0.8051
534.377,26.43273,-0.71219,0.43475,0.80463
535.177,26.4586,-0.71217,0.43346,0.80417
535.977,26.48435,-0.71095,0.4342,0.80371
536.777,26.5102,-0.71087,0.43517,0.80325
537.577,26.5361,-0.71087,0.43645,0.80279
538.377,26.56206,-0.71087,0.4365,0.80232
539.177,26.58785,-0.71087,0.43696,0.80186
539.977,26.61368,-0.71086,0.43899,0.80139
540.777,26.6395,-0.71084,0.43692,0.80093
541.577,26.66538,-0.71218,0.43643,0.80046
542.377,26.6913,-0.71322,0.43944,0.79999
543.177,26.7171,-0.71318,0.43797,0.79952
543.977,26.743,-0.71318,0.44028,0.79905
544.777,26.76887,-0.71318,0.43887,0.79859
545.577,26.79478,-0.71318,0.43821,0.79812
546.377,26.82067,-0.71318,0.43967,0.79764
547.177,26.8466,-0.71318,0.44019,0.79717
547.977,26.8725,-0.71316,0.44076,0.7967
548.777,26.8984,-0.71183,0.43967,0.79623
549.577,26.92427,-0.71186,0.44059,0.79576
550.377,26.9501,-0.71186,0.44241,0.79528
551.177,26.97611,-0.71186,0.44149,0.79481
551.977,27.0021,-0.71186,0.44119,0.79433
552.777,27.028,-0.71186,0.43906,0.79385
553.577,27.054,-0.71186,0.44061,0.79338
554.377,27.0799,-0.71186,0.44227,0.7929
555.177,27.10595,-0.71186,0.44147,0.79242
555.977,27.13188,-0.71186,0.44158,0.79194
556.777,27.15785,-0.71186,0.44144,0.79146
557.577,27.18378,-0.71186,0.44484,0.79098
558.377,27.2097,-0.71186,0.44407,0.7905
559.177,27.2356,-0.71186,0.44565,0.79002
559.977,27.2615,-0.71186,0.44195,0.78954
560.777,27.28743,-0.71186,0.44557,0.78906
561.577,27.3135,-0.71186,0.44531,0.78857
562.377,27.33949,-0.71215,0.44437,0.78809
563.177,27.3655,-0.71316,0.44344,0.7876
563.977,27.3915,-0.71318,0.44609,0.78712
564.777,27.41749,-0.71318,0.44663,0.78663
565.577,27.44349,-0.71318,0.44862,0.78614
566.377,27.4695,-0.71318,0.45165,0.78565
567.177,27.49545,-0.71318,0.44835,0.78516
567.977,27.52148,-0.71316,0.44747,0.78468
568.777,27.5475,-0.71413,0.44981,0.78418
569.577,27.5735,-0.71417,0.45052,0.78369
570.377,27.5995,-0.71417,0.45368,0.7832
571.177,27.6255,-0.71417,0.45645,0.78271
571.977,27.65162,-0.71417,0.45798,0.78222
572.777,27.6777,-0.71417,0.45976,0.78172
573.577,27.7039,-0.71417,0.45977,0.78123
574.377,27.72997,-0.71417,0.45594,0.78073
575.177,27.75607,-0.71417,0.4581,0.78024
575.977,27.7821,-0.71417,0.45693,0.77974
576.777,27.80813,-0.71409,0.45726,0.77924
577.577,27.8342,-0.71513,0.46041,0.77874
578.377,27.86024,-0.71516,0.45979,0.77824
579.177,27.8863,-0.71516,0.46009,0.77774
579.977,27.9124,-0.71516,0.45952,0.77724
580.777,27.93842,-0.71516,0.46135,0.77674
581.577,27.9645,-0.71515,0.46281,0.77624
582.377,27.9905,-0.71445,0.46419,0.77574
583.177,28.01662,-0.71385,0.4642,0.77523
583.977,28.0427,-0.71384,0.46338,0.77473
584.777,28.0689,-0.71384,0.46388,0.77422
585.577,28.09502,-0.71384,0.46695,0.77372
586.377,28.12115,-0.71384,0.46784,0.77321
587.177,28.1472,-0.71385,0.47289,0.7727
587.977,28.17332,-0.71421,0.47238,0.7722
588.777,28.19942,-0.71289,0.4726,0.77169
589.577,28.22552,-0.71315,0.47238,0.77118
590.377,28.2516,-0.71415,0.47437,0.77067
591.177,28.2778,-0.71415,0.47578,0.77015
591.977,28.3041,-0.71558,0.476,0.76964
592.777,28.3302,-0.71548,0.47906,0.76913
593.577,28.3564,-0.71548,0.47724,0.76862
594.377,28.3826,-0.71548,0.47957,0.7681
595.177,28.4088,-0.71548,0.48445,0.76759
595.977,28.435,-0.71548,0.48729,0.76707
596.777,28.4612,-0.71548,0.48839,0.76655
597.577,28.48736,-0.71548,0.48723,0.76604
598.377,28.51355,-0.71548,0.48739,0.76552
599.177,28.5398,-0.71548,0.49277,0.765
599.977,28.56601,-0.71548,0.49015,0.76448
600.777,28.5923,-0.71597,0.4924,0.76396
601.577,28.61839,-0.71646,0.49434,0.76344
602.377,28.64453,-0.71647,0.49657,0.76291
603.177,28.6707,-0.71647,0.49986,0.76239
603.977,28.69693,-0.71647,0.50042,0.76187
604.777,28.7232,-0.71647,0.50102,0.76134
605.577,28.74948,-0.71647,0.5014,0.76082
606.377,28.77573,-0.71647,0.50306,0.76029
607.177,28.8019,-0.71647,0.50615,0.75976
607.977,28.82804,-0.71644,0.50561,0.75924
608.777,28.8542,-0.71678,0.50755,0.75871
609.577,28.8804,-0.71814,0.51311,0.75818
610.377,28.90669,-0.71812,0.51073,0.75765
611.177,28.933,-0.71812,0.51108,0.75712
611.977,28.95928,-0.71812,0.5145,0.75659
612.777,28.9856,-0.71812,0.51613,0.75605
613.577,29.0119,-0.71812,0.51675,0.75552
614.377,29.03823,-0.71814,0.51539,0.75499
615.177,29.0645,-0.71923,0.5176,0.75445
615.977,29.0908,-0.71982,0.52019,0.75392
616.777,29.11709,-0.72041,0.51663,0.75338
617.577,29.1432,-0.72042,0.51881,0.75284
618.377,29.1693,-0.72042,0.52052,0.7523
619.177,29.19548,-0.72043,0.52457,0.75176
619.977,29.2218,-0.71903,0.52613,0.75122
620.777,29.2484,-0.7191,0.52803,0.75068
621.577,29.275,-0.71909,0.52421,0.75014
622.377,29.3014,-0.72048,0.52853,0.7496
623.177,29.3277,-0.72042,0.52661,0.74906
623.977,29.35401,-0.72042,0.52875,0.74851
624.777,29.38028,-0.72042,0.53124,0.74797
625.577,29.4065,-0.72054,0.534,0.74742
626.377,29.43273,-0.72172,0.53716,0.74688
627.177,29.4591,-0.72174,0.53317,0.74633
627.977,29.4855,-0.72174,0.53374,0.74578
628.777,29.5119,-0.72174,0.53718,0.74523
629.577,29.5383,-0.72169,0.53894,0.74468
630.377,29.56464,-0.72253,0.54006,0.74413
631.177,29.591,-0.72307,0.54005,0.74358
631.977,29.6173,-0.72306,0.54578,0.74303
632.777,29.6436,-0.72288,0.54587,0.74248
633.577,29.66995,-0.72173,0.54598,0.74192
634.377,29.69642,-0.72178,0.55081,0.74137
635.177,29.72277,-0.72407,0.54847,0.74081
635.977,29.74912,-0.72437,0.5525,0.74026
636.777,29.77553,-0.72437,0.55421,0.7397
637.577,29.80198,-0.72435,0.55394,0.73914
638.377,29.8285,-0.72562,0.55545,0.73859
639.177,29.8549,-0.72568,0.56026,0.73803
639.977,29.88125,-0.72568,0.56173,0.73747
640.777,29.9076,-0.72568,0.56825,0.7369
641.577,29.93405,-0.72568,0.56316,0.73634
642.377,29.96043,-0.72531,0.56888,0.73578
643.177,29.9868,-0.72438,0.56833,0.73522
643.977,30.0133,-0.72439,0.57061,0.73465
644.777,30.0397,-0.72568,0.56929,0.73409
645.577,30.0661,-0.72568,0.57044,0.73352
646.377,30.0925,-0.72563,0.57319,0.73295
647.177,30.11885,-0.72699,0.57584,0.73239
647.977,30.1453,-0.727,0.58017,0.73182
648.777,30.17178,-0.72702,0.57936,0.73125
649.577,30.1983,-0.72575,0.5837,0.73068
650.377,30.22475,-0.72571,0.58831,0.73011
651.177,30.25116,-0.7272,0.58912,0.72954
651.977,30.2776,-0.72881,0.59002,0.72896
652.777,30.30397,-0.72867,0.59486,0.72839
653.577,30.33039,-0.73007,0.59866,0.72782
654.377,30.35675,-0.73007,0.60082,0.72724
655.177,30.3832,-0.73007,0.60088,0.72666
655.977,30.40962,-0.73136,0.60659,0.72609
656.777,30.4361,-0.73139,0.6077,0.72551
657.577,30.4625,-0.73138,0.61721,0.72493
658.377,30.48886,-0.73138,0.61734,0.72435
659.177,30.5153,-0.73138,0.62046,0.72377
659.977,30.54175,-0.73145,0.62572,0.72319
660.777,30.5682,-0.73272,0.62645,0.72261
661.577,30.59455,-0.73273,0.63159,0.72203
662.377,30.621,-0.73416,0.63708,0.72144
663.177,30.64735,-0.735,0.63975,0.72086
663.977,30.6738,-0.73513,0.64372,0.72027
664.777,30.70021,-0.73534,0.64688,0.71969
665.577,30.72666,-0.73534,0.64818,0.7191
666.377,30.7531,-0.73534,0.65361,0.71851
667.177,30.7795,-0.73534,0.66123,0.71793
667.977,30.8059,-0.73673,0.6633,0.71734
668.777,30.8323,-0.73675,0.66356,0.71675
669.577,30.8588,-0.73835,0.67382,0.71616
670.377,30.88526,-0.73873,0.67667,0.71556
671.177,30.91171,-0.73975,0.6777,0.71497
671.977,30.93808,-0.74005,0.6829,0.71438
672.777,30.9644,-0.74007,0.68617,0.71378
673.577,30.9909,-0.74111,0.68973,0.71319
674.377,31.0174,-0.74135,0.69423,0.71259
675.177,31.0439,-0.74015,0.70159,0.712
675.977,31.0704,-0.74139,0.70382,0.7114
676.777,31.0968,-0.74138,0.70726,0.7108
677.577,31.1232,-0.74131,0.71263,0.7102
678.377,31.1495,-0.74268,0.71449,0.7096
679.177,31.17598,-0.74268,0.71945,0.709
679.977,31.2024,-0.74325,0.72342,0.7084
680.777,31.2291,-0.744,0.72761,0.7078
681.577,31.25558,-0.74492,0.73272,0.70719
682.377,31.28203,-0.74532,0.73759,0.70659
683.177,31.3085,-0.74531,0.73898,0.70598
683.977,31.3349,-0.74536,0.74303,0.70538
684.777,31.36151,-0.74672,0.7495,0.70477
685.577,31.38806,-0.74792,0.75549,0.70416
686.377,31.41455,-0.74803,0.76054,0.70355
687.177,31.4409,-0.74962,0.76795,0.70295
687.977,31.46732,-0.74975,0.76798,0.70234
688.777,31.49382,-0.75089,0.77594,0.70172
689.577,31.52034,-0.75126,0.77896,0.70111
690.377,31.5469,-0.75085,0.78261,0.7005
691.177,31.57334,-0.75119,0.7881,0.69989
691.977,31.59978,-0.75223,0.79222,0.69927
692.777,31.62627,-0.75284,0.79855,0.69866
693.577,31.65281,-0.75355,0.80189,0.69804
694.377,31.67939,-0.75356,0.80925,0.69743
695.177,31.70601,-0.75481,0.81731,0.69681
695.977,31.73258,-0.75508,0.81944,0.69619
696.777,31.7591,-0.7564,0.82341,0.69557
697.577,31.7856,-0.75791,0.82752,0.69495
698.377,31.81215,-0.75836,0.83396,0.69433
699.177,31.83875,-0.75915,0.83997,0.69371
699.977,31.86529,-0.76045,0.84059,0.69309
700.777,31.8918,-0.7607,0.84883,0.69246
701.577,31.9184,-0.76188,0.85317,0.69184
702.377,31.9449,-0.76272,0.8548,0.69121
703.177,31.97147,-0.7633,0.86329,0.69059
703.977,31.99802,-0.76455,0.86529,0.68996
704.777,32.02456,-0.7662,0.86693,0.68933
705.577,32.05122,-0.76772,0.8736,0.68871
706.377,32.07784,-0.76922,0.87621,0.68808
707.177,32.1044,-0.76948,0.88258,0.68745
707.977,32.13105,-0.76986,0.88598,0.68682
708.777,32.15762,-0.77134,0.88815,0.68619
709.577,32.18423,-0.77259,0.89647,0.68555
710.377,32.21085,-0.77316,0.90068,0.68492
711.177,32.23745,-0.77439,0.90542,0.68429
711.977,32.26403,-0.77582,0.91326,0.68365
712.777,32.29059,-0.77667,0.91446,0.68302
713.577,32.3172,-0.77739,0.92429,0.68238
714.377,32.34386,-0.77816,0.92749,0.68174
715.177,32.3705,-0.77955,0.93282,0.68111
715.977,32.39714,-0.78107,0.93493,0.68047
716.777,32.4238,-0.78264,0.93875,0.67983
717.577,32.45049,-0.78428,0.94312,0.67919
718.377,32.47719,-0.78494,0.94598,0.67855
719.177,32.50387,-0.78487,0.94723,0.67791
719.977,32.53046,-0.7859,0.95405,0.67726
720.777,32.55705,-0.78719,0.95671,0.67662
721.577,32.5837,-0.78725,0.95872,0.67597
722.377,32.6104,-0.78864,0.96088,0.67533
723.177,32.63708,-0.79033,0.96331,0.67468
723.977,32.66373,-0.79206,0.9609,0.67404
724.777,32.69038,-0.7935,0.96408,0.67339
725.577,32.71703,-0.79471,0.96215,0.67274
726.377,32.74366,-0.79533,0.96572,0.67209
727.177,32.7703,-0.79633,0.96519,0.67144
727.977,32.79695,-0.79771,0.96413,0.67079
728.777,32.82362,-0.79883,0.96381,0.67014
729.577,32.85034,-0.80095,0.95982,0.66949
730.377,32.87704,-0.80102,0.96015,0.66884
731.177,32.90372,-0.801,0.95904,0.66818
731.977,32.93045,-0.80248,0.9547,0.66753
732.777,32.95708,-0.80373,0.95484,0.66687
733.577,32.98373,-0.80407,0.94834,0.66622
734.377,33.0104,-0.80531,0.94721,0.66556
735.177,33.03719,-0.80682,0.93974,0.6649
735.977,33.06394,-0.80787,0.93027,0.66424
736.777,33.0908,-0.80833,0.92248,0.66358
737.577,33.11748,-0.80997,0.92098,0.66292
738.377,33.14416,-0.81169,0.91266,0.66226
739.177,33.17092,-0.81317,0.90571,0.6616
739.977,33.19764,-0.81394,0.89527,0.66094
740.777,33.22453,-0.81459,0.88318,0.66028
741.577,33.25122,-0.81599,0.87025,0.65961
742.377,33.27787,-0.81615,0.86056,0.65895
743.177,33.30441,-0.81724,0.84623,0.65828
743.977,33.33103,-0.81864,0.83085,0.65762
744.777,33.35752,-0.81875,0.81948,0.65695
745.577,33.38425,-0.81995,0.8061,0.65628
746.377,33.41097,-0.82136,0.79306,0.65561
747.177,33.43781,-0.82181,0.77571,0.65494
747.977,33.46465,-0.82263,0.76059,0.65427
748.777,33.49145,-0.82271,0.74607,0.6536
749.577,33.5182,-0.82397,0.73272,0.65293
750.377,33.5449,-0.82441,0.71876,0.65226
751.177,33.5717,-0.82528,0.70383,0.65158
751.977,33.59853,-0.82529,0.69105,0.65091
752.777,33.62533,-0.8265,0.67814,0.65024
753.577,33.65208,-0.82726,0.66973,0.64956
754.377,33.67877,-0.82782,0.65791,0.64889
755.177,33.7055,-0.82856,0.64815,0.64821
755.977,33.7322,-0.82857,0.63697,0.64753
756.777,33.75892,-0.82857,0.62475,0.64685
757.577,33.7858,-0.82847,0.61861,0.64617
758.377,33.8126,-0.82989,0.61256,0.64549
759.177,33.83959,-0.82987,0.60695,0.64481
759.977,33.86636,-0.83121,0.60119,0.64413
760.777,33.89301,-0.8312,0.59289,0.64345
761.577,33.91973,-0.8312,0.58258,0.64277
762.377,33.9465,-0.83223,0.57916,0.64208
763.177,33.97343,-0.83253,0.5745,0.6414
763.977,34.0004,-0.83252,0.56848,0.64071
764.777,34.02714,-0.83251,0.56612,0.64003
765.577,34.0539,-0.83286,0.56376,0.63934
766.377,34.08062,-0.83383,0.56081,0.63865
767.177,34.1074,-0.83383,0.55759,0.63797
767.977,34.1342,-0.83382,0.55685,0.63728
768.777,34.16091,-0.83389,0.55096,0.63659
769.577,34.18765,-0.83515,0.54826,0.6359
770.377,34.2144,-0.83515,0.54696,0.63521
771.177,34.2412,-0.8352,0.54684,0.63452
771.977,34.26809,-0.83559,0.54669,0.63382
772.777,34.2949,-0.83547,0.54204,0.63313
773.577,34.3217,-0.8356,0.54547,0.63244
774.377,34.34852,-0.83679,0.54254,0.63174
775.177,34.37528,-0.83682,0.54288,0.63105
775.977,34.40204,-0.83647,0.54494,0.63035
776.777,34.42884,-0.8367,0.54103,0.62966
777.577,34.45563,-0.83776,0.54345,0.62896
778.377,34.4824,-0.83722,0.54747,0.62826
779.177,34.50922,-0.83647,0.54743,0.62756
779.977,34.5359,-0.83743,0.54898,0.62686
780.777,34.56265,-0.8378,0.54986,0.62616
781.577,34.58944,-0.83779,0.55179,0.62546
782.377,34.61623,-0.83838,0.55573,0.62476
783.177,34.64307,-0.8391,0.559,0.62406
783.977,34.66988,-0.8391,0.56168,0.62336
784.777,34.69679,-0.8391,0.56152,0.62265
785.577,34.72367,-0.83981,0.56355,0.62195
786.377,34.75042,-0.84042,0.56264,0.62124
787.177,34.77718,-0.84042,0.57031,0.62054
787.977,34.8039,-0.84044,0.56812,0.61983
788.777,34.83075,-0.84147,0.56968,0.61912
789.577,34.8577,-0.84173,0.57209,0.61842
790.377,34.88446,-0.84173,0.57644,0.61771
791.177,34.91126,-0.84174,0.57822,0.617
791.977,34.93806,-0.84253,0.57749,0.61629
792.777,34.9649,-0.84305,0.58256,0.61558
793.577,34.99173,-0.84305,0.58266,0.61487
794.377,35.0186,-0.84305,0.58509,0.61416
795.177,35.0454,-0.84305,0.58609,0.61345
795.977,35.0722,-0.84306,0.58656,0.61273
796.777,35.09896,-0.84439,0.58845,0.61202
797.577,35.12571,-0.84437,0.59344,0.6113
798.377,35.15249,-0.84375,0.59646,0.61059
799.177,35.17928,-0.84436,0.59994,0.60987
799.977,35.2061,-0.84436,0.60346,0.60916
800.777,35.23281,-0.84436,0.60145,0.60844
801.577,35.2596,-0.84436,0.60761,0.60772
802.377,35.28628,-0.84439,0.60631,0.60701
803.177,35.3132,-0.84555,0.60934,0.60629
803.977,35.3402,-0.84568,0.61247,0.60557
804.777,35.36711,-0.84568,0.61325,0.60485
805.577,35.39393,-0.84587,0.61905,0.60413
806.377,35.4208,-0.84699,0.62292,0.60341
807.177,35.44757,-0.847,0.62631,0.60268
807.977,35.47437,-0.84696,0.62451,0.60196
808.777,35.50127,-0.84645,0.62477,0.60124
809.577,35.52805,-0.84698,0.63216,0.60051
810.377,35.55491,-0.84744,0.63597,0.59979
811.177,35.58157,-0.84831,0.63954,0.59906
811.977,35.6083,-0.84883,0.64193,0.59834
812.777,35.63517,-0.84961,0.64277,0.59761
813.577,35.66218,-0.84823,0.64556,0.59688
814.377,35.6892,-0.84831,0.65,0.59616
815.177,35.71621,-0.84945,0.65106,0.59543
815.977,35.74305,-0.84963,0.65718,0.5947
816.777,35.76992,-0.84963,0.65777,0.59397
817.577,35.7968,-0.85092,0.66271,0.59324
818.377,35.82365,-0.85095,0.665,0.59251
819.177,35.85053,-0.85097,0.67443,0.59178
819.977,35.87742,-0.85229,0.6728,0.59105
820.777,35.90428,-0.85226,0.67512,0.59031
821.577,35.9311,-0.85226,0.677,0.58958
822.377,35.95803,-0.85343,0.67893,0.58885
823.177,35.98491,-0.85354,0.68547,0.58811
823.977,36.0118,-0.85494,0.68786,0.58738
824.777,36.03863,-0.8549,0.69159,0.58664
825.577,36.0655,-0.8563,0.69491,0.58591
826.377,36.09235,-0.85621,0.70095,0.58517
827.177,36.1192,-0.85619,0.7019,0.58443
827.977,36.146,-0.85757,0.70733,0.5837
828.777,36.1729,-0.85756,0.71152,0.58296
829.577,36.19979,-0.85622,0.71456,0.58222
830.377,36.22674,-0.85758,0.72005,0.58148
831.177,36.2536,-0.85752,0.72215,0.58074
831.977,36.28051,-0.85752,0.72609,0.58
832.777,36.3074,-0.85796,0.73093,0.57926
833.577,36.33432,-0.85883,0.73383,0.57852
834.377,36.36124,-0.85928,0.74506,0.57778
835.177,36.3882,-0.86015,0.74762,0.57703
835.977,36.41515,-0.86156,0.74506,0.57629
836.777,36.44211,-0.86202,0.75253,0.57555
837.577,36.4691,-0.86291,0.75835,0.5748
838.377,36.49608,-0.86418,0.75958,0.57406
839.177,36.5231,-0.86416,0.76109,0.57331
839.977,36.55003,-0.86553,0.76552,0.57257
840.777,36.5768,-0.86553,0.76722,0.57182
841.577,36.60373,-0.86555,0.77397,0.57107
842.377,36.63071,-0.86658,0.7778,0.57032
843.177,36.6579,-0.86686,0.78171,0.56958
843.977,36.6849,-0.86789,0.78591,0.56883
844.777,36.71182,-0.86817,0.78987,0.56808
845.577,36.73875,-0.86904,0.79294,0.56733
846.377,36.76573,-0.86948,0.79332,0.56658
847.177,36.79272,-0.86958,0.79798,0.56583
847.977,36.81966,-0.86949,0.80498,0.56508
848.777,36.84664,-0.87012,0.80941,0.56432
849.577,36.87365,-0.87087,0.80967,0.56357
850.377,36.9007,-0.87225,0.81429,0.56282
851.177,36.92773,-0.8724,0.81567,0.56207
851.977,36.95477,-0.87362,0.82157,0.56131
852.777,36.9818,-0.87504,0.82647,0.56056
853.577,37.0088,-0.87497,0.82576,0.5598
854.377,37.0358,-0.87592,0.83238,0.55905
855.177,37.06277,-0.87629,0.83663,0.55829
855.977,37.08977,-0.87628,0.84069,0.55754
856.777,37.11677,-0.87763,0.84562,0.55678
857.577,37.14374,-0.87778,0.85213,0.55602
858.377,37.17068,-0.87892,0.85281,0.55527
859.177,37.19768,-0.87765,0.85929,0.55451
859.977,37.22475,-0.87897,0.86366,0.55375
860.777,37.25179,-0.87893,0.86793,0.55299
861.577,37.2788,-0.88026,0.8747,0.55223
862.377,37.30578,-0.88147,0.877,0.55147
863.177,37.3328,-0.8818,0.88308,0.55071
863.977,37.3598,-0.88308,0.88904,0.54995
864.777,37.38685,-0.88414,0.89631,0.54919
865.577,37.41395,-0.88424,0.8978,0.54843
866.377,37.44095,-0.88542,0.90442,0.54766
867.177,37.46799,-0.88507,0.91397,0.5469
867.977,37.4951,-0.88631,0.92045,0.54614
868.777,37.52207,-0.88636,0.92028,0.54537
869.577,37.54899,-0.88701,0.92977,0.54461
870.377,37.57592,-0.88713,0.93498,0.54385
871.177,37.60285,-0.88829,0.93943,0.54308
871.977,37.62982,-0.88976,0.94742,0.54232
872.777,37.65679,-0.89016,0.94834,0.54155
873.577,37.6839,-0.89111,0.95401,0.54078
874.377,37.71089,-0.89264,0.95656,0.54002
875.177,37.73792,-0.89188,0.96402,0.53925
875.977,37.76491,-0.89261,0.95993,0.53848
876.777,37.792,-0.89414,0.96309,0.53771
877.577,37.81899,-0.89406,0.96756,0.53695
878.377,37.84601,-0.89533,0.96857,0.53618
879.177,37.87297,-0.89531,0.96767,0.53541
879.977,37.89992,-0.8968,0.96959,0.53464
880.777,37.92689,-0.89745,0.97223,0.53387
881.577,37.95391,-0.89846,0.97698,0.5331
882.377,37.98087,-0.89841,0.97926,0.53233
883.177,38.00784,-0.89995,0.98126,0.53156
883.977,38.03477,-0.90111,0.98527,0.53079
884.777,38.06175,-0.90152,0.98986,0.53001
885.577,38.08875,-0.90239,0.98985,0.52924
886.377,38.1158,-0.90282,0.99636,0.52847
887.177,38.14286,-0.90423,0.99931,0.5277
887.977,38.16989,-0.90413,1.00922,0.52692
888.777,38.19693,-0.90547,1.0142,0.52615
889.577,38.22392,-0.90542,1.02149,0.52537
890.377,38.25093,-0.90691,1.03135,0.5246
891.177,38.278,-0.90823,1.03768,0.52383
891.977,38.30591,-0.90875,1.04532,0.52305
892.777,38.33253,-0.90973,1.05603,0.52227