File: 01_Data/Gypsum_Wallboard_Gypsum_Core/STA/N2/30K_min/Gypsum_Wallboard_Gypsum_Core_STA_N2_30KData_220221_R2.csv
##Temp./Â°C,Time/min,Mass loss(subtr.2)/mg,DSC(subtr.2)/(mW/mg),Sensit./(uV/mW)
48.721,10.00917,-0.00548,-0.002409997,1.08895
49.521,10.57494,-0.00521163,0.03260231,1.08828
50.321,10.70461,-0.006826014,0.06319535,1.08761
51.121,10.7987,-0.006026018,0.0919378,1.08693
51.921,10.87524,-0.004956248,0.11713,1.08626
52.721,10.9419,-0.00382295,0.14107,1.08559
53.521,11.0017,-0.004790595,0.16176,1.08492
54.321,11.05678,-0.00550355,0.18485,1.08425
55.121,11.10801,-0.004925627,0.20476,1.08358
55.921,11.156,-0.006175806,0.2213,1.08292
56.721,11.2014,-0.006345417,0.23888,1.08225
57.521,11.2449,-0.00590306,0.25293,1.08159
58.321,11.28656,-0.004231186,0.27277,1.08092
59.121,11.32696,-0.004130324,0.28975,1.08026
59.921,11.366,-0.003774058,0.30081,1.0796
60.721,11.40377,-0.00380554,0.31766,1.07894
61.521,11.44069,-0.004026903,0.32688,1.07828
62.321,11.47679,-0.004697678,0.33955,1.07762
63.121,11.512,-0.004779816,0.35162,1.07697
63.921,11.54677,-0.002555844,0.36428,1.07631
64.721,11.58083,-0.003751884,0.37291,1.07566
65.521,11.6141,-0.00414485,0.38402,1.075
66.321,11.6473,-0.003545866,0.39315,1.07435
67.121,11.68008,-0.00300118,0.40226,1.0737
67.921,11.7125,-0.003970715,0.41245,1.07305
68.721,11.74427,-0.004154119,0.42207,1.0724
69.521,11.77552,-0.00451045,0.42989,1.07175
70.321,11.80671,-0.005100665,0.43836,1.07111
71.121,11.8377,-0.005694067,0.44811,1.07046
71.921,11.86837,-0.006222428,0.45497,1.06982
72.721,11.89889,-0.005627541,0.46493,1.06917
73.521,11.92895,-0.004714997,0.4724,1.06853
74.321,11.959,-0.004910821,0.47932,1.06789
75.121,11.98881,-0.006094565,0.48905,1.06725
75.921,12.01866,-0.006073825,0.49604,1.06661
76.721,12.04818,-0.00522494,0.50389,1.06597
77.521,12.07751,-0.0056247,0.5128,1.06534
78.321,12.1066,-0.00671494,0.52094,1.0647
79.121,12.1357,-0.007873966,0.52926,1.06407
79.921,12.1645,-0.008114098,0.53686,1.06343
80.721,12.19336,-0.00791075,0.54692,1.0628
81.521,12.22203,-0.00820896,0.55578,1.06217
82.321,12.2506,-0.008394314,0.56472,1.06154
83.121,12.279,-0.00767585,0.57084,1.06091
83.921,12.30724,-0.008384285,0.58247,1.06028
84.721,12.3355,-0.008109003,0.59042,1.05965
85.521,12.3637,-0.007929109,0.60184,1.05903
86.321,12.3919,-0.008428025,0.61071,1.0584
87.121,12.41991,-0.008439669,0.62131,1.05778
87.921,12.44779,-0.008447089,0.63599,1.05716
88.721,12.47562,-0.008641769,0.64729,1.05654
89.521,12.50333,-0.00890586,0.65949,1.05592
90.321,12.53095,-0.009958536,0.67375,1.0553
91.121,12.5585,-0.01126861,0.68791,1.05468
91.921,12.58608,-0.01129184,0.70292,1.05406
92.721,12.61362,-0.01134171,0.71644,1.05344
93.521,12.64108,-0.01257452,0.73194,1.05283
94.321,12.6685,-0.01255671,0.74983,1.05222
95.121,12.69582,-0.01261778,0.76941,1.0516
95.921,12.72307,-0.01334385,0.7903,1.05099
96.721,12.75034,-0.01393436,0.80955,1.05038
97.521,12.77741,-0.01394973,0.8332,1.04977
98.321,12.80475,-0.01520005,0.85572,1.04916
99.121,12.83197,-0.0152466,0.88119,1.04855
99.921,12.85926,-0.0152554,0.90665,1.04795
100.721,12.8862,-0.01656592,0.93463,1.04734
101.521,12.91319,-0.01648021,0.96548,1.04674
102.321,12.94027,-0.01791663,0.99581,1.04614
103.121,12.96746,-0.01972604,1.03089,1.04553
103.921,12.99468,-0.02046023,1.06543,1.04493
104.721,13.02177,-0.0227528,1.10043,1.04433
105.521,13.0487,-0.0231494,1.13916,1.04373
106.321,13.07578,-0.02557385,1.17608,1.04314
107.121,13.1029,-0.02612182,1.21489,1.04254
107.921,13.1301,-0.02734201,1.2552,1.04194
108.721,13.15709,-0.02966194,1.29655,1.04135
109.521,13.18399,-0.03170348,1.33839,1.04076
110.321,13.211,-0.03353815,1.37776,1.04016
111.121,13.238,-0.0351294,1.41932,1.03957
111.921,13.265,-0.03872676,1.46248,1.03898
112.721,13.29202,-0.04076299,1.50458,1.03839
113.521,13.31895,-0.04363364,1.55082,1.0378
114.321,13.3459,-0.04538745,1.59425,1.03722
115.121,13.37285,-0.04753261,1.64305,1.03663
115.921,13.3998,-0.05007898,1.69681,1.03605
116.721,13.4269,-0.05331077,1.76367,1.03546
117.521,13.45376,-0.05659088,1.85458,1.03488
118.321,13.4805,-0.0591634,1.98387,1.0343
119.121,13.5073,-0.06282752,2.1553,1.03372
119.921,13.53415,-0.0678783,2.33942,1.03314
120.721,13.56119,-0.07220707,2.53061,1.03256
121.521,13.58823,-0.07615116,2.72888,1.03198
122.321,13.6153,-0.0818903,2.93651,1.0314
123.121,13.64221,-0.08963088,3.1497,1.03083
123.921,13.66913,-0.09738018,3.37416,1.03025
124.721,13.69605,-0.1054,3.60699,1.02968
125.521,13.723,-0.11257,3.85174,1.02911
126.321,13.75,-0.11991,4.10421,1.02853
127.121,13.77696,-0.12917,4.36879,1.02796
127.921,13.80395,-0.1408,4.64361,1.02739
128.721,13.8309,-0.15038,4.92874,1.02683
129.521,13.85794,-0.16135,5.22142,1.02626
130.321,13.88512,-0.17332,5.52174,1.02569
131.121,13.91221,-0.18583,5.82654,1.02513
131.921,13.93936,-0.19937,6.13335,1.02456
132.721,13.9665,-0.21286,6.44142,1.024
133.521,13.99365,-0.22687,6.74712,1.02344
134.321,14.02091,-0.24213,7.04731,1.02288
135.121,14.0481,-0.25843,7.33373,1.02232
135.921,14.0753,-0.27326,7.60331,1.02176
136.721,14.1024,-0.28995,7.85144,1.0212
137.521,14.12955,-0.3078,8.06724,1.02064
138.321,14.15669,-0.32319,8.25175,1.02008
139.121,14.18375,-0.34091,8.39043,1.01953
139.921,14.21074,-0.35916,8.48364,1.01897
140.721,14.2377,-0.37485,8.52081,1.01842
141.521,14.26464,-0.3918,8.49967,1.01787
142.321,14.29146,-0.40922,8.41642,1.01732
143.121,14.3181,-0.42324,8.26625,1.01677
143.921,14.34462,-0.43775,8.06044,1.01622
144.721,14.371,-0.45329,7.79636,1.01567
145.521,14.39735,-0.46493,7.50486,1.01512
146.321,14.42358,-0.47542,7.26736,1.01458
147.121,14.4496,-0.48572,7.10178,1.01403
147.921,14.4756,-0.49538,6.99031,1.01349
148.721,14.5015,-0.50541,6.91425,1.01294
149.521,14.5274,-0.51625,6.87312,1.0124
150.321,14.55323,-0.52479,6.85815,1.01186
151.121,14.57886,-0.53537,6.86524,1.01132
151.921,14.6045,-0.5471,6.88243,1.01078
152.721,14.63018,-0.55847,6.8971,1.01024
153.521,14.6557,-0.56973,6.89553,1.0097
154.321,14.68136,-0.58012,6.85801,1.00917
155.121,14.707,-0.58975,6.7847,1.00863
155.921,14.7325,-0.59973,6.69315,1.0081
156.721,14.75815,-0.60907,6.59964,1.00756
157.521,14.7836,-0.61853,6.48188,1.00703
158.321,14.8089,-0.62731,6.32604,1.0065
159.121,14.83433,-0.63525,6.10396,1.00597
159.921,14.8596,-0.64478,5.78595,1.00544
160.721,14.8848,-0.65298,5.34096,1.00491
161.521,14.9099,-0.65821,4.85455,1.00438
162.321,14.93484,-0.66262,4.38966,1.00385
163.121,14.95977,-0.66589,3.96142,1.00333
163.921,14.98449,-0.66879,3.57803,1.0028
164.721,15.0092,-0.67062,3.23481,1.00228
165.521,15.0336,-0.67205,2.93249,1.00176
166.321,15.0578,-0.67343,2.66354,1.00123
167.121,15.0823,-0.67474,2.42516,1.00071
167.921,15.1067,-0.67728,2.21224,1.00019
168.721,15.13135,-0.67863,2.02424,0.99967
169.521,15.1558,-0.67865,1.86312,0.99915
170.321,15.18011,-0.67969,1.71965,0.99864
171.121,15.20434,-0.68004,1.5916,0.99812
171.921,15.22858,-0.68132,1.48254,0.9976
172.721,15.25293,-0.68137,1.3829,0.99709
173.521,15.2772,-0.68138,1.29636,0.99657
174.321,15.3015,-0.68251,1.21917,0.99606
175.121,15.32585,-0.68268,1.15445,0.99555
175.921,15.3502,-0.6831,1.09508,0.99504
176.721,15.37442,-0.68398,1.04092,0.99453
177.521,15.39869,-0.684,0.99434,0.99402
178.321,15.423,-0.68396,0.95505,0.99351
179.121,15.44721,-0.68523,0.91643,0.993
179.921,15.47149,-0.68531,0.88388,0.99249
180.721,15.4958,-0.68544,0.85538,0.99199
181.521,15.5202,-0.6866,0.82884,0.99148
182.321,15.5445,-0.68789,0.80462,0.99098
183.121,15.56882,-0.68795,0.78382,0.99047
183.921,15.59309,-0.68929,0.76235,0.98997
184.721,15.6173,-0.69079,0.74755,0.98947
185.521,15.64156,-0.69165,0.73156,0.98897
186.321,15.66586,-0.6921,0.71986,0.98847
187.121,15.6901,-0.69211,0.70661,0.98797
187.921,15.7144,-0.69059,0.69395,0.98747
188.721,15.7387,-0.69069,0.68272,0.98697
189.521,15.763,-0.69103,0.67365,0.98648
190.321,15.78735,-0.69201,0.66549,0.98598
191.121,15.8117,-0.69201,0.65792,0.98549
191.921,15.83589,-0.69201,0.64924,0.98499
192.721,15.86014,-0.69201,0.64279,0.9845
193.521,15.8844,-0.69208,0.63541,0.98401
194.321,15.9087,-0.69333,0.63061,0.98352
195.121,15.933,-0.69332,0.62126,0.98303
195.921,15.9573,-0.69332,0.61857,0.98254
196.721,15.98166,-0.69332,0.61392,0.98205
197.521,16.00593,-0.6933,0.60835,0.98156
198.321,16.03024,-0.69434,0.60256,0.98107
199.121,16.0546,-0.69431,0.60202,0.98059
199.921,16.07884,-0.69431,0.59508,0.9801
200.721,16.1032,-0.69431,0.59182,0.97962
201.521,16.12742,-0.69428,0.58961,0.97913
202.321,16.15174,-0.69463,0.58597,0.97865
203.121,16.17606,-0.69464,0.5822,0.97817
203.921,16.20038,-0.69468,0.58123,0.97768
204.721,16.2247,-0.696,0.57785,0.9772
205.521,16.24894,-0.69595,0.57579,0.97672
206.321,16.27318,-0.69667,0.57167,0.97624
207.121,16.2974,-0.69762,0.5716,0.97577
207.921,16.32173,-0.6976,0.56962,0.97529
208.721,16.34609,-0.6976,0.56611,0.97481
209.521,16.37046,-0.6976,0.56367,0.97434
210.321,16.39479,-0.6976,0.5605,0.97386
211.121,16.41901,-0.6976,0.56041,0.97339
211.921,16.44329,-0.6976,0.55648,0.97291
212.721,16.4675,-0.6976,0.55341,0.97244
213.521,16.49181,-0.6976,0.55165,0.97197
214.321,16.5161,-0.6976,0.55022,0.9715
215.121,16.54038,-0.6976,0.54752,0.97103
215.921,16.56475,-0.6976,0.54665,0.97056
216.721,16.58902,-0.6976,0.54299,0.97009
217.521,16.61328,-0.6976,0.54647,0.96962
218.321,16.6375,-0.6976,0.54524,0.96915
219.121,16.66173,-0.6974,0.54307,0.96868
219.921,16.68604,-0.69622,0.54423,0.96822
220.721,16.7103,-0.69852,0.5409,0.96775
221.521,16.7346,-0.69943,0.54053,0.96729
222.321,16.7588,-0.69989,0.5412,0.96682
223.121,16.783,-0.70139,0.53789,0.96636
223.921,16.8073,-0.70133,0.53604,0.9659
224.721,16.83134,-0.70133,0.5359,0.96544
225.521,16.85565,-0.70126,0.53419,0.96497
226.321,16.87987,-0.70198,0.53234,0.96451
227.121,16.90417,-0.70225,0.53463,0.96405
227.921,16.9285,-0.70331,0.53152,0.9636
228.721,16.9527,-0.7033,0.5296,0.96314
229.521,16.9768,-0.7033,0.52818,0.96268
230.321,17.001,-0.7033,0.52591,0.96222
231.121,17.02535,-0.7033,0.52657,0.96177
231.921,17.04965,-0.70174,0.52525,0.96131
232.721,17.074,-0.70132,0.52485,0.96086
233.521,17.0982,-0.70045,0.52375,0.9604
234.321,17.12235,-0.7021,0.52195,0.95995
235.121,17.14648,-0.70189,0.52338,0.9595
235.921,17.17064,-0.70295,0.52095,0.95905
236.721,17.1948,-0.70296,0.5216,0.95859
237.521,17.21893,-0.70428,0.5184,0.95814
238.321,17.2431,-0.7043,0.51725,0.95769
239.121,17.26729,-0.70429,0.51843,0.95724
239.921,17.2914,-0.70427,0.51768,0.9568
240.721,17.31564,-0.7029,0.51624,0.95635
241.521,17.33989,-0.70297,0.51566,0.9559
242.321,17.36404,-0.70323,0.51347,0.95545
243.121,17.3883,-0.7043,0.51508,0.95501
243.921,17.41253,-0.70496,0.51195,0.95456
244.721,17.43662,-0.7056,0.51144,0.95412
245.521,17.46084,-0.70561,0.50973,0.95367
246.321,17.48499,-0.70561,0.51019,0.95323
247.121,17.50919,-0.70561,0.50721,0.95279
247.921,17.5334,-0.70424,0.50933,0.95234
248.721,17.55754,-0.70429,0.50766,0.9519
249.521,17.5817,-0.70429,0.50485,0.95146
250.321,17.6058,-0.70429,0.50399,0.95102
251.121,17.62995,-0.70431,0.50398,0.95058
251.921,17.65409,-0.70461,0.50126,0.95014
252.721,17.67821,-0.70463,0.5029,0.9497
253.521,17.7024,-0.70535,0.50136,0.94926
254.321,17.72651,-0.70528,0.50122,0.94883
255.121,17.75068,-0.70526,0.49902,0.94839
255.921,17.7748,-0.706,0.49845,0.94795
256.721,17.79891,-0.70594,0.499,0.94752
257.521,17.8231,-0.70594,0.49756,0.94708
258.321,17.8472,-0.70594,0.49631,0.94665
259.121,17.87119,-0.70641,0.49619,0.94621
259.921,17.8953,-0.70691,0.49386,0.94578
260.721,17.9194,-0.70692,0.4931,0.94535
261.521,17.94352,-0.70692,0.49297,0.94492
262.321,17.96772,-0.70692,0.48934,0.94448
263.121,17.99181,-0.70692,0.49058,0.94405
263.921,18.016,-0.70687,0.49078,0.94362
264.721,18.0401,-0.70826,0.48834,0.94319
265.521,18.0642,-0.70824,0.48616,0.94276
266.321,18.08821,-0.70824,0.48514,0.94233
267.121,18.11206,-0.70824,0.48452,0.94191
267.921,18.13614,-0.70838,0.48212,0.94148
268.721,18.1603,-0.70955,0.48367,0.94105
269.521,18.18457,-0.70956,0.47887,0.94062
270.321,18.20896,-0.70957,0.47833,0.9402
271.121,18.23309,-0.70824,0.47922,0.93977
271.921,18.2573,-0.70831,0.47749,0.93935
272.721,18.28135,-0.70691,0.4766,0.93892
273.521,18.3055,-0.70692,0.47597,0.9385
274.321,18.32965,-0.70692,0.47229,0.93807
275.121,18.35388,-0.70692,0.47109,0.93765
275.921,18.37811,-0.70692,0.47195,0.93723
276.721,18.40225,-0.70692,0.46911,0.9368
277.521,18.4264,-0.70692,0.46981,0.93638
278.321,18.45048,-0.70692,0.46809,0.93596
279.121,18.47455,-0.70691,0.4686,0.93554
279.921,18.49867,-0.70821,0.46485,0.93512
280.721,18.52283,-0.70861,0.46477,0.9347
281.521,18.547,-0.70852,0.46302,0.93428
282.321,18.57122,-0.70957,0.46272,0.93386
283.121,18.59545,-0.70956,0.46234,0.93344
283.921,18.61961,-0.70956,0.46051,0.93303
284.721,18.64377,-0.70853,0.46046,0.93261
285.521,18.6679,-0.70824,0.46037,0.93219
286.321,18.6921,-0.70826,0.45729,0.93177
287.121,18.71622,-0.70903,0.45819,0.93136
287.921,18.74043,-0.70823,0.45526,0.93094
288.721,18.76461,-0.70826,0.45605,0.93053
289.521,18.78866,-0.70887,0.45773,0.93011
290.321,18.81285,-0.70923,0.45466,0.9297
291.121,18.83707,-0.70923,0.45377,0.92928
291.921,18.86135,-0.70922,0.45077,0.92887
292.721,18.8857,-0.70859,0.45248,0.92846
293.521,18.90995,-0.70927,0.45032,0.92804
294.321,18.93422,-0.70924,0.44979,0.92763
295.121,18.9585,-0.70923,0.4481,0.92722
295.921,18.9827,-0.70923,0.44755,0.92681
296.721,19.00679,-0.70923,0.44548,0.9264
297.521,19.031,-0.70921,0.44641,0.92598
298.321,19.05526,-0.71036,0.44562,0.92557
299.121,19.07949,-0.71055,0.44412,0.92516
299.921,19.10381,-0.71055,0.44266,0.92475
300.721,19.12803,-0.71055,0.44141,0.92435
301.521,19.15224,-0.71055,0.44144,0.92394
302.321,19.17664,-0.71058,0.44049,0.92353
303.121,19.20089,-0.70973,0.44201,0.92312
303.921,19.22515,-0.70872,0.44222,0.92271
304.721,19.24948,-0.70857,0.44107,0.9223
305.521,19.27375,-0.70857,0.44106,0.9219
306.321,19.298,-0.70857,0.44048,0.92149
307.121,19.32227,-0.70857,0.43937,0.92108
307.921,19.3466,-0.70857,0.43937,0.92068
308.721,19.3708,-0.70857,0.43989,0.92027
309.521,19.39508,-0.70857,0.4403,0.91987
310.321,19.41931,-0.70857,0.43692,0.91946
311.121,19.44359,-0.70918,0.43502,0.91906
311.921,19.46791,-0.70985,0.43544,0.91865
312.721,19.49224,-0.70989,0.43393,0.91825
313.521,19.51659,-0.70989,0.43573,0.91784
314.321,19.54091,-0.70986,0.4339,0.91744
315.121,19.5652,-0.7111,0.43437,0.91704
315.921,19.58946,-0.71186,0.43451,0.91663
316.721,19.61376,-0.71186,0.43411,0.91623
317.521,19.63809,-0.71186,0.43307,0.91583
318.321,19.66242,-0.71186,0.43297,0.91543
319.121,19.68676,-0.71184,0.43249,0.91502
319.921,19.71112,-0.71114,0.43185,0.91462
320.721,19.73551,-0.7112,0.43071,0.91422
321.521,19.75985,-0.7112,0.43261,0.91382
322.321,19.78416,-0.7112,0.42876,0.91342
323.121,19.80848,-0.7112,0.42955,0.91302
323.921,19.83285,-0.7112,0.43068,0.91262
324.721,19.85725,-0.7112,0.42714,0.91222
325.521,19.8816,-0.7112,0.42803,0.91182
326.321,19.906,-0.7112,0.42776,0.91142
327.121,19.93038,-0.7112,0.42739,0.91102
327.921,19.9547,-0.7112,0.42658,0.91062
328.721,19.9791,-0.7112,0.42566,0.91022
329.521,20.00349,-0.71118,0.4227,0.90982
330.321,20.02787,-0.71185,0.42338,0.90943
331.121,20.0523,-0.71118,0.42272,0.90903
331.921,20.07667,-0.7112,0.42083,0.90863
332.721,20.101,-0.7112,0.4209,0.90823
333.521,20.12539,-0.7112,0.42146,0.90784
334.321,20.1498,-0.7112,0.41989,0.90744
335.121,20.17424,-0.71122,0.42206,0.90704
335.921,20.1987,-0.71215,0.41931,0.90664
336.721,20.22312,-0.71252,0.41966,0.90625
337.521,20.24756,-0.71273,0.41853,0.90585
338.321,20.27196,-0.71379,0.41733,0.90546
339.121,20.29632,-0.71246,0.41726,0.90506
339.921,20.32076,-0.71251,0.41742,0.90466
340.721,20.34521,-0.71365,0.41589,0.90427
341.521,20.36971,-0.71384,0.41427,0.90387
342.321,20.39418,-0.71384,0.41485,0.90348
343.121,20.41865,-0.71384,0.41563,0.90308
343.921,20.44308,-0.71384,0.41389,0.90269
344.721,20.4676,-0.71384,0.41414,0.90229
345.521,20.49201,-0.71407,0.41193,0.9019
346.321,20.51654,-0.71515,0.41266,0.9015
347.121,20.54104,-0.71515,0.41243,0.90111
347.921,20.56551,-0.71515,0.41277,0.90072
348.721,20.58994,-0.71515,0.41139,0.90032
349.521,20.6144,-0.71515,0.40993,0.89993
350.321,20.63896,-0.71515,0.40513,0.89953
351.121,20.6635,-0.71515,0.40626,0.89914
351.921,20.68805,-0.71515,0.40593,0.89875
352.721,20.71252,-0.71515,0.40366,0.89835
353.521,20.73702,-0.71515,0.40351,0.89796
354.321,20.7615,-0.71515,0.40147,0.89757
355.121,20.78598,-0.71515,0.4014,0.89717
355.921,20.8105,-0.71515,0.3974,0.89678
356.721,20.83494,-0.71515,0.39697,0.89639
357.521,20.85945,-0.71515,0.39475,0.89599
358.321,20.88395,-0.71543,0.39274,0.8956
359.121,20.90851,-0.71613,0.39095,0.89521
359.921,20.93304,-0.71613,0.38853,0.89482
360.721,20.95757,-0.71613,0.3855,0.89442
361.521,20.9821,-0.71622,0.38236,0.89403
362.321,21.00667,-0.71646,0.37899,0.89364
363.121,21.0312,-0.71646,0.37826,0.89325
363.921,21.05579,-0.71646,0.37407,0.89285
364.721,21.08035,-0.71646,0.37026,0.89246
365.521,21.105,-0.71646,0.36854,0.89207
366.321,21.12955,-0.71646,0.36474,0.89168
367.121,21.1541,-0.71646,0.36302,0.89129
367.921,21.1787,-0.71646,0.35921,0.89089
368.721,21.2033,-0.71652,0.35703,0.8905
369.521,21.22795,-0.7158,0.35009,0.89011
370.321,21.25264,-0.71653,0.34839,0.88972
371.121,21.27727,-0.71743,0.34181,0.88933
371.921,21.30183,-0.71853,0.33654,0.88893
372.721,21.32643,-0.71842,0.33422,0.88854
373.521,21.35104,-0.71707,0.32807,0.88815
374.321,21.37572,-0.71616,0.32388,0.88776
375.121,21.4004,-0.71613,0.31523,0.88737
375.921,21.42505,-0.71613,0.30994,0.88698
376.721,21.4497,-0.71613,0.3057,0.88658
377.521,21.47433,-0.71613,0.30182,0.88619
378.321,21.49902,-0.71613,0.29294,0.8858
379.121,21.5237,-0.71613,0.28532,0.88541
379.921,21.54832,-0.71613,0.27965,0.88502
380.721,21.57295,-0.71614,0.27092,0.88463
381.521,21.5976,-0.71639,0.26123,0.88423
382.321,21.62231,-0.71678,0.25474,0.88384
383.121,21.64702,-0.71679,0.24449,0.88345
383.921,21.6718,-0.71679,0.23547,0.88306
384.721,21.69651,-0.71679,0.22316,0.88267
385.521,21.72119,-0.71679,0.21104,0.88227
386.321,21.74598,-0.71679,0.20007,0.88188
387.121,21.77071,-0.71679,0.18826,0.88149
387.921,21.79547,-0.7178,0.17844,0.8811
388.721,21.8202,-0.71851,0.16582,0.8807
389.521,21.84497,-0.71909,0.14848,0.88031
390.321,21.86972,-0.7191,0.13562,0.87992
391.121,21.8945,-0.7191,0.12023,0.87953
391.921,21.9192,-0.7191,0.1068,0.87914
392.721,21.94397,-0.7191,0.09141594,0.87874
393.521,21.96868,-0.7191,0.07411277,0.87835
394.321,21.99344,-0.7191,0.05846897,0.87796
395.121,22.01823,-0.7191,0.04232692,0.87756
395.921,22.04299,-0.7191,0.0248378,0.87717
396.721,22.06777,-0.7191,0.006722571,0.87678
397.521,22.09254,-0.7191,-0.006368632,0.87639
398.321,22.11734,-0.71905,-0.02672295,0.87599
399.121,22.14217,-0.72011,-0.04090025,0.8756
399.921,22.16701,-0.72009,-0.05682002,0.87521
400.721,22.1919,-0.72009,-0.06933712,0.87481
401.521,22.21666,-0.72009,-0.08385346,0.87442
402.321,22.24155,-0.72007,-0.09564653,0.87402
403.121,22.2664,-0.72044,-0.1055,0.87363
403.921,22.29126,-0.72042,-0.11454,0.87324
404.721,22.31612,-0.72047,-0.12447,0.87284
405.521,22.341,-0.71906,-0.12771,0.87245
406.321,22.3658,-0.7191,-0.13074,0.87205
407.121,22.3906,-0.7191,-0.13422,0.87166
407.921,22.41551,-0.7191,-0.13207,0.87126
408.721,22.44032,-0.7191,-0.13183,0.87087
409.521,22.46521,-0.7191,-0.12635,0.87047
410.321,22.49016,-0.71908,-0.12077,0.87008
411.121,22.51503,-0.72038,-0.11287,0.86968
411.921,22.54005,-0.72042,-0.10528,0.86929
412.721,22.565,-0.72042,-0.09014223,0.86889
413.521,22.5898,-0.72042,-0.07853331,0.86849
414.321,22.61479,-0.72042,-0.06614081,0.8681
415.121,22.63975,-0.72042,-0.05250048,0.8677
415.921,22.6649,-0.72042,-0.03688039,0.86731
416.721,22.68991,-0.72042,-0.02167436,0.86691
417.521,22.71484,-0.72042,-0.008517369,0.86651
418.321,22.73978,-0.72042,0.00914801,0.86612
419.121,22.76476,-0.72042,0.02454569,0.86572
419.921,22.78975,-0.72042,0.03776274,0.86532
420.721,22.8147,-0.72042,0.05682979,0.86492
421.521,22.83975,-0.72042,0.06821485,0.86452
422.321,22.86484,-0.72042,0.08545098,0.86413
423.121,22.88992,-0.72041,0.09766112,0.86373
423.921,22.91496,-0.72114,0.11175,0.86333
424.721,22.94,-0.72108,0.12743,0.86293
425.521,22.96499,-0.72108,0.14033,0.86253
426.321,22.99002,-0.72108,0.15035,0.86213
427.121,23.01505,-0.72108,0.16048,0.86173
427.921,23.03997,-0.72108,0.17506,0.86133
428.721,23.06513,-0.72108,0.1851,0.86093
429.521,23.0902,-0.72106,0.19359,0.86053
430.321,23.11545,-0.72235,0.20404,0.86013
431.121,23.14067,-0.72239,0.21137,0.85973
431.921,23.16582,-0.72244,0.22122,0.85933
432.721,23.19098,-0.72104,0.22941,0.85893
433.521,23.2161,-0.72108,0.23832,0.85853
434.321,23.24118,-0.72108,0.24387,0.85813
435.121,23.26624,-0.72108,0.25316,0.85772
435.921,23.2913,-0.72108,0.25753,0.85732
436.721,23.3165,-0.72108,0.26275,0.85692
437.521,23.3417,-0.72108,0.27063,0.85652
438.321,23.36694,-0.72108,0.27343,0.85611
439.121,23.39216,-0.72108,0.27962,0.85571
439.921,23.41735,-0.72108,0.28307,0.8553
440.721,23.4425,-0.72108,0.28889,0.8549
441.521,23.4677,-0.72108,0.29051,0.8545
442.321,23.49286,-0.72108,0.29543,0.85409
443.121,23.51794,-0.72108,0.29977,0.85369
443.921,23.5432,-0.72157,0.30343,0.85328
444.721,23.5685,-0.72173,0.3058,0.85287
445.521,23.59376,-0.72173,0.30987,0.85247
446.321,23.61896,-0.72173,0.3139,0.85206
447.121,23.64415,-0.72173,0.31814,0.85166
447.921,23.66928,-0.72173,0.31954,0.85125
448.721,23.69449,-0.72173,0.32125,0.85084
449.521,23.71975,-0.72173,0.32452,0.85043
450.321,23.7451,-0.72173,0.32803,0.85003
451.121,23.7704,-0.72173,0.33172,0.84962
451.921,23.79571,-0.72173,0.33239,0.84921
452.721,23.82103,-0.72173,0.3325,0.8488
453.521,23.84629,-0.72173,0.33505,0.84839
454.321,23.87152,-0.72173,0.33758,0.84798
455.121,23.89679,-0.72173,0.34096,0.84757
455.921,23.922,-0.72173,0.34427,0.84716
456.721,23.94731,-0.72173,0.34481,0.84675
457.521,23.97259,-0.72173,0.34552,0.84634
458.321,23.99803,-0.72173,0.34726,0.84593
459.121,24.02325,-0.72186,0.3489,0.84551
459.921,24.04859,-0.72206,0.35294,0.8451
460.721,24.07394,-0.72206,0.35128,0.84469
461.521,24.09941,-0.72206,0.35056,0.84428
462.321,24.12473,-0.72206,0.35473,0.84386
463.121,24.15,-0.72206,0.35444,0.84345
463.921,24.17537,-0.72206,0.35696,0.84303
464.721,24.20071,-0.72206,0.35725,0.84262
465.521,24.22605,-0.72206,0.36033,0.8422
466.321,24.25142,-0.72208,0.35899,0.84179
467.121,24.2768,-0.72083,0.35985,0.84137
467.921,24.3022,-0.72099,0.364,0.84096
468.721,24.32766,-0.72259,0.36162,0.84054
469.521,24.35306,-0.72346,0.36306,0.84012
470.321,24.37845,-0.72348,0.36469,0.8397
471.121,24.40385,-0.72348,0.36522,0.83929
471.921,24.42931,-0.72348,0.36853,0.83887
472.721,24.45477,-0.72348,0.36621,0.83845
473.521,24.4802,-0.72348,0.36746,0.83803
474.321,24.50563,-0.7237,0.36942,0.83761
475.121,24.5311,-0.72381,0.37004,0.83719
475.921,24.55656,-0.72381,0.37207,0.83677
476.721,24.5821,-0.72381,0.37252,0.83635
477.521,24.60753,-0.72381,0.3707,0.83593
478.321,24.633,-0.72462,0.37373,0.8355
479.121,24.65851,-0.72535,0.37363,0.83508
479.921,24.6841,-0.72536,0.37394,0.83466
480.721,24.70956,-0.72425,0.37663,0.83424
481.521,24.73499,-0.72489,0.37445,0.83381
482.321,24.7605,-0.72491,0.3755,0.83339
483.121,24.78594,-0.72491,0.37633,0.83296
483.921,24.8115,-0.72481,0.37505,0.83254
484.721,24.837,-0.72357,0.37374,0.83211
485.521,24.8626,-0.72359,0.37896,0.83169
486.321,24.88812,-0.72359,0.37574,0.83126
487.121,24.9136,-0.7236,0.37886,0.83083
487.921,24.93915,-0.72227,0.37856,0.8304
488.721,24.96465,-0.72226,0.37777,0.82998
489.521,24.99021,-0.72227,0.37953,0.82955
490.321,25.01574,-0.72242,0.38185,0.82912
491.121,25.04123,-0.72325,0.37768,0.82869
491.921,25.0667,-0.72326,0.38034,0.82826
492.721,25.09224,-0.72326,0.38031,0.82783
493.521,25.11778,-0.72326,0.38049,0.8274
494.321,25.14341,-0.72326,0.38155,0.82697
495.121,25.16891,-0.72326,0.38286,0.82653
495.921,25.19445,-0.72319,0.38331,0.8261
496.721,25.22004,-0.72391,0.38305,0.82567
497.521,25.2456,-0.72393,0.38345,0.82523
498.321,25.27124,-0.72434,0.38455,0.8248
499.121,25.29681,-0.72458,0.38698,0.82436
499.921,25.3224,-0.72458,0.38249,0.82393
500.721,25.34797,-0.72458,0.38458,0.82349
501.521,25.37349,-0.72458,0.38509,0.82306
502.321,25.3991,-0.72458,0.38284,0.82262
503.121,25.42478,-0.72458,0.38472,0.82218
503.921,25.45049,-0.72458,0.38792,0.82174
504.721,25.47612,-0.72458,0.38315,0.82131
505.521,25.5018,-0.72399,0.38469,0.82087
506.321,25.52737,-0.72327,0.38373,0.82043
507.121,25.553,-0.72324,0.38635,0.81999
507.921,25.5786,-0.72231,0.38432,0.81955
508.721,25.60419,-0.7224,0.38418,0.8191
509.521,25.62987,-0.72293,0.38287,0.81866
510.321,25.65553,-0.72293,0.38464,0.81822
511.121,25.68122,-0.72293,0.38556,0.81778
511.921,25.7069,-0.72434,0.38172,0.81733
512.721,25.73252,-0.72457,0.38407,0.81689
513.521,25.7582,-0.72522,0.38184,0.81644
514.321,25.7839,-0.72529,0.38352,0.816
515.121,25.80965,-0.72391,0.38203,0.81555
515.921,25.83541,-0.72392,0.37921,0.81511
516.721,25.86111,-0.72392,0.38003,0.81466
517.521,25.88682,-0.72392,0.3815,0.81421
518.321,25.91255,-0.72392,0.3812,0.81376
519.121,25.93831,-0.72392,0.38331,0.81331
519.921,25.96405,-0.72398,0.38331,0.81286
520.721,25.9898,-0.72658,0.38462,0.81241
521.521,26.01556,-0.72656,0.38224,0.81196
522.321,26.0413,-0.72656,0.38029,0.81151
523.121,26.06709,-0.72656,0.38282,0.81106
523.921,26.09286,-0.72656,0.3824,0.81061
524.721,26.11861,-0.72806,0.37882,0.81015
525.521,26.1444,-0.72946,0.38035,0.8097
526.321,26.17016,-0.72985,0.38029,0.80925
527.121,26.19601,-0.7297,0.37917,0.80879
527.921,26.22178,-0.72736,0.37793,0.80833
528.721,26.24762,-0.72586,0.37785,0.80788
529.521,26.2734,-0.7258,0.37745,0.80742
530.321,26.29907,-0.72524,0.3756,0.80696
531.121,26.32481,-0.72524,0.37567,0.80651
531.921,26.3505,-0.72524,0.37619,0.80605
532.721,26.37643,-0.72524,0.37556,0.80559
533.521,26.4024,-0.72524,0.37539,0.80513
534.321,26.4282,-0.72524,0.37438,0.80467
535.121,26.45393,-0.72524,0.37792,0.80421
535.921,26.47976,-0.72524,0.37532,0.80374
536.721,26.50558,-0.72535,0.37372,0.80328
537.521,26.53153,-0.72654,0.37661,0.80282
538.321,26.5575,-0.72656,0.37414,0.80235
539.121,26.58328,-0.72656,0.37482,0.80189
539.921,26.6092,-0.72656,0.37261,0.80142
540.721,26.6351,-0.72659,0.37352,0.80096
541.521,26.6611,-0.72768,0.37326,0.80049
542.321,26.687,-0.72788,0.37108,0.80002
543.121,26.71288,-0.72788,0.37209,0.79956
543.921,26.73876,-0.72788,0.37199,0.79909
544.721,26.76462,-0.7278,0.3717,0.79862
545.521,26.7905,-0.72658,0.37178,0.79815
546.321,26.81649,-0.72656,0.37189,0.79768
547.121,26.84239,-0.72656,0.37134,0.79721
547.921,26.86833,-0.72656,0.37451,0.79673
548.721,26.89422,-0.72797,0.3738,0.79626
549.521,26.9201,-0.72788,0.37429,0.79579
550.321,26.94609,-0.72788,0.37123,0.79531
551.121,26.9721,-0.72788,0.37075,0.79484
551.921,26.99803,-0.72787,0.37159,0.79436
552.721,27.0239,-0.72892,0.37277,0.79389
553.521,27.0498,-0.72886,0.37083,0.79341
554.321,27.07585,-0.72886,0.37152,0.79293
555.121,27.10202,-0.72886,0.37268,0.79246
555.921,27.128,-0.72886,0.3723,0.79198
556.721,27.154,-0.72886,0.37245,0.7915
557.521,27.18,-0.72886,0.3706,0.79102
558.321,27.2059,-0.72886,0.37216,0.79054
559.121,27.2319,-0.72886,0.37209,0.79005
559.921,27.2578,-0.72886,0.37394,0.78957
560.721,27.28377,-0.72886,0.37333,0.78909
561.521,27.3098,-0.72886,0.37492,0.78861
562.321,27.33591,-0.72886,0.3743,0.78812
563.121,27.36198,-0.72886,0.37404,0.78764
563.921,27.3881,-0.72886,0.37305,0.78715
564.721,27.41409,-0.72886,0.37459,0.78666
565.521,27.44005,-0.72886,0.37423,0.78618
566.321,27.4661,-0.72886,0.37518,0.78569
567.121,27.49209,-0.72886,0.37556,0.7852
567.921,27.51809,-0.72886,0.37684,0.78471
568.721,27.54412,-0.72886,0.37729,0.78422
569.521,27.5702,-0.72886,0.37807,0.78373
570.321,27.5963,-0.72886,0.3794,0.78324
571.121,27.62247,-0.72887,0.37931,0.78274
571.921,27.6485,-0.72918,0.37955,0.78225
572.721,27.6746,-0.72779,0.38259,0.78176
573.521,27.7006,-0.72784,0.38204,0.78126
574.321,27.7267,-0.7301,0.38274,0.78077
575.121,27.7528,-0.73207,0.38273,0.78027
575.921,27.77887,-0.73194,0.38192,0.77977
576.721,27.80485,-0.73033,0.38585,0.77928
577.521,27.83101,-0.72999,0.38335,0.77878
578.321,27.8572,-0.72974,0.38607,0.77828
579.121,27.8834,-0.72974,0.386,0.77778
579.921,27.9095,-0.72974,0.38771,0.77728
580.721,27.93553,-0.72974,0.38728,0.77678
581.521,27.9616,-0.72974,0.3854,0.77627
582.321,27.9876,-0.72945,0.38756,0.77577
583.121,28.01367,-0.72941,0.39061,0.77527
583.921,28.0398,-0.72941,0.39369,0.77476
584.721,28.06595,-0.72941,0.39299,0.77426
585.521,28.09208,-0.72941,0.39577,0.77375
586.321,28.11823,-0.72941,0.39779,0.77325
587.121,28.1443,-0.72931,0.3993,0.77274
587.921,28.1705,-0.72843,0.39935,0.77223
588.721,28.1966,-0.72842,0.39993,0.77172
589.521,28.2228,-0.72842,0.39831,0.77121
590.321,28.249,-0.72842,0.40228,0.7707
591.121,28.27504,-0.72937,0.40356,0.77019
591.921,28.301,-0.72975,0.40535,0.76968
592.721,28.3272,-0.73053,0.40493,0.76917
593.521,28.3534,-0.73105,0.40728,0.76865
594.321,28.37981,-0.73105,0.40733,0.76814
595.121,28.4059,-0.73105,0.40964,0.76762
595.921,28.43208,-0.73105,0.41044,0.76711
596.721,28.45829,-0.73105,0.41011,0.76659
597.521,28.48443,-0.731,0.413,0.76607
598.321,28.5107,-0.7324,0.41526,0.76555
599.121,28.5368,-0.73235,0.41601,0.76504
599.921,28.5631,-0.73164,0.41931,0.76452
600.721,28.58925,-0.73171,0.41787,0.76399
601.521,28.6155,-0.73171,0.41997,0.76347
602.321,28.6417,-0.73171,0.42134,0.76295
603.121,28.66788,-0.73171,0.42312,0.76243
603.921,28.69391,-0.73171,0.42719,0.7619
604.721,28.72001,-0.73171,0.42755,0.76138
605.521,28.7463,-0.73171,0.42544,0.76085
606.321,28.77262,-0.73171,0.42855,0.76033
607.121,28.7991,-0.73171,0.42904,0.7598
607.921,28.8252,-0.73174,0.43017,0.75927
608.721,28.85148,-0.73286,0.43281,0.75875
609.521,28.87782,-0.73303,0.43615,0.75822
610.321,28.9042,-0.73303,0.43529,0.75769
611.121,28.93052,-0.73303,0.43905,0.75716
611.921,28.9567,-0.73303,0.44026,0.75662
612.721,28.98307,-0.73303,0.4425,0.75609
613.521,29.00938,-0.73303,0.44512,0.75556
614.321,29.0358,-0.73431,0.44379,0.75502
615.121,29.06212,-0.73434,0.44773,0.75449
615.921,29.0884,-0.73434,0.45047,0.75395
616.721,29.11465,-0.73434,0.45389,0.75342
617.521,29.141,-0.73434,0.45072,0.75288
618.321,29.16732,-0.73435,0.45329,0.75234
619.121,29.19368,-0.7347,0.45299,0.7518
619.921,29.22007,-0.73468,0.4567,0.75126
620.721,29.24646,-0.73569,0.45658,0.75072
621.521,29.27277,-0.73566,0.45699,0.75018
622.321,29.2991,-0.73566,0.45838,0.74964
623.121,29.3254,-0.73566,0.45936,0.7491
623.921,29.35176,-0.73566,0.46274,0.74855
624.721,29.37817,-0.73566,0.46195,0.74801
625.521,29.4045,-0.73566,0.46429,0.74746
626.321,29.4309,-0.73566,0.46448,0.74692
627.121,29.4572,-0.73566,0.46797,0.74637
627.921,29.48354,-0.73645,0.46917,0.74582
628.721,29.5098,-0.73698,0.47037,0.74527
629.521,29.53625,-0.73698,0.4718,0.74472
630.321,29.56257,-0.73694,0.47545,0.74417
631.121,29.58902,-0.73829,0.47463,0.74362
631.921,29.61538,-0.73829,0.47853,0.74307
632.721,29.64173,-0.73829,0.48028,0.74252
633.521,29.6681,-0.73829,0.48077,0.74196
634.321,29.6945,-0.73829,0.481,0.74141
635.121,29.72082,-0.73829,0.48282,0.74085
635.921,29.74725,-0.73831,0.4869,0.7403
636.721,29.7736,-0.74094,0.48767,0.73974
637.521,29.80003,-0.74093,0.48988,0.73918
638.321,29.82641,-0.74094,0.49152,0.73862
639.121,29.8528,-0.73951,0.49538,0.73807
639.921,29.8793,-0.73961,0.49614,0.73751
640.721,29.90575,-0.73964,0.50004,0.73694
641.521,29.9322,-0.74078,0.50128,0.73638
642.321,29.9586,-0.74092,0.50342,0.73582
643.121,29.98503,-0.74101,0.50752,0.73526
643.921,30.0114,-0.74223,0.5114,0.73469
644.721,30.0379,-0.7419,0.51028,0.73413
645.521,30.0643,-0.74218,0.51329,0.73356
646.321,30.0907,-0.74321,0.51495,0.73299
647.121,30.1171,-0.74268,0.51658,0.73243
647.921,30.14348,-0.74259,0.52121,0.73186
648.721,30.16981,-0.74225,0.52115,0.73129
649.521,30.19629,-0.74225,0.52669,0.73072
650.321,30.2228,-0.74225,0.53039,0.73015
651.121,30.24925,-0.74225,0.53007,0.72958
651.921,30.27566,-0.7436,0.53495,0.729
652.721,30.3021,-0.74356,0.53681,0.72843
653.521,30.32848,-0.74356,0.54075,0.72786
654.321,30.3549,-0.7445,0.54234,0.72728
655.121,30.38128,-0.74489,0.54603,0.7267
655.921,30.4078,-0.74488,0.54731,0.72613
656.721,30.43419,-0.74488,0.55089,0.72555
657.521,30.4607,-0.74535,0.55436,0.72497
658.321,30.4871,-0.74619,0.55711,0.72439
659.121,30.51356,-0.7462,0.56276,0.72381
659.921,30.54007,-0.7462,0.56734,0.72323
660.721,30.5666,-0.7473,0.56742,0.72265
661.521,30.593,-0.74752,0.5743,0.72207
662.321,30.6195,-0.74787,0.57478,0.72148
663.121,30.64595,-0.74881,0.58204,0.7209
663.921,30.6724,-0.74883,0.58425,0.72032
664.721,30.69884,-0.74883,0.58706,0.71973
665.521,30.7253,-0.75021,0.59178,0.71914
666.321,30.75167,-0.75014,0.59601,0.71856
667.121,30.77808,-0.75012,0.60038,0.71797
667.921,30.80445,-0.75074,0.60401,0.71738
668.721,30.8309,-0.75177,0.60634,0.71679
669.521,30.85745,-0.75177,0.61206,0.7162
670.321,30.8839,-0.75221,0.61602,0.71561
671.121,30.9104,-0.7531,0.61944,0.71501
671.921,30.9368,-0.75197,0.62297,0.71442
672.721,30.96332,-0.75254,0.62519,0.71383
673.521,30.9897,-0.7531,0.63213,0.71323
674.321,31.0161,-0.75309,0.63595,0.71263
675.121,31.0427,-0.7534,0.63977,0.71204
675.921,31.06914,-0.75442,0.64448,0.71144
676.721,31.0956,-0.75571,0.64863,0.71084
677.521,31.122,-0.75657,0.65072,0.71024
678.321,31.14845,-0.75727,0.65743,0.70964
679.121,31.17492,-0.75838,0.66147,0.70904
679.921,31.2014,-0.75859,0.66647,0.70844
680.721,31.22782,-0.75859,0.66908,0.70784
681.521,31.25426,-0.75906,0.67544,0.70723
682.321,31.2807,-0.75987,0.68085,0.70663
683.121,31.30715,-0.7613,0.68632,0.70603
683.921,31.33359,-0.76156,0.68912,0.70542
684.721,31.36014,-0.76264,0.69319,0.70481
685.521,31.38659,-0.76264,0.69794,0.70421
686.321,31.413,-0.76405,0.70267,0.7036
687.121,31.43951,-0.76361,0.70684,0.70299
687.921,31.46598,-0.76402,0.713,0.70238
688.721,31.49247,-0.76491,0.71651,0.70177
689.521,31.51892,-0.76537,0.72244,0.70116
690.321,31.5454,-0.7667,0.72388,0.70054
691.121,31.5719,-0.76691,0.72789,0.69993
691.921,31.59838,-0.76801,0.7297,0.69932
692.721,31.62487,-0.77089,0.73891,0.6987
693.521,31.65138,-0.77088,0.74166,0.69809
694.321,31.6779,-0.77221,0.74826,0.69747
695.121,31.7044,-0.77247,0.75073,0.69685
695.921,31.73092,-0.77349,0.75503,0.69623
696.721,31.75736,-0.77478,0.76556,0.69561
697.521,31.78394,-0.77504,0.76534,0.69499
698.321,31.81039,-0.77488,0.76921,0.69437
699.121,31.83687,-0.77492,0.77457,0.69375
699.921,31.86345,-0.77514,0.77913,0.69313
700.721,31.89,-0.77624,0.78421,0.69251
701.521,31.91661,-0.77772,0.7876,0.69188
702.321,31.94313,-0.7786,0.79281,0.69126
703.121,31.9697,-0.77893,0.79608,0.69063
703.921,31.9963,-0.77974,0.8023,0.69001
704.721,32.0229,-0.7817,0.80495,0.68938
705.521,32.04947,-0.78358,0.81376,0.68875
706.321,32.07604,-0.78465,0.81232,0.68812
707.121,32.10256,-0.78493,0.82076,0.68749
707.921,32.12919,-0.78644,0.82475,0.68686
708.721,32.15574,-0.78817,0.82991,0.68623
709.521,32.18228,-0.78962,0.83682,0.6856
710.321,32.20885,-0.79014,0.83827,0.68497
711.121,32.23538,-0.79104,0.8432,0.68433
711.921,32.26197,-0.79199,0.84527,0.6837
712.721,32.28867,-0.79235,0.85371,0.68306
713.521,32.3153,-0.79295,0.86081,0.68243
714.321,32.34206,-0.79402,0.86081,0.68179
715.121,32.3687,-0.79522,0.864,0.68115
715.921,32.3953,-0.79686,0.86717,0.68051
716.721,32.42199,-0.79771,0.8688,0.67987
717.521,32.44869,-0.7989,0.87252,0.67923
718.321,32.47535,-0.80005,0.87317,0.67859
719.121,32.5019,-0.80115,0.87672,0.67795
719.921,32.5286,-0.80259,0.87902,0.67731
720.721,32.5553,-0.80405,0.88166,0.67666
721.521,32.58193,-0.80507,0.87962,0.67602
722.321,32.60864,-0.80668,0.87932,0.67537
723.121,32.63532,-0.80783,0.88341,0.67473
723.921,32.662,-0.80873,0.8827,0.67408
724.721,32.6888,-0.81015,0.88189,0.67344
725.521,32.71548,-0.81164,0.87637,0.67279
726.321,32.74221,-0.81316,0.87933,0.67214
727.121,32.76892,-0.81495,0.87906,0.67149
727.921,32.79557,-0.81507,0.87687,0.67084
728.721,32.8223,-0.81641,0.87821,0.67019
729.521,32.84901,-0.81782,0.87356,0.66953
730.321,32.87578,-0.81766,0.8728,0.66888
731.121,32.90253,-0.81852,0.87325,0.66823
731.921,32.9292,-0.81869,0.86822,0.66757
732.721,32.9559,-0.81945,0.86237,0.66692
733.521,32.98253,-0.82113,0.85924,0.66626
734.321,33.00933,-0.82265,0.85756,0.6656
735.121,33.03609,-0.82398,0.85122,0.66495
735.921,33.06293,-0.82585,0.84811,0.66429
736.721,33.0897,-0.82674,0.84275,0.66363
737.521,33.11643,-0.82716,0.84139,0.66297
738.321,33.14315,-0.82846,0.83073,0.66231
739.121,33.16988,-0.82988,0.82431,0.66165
739.921,33.19664,-0.83109,0.81552,0.66098
740.721,33.22339,-0.83211,0.80957,0.66032
741.521,33.25007,-0.83206,0.80067,0.65966
742.321,33.27677,-0.83298,0.79211,0.65899
743.121,33.30353,-0.83396,0.78313,0.65833
743.921,33.3303,-0.83427,0.76837,0.65766
744.721,33.35712,-0.83586,0.7591,0.65699
745.521,33.38384,-0.83688,0.75186,0.65633
746.321,33.41064,-0.83723,0.73676,0.65566
747.121,33.43737,-0.83841,0.72454,0.65499
747.921,33.46417,-0.8385,0.71288,0.65432
748.721,33.491,-0.8399,0.70069,0.65365
749.521,33.51785,-0.8398,0.68765,0.65298
750.321,33.54456,-0.84132,0.67359,0.65231
751.121,33.5713,-0.84212,0.66319,0.65163
751.921,33.5981,-0.8426,0.64485,0.65096
752.721,33.625,-0.84355,0.63655,0.65028
753.521,33.6518,-0.84392,0.62408,0.64961
754.321,33.67866,-0.8452,0.61192,0.64893
755.121,33.70545,-0.84523,0.59894,0.64826
755.921,33.73227,-0.84665,0.58863,0.64758
756.721,33.759,-0.84655,0.57728,0.6469
757.521,33.7858,-0.84772,0.57088,0.64622
758.321,33.8125,-0.84779,0.56489,0.64554
759.121,33.83935,-0.84819,0.55841,0.64486
759.921,33.8662,-0.84787,0.54932,0.64418
760.721,33.89304,-0.84787,0.53711,0.6435
761.521,33.91977,-0.84933,0.52945,0.64281
762.321,33.94657,-0.8493,0.52877,0.64213
763.121,33.97334,-0.8493,0.51904,0.64145
763.921,34.00015,-0.8493,0.51566,0.64076
764.721,34.02693,-0.85044,0.50719,0.64008
765.521,34.0537,-0.85062,0.50321,0.63939
766.321,34.08044,-0.85061,0.49791,0.6387
767.121,34.1072,-0.85032,0.49423,0.63801
767.921,34.13412,-0.85133,0.48859,0.63733
768.721,34.1611,-0.85123,0.48197,0.63664
769.521,34.18786,-0.85258,0.48639,0.63595
770.321,34.21465,-0.85258,0.48212,0.63526
771.121,34.24136,-0.85276,0.4774,0.63456
771.921,34.2682,-0.8539,0.47755,0.63387
772.721,34.29492,-0.8539,0.47646,0.63318
773.521,34.32175,-0.85391,0.48091,0.63249
774.321,34.34852,-0.85453,0.47884,0.63179
775.121,34.37536,-0.85471,0.47808,0.6311
775.921,34.40214,-0.85455,0.47675,0.6304
776.721,34.4289,-0.85587,0.47867,0.6297
777.521,34.45575,-0.85589,0.47777,0.62901
778.321,34.48259,-0.85587,0.47375,0.62831
779.121,34.5094,-0.85687,0.47545,0.62761
779.921,34.5362,-0.85709,0.47516,0.62691
780.721,34.563,-0.85623,0.47645,0.62621
781.521,34.5897,-0.85588,0.47646,0.62551
782.321,34.61658,-0.85725,0.47768,0.62481
783.121,34.6434,-0.8572,0.47999,0.62411
783.921,34.67024,-0.8572,0.48312,0.6234
784.721,34.69704,-0.8572,0.48314,0.6227
785.521,34.7238,-0.8572,0.48422,0.622
786.321,34.75052,-0.85719,0.48476,0.62129
787.121,34.77727,-0.85844,0.48876,0.62059
787.921,34.80406,-0.85852,0.48678,0.61988
788.721,34.8309,-0.85848,0.48972,0.61917
789.521,34.85764,-0.85982,0.48986,0.61847
790.321,34.88435,-0.85983,0.49303,0.61776
791.121,34.91109,-0.86034,0.49069,0.61705
791.921,34.93784,-0.86114,0.49047,0.61634
792.721,34.9646,-0.86115,0.49171,0.61563
793.521,34.99135,-0.86062,0.49537,0.61492
794.321,35.01808,-0.86072,0.49376,0.61421
795.121,35.04484,-0.86114,0.49785,0.6135
795.921,35.07164,-0.86114,0.49995,0.61278
796.721,35.09838,-0.86141,0.50205,0.61207
797.521,35.12518,-0.86244,0.50067,0.61135
798.321,35.15198,-0.86258,0.5012,0.61064
799.121,35.17885,-0.86378,0.50361,0.60992
799.921,35.20568,-0.86378,0.5032,0.60921
800.721,35.23251,-0.86378,0.50449,0.60849
801.521,35.25926,-0.86378,0.50984,0.60777
802.321,35.2861,-0.86369,0.51073,0.60706
803.121,35.31285,-0.8651,0.51577,0.60634
803.921,35.3397,-0.8651,0.51963,0.60562
804.721,35.36647,-0.86423,0.51977,0.6049
805.521,35.39326,-0.86508,0.52492,0.60418
806.321,35.42013,-0.86509,0.52249,0.60346
807.121,35.447,-0.86509,0.52803,0.60273
807.921,35.47385,-0.86533,0.53074,0.60201
808.721,35.50075,-0.86639,0.53324,0.60129
809.521,35.52758,-0.8664,0.5337,0.60056
810.321,35.55448,-0.8664,0.53884,0.59984
811.121,35.58136,-0.86649,0.53925,0.59911
811.921,35.60817,-0.86773,0.54013,0.59839
812.721,35.63499,-0.86772,0.53868,0.59766
813.521,35.66176,-0.86772,0.54412,0.59694
814.321,35.68862,-0.86801,0.54577,0.59621
815.121,35.71543,-0.86902,0.54804,0.59548
815.921,35.7423,-0.86898,0.55006,0.59475
816.721,35.7692,-0.87035,0.55005,0.59402
817.521,35.79609,-0.86904,0.55498,0.59329
818.321,35.823,-0.86903,0.55522,0.59256
819.121,35.8499,-0.8704,0.55546,0.59183
819.921,35.87681,-0.87036,0.56157,0.5911
820.721,35.90377,-0.87031,0.56508,0.59037
821.521,35.93063,-0.87172,0.56851,0.58963
822.321,35.95756,-0.8722,0.57165,0.5889
823.121,35.9844,-0.87298,0.57098,0.58817
823.921,36.0114,-0.87293,0.57585,0.58743
824.721,36.03835,-0.87393,0.58323,0.5867
825.521,36.06531,-0.87398,0.58776,0.58596
826.321,36.09215,-0.87411,0.58891,0.58522
827.121,36.119,-0.87529,0.59654,0.58449
827.921,36.14585,-0.87578,0.5984,0.58375
828.721,36.17276,-0.8756,0.60015,0.58301
829.521,36.19963,-0.87695,0.603,0.58227
830.321,36.22653,-0.87694,0.60676,0.58153
831.121,36.25347,-0.87732,0.60937,0.58079
831.921,36.2804,-0.87825,0.60721,0.58005
832.721,36.30733,-0.87826,0.6137,0.57931
833.521,36.3343,-0.87904,0.61623,0.57857
834.321,36.36135,-0.87828,0.62044,0.57783
835.121,36.38836,-0.87958,0.62293,0.57708
835.921,36.41529,-0.87956,0.62545,0.57634
836.721,36.4422,-0.8797,0.62987,0.5756
837.521,36.46908,-0.88088,0.63097,0.57485
838.321,36.49597,-0.88089,0.63431,0.57411
839.121,36.52293,-0.88184,0.63605,0.57336
839.921,36.5498,-0.88222,0.63769,0.57262
840.721,36.57667,-0.88354,0.64156,0.57187
841.521,36.6036,-0.88343,0.64409,0.57112
842.321,36.63042,-0.88483,0.64699,0.57038
843.121,36.65739,-0.88427,0.64585,0.56963
843.921,36.68437,-0.88558,0.65396,0.56888
844.721,36.7115,-0.8855,0.65687,0.56813
845.521,36.7385,-0.88609,0.66193,0.56738
846.321,36.76536,-0.88681,0.66617,0.56663
847.121,36.79206,-0.88771,0.66681,0.56588
847.921,36.81905,-0.88813,0.66938,0.56513
848.721,36.8461,-0.88808,0.67261,0.56438
849.521,36.87337,-0.8895,0.67905,0.56363
850.321,36.9004,-0.88946,0.68114,0.56287
851.121,36.9274,-0.89044,0.68556,0.56212
851.921,36.95442,-0.89006,0.69019,0.56137
852.721,36.9814,-0.89019,0.69317,0.56061
853.521,37.00844,-0.89143,0.69958,0.55986
854.321,37.03544,-0.89137,0.69837,0.5591
855.121,37.06248,-0.89137,0.70197,0.55835
855.921,37.08947,-0.8921,0.70675,0.55759
856.721,37.1163,-0.89268,0.71271,0.55683
857.521,37.14328,-0.89425,0.71605,0.55608
858.321,37.17023,-0.89522,0.7188,0.55532
859.121,37.19735,-0.8954,0.72471,0.55456
859.921,37.22443,-0.8968,0.72834,0.5538
860.721,37.25143,-0.89675,0.73567,0.55304
861.521,37.27843,-0.8981,0.73356,0.55228
862.321,37.3054,-0.89818,0.74081,0.55152
863.121,37.33248,-0.89962,0.74028,0.55076
863.921,37.35953,-0.90118,0.7484,0.55
864.721,37.3866,-0.90275,0.75003,0.54924
865.521,37.41361,-0.90276,0.75411,0.54848
866.321,37.4407,-0.90401,0.75684,0.54772
867.121,37.46778,-0.90396,0.75933,0.54695
867.921,37.49483,-0.90499,0.76706,0.54619
868.721,37.52189,-0.90495,0.76821,0.54543
869.521,37.54896,-0.90468,0.77368,0.54466
870.321,37.57598,-0.90534,0.76965,0.5439
871.121,37.60306,-0.90608,0.77659,0.54313
871.921,37.63017,-0.90668,0.78135,0.54237
872.721,37.65722,-0.90802,0.78456,0.5416
873.521,37.68424,-0.90793,0.78907,0.54084
874.321,37.7112,-0.90944,0.79419,0.54007
875.121,37.73825,-0.91031,0.79447,0.5393
875.921,37.76528,-0.91062,0.79546,0.53854
876.721,37.7924,-0.91097,0.79676,0.53777
877.521,37.8194,-0.91226,0.80009,0.537
878.321,37.8464,-0.91296,0.80041,0.53623
879.121,37.87337,-0.91363,0.80322,0.53546
879.921,37.90032,-0.91503,0.806,0.53469
880.721,37.92726,-0.915,0.80792,0.53392
881.521,37.95422,-0.9148,0.81061,0.53315
882.321,37.98127,-0.91497,0.81041,0.53238
883.121,38.0083,-0.91638,0.81455,0.53161
883.921,38.0353,-0.91677,0.81586,0.53084
884.721,38.06234,-0.91768,0.81917,0.53007
885.521,38.08934,-0.91972,0.81839,0.5293
886.321,38.11635,-0.92041,0.82127,0.52852
887.121,38.14333,-0.92116,0.82811,0.52775
887.921,38.17041,-0.92266,0.82775,0.52698
888.721,38.19742,-0.92276,0.82544,0.5262
889.521,38.22449,-0.92269,0.83246,0.52543
890.321,38.25144,-0.92411,0.83738,0.52465
891.121,38.27837,-0.92436,0.83564,0.52388
891.921,38.30622,-0.92556,0.84401,0.5231
892.721,38.3324,-0.92695,0.85103,0.52233