File: 01_Data/Gypsum_Wallboard_Gypsum_Core/STA/N2/30K_min/Gypsum_Wallboard_Gypsum_Core_STA_N2_30KData_220221_R1.csv
##Temp./Â°C,Time/min,Mass loss(subtr.2)/mg,DSC(subtr.2)/(mW/mg),Sensit./(uV/mW)
48.902,10.00917,-0.00165,0.00583937,1.0888
49.702,10.57238,-0.0002653501,0.05049545,1.08813
50.502,10.70229,-4.47847e-05,0.08646036,1.08745
51.302,10.79621,-0.0004582944,0.11722,1.08678
52.102,10.8729,-0.0001886756,0.14368,1.08611
52.902,10.93973,0.0008512487,0.1705,1.08544
53.702,10.99971,-0.000373873,0.19304,1.08477
54.502,11.05509,0.001656045,0.21576,1.0841
55.302,11.10605,0.0005386788,0.23446,1.08343
56.102,11.15431,0.00179087,0.25303,1.08277
56.902,11.19968,0.000789997,0.27248,1.0821
57.702,11.24323,0.00121342,0.28858,1.08144
58.502,11.2845,0.0007469948,0.30463,1.08077
59.302,11.32474,-0.0004774297,0.31994,1.08011
60.102,11.36448,-0.0003727501,0.33524,1.07945
60.902,11.40276,-0.0003394286,0.34701,1.07879
61.702,11.43956,-0.000891324,0.36035,1.07813
62.502,11.47558,-0.0006044563,0.3742,1.07747
63.302,11.51118,-0.0006426595,0.38598,1.07682
64.102,11.54604,-0.001244387,0.39955,1.07616
64.902,11.58052,-0.0007885581,0.4144,1.07551
65.702,11.61401,8.431364e-05,0.42319,1.07486
66.502,11.64724,-0.000700681,0.43439,1.0742
67.302,11.68,-0.0005361573,0.44399,1.07355
68.102,11.71239,-0.001477402,0.45357,1.0729
68.902,11.7443,-0.002093898,0.46288,1.07225
69.702,11.77593,-0.0008797909,0.47201,1.07161
70.502,11.80737,-0.000723939,0.4822,1.07096
71.302,11.83858,-0.0001541296,0.4927,1.07032
72.102,11.86945,-0.0006674868,0.50403,1.06967
72.902,11.9,-0.002513959,0.51251,1.06903
73.702,11.93032,-0.00194276,0.52211,1.06839
74.502,11.96054,-0.00179844,0.53054,1.06774
75.302,11.99044,-0.002239052,0.53781,1.0671
76.102,12.02024,-0.00226342,0.54656,1.06647
76.902,12.04975,-0.00218491,0.55566,1.06583
77.702,12.0791,-0.00175948,0.56594,1.06519
78.502,12.10839,-0.00169236,0.57512,1.06456
79.302,12.13752,-0.00101263,0.58669,1.06392
80.102,12.16657,-0.002381025,0.5966,1.06329
80.902,12.19534,-0.004633194,0.6056,1.06266
81.702,12.22408,-0.004769881,0.61625,1.06203
82.502,12.25277,-0.0037721,0.62799,1.0614
83.302,12.28135,-0.00380194,0.63893,1.06077
84.102,12.30987,-0.003840945,0.6472,1.06014
84.902,12.3382,-0.003856728,0.65698,1.05951
85.702,12.3664,-0.004898197,0.67171,1.05889
86.502,12.39437,-0.003829217,0.68213,1.05826
87.302,12.42225,-0.00520849,0.69509,1.05764
88.102,12.45009,-0.005185712,0.70907,1.05702
88.902,12.4779,-0.005729889,0.72005,1.0564
89.702,12.50577,-0.005644466,0.73611,1.05577
90.502,12.53353,-0.006569908,0.75109,1.05516
91.302,12.56126,-0.006889344,0.77156,1.05454
92.102,12.58879,-0.006689397,0.78854,1.05392
92.902,12.61626,-0.008050036,0.8093,1.05331
93.702,12.64372,-0.008012849,0.82881,1.05269
94.502,12.67105,-0.009405074,0.85158,1.05208
95.302,12.69841,-0.009331047,0.87425,1.05146
96.102,12.72583,-0.00931191,0.8975,1.05085
96.902,12.75324,-0.008558998,0.9228,1.05024
97.702,12.7805,-0.01014349,0.95391,1.04963
98.502,12.80765,-0.0106281,0.983,1.04902
99.302,12.83479,-0.01149207,1.01333,1.04842
100.102,12.86196,-0.01315643,1.04712,1.04781
100.902,12.88913,-0.0144768,1.0788,1.04721
101.702,12.91622,-0.01566385,1.11837,1.0466
102.502,12.94333,-0.0171062,1.15884,1.046
103.302,12.9703,-0.01703152,1.20136,1.0454
104.102,12.99741,-0.01974211,1.24415,1.0448
104.902,13.02442,-0.02062993,1.28992,1.0442
105.702,13.05152,-0.02127644,1.33705,1.0436
106.502,13.07864,-0.02289321,1.3864,1.043
107.302,13.1058,-0.02527408,1.43971,1.0424
108.102,13.13291,-0.02681237,1.48969,1.04181
108.902,13.1599,-0.02867367,1.53921,1.04121
109.702,13.1869,-0.03219189,1.5903,1.04062
110.502,13.21395,-0.0348668,1.64666,1.04003
111.302,13.24097,-0.03730996,1.69464,1.03944
112.102,13.26804,-0.03950373,1.74898,1.03885
112.902,13.29504,-0.04224985,1.80423,1.03826
113.702,13.32196,-0.04519537,1.85998,1.03767
114.502,13.34893,-0.04869132,1.9134,1.03708
115.302,13.3758,-0.05106342,1.97426,1.0365
116.102,13.40276,-0.05405025,2.03901,1.03591
116.902,13.4296,-0.05867816,2.11819,1.03533
117.702,13.45645,-0.06280653,2.23288,1.03475
118.502,13.4833,-0.06628312,2.37913,1.03417
119.302,13.51026,-0.07058673,2.5709,1.03358
120.102,13.5372,-0.07512242,2.78199,1.03301
120.902,13.56405,-0.08070959,3.00564,1.03243
121.702,13.5909,-0.08697732,3.23953,1.03185
122.502,13.6178,-0.09357898,3.47947,1.03127
123.302,13.64485,-0.10106,3.72847,1.0307
124.102,13.67189,-0.11042,3.9925,1.03012
124.902,13.6989,-0.11983,4.25978,1.02955
125.702,13.72595,-0.12896,4.54135,1.02898
126.502,13.75309,-0.13928,4.83791,1.02841
127.302,13.7801,-0.15013,5.13539,1.02784
128.102,13.8072,-0.16126,5.44585,1.02727
128.902,13.83425,-0.17188,5.76096,1.0267
129.702,13.86137,-0.18513,6.07841,1.02613
130.502,13.8885,-0.19975,6.40567,1.02556
131.302,13.91569,-0.21194,6.73255,1.025
132.102,13.9429,-0.22741,7.05039,1.02444
132.902,13.9701,-0.24425,7.36505,1.02387
133.702,13.9974,-0.25838,7.6628,1.02331
134.502,14.0246,-0.27396,7.93587,1.02275
135.302,14.0519,-0.29142,8.19251,1.02219
136.102,14.07899,-0.30797,8.41084,1.02163
136.902,14.106,-0.32475,8.57963,1.02107
137.702,14.1331,-0.34287,8.68167,1.02051
138.502,14.16009,-0.3612,8.72619,1.01996
139.302,14.18715,-0.37888,8.70282,1.0194
140.102,14.214,-0.39625,8.58415,1.01885
140.902,14.24073,-0.40916,8.39126,1.0183
141.702,14.26729,-0.42317,8.13583,1.01774
142.502,14.29376,-0.43752,7.82685,1.01719
143.302,14.32022,-0.44917,7.53546,1.01664
144.102,14.3465,-0.45987,7.34865,1.01609
144.902,14.3727,-0.47097,7.25587,1.01555
145.702,14.3986,-0.47985,7.22047,1.015
146.502,14.4245,-0.49137,7.21451,1.01445
147.302,14.4505,-0.50345,7.24498,1.01391
148.102,14.4764,-0.51257,7.31365,1.01336
148.902,14.5023,-0.52303,7.39824,1.01282
149.702,14.52806,-0.5354,7.49134,1.01228
150.502,14.55386,-0.54621,7.59439,1.01174
151.302,14.57969,-0.55839,7.68573,1.0112
152.102,14.60545,-0.57177,7.73907,1.01066
152.902,14.6312,-0.58403,7.69216,1.01012
153.702,14.6569,-0.59738,7.38711,1.00958
154.502,14.68256,-0.60869,6.81416,1.00905
155.302,14.708,-0.61879,6.16526,1.00851
156.102,14.7332,-0.62603,5.54387,1.00798
156.902,14.75835,-0.63047,4.96993,1.00744
157.702,14.7834,-0.63196,4.45662,1.00691
158.502,14.80841,-0.63487,3.99871,1.00638
159.302,14.83345,-0.63583,3.59278,1.00585
160.102,14.85816,-0.63707,3.24094,1.00532
160.902,14.88275,-0.63776,2.93174,1.00479
161.702,14.9073,-0.63839,2.66385,1.00426
162.502,14.93171,-0.63967,2.42831,1.00374
163.302,14.9561,-0.64113,2.21808,1.00321
164.102,14.9804,-0.64192,2.03511,1.00268
164.902,15.00477,-0.64296,1.87807,1.00216
165.702,15.0291,-0.64298,1.73605,1.00164
166.502,15.05345,-0.6455,1.61311,1.00111
167.302,15.0778,-0.64626,1.50736,1.00059
168.102,15.1022,-0.64727,1.41169,1.00007
168.902,15.1265,-0.64799,1.33197,0.99955
169.702,15.1507,-0.64858,1.25944,0.99904
170.502,15.175,-0.64858,1.20098,0.99852
171.302,15.19935,-0.64858,1.14115,0.998
172.102,15.2237,-0.64853,1.08805,0.99749
172.902,15.2483,-0.64987,1.04353,0.99697
173.702,15.27263,-0.64991,1.0091,0.99646
174.502,15.29706,-0.64992,0.975,0.99594
175.302,15.32151,-0.65105,0.94181,0.99543
176.102,15.3459,-0.65121,0.91065,0.99492
176.902,15.37031,-0.65121,0.88602,0.99441
177.702,15.3947,-0.65121,0.86373,0.9939
178.502,15.4191,-0.65121,0.84816,0.99339
179.302,15.44351,-0.65263,0.83176,0.99288
180.102,15.4678,-0.65253,0.81316,0.99238
180.902,15.49195,-0.65254,0.79642,0.99187
181.702,15.5162,-0.65295,0.78636,0.99137
182.502,15.54035,-0.65384,0.77959,0.99086
183.302,15.5649,-0.65385,0.76932,0.99036
184.102,15.5893,-0.65385,0.75786,0.98986
184.902,15.61385,-0.65467,0.75099,0.98936
185.702,15.6383,-0.65516,0.74245,0.98886
186.502,15.66267,-0.65516,0.73207,0.98836
187.302,15.68702,-0.65516,0.72622,0.98786
188.102,15.71132,-0.65512,0.71999,0.98736
188.902,15.7356,-0.65645,0.71631,0.98686
189.702,15.7599,-0.65648,0.70942,0.98637
190.502,15.78416,-0.65648,0.70679,0.98587
191.302,15.8085,-0.65648,0.70218,0.98538
192.102,15.83278,-0.65648,0.69526,0.98488
192.902,15.85709,-0.65648,0.68928,0.98439
193.702,15.8815,-0.65648,0.68671,0.9839
194.502,15.90591,-0.65643,0.68477,0.98341
195.302,15.9303,-0.65783,0.67908,0.98292
196.102,15.9547,-0.6578,0.6736,0.98243
196.902,15.9791,-0.6578,0.66772,0.98194
197.702,16.0034,-0.65917,0.66644,0.98145
198.502,16.0277,-0.66042,0.66241,0.98096
199.302,16.052,-0.66042,0.66362,0.98048
200.102,16.0762,-0.66042,0.66301,0.97999
200.902,16.10065,-0.66042,0.66064,0.97951
201.702,16.12505,-0.66042,0.65778,0.97902
202.502,16.14937,-0.66042,0.64984,0.97854
203.302,16.17372,-0.66042,0.64993,0.97806
204.102,16.19797,-0.66042,0.64556,0.97758
204.902,16.22229,-0.66042,0.64551,0.9771
205.702,16.24669,-0.66058,0.6432,0.97662
206.502,16.27113,-0.66172,0.64168,0.97614
207.302,16.2956,-0.66174,0.64009,0.97566
208.102,16.31987,-0.66174,0.63639,0.97518
208.902,16.34423,-0.66174,0.63283,0.9747
209.702,16.36855,-0.66174,0.63199,0.97423
210.502,16.39293,-0.66245,0.63197,0.97375
211.302,16.41726,-0.66304,0.63076,0.97328
212.102,16.4416,-0.66305,0.63269,0.97281
212.902,16.4659,-0.66305,0.63049,0.97233
213.702,16.49015,-0.66305,0.62637,0.97186
214.502,16.51444,-0.66305,0.62484,0.97139
215.302,16.5387,-0.66305,0.62425,0.97092
216.102,16.56297,-0.66305,0.62096,0.97045
216.902,16.58728,-0.66305,0.6219,0.96998
217.702,16.61155,-0.66305,0.61719,0.96951
218.502,16.63583,-0.66305,0.61534,0.96904
219.302,16.66011,-0.66305,0.61582,0.96858
220.102,16.68441,-0.66446,0.61863,0.96811
220.902,16.70874,-0.66437,0.61269,0.96765
221.702,16.7331,-0.66437,0.61564,0.96718
222.502,16.75741,-0.66437,0.6162,0.96672
223.302,16.78161,-0.66437,0.61502,0.96626
224.102,16.80582,-0.6644,0.61486,0.96579
224.902,16.83,-0.66543,0.61233,0.96533
225.702,16.85427,-0.66569,0.60831,0.96487
226.502,16.87847,-0.66569,0.60348,0.96441
227.302,16.90258,-0.66569,0.60326,0.96395
228.102,16.92679,-0.66569,0.60424,0.96349
228.902,16.95097,-0.66569,0.60446,0.96303
229.702,16.9752,-0.66569,0.6072,0.96258
230.502,16.9995,-0.66569,0.60772,0.96212
231.302,17.02373,-0.66569,0.60332,0.96166
232.102,17.04795,-0.66569,0.60367,0.96121
232.902,17.07218,-0.66569,0.6029,0.96075
233.702,17.09635,-0.66569,0.59854,0.9603
234.502,17.1205,-0.66569,0.59926,0.95985
235.302,17.1447,-0.66569,0.59736,0.95939
236.102,17.1689,-0.66569,0.59878,0.95894
236.902,17.19298,-0.66569,0.59885,0.95849
237.702,17.2172,-0.66569,0.59778,0.95804
238.502,17.2414,-0.66569,0.60045,0.95759
239.302,17.2655,-0.66569,0.60167,0.95714
240.102,17.28974,-0.66569,0.60046,0.95669
240.902,17.314,-0.66569,0.59934,0.95625
241.702,17.33817,-0.66569,0.59786,0.9558
242.502,17.36242,-0.66569,0.59416,0.95535
243.302,17.38663,-0.66569,0.59281,0.95491
244.102,17.4107,-0.66569,0.5944,0.95446
244.902,17.4349,-0.666,0.59315,0.95402
245.702,17.45908,-0.66668,0.59197,0.95357
246.502,17.48324,-0.66636,0.5892,0.95313
247.302,17.5074,-0.66635,0.59092,0.95269
248.102,17.53148,-0.66635,0.58793,0.95224
248.902,17.55561,-0.66635,0.58928,0.9518
249.702,17.57975,-0.66635,0.5896,0.95136
250.502,17.60398,-0.66635,0.58863,0.95092
251.302,17.62816,-0.66635,0.5877,0.95048
252.102,17.65233,-0.66628,0.58677,0.95004
252.902,17.6765,-0.6674,0.58504,0.9496
253.702,17.70061,-0.66734,0.5873,0.94917
254.502,17.72472,-0.66734,0.58653,0.94873
255.302,17.74885,-0.66733,0.58636,0.94829
256.102,17.773,-0.6687,0.58543,0.94786
256.902,17.79719,-0.66865,0.58908,0.94742
257.702,17.82134,-0.66865,0.58665,0.94698
258.502,17.84548,-0.66865,0.58449,0.94655
259.302,17.86958,-0.66865,0.5822,0.94612
260.102,17.8937,-0.66865,0.58218,0.94568
260.902,17.91781,-0.66865,0.57997,0.94525
261.702,17.94197,-0.66863,0.57669,0.94482
262.502,17.9661,-0.669,0.57607,0.94439
263.302,17.99022,-0.66898,0.57678,0.94396
264.102,18.01441,-0.66898,0.57658,0.94353
264.902,18.03856,-0.66898,0.57885,0.9431
265.702,18.06276,-0.66898,0.57589,0.94267
266.502,18.08693,-0.66898,0.57707,0.94224
267.302,18.11113,-0.66894,0.57171,0.94181
268.102,18.13532,-0.67026,0.56985,0.94138
268.902,18.15951,-0.6703,0.56681,0.94095
269.702,18.18365,-0.6703,0.57017,0.94053
270.502,18.2077,-0.6703,0.56371,0.9401
271.302,18.23183,-0.6703,0.56703,0.93968
272.102,18.25599,-0.6703,0.56494,0.93925
272.902,18.28014,-0.6703,0.56496,0.93883
273.702,18.30432,-0.6703,0.56837,0.9384
274.502,18.3285,-0.6703,0.56732,0.93798
275.302,18.35269,-0.6703,0.56283,0.93755
276.102,18.37687,-0.6703,0.56245,0.93713
276.902,18.40107,-0.6703,0.5667,0.93671
277.702,18.42527,-0.6703,0.56598,0.93629
278.502,18.44949,-0.6703,0.56368,0.93587
279.302,18.47371,-0.6703,0.56092,0.93545
280.102,18.49783,-0.6703,0.557,0.93503
280.902,18.52208,-0.6703,0.55837,0.93461
281.702,18.5463,-0.6703,0.55578,0.93419
282.502,18.57046,-0.6703,0.55368,0.93377
283.302,18.59471,-0.6703,0.55638,0.93335
284.102,18.6189,-0.6703,0.55637,0.93293
284.902,18.64311,-0.6703,0.55053,0.93251
285.702,18.66734,-0.6703,0.55035,0.9321
286.502,18.69152,-0.6703,0.55259,0.93168
287.302,18.71559,-0.67049,0.54523,0.93126
288.102,18.73969,-0.67129,0.54389,0.93085
288.902,18.76386,-0.67144,0.53998,0.93043
289.702,18.7881,-0.67161,0.54033,0.93002
290.502,18.8124,-0.67161,0.53616,0.9296
291.302,18.8367,-0.67161,0.53665,0.92919
292.102,18.8609,-0.67161,0.5358,0.92878
292.902,18.88503,-0.67161,0.53717,0.92836
293.702,18.90926,-0.67161,0.53338,0.92795
294.502,18.9335,-0.67161,0.53247,0.92754
295.302,18.9577,-0.67161,0.5334,0.92713
296.102,18.98198,-0.67161,0.53168,0.92671
296.902,19.00615,-0.67161,0.53113,0.9263
297.702,19.03035,-0.67161,0.53273,0.92589
298.502,19.0547,-0.67152,0.53421,0.92548
299.302,19.07884,-0.67293,0.53196,0.92507
300.102,19.10313,-0.67293,0.52921,0.92466
300.902,19.12734,-0.67293,0.52695,0.92425
301.702,19.15154,-0.67294,0.52504,0.92384
302.502,19.1758,-0.67321,0.52577,0.92343
303.302,19.2,-0.67192,0.52519,0.92303
304.102,19.22427,-0.67194,0.5226,0.92262
304.902,19.24857,-0.67194,0.52553,0.92221
305.702,19.27283,-0.67196,0.52401,0.9218
306.502,19.29707,-0.67419,0.52083,0.9214
307.302,19.3213,-0.67425,0.52128,0.92099
308.102,19.3456,-0.67425,0.51804,0.92059
308.902,19.3698,-0.67425,0.52125,0.92018
309.702,19.3941,-0.67426,0.51978,0.91977
310.502,19.41834,-0.67298,0.52028,0.91937
311.302,19.44247,-0.67292,0.52005,0.91896
312.102,19.4668,-0.67293,0.51978,0.91856
312.902,19.49109,-0.67293,0.51563,0.91816
313.702,19.51551,-0.67304,0.51628,0.91775
314.502,19.53991,-0.67386,0.51874,0.91735
315.302,19.5642,-0.67327,0.5157,0.91694
316.102,19.58855,-0.67326,0.51672,0.91654
316.902,19.61293,-0.67326,0.51387,0.91614
317.702,19.63729,-0.67331,0.51534,0.91574
318.502,19.66159,-0.67262,0.51091,0.91534
319.302,19.68595,-0.673,0.51183,0.91493
320.102,19.71026,-0.67391,0.5099,0.91453
320.902,19.73459,-0.67392,0.50676,0.91413
321.702,19.75902,-0.67392,0.50859,0.91373
322.502,19.78334,-0.67392,0.50595,0.91333
323.302,19.80773,-0.67392,0.50479,0.91293
324.102,19.83202,-0.67392,0.50462,0.91253
324.902,19.85632,-0.67392,0.50383,0.91213
325.702,19.8807,-0.67392,0.50715,0.91173
326.502,19.90506,-0.67392,0.50208,0.91133
327.302,19.9295,-0.67393,0.49825,0.91093
328.102,19.9539,-0.67463,0.50013,0.91053
328.902,19.9784,-0.67549,0.49953,0.91013
329.702,20.00284,-0.67589,0.49856,0.90973
330.502,20.02731,-0.67589,0.49817,0.90934
331.302,20.05181,-0.67589,0.4996,0.90894
332.102,20.07619,-0.67589,0.49898,0.90854
332.902,20.10061,-0.67589,0.50077,0.90814
333.702,20.12504,-0.67589,0.50182,0.90775
334.502,20.14949,-0.67589,0.50064,0.90735
335.302,20.17403,-0.67589,0.49626,0.90695
336.102,20.1985,-0.67589,0.49326,0.90656
336.902,20.22308,-0.67589,0.49589,0.90616
337.702,20.2476,-0.67589,0.49522,0.90576
338.502,20.2721,-0.67589,0.48825,0.90537
339.302,20.29649,-0.67589,0.48505,0.90497
340.102,20.321,-0.67589,0.48699,0.90457
340.902,20.34544,-0.67589,0.48586,0.90418
341.702,20.36992,-0.67589,0.48226,0.90378
342.502,20.3945,-0.67589,0.48234,0.90339
343.302,20.4189,-0.67589,0.48149,0.90299
344.102,20.44349,-0.67589,0.47818,0.9026
344.902,20.46804,-0.67589,0.47827,0.9022
345.702,20.49263,-0.67581,0.47897,0.90181
346.502,20.51728,-0.67692,0.47773,0.90141
347.302,20.54175,-0.67688,0.48128,0.90102
348.102,20.56626,-0.67688,0.47991,0.90063
348.902,20.59075,-0.67688,0.47616,0.90023
349.702,20.61531,-0.67688,0.47065,0.89984
350.502,20.63991,-0.67688,0.47061,0.89944
351.302,20.6645,-0.67688,0.46952,0.89905
352.102,20.68908,-0.67688,0.47166,0.89866
352.902,20.71366,-0.67688,0.46445,0.89826
353.702,20.73817,-0.67691,0.4643,0.89787
354.502,20.76272,-0.67587,0.46293,0.89748
355.302,20.78728,-0.67589,0.46274,0.89708
356.102,20.81191,-0.67589,0.46022,0.89669
356.902,20.83652,-0.67584,0.45621,0.8963
357.702,20.86121,-0.67725,0.45051,0.89591
358.502,20.8858,-0.67721,0.44535,0.89551
359.302,20.91045,-0.67721,0.44432,0.89512
360.102,20.93507,-0.67719,0.44102,0.89473
360.902,20.95962,-0.67653,0.44164,0.89433
361.702,20.98423,-0.67655,0.43507,0.89394
362.502,21.00884,-0.67655,0.43288,0.89355
363.302,21.03356,-0.67571,0.42666,0.89316
364.102,21.0582,-0.67512,0.4229,0.89277
364.902,21.0828,-0.67514,0.41847,0.89237
365.702,21.10745,-0.67595,0.41577,0.89198
366.502,21.13208,-0.67645,0.41451,0.89159
367.302,21.15672,-0.6769,0.40686,0.8912
368.102,21.18133,-0.67775,0.40448,0.89081
368.902,21.206,-0.67776,0.40142,0.89041
369.702,21.23069,-0.67775,0.39698,0.89002
370.502,21.25546,-0.67892,0.38777,0.88963
371.302,21.28019,-0.67982,0.38021,0.88924
372.102,21.30485,-0.68038,0.37357,0.88885
372.902,21.32956,-0.68039,0.36901,0.88845
373.702,21.35428,-0.68039,0.3626,0.88806
374.502,21.37902,-0.68039,0.35774,0.88767
375.302,21.40372,-0.6801,0.35087,0.88728
376.102,21.42843,-0.67973,0.34619,0.88689
376.902,21.45318,-0.67985,0.33668,0.8865
377.702,21.47785,-0.68004,0.32939,0.8861
378.502,21.5026,-0.68084,0.31968,0.88571
379.302,21.5273,-0.68104,0.30765,0.88532
380.102,21.55189,-0.68104,0.29702,0.88493
380.902,21.57664,-0.68104,0.29016,0.88454
381.702,21.6014,-0.68105,0.27972,0.88414
382.502,21.62614,-0.68242,0.27257,0.88375
383.302,21.65089,-0.68236,0.262,0.88336
384.102,21.6755,-0.68219,0.25014,0.88297
384.902,21.70022,-0.68033,0.24231,0.88258
385.702,21.725,-0.68038,0.22918,0.88218
386.502,21.7497,-0.68076,0.21547,0.88179
387.302,21.77457,-0.68096,0.20385,0.8814
388.102,21.79935,-0.68105,0.1923,0.88101
388.902,21.8241,-0.68105,0.17583,0.88062
389.702,21.84891,-0.67964,0.16358,0.88022
390.502,21.87371,-0.67961,0.14743,0.87983
391.302,21.89847,-0.67962,0.13019,0.87944
392.102,21.92324,-0.68106,0.11495,0.87905
392.902,21.94804,-0.68238,0.1006,0.87865
393.702,21.9729,-0.68236,0.08693762,0.87826
394.502,21.99769,-0.68236,0.07318037,0.87787
395.302,22.02255,-0.68215,0.05755918,0.87748
396.102,22.04736,-0.68171,0.04608524,0.87708
396.902,22.07217,-0.6817,0.03752038,0.87669
397.702,22.09706,-0.6817,0.02960878,0.8763
398.502,22.12191,-0.6817,0.01737657,0.8759
399.302,22.14679,-0.68165,0.008342314,0.87551
400.102,22.1716,-0.68307,-0.002687135,0.87512
400.902,22.19647,-0.68302,-0.01120221,0.87472
401.702,22.2214,-0.68319,-0.01651771,0.87433
402.502,22.24628,-0.68434,-0.01407259,0.87393
403.302,22.27117,-0.68433,-0.01665841,0.87354
404.102,22.2961,-0.68379,-0.01767252,0.87315
404.902,22.321,-0.68173,-0.01520428,0.87275
405.702,22.34593,-0.6817,-0.01126692,0.87236
406.502,22.3708,-0.68173,-0.00467052,0.87196
407.302,22.39574,-0.68064,0.00633829,0.87157
408.102,22.42076,-0.68071,0.01228191,0.87117
408.902,22.44575,-0.68071,0.02292576,0.87078
409.702,22.47075,-0.68073,0.03263909,0.87038
410.502,22.49578,-0.682,0.04130986,0.86999
411.302,22.52076,-0.68335,0.05628875,0.86959
412.102,22.54584,-0.68334,0.0699897,0.8692
412.902,22.57095,-0.68254,0.08510118,0.8688
413.702,22.59595,-0.68204,0.09805834,0.86841
414.502,22.62102,-0.68203,0.11195,0.86801
415.302,22.6461,-0.68203,0.13011,0.86761
416.102,22.6712,-0.68203,0.14238,0.86722
416.902,22.69629,-0.68203,0.15652,0.86682
417.702,22.7213,-0.68203,0.17237,0.86642
418.502,22.7464,-0.68218,0.19119,0.86603
419.302,22.77149,-0.68333,0.19962,0.86563
420.102,22.7966,-0.68335,0.21518,0.86523
420.902,22.8217,-0.68335,0.2305,0.86483
421.702,22.84674,-0.68335,0.23503,0.86443
422.502,22.87187,-0.68335,0.24932,0.86404
423.302,22.89697,-0.68335,0.25915,0.86364
424.102,22.92209,-0.68335,0.26862,0.86324
424.902,22.94722,-0.68335,0.27913,0.86284
425.702,22.97233,-0.68335,0.2893,0.86244
426.502,22.99738,-0.68335,0.29985,0.86204
427.302,23.0225,-0.68335,0.31242,0.86164
428.102,23.04758,-0.68335,0.31924,0.86124
428.902,23.07275,-0.68335,0.32707,0.86084
429.702,23.09797,-0.68335,0.33519,0.86044
430.502,23.12323,-0.68335,0.34157,0.86004
431.302,23.1484,-0.68335,0.34648,0.85964
432.102,23.17364,-0.68335,0.35031,0.85924
432.902,23.19877,-0.68335,0.35985,0.85884
433.702,23.22391,-0.68335,0.36399,0.85844
434.502,23.2491,-0.68335,0.37114,0.85803
435.302,23.27424,-0.68335,0.37476,0.85763
436.102,23.2995,-0.68335,0.38262,0.85723
436.902,23.32475,-0.68335,0.38877,0.85683
437.702,23.34999,-0.68334,0.39102,0.85642
438.502,23.37526,-0.68448,0.3943,0.85602
439.302,23.40045,-0.68467,0.39903,0.85562
440.102,23.4256,-0.68467,0.40215,0.85521
440.902,23.45082,-0.68467,0.40466,0.85481
441.702,23.476,-0.68467,0.40705,0.8544
442.502,23.5013,-0.6847,0.41153,0.854
443.302,23.52662,-0.68397,0.41361,0.85359
444.102,23.55197,-0.68401,0.41846,0.85319
444.902,23.57712,-0.68401,0.42174,0.85278
445.702,23.60213,-0.68401,0.42557,0.85238
446.502,23.62719,-0.68401,0.42882,0.85197
447.302,23.6524,-0.68401,0.42597,0.85156
448.102,23.67778,-0.68401,0.42935,0.85116
448.902,23.70326,-0.684,0.43413,0.85075
449.702,23.72859,-0.68497,0.43724,0.85034
450.502,23.75398,-0.68464,0.43784,0.84993
451.302,23.77929,-0.68467,0.43976,0.84952
452.102,23.80455,-0.68467,0.43982,0.84912
452.902,23.82985,-0.68467,0.44176,0.84871
453.702,23.85509,-0.68467,0.44425,0.8483
454.502,23.88042,-0.68467,0.4464,0.84789
455.302,23.9057,-0.68467,0.44507,0.84748
456.102,23.93094,-0.68467,0.44703,0.84707
456.902,23.95608,-0.68468,0.44751,0.84666
457.702,23.98144,-0.68552,0.45193,0.84624
458.502,24.0069,-0.68597,0.45459,0.84583
459.302,24.03246,-0.68598,0.45556,0.84542
460.102,24.05782,-0.68598,0.455,0.84501
460.902,24.08323,-0.68598,0.46027,0.8446
461.702,24.10859,-0.68598,0.46292,0.84418
462.502,24.134,-0.68596,0.46263,0.84377
463.302,24.15939,-0.68498,0.45968,0.84335
464.102,24.18475,-0.68467,0.46772,0.84294
464.902,24.21013,-0.68467,0.46633,0.84253
465.702,24.2355,-0.68467,0.4645,0.84211
466.502,24.26093,-0.68467,0.46995,0.84169
467.302,24.28629,-0.68575,0.46918,0.84128
468.102,24.31159,-0.68599,0.47115,0.84086
468.902,24.337,-0.68598,0.47074,0.84045
469.702,24.36245,-0.68598,0.47407,0.84003
470.502,24.38785,-0.68598,0.475,0.83961
471.302,24.41329,-0.68598,0.47226,0.83919
472.102,24.4388,-0.68598,0.4708,0.83877
472.902,24.46416,-0.68598,0.46754,0.83835
473.702,24.48978,-0.68598,0.47323,0.83794
474.502,24.51527,-0.68619,0.47466,0.83752
475.302,24.54074,-0.68631,0.47451,0.8371
476.102,24.5663,-0.68631,0.47181,0.83667
476.902,24.59178,-0.68631,0.4764,0.83625
477.702,24.61731,-0.68631,0.47435,0.83583
478.502,24.64276,-0.68627,0.47577,0.83541
479.302,24.6682,-0.6876,0.48134,0.83499
480.102,24.69367,-0.68763,0.47799,0.83456
480.902,24.7191,-0.68763,0.48017,0.83414
481.702,24.74457,-0.68763,0.48063,0.83372
482.502,24.77,-0.68763,0.48374,0.83329
483.302,24.79551,-0.68763,0.48305,0.83287
484.102,24.82114,-0.68763,0.48192,0.83244
484.902,24.8466,-0.68763,0.48472,0.83202
485.702,24.87218,-0.68763,0.48552,0.83159
486.502,24.89767,-0.68763,0.48542,0.83116
487.302,24.92318,-0.68763,0.48329,0.83074
488.102,24.94869,-0.68763,0.48197,0.83031
488.902,24.97427,-0.68657,0.48314,0.82988
489.702,24.99987,-0.68631,0.47973,0.82945
490.502,25.02553,-0.68631,0.48521,0.82902
491.302,25.05111,-0.68631,0.48382,0.82859
492.102,25.0767,-0.68631,0.48313,0.82816
492.902,25.10221,-0.68631,0.48715,0.82773
493.702,25.12774,-0.68631,0.48703,0.8273
494.502,25.15332,-0.68631,0.48698,0.82687
495.302,25.17892,-0.68631,0.48458,0.82643
496.102,25.20455,-0.68642,0.48394,0.826
496.902,25.23011,-0.68729,0.48633,0.82557
497.702,25.25571,-0.68733,0.4863,0.82513
498.502,25.2813,-0.68844,0.48925,0.8247
499.302,25.30696,-0.68862,0.48679,0.82427
500.102,25.33257,-0.68862,0.48602,0.82383
500.902,25.3582,-0.68862,0.48674,0.82339
501.702,25.38385,-0.6886,0.4844,0.82296
502.502,25.40952,-0.6876,0.48413,0.82252
503.302,25.43514,-0.6873,0.48579,0.82208
504.102,25.4608,-0.6873,0.48469,0.82164
504.902,25.4864,-0.6873,0.48776,0.82121
505.702,25.51203,-0.6873,0.4875,0.82077
506.502,25.53771,-0.6873,0.48677,0.82033
507.302,25.5634,-0.6873,0.48567,0.81989
508.102,25.58909,-0.6873,0.48483,0.81945
508.902,25.61474,-0.6873,0.48097,0.819
509.702,25.64034,-0.6873,0.4776,0.81856
510.502,25.66591,-0.6873,0.47998,0.81812
511.302,25.69156,-0.6873,0.48382,0.81768
512.102,25.71724,-0.6873,0.48465,0.81723
512.902,25.74301,-0.6873,0.48471,0.81679
513.702,25.76875,-0.6873,0.48508,0.81634
514.502,25.79445,-0.68702,0.48398,0.8159
515.302,25.8201,-0.68599,0.48202,0.81545
516.102,25.84565,-0.68541,0.48094,0.815
516.902,25.87128,-0.68533,0.4793,0.81456
517.702,25.89698,-0.68533,0.48005,0.81411
518.502,25.92272,-0.68602,0.48268,0.81366
519.302,25.94848,-0.68665,0.47902,0.81321
520.102,25.9742,-0.68665,0.48053,0.81276
520.902,25.9999,-0.68664,0.4851,0.81231
521.702,26.02569,-0.6878,0.47538,0.81186
522.502,26.05141,-0.68796,0.48199,0.81141
523.302,26.0772,-0.68795,0.48333,0.81096
524.102,26.10289,-0.689,0.48079,0.8105
524.902,26.12865,-0.68894,0.4855,0.81005
525.702,26.15439,-0.68894,0.48377,0.8096
526.502,26.18011,-0.68894,0.48385,0.80914
527.302,26.20588,-0.68894,0.47918,0.80869
528.102,26.2315,-0.68894,0.48386,0.80823
528.902,26.25732,-0.68894,0.4834,0.80778
529.702,26.28309,-0.68902,0.48455,0.80732
530.502,26.30878,-0.68795,0.48337,0.80686
531.302,26.33472,-0.6876,0.48473,0.8064
532.102,26.36045,-0.68763,0.48542,0.80594
532.902,26.3862,-0.68763,0.48452,0.80548
533.702,26.412,-0.68763,0.48258,0.80502
534.502,26.43775,-0.68763,0.4815,0.80456
535.302,26.4636,-0.68763,0.48008,0.8041
536.102,26.48938,-0.68763,0.48208,0.80364
536.902,26.5152,-0.68763,0.48229,0.80318
537.702,26.54103,-0.68763,0.48362,0.80271
538.502,26.5668,-0.68762,0.48594,0.80225
539.302,26.5927,-0.68904,0.48289,0.80178
540.102,26.6185,-0.68894,0.48115,0.80132
540.902,26.64428,-0.68894,0.47887,0.80085
541.702,26.6701,-0.68894,0.47947,0.80039
542.502,26.69593,-0.68894,0.48602,0.79992
543.302,26.7218,-0.68894,0.48599,0.79945
544.102,26.7477,-0.68872,0.48425,0.79898
544.902,26.7735,-0.68765,0.48469,0.79851
545.702,26.79932,-0.68763,0.4819,0.79804
546.502,26.8251,-0.6883,0.48199,0.79757
547.302,26.85095,-0.68842,0.48265,0.7971
548.102,26.8768,-0.6896,0.48429,0.79663
548.902,26.90271,-0.68961,0.48234,0.79615
549.702,26.9286,-0.68963,0.48551,0.79568
550.502,26.9545,-0.68805,0.48474,0.79521
551.302,26.98033,-0.68806,0.48158,0.79473
552.102,27.0062,-0.68914,0.48438,0.79426
552.902,27.03195,-0.68939,0.4865,0.79378
553.702,27.0578,-0.68938,0.48353,0.7933
554.502,27.08373,-0.68938,0.48725,0.79283
555.302,27.1098,-0.68938,0.4863,0.79235
556.102,27.13584,-0.68938,0.48488,0.79187
556.902,27.16187,-0.6894,0.48341,0.79139
557.702,27.1878,-0.69072,0.48123,0.79091
558.502,27.21377,-0.6907,0.48456,0.79043
559.302,27.23974,-0.6907,0.48331,0.78995
560.102,27.2657,-0.6907,0.48395,0.78946
560.902,27.2915,-0.6907,0.48662,0.78898
561.702,27.3174,-0.6907,0.48462,0.7885
562.502,27.3433,-0.6907,0.48254,0.78801
563.302,27.36921,-0.6907,0.48171,0.78753
564.102,27.39515,-0.6907,0.4834,0.78704
564.902,27.42097,-0.69073,0.48781,0.78655
565.702,27.4468,-0.68941,0.48745,0.78607
566.502,27.4728,-0.68939,0.48734,0.78558
567.302,27.499,-0.68939,0.48179,0.78509
568.102,27.52522,-0.68939,0.48887,0.7846
568.902,27.55125,-0.68939,0.48695,0.78411
569.702,27.5772,-0.68939,0.49387,0.78362
570.502,27.60319,-0.68939,0.4907,0.78313
571.302,27.62916,-0.68939,0.49185,0.78263
572.102,27.6551,-0.68939,0.49799,0.78214
572.902,27.68115,-0.68939,0.49788,0.78165
573.702,27.7072,-0.68939,0.49306,0.78115
574.502,27.7332,-0.68939,0.49707,0.78065
575.302,27.7591,-0.68939,0.49859,0.78016
576.102,27.78515,-0.68878,0.49796,0.77966
576.902,27.81114,-0.68839,0.48847,0.77916
577.702,27.8373,-0.6884,0.49685,0.77867
578.502,27.86334,-0.68848,0.49707,0.77817
579.302,27.8894,-0.68938,0.49726,0.77767
580.102,27.91553,-0.69039,0.49441,0.77716
580.902,27.9416,-0.69071,0.49374,0.77666
581.702,27.96756,-0.6907,0.50037,0.77616
582.502,27.9936,-0.6907,0.50144,0.77566
583.302,28.01957,-0.6907,0.49573,0.77515
584.102,28.0457,-0.6907,0.50009,0.77465
584.902,28.0718,-0.69069,0.5018,0.77414
585.702,28.09785,-0.68914,0.50323,0.77364
586.502,28.12398,-0.68873,0.50786,0.77313
587.302,28.15008,-0.68944,0.50104,0.77262
588.102,28.1761,-0.68952,0.50548,0.77212
588.902,28.2022,-0.69067,0.50475,0.77161
589.702,28.22835,-0.6907,0.50276,0.7711
590.502,28.2545,-0.6907,0.50789,0.77059
591.302,28.2807,-0.69069,0.51092,0.77007
592.102,28.30671,-0.69192,0.50728,0.76956
592.902,28.33284,-0.69203,0.51256,0.76905
593.702,28.359,-0.69235,0.51465,0.76854
594.502,28.3852,-0.69236,0.51668,0.76802
595.302,28.4114,-0.69271,0.51662,0.76751
596.102,28.4375,-0.69269,0.51976,0.76699
596.902,28.46368,-0.69341,0.52205,0.76647
597.702,28.48982,-0.69334,0.52264,0.76596
598.502,28.5161,-0.69334,0.52196,0.76544
599.302,28.54205,-0.69334,0.52031,0.76492
600.102,28.5682,-0.69334,0.52097,0.7644
600.902,28.5944,-0.69334,0.52634,0.76388
601.702,28.6207,-0.6938,0.53129,0.76336
602.502,28.64694,-0.69464,0.53276,0.76283
603.302,28.67312,-0.69465,0.53157,0.76231
604.102,28.6993,-0.69465,0.5336,0.76179
604.902,28.7256,-0.69466,0.53579,0.76126
605.702,28.75177,-0.69449,0.53232,0.76074
606.502,28.778,-0.69463,0.53716,0.76021
607.302,28.8043,-0.69466,0.53831,0.75968
608.102,28.8306,-0.69543,0.54124,0.75915
608.902,28.85688,-0.69596,0.538,0.75863
609.702,28.8831,-0.69597,0.53697,0.7581
610.502,28.9093,-0.69597,0.53583,0.75757
611.302,28.93548,-0.69601,0.5379,0.75704
612.102,28.96172,-0.69565,0.5404,0.7565
612.902,28.98798,-0.69564,0.53943,0.75597
613.702,29.01427,-0.69564,0.54179,0.75544
614.502,29.0405,-0.69564,0.53813,0.7549
615.302,29.0667,-0.69564,0.54376,0.75437
616.102,29.09292,-0.69565,0.54808,0.75383
616.902,29.11921,-0.69596,0.54935,0.7533
617.702,29.14548,-0.69598,0.54729,0.75276
618.502,29.1718,-0.69683,0.55192,0.75222
619.302,29.19803,-0.69728,0.55136,0.75168
620.102,29.22434,-0.69728,0.54981,0.75114
620.902,29.2505,-0.69728,0.55204,0.7506
621.702,29.2768,-0.69728,0.55322,0.75006
622.502,29.3031,-0.69728,0.55293,0.74952
623.302,29.3294,-0.69728,0.5554,0.74897
624.102,29.3558,-0.69728,0.55845,0.74843
624.902,29.3821,-0.6973,0.55595,0.74788
625.702,29.4084,-0.69861,0.56012,0.74734
626.502,29.4347,-0.6986,0.56112,0.74679
627.302,29.461,-0.6986,0.56567,0.74624
628.102,29.48742,-0.69859,0.56491,0.7457
628.902,29.51373,-0.7,0.56995,0.74515
629.702,29.5401,-0.69991,0.56931,0.7446
630.502,29.5663,-0.69991,0.5719,0.74405
631.302,29.59266,-0.69991,0.57318,0.7435
632.102,29.619,-0.69991,0.57307,0.74294
632.902,29.6453,-0.69991,0.57689,0.74239
633.702,29.6717,-0.69991,0.5803,0.74184
634.502,29.69799,-0.69992,0.58218,0.74128
635.302,29.72431,-0.7002,0.58638,0.74073
636.102,29.7506,-0.70092,0.58912,0.74017
636.902,29.77688,-0.70123,0.5906,0.73961
637.702,29.8032,-0.70122,0.58816,0.73906
638.502,29.82955,-0.70055,0.5849,0.7385
639.302,29.8559,-0.70163,0.59285,0.73794
640.102,29.88235,-0.70156,0.59188,0.73738
640.902,29.90884,-0.70156,0.59022,0.73682
641.702,29.93528,-0.70283,0.59782,0.73625
642.502,29.9616,-0.70287,0.60316,0.73569
643.302,29.9879,-0.70287,0.60617,0.73513
644.102,30.0142,-0.70287,0.60392,0.73456
644.902,30.04055,-0.70287,0.61106,0.734
645.702,30.0671,-0.70287,0.61463,0.73343
646.502,30.0934,-0.70289,0.61498,0.73287
647.302,30.1198,-0.70391,0.62281,0.7323
648.102,30.14615,-0.70421,0.62687,0.73173
648.902,30.1726,-0.70539,0.6292,0.73116
649.702,30.19905,-0.7055,0.62973,0.73059
650.502,30.22553,-0.7055,0.63783,0.73002
651.302,30.25195,-0.70547,0.64095,0.72945
652.102,30.2783,-0.70679,0.63908,0.72887
652.902,30.3047,-0.70682,0.64213,0.7283
653.702,30.3311,-0.70822,0.64782,0.72773
654.502,30.35758,-0.70814,0.64992,0.72715
655.302,30.384,-0.70817,0.65972,0.72657
656.102,30.41047,-0.70782,0.66171,0.726
656.902,30.43693,-0.70781,0.66755,0.72542
657.702,30.4634,-0.70862,0.67036,0.72484
658.502,30.4898,-0.70923,0.67356,0.72426
659.302,30.51629,-0.70983,0.67259,0.72368
660.102,30.5427,-0.70987,0.67492,0.7231
660.902,30.56908,-0.71122,0.68341,0.72252
661.702,30.59553,-0.71122,0.68432,0.72194
662.502,30.62195,-0.71122,0.69088,0.72135
663.302,30.6485,-0.71149,0.69435,0.72077
664.102,30.67489,-0.71251,0.70249,0.72018
664.902,30.7013,-0.71253,0.70309,0.7196
665.702,30.72761,-0.71253,0.70614,0.71901
666.502,30.75408,-0.71298,0.70937,0.71842
667.302,30.7806,-0.71385,0.71555,0.71783
668.102,30.80712,-0.71404,0.71675,0.71724
668.902,30.83356,-0.71514,0.72562,0.71665
669.702,30.85991,-0.71515,0.72901,0.71606
670.502,30.88638,-0.71646,0.73473,0.71547
671.302,30.913,-0.71652,0.73789,0.71488
672.102,30.93958,-0.71779,0.74344,0.71428
672.902,30.9661,-0.7178,0.75344,0.71369
673.702,30.99255,-0.71794,0.75376,0.7131
674.502,31.0191,-0.71846,0.75898,0.7125
675.302,31.04556,-0.71839,0.76395,0.7119
676.102,31.07211,-0.71982,0.76775,0.7113
676.902,31.09863,-0.71977,0.77251,0.71071
677.702,31.12515,-0.72074,0.7756,0.71011
678.502,31.15165,-0.72104,0.78161,0.70951
679.302,31.1781,-0.7215,0.78661,0.70891
680.102,31.20454,-0.72108,0.79009,0.7083
680.902,31.2311,-0.72248,0.7983,0.7077
681.702,31.2575,-0.7224,0.80417,0.7071
682.502,31.28408,-0.7238,0.80971,0.70649
683.302,31.31048,-0.72378,0.81189,0.70589
684.102,31.337,-0.72634,0.81568,0.70528
684.902,31.36348,-0.72609,0.82507,0.70468
685.702,31.38995,-0.72638,0.83078,0.70407
686.502,31.4165,-0.7263,0.83826,0.70346
687.302,31.4429,-0.72771,0.84247,0.70285
688.102,31.4694,-0.72767,0.84992,0.70224
688.902,31.4959,-0.72903,0.8539,0.70163
689.702,31.52242,-0.72994,0.86005,0.70102
690.502,31.549,-0.73104,0.8659,0.7004
691.302,31.57553,-0.73187,0.87027,0.69979
692.102,31.60205,-0.73331,0.87623,0.69918
692.902,31.62861,-0.73326,0.88334,0.69856
693.702,31.6551,-0.73335,0.8868,0.69795
694.502,31.6817,-0.73463,0.89527,0.69733
695.302,31.7082,-0.73596,0.89671,0.69671
696.102,31.7348,-0.73654,0.9023,0.69609
696.902,31.7613,-0.73726,0.9067,0.69547
697.702,31.7879,-0.73884,0.9144,0.69485
698.502,31.8145,-0.7398,0.91501,0.69423
699.302,31.8411,-0.74035,0.92233,0.69361
700.102,31.86758,-0.7418,0.92839,0.69299
700.902,31.89415,-0.74332,0.93024,0.69237
701.702,31.9207,-0.74434,0.93736,0.69174
702.502,31.94724,-0.74451,0.9388,0.69112
703.302,31.97376,-0.74604,0.94245,0.69049
704.102,32.00036,-0.74761,0.94825,0.68986
704.902,32.027,-0.74757,0.952,0.68924
705.702,32.05361,-0.7492,0.95292,0.68861
706.502,32.0802,-0.75075,0.95848,0.68798
707.302,32.1068,-0.75061,0.95985,0.68735
708.102,32.1334,-0.75226,0.96194,0.68672
708.902,32.16001,-0.75224,0.96496,0.68609
709.702,32.18655,-0.75224,0.96671,0.68546
710.502,32.21312,-0.7524,0.96857,0.68482
711.302,32.23972,-0.75427,0.97031,0.68419
712.102,32.26639,-0.75773,0.97012,0.68355
712.902,32.29307,-0.7597,0.96866,0.68292
713.702,32.31971,-0.76139,0.96826,0.68228
714.502,32.34633,-0.76294,0.96733,0.68164
715.302,32.37291,-0.76324,0.96846,0.68101
716.102,32.39958,-0.76451,0.96586,0.68037
716.902,32.42627,-0.76577,0.96631,0.67973
717.702,32.45293,-0.76731,0.96069,0.67909
718.502,32.47965,-0.76741,0.95928,0.67845
719.302,32.5063,-0.76771,0.95652,0.6778
720.102,32.53302,-0.76913,0.95425,0.67716
720.902,32.55966,-0.76916,0.94815,0.67652
721.702,32.5864,-0.77041,0.94311,0.67587
722.502,32.61311,-0.77181,0.94161,0.67523
723.302,32.63985,-0.77334,0.93554,0.67458
724.102,32.66656,-0.77458,0.9323,0.67394
724.902,32.69323,-0.77568,0.9245,0.67329
725.702,32.71987,-0.77678,0.92086,0.67264
726.502,32.74655,-0.7779,0.9131,0.67199
727.302,32.77332,-0.77931,0.90894,0.67134
728.102,32.8001,-0.77963,0.904,0.67069
728.902,32.8268,-0.77934,0.89782,0.67004
729.702,32.85345,-0.7801,0.89176,0.66939
730.502,32.88001,-0.7807,0.88479,0.66873
731.302,32.9067,-0.7821,0.87674,0.66808
732.102,32.93342,-0.78365,0.8651,0.66742
732.902,32.96021,-0.78512,0.85728,0.66677
733.702,32.98708,-0.78673,0.84922,0.66611
734.502,33.01383,-0.78749,0.8393,0.66546
735.302,33.04054,-0.788,0.82682,0.6648
736.102,33.0672,-0.78849,0.81855,0.66414
736.902,33.0939,-0.78929,0.80906,0.66348
737.702,33.12062,-0.78936,0.79342,0.66282
738.502,33.1473,-0.79077,0.77638,0.66216
739.302,33.174,-0.79215,0.76373,0.6615
740.102,33.20078,-0.79278,0.756,0.66084
740.902,33.22745,-0.79378,0.73685,0.66017
741.702,33.2541,-0.79521,0.72728,0.65951
742.502,33.28082,-0.79512,0.71234,0.65884
743.302,33.3075,-0.79514,0.69976,0.65818
744.102,33.3343,-0.79638,0.68834,0.65751
744.902,33.3611,-0.79643,0.6778,0.65684
745.702,33.38782,-0.79587,0.66741,0.65618
746.502,33.41453,-0.79546,0.65688,0.65551
747.302,33.44121,-0.79597,0.64499,0.65484
748.102,33.4679,-0.79675,0.63544,0.65417
748.902,33.4946,-0.79817,0.62689,0.6535
749.702,33.5214,-0.79808,0.61963,0.65283
750.502,33.54815,-0.79805,0.61174,0.65215
751.302,33.5749,-0.79944,0.60281,0.65148
752.102,33.60167,-0.7994,0.5962,0.65081
752.902,33.62839,-0.80066,0.59456,0.65013
753.702,33.65514,-0.80066,0.5874,0.64946
754.502,33.68186,-0.80208,0.58165,0.64878
755.302,33.7087,-0.80203,0.57624,0.6481
756.102,33.7354,-0.80168,0.57046,0.64742
756.902,33.7622,-0.80164,0.56717,0.64675
757.702,33.789,-0.80301,0.56514,0.64607
758.502,33.81573,-0.80176,0.56228,0.64539
759.302,33.8425,-0.80171,0.55648,0.64471
760.102,33.86919,-0.80236,0.55612,0.64403
760.902,33.89595,-0.80301,0.55187,0.64334
761.702,33.92273,-0.80319,0.54749,0.64266
762.502,33.94948,-0.80434,0.5492,0.64198
763.302,33.97625,-0.80434,0.54916,0.64129
764.102,34.003,-0.80434,0.54744,0.64061
764.902,34.02986,-0.80434,0.54565,0.63992
765.702,34.05664,-0.80507,0.54937,0.63923
766.502,34.08343,-0.80565,0.54584,0.63855
767.302,34.1102,-0.80565,0.54232,0.63786
768.102,34.137,-0.80564,0.54312,0.63717
768.902,34.16383,-0.80706,0.54117,0.63648
769.702,34.1907,-0.80697,0.54167,0.63579
770.502,34.21753,-0.8075,0.54451,0.6351
771.302,34.24443,-0.80796,0.54307,0.63441
772.102,34.27124,-0.8073,0.54655,0.63372
772.902,34.29803,-0.80731,0.54328,0.63302
773.702,34.32492,-0.8084,0.5427,0.63233
774.502,34.35181,-0.80861,0.54829,0.63163
775.302,34.37879,-0.80861,0.54623,0.63094
776.102,34.40567,-0.80861,0.54786,0.63024
776.902,34.4326,-0.80861,0.54727,0.62955
777.702,34.4596,-0.8086,0.54429,0.62885
778.502,34.48656,-0.80991,0.54964,0.62815
779.302,34.5135,-0.80993,0.54879,0.62745
780.102,34.54048,-0.80993,0.55156,0.62675
780.902,34.56743,-0.80993,0.55129,0.62605
781.702,34.59432,-0.81,0.5488,0.62535
782.502,34.62128,-0.81122,0.55355,0.62465
783.302,34.64824,-0.81125,0.55447,0.62395
784.102,34.67518,-0.81252,0.55264,0.62325
784.902,34.7021,-0.81256,0.55586,0.62254
785.702,34.72893,-0.81256,0.55421,0.62184
786.502,34.75581,-0.81295,0.55678,0.62113
787.302,34.7828,-0.81387,0.5575,0.62043
788.102,34.8097,-0.81388,0.55938,0.61972
788.902,34.83667,-0.81387,0.5656,0.61901
789.702,34.8636,-0.81352,0.56246,0.61831
790.502,34.89062,-0.81355,0.56215,0.6176
791.302,34.9176,-0.81377,0.56665,0.61689
792.102,34.9446,-0.81484,0.56793,0.61618
792.902,34.9715,-0.81488,0.57069,0.61547
793.702,34.9983,-0.81619,0.57438,0.61476
794.502,35.02515,-0.81618,0.5724,0.61405
795.302,35.05206,-0.81623,0.57106,0.61333
796.102,35.07895,-0.8162,0.57551,0.61262
796.902,35.10593,-0.81614,0.5789,0.61191
797.702,35.13292,-0.81755,0.5795,0.61119
798.502,35.15999,-0.8179,0.58014,0.61048
799.302,35.18694,-0.81881,0.58142,0.60976
800.102,35.21389,-0.81882,0.58615,0.60905
800.902,35.2408,-0.81882,0.58753,0.60833
801.702,35.2678,-0.81883,0.58855,0.60761
802.502,35.29466,-0.8199,0.59161,0.60689
803.302,35.32156,-0.82013,0.59494,0.60617
804.102,35.34843,-0.82013,0.59986,0.60545
804.902,35.3754,-0.82016,0.60146,0.60473
805.702,35.4024,-0.82132,0.60526,0.60401
806.502,35.4293,-0.82111,0.60329,0.60329
807.302,35.45624,-0.82123,0.60883,0.60257
808.102,35.48319,-0.82145,0.61144,0.60185
808.902,35.51013,-0.82148,0.61108,0.60112
809.702,35.53706,-0.82278,0.61126,0.6004
810.502,35.56402,-0.82276,0.61445,0.59968
811.302,35.59091,-0.82276,0.61994,0.59895
812.102,35.61781,-0.82278,0.61838,0.59822
812.902,35.64475,-0.82458,0.62064,0.5975
813.702,35.6716,-0.82472,0.62563,0.59677
814.502,35.69862,-0.82507,0.62915,0.59604
815.302,35.72562,-0.82544,0.63094,0.59532
816.102,35.75265,-0.82637,0.63403,0.59459
816.902,35.77964,-0.82642,0.63826,0.59386
817.702,35.8065,-0.82633,0.64398,0.59313
818.502,35.83351,-0.82638,0.64351,0.5924
819.302,35.86043,-0.82637,0.65193,0.59166
820.102,35.8874,-0.82763,0.64832,0.59093
820.902,35.91431,-0.82699,0.65382,0.5902
821.702,35.94123,-0.82686,0.65787,0.58947
822.502,35.9681,-0.82802,0.65953,0.58873
823.302,35.9951,-0.82797,0.66552,0.588
824.102,36.0221,-0.82939,0.66979,0.58726
824.902,36.04907,-0.82934,0.67269,0.58653
825.702,36.07607,-0.8304,0.67308,0.58579
826.502,36.10298,-0.83067,0.6823,0.58506
827.302,36.12993,-0.83066,0.6838,0.58432
828.102,36.15685,-0.83179,0.69194,0.58358
828.902,36.18379,-0.83198,0.69088,0.58284
829.702,36.21075,-0.83198,0.69715,0.5821
830.502,36.23771,-0.83332,0.70195,0.58137
831.302,36.26477,-0.83324,0.70711,0.58063
832.102,36.29176,-0.83466,0.70398,0.57988
832.902,36.31875,-0.83461,0.70659,0.57914
833.702,36.3457,-0.83562,0.70901,0.5784
834.502,36.3727,-0.83594,0.71455,0.57766
835.302,36.3996,-0.83662,0.71299,0.57692
836.102,36.42661,-0.83729,0.71965,0.57617
836.902,36.45361,-0.83815,0.71966,0.57543
837.702,36.48059,-0.83832,0.72168,0.57469
838.502,36.50759,-0.83967,0.72439,0.57394
839.302,36.53458,-0.8409,0.72735,0.57319
840.102,36.56152,-0.84012,0.72893,0.57245
840.902,36.58851,-0.84093,0.73146,0.5717
841.702,36.61554,-0.84097,0.73709,0.57095
842.502,36.6425,-0.84125,0.74221,0.57021
843.302,36.66959,-0.84229,0.74331,0.56946
844.102,36.6966,-0.84303,0.75131,0.56871
844.902,36.7237,-0.84362,0.75345,0.56796
845.702,36.75075,-0.84472,0.75648,0.56721
846.502,36.7778,-0.84504,0.76179,0.56646
847.302,36.80485,-0.8463,0.76308,0.56571
848.102,36.83185,-0.84637,0.77118,0.56496
848.902,36.85883,-0.84767,0.77158,0.56421
849.702,36.88581,-0.84778,0.77614,0.56345
850.502,36.91278,-0.84825,0.77951,0.5627
851.302,36.93985,-0.84766,0.78606,0.56195
852.102,36.9669,-0.84811,0.7838,0.5612
852.902,36.99393,-0.84918,0.78775,0.56044
853.702,37.02089,-0.85058,0.78957,0.55969
854.502,37.04795,-0.85051,0.79736,0.55893
855.302,37.07495,-0.8519,0.80234,0.55818
856.102,37.10203,-0.85206,0.80533,0.55742
856.902,37.12905,-0.85314,0.80878,0.55666
857.702,37.1561,-0.85443,0.81144,0.5559
858.502,37.18315,-0.85446,0.81692,0.55515
859.302,37.21024,-0.85489,0.81848,0.55439
860.102,37.23727,-0.85577,0.82727,0.55363
860.902,37.26425,-0.8567,0.8268,0.55287
861.702,37.29121,-0.85717,0.83107,0.55211
862.502,37.31819,-0.85861,0.83304,0.55135
863.302,37.34522,-0.85854,0.83656,0.55059
864.102,37.3722,-0.85875,0.8364,0.54983
864.902,37.39922,-0.85972,0.83618,0.54907
865.702,37.42623,-0.86004,0.83646,0.54831
866.502,37.45335,-0.86146,0.84251,0.54754
867.302,37.48049,-0.86146,0.84361,0.54678
868.102,37.5075,-0.86276,0.84168,0.54602
868.902,37.5344,-0.86429,0.84053,0.54525
869.702,37.56143,-0.86506,0.84212,0.54449
870.502,37.5884,-0.86552,0.84818,0.54373
871.302,37.6154,-0.86567,0.84944,0.54296
872.102,37.6424,-0.86646,0.84813,0.5422
872.902,37.66943,-0.86686,0.85197,0.54143
873.702,37.69648,-0.86815,0.85528,0.54066
874.502,37.72347,-0.86816,0.85767,0.5399
875.302,37.75032,-0.86954,0.85964,0.53913
876.102,37.7773,-0.86945,0.86374,0.53836
876.902,37.80435,-0.87087,0.86765,0.53759
877.702,37.8315,-0.87167,0.87373,0.53683
878.502,37.8587,-0.8722,0.87939,0.53606
879.302,37.88573,-0.87356,0.88899,0.53529
880.102,37.9128,-0.87355,0.89888,0.53452
880.902,37.9398,-0.87354,0.9022,0.53375
881.702,37.9668,-0.87491,0.91239,0.53298
882.502,37.99377,-0.87567,0.91826,0.53221
883.302,38.0208,-0.87619,0.92831,0.53144
884.102,38.04777,-0.87763,0.93764,0.53066
884.902,38.0748,-0.87927,0.94875,0.52989
885.702,38.10171,-0.88045,0.95547,0.52912
886.502,38.12875,-0.88129,0.96076,0.52835
887.302,38.15571,-0.88219,0.96699,0.52757
888.102,38.18274,-0.88363,0.97118,0.5268
888.902,38.20973,-0.88355,0.96926,0.52603
889.702,38.23677,-0.88506,0.96285,0.52525
890.502,38.26376,-0.88541,0.95898,0.52448
891.302,38.29087,-0.88705,0.94922,0.5237
892.102,38.3191,-0.88704,0.92927,0.52293
892.502,38.33191,-0.88738,0.92719,0.52254