File: 01_Data/Fiber_Cement_Board/STA/N2/10K_min/Fiber_Cement_Board_STA_N2_10KData_210622_R1.csv
##Temp./Â°C,Time/min,Mass loss(subtr.2)/mg,DSC(subtr.2)/mW,Sensit./(uV/mW)
49.326,10.01,-0.00275,0.02344381,0.61832
49.826,11.32075,-0.00482029,0.07616731,0.61858
50.326,11.63775,-0.005390639,0.10801,0.61885
50.826,11.86525,-0.0042348,0.13138,0.61911
51.326,12.0479,-0.004590653,0.15841,0.61938
51.826,12.20738,-0.00399784,0.18215,0.61964
52.326,12.35287,-0.00589853,0.20947,0.6199
52.826,12.48382,-0.003279507,0.22258,0.62016
53.326,12.60599,-0.004032947,0.25417,0.62042
53.826,12.72223,-0.005055207,0.25643,0.62068
54.326,12.83141,-0.004993369,0.27605,0.62094
54.826,12.93568,-0.00359146,0.2942,0.6212
55.326,13.03657,-0.006533972,0.30456,0.62145
55.826,13.13275,-0.00599936,0.31528,0.62171
56.326,13.22745,-0.005612296,0.32229,0.62196
56.826,13.3209,-0.0066051,0.34216,0.62222
57.326,13.41146,-0.004863124,0.35064,0.62247
57.826,13.4995,-0.00664723,0.3664,0.62272
58.326,13.5858,-0.007504952,0.37692,0.62297
58.826,13.67045,-0.006250006,0.39171,0.62322
59.326,13.7538,-0.00656842,0.40997,0.62347
59.826,13.83588,-0.005836056,0.40755,0.62372
60.326,13.9168,-0.007872902,0.41801,0.62397
60.826,13.9969,-0.007859709,0.4361,0.62422
61.326,14.07525,-0.007753389,0.442,0.62446
61.826,14.1526,-0.007631698,0.46142,0.62471
62.326,14.22899,-0.008989079,0.46642,0.62495
62.826,14.3044,-0.007897703,0.47918,0.6252
63.326,14.37851,-0.00808501,0.48837,0.62544
63.826,14.45204,-0.009034423,0.52108,0.62568
64.326,14.5251,-0.008026958,0.51959,0.62592
64.826,14.5972,-0.009123744,0.53157,0.62616
65.326,14.6686,-0.009861808,0.53177,0.6264
65.826,14.73947,-0.01031053,0.55448,0.62664
66.326,14.8095,-0.01162986,0.56343,0.62688
66.826,14.87861,-0.01163033,0.56996,0.62711
67.326,14.9469,-0.01046031,0.5883,0.62735
67.826,15.0145,-0.01032071,0.59764,0.62758
68.326,15.08205,-0.0103204,0.61037,0.62782
68.826,15.14921,-0.01180692,0.61989,0.62805
69.326,15.21587,-0.0131536,0.62825,0.62828
69.826,15.2815,-0.01448033,0.6422,0.62851
70.326,15.34666,-0.0148698,0.64236,0.62874
70.826,15.4114,-0.01448002,0.65393,0.62897
71.326,15.4759,-0.0144182,0.67958,0.6292
71.826,15.53987,-0.01381173,0.68239,0.62943
72.326,15.6032,-0.01474785,0.68987,0.62966
72.826,15.66606,-0.01579994,0.70525,0.62988
73.326,15.7284,-0.01523422,0.72245,0.63011
73.826,15.7905,-0.01579231,0.73963,0.63033
74.326,15.8525,-0.0179774,0.76188,0.63056
74.826,15.9145,-0.01747369,0.76389,0.63078
75.326,15.976,-0.01841848,0.77724,0.631
75.826,16.03679,-0.0184163,0.7816,0.63122
76.326,16.09725,-0.01710988,0.79677,0.63144
76.826,16.15708,-0.01850287,0.81157,0.63166
77.326,16.21676,-0.01940432,0.84099,0.63188
77.826,16.27605,-0.01981376,0.83878,0.6321
78.326,16.3351,-0.01973037,0.8438,0.63231
78.826,16.3938,-0.01107521,0.85654,0.63253
79.326,16.4523,-0.03012785,0.87679,0.63274
79.826,16.51069,-0.02469858,0.88839,0.63296
80.326,16.5687,-0.02435701,0.89607,0.63317
80.826,16.62629,-0.02438696,0.91111,0.63338
81.326,16.68379,-0.02539179,0.92545,0.63359
81.826,16.74083,-0.02534001,0.93617,0.6338
82.326,16.79799,-0.02533997,0.95548,0.63401
82.826,16.85471,-0.02525313,0.96818,0.63422
83.326,16.91111,-0.02802144,0.96515,0.63443
83.826,16.9676,-0.02796995,0.98014,0.63463
84.326,17.02354,-0.02799502,0.99607,0.63484
84.826,17.07893,-0.02764014,1.01098,0.63504
85.326,17.13436,-0.02768828,1.01387,0.63525
85.826,17.18967,-0.02896003,1.02766,0.63545
86.326,17.2447,-0.02935258,1.0373,0.63565
86.826,17.29995,-0.02927995,1.05466,0.63586
87.326,17.35452,-0.03052173,1.05261,0.63606
87.826,17.40867,-0.03060001,1.0748,0.63626
88.326,17.46261,-0.03059737,1.07247,0.63645
88.826,17.51654,-0.03124694,1.07442,0.63665
89.326,17.57027,-0.03125856,1.08161,0.63685
89.826,17.62342,-0.03328423,1.09577,0.63705
90.326,17.67684,-0.03204918,1.11049,0.63724
90.826,17.73,-0.0342183,1.10713,0.63744
91.326,17.7833,-0.03388803,1.12681,0.63763
91.826,17.8368,-0.03423369,1.14271,0.63782
92.326,17.88982,-0.03586602,1.14673,0.63801
92.826,17.94258,-0.02868047,1.14335,0.6382
93.326,17.99524,-0.03467299,1.15277,0.63839
93.826,18.0476,-0.04726483,1.14965,0.63858
94.326,18.0995,-0.03975209,1.15628,0.63877
94.826,18.15154,-0.03926908,1.1686,0.63896
95.326,18.2032,-0.03927164,1.18031,0.63914
95.826,18.2547,-0.04087828,1.16961,0.63933
96.326,18.3068,-0.0412148,1.17972,0.63952
96.826,18.35847,-0.04321901,1.18961,0.6397
97.326,18.4094,-0.04325129,1.18864,0.63988
97.826,18.46095,-0.04320774,1.19911,0.64006
98.326,18.51217,-0.04320049,1.20425,0.64025
98.826,18.56286,-0.04321834,1.20353,0.64043
99.326,18.61441,-0.04399348,1.19733,0.64061
99.826,18.6652,-0.04673539,1.21211,0.64078
100.326,18.71582,-0.04726748,1.2112,0.64096
100.826,18.76677,-0.04624564,1.22524,0.64114
101.326,18.81727,-0.04708068,1.22306,0.64131
101.826,18.8676,-0.0483955,1.22124,0.64149
102.326,18.918,-0.04979998,1.23122,0.64166
102.826,18.96823,-0.0503107,1.22837,0.64184
103.326,19.0185,-0.05244463,1.23417,0.64201
103.826,19.06861,-0.05242999,1.23949,0.64218
104.326,19.1185,-0.0524249,1.23495,0.64235
104.826,19.16845,-0.05459709,1.23462,0.64252
105.326,19.21826,-0.05507198,1.24646,0.64269
105.826,19.26817,-0.05446258,1.2509,0.64286
106.326,19.31777,-0.05440991,1.26304,0.64303
106.826,19.36744,-0.05440955,1.25551,0.64319
107.326,19.41708,-0.05510252,1.25892,0.64336
107.826,19.46656,-0.05700878,1.25093,0.64352
108.326,19.51614,-0.05698755,1.26574,0.64368
108.826,19.5656,-0.05867134,1.2536,0.64385
109.326,19.6148,-0.05967781,1.25812,0.64401
109.826,19.6641,-0.05670353,1.27283,0.64417
110.326,19.7134,-0.05791743,1.27769,0.64433
110.826,19.7625,-0.06752255,1.2708,0.64449
111.326,19.81185,-0.06333748,1.27686,0.64465
111.826,19.86104,-0.06116496,1.2728,0.64481
112.326,19.91014,-0.0624099,1.28583,0.64496
112.826,19.95915,-0.06370037,1.28562,0.64512
113.326,20.0082,-0.06374979,1.28178,0.64527
113.826,20.057,-0.0650489,1.28931,0.64543
114.326,20.1057,-0.06513818,1.28534,0.64558
114.826,20.15436,-0.06632492,1.29682,0.64573
115.326,20.2029,-0.06768363,1.2959,0.64588
115.826,20.25159,-0.06768,1.29986,0.64603
116.326,20.30005,-0.06768,1.30227,0.64618
116.826,20.34875,-0.06768001,1.30791,0.64633
117.326,20.39715,-0.06767297,1.30203,0.64648
117.826,20.44548,-0.06899599,1.30432,0.64663
118.326,20.49369,-0.06900399,1.29596,0.64677
118.826,20.54188,-0.07163408,1.29997,0.64692
119.326,20.59,-0.07163,1.29699,0.64706
119.826,20.6381,-0.07264021,1.29789,0.64721
120.326,20.6861,-0.07396929,1.31121,0.64735
120.826,20.7344,-0.07392994,1.31236,0.64749
121.326,20.7824,-0.07392879,1.30783,0.64763
121.826,20.8304,-0.07425811,1.30258,0.64777
122.326,20.8784,-0.0755988,1.3025,0.64791
122.826,20.9262,-0.07570949,1.29632,0.64805
123.326,20.97384,-0.07656014,1.31129,0.64819
123.826,21.02156,-0.07770105,1.31627,0.64832
124.326,21.06941,-0.07198798,1.31304,0.64846
124.826,21.11704,-0.08039627,1.31126,0.64859
125.326,21.1648,-0.08452035,1.3251,0.64873
125.826,21.21255,-0.08166517,1.31874,0.64886
126.326,21.2602,-0.08029561,1.31774,0.64899
126.826,21.30769,-0.08058334,1.31273,0.64912
127.326,21.35517,-0.07998376,1.32131,0.64925
127.826,21.40236,-0.08138551,1.31989,0.64938
128.326,21.44947,-0.08138999,1.32388,0.64951
128.826,21.49673,-0.08141726,1.31967,0.64964
129.326,21.5439,-0.08392672,1.31079,0.64977
129.826,21.5911,-0.08539099,1.30514,0.64989
130.326,21.6382,-0.08534017,1.30475,0.65002
130.826,21.68532,-0.08534,1.30921,0.65014
131.326,21.73232,-0.08533988,1.30596,0.65027
131.826,21.77919,-0.08531847,1.3034,0.65039
132.326,21.82616,-0.08665603,1.30357,0.65051
132.826,21.87292,-0.08797638,1.29486,0.65063
133.326,21.9195,-0.08926097,1.30864,0.65075
133.826,21.96621,-0.08929037,1.29859,0.65087
134.326,22.01282,-0.08928999,1.2924,0.65099
134.826,22.05933,-0.08928898,1.27861,0.65111
135.326,22.10595,-0.09183154,1.28874,0.65122
135.826,22.15243,-0.09202022,1.28006,0.65134
136.326,22.19877,-0.09202,1.28541,0.65145
136.826,22.24509,-0.09201996,1.28794,0.65157
137.326,22.29148,-0.09202851,1.2831,0.65168
137.826,22.338,-0.09336356,1.29228,0.65179
138.326,22.38457,-0.09466427,1.28438,0.65191
138.826,22.43101,-0.09333673,1.28472,0.65202
139.326,22.47743,-0.0947101,1.27062,0.65213
139.826,22.52348,-0.09469084,1.28162,0.65223
140.326,22.56965,-0.09597972,1.27848,0.65234
140.826,22.61589,-0.09724519,1.27895,0.65245
141.326,22.66214,-0.09877205,1.27138,0.65256
141.826,22.70843,-0.09993015,1.27886,0.65266
142.326,22.75457,-0.09993,1.27042,0.65277
142.826,22.80049,-0.09993,1.27954,0.65287
143.326,22.8464,-0.09993001,1.28154,0.65297
143.826,22.8922,-0.09992696,1.27572,0.65307
144.326,22.93794,-0.10122,1.27377,0.65317
144.826,22.98379,-0.10004,1.27984,0.65327
145.326,23.02956,-0.09993003,1.27161,0.65337
145.826,23.07528,-0.0998803,1.27734,0.65347
146.326,23.12107,-0.10126,1.27046,0.65357
146.826,23.1668,-0.10268,1.26961,0.65367
147.326,23.21266,-0.10267,1.26437,0.65376
147.826,23.25828,-0.10386,1.2663,0.65386
148.326,23.30388,-0.10398,1.26912,0.65395
148.826,23.34962,-0.10398,1.26353,0.65405
149.326,23.3952,-0.10619,1.25802,0.65414
149.826,23.44086,-0.1066,1.26221,0.65423
150.326,23.48657,-0.10763,1.2465,0.65432
150.826,23.5321,-0.10891,1.25298,0.65441
151.326,23.57763,-0.10892,1.25427,0.6545
151.826,23.6231,-0.10894,1.25211,0.65459
152.326,23.66858,-0.10859,1.26354,0.65468
152.826,23.71406,-0.10862,1.25186,0.65476
153.326,23.7596,-0.10826,1.26054,0.65485
153.826,23.80493,-0.10878,1.25997,0.65493
154.326,23.85032,-0.11089,1.26595,0.65502
154.826,23.89571,-0.11089,1.25318,0.6551
155.326,23.94098,-0.11089,1.26029,0.65518
155.826,23.98633,-0.11226,1.25029,0.65526
156.326,24.0317,-0.11201,1.25962,0.65534
156.826,24.07695,-0.112,1.24726,0.65542
157.326,24.12247,-0.112,1.24125,0.6555
157.826,24.16745,-0.11336,1.22633,0.65558
158.326,24.2129,-0.11331,1.23197,0.65566
158.826,24.25812,-0.11461,1.23416,0.65573
159.326,24.30333,-0.11482,1.22716,0.65581
159.826,24.3485,-0.11528,1.23997,0.65588
160.326,24.39413,-0.11528,1.23811,0.65596
160.826,24.4393,-0.1146,1.23564,0.65603
161.326,24.4848,-0.11495,1.2285,0.6561
161.826,24.53004,-0.11627,1.23593,0.65617
162.326,24.57536,-0.11717,1.22733,0.65625
162.826,24.62048,-0.11726,1.22425,0.65631
163.326,24.6658,-0.11722,1.21447,0.65638
163.826,24.71087,-0.11762,1.21524,0.65645
164.326,24.75611,-0.11891,1.21218,0.65652
164.826,24.80114,-0.11891,1.21302,0.65658
165.326,24.8463,-0.11891,1.20657,0.65665
165.826,24.89151,-0.1202,1.2087,0.65671
166.326,24.93662,-0.12022,1.20497,0.65678
166.826,24.9819,-0.12022,1.20237,0.65684
167.326,25.02711,-0.12064,1.20995,0.6569
167.826,25.07229,-0.12164,1.19161,0.65696
168.326,25.1174,-0.12285,1.18526,0.65703
168.826,25.1627,-0.12414,1.20459,0.65708
169.326,25.20767,-0.12416,1.18703,0.65714
169.826,25.25272,-0.123,1.16924,0.6572
170.326,25.29779,-0.12285,1.16793,0.65726
170.826,25.34285,-0.12298,1.17377,0.65731
171.326,25.3879,-0.1255,1.17999,0.65737
171.826,25.4329,-0.12548,1.15409,0.65742
172.326,25.47791,-0.12549,1.16648,0.65748
172.826,25.52293,-0.12676,1.16179,0.65753
173.326,25.56779,-0.12811,1.14655,0.65758
173.826,25.61273,-0.12812,1.15692,0.65763
174.326,25.65774,-0.12811,1.15626,0.65769
174.826,25.70264,-0.12856,1.15194,0.65773
175.326,25.74765,-0.12811,1.14903,0.65778
175.826,25.79265,-0.12811,1.15073,0.65783
176.326,25.83764,-0.12806,1.14175,0.65788
176.826,25.88264,-0.12943,1.1512,0.65793
177.326,25.92751,-0.1296,1.14091,0.65797
177.826,25.9723,-0.12974,1.13506,0.65802
178.326,26.01718,-0.12976,1.1426,0.65806
178.826,26.062,-0.1303,1.1411,0.6581
179.326,26.10698,-0.13239,1.13535,0.65814
179.826,26.15182,-0.13382,1.12147,0.65819
180.326,26.19679,-0.13382,1.12643,0.65823
180.826,26.2417,-0.13389,1.12247,0.65827
181.326,26.28652,-0.13514,1.12079,0.65831
181.826,26.3312,-0.13575,1.11815,0.65834
182.326,26.37596,-0.13513,1.10855,0.65838
182.826,26.4207,-0.13647,1.11816,0.65842
183.326,26.46537,-0.13646,1.1166,0.65845
183.826,26.51,-0.13513,1.1146,0.65849
184.326,26.55469,-0.13512,1.1121,0.65852
184.826,26.5992,-0.13645,1.10528,0.65855
185.326,26.64381,-0.13774,1.10442,0.65859
185.826,26.6886,-0.13754,1.10392,0.65862
186.326,26.7335,-0.13642,1.10221,0.65865
186.826,26.7782,-0.13787,1.09963,0.65868
187.326,26.8229,-0.13917,1.1,0.65871
187.826,26.86755,-0.13919,1.0902,0.65874
188.326,26.91214,-0.13919,1.10439,0.65876
188.826,26.9568,-0.13917,1.09238,0.65879
189.326,27.00137,-0.1393,1.09606,0.65882
189.826,27.04591,-0.13984,1.09488,0.65884
190.326,27.0904,-0.14117,1.08137,0.65887
190.826,27.1348,-0.14123,1.08534,0.65889
191.326,27.17915,-0.14249,1.07712,0.65891
191.826,27.2236,-0.14382,1.0779,0.65893
192.326,27.26813,-0.14381,1.06883,0.65896
192.826,27.31277,-0.14381,1.07194,0.65898
193.326,27.3575,-0.14381,1.07178,0.659
193.826,27.4022,-0.14381,1.06382,0.65901
194.326,27.44697,-0.14381,1.05529,0.65903
194.826,27.4916,-0.14491,1.0479,0.65905
195.326,27.5362,-0.14512,1.03568,0.65907
195.826,27.5807,-0.14512,1.03916,0.65908
196.326,27.62521,-0.14676,1.03612,0.6591
196.826,27.6696,-0.14775,1.04544,0.65911
197.326,27.714,-0.14874,1.0397,0.65912
197.826,27.75824,-0.14907,1.03583,0.65913
198.326,27.80255,-0.14907,1.04451,0.65915
198.826,27.8469,-0.14907,1.02573,0.65916
199.326,27.89122,-0.14907,1.02762,0.65917
199.826,27.93562,-0.14916,1.02868,0.65918
200.326,27.9803,-0.14776,1.03593,0.65918
200.826,28.02467,-0.15046,1.0329,0.65919
201.326,28.06938,-0.15038,1.01873,0.6592
201.826,28.1139,-0.14907,1.01672,0.6592
202.326,28.15858,-0.14777,1.01819,0.65921
202.826,28.20322,-0.14895,1.02152,0.65921
203.326,28.2475,-0.15006,1.01499,0.65922
203.826,28.2919,-0.15005,1.00613,0.65922
204.326,28.3365,-0.15001,1.00256,0.65922
204.826,28.3806,-0.15038,1.00774,0.65922
205.326,28.42502,-0.15033,1.002,0.65922
205.826,28.46973,-0.1517,0.9977,0.65922
206.326,28.5142,-0.15175,0.99563,0.65922
206.826,28.55868,-0.15302,0.99323,0.65922
207.326,28.60342,-0.15182,0.98723,0.65922
207.826,28.6478,-0.15285,0.98965,0.65922
208.326,28.69218,-0.15385,0.98792,0.65921
208.826,28.73648,-0.15435,0.9948,0.65921
209.326,28.78102,-0.15335,0.97862,0.6592
209.826,28.82522,-0.15518,0.9793,0.65919
210.326,28.8698,-0.15478,0.97117,0.65919
210.826,28.9143,-0.15477,0.97416,0.65918
211.326,28.9587,-0.15477,0.96968,0.65917
211.826,29.00321,-0.15492,0.97622,0.65916
212.326,29.0477,-0.15608,0.96731,0.65915
212.826,29.0922,-0.15748,0.95364,0.65914
213.326,29.1364,-0.15743,0.94991,0.65913
213.826,29.18109,-0.15869,0.95671,0.65911
214.326,29.2258,-0.15837,0.95423,0.6591
214.826,29.27014,-0.1574,0.94457,0.65909
215.326,29.31468,-0.15739,0.94172,0.65907
215.826,29.3592,-0.15708,0.94397,0.65905
216.326,29.4036,-0.1584,0.93336,0.65904
216.826,29.4481,-0.15839,0.93915,0.65902
217.326,29.49264,-0.15839,0.93569,0.659
217.826,29.5371,-0.15839,0.92729,0.65898
218.326,29.5816,-0.15977,0.92948,0.65896
218.826,29.62603,-0.16098,0.93492,0.65894
219.326,29.6704,-0.16102,0.92749,0.65892
219.826,29.7149,-0.16102,0.92863,0.6589
220.326,29.7594,-0.16102,0.93558,0.65888
220.826,29.8039,-0.16102,0.92838,0.65886
221.326,29.8483,-0.16102,0.92993,0.65883
221.826,29.89283,-0.16174,0.93425,0.65881
222.326,29.93737,-0.16236,0.92164,0.65878
222.826,29.98191,-0.16234,0.92127,0.65875
223.326,30.0265,-0.16234,0.92238,0.65873
223.826,30.07095,-0.16234,0.92233,0.6587
224.326,30.11532,-0.16229,0.91729,0.65867
224.826,30.15969,-0.16365,0.93374,0.65864
225.326,30.20406,-0.16365,0.92831,0.65861
225.826,30.2485,-0.1628,0.91727,0.65858
226.326,30.2931,-0.16248,0.91797,0.65855
226.826,30.3378,-0.16357,0.91996,0.65852
227.326,30.38246,-0.16497,0.91284,0.65848
227.826,30.4268,-0.16537,0.92334,0.65845
228.326,30.47144,-0.16629,0.91229,0.65841
228.826,30.5159,-0.16629,0.91532,0.65838
229.326,30.56033,-0.16629,0.9237,0.65834
229.826,30.60492,-0.16635,0.91687,0.65831
230.326,30.6497,-0.16761,0.92395,0.65827
230.826,30.6943,-0.16761,0.92168,0.65823
231.326,30.739,-0.16761,0.92141,0.65819
231.826,30.7839,-0.16761,0.92256,0.65815
232.326,30.82824,-0.16761,0.92748,0.65811
232.826,30.87286,-0.16763,0.92574,0.65807
233.326,30.91739,-0.16892,0.93117,0.65803
233.826,30.96172,-0.16892,0.93393,0.65798
234.326,31.00628,-0.16892,0.93496,0.65794
234.826,31.05097,-0.1689,0.93571,0.6579
235.326,31.0956,-0.17024,0.93343,0.65785
235.826,31.1401,-0.17024,0.93487,0.65781
236.326,31.18478,-0.16895,0.94381,0.65776
236.826,31.22927,-0.16953,0.94975,0.65771
237.326,31.27385,-0.17167,0.94858,0.65767
237.826,31.31842,-0.17298,0.9492,0.65762
238.326,31.36295,-0.17298,0.9571,0.65757
238.826,31.40757,-0.17298,0.96692,0.65752
239.326,31.4522,-0.17301,0.95485,0.65747
239.826,31.49683,-0.17397,0.9576,0.65742
240.326,31.5415,-0.17431,0.95979,0.65736
240.826,31.58607,-0.17429,0.95891,0.65731
241.326,31.63053,-0.17499,0.96803,0.65726
241.826,31.67493,-0.17561,0.96454,0.6572
242.326,31.71935,-0.17561,0.97184,0.65715
242.826,31.76385,-0.17561,0.96384,0.65709
243.326,31.80838,-0.17614,0.96641,0.65704
243.826,31.85298,-0.17693,0.96018,0.65698
244.326,31.89769,-0.17646,0.96858,0.65692
244.826,31.9424,-0.17561,0.96514,0.65686
245.326,31.98687,-0.17561,0.97139,0.6568
245.826,32.0315,-0.17607,0.98039,0.65674
246.326,32.07606,-0.17692,0.97086,0.65668
246.826,32.1207,-0.17692,0.97058,0.65662
247.326,32.1655,-0.17692,0.96615,0.65656
247.826,32.21017,-0.17692,0.97268,0.6565
248.326,32.25479,-0.17828,0.97171,0.65643
248.826,32.29934,-0.17956,0.97404,0.65637
249.326,32.34364,-0.17986,0.96881,0.6563
249.826,32.38812,-0.18099,0.9682,0.65624
250.326,32.4328,-0.18099,0.9693,0.65617
250.826,32.47744,-0.18099,0.97973,0.6561
251.326,32.5221,-0.18181,0.9773,0.65604
251.826,32.56695,-0.18099,0.96589,0.65597
252.326,32.6118,-0.18099,0.97945,0.6559
252.826,32.65635,-0.18099,0.96533,0.65583
253.326,32.701,-0.18102,0.97941,0.65576
253.826,32.74564,-0.18231,0.98176,0.65569
254.326,32.79016,-0.18362,0.96823,0.65562
254.826,32.83463,-0.18464,0.97835,0.65554
255.326,32.87925,-0.18493,0.97726,0.65547
255.826,32.92408,-0.18521,0.97629,0.6554
256.326,32.96867,-0.18503,0.97856,0.65532
256.826,33.01328,-0.18373,0.98394,0.65525
257.326,33.0578,-0.1849,0.96743,0.65517
257.826,33.10241,-0.18636,0.98572,0.65509
258.326,33.1471,-0.18636,0.97483,0.65502
258.826,33.19189,-0.18718,0.97817,0.65494
259.326,33.23673,-0.18884,0.98307,0.65486
259.826,33.28145,-0.18899,0.98672,0.65478
260.326,33.32622,-0.18761,0.98594,0.6547
260.826,33.37092,-0.18769,0.9895,0.65462
261.326,33.4155,-0.18637,0.99547,0.65454
261.826,33.45975,-0.18764,0.99321,0.65446
262.326,33.50405,-0.189,1.00757,0.65437
262.826,33.54862,-0.189,0.99553,0.65429
263.326,33.5934,-0.18992,1.00637,0.65421
263.826,33.63843,-0.19031,1.00881,0.65412
264.326,33.68381,-0.19052,1.00978,0.65403
264.826,33.72875,-0.1913,1.01984,0.65395
265.326,33.7736,-0.19258,1.01049,0.65386
265.826,33.81834,-0.19377,1.02723,0.65377
266.326,33.863,-0.19425,1.01684,0.65369
266.826,33.9075,-0.19425,1.02752,0.6536
267.326,33.95235,-0.19425,1.02274,0.65351
267.826,33.99708,-0.19425,1.02629,0.65342
268.326,34.0419,-0.19539,1.0279,0.65333
268.826,34.08688,-0.19674,1.01866,0.65324
269.326,34.1319,-0.197,1.02702,0.65314
269.826,34.17672,-0.197,1.0334,0.65305
270.326,34.2215,-0.197,1.04484,0.65296
270.826,34.26635,-0.197,1.04095,0.65286
271.326,34.31122,-0.19744,1.05063,0.65277
271.826,34.35613,-0.19831,1.04802,0.65267
272.326,34.40105,-0.19835,1.05713,0.65258
272.826,34.44587,-0.19963,1.06375,0.65248
273.326,34.49074,-0.19963,1.05953,0.65238
273.826,34.5355,-0.19963,1.04033,0.65229
274.326,34.58028,-0.19963,1.06348,0.65219
274.826,34.6249,-0.20029,1.05141,0.65209
275.326,34.66959,-0.20095,1.06356,0.65199
275.826,34.71451,-0.20121,1.057,0.65189
276.326,34.7594,-0.20193,1.06019,0.65179
276.826,34.8044,-0.20226,1.06252,0.65169
277.326,34.84941,-0.2032,1.05824,0.65158
277.826,34.89431,-0.20358,1.06383,0.65148
278.326,34.93919,-0.2049,1.06446,0.65138
278.826,34.98413,-0.20489,1.07775,0.65127
279.326,35.0289,-0.20486,1.08025,0.65117
279.826,35.07372,-0.20614,1.08104,0.65106
280.326,35.11873,-0.20876,1.08026,0.65096
280.826,35.16362,-0.20885,1.07496,0.65085
281.326,35.2086,-0.20942,1.08356,0.65074
281.826,35.2537,-0.20983,1.09604,0.65063
282.326,35.29873,-0.20981,1.08986,0.65053
282.826,35.34366,-0.21015,1.08962,0.65042
283.326,35.38854,-0.21147,1.08926,0.65031
283.826,35.4334,-0.21164,1.08948,0.6502
284.326,35.47841,-0.2128,1.08676,0.65008
284.826,35.52328,-0.21281,1.0968,0.64997
285.326,35.56838,-0.21413,1.09655,0.64986
285.826,35.61322,-0.21405,1.09406,0.64975
286.326,35.65817,-0.21412,1.10206,0.64963
286.826,35.70301,-0.21405,1.09187,0.64952
287.326,35.74811,-0.21507,1.09959,0.6494
287.826,35.79303,-0.21452,1.10269,0.64929
288.326,35.83818,-0.2141,1.1036,0.64917
288.826,35.88316,-0.21675,1.10406,0.64906
289.326,35.9283,-0.21674,1.10211,0.64894
289.826,35.9733,-0.21677,1.11031,0.64882
290.326,36.0184,-0.21807,1.10627,0.6487
290.826,36.0634,-0.21937,1.11241,0.64858
291.326,36.1085,-0.21938,1.11467,0.64846
291.826,36.15311,-0.22074,1.11226,0.64834
292.326,36.19831,-0.22152,1.11506,0.64822
292.826,36.24343,-0.22201,1.12029,0.6481
293.326,36.28866,-0.22347,1.10682,0.64798
293.826,36.33363,-0.22385,1.11494,0.64786
294.326,36.37914,-0.22619,1.12715,0.64773
294.826,36.42416,-0.22609,1.12131,0.64761
295.326,36.46924,-0.2272,1.12232,0.64748
295.826,36.51426,-0.22684,1.11811,0.64736
296.326,36.55953,-0.22713,1.13403,0.64723
296.826,36.60457,-0.22853,1.13159,0.64711
297.326,36.64956,-0.22913,1.13682,0.64698
297.826,36.69458,-0.23043,1.13712,0.64685
298.326,36.73964,-0.23146,1.14333,0.64672
298.826,36.7847,-0.22932,1.14139,0.6466
299.326,36.82985,-0.23,1.14006,0.64647
299.826,36.875,-0.23166,1.13443,0.64634
300.326,36.92023,-0.23166,1.14154,0.64621
300.826,36.9653,-0.23295,1.1367,0.64608
301.326,37.0105,-0.2343,1.13779,0.64594
301.826,37.05573,-0.23438,1.14015,0.64581
302.326,37.10112,-0.23637,1.1488,0.64568
302.826,37.14652,-0.23706,1.14824,0.64555
303.326,37.19184,-0.23784,1.14696,0.64541
303.826,37.23721,-0.2383,1.14765,0.64528
304.326,37.2826,-0.23769,1.14295,0.64514
304.826,37.32788,-0.23933,1.14232,0.64501
305.326,37.37295,-0.24033,1.14971,0.64487
305.826,37.4181,-0.2417,1.1413,0.64473
306.326,37.46332,-0.24311,1.14732,0.6446
306.826,37.50848,-0.24428,1.14028,0.64446
307.326,37.55393,-0.24429,1.1403,0.64432
307.826,37.59925,-0.24428,1.16528,0.64418
308.326,37.64463,-0.24552,1.1415,0.64404
308.826,37.6901,-0.24559,1.14933,0.6439
309.326,37.7352,-0.24554,1.15117,0.64376
309.826,37.78049,-0.24691,1.15603,0.64362
310.326,37.82585,-0.247,1.13627,0.64348
310.826,37.87113,-0.24997,1.13777,0.64334
311.326,37.91652,-0.25085,1.14499,0.64319
311.826,37.96199,-0.25215,1.13477,0.64305
312.326,38.00735,-0.25218,1.13191,0.64291
312.826,38.0526,-0.25347,1.13348,0.64276
313.326,38.098,-0.25479,1.13881,0.64262
313.826,38.1434,-0.2548,1.13664,0.64247
314.326,38.18853,-0.25491,1.1323,0.64232
314.826,38.23388,-0.25492,1.13726,0.64218
315.326,38.27922,-0.25552,1.11821,0.64203
315.826,38.32458,-0.25655,1.12716,0.64188
316.326,38.3699,-0.25788,1.12114,0.64174
316.826,38.41539,-0.25976,1.11302,0.64159
317.326,38.46076,-0.26017,1.11619,0.64144
317.826,38.50608,-0.26114,1.12121,0.64129
318.326,38.55153,-0.26099,1.11185,0.64114
318.826,38.5969,-0.26092,1.11122,0.64099
319.326,38.64245,-0.26239,1.10725,0.64083
319.826,38.68796,-0.26314,1.10996,0.64068
320.326,38.7335,-0.26311,1.11208,0.64053
320.826,38.7789,-0.26455,1.10458,0.64038
321.326,38.8245,-0.26712,1.1031,0.64022
321.826,38.86997,-0.26994,1.10734,0.64007
322.326,38.9155,-0.26993,1.10304,0.63991
322.826,38.961,-0.27091,1.10467,0.63976
323.326,39.0064,-0.27058,1.11338,0.6396
323.826,39.05174,-0.27126,1.09696,0.63945
324.326,39.09729,-0.27168,1.09262,0.63929
324.826,39.14288,-0.27299,1.10438,0.63913
325.326,39.18857,-0.27462,1.09187,0.63897
325.826,39.23428,-0.27545,1.09079,0.63882
326.326,39.28,-0.27685,1.09421,0.63866
326.826,39.32546,-0.27825,1.09073,0.6385
327.326,39.37108,-0.27948,1.07952,0.63834
327.826,39.41661,-0.28091,1.07745,0.63818
328.326,39.46223,-0.28221,1.07611,0.63802
328.826,39.50776,-0.28353,1.08687,0.63786
329.326,39.55336,-0.28354,1.07863,0.63769
329.826,39.59883,-0.28354,1.0766,0.63753
330.326,39.64447,-0.28549,1.0746,0.63737
330.826,39.69,-0.28573,1.074,0.63721
331.326,39.73561,-0.28671,1.07592,0.63704
331.826,39.7812,-0.28804,1.07769,0.63688
332.326,39.8268,-0.28807,1.0705,0.63671
332.826,39.87256,-0.28942,1.06319,0.63655
333.326,39.9182,-0.29019,1.06536,0.63638
333.826,39.964,-0.291,1.0556,0.63621
334.326,40.00979,-0.29197,1.05299,0.63605
334.826,40.05536,-0.29344,1.05579,0.63588
335.326,40.10096,-0.29517,1.05303,0.63571
335.826,40.14662,-0.2967,1.0586,0.63554
336.326,40.1925,-0.29801,1.04866,0.63538
336.826,40.2382,-0.29795,1.05188,0.63521
337.326,40.2841,-0.29933,1.05109,0.63504
337.826,40.32966,-0.30066,1.04567,0.63487
338.326,40.37551,-0.30195,1.03869,0.6347
338.826,40.4212,-0.30205,1.04172,0.63452
339.326,40.46712,-0.30328,1.03546,0.63435
339.826,40.51277,-0.30388,1.0385,0.63418
340.326,40.55865,-0.30483,1.04231,0.63401
340.826,40.6043,-0.30669,1.03545,0.63383
341.326,40.65012,-0.30723,1.03654,0.63366
341.826,40.6959,-0.30792,1.02818,0.63349
342.326,40.74192,-0.31116,1.03869,0.63331
342.826,40.7879,-0.31205,1.04008,0.63314
343.326,40.83378,-0.31229,1.0246,0.63296
343.826,40.87964,-0.31238,1.03458,0.63279
344.326,40.92542,-0.31411,1.03129,0.63261
344.826,40.9712,-0.31513,1.03494,0.63243
345.326,41.01699,-0.3165,1.02573,0.63226
345.826,41.06273,-0.31761,1.02856,0.63208
346.326,41.1085,-0.31777,1.02755,0.6319
346.826,41.15445,-0.31806,1.0273,0.63172
347.326,41.20028,-0.31953,1.03421,0.63154
347.826,41.24621,-0.32214,1.03664,0.63136
348.326,41.2922,-0.32345,1.03505,0.63118
348.826,41.33798,-0.32488,1.03118,0.631
349.326,41.38388,-0.32579,1.02133,0.63082
349.826,41.42971,-0.32893,1.02732,0.63064
350.326,41.47575,-0.33028,1.02895,0.63046
350.826,41.52174,-0.33139,1.02865,0.63027
351.326,41.56758,-0.33288,1.02645,0.63009
351.826,41.6136,-0.33445,1.03775,0.62991
352.326,41.65952,-0.33582,1.04054,0.62972
352.826,41.70537,-0.33601,1.03836,0.62954
353.326,41.75131,-0.33827,1.03355,0.62936
353.826,41.79723,-0.33884,1.03554,0.62917
354.326,41.84316,-0.34008,1.03234,0.62899
354.826,41.88927,-0.34183,1.03213,0.6288
355.326,41.93533,-0.34519,1.03536,0.62861
355.826,41.98145,-0.3456,1.02789,0.62843
356.326,42.02742,-0.34694,1.02182,0.62824
356.826,42.07322,-0.3484,1.02338,0.62805
357.326,42.11909,-0.34985,1.02608,0.62786
357.826,42.16505,-0.3497,1.01248,0.62768
358.326,42.21115,-0.35141,1.01854,0.62749
358.826,42.2575,-0.35411,1.01308,0.6273
359.326,42.30358,-0.35567,1.01008,0.62711
359.826,42.34982,-0.35703,1.0112,0.62692
360.326,42.39593,-0.35871,1.01366,0.62673
360.826,42.4421,-0.35727,1.01229,0.62654
361.326,42.4882,-0.36001,1.0016,0.62634
361.826,42.53457,-0.36271,1.01342,0.62615
362.326,42.5807,-0.36393,1.01069,0.62596
362.826,42.62652,-0.3653,1.00113,0.62577
363.326,42.67269,-0.36597,1.00582,0.62557
363.826,42.7188,-0.36646,1.01371,0.62538
364.326,42.76501,-0.36672,1.0059,0.62519
364.826,42.81116,-0.36814,1.00371,0.62499
365.326,42.8576,-0.36802,1.00278,0.6248
365.826,42.90381,-0.36969,0.9945,0.6246
366.326,42.94995,-0.37097,0.98849,0.62441
366.826,42.99623,-0.37371,0.98058,0.62421
367.326,43.0426,-0.37522,0.97534,0.62402
367.826,43.08885,-0.37767,0.97673,0.62382
368.326,43.13515,-0.37931,0.97407,0.62362
368.826,43.1815,-0.38071,0.97016,0.62342
369.326,43.2277,-0.38219,0.95789,0.62323
369.826,43.27414,-0.38215,0.96135,0.62303
370.326,43.32049,-0.38345,0.95791,0.62283
370.826,43.36672,-0.3861,0.95828,0.62263
371.326,43.41321,-0.38741,0.94577,0.62243
371.826,43.45945,-0.38746,0.94177,0.62223
372.326,43.50577,-0.38731,0.931,0.62203
372.826,43.55212,-0.38937,0.92455,0.62183
373.326,43.59839,-0.39015,0.92335,0.62163
373.826,43.64467,-0.39471,0.93331,0.62143
374.326,43.6911,-0.39497,0.92205,0.62123
374.826,43.73746,-0.38318,0.91268,0.62102
375.326,43.78395,-0.39117,0.91081,0.62082
375.826,43.83037,-0.40576,0.90247,0.62062
376.326,43.87689,-0.39612,0.89349,0.62041
376.826,43.92324,-0.39069,0.88595,0.62021
377.326,43.9696,-0.39682,0.87741,0.62001
377.826,44.01589,-0.39913,0.87697,0.6198
378.326,44.06242,-0.4006,0.87001,0.6196
378.826,44.10886,-0.4008,0.87278,0.61939
379.326,44.15547,-0.40088,0.85496,0.61919
379.826,44.20208,-0.40212,0.86378,0.61898
380.326,44.24863,-0.40212,0.85063,0.61878
380.826,44.29514,-0.40337,0.85068,0.61857
381.326,44.34173,-0.40343,0.84199,0.61836
381.826,44.38819,-0.40545,0.82892,0.61815
382.326,44.4347,-0.40604,0.83074,0.61795
382.826,44.4812,-0.40476,0.82912,0.61774
383.326,44.52775,-0.40605,0.82883,0.61753
383.826,44.57452,-0.40729,0.8226,0.61732
384.326,44.6212,-0.40871,0.83351,0.61711
384.826,44.66795,-0.4077,0.82705,0.6169
385.326,44.71467,-0.40771,0.83292,0.61669
385.826,44.7614,-0.40868,0.82818,0.61648
386.326,44.80805,-0.40902,0.82859,0.61627
386.826,44.8547,-0.41035,0.82676,0.61606
387.326,44.9013,-0.41034,0.80877,0.61585
387.826,44.94801,-0.41107,0.80398,0.61564
388.326,44.99476,-0.41231,0.81333,0.61543
388.826,45.04153,-0.41231,0.81226,0.61521
389.326,45.08824,-0.41362,0.8058,0.615
389.826,45.13492,-0.41363,0.81089,0.61479
390.326,45.18157,-0.41234,0.80327,0.61458
390.826,45.22828,-0.41231,0.79985,0.61436
391.326,45.27507,-0.41364,0.80254,0.61415
391.826,45.32192,-0.41378,0.79394,0.61393
392.326,45.36871,-0.41513,0.79427,0.61372
392.826,45.41554,-0.41648,0.79913,0.6135
393.326,45.46223,-0.41648,0.79306,0.61329
393.826,45.50906,-0.41648,0.80006,0.61307
394.326,45.55587,-0.41648,0.79453,0.61286
394.826,45.60279,-0.41778,0.79875,0.61264
395.326,45.64962,-0.41812,0.78613,0.61242
395.826,45.69647,-0.4181,0.79401,0.61221
396.326,45.74321,-0.4162,0.78418,0.61199
396.826,45.78998,-0.41626,0.78193,0.61177
397.326,45.83681,-0.41626,0.78373,0.61155
397.826,45.88366,-0.41621,0.78467,0.61134
398.326,45.9306,-0.41695,0.78424,0.61112
398.826,45.97766,-0.41935,0.78611,0.6109
399.326,46.02456,-0.42154,0.78693,0.61068
399.826,46.07144,-0.42188,0.7884,0.61046
400.326,46.1184,-0.42186,0.77957,0.61024
400.826,46.16531,-0.42187,0.7834,0.61002
401.326,46.21219,-0.42317,0.77596,0.6098
401.826,46.25918,-0.42315,0.77357,0.60958
402.326,46.30636,-0.42317,0.77221,0.60936
402.826,46.35335,-0.42233,0.7789,0.60914
403.326,46.40034,-0.41843,0.76316,0.60892
403.826,46.44716,-0.41768,0.76543,0.60869
404.326,46.49411,-0.41771,0.77034,0.60847
404.826,46.54108,-0.41955,0.77539,0.60825
405.326,46.588,-0.42182,0.76716,0.60803
405.826,46.63511,-0.4232,0.77287,0.6078
406.326,46.6822,-0.42117,0.76096,0.60758
406.826,46.72899,-0.42153,0.76253,0.60736
407.326,46.7759,-0.42445,0.76883,0.60713
407.826,46.82304,-0.42451,0.76606,0.60691
408.326,46.87012,-0.42615,0.76336,0.60668
408.826,46.91715,-0.42734,0.75875,0.60646
409.326,46.9642,-0.42878,0.75901,0.60623
409.826,47.0113,-0.42735,0.76928,0.60601
410.326,47.0582,-0.42599,0.75542,0.60578
410.826,47.1053,-0.4246,0.75538,0.60556
411.326,47.1524,-0.42596,0.75634,0.60533
411.826,47.19947,-0.42591,0.7548,0.6051
412.326,47.24664,-0.42835,0.76333,0.60488
412.826,47.29367,-0.42986,0.75882,0.60465
413.326,47.34069,-0.42986,0.76758,0.60442
413.826,47.3879,-0.43008,0.76214,0.6042
414.326,47.43503,-0.42986,0.76202,0.60397
414.826,47.48222,-0.42987,0.76355,0.60374
415.326,47.5295,-0.42987,0.75721,0.60351
415.826,47.57687,-0.43123,0.76876,0.60328
416.326,47.62423,-0.42986,0.77558,0.60305
416.826,47.6715,-0.42986,0.7619,0.60282
417.326,47.71886,-0.43042,0.76844,0.6026
417.826,47.76616,-0.43115,0.75886,0.60237
418.326,47.8133,-0.43079,0.77672,0.60214
418.826,47.8606,-0.43117,0.7709,0.60191
419.326,47.90785,-0.43249,0.77072,0.60168
419.826,47.95513,-0.43408,0.76958,0.60144
420.326,48.0024,-0.43511,0.76828,0.60121
420.826,48.04959,-0.43513,0.78319,0.60098
421.326,48.0969,-0.43472,0.77539,0.60075
421.826,48.1441,-0.43383,0.78249,0.60052
422.326,48.19144,-0.4351,0.77429,0.60029
422.826,48.2389,-0.43645,0.77925,0.60005
423.326,48.28634,-0.43646,0.77077,0.59982
423.826,48.33381,-0.43512,0.76981,0.59959
424.326,48.38132,-0.43411,0.77969,0.59936
424.826,48.42864,-0.43545,0.77038,0.59912
425.326,48.47603,-0.43658,0.77981,0.59889
425.826,48.52343,-0.43677,0.77268,0.59866
426.326,48.57082,-0.43677,0.77522,0.59842
426.826,48.6182,-0.43679,0.77086,0.59819
427.326,48.66563,-0.43799,0.78112,0.59795
427.826,48.71312,-0.43941,0.79179,0.59772
428.326,48.76052,-0.43941,0.78648,0.59748
428.826,48.808,-0.43941,0.78734,0.59725
429.326,48.85515,-0.43932,0.77489,0.59701
429.826,48.90252,-0.44072,0.78853,0.59678
430.326,48.9499,-0.44072,0.7776,0.59654
430.826,48.9974,-0.44205,0.77964,0.59631
431.326,49.045,-0.44067,0.7702,0.59607
431.826,49.09247,-0.44091,0.79175,0.59583
432.326,49.13998,-0.44203,0.77882,0.5956
432.826,49.18738,-0.44279,0.77531,0.59536
433.326,49.235,-0.44302,0.76448,0.59512
433.826,49.28269,-0.44302,0.77308,0.59489
434.326,49.33023,-0.44402,0.78008,0.59465
434.826,49.37788,-0.44271,0.78285,0.59441
435.326,49.4255,-0.44302,0.77698,0.59417
435.826,49.47303,-0.44303,0.76798,0.59393
436.326,49.5206,-0.44304,0.78244,0.5937
436.826,49.56832,-0.44369,0.77787,0.59346
437.326,49.61598,-0.44272,0.77041,0.59322
437.826,49.66365,-0.44237,0.77876,0.59298
438.326,49.7114,-0.44308,0.76791,0.59274
438.826,49.75911,-0.44303,0.77302,0.5925
439.326,49.8067,-0.44431,0.78125,0.59226
439.826,49.85437,-0.44567,0.77679,0.59202
440.326,49.90185,-0.44698,0.76999,0.59178
440.826,49.94947,-0.4483,0.77261,0.59154
441.326,49.99709,-0.4483,0.77425,0.5913
441.826,50.04468,-0.44932,0.77359,0.59106
442.326,50.0924,-0.44963,0.78135,0.59082
442.826,50.14009,-0.45092,0.7881,0.59058
443.326,50.18783,-0.44951,0.7905,0.59034
443.826,50.23551,-0.44944,0.78529,0.5901
444.326,50.2833,-0.44952,0.77807,0.58985
444.826,50.33112,-0.44948,0.77286,0.58961
445.326,50.3788,-0.45081,0.76963,0.58937
445.826,50.42664,-0.45081,0.77544,0.58913
446.326,50.4743,-0.45081,0.77951,0.58889
446.826,50.52203,-0.45089,0.77502,0.58864
447.326,50.56969,-0.45213,0.77714,0.5884
447.826,50.61756,-0.4535,0.78624,0.58816
448.326,50.6654,-0.45345,0.77942,0.58791
448.826,50.71322,-0.45216,0.79237,0.58767
449.326,50.76096,-0.45213,0.78588,0.58743
449.826,50.80875,-0.45347,0.77171,0.58718
450.326,50.8566,-0.45474,0.78287,0.58694
450.826,50.90437,-0.45393,0.78327,0.5867
451.326,50.95223,-0.45293,0.77884,0.58645
451.826,51.00005,-0.45191,0.77697,0.58621
452.326,51.04785,-0.45191,0.7711,0.58596
452.826,51.0957,-0.45318,0.77362,0.58572
453.326,51.14358,-0.45418,0.78644,0.58547
453.826,51.1915,-0.45454,0.78466,0.58523
454.326,51.23964,-0.45587,0.77455,0.58498
454.826,51.28756,-0.45841,0.7848,0.58474
455.326,51.33529,-0.4586,0.77351,0.58449
455.826,51.38315,-0.45742,0.77982,0.58425
456.326,51.43101,-0.45726,0.76962,0.584
456.826,51.47886,-0.45728,0.77216,0.58376
457.326,51.52693,-0.45737,0.77272,0.58351
457.826,51.57505,-0.45597,0.76444,0.58326
458.326,51.6231,-0.45606,0.76507,0.58302
458.826,51.671,-0.4574,0.75892,0.58277
459.326,51.71895,-0.4593,0.75163,0.58252
459.826,51.76686,-0.45992,0.75914,0.58228
460.326,51.81475,-0.46134,0.75059,0.58203
460.826,51.8628,-0.46135,0.75582,0.58178
461.326,51.91085,-0.45969,0.74948,0.58154
461.826,51.95864,-0.45969,0.75108,0.58129
462.326,52.00654,-0.45959,0.74865,0.58104
462.826,52.0544,-0.46106,0.73913,0.58079
463.326,52.1023,-0.46241,0.75572,0.58055
463.826,52.15048,-0.46233,0.75476,0.5803
464.326,52.19865,-0.46227,0.75682,0.58005
464.826,52.24668,-0.46353,0.76643,0.5798
465.326,52.2945,-0.46235,0.76003,0.57955
465.826,52.34243,-0.46364,0.75023,0.57931
466.326,52.3904,-0.46364,0.75375,0.57906
466.826,52.4387,-0.46364,0.7526,0.57881
467.326,52.4869,-0.46499,0.75393,0.57856
467.826,52.53484,-0.4658,0.74853,0.57831
468.326,52.583,-0.4666,0.74337,0.57806
468.826,52.631,-0.46763,0.74345,0.57781
469.326,52.6791,-0.46734,0.75048,0.57756
469.826,52.72726,-0.46759,0.75374,0.57731
470.326,52.77568,-0.46759,0.75732,0.57706
470.826,52.8238,-0.46759,0.76842,0.57681
471.326,52.8719,-0.46759,0.7501,0.57656
471.826,52.92009,-0.46573,0.76783,0.57631
472.326,52.96838,-0.46395,0.75755,0.57606
472.826,53.0166,-0.46344,0.76906,0.57581
473.326,53.0649,-0.46464,0.76384,0.57556
473.826,53.11316,-0.46605,0.76423,0.57531
474.326,53.1614,-0.46737,0.75485,0.57506
474.826,53.2097,-0.46881,0.76184,0.57481
475.326,53.25785,-0.47142,0.76204,0.57456
475.826,53.306,-0.47143,0.76013,0.57431
476.326,53.35419,-0.4722,0.75574,0.57406
476.826,53.4025,-0.47274,0.75281,0.57381
477.326,53.45078,-0.47144,0.75711,0.57356
477.826,53.4991,-0.47012,0.76268,0.5733
478.326,53.5474,-0.47057,0.77744,0.57305
478.826,53.59567,-0.47144,0.78899,0.5728
479.326,53.64402,-0.47182,0.78727,0.57255
479.826,53.69235,-0.47242,0.79642,0.5723
480.326,53.7409,-0.47144,0.80528,0.57205
480.826,53.78917,-0.47201,0.79807,0.57179
481.326,53.8375,-0.47298,0.81106,0.57154
481.826,53.8857,-0.47397,0.81949,0.57129
482.326,53.93395,-0.47288,0.82207,0.57104
482.826,53.9822,-0.47548,0.82622,0.57079
483.326,54.0307,-0.4755,0.83387,0.57053
483.826,54.07895,-0.47551,0.81256,0.57028
484.326,54.1274,-0.4768,0.81856,0.57003
484.826,54.1759,-0.47557,0.84047,0.56978
485.326,54.2243,-0.47541,0.83396,0.56952
485.826,54.2728,-0.47692,0.84602,0.56927
486.326,54.3215,-0.47824,0.84194,0.56902
486.826,54.36996,-0.47824,0.8491,0.56877
487.326,54.41839,-0.47703,0.83145,0.56851
487.826,54.46702,-0.47692,0.8518,0.56826
488.326,54.5155,-0.47601,0.85211,0.56801
488.826,54.564,-0.4756,0.85171,0.56775
489.326,54.61257,-0.47559,0.84985,0.5675
489.826,54.66106,-0.47657,0.86116,0.56725
490.326,54.70944,-0.48448,0.85835,0.56699
490.826,54.7578,-0.47553,0.86283,0.56674
491.326,54.80625,-0.4761,0.87094,0.56649
491.826,54.8545,-0.47943,0.86926,0.56623
492.326,54.903,-0.47912,0.87915,0.56598
492.826,54.95145,-0.47799,0.87066,0.56572
493.326,55,-0.48065,0.85405,0.56547
493.826,55.04863,-0.48195,0.86483,0.56522
494.326,55.0973,-0.48196,0.85003,0.56496
494.826,55.1458,-0.48345,0.84761,0.56471
495.326,55.1943,-0.4846,0.84862,0.56445
495.826,55.24267,-0.48459,0.84902,0.5642
496.326,55.29105,-0.48328,0.8535,0.56395
496.826,55.33955,-0.48198,0.85139,0.56369
497.326,55.388,-0.48066,0.84276,0.56344
497.826,55.4364,-0.48203,0.84817,0.56318
498.326,55.485,-0.48288,0.84947,0.56293
498.826,55.5336,-0.4846,0.84165,0.56267
499.326,55.58211,-0.4846,0.83122,0.56242
499.826,55.6307,-0.4846,0.8413,0.56216
500.326,55.67935,-0.4882,0.82411,0.56191
500.826,55.7279,-0.48704,0.83846,0.56166
501.326,55.7765,-0.48172,0.83655,0.5614
501.826,55.8253,-0.48524,0.84288,0.56115
502.326,55.87409,-0.48674,0.84244,0.56089
502.826,55.92269,-0.48668,0.84382,0.56064
503.326,55.97158,-0.48589,0.84862,0.56038
503.826,56.0204,-0.48536,0.85115,0.56013
504.326,56.0693,-0.4868,0.84441,0.55987
504.826,56.11815,-0.48811,0.84238,0.55962
505.326,56.167,-0.48708,0.8368,0.55936
505.826,56.2157,-0.48824,0.83979,0.55911
506.326,56.2646,-0.48836,0.84114,0.55885
506.826,56.3136,-0.48831,0.84335,0.5586
507.326,56.36245,-0.4889,0.84234,0.55834
507.826,56.4113,-0.48965,0.84404,0.55809
508.326,56.46021,-0.49064,0.83991,0.55783
508.826,56.5091,-0.49198,0.84172,0.55757
509.326,56.5579,-0.49063,0.82452,0.55732
509.826,56.6066,-0.48934,0.8328,0.55706
510.326,56.6553,-0.48988,0.834,0.55681
510.826,56.7042,-0.48964,0.829,0.55655
511.326,56.75285,-0.49236,0.83558,0.5563
511.826,56.8018,-0.49107,0.83693,0.55604
512.326,56.85066,-0.49322,0.84259,0.55579
512.826,56.89929,-0.49533,0.84144,0.55553
513.326,56.9478,-0.4939,0.83889,0.55528
513.826,56.99641,-0.49243,0.847,0.55502
514.326,57.0452,-0.49258,0.84643,0.55476
514.826,57.0939,-0.49378,0.85409,0.55451
515.326,57.14323,-0.49122,0.84552,0.55425
515.826,57.19234,-0.4912,0.84837,0.554
516.326,57.24126,-0.4925,0.84969,0.55374
516.826,57.2902,-0.49392,0.85465,0.55349
517.326,57.33886,-0.49592,0.85421,0.55323
517.826,57.38759,-0.49589,0.85003,0.55298
518.326,57.4363,-0.49489,0.85855,0.55272
518.826,57.4853,-0.49458,0.86854,0.55246
519.326,57.53415,-0.49495,0.86433,0.55221
519.826,57.58305,-0.49685,0.8722,0.55195
520.326,57.63191,-0.49805,0.86752,0.5517
520.826,57.68081,-0.49886,0.88365,0.55144
521.326,57.72984,-0.49754,0.85818,0.55119
521.826,57.7791,-0.49722,0.87106,0.55093
522.326,57.8282,-0.49621,0.87286,0.55067
522.826,57.8773,-0.49493,0.85765,0.55042
523.326,57.9261,-0.49761,0.876,0.55016
523.826,57.97501,-0.49879,0.86721,0.54991
524.326,58.02391,-0.49885,0.87414,0.54965
524.826,58.07294,-0.49856,0.87264,0.5494
525.326,58.12211,-0.49732,0.87589,0.54914
525.826,58.17108,-0.49732,0.85964,0.54889
526.326,58.21976,-0.49732,0.86499,0.54863
526.826,58.2687,-0.50028,0.86385,0.54837
527.326,58.3177,-0.50294,0.84786,0.54812
527.826,58.3666,-0.50291,0.85079,0.54786
528.326,58.416,-0.50291,0.86541,0.54761
528.826,58.4654,-0.50292,0.85403,0.54735
529.326,58.51461,-0.51027,0.85784,0.5471
529.826,58.5639,-0.49809,0.85981,0.54684
530.326,58.61326,-0.49905,0.87148,0.54659
530.826,58.6624,-0.50241,0.87668,0.54633
531.326,58.71154,-0.50338,0.88059,0.54607
531.826,58.7606,-0.50203,0.86214,0.54582
532.326,58.80955,-0.50199,0.86419,0.54556
532.826,58.85856,-0.50236,0.8593,0.54531
533.326,58.9076,-0.50482,0.85199,0.54505
533.826,58.95691,-0.505,0.85204,0.5448
534.326,59.0062,-0.5037,0.85858,0.54454
534.826,59.05551,-0.50368,0.87555,0.54429
535.326,59.10487,-0.50368,0.87689,0.54403
535.826,59.15416,-0.50389,0.88594,0.54378
536.326,59.20335,-0.50499,0.87827,0.54352
536.826,59.2526,-0.505,0.88689,0.54327
537.326,59.3017,-0.5063,0.88281,0.54301
537.826,59.35097,-0.50631,0.88667,0.54276
538.326,59.4003,-0.50629,0.88609,0.5425
538.826,59.44964,-0.505,0.88915,0.54225
539.326,59.49896,-0.50495,0.88115,0.54199
539.826,59.54825,-0.50632,0.89629,0.54174
540.326,59.5974,-0.50768,0.88688,0.54148
540.826,59.64659,-0.50763,0.89534,0.54123
541.326,59.69594,-0.50758,0.88252,0.54097
541.826,59.7451,-0.50895,0.87606,0.54072
542.326,59.79446,-0.50896,0.88813,0.54046
542.826,59.84369,-0.50762,0.88827,0.54021
543.326,59.8931,-0.50904,0.89062,0.53995
543.826,59.94237,-0.5078,0.8968,0.5397
544.326,59.99176,-0.50612,0.90573,0.53944
544.826,60.0412,-0.50788,0.89929,0.53919
545.326,60.09049,-0.51201,0.89311,0.53893
545.826,60.13986,-0.51201,0.88802,0.53868
546.326,60.18929,-0.51411,0.89404,0.53843
546.826,60.2387,-0.51404,0.90742,0.53817
547.326,60.28824,-0.51542,0.89645,0.53792
547.826,60.33772,-0.51542,0.90924,0.53766
548.326,60.3873,-0.51542,0.89192,0.53741
548.826,60.43675,-0.51503,0.90848,0.53716
549.326,60.4862,-0.51369,0.90855,0.5369
549.826,60.53507,-0.51175,0.93003,0.53665
550.326,60.58446,-0.51091,0.9206,0.53639
550.826,60.63391,-0.51451,0.91443,0.53614
551.326,60.6834,-0.51434,0.91672,0.53589
551.826,60.73333,-0.51169,0.9408,0.53563
552.326,60.783,-0.51303,0.94276,0.53538
552.826,60.8326,-0.51432,0.94742,0.53512
553.326,60.8821,-0.51581,0.93827,0.53487
553.826,60.93167,-0.51718,0.93371,0.53462
554.326,60.9813,-0.51719,0.93641,0.53436
554.826,61.0309,-0.51591,0.93031,0.53411
555.326,61.08044,-0.51717,0.92352,0.53386
555.826,61.1299,-0.51717,0.9365,0.5336
556.326,61.17951,-0.51911,0.93519,0.53335
556.826,61.22908,-0.51983,0.93767,0.5331
557.326,61.27871,-0.5185,0.94746,0.53285
557.826,61.3283,-0.51981,0.94787,0.53259
558.326,61.37772,-0.51981,0.93917,0.53234
558.826,61.42726,-0.51995,0.94256,0.53209
559.326,61.4767,-0.52181,0.94148,0.53183
559.826,61.5262,-0.52151,0.93813,0.53158
560.326,61.57581,-0.5208,0.95405,0.53133
560.826,61.6254,-0.5221,0.96058,0.53108
561.326,61.67521,-0.52183,0.95772,0.53082
561.826,61.72484,-0.5208,0.95057,0.53057
562.326,61.77451,-0.52112,0.9555,0.53032
562.826,61.82402,-0.52112,0.94463,0.53007
563.326,61.8735,-0.52112,0.94325,0.52982
563.826,61.92331,-0.52256,0.95061,0.52956
564.326,61.973,-0.52191,0.95743,0.52931
564.826,62.02284,-0.52196,0.94874,0.52906
565.326,62.0727,-0.52262,0.95047,0.52881
565.826,62.1223,-0.52255,0.95309,0.52856
566.326,62.17213,-0.52234,0.95405,0.5283
566.826,62.2217,-0.52184,0.94875,0.52805
567.326,62.2713,-0.52266,0.96134,0.5278
567.826,62.3209,-0.52482,0.95318,0.52755
568.326,62.3707,-0.52562,0.9452,0.5273
568.826,62.4205,-0.52551,0.94813,0.52705
569.326,62.47009,-0.52551,0.95872,0.5268
569.826,62.5198,-0.52551,0.97509,0.52655
570.326,62.56946,-0.52551,0.97802,0.5263
570.826,62.6193,-0.52551,0.9875,0.52605
571.326,62.66916,-0.52553,0.99521,0.52579
571.826,62.71906,-0.52551,0.99103,0.52554
572.326,62.7689,-0.52551,1.0478,0.52529
572.826,62.81865,-0.52551,1.09666,0.52504
573.326,62.8684,-0.52674,1.13686,0.52479
573.826,62.9181,-0.53049,1.14946,0.52454
574.326,62.968,-0.53583,1.1476,0.52429
574.826,63.0177,-0.52437,1.15298,0.52404
575.326,63.06751,-0.53197,1.1166,0.52379
575.826,63.1172,-0.53373,1.09971,0.52354
576.326,63.1669,-0.53074,1.07123,0.52329
576.826,63.21689,-0.52486,1.04961,0.52304
577.326,63.2668,-0.52398,1.04206,0.5228
577.826,63.31683,-0.52274,1.03473,0.52255
578.326,63.36681,-0.52746,1.01656,0.5223
578.826,63.41666,-0.52897,1.00174,0.52205
579.326,63.46655,-0.53029,0.98336,0.5218
579.826,63.51627,-0.53289,0.9789,0.52155
580.326,63.5658,-0.53422,0.9596,0.5213
580.826,63.61554,-0.53076,0.9741,0.52105
581.326,63.66529,-0.52962,0.95759,0.5208
581.826,63.71525,-0.53246,0.96319,0.52056
582.326,63.7652,-0.53374,0.94839,0.52031
582.826,63.81471,-0.53374,0.94085,0.52006
583.326,63.8646,-0.53308,0.9553,0.51981
583.826,63.91432,-0.53391,0.95419,0.51956
584.326,63.964,-0.53231,0.96357,0.51932
584.826,64.01391,-0.53234,0.95557,0.51907
585.326,64.06387,-0.53502,0.9643,0.51882
585.826,64.11346,-0.53505,0.95189,0.51857
586.326,64.16328,-0.53502,0.97654,0.51833
586.826,64.2132,-0.535,0.97741,0.51808
587.326,64.26307,-0.53441,0.96601,0.51783
587.826,64.31306,-0.53379,0.96629,0.51758
588.326,64.36295,-0.53241,0.96641,0.51734
588.826,64.41272,-0.53301,0.97019,0.51709
589.326,64.46254,-0.53373,0.95857,0.51684
589.826,64.5124,-0.53503,0.96912,0.5166
590.326,64.56237,-0.53591,0.97289,0.51635
590.826,64.61229,-0.53583,0.97277,0.51611
591.326,64.6623,-0.53572,0.96956,0.51586
591.826,64.7123,-0.53782,0.98559,0.51561
592.326,64.76228,-0.53922,0.96846,0.51537
592.826,64.8124,-0.53919,0.9597,0.51512
593.326,64.86235,-0.54222,0.94378,0.51488
593.826,64.9124,-0.54504,0.93346,0.51463
594.326,64.96248,-0.5515,0.93953,0.51439
594.826,65.01265,-0.52741,0.95931,0.51414
595.326,65.06283,-0.53212,0.96866,0.5139
595.826,65.11299,-0.53601,0.96133,0.51365
596.326,65.16317,-0.5353,0.96193,0.51341
596.826,65.2133,-0.53721,0.95861,0.51316
597.326,65.26349,-0.53864,0.93612,0.51292
597.826,65.31379,-0.53866,0.93586,0.51267
598.326,65.36392,-0.53989,0.93616,0.51243
598.826,65.41396,-0.53995,0.9503,0.51218
599.326,65.46404,-0.54131,0.92872,0.51194
599.826,65.51417,-0.54131,0.91728,0.5117
600.326,65.56434,-0.54131,0.91637,0.51145
600.826,65.61454,-0.54237,0.90132,0.51121
601.326,65.66463,-0.54273,0.91175,0.51097
601.826,65.71459,-0.54372,0.93195,0.51072
602.326,65.76468,-0.5392,0.94231,0.51048
602.826,65.81469,-0.54075,0.9123,0.51024
603.326,65.86488,-0.54438,0.90621,0.50999
603.826,65.91502,-0.54672,0.90929,0.50975
604.326,65.96519,-0.54679,0.90144,0.50951
604.826,66.01528,-0.54632,0.89828,0.50927
605.326,66.06544,-0.54679,0.89257,0.50903
605.826,66.11551,-0.54544,0.90278,0.50878
606.326,66.1657,-0.54538,0.90274,0.50854
606.826,66.21588,-0.54646,0.90407,0.5083
607.326,66.2663,-0.54646,0.90133,0.50806
607.826,66.3168,-0.54496,0.88867,0.50782
608.326,66.36704,-0.54167,0.90625,0.50758
608.826,66.41747,-0.54163,0.90798,0.50733
609.326,66.46776,-0.54402,0.88836,0.50709
609.826,66.518,-0.54498,0.89729,0.50685
610.326,66.56827,-0.54503,0.91259,0.50661
610.826,66.6186,-0.54501,0.89486,0.50637
611.326,66.66887,-0.54767,0.87839,0.50613
611.826,66.71928,-0.54545,0.8911,0.50589
612.326,66.7697,-0.54503,0.87668,0.50565
612.826,66.82002,-0.54503,0.87251,0.50541
613.326,66.87034,-0.54503,0.8638,0.50517
613.826,66.92066,-0.54504,0.88285,0.50493
614.326,66.97091,-0.54404,0.85993,0.50469
614.826,67.02127,-0.54402,0.88751,0.50445
615.326,67.07181,-0.54504,0.87904,0.50422
615.826,67.12229,-0.54668,0.8625,0.50398
616.326,67.17277,-0.5493,0.8531,0.50374
616.826,67.22322,-0.54927,0.84569,0.5035
617.326,67.27364,-0.55036,0.84696,0.50326
617.826,67.32386,-0.5478,0.86567,0.50302
618.326,67.3743,-0.5442,0.85639,0.50278
618.826,67.42471,-0.54558,0.82765,0.50255
619.326,67.47507,-0.54657,0.82525,0.50231
619.826,67.52553,-0.54657,0.81526,0.50207
620.326,67.57585,-0.54557,0.82218,0.50183
620.826,67.6262,-0.54548,0.82339,0.5016
621.326,67.67652,-0.54655,0.82498,0.50136
621.826,67.727,-0.54611,0.80857,0.50112
622.326,67.77717,-0.54824,0.80407,0.50089
622.826,67.82749,-0.54821,0.83077,0.50065
623.326,67.8779,-0.54819,0.81236,0.50041
623.826,67.92833,-0.5481,0.80956,0.50018
624.326,67.97907,-0.54823,0.79514,0.49994
624.826,68.0296,-0.55027,0.79413,0.49971
625.326,68.0802,-0.55095,0.78364,0.49947
625.826,68.1305,-0.55227,0.78076,0.49923
626.326,68.18094,-0.55096,0.77274,0.499
626.826,68.23135,-0.54997,0.78133,0.49876
627.326,68.28192,-0.55011,0.77881,0.49853
627.826,68.33241,-0.55243,0.78108,0.49829
628.326,68.38303,-0.55256,0.79263,0.49806
628.826,68.43359,-0.55228,0.78622,0.49783
629.326,68.48394,-0.5536,0.79574,0.49759
629.826,68.53449,-0.55351,0.77389,0.49736
630.326,68.58497,-0.5526,0.79443,0.49712
630.826,68.63545,-0.5526,0.80867,0.49689
631.326,68.68605,-0.5526,0.81555,0.49666
631.826,68.73666,-0.55363,0.81331,0.49642
632.326,68.78719,-0.55391,0.82361,0.49619
632.826,68.8378,-0.5526,0.81948,0.49596
633.326,68.8883,-0.55117,0.82501,0.49572
633.826,68.9388,-0.54985,0.81687,0.49549
634.326,68.9893,-0.55117,0.80945,0.49526
634.826,69.03981,-0.55117,0.80616,0.49503
635.326,69.09036,-0.55117,0.79387,0.49479
635.826,69.14098,-0.55117,0.80233,0.49456
636.326,69.19162,-0.55117,0.79581,0.49433
636.826,69.24214,-0.54629,0.80549,0.4941
637.326,69.29265,-0.55176,0.78934,0.49387
637.826,69.34308,-0.55824,0.76349,0.49364
638.326,69.39367,-0.55349,0.76196,0.49341
638.826,69.44426,-0.55281,0.76169,0.49318
639.326,69.49494,-0.55283,0.7531,0.49295
639.826,69.54567,-0.55506,0.73689,0.49272
640.326,69.59614,-0.55479,0.76514,0.49248
640.826,69.64661,-0.54963,0.74921,0.49225
641.326,69.69709,-0.56553,0.73963,0.49203
641.826,69.7475,-0.55973,0.75502,0.4918
642.326,69.79808,-0.55747,0.73595,0.49157
642.826,69.84845,-0.55745,0.6705,0.49134
643.326,69.899,-0.55609,0.68951,0.49111
643.826,69.94936,-0.55468,0.74116,0.49088
644.226,69.99051,-0.55337,0.73397,0.4907