File: 01_Data/Fiber_Cement_Board/STA/N2/10K_min/Fiber_Cement_Board_STA_N2_10KData_210622_R2.csv
##Temp./Â°C,Time/min,Mass loss(subtr.2)/mg,DSC(subtr.2)/mW,Sensit./(uV/mW)
49.342,10.01,-0.02973,0.10488,0.61833
49.842,11.3162,-0.02988048,0.16477,0.61859
50.342,11.63756,-0.02950613,0.2204,0.61886
50.842,11.86563,-0.03321686,0.27535,0.61912
51.342,12.05242,-0.03332567,0.3062,0.61938
51.842,12.21074,-0.03472416,0.3436,0.61965
52.342,12.3536,-0.03722471,0.3818,0.61991
52.842,12.4848,-0.03837222,0.39848,0.62017
53.342,12.607,-0.03681897,0.42079,0.62043
53.842,12.72328,-0.03776551,0.45126,0.62069
54.342,12.83302,-0.03931293,0.46716,0.62095
54.842,12.93731,-0.03957132,0.49044,0.6212
55.342,13.03881,-0.04073766,0.50439,0.62146
55.842,13.1373,-0.0377947,0.52632,0.62172
56.342,13.2325,-0.03862033,0.54606,0.62197
56.842,13.3246,-0.04023028,0.56987,0.62223
57.342,13.41433,-0.03972562,0.58643,0.62248
57.842,13.5019,-0.04036636,0.59964,0.62273
58.342,13.5889,-0.040384,0.62624,0.62298
58.842,13.6745,-0.04191825,0.64552,0.62323
59.342,13.75862,-0.04299549,0.66539,0.62348
59.842,13.8406,-0.04300141,0.68116,0.62373
60.342,13.92123,-0.04299873,0.68979,0.62398
60.842,14.0008,-0.04188945,0.70207,0.62423
61.342,14.07893,-0.04279094,0.72207,0.62447
61.842,14.1569,-0.04146885,0.73212,0.62472
62.342,14.23364,-0.05112556,0.73901,0.62496
62.842,14.3093,-0.03693009,0.77115,0.6252
63.342,14.38388,-0.04443858,0.78161,0.62545
63.842,14.4573,-0.0443814,0.79128,0.62569
64.342,14.5298,-0.04673172,0.79596,0.62593
64.842,14.6018,-0.04691498,0.80692,0.62617
65.342,14.67351,-0.04551479,0.84317,0.62641
65.842,14.74378,-0.04434926,0.85897,0.62665
66.342,14.81427,-0.04528008,0.87168,0.62688
66.842,14.88369,-0.04508956,0.88738,0.62712
67.342,14.95316,-0.04652217,0.91602,0.62736
67.842,15.0208,-0.04918004,0.91345,0.62759
68.342,15.08849,-0.04914001,0.92822,0.62783
68.842,15.15545,-0.04918822,0.95535,0.62806
69.342,15.22199,-0.04745146,0.95598,0.62829
69.842,15.28769,-0.04595935,0.98015,0.62852
70.342,15.3522,-0.04859671,0.99186,0.62875
70.842,15.41699,-0.04989591,1.01565,0.62898
71.342,15.4817,-0.04893023,1.02554,0.62921
71.842,15.54635,-0.04993085,1.04618,0.62944
72.342,15.6099,-0.05165956,1.05766,0.62966
72.842,15.67281,-0.05319862,1.0886,0.62989
73.342,15.7357,-0.05324591,1.1004,0.63012
73.842,15.7973,-0.05739948,1.13893,0.63034
74.342,15.859,-0.05377321,1.13439,0.63056
74.842,15.92087,-0.05224038,1.15699,0.63079
75.342,15.9825,-0.05364683,1.16115,0.63101
75.842,16.04413,-0.0532863,1.18463,0.63123
76.342,16.10435,-0.05189664,1.19436,0.63145
76.842,16.16437,-0.05642113,1.2202,0.63167
77.342,16.22418,-0.0563028,1.22517,0.63188
77.842,16.28345,-0.05627674,1.25301,0.6321
78.342,16.34233,-0.05767387,1.26806,0.63232
78.842,16.4011,-0.05759143,1.28425,0.63253
79.342,16.45949,-0.05626999,1.30109,0.63275
79.842,16.51761,-0.05757224,1.31045,0.63296
80.342,16.57559,-0.06032048,1.34567,0.63318
80.842,16.63364,-0.05846484,1.35178,0.63339
81.342,16.69119,-0.05723153,1.36716,0.6336
81.842,16.74836,-0.05842018,1.38512,0.63381
82.342,16.80525,-0.06110027,1.38789,0.63402
82.842,16.8616,-0.06158271,1.40753,0.63423
83.342,16.91788,-0.06242603,1.41472,0.63443
83.842,16.9739,-0.06109657,1.43268,0.63464
84.342,17.02939,-0.06242079,1.44702,0.63485
84.842,17.08482,-0.06242013,1.45276,0.63505
85.342,17.1403,-0.06243774,1.46882,0.63525
85.842,17.19594,-0.06374557,1.48277,0.63546
86.342,17.2512,-0.06647034,1.5052,0.63566
86.842,17.3059,-0.06886461,1.5213,0.63586
87.342,17.36032,-0.06977062,1.52468,0.63606
87.842,17.41459,-0.06846124,1.53549,0.63626
88.342,17.46882,-0.06876808,1.54025,0.63646
88.842,17.52289,-0.06900433,1.55976,0.63666
89.342,17.57678,-0.07111696,1.56958,0.63686
89.842,17.63041,-0.07241695,1.5762,0.63705
90.342,17.68376,-0.07291679,1.58567,0.63725
90.842,17.73712,-0.07272545,1.60026,0.63744
91.342,17.7899,-0.07273009,1.60812,0.63763
91.842,17.84296,-0.07405631,1.61439,0.63783
92.342,17.89583,-0.07499545,1.61805,0.63802
92.842,17.9483,-0.07660473,1.63509,0.63821
93.342,18.0011,-0.07797639,1.64616,0.6384
93.842,18.05331,-0.07799003,1.6493,0.63859
94.342,18.10549,-0.07800373,1.66466,0.63878
94.842,18.1576,-0.07930354,1.66902,0.63896
95.342,18.20964,-0.0793099,1.67231,0.63915
95.842,18.26149,-0.08061252,1.67284,0.63934
96.342,18.313,-0.08063012,1.68468,0.63952
96.842,18.36443,-0.0805391,1.68702,0.63971
97.342,18.4157,-0.0832563,1.70757,0.63989
97.842,18.46694,-0.08325311,1.7179,0.64007
98.342,18.51805,-0.08522638,1.72078,0.64025
98.842,18.5691,-0.0858908,1.73058,0.64043
99.342,18.6201,-0.08721642,1.72692,0.64061
99.842,18.6711,-0.0885199,1.72435,0.64079
100.342,18.72198,-0.08851721,1.73723,0.64097
100.842,18.77259,-0.08984631,1.74929,0.64114
101.342,18.82319,-0.08987319,1.75161,0.64132
101.842,18.87349,-0.08993238,1.7741,0.64149
102.342,18.9236,-0.08985666,1.76562,0.64167
102.842,18.97403,-0.09147855,1.77276,0.64184
103.342,19.0243,-0.09338717,1.77859,0.64201
103.842,19.07456,-0.09510634,1.78001,0.64219
104.342,19.12492,-0.09523087,1.78276,0.64236
104.842,19.17507,-0.09663564,1.80168,0.64253
105.342,19.22492,-0.09728178,1.80012,0.6427
105.842,19.27458,-0.09730003,1.80024,0.64286
106.342,19.32431,-0.0973,1.81329,0.64303
106.842,19.374,-0.09729975,1.81699,0.6432
107.342,19.4236,-0.09749181,1.81913,0.64336
107.842,19.47332,-0.09957554,1.81934,0.64353
108.342,19.52298,-0.10088,1.80962,0.64369
108.842,19.57249,-0.10258,1.82325,0.64385
109.342,19.62185,-0.10543,1.82314,0.64401
109.842,19.67138,-0.10588,1.82703,0.64418
110.342,19.7206,-0.10673,1.83213,0.64434
110.842,19.76997,-0.10673,1.83248,0.6445
111.342,19.81941,-0.10673,1.82936,0.64465
111.842,19.86863,-0.10936,1.84551,0.64481
112.342,19.91778,-0.10936,1.86011,0.64497
112.842,19.96649,-0.10807,1.85135,0.64512
113.342,20.01531,-0.109,1.85607,0.64528
113.842,20.06409,-0.11251,1.85967,0.64543
114.342,20.113,-0.11503,1.87394,0.64559
114.842,20.1616,-0.11506,1.87062,0.64574
115.342,20.21021,-0.11607,1.86988,0.64589
115.842,20.25891,-0.11948,1.8598,0.64604
116.342,20.30742,-0.12078,1.88054,0.64619
116.842,20.35598,-0.11943,1.86644,0.64634
117.342,20.405,-0.11861,1.87427,0.64649
117.842,20.4535,-0.11946,1.88068,0.64663
118.342,20.50199,-0.11998,1.88527,0.64678
118.842,20.55041,-0.12077,1.88444,0.64692
119.342,20.5989,-0.12073,1.88443,0.64707
119.842,20.64712,-0.12307,1.88283,0.64721
120.342,20.6953,-0.12307,1.88965,0.64735
120.842,20.74364,-0.12318,1.88316,0.6475
121.342,20.79156,-0.1234,1.90108,0.64764
121.842,20.83951,-0.12473,1.89042,0.64778
122.342,20.88759,-0.12622,1.89968,0.64792
122.842,20.93552,-0.12736,1.87987,0.64805
123.342,20.9834,-0.12867,1.87453,0.64819
123.842,21.03115,-0.13132,1.87515,0.64833
124.342,21.07868,-0.13316,1.87249,0.64846
124.842,21.1262,-0.13393,1.87152,0.6486
125.342,21.17376,-0.13265,1.88156,0.64873
125.842,21.22119,-0.13338,1.87402,0.64887
126.342,21.26886,-0.13525,1.87339,0.649
126.842,21.31641,-0.13524,1.87659,0.64913
127.342,21.36365,-0.13823,1.87425,0.64926
127.842,21.41084,-0.13953,1.88135,0.64939
128.342,21.45777,-0.13698,1.88455,0.64952
128.842,21.50496,-0.13678,1.8893,0.64965
129.342,21.55227,-0.13811,1.8887,0.64977
129.842,21.59925,-0.13662,1.89357,0.6499
130.342,21.64659,-0.13657,1.89563,0.65002
130.842,21.69367,-0.13982,1.88499,0.65015
131.342,21.74055,-0.14362,1.89464,0.65027
131.842,21.78734,-0.14625,1.89221,0.65039
132.342,21.8343,-0.14175,1.89403,0.65052
132.842,21.88104,-0.14051,1.89401,0.65064
133.342,21.928,-0.14274,1.89888,0.65076
133.842,21.97465,-0.14316,1.89512,0.65088
134.342,22.0213,-0.1459,1.88802,0.65099
134.842,22.06794,-0.14215,1.88858,0.65111
135.342,22.11436,-0.14131,1.88194,0.65123
135.842,22.16084,-0.15337,1.88463,0.65134
136.342,22.20739,-0.14706,1.89136,0.65146
136.842,22.25395,-0.14711,1.88721,0.65157
137.342,22.30029,-0.14841,1.89545,0.65169
137.842,22.3468,-0.14973,1.89827,0.6518
138.342,22.39301,-0.14973,1.89597,0.65191
138.842,22.43907,-0.15107,1.89432,0.65202
139.342,22.48529,-0.15154,1.89448,0.65213
139.842,22.53151,-0.15236,1.88774,0.65224
140.342,22.5776,-0.15101,1.88788,0.65235
140.842,22.62407,-0.15233,1.89738,0.65245
141.342,22.66982,-0.15236,1.90231,0.65256
141.842,22.7159,-0.15236,1.88584,0.65266
142.342,22.76191,-0.15236,1.89428,0.65277
142.842,22.808,-0.15352,1.89348,0.65287
143.342,22.85396,-0.15367,1.88925,0.65297
143.842,22.90014,-0.15368,1.89478,0.65308
144.342,22.94603,-0.15562,1.89263,0.65318
144.842,22.99186,-0.15788,1.89061,0.65328
145.342,23.03765,-0.15784,1.89468,0.65338
145.842,23.08341,-0.15737,1.88029,0.65348
146.342,23.12912,-0.15718,1.87783,0.65357
146.842,23.17493,-0.15855,1.88192,0.65367
147.342,23.2207,-0.1585,1.87845,0.65377
147.842,23.26636,-0.15985,1.87808,0.65386
148.342,23.312,-0.16079,1.89156,0.65396
148.842,23.35763,-0.16116,1.88306,0.65405
149.342,23.40336,-0.16243,1.87996,0.65414
149.842,23.4492,-0.16371,1.88785,0.65423
150.342,23.49492,-0.16376,1.887,0.65432
150.842,23.54063,-0.16446,1.87675,0.65441
151.342,23.58585,-0.16839,1.87917,0.6545
151.842,23.63123,-0.16968,1.88791,0.65459
152.342,23.6765,-0.17033,1.87527,0.65468
152.842,23.72185,-0.17027,1.88997,0.65476
153.342,23.76738,-0.1615,1.88086,0.65485
153.842,23.81304,-0.172,1.88649,0.65494
154.342,23.8584,-0.1745,1.87459,0.65502
154.842,23.90379,-0.1721,1.88175,0.6551
155.342,23.9491,-0.17178,1.87975,0.65518
155.842,23.99444,-0.17053,1.86816,0.65527
156.342,24.0397,-0.16555,1.86513,0.65535
156.842,24.08509,-0.17935,1.87131,0.65543
157.342,24.13055,-0.17852,1.86355,0.6555
157.842,24.17601,-0.17748,1.86198,0.65558
158.342,24.22144,-0.17794,1.85578,0.65566
158.842,24.2667,-0.17985,1.84991,0.65574
159.342,24.31188,-0.183,1.84396,0.65581
159.842,24.35697,-0.18296,1.83542,0.65589
160.342,24.402,-0.18297,1.84031,0.65596
160.842,24.44697,-0.18428,1.83858,0.65603
161.342,24.49229,-0.18429,1.82961,0.65611
161.842,24.53749,-0.18562,1.8335,0.65618
162.342,24.58267,-0.187,1.82667,0.65625
162.842,24.62787,-0.18692,1.83189,0.65632
163.342,24.67308,-0.18824,1.82975,0.65639
163.842,24.71826,-0.18953,1.82032,0.65645
164.342,24.76342,-0.18992,1.83288,0.65652
164.842,24.8087,-0.1901,1.83333,0.65659
165.342,24.85355,-0.1925,1.82958,0.65665
165.842,24.89868,-0.1925,1.82615,0.65672
166.342,24.94378,-0.19379,1.81924,0.65678
166.842,24.9889,-0.19382,1.81854,0.65684
167.342,25.0342,-0.19378,1.816,0.65691
167.842,25.07938,-0.19514,1.81407,0.65697
168.342,25.12429,-0.19516,1.81982,0.65703
168.842,25.16934,-0.19667,1.82572,0.65709
169.342,25.21433,-0.19832,1.82101,0.65715
169.842,25.25931,-0.19942,1.80972,0.6572
170.342,25.30469,-0.19942,1.80941,0.65726
170.842,25.34994,-0.19942,1.82693,0.65732
171.342,25.3951,-0.19801,1.82497,0.65737
171.842,25.44024,-0.19845,1.81383,0.65743
172.342,25.48519,-0.20091,1.81998,0.65748
172.842,25.5302,-0.20215,1.81693,0.65753
173.342,25.5749,-0.20214,1.81666,0.65759
173.842,25.61949,-0.20347,1.8144,0.65764
174.342,25.6644,-0.20207,1.81312,0.65769
174.842,25.70944,-0.20204,1.80412,0.65774
175.342,25.75423,-0.20203,1.80109,0.65779
175.842,25.79941,-0.20336,1.80803,0.65783
176.342,25.84451,-0.20336,1.79443,0.65788
176.842,25.88942,-0.20336,1.79286,0.65793
177.342,25.93421,-0.20476,1.78508,0.65797
177.842,25.97932,-0.20467,1.77889,0.65802
178.342,26.02419,-0.20739,1.77717,0.65806
178.842,26.06906,-0.20874,1.77732,0.6581
179.342,26.11392,-0.20837,1.77348,0.65815
179.842,26.15875,-0.20775,1.75766,0.65819
180.342,26.20364,-0.20775,1.76754,0.65823
180.842,26.24827,-0.20775,1.7683,0.65827
181.342,26.293,-0.20775,1.76289,0.65831
181.842,26.3379,-0.20769,1.7547,0.65834
182.342,26.3825,-0.20841,1.76373,0.65838
182.842,26.42714,-0.20841,1.75629,0.65842
183.342,26.47195,-0.20841,1.76636,0.65845
183.842,26.51653,-0.20843,1.76647,0.65849
184.342,26.5612,-0.20907,1.75969,0.65852
184.842,26.606,-0.20907,1.75288,0.65856
185.342,26.6506,-0.2101,1.75157,0.65859
185.842,26.69535,-0.21077,1.74844,0.65862
186.342,26.73997,-0.21389,1.75488,0.65865
186.842,26.7845,-0.21321,1.74441,0.65868
187.342,26.8292,-0.21213,1.72814,0.65871
187.842,26.8738,-0.21213,1.73955,0.65874
188.342,26.91824,-0.2122,1.72846,0.65877
188.842,26.9629,-0.215,1.72606,0.65879
189.342,27.00743,-0.21676,1.70628,0.65882
189.842,27.0521,-0.21773,1.71394,0.65884
190.342,27.09655,-0.2176,1.70564,0.65887
190.842,27.1411,-0.21784,1.70678,0.65889
191.342,27.18553,-0.21784,1.6966,0.65891
191.842,27.23007,-0.21652,1.70083,0.65894
192.342,27.27448,-0.21524,1.69222,0.65896
192.842,27.3191,-0.21523,1.6876,0.65898
193.342,27.3635,-0.21488,1.67827,0.659
193.842,27.40792,-0.21489,1.67312,0.65901
194.342,27.4524,-0.21618,1.6667,0.65903
194.842,27.4969,-0.21685,1.67078,0.65905
195.342,27.54137,-0.21652,1.65747,0.65907
195.842,27.5859,-0.2178,1.6617,0.65908
196.342,27.6303,-0.21784,1.65765,0.6591
196.842,27.67472,-0.21767,1.65161,0.65911
197.342,27.71916,-0.22116,1.64126,0.65912
197.842,27.76359,-0.22201,1.63809,0.65914
198.342,27.8079,-0.22201,1.64066,0.65915
198.842,27.85233,-0.22201,1.63299,0.65916
199.342,27.8967,-0.22201,1.62471,0.65917
199.842,27.9412,-0.22201,1.62314,0.65918
200.342,27.9856,-0.22201,1.61481,0.65918
200.842,28.0301,-0.22068,1.62265,0.65919
201.342,28.0748,-0.22059,1.6133,0.6592
201.842,28.11921,-0.22168,1.60555,0.6592
202.342,28.16367,-0.22164,1.60969,0.65921
202.842,28.2082,-0.22299,1.61127,0.65921
203.342,28.2526,-0.22429,1.60542,0.65922
203.842,28.29705,-0.22434,1.59764,0.65922
204.342,28.3416,-0.22562,1.59743,0.65922
204.842,28.3862,-0.2243,1.59025,0.65922
205.342,28.4307,-0.22434,1.58537,0.65922
205.842,28.4752,-0.22464,1.58029,0.65922
206.342,28.5197,-0.22464,1.57291,0.65922
206.842,28.56413,-0.22596,1.58216,0.65922
207.342,28.60854,-0.22596,1.57074,0.65922
207.842,28.6532,-0.22596,1.57238,0.65921
208.342,28.6976,-0.22596,1.56084,0.65921
208.842,28.74205,-0.22732,1.55342,0.65921
209.342,28.78657,-0.22857,1.56202,0.6592
209.842,28.831,-0.22728,1.55329,0.65919
210.342,28.8753,-0.2286,1.55966,0.65919
210.842,28.91972,-0.22932,1.55083,0.65918
211.342,28.96408,-0.24639,1.56302,0.65917
211.842,29.0085,-0.2557,1.55836,0.65916
212.342,29.05296,-0.24141,1.55643,0.65915
212.842,29.0972,-0.23698,1.55026,0.65914
213.342,29.1418,-0.23477,1.54427,0.65913
213.842,29.18621,-0.23265,1.53991,0.65911
214.342,29.23061,-0.234,1.53964,0.6591
214.842,29.27487,-0.23354,1.53384,0.65909
215.342,29.3191,-0.23116,1.5267,0.65907
215.842,29.36363,-0.23112,1.52439,0.65905
216.342,29.40825,-0.23078,1.50717,0.65904
216.842,29.45301,-0.22255,1.49762,0.65902
217.342,29.49803,-0.22448,1.50623,0.659
217.842,29.5427,-0.22822,1.5124,0.65898
218.342,29.5872,-0.23285,1.50637,0.65896
218.842,29.63155,-0.23531,1.50502,0.65894
219.342,29.67581,-0.24039,1.50024,0.65892
219.842,29.7202,-0.24407,1.49718,0.6589
220.342,29.76453,-0.24542,1.50849,0.65888
220.842,29.80885,-0.24537,1.49643,0.65885
221.342,29.85337,-0.24537,1.48591,0.65883
221.842,29.89773,-0.24667,1.49012,0.65881
222.342,29.94217,-0.2467,1.49121,0.65878
222.842,29.98664,-0.24802,1.48915,0.65875
223.342,30.0312,-0.24669,1.48601,0.65873
223.842,30.0757,-0.24638,1.48055,0.6587
224.342,30.1203,-0.24535,1.47346,0.65867
224.842,30.16488,-0.24406,1.47552,0.65864
225.342,30.2095,-0.24412,1.47018,0.65861
225.842,30.25406,-0.23957,1.45486,0.65858
226.342,30.2987,-0.23638,1.45313,0.65855
226.842,30.34341,-0.23751,1.45533,0.65851
227.342,30.38808,-0.24043,1.47021,0.65848
227.842,30.43277,-0.2397,1.45379,0.65845
228.342,30.4774,-0.23585,1.44799,0.65841
228.842,30.52181,-0.23064,1.44329,0.65838
229.342,30.5665,-0.2293,1.43594,0.65834
229.842,30.6111,-0.23851,1.43026,0.6583
230.342,30.65573,-0.24415,1.43385,0.65827
230.842,30.70027,-0.24781,1.44307,0.65823
231.342,30.74483,-0.24974,1.43827,0.65819
231.842,30.7892,-0.24976,1.43857,0.65815
232.342,30.83359,-0.25117,1.44026,0.65811
232.842,30.8777,-0.25309,1.45085,0.65807
233.342,30.9222,-0.25305,1.43657,0.65803
233.842,30.9669,-0.25305,1.42938,0.65798
234.342,31.0114,-0.25305,1.43873,0.65794
234.842,31.0561,-0.25432,1.44493,0.6579
235.342,31.101,-0.25437,1.44174,0.65785
235.842,31.14547,-0.25532,1.43383,0.6578
236.342,31.19013,-0.25568,1.43831,0.65776
236.842,31.23465,-0.25665,1.43825,0.65771
237.342,31.27873,-0.25663,1.43846,0.65766
237.842,31.32315,-0.25601,1.44316,0.65762
238.342,31.36763,-0.25584,1.44532,0.65757
238.842,31.41215,-0.25601,1.44719,0.65752
239.342,31.45679,-0.25624,1.44841,0.65746
239.842,31.50165,-0.25634,1.44145,0.65741
240.342,31.5463,-0.25634,1.43092,0.65736
240.842,31.59093,-0.25634,1.43138,0.65731
241.342,31.63555,-0.25856,1.42632,0.65725
241.842,31.68015,-0.25864,1.43139,0.6572
242.342,31.7247,-0.25855,1.428,0.65715
242.842,31.76929,-0.25996,1.42849,0.65709
243.342,31.81387,-0.259,1.4285,0.65703
243.842,31.8583,-0.26017,1.41149,0.65698
244.342,31.90277,-0.26029,1.42352,0.65692
244.842,31.9473,-0.26029,1.41995,0.65686
245.342,31.99178,-0.26029,1.44547,0.6568
245.842,32.03642,-0.26029,1.42143,0.65674
246.342,32.08103,-0.26029,1.43707,0.65668
246.842,32.1258,-0.26029,1.42532,0.65662
247.342,32.17042,-0.2603,1.43161,0.65656
247.842,32.2152,-0.2616,1.43664,0.65649
248.342,32.25982,-0.2616,1.4284,0.65643
248.842,32.30447,-0.26297,1.42245,0.65637
249.342,32.3491,-0.26292,1.43207,0.6563
249.842,32.39358,-0.26292,1.42958,0.65623
250.342,32.4378,-0.26423,1.42095,0.65617
250.842,32.4824,-0.26392,1.41782,0.6561
251.342,32.52704,-0.26391,1.4291,0.65603
251.842,32.57165,-0.26391,1.41977,0.65597
252.342,32.61657,-0.26391,1.4204,0.6559
252.842,32.66141,-0.26391,1.41994,0.65583
253.342,32.70603,-0.26391,1.41319,0.65576
253.842,32.7507,-0.26493,1.42132,0.65568
254.342,32.79537,-0.26489,1.41657,0.65561
254.842,32.84012,-0.26391,1.4234,0.65554
255.342,32.88487,-0.26399,1.4177,0.65547
255.842,32.92949,-0.26546,1.43536,0.65539
256.342,32.9741,-0.26686,1.42832,0.65532
256.842,33.0186,-0.26676,1.42659,0.65524
257.342,33.06322,-0.26676,1.42703,0.65517
257.842,33.10783,-0.26552,1.4259,0.65509
258.342,33.15254,-0.26677,1.42763,0.65501
258.842,33.19733,-0.26808,1.42803,0.65494
259.342,33.24224,-0.26808,1.4123,0.65486
259.842,33.28692,-0.2674,1.42104,0.65478
260.342,33.33167,-0.26676,1.41206,0.6547
260.842,33.37647,-0.26676,1.429,0.65462
261.342,33.42103,-0.26718,1.43731,0.65453
261.842,33.4656,-0.26916,1.4153,0.65445
262.342,33.5102,-0.2694,1.42946,0.65437
262.842,33.55495,-0.27047,1.43133,0.65429
263.342,33.59964,-0.27202,1.43216,0.6542
263.842,33.6444,-0.27333,1.43958,0.65412
264.342,33.6891,-0.27334,1.43596,0.65403
264.842,33.73381,-0.27198,1.43483,0.65395
265.342,33.77839,-0.27203,1.43913,0.65386
265.842,33.82306,-0.27228,1.44669,0.65377
266.342,33.86793,-0.27335,1.43829,0.65368
266.842,33.9126,-0.27335,1.45024,0.65359
267.342,33.95749,-0.27351,1.43734,0.65351
267.842,34.00227,-0.27474,1.44802,0.65342
268.342,34.04704,-0.27743,1.43399,0.65332
268.842,34.09171,-0.27891,1.44456,0.65323
269.342,34.13629,-0.27893,1.46101,0.65314
269.842,34.1806,-0.27892,1.4518,0.65305
270.342,34.22547,-0.2779,1.45725,0.65296
270.842,34.2701,-0.27927,1.45966,0.65286
271.342,34.3149,-0.2816,1.4691,0.65277
271.842,34.36,-0.28157,1.46469,0.65267
272.342,34.40503,-0.28024,1.47307,0.65258
272.842,34.44989,-0.28025,1.46634,0.65248
273.342,34.4949,-0.2813,1.47568,0.65238
273.842,34.53972,-0.2819,1.48436,0.65228
274.342,34.58446,-0.28189,1.46932,0.65218
274.842,34.62932,-0.28321,1.48244,0.65209
275.342,34.67422,-0.28321,1.47215,0.65199
275.842,34.71917,-0.28586,1.47338,0.65189
276.342,34.7641,-0.28621,1.48043,0.65178
276.842,34.80899,-0.28716,1.48941,0.65168
277.342,34.85368,-0.28719,1.48968,0.65158
277.842,34.89845,-0.28716,1.49632,0.65148
278.342,34.94317,-0.28715,1.50083,0.65137
278.842,34.98803,-0.28979,1.49779,0.65127
279.342,35.0328,-0.28981,1.50159,0.65116
279.842,35.0777,-0.29107,1.50105,0.65106
280.342,35.12259,-0.2924,1.50884,0.65095
280.842,35.16741,-0.29263,1.51917,0.65085
281.342,35.21241,-0.29238,1.51135,0.65074
281.842,35.2573,-0.29374,1.51458,0.65063
282.342,35.30225,-0.29374,1.50875,0.65052
282.842,35.3472,-0.29628,1.52024,0.65041
283.342,35.39229,-0.29638,1.51517,0.6503
283.842,35.43724,-0.29747,1.52227,0.65019
284.342,35.48211,-0.29769,1.52412,0.65008
284.842,35.527,-0.29764,1.52934,0.64997
285.342,35.5717,-0.29901,1.52148,0.64986
285.842,35.6163,-0.30031,1.52951,0.64974
286.342,35.66127,-0.30167,1.53148,0.64963
286.842,35.70617,-0.30031,1.524,0.64952
287.342,35.75122,-0.30164,1.5422,0.6494
287.842,35.7966,-0.30303,1.54453,0.64928
288.342,35.8418,-0.30336,1.54546,0.64917
288.842,35.88688,-0.30427,1.54288,0.64905
289.342,35.93195,-0.3056,1.54457,0.64893
289.842,35.97692,-0.3055,1.54932,0.64882
290.342,36.0218,-0.30686,1.54792,0.6487
290.842,36.06694,-0.30856,1.54702,0.64858
291.342,36.11208,-0.30871,1.5599,0.64846
291.842,36.1571,-0.30987,1.55795,0.64834
292.342,36.2021,-0.3107,1.55432,0.64822
292.842,36.247,-0.31212,1.54528,0.6481
293.342,36.2919,-0.31215,1.55107,0.64797
293.842,36.3369,-0.31352,1.56986,0.64785
294.342,36.38203,-0.31269,1.56248,0.64773
294.842,36.42738,-0.31349,1.56172,0.6476
295.342,36.47263,-0.31464,1.56869,0.64748
295.842,36.51785,-0.31603,1.56978,0.64735
296.342,36.56303,-0.31613,1.57062,0.64723
296.842,36.6081,-0.31621,1.5765,0.6471
297.342,36.6532,-0.31678,1.56833,0.64698
297.842,36.6984,-0.31744,1.56682,0.64685
298.342,36.74354,-0.31816,1.56794,0.64672
298.842,36.7888,-0.31806,1.57029,0.64659
299.342,36.83396,-0.31941,1.56741,0.64646
299.842,36.87912,-0.32066,1.5725,0.64633
300.342,36.9242,-0.32093,1.56647,0.6462
300.842,36.9694,-0.32204,1.57161,0.64607
301.342,37.01464,-0.32199,1.56708,0.64594
301.842,37.05988,-0.32335,1.56651,0.64581
302.342,37.1051,-0.32334,1.56403,0.64567
302.842,37.15034,-0.32468,1.56845,0.64554
303.342,37.1956,-0.32616,1.57302,0.64541
303.842,37.24073,-0.32729,1.56902,0.64527
304.342,37.28573,-0.32862,1.55528,0.64514
304.842,37.3309,-0.32994,1.56674,0.645
305.342,37.37604,-0.32938,1.5725,0.64487
305.842,37.4212,-0.3306,1.55691,0.64473
306.342,37.46645,-0.33197,1.56371,0.64459
306.842,37.51171,-0.33126,1.56194,0.64445
307.342,37.55702,-0.33257,1.56354,0.64432
307.842,37.60223,-0.33253,1.55419,0.64418
308.342,37.64755,-0.33313,1.55331,0.64404
308.842,37.69279,-0.3339,1.55156,0.6439
309.342,37.738,-0.33522,1.5448,0.64376
309.842,37.7831,-0.33561,1.54755,0.64362
310.342,37.82839,-0.33651,1.54517,0.64347
310.842,37.87365,-0.33683,1.54234,0.64333
311.342,37.9188,-0.33779,1.5398,0.64319
311.842,37.96403,-0.33951,1.53665,0.64305
312.342,38.0094,-0.34047,1.52863,0.6429
312.842,38.05454,-0.34184,1.53198,0.64276
313.342,38.09987,-0.34047,1.52324,0.64261
313.842,38.1452,-0.34179,1.51905,0.64247
314.342,38.19055,-0.34314,1.52889,0.64232
314.842,38.23578,-0.34302,1.53294,0.64217
315.342,38.28133,-0.34475,1.53706,0.64203
315.842,38.32667,-0.34609,1.51519,0.64188
316.342,38.372,-0.34659,1.52034,0.64173
316.842,38.41749,-0.34729,1.52033,0.64158
317.342,38.46293,-0.34871,1.50208,0.64143
317.842,38.5082,-0.35001,1.50468,0.64128
318.342,38.55358,-0.35121,1.51166,0.64113
318.842,38.59894,-0.35129,1.50096,0.64098
319.342,38.6443,-0.35264,1.5033,0.64083
319.842,38.6897,-0.35396,1.50403,0.64068
320.342,38.7351,-0.35549,1.49605,0.64052
320.842,38.7806,-0.35595,1.49265,0.64037
321.342,38.8262,-0.35722,1.49742,0.64022
321.842,38.8718,-0.35759,1.47592,0.64006
322.342,38.91734,-0.3589,1.47489,0.63991
322.842,38.96286,-0.3603,1.4693,0.63975
323.342,39.00842,-0.36189,1.47636,0.6396
323.842,39.0539,-0.3622,1.47825,0.63944
324.342,39.09942,-0.36317,1.47061,0.63928
324.842,39.14488,-0.36471,1.46894,0.63913
325.342,39.19031,-0.36604,1.47219,0.63897
325.842,39.23565,-0.36912,1.46739,0.63881
326.342,39.281,-0.36937,1.45725,0.63865
326.842,39.3264,-0.36942,1.44484,0.63849
327.342,39.37187,-0.37078,1.45466,0.63833
327.842,39.41721,-0.37199,1.45818,0.63817
328.342,39.46297,-0.37337,1.46398,0.63801
328.842,39.5087,-0.37337,1.45143,0.63785
329.342,39.55426,-0.37437,1.45078,0.63769
329.842,39.60014,-0.37602,1.45039,0.63753
330.342,39.6457,-0.3775,1.45192,0.63736
330.842,39.6911,-0.37805,1.45047,0.6372
331.342,39.7368,-0.3798,1.43952,0.63704
331.842,39.78236,-0.38194,1.43656,0.63687
332.342,39.82798,-0.383,1.44356,0.63671
332.842,39.87356,-0.38413,1.43597,0.63654
333.342,39.91933,-0.38505,1.43031,0.63638
333.842,39.96504,-0.3862,1.4321,0.63621
334.342,40.01078,-0.3873,1.42156,0.63604
334.842,40.0565,-0.38866,1.42554,0.63588
335.342,40.10221,-0.38862,1.41698,0.63571
335.842,40.1479,-0.39139,1.42049,0.63554
336.342,40.1935,-0.39291,1.41945,0.63537
336.842,40.23912,-0.39422,1.40861,0.6352
337.342,40.28487,-0.39551,1.40832,0.63503
337.842,40.33057,-0.39746,1.41108,0.63486
338.342,40.3763,-0.3996,1.39942,0.63469
338.842,40.42199,-0.40046,1.39812,0.63452
339.342,40.46775,-0.40137,1.40439,0.63435
339.842,40.5135,-0.40308,1.39735,0.63417
340.342,40.55934,-0.40442,1.40919,0.634
340.842,40.60528,-0.40491,1.4045,0.63383
341.342,40.65119,-0.40643,1.38825,0.63366
341.842,40.69701,-0.40653,1.39973,0.63348
342.342,40.7429,-0.40784,1.39469,0.63331
342.842,40.7887,-0.40924,1.3902,0.63313
343.342,40.83428,-0.41218,1.38893,0.63296
343.842,40.88003,-0.41539,1.39741,0.63278
344.342,40.92592,-0.41674,1.38816,0.6326
344.842,40.97184,-0.4167,1.38649,0.63243
345.342,41.01785,-0.4167,1.38768,0.63225
345.842,41.06389,-0.41704,1.37848,0.63207
346.342,41.10993,-0.41802,1.36917,0.63189
346.842,41.15579,-0.41965,1.37123,0.63171
347.342,41.20149,-0.42156,1.37193,0.63154
347.842,41.2471,-0.42367,1.36422,0.63136
348.342,41.2928,-0.42538,1.3674,0.63118
348.842,41.3386,-0.42689,1.36995,0.631
349.342,41.3845,-0.42653,1.35817,0.63081
349.842,41.43083,-0.42789,1.35605,0.63063
350.342,41.47692,-0.42895,1.35457,0.63045
350.842,41.52296,-0.42944,1.35563,0.63027
351.342,41.56902,-0.43077,1.35202,0.63009
351.842,41.61497,-0.4328,1.35179,0.6299
352.342,41.6608,-0.43448,1.35234,0.62972
352.842,41.70667,-0.43491,1.34828,0.62953
353.342,41.75268,-0.43658,1.34622,0.62935
353.842,41.79864,-0.43842,1.34836,0.62917
354.342,41.8449,-0.44061,1.34726,0.62898
354.842,41.89116,-0.44223,1.33955,0.62879
355.342,41.9373,-0.44226,1.34563,0.62861
355.842,41.9835,-0.44226,1.33605,0.62842
356.342,42.0297,-0.44289,1.33587,0.62823
356.842,42.07605,-0.44539,1.3272,0.62805
357.342,42.1222,-0.44692,1.33898,0.62786
357.842,42.16838,-0.4502,1.33621,0.62767
358.342,42.21454,-0.45415,1.33189,0.62748
358.842,42.26061,-0.4547,1.33067,0.62729
359.342,42.3067,-0.45601,1.32857,0.6271
359.842,42.35283,-0.45604,1.33049,0.62691
360.342,42.399,-0.4577,1.31463,0.62672
360.842,42.44509,-0.4607,1.32901,0.62653
361.342,42.49127,-0.46344,1.32785,0.62634
361.842,42.5374,-0.46507,1.31038,0.62615
362.342,42.5837,-0.46514,1.31554,0.62595
362.842,42.6298,-0.46571,1.30692,0.62576
363.342,42.6761,-0.46638,1.3016,0.62557
363.842,42.7224,-0.46772,1.2889,0.62538
364.342,42.76852,-0.46903,1.30018,0.62518
364.842,42.8146,-0.47074,1.28814,0.62499
365.342,42.86097,-0.47289,1.28191,0.62479
365.842,42.90697,-0.4746,1.29126,0.6246
366.342,42.95315,-0.47815,1.29837,0.6244
366.842,42.9992,-0.47856,1.28107,0.62421
367.342,43.0454,-0.47851,1.286,0.62401
367.842,43.0916,-0.48049,1.28733,0.62381
368.342,43.1378,-0.48401,1.27299,0.62362
368.842,43.184,-0.48536,1.26794,0.62342
369.342,43.2303,-0.48668,1.25613,0.62322
369.842,43.2763,-0.48678,1.24846,0.62302
370.342,43.3223,-0.48866,1.24915,0.62282
370.842,43.3686,-0.48943,1.23746,0.62262
371.342,43.41503,-0.49073,1.23558,0.62242
371.842,43.46147,-0.4908,1.22322,0.62222
372.342,43.50837,-0.49067,1.22073,0.62202
372.842,43.55474,-0.4921,1.21608,0.62182
373.342,43.60087,-0.49353,1.21626,0.62162
373.842,43.647,-0.49606,1.20194,0.62142
374.342,43.6934,-0.49776,1.19375,0.62122
374.842,43.73983,-0.49906,1.19547,0.62102
375.342,43.7865,-0.50039,1.17732,0.62081
375.842,43.83317,-0.50042,1.17927,0.62061
376.342,43.8795,-0.5017,1.1657,0.62041
376.842,43.9259,-0.50399,1.16351,0.6202
377.342,43.97225,-0.50397,1.1571,0.62
377.842,44.01866,-0.50534,1.13386,0.6198
378.342,44.0651,-0.50661,1.12737,0.61959
378.842,44.11162,-0.50741,1.13689,0.61939
379.342,44.1582,-0.50876,1.11481,0.61918
379.842,44.20459,-0.50878,1.11183,0.61897
380.342,44.2513,-0.50998,1.11103,0.61877
380.842,44.29775,-0.50939,1.10207,0.61856
381.342,44.34431,-0.50939,1.09347,0.61835
381.842,44.391,-0.51082,1.07932,0.61815
382.342,44.43743,-0.51276,1.07849,0.61794
382.842,44.48393,-0.51487,1.07906,0.61773
383.342,44.53058,-0.51514,1.08322,0.61752
383.842,44.57718,-0.51599,1.07393,0.61731
384.342,44.6236,-0.5174,1.08118,0.61711
384.842,44.6704,-0.51606,1.08694,0.6169
385.342,44.71711,-0.51599,1.08664,0.61669
385.842,44.7637,-0.5174,1.07647,0.61648
386.342,44.81045,-0.51776,1.07965,0.61627
386.842,44.85706,-0.52004,1.07199,0.61605
387.342,44.90361,-0.52133,1.08035,0.61584
387.842,44.95019,-0.52366,1.07435,0.61563
388.342,44.99687,-0.52365,1.06592,0.61542
388.842,45.04358,-0.52363,1.07167,0.61521
389.342,45.09029,-0.52397,1.07298,0.61499
389.842,45.13698,-0.52491,1.04779,0.61478
390.342,45.1838,-0.52397,1.05984,0.61457
390.842,45.23048,-0.52529,1.05429,0.61435
391.342,45.2772,-0.5253,1.06243,0.61414
391.842,45.32396,-0.5266,1.04797,0.61393
392.342,45.3707,-0.5266,1.04665,0.61371
392.842,45.41746,-0.52864,1.05258,0.6135
393.342,45.46423,-0.52924,1.04564,0.61328
393.842,45.511,-0.52924,1.04149,0.61307
394.342,45.55778,-0.52924,1.04078,0.61285
394.842,45.60452,-0.53149,1.03719,0.61263
395.342,45.65112,-0.53187,1.03016,0.61242
395.842,45.6978,-0.53187,1.02462,0.6122
396.342,45.7445,-0.53311,1.02501,0.61198
396.842,45.79116,-0.53324,1.02532,0.61177
397.342,45.83767,-0.53417,1.01119,0.61155
397.842,45.88462,-0.53416,0.99945,0.61133
398.342,45.93136,-0.53553,1.00888,0.61111
398.842,45.97826,-0.53606,1.00676,0.61089
399.342,46.02512,-0.53581,1.01182,0.61067
399.842,46.07213,-0.53644,1.009,0.61045
400.342,46.11894,-0.53845,1.00447,0.61023
400.842,46.16588,-0.53845,1.00816,0.61001
401.342,46.2127,-0.53843,1.00797,0.60979
401.842,46.25949,-0.53713,1.00623,0.60957
402.342,46.30632,-0.53713,1.00954,0.60935
402.842,46.35325,-0.53728,0.99553,0.60913
403.342,46.39979,-0.53845,1.00347,0.60891
403.842,46.44662,-0.53961,1.0031,0.60869
404.342,46.49373,-0.53911,0.9911,0.60846
404.842,46.5407,-0.53911,0.99117,0.60824
405.342,46.58773,-0.5404,0.99216,0.60802
405.842,46.63498,-0.5401,0.99198,0.6078
406.342,46.682,-0.53977,0.99146,0.60757
406.842,46.7291,-0.53977,0.99062,0.60735
407.342,46.77615,-0.54117,0.99479,0.60713
407.842,46.82359,-0.53976,0.99393,0.6069
408.342,46.87086,-0.53977,0.98322,0.60668
408.842,46.9181,-0.53844,0.98677,0.60645
409.342,46.96515,-0.53978,0.99111,0.60623
409.842,47.0122,-0.5406,0.98004,0.606
410.342,47.05935,-0.53976,0.97382,0.60578
410.842,47.10645,-0.54106,0.96856,0.60555
411.342,47.15363,-0.54039,0.97281,0.60532
411.842,47.20066,-0.53977,0.97079,0.6051
412.342,47.24791,-0.53977,0.96193,0.60487
412.842,47.295,-0.53852,0.95943,0.60464
413.342,47.34225,-0.53844,0.96819,0.60442
413.842,47.3895,-0.53977,0.95452,0.60419
414.342,47.43676,-0.54106,0.9543,0.60396
414.842,47.48405,-0.54217,0.95752,0.60373
415.342,47.53125,-0.54213,0.93971,0.6035
415.842,47.5785,-0.54209,0.943,0.60328
416.342,47.62579,-0.54072,0.944,0.60305
416.842,47.673,-0.54076,0.94076,0.60282
417.342,47.72023,-0.54076,0.94701,0.60259
417.842,47.76744,-0.53944,0.94176,0.60236
418.342,47.81454,-0.54052,0.94555,0.60213
418.842,47.86177,-0.54042,0.93979,0.6019
419.342,47.90914,-0.54042,0.9399,0.60167
419.842,47.9563,-0.54047,0.92976,0.60144
420.342,48.00355,-0.53943,0.9285,0.60121
420.842,48.05081,-0.54075,0.92718,0.60097
421.342,48.09811,-0.54075,0.92715,0.60074
421.842,48.14546,-0.54176,0.92672,0.60051
422.342,48.19293,-0.5421,0.92941,0.60028
422.842,48.2402,-0.54339,0.92432,0.60005
423.342,48.28756,-0.54339,0.92829,0.59981
423.842,48.3348,-0.54505,0.9223,0.59958
424.342,48.38214,-0.54647,0.92919,0.59935
424.842,48.42948,-0.54779,0.9296,0.59912
425.342,48.47688,-0.54761,0.91984,0.59888
425.842,48.52428,-0.54748,0.92155,0.59865
426.342,48.57168,-0.54888,0.9268,0.59841
426.842,48.61909,-0.5499,0.92715,0.59818
427.342,48.66648,-0.54887,0.91501,0.59795
427.842,48.71395,-0.54759,0.91788,0.59771
428.342,48.7614,-0.54756,0.92121,0.59748
428.842,48.80871,-0.54751,0.90286,0.59724
429.342,48.85629,-0.55018,0.90354,0.59701
429.842,48.90361,-0.55019,0.90346,0.59677
430.342,48.95102,-0.55012,0.88957,0.59653
430.842,48.99853,-0.54888,0.89654,0.5963
431.342,49.04599,-0.54888,0.89785,0.59606
431.842,49.09345,-0.54891,0.90186,0.59583
432.342,49.14112,-0.55019,0.89931,0.59559
432.842,49.1886,-0.55019,0.88696,0.59535
433.342,49.23623,-0.55019,0.88397,0.59512
433.842,49.28389,-0.55013,0.88076,0.59488
434.342,49.3314,-0.55085,0.87854,0.59464
434.842,49.3788,-0.55151,0.87381,0.5944
435.342,49.4263,-0.55271,0.88532,0.59416
435.842,49.47382,-0.55441,0.87271,0.59393
436.342,49.52149,-0.55558,0.87494,0.59369
436.842,49.5691,-0.55557,0.87529,0.59345
437.342,49.61654,-0.55427,0.87493,0.59321
437.842,49.6639,-0.55283,0.86628,0.59297
438.342,49.7113,-0.55344,0.85802,0.59273
438.842,49.7586,-0.55792,0.86345,0.59249
439.342,49.80588,-0.56075,0.86324,0.59225
439.842,49.8538,-0.56084,0.86236,0.59201
440.342,49.90137,-0.56083,0.86472,0.59177
440.842,49.949,-0.56083,0.86494,0.59153
441.342,49.99675,-0.56294,0.85797,0.59129
441.842,50.0443,-0.56626,0.84867,0.59105
442.342,50.09171,-0.5671,0.86444,0.59081
442.842,50.13925,-0.5622,0.8555,0.59057
443.342,50.18679,-0.55636,0.86027,0.59033
443.842,50.2345,-0.55834,0.8599,0.59009
444.342,50.28225,-0.562,0.86475,0.58985
444.842,50.32994,-0.56204,0.85533,0.5896
445.342,50.37753,-0.56198,0.85016,0.58936
445.842,50.42524,-0.56303,0.83701,0.58912
446.342,50.4729,-0.56303,0.84055,0.58888
446.842,50.5205,-0.56303,0.83864,0.58864
447.342,50.56824,-0.56304,0.85318,0.58839
447.842,50.61605,-0.5617,0.84724,0.58815
448.342,50.66386,-0.56236,0.84307,0.58791
448.842,50.7117,-0.56434,0.84525,0.58766
449.342,50.7595,-0.56434,0.84407,0.58742
449.842,50.80733,-0.5648,0.83881,0.58718
450.342,50.85504,-0.56684,0.83212,0.58693
450.842,50.90279,-0.5673,0.83424,0.58669
451.342,50.9508,-0.56731,0.83545,0.58644
451.842,50.9987,-0.56792,0.83362,0.5862
452.342,51.04661,-0.56862,0.84155,0.58596
452.842,51.0946,-0.56862,0.83501,0.58571
453.342,51.14262,-0.57115,0.83171,0.58547
453.842,51.19038,-0.57125,0.84228,0.58522
454.342,51.23832,-0.57125,0.82166,0.58498
454.842,51.28618,-0.57219,0.81783,0.58473
455.342,51.3341,-0.57322,0.82435,0.58449
455.842,51.38201,-0.57322,0.8095,0.58424
456.342,51.43006,-0.57256,0.81391,0.58399
456.842,51.47814,-0.57191,0.81863,0.58375
457.342,51.52619,-0.57321,0.82686,0.5835
457.842,51.57436,-0.57377,0.82251,0.58326
458.342,51.62232,-0.57488,0.81661,0.58301
458.842,51.67018,-0.5763,0.80375,0.58276
459.342,51.718,-0.57753,0.81799,0.58252
459.842,51.76582,-0.57894,0.81213,0.58227
460.342,51.81362,-0.58024,0.80628,0.58202
460.842,51.86162,-0.58025,0.81816,0.58178
461.342,51.90963,-0.58025,0.81193,0.58153
461.842,51.95769,-0.58025,0.80109,0.58128
462.342,52.0057,-0.58025,0.80807,0.58103
462.842,52.05377,-0.58021,0.8051,0.58079
463.342,52.1019,-0.58156,0.81217,0.58054
463.842,52.14998,-0.58156,0.79543,0.58029
464.342,52.1982,-0.58156,0.79958,0.58004
464.842,52.24644,-0.58155,0.8041,0.57979
465.342,52.29459,-0.5833,0.79694,0.57955
465.842,52.34276,-0.58418,0.78927,0.5793
466.342,52.39087,-0.58419,0.79168,0.57905
466.842,52.439,-0.58548,0.7923,0.5788
467.342,52.4872,-0.5867,0.7887,0.57855
467.842,52.53541,-0.58682,0.78401,0.5783
468.342,52.58359,-0.58679,0.79491,0.57805
468.842,52.63188,-0.5855,0.79035,0.5778
469.342,52.6801,-0.58683,0.79,0.57755
469.842,52.7283,-0.58801,0.78111,0.5773
470.342,52.7765,-0.58947,0.78344,0.57705
470.842,52.82479,-0.58955,0.79491,0.57681
471.342,52.873,-0.58877,0.79395,0.57656
471.842,52.92125,-0.59053,0.79374,0.57631
472.342,52.96957,-0.59076,0.79332,0.57606
472.842,53.01772,-0.59077,0.78294,0.57581
473.342,53.06579,-0.59077,0.79135,0.57555
473.842,53.11394,-0.59077,0.78961,0.5753
474.342,53.16209,-0.59077,0.78515,0.57505
474.842,53.21023,-0.59076,0.77781,0.5748
475.342,53.2585,-0.59011,0.77195,0.57455
475.842,53.3067,-0.59161,0.77413,0.5743
476.342,53.35485,-0.59295,0.77083,0.57405
476.842,53.4031,-0.59279,0.75762,0.5738
477.342,53.4514,-0.59165,0.77277,0.57355
477.842,53.4994,-0.59165,0.76765,0.5733
478.342,53.54764,-0.59302,0.77535,0.57305
478.842,53.5958,-0.59298,0.75195,0.57279
479.342,53.6441,-0.59185,0.7688,0.57254
479.842,53.6924,-0.59297,0.76654,0.57229
480.342,53.741,-0.59298,0.76739,0.57204
480.842,53.78925,-0.59487,0.76299,0.57179
481.342,53.8375,-0.59536,0.74527,0.57153
481.842,53.88581,-0.59269,0.76458,0.57128
482.342,53.93405,-0.59362,0.75255,0.57103
482.842,53.98242,-0.59393,0.75135,0.57078
483.342,54.0308,-0.59264,0.75364,0.57053
483.842,54.07886,-0.59261,0.74564,0.57027
484.342,54.1273,-0.59396,0.74114,0.57002
484.842,54.1757,-0.59399,0.73654,0.56977
485.342,54.2242,-0.59527,0.74021,0.56952
485.842,54.27276,-0.59527,0.72911,0.56926
486.342,54.3213,-0.59636,0.72488,0.56901
486.842,54.3698,-0.59659,0.71902,0.56876
487.342,54.41829,-0.59659,0.71782,0.5685
487.842,54.46679,-0.59664,0.70929,0.56825
488.342,54.5152,-0.59527,0.71283,0.568
488.842,54.5637,-0.59395,0.72288,0.56774
489.342,54.61232,-0.59527,0.72343,0.56749
489.842,54.66081,-0.59676,0.72539,0.56724
490.342,54.70925,-0.59972,0.71736,0.56698
490.842,54.7577,-0.59829,0.69134,0.56673
491.342,54.80621,-0.59834,0.70974,0.56648
491.842,54.85475,-0.59834,0.71374,0.56622
492.342,54.9034,-0.59836,0.72187,0.56597
492.842,54.95191,-0.59967,0.71202,0.56572
493.342,55.00029,-0.60097,0.70808,0.56546
493.842,55.04885,-0.60097,0.72122,0.56521
494.342,55.0973,-0.60129,0.70695,0.56495
494.842,55.14577,-0.6013,0.70934,0.5647
495.342,55.19438,-0.6013,0.71554,0.56445
495.842,55.2431,-0.60267,0.71382,0.56419
496.342,55.29166,-0.60262,0.70639,0.56394
496.842,55.3402,-0.60262,0.72145,0.56368
497.342,55.38879,-0.60258,0.70844,0.56343
497.842,55.4376,-0.60361,0.71184,0.56317
498.342,55.48615,-0.605,0.71573,0.56292
498.842,55.53481,-0.60597,0.71872,0.56267
499.342,55.58341,-0.60685,0.72161,0.56241
499.842,55.63196,-0.60723,0.7044,0.56216
500.342,55.6805,-0.60854,0.71178,0.5619
500.842,55.72919,-0.60851,0.71977,0.56165
501.342,55.7779,-0.60954,0.70988,0.56139
501.842,55.82663,-0.60986,0.70488,0.56114
502.342,55.87551,-0.61029,0.71843,0.56088
502.842,55.92431,-0.61282,0.71909,0.56063
503.342,55.97306,-0.61282,0.70856,0.56037
503.842,56.0217,-0.6117,0.71246,0.56012
504.342,56.0705,-0.61019,0.70872,0.55986
504.842,56.11911,-0.61019,0.70081,0.55961
505.342,56.16783,-0.61058,0.69406,0.55935
505.842,56.21654,-0.61282,0.71064,0.5591
506.342,56.26534,-0.6139,0.69614,0.55884
506.842,56.31419,-0.61555,0.67605,0.55859
507.342,56.36302,-0.61545,0.68892,0.55833
507.842,56.41182,-0.61545,0.68928,0.55808
508.342,56.4606,-0.61677,0.69811,0.55782
508.842,56.50934,-0.61705,0.69243,0.55757
509.342,56.55819,-0.61801,0.6896,0.55731
509.842,56.60697,-0.61872,0.68004,0.55706
510.342,56.6559,-0.61809,0.68637,0.5568
510.842,56.70485,-0.61848,0.68187,0.55655
511.342,56.75374,-0.62038,0.69044,0.55629
511.842,56.8027,-0.61908,0.67646,0.55603
512.342,56.8517,-0.61907,0.6756,0.55578
512.842,56.9006,-0.61907,0.67124,0.55552
513.342,56.94934,-0.62003,0.6635,0.55527
513.842,56.9982,-0.62006,0.65728,0.55501
514.342,57.04694,-0.62038,0.65638,0.55476
514.842,57.0957,-0.62049,0.65898,0.5545
515.342,57.1446,-0.61906,0.65822,0.55425
515.842,57.1937,-0.62099,0.66872,0.55399
516.342,57.24269,-0.62138,0.65856,0.55373
516.842,57.2916,-0.62105,0.64178,0.55348
517.342,57.34085,-0.61973,0.65678,0.55322
517.842,57.38971,-0.62104,0.66622,0.55297
518.342,57.4385,-0.62109,0.67143,0.55271
518.842,57.48735,-0.62105,0.66029,0.55246
519.342,57.53623,-0.62105,0.6672,0.5522
519.842,57.5851,-0.62104,0.65648,0.55194
520.342,57.6341,-0.62238,0.64997,0.55169
520.842,57.6831,-0.62236,0.6561,0.55143
521.342,57.73211,-0.62053,0.67089,0.55118
521.842,57.7809,-0.61973,0.65348,0.55092
522.342,57.83005,-0.62039,0.64976,0.55067
522.842,57.87902,-0.62105,0.66245,0.55041
523.342,57.9281,-0.62105,0.63201,0.55016
523.842,57.977,-0.61978,0.65094,0.5499
524.342,58.02579,-0.62032,0.654,0.54964
524.842,58.07439,-0.62172,0.64719,0.54939
525.342,58.12314,-0.62162,0.62949,0.54913
525.842,58.1721,-0.62392,0.6502,0.54888
526.342,58.221,-0.62544,0.63897,0.54862
526.842,58.27013,-0.62543,0.6372,0.54837
527.342,58.3193,-0.62224,0.6448,0.54811
527.842,58.36849,-0.62091,0.64557,0.54785
528.342,58.4177,-0.6196,0.63198,0.5476
528.842,58.46685,-0.61958,0.64696,0.54734
529.342,58.51591,-0.61731,0.62697,0.54709
529.842,58.56496,-0.61995,0.64152,0.54683
530.342,58.614,-0.62323,0.63792,0.54658
530.842,58.66319,-0.62488,0.64358,0.54632
531.342,58.7123,-0.62335,0.6401,0.54607
531.842,58.7615,-0.62204,0.62422,0.54581
532.342,58.81069,-0.62358,0.63619,0.54556
532.842,58.85971,-0.62652,0.62547,0.5453
533.342,58.90882,-0.62519,0.61576,0.54504
533.842,58.95805,-0.62521,0.61748,0.54479
534.342,59.00724,-0.62521,0.62468,0.54453
534.842,59.05644,-0.62484,0.61109,0.54428
535.342,59.10578,-0.62389,0.61859,0.54402
535.842,59.15497,-0.62389,0.6301,0.54377
536.342,59.2042,-0.62387,0.61129,0.54351
536.842,59.2534,-0.62384,0.61935,0.54326
537.342,59.3027,-0.62619,0.62212,0.543
537.842,59.3519,-0.62838,0.61322,0.54275
538.342,59.40129,-0.6284,0.60129,0.54249
538.842,59.45069,-0.62801,0.5742,0.54224
539.342,59.50026,-0.62607,0.56822,0.54198
539.842,59.5497,-0.62445,0.56341,0.54173
540.342,59.59907,-0.62181,0.57735,0.54147
540.842,59.64836,-0.62182,0.57498,0.54122
541.342,59.6976,-0.62182,0.57129,0.54096
541.842,59.7467,-0.62308,0.55935,0.54071
542.342,59.796,-0.62466,0.54859,0.54045
542.842,59.8454,-0.62642,0.54639,0.5402
543.342,59.8947,-0.62707,0.54055,0.53994
543.842,59.9441,-0.62708,0.53491,0.53969
544.342,59.9934,-0.62734,0.53097,0.53944
544.842,60.043,-0.63119,0.53395,0.53918
545.342,60.0925,-0.63135,0.52204,0.53893
545.842,60.1419,-0.62835,0.51301,0.53867
546.342,60.19138,-0.62839,0.50917,0.53842
546.842,60.24066,-0.62839,0.52452,0.53816
547.342,60.29002,-0.62839,0.53329,0.53791
547.842,60.33945,-0.62836,0.51941,0.53766
548.342,60.38886,-0.63058,0.51649,0.5374
548.842,60.4384,-0.62934,0.50794,0.53715
549.342,60.48799,-0.62928,0.50711,0.53689
549.842,60.5375,-0.62972,0.50788,0.53664
550.342,60.58716,-0.63054,0.51661,0.53639
550.842,60.63681,-0.6319,0.51128,0.53613
551.342,60.6863,-0.6319,0.51473,0.53588
551.842,60.7359,-0.6319,0.49718,0.53562
552.342,60.7854,-0.63327,0.51831,0.53537
552.842,60.83495,-0.63463,0.5124,0.53512
553.342,60.88449,-0.63454,0.50968,0.53486
553.842,60.9342,-0.63458,0.498,0.53461
554.342,60.9838,-0.64226,0.49373,0.53436
554.842,61.03346,-0.63119,0.4883,0.5341
555.342,61.08319,-0.63086,0.49393,0.53385
555.842,61.1328,-0.63676,0.49397,0.5336
556.342,61.1822,-0.63766,0.48268,0.53334
556.842,61.23169,-0.63761,0.49025,0.53309
557.342,61.28122,-0.63761,0.49995,0.53284
557.842,61.33048,-0.63794,0.49557,0.53258
558.342,61.3799,-0.64057,0.4988,0.53233
558.842,61.42944,-0.64061,0.49326,0.53208
559.342,61.47889,-0.6409,0.49725,0.53183
559.842,61.52844,-0.6409,0.47655,0.53157
560.342,61.578,-0.6409,0.47603,0.53132
560.842,61.6275,-0.64091,0.48985,0.53107
561.342,61.67703,-0.64235,0.48882,0.53082
561.842,61.72662,-0.64359,0.4824,0.53056
562.342,61.7764,-0.64222,0.48946,0.53031
562.842,61.82614,-0.64222,0.46643,0.53006
563.342,61.8758,-0.64221,0.48185,0.52981
563.842,61.9253,-0.64494,0.46525,0.52956
564.342,61.97498,-0.6457,0.48563,0.5293
564.842,62.02485,-0.64492,0.46686,0.52905
565.342,62.0746,-0.64746,0.45865,0.5288
565.842,62.1248,-0.64743,0.45992,0.52855
566.342,62.1746,-0.64814,0.47669,0.5283
566.842,62.2244,-0.64745,0.48057,0.52805
567.342,62.2742,-0.64746,0.4593,0.52779
567.842,62.32411,-0.64814,0.474,0.52754
568.342,62.37409,-0.64814,0.47039,0.52729
568.842,62.42409,-0.64814,0.48042,0.52704
569.342,62.4741,-0.64696,0.48722,0.52679
569.842,62.52398,-0.64583,0.50201,0.52654
570.342,62.5739,-0.64657,0.49547,0.52629
570.842,62.6236,-0.64845,0.4999,0.52604
571.342,62.6734,-0.6498,0.51201,0.52579
571.842,62.7232,-0.64952,0.52845,0.52554
572.342,62.77309,-0.64937,0.54648,0.52529
572.842,62.82309,-0.64978,0.62584,0.52504
573.342,62.87294,-0.64978,0.66561,0.52479
573.842,62.92286,-0.65001,0.65893,0.52454
574.342,62.97269,-0.6511,0.64286,0.52429
574.842,63.02244,-0.6511,0.63134,0.52404
575.342,63.07225,-0.65247,0.58972,0.52379
575.842,63.1223,-0.6511,0.57606,0.52354
576.342,63.1723,-0.6511,0.56064,0.52329
576.842,63.2222,-0.65119,0.54122,0.52304
577.342,63.2721,-0.65257,0.51086,0.52279
577.842,63.322,-0.65373,0.50922,0.52254
578.342,63.372,-0.65373,0.47822,0.52229
578.842,63.42176,-0.65374,0.47696,0.52204
579.342,63.4718,-0.65503,0.46842,0.52179
579.842,63.52175,-0.65636,0.46681,0.52154
580.342,63.57159,-0.65636,0.46436,0.52129
580.842,63.62158,-0.65768,0.44259,0.52104
581.342,63.6714,-0.65768,0.43142,0.5208
581.842,63.7214,-0.65722,0.42819,0.52055
582.342,63.77134,-0.65636,0.42338,0.5203
582.842,63.82145,-0.65636,0.40225,0.52005
583.342,63.87154,-0.65636,0.40538,0.5198
583.842,63.9214,-0.65636,0.39174,0.51956
584.342,63.97129,-0.65538,0.38609,0.51931
584.842,64.02131,-0.65538,0.36785,0.51906
585.342,64.07122,-0.65538,0.36245,0.51881
585.842,64.12122,-0.6567,0.36277,0.51857
586.342,64.17121,-0.65812,0.34948,0.51832
586.842,64.22113,-0.65956,0.3459,0.51807
587.342,64.271,-0.66086,0.32865,0.51782
587.842,64.32086,-0.66086,0.32867,0.51758
588.342,64.3708,-0.66086,0.33286,0.51733
588.842,64.42079,-0.66086,0.32697,0.51708
589.342,64.47085,-0.66128,0.30791,0.51684
589.842,64.52079,-0.66361,0.30699,0.51659
590.342,64.57059,-0.66257,0.30977,0.51634
590.842,64.6203,-0.6623,0.29873,0.5161
591.342,64.67,-0.66361,0.29285,0.51585
591.842,64.7197,-0.66362,0.30061,0.51561
592.342,64.76951,-0.66229,0.28139,0.51536
592.842,64.81956,-0.66229,0.27985,0.51511
593.342,64.86944,-0.6636,0.27726,0.51487
593.842,64.9194,-0.66488,0.28283,0.51462
594.342,64.96924,-0.66636,0.28481,0.51438
594.842,65.01913,-0.66766,0.27347,0.51413
595.342,65.069,-0.66769,0.26444,0.51389
595.842,65.11914,-0.66768,0.26479,0.51364
596.342,65.16937,-0.66797,0.26068,0.5134
596.842,65.21932,-0.66867,0.27172,0.51315
597.342,65.26939,-0.66766,0.23549,0.51291
597.842,65.3193,-0.66635,0.23758,0.51267
598.342,65.36904,-0.66725,0.2321,0.51242
598.842,65.41915,-0.66767,0.23801,0.51218
599.342,65.46919,-0.66767,0.24224,0.51193
599.842,65.51918,-0.66768,0.24415,0.51169
600.342,65.56945,-0.66898,0.23999,0.51145
600.842,65.61957,-0.67138,0.24076,0.5112
601.342,65.66978,-0.67303,0.23433,0.51096
601.842,65.71996,-0.67435,0.22561,0.51072
602.342,65.7701,-0.67304,0.21823,0.51047
602.842,65.8201,-0.67172,0.21829,0.51023
603.342,65.87017,-0.6704,0.21226,0.50999
603.842,65.9203,-0.6704,0.19765,0.50974
604.342,65.97049,-0.6711,0.20635,0.5095
604.842,66.02069,-0.67305,0.19616,0.50926
605.342,66.071,-0.67172,0.19759,0.50902
605.842,66.12122,-0.67172,0.20083,0.50878
606.342,66.17156,-0.67172,0.20351,0.50853
606.842,66.2218,-0.67253,0.20985,0.50829
607.342,66.2722,-0.67308,0.20721,0.50805
607.842,66.3224,-0.67172,0.20308,0.50781
608.342,66.37268,-0.67172,0.19652,0.50757
608.842,66.42296,-0.67172,0.21146,0.50733
609.342,66.47325,-0.67172,0.197,0.50709
609.842,66.52356,-0.67172,0.19418,0.50685
610.342,66.57384,-0.67145,0.1775,0.5066
610.842,66.62411,-0.67331,0.17734,0.50636
611.342,66.67446,-0.6745,0.17563,0.50612
611.842,66.72487,-0.67459,0.16495,0.50588
612.342,66.7753,-0.67441,0.16889,0.50564
612.842,66.82587,-0.67231,0.15827,0.5054
613.342,66.87645,-0.67095,0.14883,0.50516
613.842,66.92685,-0.66997,0.14309,0.50492
614.342,66.9774,-0.67272,0.13796,0.50469
614.842,67.02762,-0.67295,0.15527,0.50445
615.342,67.0779,-0.67281,0.15823,0.50421
615.842,67.1281,-0.67414,0.15692,0.50397
616.342,67.17833,-0.67407,0.15006,0.50373
616.842,67.22872,-0.67545,0.15756,0.50349
617.342,67.2791,-0.67487,0.1437,0.50325
617.842,67.32952,-0.67258,0.13728,0.50301
618.342,67.37995,-0.67128,0.12902,0.50278
618.842,67.4302,-0.6726,0.13975,0.50254
619.342,67.48052,-0.67354,0.12452,0.5023
619.842,67.53086,-0.6726,0.12467,0.50206
620.342,67.58109,-0.6726,0.11742,0.50183
620.842,67.63154,-0.6726,0.11093,0.50159
621.342,67.68208,-0.67188,0.11114,0.50135
621.842,67.73257,-0.6713,0.10439,0.50112
622.342,67.78308,-0.67227,0.08980237,0.50088
622.842,67.83359,-0.67227,0.08812498,0.50064
623.342,67.88399,-0.67086,0.08726255,0.50041
623.842,67.93434,-0.67096,0.0837288,0.50017
624.342,67.98482,-0.67087,0.07091197,0.49993
624.842,68.03528,-0.67227,0.06267233,0.4997
625.342,68.08567,-0.67257,0.04745794,0.49946
625.842,68.13606,-0.67483,0.03493382,0.49923
626.342,68.18646,-0.67502,0.04168055,0.49899
626.842,68.2369,-0.67502,0.04831772,0.49876
627.342,68.2873,-0.67632,0.03125256,0.49852
627.842,68.33791,-0.67634,0.03251623,0.49829
628.342,68.38853,-0.67469,0.03284274,0.49805
628.842,68.43906,-0.67337,0.01651399,0.49782
629.342,68.4897,-0.67205,0.009398321,0.49758
629.842,68.54015,-0.67205,0.01690301,0.49735
630.342,68.59068,-0.67337,0.01400202,0.49712
630.842,68.64108,-0.67337,0.01354446,0.49688
631.342,68.69147,-0.67343,0.001686279,0.49665
631.842,68.7418,-0.67469,-0.009912734,0.49642
632.342,68.79224,-0.67604,-0.01195645,0.49618
632.842,68.84264,-0.676,-0.01091406,0.49595
633.342,68.89308,-0.67718,-0.01230348,0.49572
633.842,68.94376,-0.67728,-0.01909322,0.49548
634.342,68.9943,-0.67929,-0.03189539,0.49525
634.842,69.0449,-0.67951,-0.04919811,0.49502
635.342,69.0953,-0.68019,-0.05574848,0.49479
635.842,69.1459,-0.68017,-0.05528782,0.49456
636.342,69.19633,-0.68017,-0.0647812,0.49432
636.842,69.24704,-0.68087,-0.06899267,0.49409
637.342,69.298,-0.68213,-0.06435735,0.49386
637.842,69.3487,-0.68214,-0.07424607,0.49363
638.342,69.39936,-0.68214,-0.07127694,0.4934
638.842,69.44983,-0.68278,-0.07118824,0.49317
639.342,69.5005,-0.68477,-0.08215847,0.49294
639.842,69.5512,-0.68477,-0.10372,0.49271
640.342,69.60205,-0.68477,-0.0827791,0.49248
640.842,69.65295,-0.68477,-0.09275031,0.49225
641.342,69.70368,-0.6861,-0.09774869,0.49202
641.842,69.7543,-0.68609,-0.10457,0.49179
642.342,69.80492,-0.68611,-0.1066,0.49156
642.842,69.85542,-0.68742,-0.11067,0.49133
643.342,69.90601,-0.68881,-0.10552,0.4911
643.842,69.95665,-0.69004,-0.11286,0.49087
644.242,69.99814,-0.69004,-0.11541,0.49069