File: 01_Data/Fiber_Cement_Board/STA/N2/10K_min/Fiber_Cement_Board_STA_N2_10KData_210623_R3.csv
##Temp./Â°C,Time/min,Mass loss(subtr.2)/mg,DSC(subtr.2)/mW,Sensit./(uV/mW)
49.356,10.00917,-0.01273,0.01603969,0.61833
49.956,11.371,-0.01352701,0.09401626,0.61865
50.556,11.7144,-0.0147955,0.15313,0.61897
51.156,11.96311,-0.01149238,0.21417,0.61929
51.756,12.16334,-0.01434272,0.25971,0.6196
52.356,12.33662,-0.01499983,0.29134,0.61992
52.956,12.49572,-0.01435861,0.33348,0.62023
53.556,12.64091,-0.01514948,0.35082,0.62054
54.156,12.77619,-0.01714496,0.38456,0.62085
54.756,12.90116,-0.01688701,0.3985,0.62116
55.356,13.02143,-0.01690671,0.43017,0.62147
55.956,13.1391,-0.01667037,0.454,0.62178
56.556,13.2548,-0.01576618,0.4587,0.62208
57.156,13.36636,-0.01927075,0.5045,0.62238
57.756,13.47299,-0.01799,0.51733,0.62269
58.356,13.57756,-0.01767593,0.53804,0.62299
58.956,13.6796,-0.01788491,0.56411,0.62329
59.556,13.77806,-0.01797464,0.58571,0.62359
60.156,13.87579,-0.01855575,0.60786,0.62389
60.756,13.97264,-0.01913384,0.62091,0.62418
61.356,14.0668,-0.01974974,0.64092,0.62448
61.956,14.15979,-0.01948277,0.6607,0.62477
62.556,14.2508,-0.02044025,0.66734,0.62507
63.156,14.34055,-0.02148089,0.70437,0.62536
63.756,14.42955,-0.02193412,0.71358,0.62565
64.356,14.51741,-0.02200853,0.72244,0.62594
64.956,14.60413,-0.0243243,0.74432,0.62622
65.556,14.6898,-0.02457674,0.76352,0.62651
66.156,14.7743,-0.02455475,0.78525,0.6268
66.756,14.85721,-0.023771,0.80719,0.62708
67.356,14.93971,-0.02587609,0.82978,0.62736
67.956,15.0215,-0.02721482,0.84581,0.62764
68.556,15.1023,-0.02720913,0.8602,0.62793
69.156,15.182,-0.0270213,0.88247,0.6282
69.756,15.26145,-0.02719996,0.90526,0.62848
70.356,15.3402,-0.02851814,0.92349,0.62876
70.956,15.4179,-0.02918045,0.94505,0.62903
71.556,15.49501,-0.02947493,0.96502,0.62931
72.156,15.5711,-0.0298419,0.9783,0.62958
72.756,15.64741,-0.03067648,1.00319,0.62985
73.356,15.72304,-0.03115449,1.02925,0.63012
73.956,15.7982,-0.03115006,1.04941,0.63039
74.556,15.8721,-0.03247679,1.07533,0.63066
75.156,15.9452,-0.03246369,1.10257,0.63093
75.756,16.01755,-0.03379968,1.12169,0.63119
76.356,16.0897,-0.03510008,1.14436,0.63145
76.956,16.16146,-0.0351,1.1625,0.63172
77.556,16.23316,-0.03510149,1.18999,0.63198
78.156,16.30421,-0.03644269,1.20011,0.63224
78.756,16.37479,-0.03772914,1.2202,0.6325
79.356,16.4446,-0.04042046,1.24198,0.63275
79.956,16.51452,-0.03905562,1.2643,0.63301
80.556,16.58488,-0.04036538,1.27859,0.63327
81.156,16.65503,-0.04112285,1.2911,0.63352
81.756,16.72419,-0.04233988,1.31544,0.63377
82.356,16.79245,-0.04233571,1.33286,0.63402
82.956,16.86048,-0.04366031,1.3349,0.63427
83.556,16.9283,-0.04367107,1.36652,0.63452
84.156,16.99587,-0.04530108,1.39135,0.63477
84.756,17.06269,-0.04631609,1.39213,0.63502
85.356,17.12898,-0.04695001,1.41468,0.63526
85.956,17.19482,-0.04823443,1.42369,0.6355
86.556,17.26066,-0.04957797,1.44082,0.63575
87.156,17.32657,-0.05089209,1.46245,0.63599
87.756,17.3922,-0.05084471,1.47559,0.63623
88.356,17.45738,-0.05221069,1.49062,0.63647
88.956,17.52168,-0.05351437,1.50191,0.6367
89.556,17.58641,-0.05619802,1.51225,0.63694
90.156,17.6507,-0.05617004,1.52577,0.63717
90.756,17.71509,-0.05673183,1.55199,0.63741
91.356,17.7787,-0.0574835,1.55903,0.63764
91.956,17.8423,-0.06020375,1.57971,0.63787
92.556,17.90556,-0.06011002,1.58094,0.6381
93.156,17.96872,-0.06010745,1.5872,0.63833
93.756,18.03146,-0.06275524,1.59245,0.63856
94.356,18.09419,-0.06405049,1.6005,0.63878
94.956,18.15675,-0.06404996,1.61913,0.63901
95.556,18.21913,-0.06536772,1.63154,0.63923
96.156,18.2813,-0.06536711,1.63327,0.63945
96.756,18.3432,-0.06668958,1.64585,0.63967
97.356,18.4049,-0.06804102,1.65845,0.63989
97.956,18.46634,-0.06932203,1.66811,0.64011
98.556,18.52744,-0.07064229,1.67735,0.64033
99.156,18.58857,-0.07060971,1.68995,0.64054
99.756,18.64951,-0.07194974,1.69076,0.64076
100.356,18.71061,-0.07329855,1.70713,0.64097
100.956,18.77134,-0.07459047,1.69884,0.64118
101.556,18.83211,-0.07477154,1.70769,0.64139
102.156,18.89285,-0.0772299,1.72589,0.6416
102.756,18.95315,-0.07723,1.73079,0.64181
103.356,19.01357,-0.07722048,1.74491,0.64202
103.956,19.07384,-0.07974873,1.74311,0.64223
104.556,19.1339,-0.08116987,1.73978,0.64243
105.156,19.1939,-0.08122938,1.74843,0.64263
105.756,19.25381,-0.08251342,1.76079,0.64283
106.356,19.31361,-0.08381682,1.76867,0.64304
106.956,19.37329,-0.08502822,1.77431,0.64323
107.556,19.4328,-0.08610007,1.77286,0.64343
108.156,19.49221,-0.08698731,1.78817,0.64363
108.756,19.55159,-0.08904357,1.77454,0.64382
109.356,19.61076,-0.09037917,1.78366,0.64402
109.956,19.6695,-0.09170138,1.79184,0.64421
110.556,19.72864,-0.09198834,1.77973,0.6444
111.156,19.78807,-0.09559566,1.79457,0.64459
111.756,19.84778,-0.09558893,1.7928,0.64478
112.356,19.90739,-0.09688785,1.80428,0.64497
112.956,19.96621,-0.09845438,1.80036,0.64516
113.556,20.02495,-0.09927025,1.80092,0.64534
114.156,20.08359,-0.09923943,1.79318,0.64553
114.756,20.14211,-0.1005,1.80195,0.64571
115.356,20.20044,-0.10091,1.79185,0.64589
115.956,20.25905,-0.10091,1.80094,0.64607
116.556,20.31769,-0.10223,1.80762,0.64625
117.156,20.37592,-0.10224,1.80101,0.64643
117.756,20.43456,-0.10587,1.81048,0.64661
118.356,20.4928,-0.10844,1.80853,0.64678
118.956,20.5506,-0.10893,1.81583,0.64696
119.556,20.60869,-0.11023,1.81899,0.64713
120.156,20.66655,-0.11023,1.82524,0.6473
120.756,20.72436,-0.11156,1.83441,0.64747
121.356,20.78247,-0.11275,1.8234,0.64764
121.956,20.8403,-0.11287,1.81645,0.64781
122.556,20.89811,-0.11277,1.83454,0.64798
123.156,20.95566,-0.1155,1.8322,0.64814
123.756,21.01308,-0.11623,1.82397,0.6483
124.356,21.0703,-0.11758,1.83293,0.64847
124.956,21.12742,-0.11759,1.83108,0.64863
125.556,21.18456,-0.11786,1.84264,0.64879
126.156,21.24185,-0.11935,1.84665,0.64895
126.756,21.29899,-0.12055,1.84059,0.64911
127.356,21.35609,-0.12183,1.85416,0.64926
127.956,21.41297,-0.12251,1.83717,0.64942
128.556,21.46975,-0.12351,1.84036,0.64957
129.156,21.52658,-0.12426,1.84966,0.64972
129.756,21.58319,-0.12615,1.85293,0.64988
130.356,21.63984,-0.12755,1.8533,0.65003
130.956,21.6962,-0.13045,1.85085,0.65018
131.556,21.75248,-0.13431,1.86165,0.65032
132.156,21.80868,-0.13777,1.85103,0.65047
132.756,21.86487,-0.14063,1.85633,0.65062
133.356,21.9211,-0.13951,1.85238,0.65076
133.956,21.97721,-0.13477,1.86159,0.6509
134.556,22.03324,-0.13482,1.85028,0.65104
135.156,22.08933,-0.13481,1.8559,0.65118
135.756,22.14532,-0.13616,1.84537,0.65132
136.356,22.2011,-0.13682,1.85316,0.65146
136.956,22.25679,-0.13886,1.83528,0.6516
137.556,22.31236,-0.1388,1.84825,0.65173
138.156,22.36784,-0.14018,1.83325,0.65187
138.756,22.42355,-0.13918,1.84542,0.652
139.356,22.47916,-0.14018,1.84028,0.65213
139.956,22.53464,-0.13876,1.86255,0.65226
140.556,22.59007,-0.14113,1.84885,0.65239
141.156,22.6454,-0.14161,1.84545,0.65252
141.756,22.70061,-0.14435,1.83844,0.65265
142.356,22.75583,-0.14438,1.85201,0.65277
142.956,22.81101,-0.14721,1.8532,0.6529
143.556,22.86618,-0.14852,1.84672,0.65302
144.156,22.9211,-0.14852,1.85661,0.65314
144.756,22.9762,-0.14852,1.87176,0.65326
145.356,23.03129,-0.14852,1.86094,0.65338
145.956,23.08632,-0.14975,1.86532,0.6535
146.556,23.1413,-0.15123,1.86094,0.65362
147.156,23.19596,-0.15247,1.8691,0.65373
147.756,23.25064,-0.15457,1.87313,0.65384
148.356,23.30519,-0.15642,1.86581,0.65396
148.956,23.36008,-0.15642,1.8664,0.65407
149.556,23.41475,-0.1579,1.88065,0.65418
150.156,23.4695,-0.15806,1.86845,0.65429
150.756,23.52433,-0.16036,1.87399,0.6544
151.356,23.579,-0.16167,1.88489,0.65451
151.956,23.63379,-0.16167,1.88168,0.65461
152.556,23.68841,-0.16391,1.87166,0.65472
153.156,23.74302,-0.16431,1.88164,0.65482
153.756,23.79767,-0.16424,1.87084,0.65492
154.356,23.8522,-0.16563,1.8754,0.65502
154.956,23.90674,-0.16699,1.88551,0.65512
155.556,23.96126,-0.16694,1.87742,0.65522
156.156,24.01565,-0.16833,1.87754,0.65532
156.756,24.07,-0.16826,1.87204,0.65541
157.356,24.12433,-0.17084,1.87882,0.65551
157.956,24.17849,-0.1709,1.876,0.6556
158.556,24.23274,-0.1709,1.87788,0.65569
159.156,24.287,-0.17223,1.88284,0.65578
159.756,24.34132,-0.17353,1.87327,0.65587
160.356,24.39576,-0.17484,1.86722,0.65596
160.956,24.44991,-0.17483,1.86711,0.65605
161.556,24.50385,-0.17615,1.86587,0.65614
162.156,24.5582,-0.17614,1.88067,0.65622
162.756,24.61244,-0.17766,1.87239,0.65631
163.356,24.66706,-0.17831,1.86805,0.65639
163.956,24.72164,-0.17945,1.86149,0.65647
164.556,24.77575,-0.17945,1.85836,0.65655
165.156,24.82996,-0.17945,1.85852,0.65663
165.756,24.8841,-0.18143,1.85619,0.65671
166.356,24.93841,-0.1814,1.85261,0.65678
166.956,24.99268,-0.18369,1.84763,0.65686
167.556,25.0469,-0.18537,1.84581,0.65693
168.156,25.101,-0.18552,1.84449,0.657
168.756,25.1551,-0.188,1.84377,0.65708
169.356,25.2094,-0.188,1.82973,0.65715
169.956,25.26366,-0.188,1.82684,0.65722
170.556,25.3178,-0.188,1.82741,0.65728
171.156,25.37199,-0.18931,1.82811,0.65735
171.756,25.42615,-0.1905,1.82086,0.65742
172.356,25.4802,-0.19063,1.81605,0.65748
172.956,25.53439,-0.19062,1.82824,0.65755
173.556,25.5884,-0.19324,1.82053,0.65761
174.156,25.6424,-0.19235,1.82484,0.65767
174.756,25.69634,-0.19195,1.81727,0.65773
175.356,25.75001,-0.19299,1.82107,0.65779
175.956,25.80406,-0.19459,1.81292,0.65784
176.556,25.85799,-0.19459,1.80168,0.6579
177.156,25.912,-0.19591,1.8003,0.65796
177.756,25.96613,-0.19658,1.81432,0.65801
178.356,26.02,-0.19723,1.80773,0.65806
178.956,26.0741,-0.19915,1.8001,0.65811
179.556,26.12806,-0.19953,1.78446,0.65816
180.156,26.18195,-0.20083,1.79634,0.65821
180.756,26.23582,-0.20084,1.77717,0.65826
181.356,26.28949,-0.20084,1.77681,0.65831
181.956,26.34318,-0.20096,1.7782,0.65835
182.556,26.397,-0.2025,1.76515,0.6584
183.156,26.4508,-0.2038,1.75545,0.65844
183.756,26.50467,-0.20379,1.74671,0.65848
184.356,26.5584,-0.20512,1.75072,0.65852
184.956,26.612,-0.20643,1.74732,0.65856
185.556,26.66553,-0.20645,1.75236,0.6586
186.156,26.7191,-0.20907,1.74679,0.65864
186.756,26.77266,-0.20907,1.73459,0.65868
187.356,26.8263,-0.20907,1.73643,0.65871
187.956,26.87998,-0.2104,1.72037,0.65874
188.556,26.93345,-0.21038,1.72613,0.65878
189.156,26.987,-0.21169,1.71633,0.65881
189.756,27.04062,-0.2117,1.71606,0.65884
190.356,27.09406,-0.21166,1.7211,0.65887
190.956,27.14763,-0.21229,1.70939,0.6589
191.556,27.20107,-0.21365,1.71508,0.65892
192.156,27.2545,-0.21432,1.71693,0.65895
192.756,27.308,-0.21564,1.70858,0.65897
193.356,27.36151,-0.21564,1.71926,0.659
193.956,27.415,-0.21564,1.69878,0.65902
194.556,27.4683,-0.21592,1.69333,0.65904
195.156,27.5218,-0.21663,1.69362,0.65906
195.756,27.57525,-0.21663,1.69568,0.65908
196.356,27.62864,-0.21793,1.68772,0.6591
196.956,27.68215,-0.21924,1.67404,0.65911
197.556,27.73535,-0.22063,1.66031,0.65913
198.156,27.7885,-0.22168,1.67835,0.65914
198.756,27.84147,-0.22168,1.66282,0.65916
199.356,27.8943,-0.22168,1.65035,0.65917
199.956,27.94707,-0.22168,1.65167,0.65918
200.556,28.00013,-0.22168,1.64685,0.65919
201.156,28.0538,-0.22206,1.63218,0.6592
201.756,28.10762,-0.22522,1.63683,0.6592
202.356,28.16178,-0.22519,1.63197,0.65921
202.956,28.2157,-0.22514,1.63201,0.65922
203.556,28.2686,-0.22651,1.61931,0.65922
204.156,28.32211,-0.22651,1.62326,0.65922
204.756,28.37537,-0.22662,1.60885,0.65922
205.356,28.42857,-0.22881,1.60374,0.65922
205.956,28.48225,-0.2288,1.6067,0.65922
206.556,28.53557,-0.23009,1.59135,0.65922
207.156,28.5891,-0.23012,1.59251,0.65922
207.756,28.64235,-0.23012,1.59092,0.65922
208.356,28.69568,-0.23012,1.58414,0.65921
208.956,28.7489,-0.23144,1.58221,0.6592
209.556,28.80197,-0.23144,1.5836,0.6592
210.156,28.8555,-0.23144,1.57914,0.65919
210.756,28.9089,-0.23144,1.57302,0.65918
211.356,28.96235,-0.23181,1.56643,0.65917
211.956,29.016,-0.23307,1.55518,0.65916
212.556,29.06932,-0.23308,1.5591,0.65914
213.156,29.1227,-0.23439,1.54772,0.65913
213.756,29.17608,-0.23605,1.54909,0.65912
214.356,29.22894,-0.23605,1.54187,0.6591
214.956,29.2824,-0.23678,1.53497,0.65908
215.556,29.33568,-0.23671,1.53633,0.65906
216.156,29.38901,-0.23671,1.53969,0.65904
216.756,29.443,-0.23704,1.53749,0.65902
217.356,29.4964,-0.23704,1.52703,0.659
217.956,29.55002,-0.23737,1.51755,0.65898
218.556,29.6034,-0.2376,1.52545,0.65896
219.156,29.65672,-0.23826,1.51731,0.65893
219.756,29.7101,-0.24098,1.5276,0.6589
220.356,29.76339,-0.24098,1.5091,0.65888
220.956,29.81692,-0.24213,1.52001,0.65885
221.556,29.8703,-0.2423,1.50431,0.65882
222.156,29.9238,-0.24231,1.50837,0.65879
222.756,29.97685,-0.24097,1.51809,0.65876
223.356,30.02985,-0.24233,1.49957,0.65873
223.956,30.0831,-0.24357,1.50762,0.65869
224.556,30.1362,-0.24493,1.50071,0.65866
225.156,30.19,-0.24493,1.49461,0.65862
225.756,30.24353,-0.24493,1.4945,0.65858
226.356,30.29686,-0.24607,1.49586,0.65855
226.956,30.3505,-0.24701,1.4965,0.65851
227.556,30.4037,-0.24756,1.4961,0.65847
228.156,30.45672,-0.24755,1.48332,0.65843
228.756,30.50992,-0.24888,1.47926,0.65838
229.356,30.56307,-0.24888,1.48491,0.65834
229.956,30.6164,-0.24888,1.4756,0.6583
230.556,30.67,-0.24891,1.47256,0.65825
231.156,30.72358,-0.2502,1.47765,0.6582
231.756,30.77712,-0.25021,1.4768,0.65816
232.356,30.8306,-0.25152,1.46971,0.65811
232.956,30.8839,-0.25152,1.47086,0.65806
233.556,30.93713,-0.25152,1.47331,0.65801
234.156,30.99029,-0.25152,1.47804,0.65796
234.756,31.04352,-0.25147,1.47596,0.6579
235.356,31.097,-0.25417,1.48275,0.65785
235.956,31.1505,-0.25283,1.47304,0.65779
236.556,31.2036,-0.25283,1.47002,0.65774
237.156,31.2571,-0.25417,1.47617,0.65768
237.756,31.3106,-0.2542,1.47394,0.65762
238.356,31.364,-0.25546,1.47919,0.65756
238.956,31.41793,-0.25679,1.48507,0.6575
239.556,31.47154,-0.25677,1.48209,0.65744
240.156,31.525,-0.25813,1.48584,0.65738
240.756,31.5785,-0.25869,1.49021,0.65732
241.356,31.63192,-0.25941,1.47138,0.65725
241.956,31.6852,-0.2594,1.4805,0.65719
242.556,31.73878,-0.25908,1.48848,0.65712
243.156,31.79232,-0.25798,1.48645,0.65705
243.756,31.8459,-0.25809,1.49215,0.65699
244.356,31.8995,-0.26073,1.48074,0.65692
244.956,31.95303,-0.26069,1.49049,0.65685
245.556,32.00666,-0.26204,1.48566,0.65677
246.156,32.06038,-0.26204,1.48285,0.6567
246.756,32.11408,-0.26204,1.4804,0.65663
247.356,32.16773,-0.26204,1.47885,0.65655
247.956,32.22124,-0.26258,1.47799,0.65648
248.556,32.2747,-0.26468,1.48681,0.6564
249.156,32.32823,-0.26468,1.47941,0.65632
249.756,32.38194,-0.26481,1.48975,0.65625
250.356,32.43571,-0.26731,1.48371,0.65617
250.956,32.48936,-0.26731,1.48031,0.65609
251.556,32.54293,-0.26863,1.48915,0.656
252.156,32.59628,-0.26754,1.47957,0.65592
252.756,32.64974,-0.2673,1.48947,0.65584
253.356,32.70315,-0.26863,1.49265,0.65575
253.956,32.7566,-0.26863,1.48629,0.65567
254.556,32.81022,-0.26961,1.48979,0.65558
255.156,32.86376,-0.27092,1.49296,0.65549
255.756,32.9174,-0.27211,1.49609,0.65541
256.356,32.97105,-0.27228,1.49202,0.65532
256.956,33.0244,-0.27175,1.50511,0.65523
257.556,33.0779,-0.27258,1.49127,0.65513
258.156,33.13146,-0.2739,1.50742,0.65504
258.756,33.18512,-0.27389,1.50945,0.65495
259.356,33.2389,-0.27389,1.49707,0.65485
259.956,33.2926,-0.27514,1.50748,0.65476
260.556,33.34623,-0.27652,1.51921,0.65466
261.156,33.3998,-0.27651,1.51036,0.65457
261.756,33.45327,-0.27784,1.50765,0.65447
262.356,33.50669,-0.27907,1.51341,0.65437
262.956,33.56024,-0.28047,1.52032,0.65427
263.556,33.61353,-0.27974,1.52023,0.65417
264.156,33.66722,-0.27981,1.51061,0.65406
264.756,33.721,-0.28062,1.52433,0.65396
265.356,33.77471,-0.28239,1.53894,0.65386
265.956,33.82875,-0.28244,1.53911,0.65375
266.556,33.88231,-0.28345,1.5278,0.65365
267.156,33.93594,-0.28472,1.54641,0.65354
267.756,33.9896,-0.28475,1.55501,0.65343
268.356,34.0432,-0.28495,1.53654,0.65332
268.956,34.097,-0.28606,1.56519,0.65321
269.556,34.15064,-0.28606,1.55477,0.6531
270.156,34.20434,-0.28606,1.56354,0.65299
270.756,34.25804,-0.28607,1.55304,0.65288
271.356,34.3118,-0.28738,1.56328,0.65276
271.956,34.36553,-0.2875,1.57576,0.65265
272.556,34.41921,-0.28969,1.58426,0.65253
273.156,34.4732,-0.29034,1.58707,0.65242
273.756,34.5268,-0.29148,1.58987,0.6523
274.356,34.58048,-0.29299,1.59281,0.65218
274.956,34.63428,-0.29424,1.59268,0.65206
275.556,34.6879,-0.2956,1.60526,0.65194
276.156,34.74178,-0.2956,1.60773,0.65182
276.756,34.79554,-0.29688,1.60782,0.6517
277.356,34.84912,-0.29791,1.60881,0.65158
277.956,34.90278,-0.29791,1.61224,0.65145
278.556,34.9563,-0.29922,1.62746,0.65133
279.156,35.01014,-0.29923,1.63685,0.6512
279.756,35.0642,-0.30059,1.63701,0.65108
280.356,35.11808,-0.30197,1.64858,0.65095
280.956,35.17219,-0.30251,1.65009,0.65082
281.556,35.22613,-0.30295,1.64277,0.65069
282.156,35.28003,-0.30326,1.65613,0.65056
282.756,35.33392,-0.30373,1.66677,0.65043
283.356,35.3879,-0.30461,1.66326,0.6503
283.956,35.44185,-0.30519,1.66988,0.65017
284.556,35.49568,-0.30692,1.67282,0.65003
285.156,35.54973,-0.30855,1.68628,0.6499
285.756,35.6037,-0.30995,1.68282,0.64976
286.356,35.65762,-0.30982,1.68392,0.64963
286.956,35.7117,-0.31138,1.68174,0.64949
287.556,35.76582,-0.3125,1.68316,0.64935
288.156,35.81994,-0.31383,1.68643,0.64921
288.756,35.87417,-0.31381,1.69376,0.64907
289.356,35.92836,-0.31483,1.70012,0.64893
289.956,35.98229,-0.31529,1.70869,0.64879
290.556,36.03637,-0.31665,1.69716,0.64865
291.156,36.09035,-0.31798,1.69945,0.6485
291.756,36.14445,-0.31911,1.69995,0.64836
292.356,36.1987,-0.32072,1.71237,0.64821
292.956,36.25274,-0.32072,1.71009,0.64807
293.556,36.30689,-0.32205,1.71378,0.64792
294.156,36.36101,-0.32277,1.71579,0.64777
294.756,36.41499,-0.3227,1.73063,0.64763
295.356,36.46903,-0.32401,1.72971,0.64748
295.956,36.52265,-0.32538,1.72108,0.64733
296.556,36.5768,-0.32527,1.72741,0.64718
297.156,36.63105,-0.32768,1.72927,0.64702
297.756,36.6854,-0.32932,1.73278,0.64687
298.356,36.73999,-0.32933,1.73187,0.64672
298.956,36.79417,-0.33055,1.73863,0.64656
299.556,36.84836,-0.33191,1.72975,0.64641
300.156,36.90269,-0.33286,1.72894,0.64625
300.756,36.9569,-0.33444,1.72486,0.64609
301.356,37.01125,-0.33331,1.73375,0.64594
301.956,37.0655,-0.33616,1.74456,0.64578
302.556,37.11954,-0.33739,1.74217,0.64562
303.156,37.17366,-0.33744,1.74057,0.64546
303.756,37.2278,-0.34002,1.73078,0.6453
304.356,37.282,-0.34133,1.73074,0.64513
304.956,37.33633,-0.34288,1.7333,0.64497
305.556,37.3906,-0.3442,1.73739,0.64481
306.156,37.44505,-0.34515,1.72182,0.64464
306.756,37.49955,-0.34587,1.72136,0.64448
307.356,37.55368,-0.34683,1.72195,0.64431
307.956,37.60805,-0.34814,1.72545,0.64415
308.556,37.66243,-0.34945,1.72574,0.64398
309.156,37.71663,-0.34937,1.7252,0.64381
309.756,37.77115,-0.35164,1.72268,0.64364
310.356,37.82533,-0.35367,1.71316,0.64347
310.956,37.8796,-0.35495,1.70719,0.6433
311.556,37.934,-0.35632,1.71085,0.64313
312.156,37.98836,-0.35496,1.71395,0.64296
312.756,38.04286,-0.35775,1.71569,0.64278
313.356,38.0972,-0.35901,1.7265,0.64261
313.956,38.15167,-0.36186,1.72251,0.64243
314.556,38.20599,-0.36244,1.73254,0.64226
315.156,38.26041,-0.36245,1.72107,0.64208
315.756,38.31471,-0.36371,1.72218,0.6419
316.356,38.36906,-0.36602,1.71563,0.64173
316.956,38.42365,-0.3676,1.71509,0.64155
317.556,38.47821,-0.36899,1.71813,0.64137
318.156,38.53281,-0.37002,1.70381,0.64119
318.756,38.5872,-0.3703,1.70032,0.64101
319.356,38.64144,-0.37317,1.7052,0.64082
319.956,38.69579,-0.37469,1.69701,0.64064
320.556,38.7502,-0.37679,1.69158,0.64046
321.156,38.80473,-0.37677,1.69157,0.64027
321.756,38.85927,-0.37809,1.68421,0.64009
322.356,38.91389,-0.37938,1.67894,0.6399
322.956,38.96847,-0.38074,1.67832,0.63972
323.556,39.0229,-0.38216,1.69158,0.63953
324.156,39.07748,-0.38348,1.68266,0.63934
324.756,39.132,-0.38523,1.68336,0.63915
325.356,39.18662,-0.38632,1.67384,0.63897
325.956,39.24123,-0.38765,1.66863,0.63878
326.556,39.29586,-0.38892,1.6549,0.63858
327.156,39.35038,-0.39038,1.67107,0.63839
327.756,39.40506,-0.39253,1.65777,0.6382
328.356,39.45964,-0.39488,1.65495,0.63801
328.956,39.51449,-0.3954,1.64483,0.63781
329.556,39.56933,-0.39883,1.6453,0.63762
330.156,39.62424,-0.39922,1.64022,0.63742
330.756,39.67915,-0.40025,1.63669,0.63723
331.356,39.734,-0.40109,1.64067,0.63703
331.956,39.7889,-0.40157,1.6436,0.63683
332.556,39.8437,-0.40419,1.64438,0.63664
333.156,39.8985,-0.40559,1.63121,0.63644
333.756,39.95322,-0.40847,1.64384,0.63624
334.356,40.00786,-0.40981,1.6396,0.63604
334.956,40.06227,-0.41245,1.63208,0.63584
335.556,40.11697,-0.41384,1.63788,0.63564
336.156,40.1717,-0.41518,1.63028,0.63543
336.756,40.22672,-0.4155,1.62695,0.63523
337.356,40.2819,-0.41681,1.61783,0.63503
337.956,40.33644,-0.41963,1.62751,0.63482
338.556,40.39147,-0.42227,1.6341,0.63462
339.156,40.44641,-0.42541,1.62331,0.63441
339.756,40.50156,-0.42558,1.62108,0.6342
340.356,40.55683,-0.42706,1.62021,0.634
340.956,40.61186,-0.42704,1.61637,0.63379
341.556,40.66688,-0.42835,1.61888,0.63358
342.156,40.7218,-0.43139,1.6142,0.63337
342.756,40.7767,-0.43456,1.6148,0.63316
343.356,40.83167,-0.43699,1.61458,0.63295
343.956,40.88658,-0.43782,1.60831,0.63274
344.556,40.94153,-0.43775,1.61785,0.63253
345.156,40.99643,-0.43899,1.60174,0.63232
345.756,41.05124,-0.44086,1.59021,0.6321
346.356,41.10626,-0.44448,1.60875,0.63189
346.956,41.1612,-0.44751,1.60446,0.63167
347.556,41.2157,-0.44724,1.59596,0.63146
348.156,41.2707,-0.44904,1.5914,0.63124
348.756,41.3255,-0.45068,1.60191,0.63103
349.356,41.38069,-0.45341,1.58847,0.63081
349.956,41.43619,-0.45535,1.59516,0.63059
350.556,41.49125,-0.45653,1.60137,0.63037
351.156,41.5464,-0.4592,1.60094,0.63015
351.756,41.60139,-0.46097,1.60112,0.62993
352.356,41.6563,-0.46303,1.60841,0.62971
352.956,41.71132,-0.46443,1.60434,0.62949
353.556,41.76625,-0.46704,1.5878,0.62927
354.156,41.82119,-0.46867,1.5751,0.62905
354.756,41.87617,-0.47162,1.58275,0.62883
355.356,41.9313,-0.47443,1.5928,0.6286
355.956,41.98659,-0.47611,1.59406,0.62838
356.556,42.04205,-0.47789,1.58197,0.62815
357.156,42.0974,-0.47948,1.57563,0.62793
357.756,42.15256,-0.48224,1.58198,0.6277
358.356,42.20792,-0.48393,1.5804,0.62748
358.956,42.26312,-0.48543,1.58571,0.62725
359.556,42.31834,-0.48685,1.5695,0.62702
360.156,42.37373,-0.48898,1.58,0.62679
360.756,42.42902,-0.49238,1.58178,0.62656
361.356,42.48437,-0.49479,1.57888,0.62633
361.956,42.53991,-0.49682,1.57183,0.6261
362.556,42.59532,-0.49808,1.57091,0.62587
363.156,42.6507,-0.50029,1.54998,0.62564
363.756,42.70598,-0.50228,1.5491,0.62541
364.356,42.76148,-0.50519,1.54477,0.62518
364.956,42.81691,-0.50709,1.54169,0.62494
365.556,42.87249,-0.50982,1.55,0.62471
366.156,42.92818,-0.51006,1.53474,0.62447
366.756,42.98366,-0.5127,1.52597,0.62424
367.356,43.03911,-0.51443,1.51857,0.624
367.956,43.09447,-0.51755,1.51802,0.62377
368.556,43.1498,-0.52017,1.49643,0.62353
369.156,43.20532,-0.52209,1.50441,0.62329
369.756,43.26082,-0.52255,1.49661,0.62306
370.356,43.31626,-0.52542,1.49316,0.62282
370.956,43.3718,-0.52802,1.48467,0.62258
371.556,43.42742,-0.52808,1.47403,0.62234
372.156,43.4831,-0.52952,1.47058,0.6221
372.756,43.53888,-0.53219,1.46123,0.62186
373.356,43.59451,-0.53355,1.4674,0.62162
373.956,43.65012,-0.53547,1.44944,0.62138
374.556,43.7057,-0.53675,1.42999,0.62113
375.156,43.76122,-0.53784,1.4287,0.62089
375.756,43.81689,-0.5405,1.41918,0.62065
376.356,43.87267,-0.54086,1.41189,0.6204
376.956,43.92846,-0.5446,1.41282,0.62016
377.556,43.98429,-0.54598,1.40023,0.61991
378.156,44.03994,-0.54603,1.38742,0.61967
378.756,44.09559,-0.54613,1.37261,0.61942
379.356,44.1513,-0.54752,1.36829,0.61917
379.956,44.20708,-0.5483,1.35836,0.61893
380.556,44.2629,-0.55016,1.3469,0.61868
381.156,44.31858,-0.55019,1.34332,0.61843
381.756,44.3743,-0.55159,1.32735,0.61818
382.356,44.43002,-0.55282,1.32152,0.61793
382.956,44.4859,-0.55381,1.31812,0.61768
383.556,44.54176,-0.55381,1.3243,0.61743
384.156,44.59766,-0.55511,1.31791,0.61718
384.756,44.65356,-0.55644,1.31562,0.61693
385.356,44.70943,-0.55646,1.30767,0.61668
385.956,44.7652,-0.55706,1.30867,0.61643
386.556,44.8211,-0.55893,1.31087,0.61617
387.156,44.87695,-0.55974,1.30472,0.61592
387.756,44.93277,-0.55847,1.28646,0.61567
388.356,44.98854,-0.55908,1.29062,0.61541
388.956,45.04432,-0.55908,1.30521,0.61516
389.556,45.1001,-0.56044,1.27643,0.6149
390.156,45.15599,-0.56039,1.28178,0.61465
390.756,45.2119,-0.55907,1.26635,0.61439
391.356,45.26786,-0.56039,1.27499,0.61413
391.956,45.32382,-0.56041,1.27988,0.61388
392.556,45.3797,-0.5617,1.27076,0.61362
393.156,45.4357,-0.56404,1.2682,0.61336
393.756,45.49167,-0.56434,1.26527,0.6131
394.356,45.5477,-0.56434,1.26763,0.61284
394.956,45.6036,-0.56434,1.27805,0.61258
395.556,45.6597,-0.56565,1.26588,0.61232
396.156,45.716,-0.56566,1.25492,0.61206
396.756,45.77235,-0.56566,1.26061,0.6118
397.356,45.8287,-0.56435,1.25463,0.61154
397.956,45.88492,-0.56567,1.25552,0.61128
398.556,45.94127,-0.56697,1.24435,0.61102
399.156,45.99771,-0.56697,1.23508,0.61075
399.756,46.05415,-0.56698,1.23801,0.61049
400.356,46.11047,-0.56895,1.2318,0.61023
400.956,46.16663,-0.57006,1.218,0.60996
401.556,46.22296,-0.57026,1.23164,0.6097
402.156,46.27923,-0.57126,1.23814,0.60943
402.756,46.33556,-0.57158,1.22417,0.60917
403.356,46.39182,-0.57158,1.2189,0.6089
403.956,46.44812,-0.57128,1.22311,0.60864
404.556,46.50447,-0.57261,1.22979,0.60837
405.156,46.5608,-0.57256,1.22087,0.6081
405.756,46.61705,-0.57519,1.23189,0.60783
406.356,46.67348,-0.57396,1.22913,0.60757
406.956,46.72992,-0.57519,1.21531,0.6073
407.556,46.78631,-0.5752,1.20175,0.60703
408.156,46.84287,-0.57521,1.21875,0.60676
408.756,46.89924,-0.57651,1.1976,0.60649
409.356,46.95565,-0.57717,1.20096,0.60622
409.956,47.012,-0.57717,1.19811,0.60595
410.556,47.06845,-0.57784,1.19798,0.60568
411.156,47.12492,-0.57915,1.1924,0.60541
411.756,47.18143,-0.57932,1.18905,0.60514
412.356,47.23802,-0.58046,1.18936,0.60486
412.956,47.29436,-0.58046,1.1917,0.60459
413.556,47.35095,-0.58127,1.18782,0.60432
414.156,47.40735,-0.58178,1.18421,0.60405
414.756,47.46379,-0.58243,1.19103,0.60377
415.356,47.52024,-0.58243,1.17955,0.6035
415.956,47.57669,-0.58356,1.17068,0.60322
416.556,47.63335,-0.58308,1.17321,0.60295
417.156,47.69,-0.58308,1.17188,0.60267
417.756,47.74666,-0.58441,1.16078,0.6024
418.356,47.8032,-0.58441,1.16596,0.60212
418.956,47.85974,-0.58441,1.16373,0.60185
419.556,47.9162,-0.58441,1.16779,0.60157
420.156,47.9727,-0.58441,1.16891,0.60129
420.756,48.02939,-0.58609,1.1829,0.60101
421.356,48.0861,-0.58717,1.16494,0.60074
421.956,48.14287,-0.58835,1.15331,0.60046
422.556,48.19938,-0.58835,1.16329,0.60018
423.156,48.25608,-0.58868,1.16244,0.5999
423.756,48.31285,-0.58969,1.15887,0.59962
424.356,48.36953,-0.59003,1.17763,0.59934
424.956,48.42648,-0.59096,1.15901,0.59906
425.556,48.48315,-0.59236,1.16718,0.59878
426.156,48.53999,-0.59372,1.15981,0.5985
426.756,48.59681,-0.59505,1.15359,0.59822
427.356,48.65356,-0.59483,1.15234,0.59794
427.956,48.71031,-0.59373,1.14403,0.59766
428.556,48.76706,-0.59422,1.15075,0.59738
429.156,48.82382,-0.59501,1.15521,0.59709
429.756,48.88069,-0.59636,1.14478,0.59681
430.356,48.9375,-0.59636,1.138,0.59653
430.956,48.99412,-0.59631,1.13967,0.59624
431.556,49.05085,-0.59768,1.14382,0.59596
432.156,49.1078,-0.5971,1.12898,0.59568
432.756,49.1648,-0.59703,1.12104,0.59539
433.356,49.22184,-0.59715,1.13129,0.59511
433.956,49.27883,-0.59832,1.12368,0.59482
434.556,49.33567,-0.60045,1.12304,0.59454
435.156,49.3926,-0.60064,1.12047,0.59425
435.756,49.44941,-0.60197,1.11879,0.59397
436.356,49.50631,-0.60196,1.11726,0.59368
436.956,49.5633,-0.60196,1.11518,0.5934
437.556,49.62027,-0.60196,1.10204,0.59311
438.156,49.6774,-0.60196,1.10607,0.59282
438.756,49.73434,-0.60371,1.10973,0.59253
439.356,49.79142,-0.60458,1.1171,0.59225
439.956,49.84863,-0.60493,1.09283,0.59196
440.556,49.90575,-0.60631,1.10132,0.59167
441.156,49.9631,-0.60624,1.10672,0.59138
441.756,50.02028,-0.60624,1.10933,0.59109
442.356,50.0775,-0.6072,1.10386,0.5908
442.956,50.13479,-0.60862,1.09999,0.59052
443.556,50.19194,-0.6086,1.10285,0.59023
444.156,50.24927,-0.60919,1.08365,0.58994
444.756,50.30652,-0.60854,1.0885,0.58965
445.356,50.3639,-0.60854,1.08673,0.58936
445.956,50.42135,-0.60908,1.08081,0.58906
446.556,50.4788,-0.60986,1.08951,0.58877
447.156,50.53632,-0.60985,1.08152,0.58848
447.756,50.59365,-0.61118,1.08484,0.58819
448.356,50.65085,-0.61167,1.08626,0.5879
448.956,50.70821,-0.61249,1.09119,0.58761
449.556,50.76562,-0.61249,1.07577,0.58732
450.156,50.82312,-0.61249,1.06559,0.58702
450.756,50.8805,-0.61249,1.07264,0.58673
451.356,50.9377,-0.61381,1.07525,0.58644
451.956,50.9949,-0.61514,1.05037,0.58614
452.556,51.05196,-0.61508,1.04805,0.58585
453.156,51.1092,-0.61644,1.05017,0.58556
453.756,51.16669,-0.61689,1.02582,0.58526
454.356,51.22456,-0.61659,1.03602,0.58497
454.956,51.28243,-0.6178,1.03406,0.58468
455.556,51.3401,-0.61775,1.037,0.58438
456.156,51.3973,-0.61906,1.02809,0.58409
456.756,51.45485,-0.6204,1.03178,0.58379
457.356,51.51226,-0.62039,1.03352,0.5835
457.956,51.5698,-0.62143,1.01476,0.5832
458.556,51.62749,-0.62172,1.01019,0.5829
459.156,51.6849,-0.62302,1.00474,0.58261
459.756,51.7424,-0.62303,0.99662,0.58231
460.356,51.7999,-0.62532,0.98657,0.58202
460.956,51.85745,-0.62532,0.98455,0.58172
461.556,51.915,-0.62413,0.98679,0.58142
462.156,51.97282,-0.62436,0.98031,0.58113
462.756,52.0306,-0.62568,0.97966,0.58083
463.356,52.08825,-0.625,0.98101,0.58053
463.956,52.14583,-0.62454,0.99613,0.58023
464.556,52.2036,-0.62556,0.98402,0.57994
465.156,52.26148,-0.6262,0.97742,0.57964
465.756,52.31933,-0.62664,0.98367,0.57934
466.356,52.37708,-0.62664,0.97063,0.57904
466.956,52.43461,-0.62665,0.98272,0.57874
467.556,52.4922,-0.62795,0.97703,0.57844
468.156,52.54975,-0.62795,0.97631,0.57815
468.756,52.60711,-0.63055,0.973,0.57785
469.356,52.66444,-0.63059,0.96807,0.57755
469.956,52.7218,-0.62923,0.97693,0.57725
470.556,52.77975,-0.63059,0.98077,0.57695
471.156,52.83752,-0.6308,0.97022,0.57665
471.756,52.89585,-0.6319,0.97361,0.57635
472.356,52.954,-0.6319,0.96822,0.57605
472.956,53.01175,-0.63249,0.97325,0.57575
473.556,53.07,-0.63322,0.96124,0.57545
474.156,53.1278,-0.63322,0.95885,0.57515
474.756,53.18564,-0.63321,0.96476,0.57485
475.356,53.24358,-0.63454,0.96451,0.57455
475.956,53.3014,-0.6347,0.95494,0.57424
476.556,53.3591,-0.63585,0.95442,0.57394
477.156,53.41701,-0.63716,0.94372,0.57364
477.756,53.475,-0.63717,0.95237,0.57334
478.356,53.53295,-0.63717,0.93883,0.57304
478.956,53.59085,-0.63717,0.95146,0.57274
479.556,53.6486,-0.63848,0.94839,0.57243
480.156,53.70646,-0.63847,0.94601,0.57213
480.756,53.7644,-0.6398,0.94037,0.57183
481.356,53.82251,-0.6398,0.94774,0.57153
481.956,53.8807,-0.6398,0.92487,0.57123
482.556,53.93881,-0.6411,0.91815,0.57092
483.156,53.99663,-0.64,0.92801,0.57062
483.756,54.05465,-0.64112,0.92073,0.57032
484.356,54.1126,-0.64175,0.91363,0.57001
484.956,54.1706,-0.64177,0.91361,0.56971
485.556,54.22846,-0.64178,0.90845,0.56941
486.156,54.28641,-0.64309,0.90427,0.5691
486.756,54.3443,-0.64311,0.90846,0.5688
487.356,54.4023,-0.64516,0.90046,0.5685
487.956,54.4604,-0.64525,0.89978,0.56819
488.556,54.5183,-0.64649,0.90418,0.56789
489.156,54.5763,-0.64519,0.898,0.56759
489.756,54.63415,-0.64517,0.88245,0.56728
490.356,54.6922,-0.64542,0.89047,0.56698
490.956,54.75017,-0.64691,0.88208,0.56667
491.556,54.80828,-0.64913,0.87817,0.56637
492.156,54.86645,-0.64812,0.87885,0.56606
492.756,54.92451,-0.64813,0.87165,0.56576
493.356,54.98275,-0.64816,0.86939,0.56546
493.956,55.0411,-0.64945,0.86092,0.56515
494.556,55.09919,-0.64945,0.85904,0.56485
495.156,55.1576,-0.64945,0.83774,0.56454
495.756,55.2158,-0.64945,0.84643,0.56424
496.356,55.27406,-0.64951,0.84417,0.56393
496.956,55.3324,-0.65077,0.84244,0.56363
497.556,55.39063,-0.65212,0.82805,0.56332
498.156,55.4491,-0.65362,0.82386,0.56301
498.756,55.5074,-0.65362,0.8284,0.56271
499.356,55.5656,-0.65399,0.82932,0.5624
499.956,55.62405,-0.65493,0.8253,0.5621
500.556,55.6824,-0.65612,0.81921,0.56179
501.156,55.74097,-0.65627,0.82942,0.56149
501.756,55.79984,-0.65493,0.81106,0.56118
502.356,55.8582,-0.65635,0.81308,0.56088
502.956,55.9166,-0.65768,0.8168,0.56057
503.556,55.9749,-0.65768,0.81834,0.56026
504.156,56.0333,-0.65768,0.81814,0.55996
504.756,56.09165,-0.65664,0.81279,0.55965
505.356,56.1501,-0.65903,0.81391,0.55935
505.956,56.20853,-0.659,0.81613,0.55904
506.556,56.26699,-0.65918,0.81104,0.55873
507.156,56.3254,-0.66161,0.80774,0.55843
507.756,56.38384,-0.66162,0.82523,0.55812
508.356,56.4421,-0.66162,0.82146,0.55781
508.956,56.50054,-0.66271,0.80982,0.55751
509.556,56.55896,-0.66229,0.80109,0.5572
510.156,56.6175,-0.66229,0.80806,0.5569
510.756,56.676,-0.66229,0.81275,0.55659
511.356,56.7345,-0.66366,0.81181,0.55628
511.956,56.793,-0.66361,0.80271,0.55598
512.556,56.85128,-0.6636,0.80229,0.55567
513.156,56.90961,-0.66557,0.80637,0.55536
513.756,56.96807,-0.66554,0.79972,0.55506
514.356,57.0266,-0.66665,0.80144,0.55475
514.956,57.08506,-0.6669,0.79056,0.55444
515.556,57.1437,-0.6669,0.77513,0.55414
516.156,57.20242,-0.6682,0.77288,0.55383
516.756,57.26118,-0.66956,0.78275,0.55352
517.356,57.31983,-0.66952,0.771,0.55322
517.956,57.3784,-0.66954,0.77694,0.55291
518.556,57.4371,-0.66955,0.77916,0.5526
519.156,57.4958,-0.67084,0.78322,0.5523
519.756,57.5545,-0.67089,0.77691,0.55199
520.356,57.6133,-0.67089,0.75887,0.55168
520.956,57.67205,-0.67215,0.75161,0.55138
521.556,57.7311,-0.67347,0.75398,0.55107
522.156,57.78994,-0.67247,0.74072,0.55076
522.756,57.8488,-0.6725,0.7403,0.55046
523.356,57.9076,-0.67404,0.73225,0.55015
523.956,57.96663,-0.67581,0.7297,0.54984
524.556,58.02575,-0.67578,0.72685,0.54953
525.156,58.0848,-0.67448,0.72594,0.54923
525.756,58.14383,-0.67425,0.73119,0.54892
526.356,58.2027,-0.67446,0.72386,0.54861
526.956,58.2616,-0.67503,0.72471,0.54831
527.556,58.32042,-0.67578,0.71103,0.548
528.156,58.37924,-0.6771,0.71743,0.54769
528.756,58.43818,-0.67852,0.71107,0.54739
529.356,58.4972,-0.67885,0.71628,0.54708
529.956,58.5562,-0.68018,0.70801,0.54677
530.556,58.615,-0.6805,0.72041,0.54647
531.156,58.674,-0.6805,0.72428,0.54616
531.756,58.73305,-0.6805,0.71864,0.54585
532.356,58.7921,-0.6805,0.72997,0.54555
532.956,58.85116,-0.68182,0.71723,0.54524
533.556,58.9101,-0.68313,0.71867,0.54494
534.156,58.96911,-0.68313,0.71163,0.54463
534.756,59.0281,-0.68247,0.72193,0.54432
535.356,59.08706,-0.68326,0.72606,0.54402
535.956,59.1462,-0.68379,0.72828,0.54371
536.556,59.2051,-0.68379,0.7147,0.5434
537.156,59.26416,-0.68379,0.71684,0.5431
537.756,59.3232,-0.68379,0.71991,0.54279
538.356,59.3823,-0.68393,0.72816,0.54249
538.956,59.44177,-0.68661,0.71814,0.54218
539.556,59.5008,-0.68664,0.72332,0.54187
540.156,59.55989,-0.68795,0.71441,0.54157
540.756,59.619,-0.68795,0.71476,0.54126
541.356,59.67808,-0.68894,0.71899,0.54096
541.956,59.7372,-0.68886,0.70026,0.54065
542.556,59.79642,-0.69026,0.70947,0.54035
543.156,59.85578,-0.69025,0.69288,0.54004
543.756,59.91497,-0.69018,0.69339,0.53973
544.356,59.9743,-0.69026,0.68392,0.53943
544.956,60.0334,-0.69025,0.65986,0.53912
545.556,60.0924,-0.69157,0.68074,0.53882
546.156,60.1514,-0.69157,0.68551,0.53851
546.756,60.21034,-0.69157,0.67505,0.53821
547.356,60.26945,-0.69157,0.66101,0.5379
547.956,60.3287,-0.6929,0.6528,0.5376
548.556,60.38819,-0.69421,0.66073,0.53729
549.156,60.4476,-0.69421,0.64376,0.53699
549.756,60.50705,-0.69421,0.64769,0.53668
550.356,60.5662,-0.69421,0.67422,0.53638
550.956,60.62549,-0.69456,0.66154,0.53607
551.556,60.68473,-0.69553,0.65967,0.53577
552.156,60.7444,-0.69684,0.66184,0.53546
552.756,60.80369,-0.69684,0.6842,0.53516
553.356,60.8631,-0.69684,0.67009,0.53486
553.956,60.92244,-0.69815,0.67475,0.53455
554.556,60.98185,-0.69949,0.67663,0.53425
555.156,61.0413,-0.70079,0.67841,0.53394
555.756,61.10065,-0.70073,0.68337,0.53364
556.356,61.1601,-0.69989,0.69309,0.53334
556.956,61.2195,-0.70079,0.69,0.53303
557.556,61.27904,-0.7021,0.68322,0.53273
558.156,61.33849,-0.70148,0.67084,0.53243
558.756,61.39806,-0.70243,0.65816,0.53212
559.356,61.45766,-0.70374,0.66214,0.53182
559.956,61.51716,-0.70375,0.66313,0.53152
560.556,61.57685,-0.70496,0.65001,0.53121
561.156,61.6364,-0.70506,0.65608,0.53091
561.756,61.6961,-0.70399,0.64664,0.53061
562.356,61.75569,-0.70506,0.64074,0.5303
562.956,61.8152,-0.70506,0.62413,0.53
563.556,61.8748,-0.70636,0.63028,0.5297
564.156,61.93461,-0.70737,0.60165,0.5294
564.756,61.9943,-0.70738,0.60685,0.52909
565.356,62.05392,-0.70871,0.58476,0.52879
565.956,62.11368,-0.70801,0.60461,0.52849
566.556,62.1733,-0.70864,0.60121,0.52819
567.156,62.23284,-0.70868,0.61243,0.52789
567.756,62.29234,-0.70899,0.62002,0.52759
568.356,62.35182,-0.71099,0.61223,0.52728
568.956,62.4116,-0.70963,0.62499,0.52698
569.556,62.4713,-0.70968,0.62927,0.52668
570.156,62.53114,-0.70969,0.62858,0.52638
570.756,62.59081,-0.711,0.64856,0.52608
571.356,62.6504,-0.71231,0.65306,0.52578
571.956,62.7101,-0.71271,0.68759,0.52548
572.556,62.7698,-0.71363,0.73255,0.52518
573.156,62.82956,-0.71362,0.79806,0.52488
573.756,62.8896,-0.71494,0.813,0.52458
574.356,62.94953,-0.71229,0.7888,0.52428
574.956,63.0093,-0.7123,0.77316,0.52398
575.556,63.0691,-0.71428,0.75471,0.52368
576.156,63.12885,-0.71428,0.72617,0.52338
576.756,63.18855,-0.71428,0.70778,0.52308
577.356,63.24836,-0.71869,0.65684,0.52278
577.956,63.30811,-0.71941,0.65031,0.52248
578.556,63.3679,-0.71089,0.6579,0.52218
579.156,63.42768,-0.71653,0.61614,0.52188
579.756,63.48743,-0.71801,0.62221,0.52158
580.356,63.5474,-0.71801,0.6154,0.52129
580.956,63.6072,-0.71834,0.609,0.52099
581.556,63.667,-0.71833,0.59546,0.52069
582.156,63.7268,-0.71966,0.59003,0.52039
582.756,63.78657,-0.71957,0.58342,0.52009
583.356,63.84616,-0.72098,0.58255,0.5198
583.956,63.9061,-0.71963,0.59408,0.5195
584.556,63.96589,-0.71832,0.569,0.5192
585.156,64.026,-0.71965,0.57237,0.5189
585.756,64.086,-0.71965,0.56782,0.51861
586.356,64.14587,-0.72096,0.58018,0.51831
586.956,64.20594,-0.72098,0.56266,0.51801
587.556,64.2659,-0.71978,0.56691,0.51772
588.156,64.3258,-0.72096,0.5619,0.51742
588.756,64.38535,-0.72097,0.5694,0.51713
589.356,64.4453,-0.72294,0.57148,0.51683
589.956,64.50522,-0.72247,0.56568,0.51653
590.556,64.56532,-0.72228,0.56031,0.51624
591.156,64.62527,-0.72098,0.56482,0.51594
591.756,64.68508,-0.72225,0.56318,0.51565
592.356,64.74502,-0.72294,0.5702,0.51535
592.956,64.80498,-0.72326,0.56364,0.51506
593.556,64.86511,-0.72426,0.56632,0.51476
594.156,64.925,-0.7248,0.55876,0.51447
594.756,64.98504,-0.72676,0.5532,0.51418
595.356,65.04513,-0.7257,0.55337,0.51388
595.956,65.10531,-0.72569,0.56696,0.51359
596.556,65.16541,-0.72569,0.56012,0.51329
597.156,65.22553,-0.72504,0.55048,0.513
597.756,65.28546,-0.72617,0.56352,0.51271
598.356,65.34573,-0.72768,0.55192,0.51241
598.956,65.40594,-0.73153,0.55521,0.51212
599.556,65.4663,-0.73472,0.55146,0.51183
600.156,65.52651,-0.72273,0.558,0.51154
600.756,65.58662,-0.72965,0.52967,0.51124
601.356,65.64676,-0.72986,0.53824,0.51095
601.956,65.70685,-0.72986,0.52704,0.51066
602.556,65.76714,-0.72991,0.53934,0.51037
603.156,65.82727,-0.72855,0.52229,0.51008
603.756,65.88716,-0.72985,0.50544,0.50979
604.356,65.9474,-0.73117,0.48998,0.5095
604.956,66.00748,-0.73114,0.48944,0.5092
605.556,66.06764,-0.7315,0.47128,0.50891
606.156,66.128,-0.73184,0.48168,0.50862
606.756,66.1879,-0.73381,0.46416,0.50833
607.356,66.24803,-0.73514,0.45696,0.50804
607.956,66.30824,-0.7338,0.43032,0.50775
608.556,66.3682,-0.7338,0.45401,0.50746
609.156,66.4286,-0.73508,0.42438,0.50718
609.756,66.48889,-0.73512,0.42015,0.50689
610.356,66.54932,-0.73513,0.41385,0.5066
610.956,66.61021,-0.73643,0.41281,0.50631
611.556,66.6708,-0.73649,0.39708,0.50602
612.156,66.73138,-0.73775,0.39749,0.50573
612.756,66.7919,-0.73775,0.38936,0.50545
613.356,66.85208,-0.73906,0.40244,0.50516
613.956,66.91242,-0.73973,0.39006,0.50487
614.556,66.97256,-0.73844,0.40103,0.50458
615.156,67.0329,-0.73762,0.38496,0.5043
615.756,67.09353,-0.73775,0.37666,0.50401
616.356,67.15415,-0.73907,0.36818,0.50372
616.956,67.2149,-0.73776,0.37341,0.50344
617.556,67.27543,-0.73772,0.37098,0.50315
618.156,67.33595,-0.74038,0.36088,0.50287
618.756,67.39644,-0.73774,0.36334,0.50258
619.356,67.45697,-0.73898,0.37775,0.50229
619.956,67.51738,-0.73907,0.36176,0.50201
620.556,67.57772,-0.73907,0.3737,0.50172
621.156,67.63799,-0.74031,0.35271,0.50144
621.756,67.69835,-0.74036,0.33606,0.50116
622.356,67.75865,-0.74104,0.35131,0.50087
622.956,67.81897,-0.74104,0.37661,0.50059
623.556,67.8794,-0.74171,0.36908,0.5003
624.156,67.93974,-0.74302,0.38155,0.50002
624.756,68.0002,-0.74198,0.36629,0.49974
625.356,68.0606,-0.74312,0.35709,0.49946
625.956,68.12089,-0.74331,0.34368,0.49917
626.556,68.1814,-0.74466,0.32805,0.49889
627.156,68.24194,-0.74349,0.33048,0.49861
627.756,68.30277,-0.74327,0.3248,0.49833
628.356,68.3633,-0.74467,0.33393,0.49805
628.956,68.4239,-0.74565,0.32016,0.49776
629.556,68.48444,-0.74565,0.29675,0.49748
630.156,68.5452,-0.74565,0.30696,0.4972
630.756,68.6058,-0.746,0.28779,0.49692
631.356,68.6667,-0.74732,0.2965,0.49664
631.956,68.7272,-0.74728,0.29257,0.49636
632.556,68.78784,-0.74597,0.28617,0.49608
633.156,68.8484,-0.74726,0.297,0.4958
633.756,68.90907,-0.74729,0.28025,0.49552
634.356,68.96982,-0.74729,0.27387,0.49525
634.956,69.03058,-0.74734,0.2759,0.49497
635.556,69.0912,-0.74726,0.26784,0.49469
636.156,69.152,-0.7473,0.26922,0.49441
636.756,69.2127,-0.7473,0.27342,0.49413
637.356,69.27343,-0.74834,0.26025,0.49385
637.956,69.33434,-0.74927,0.27293,0.49358
638.556,69.39517,-0.74991,0.27882,0.4933
639.156,69.45605,-0.74886,0.25762,0.49302
639.756,69.51699,-0.74861,0.25244,0.49275
640.356,69.57774,-0.74993,0.26615,0.49247
640.956,69.63847,-0.74994,0.25301,0.4922
641.556,69.69936,-0.75124,0.24818,0.49192
642.156,69.76,-0.75125,0.24873,0.49164
642.756,69.8207,-0.74992,0.26051,0.49137
643.356,69.8814,-0.74992,0.26087,0.49109
643.956,69.94194,-0.74992,0.27173,0.49082
644.556,70.00247,-0.75134,0.27693,0.49055
645.156,70.06296,-0.75131,0.27545,0.49027
645.756,70.1238,-0.74989,0.28441,0.49
646.356,70.1848,-0.7526,0.28642,0.48972
646.956,70.24585,-0.75256,0.27866,0.48945
647.556,70.30669,-0.75261,0.30011,0.48918
648.156,70.36708,-0.75264,0.3368,0.48891
648.756,70.42781,-0.75211,0.33775,0.48863
649.356,70.4886,-0.75256,0.32507,0.48836
649.956,70.54982,-0.75256,0.33918,0.48809
650.556,70.61066,-0.75262,0.34813,0.48782
651.156,70.6716,-0.75473,0.35678,0.48755
651.756,70.73229,-0.7552,0.37432,0.48728
652.356,70.79315,-0.7552,0.39516,0.48701
652.956,70.85398,-0.75416,0.40214,0.48674
653.556,70.9148,-0.7538,0.39043,0.48647
654.156,70.97575,-0.75256,0.41009,0.4862
654.756,71.03645,-0.75329,0.42483,0.48593
655.356,71.0974,-0.7553,0.41218,0.48566
655.956,71.15801,-0.7553,0.40317,0.48539
656.556,71.2191,-0.7553,0.41363,0.48512
657.156,71.28001,-0.75526,0.39326,0.48485
657.756,71.34133,-0.75644,0.41462,0.48458
658.356,71.40245,-0.75803,0.41907,0.48432
658.956,71.4635,-0.75793,0.4204,0.48405
659.556,71.52445,-0.75926,0.43075,0.48378
660.156,71.5855,-0.75925,0.4302,0.48352
660.756,71.6468,-0.75791,0.40685,0.48325
661.356,71.7081,-0.7585,0.40796,0.48298
661.956,71.7693,-0.75925,0.41876,0.48272
662.556,71.8305,-0.75925,0.42124,0.48245
663.156,71.89164,-0.75925,0.43087,0.48219
663.756,71.9529,-0.76057,0.4317,0.48192
664.356,72.01397,-0.76056,0.45406,0.48166
664.956,72.07507,-0.75924,0.43708,0.48139
665.556,72.13622,-0.7592,0.41238,0.48113
666.156,72.1972,-0.75958,0.42144,0.48087
666.756,72.25833,-0.75829,0.40463,0.4806
667.356,72.3193,-0.75893,0.40208,0.48034
667.956,72.38042,-0.75958,0.3962,0.48008
668.556,72.44151,-0.75958,0.38317,0.47981
669.156,72.50261,-0.75951,0.38335,0.47955
669.756,72.56385,-0.7609,0.36631,0.47929
670.356,72.62505,-0.76099,0.35654,0.47903
670.956,72.6861,-0.76339,0.34965,0.47877
671.556,72.74714,-0.76356,0.3269,0.47851
672.156,72.80819,-0.7632,0.30327,0.47825
672.756,72.86915,-0.7632,0.29689,0.47799
673.356,72.93039,-0.7645,0.28378,0.47773
673.956,72.99115,-0.76319,0.28345,0.47747
674.556,73.05202,-0.76319,0.27972,0.47721
675.156,73.11278,-0.76286,0.26031,0.47695
675.756,73.17384,-0.76326,0.28456,0.47669
676.356,73.23495,-0.7645,0.2694,0.47643
676.956,73.2967,-0.76319,0.2732,0.47617
677.556,73.35842,-0.76289,0.27892,0.47591
678.156,73.42,-0.76419,0.26631,0.47566
678.756,73.48148,-0.76408,0.27233,0.4754
679.356,73.5428,-0.7632,0.27037,0.47514
679.956,73.60416,-0.7631,0.23469,0.47489
680.556,73.66537,-0.76551,0.22523,0.47463
681.156,73.72652,-0.76556,0.21617,0.47438
681.756,73.78775,-0.76419,0.21569,0.47412
682.356,73.84897,-0.76419,0.24816,0.47386
682.956,73.9103,-0.76419,0.22529,0.47361
683.556,73.97146,-0.76414,0.25583,0.47335
684.156,74.03254,-0.76416,0.2552,0.4731
684.756,74.0938,-0.76442,0.26503,0.47285
685.356,74.15496,-0.7655,0.28052,0.47259
685.956,74.21619,-0.7655,0.29182,0.47234
686.556,74.27712,-0.7655,0.2791,0.47209
687.156,74.3383,-0.7655,0.30695,0.47183
687.756,74.39947,-0.7655,0.31527,0.47158
688.356,74.46065,-0.76688,0.2958,0.47133
688.956,74.5219,-0.76748,0.28755,0.47108
689.556,74.5831,-0.76814,0.2614,0.47083
690.156,74.64439,-0.76652,0.24154,0.47058
690.756,74.7056,-0.76671,0.22598,0.47033
691.356,74.7668,-0.76801,0.20455,0.47008
691.956,74.8279,-0.76803,0.1981,0.46983
692.556,74.88919,-0.76835,0.17546,0.46958
693.156,74.9506,-0.76834,0.15214,0.46933
693.756,75.0121,-0.76737,0.13388,0.46908
694.356,75.07355,-0.76737,0.13944,0.46883
694.956,75.13514,-0.76849,0.13396,0.46858
695.556,75.19677,-0.7687,0.10637,0.46833
696.156,75.25834,-0.76764,0.09494203,0.46808
696.756,75.3199,-0.76868,0.07832431,0.46784
697.356,75.38145,-0.76973,0.07332347,0.46759
697.956,75.44277,-0.77,0.08852367,0.46734
698.556,75.5044,-0.7716,0.0871141,0.4671
699.156,75.5659,-0.77265,0.08258493,0.46685
699.756,75.62745,-0.7728,0.08843234,0.4666
700.356,75.689,-0.77275,0.07837482,0.46636
700.956,75.75052,-0.77144,0.0974327,0.46611
701.556,75.81193,-0.77011,0.10063,0.46587
702.156,75.87346,-0.77144,0.11334,0.46562
702.756,75.9351,-0.77143,0.12073,0.46538
703.356,75.99674,-0.7724,0.12501,0.46514
703.956,76.05847,-0.77274,0.15442,0.46489
704.556,76.12014,-0.77274,0.14571,0.46465
705.156,76.18162,-0.77274,0.15215,0.46441
705.756,76.2432,-0.77273,0.14939,0.46417
706.356,76.30496,-0.77406,0.14193,0.46392
706.956,76.36659,-0.77406,0.12815,0.46368
707.556,76.42835,-0.77274,0.13603,0.46344
708.156,76.4901,-0.77479,0.13773,0.4632
708.756,76.55165,-0.77537,0.10683,0.46296
709.356,76.61316,-0.77402,0.10644,0.46272
709.956,76.67487,-0.77274,0.10073,0.46248
710.556,76.7364,-0.77199,0.10393,0.46224
711.156,76.79821,-0.77274,0.0885222,0.462
711.756,76.85979,-0.77346,0.09446212,0.46176
712.356,76.92138,-0.77678,0.09292636,0.46152
712.956,76.98309,-0.77684,0.11353,0.46128
713.556,77.0448,-0.7773,0.11202,0.46104
714.156,77.10661,-0.77691,0.1346,0.46081
714.756,77.16839,-0.77563,0.13714,0.46057
715.356,77.23016,-0.7756,0.1428,0.46033
715.956,77.29185,-0.77582,0.11994,0.4601
716.556,77.3537,-0.77724,0.10063,0.45986
717.156,77.41558,-0.77735,0.09949614,0.45962
717.756,77.47749,-0.77773,0.09735274,0.45939
718.356,77.53919,-0.77724,0.10468,0.45915
718.956,77.6009,-0.77864,0.09807708,0.45892
719.556,77.66261,-0.77731,0.09941429,0.45868
720.156,77.72429,-0.77742,0.08947005,0.45845
720.756,77.78596,-0.77866,0.0883343,0.45821
721.356,77.84764,-0.77866,0.10985,0.45798
721.956,77.90926,-0.77734,0.10832,0.45775
722.556,77.9709,-0.77864,0.07340677,0.45751
723.156,78.03269,-0.77866,0.06487211,0.45728
723.756,78.09444,-0.77875,0.07026631,0.45705
724.356,78.15609,-0.77738,0.06368348,0.45682
724.956,78.21764,-0.77866,0.07097891,0.45659
725.556,78.27932,-0.77866,0.08197249,0.45635
726.156,78.34101,-0.77868,0.07822697,0.45612
726.756,78.40266,-0.77866,0.06984597,0.45589
727.356,78.4643,-0.77874,0.07398392,0.45566
727.956,78.52605,-0.7813,0.08298152,0.45543
728.556,78.5877,-0.78001,0.06440376,0.4552
729.156,78.64909,-0.77998,0.02850221,0.45497
729.756,78.71077,-0.7813,0.008183118,0.45474
730.356,78.77251,-0.7813,0.003664213,0.45452
730.956,78.83475,-0.78022,-0.02941174,0.45429
731.556,78.89649,-0.78031,-0.05627125,0.45406
732.156,78.95845,-0.78064,-0.03550696,0.45383
732.756,79.02011,-0.78064,-0.04456304,0.4536
733.356,79.08203,-0.78058,-0.04591385,0.45338
733.956,79.14363,-0.78163,-0.05415063,0.45315
734.556,79.20537,-0.7817,-0.0587744,0.45292
735.156,79.26701,-0.78097,-0.07249026,0.4527
735.756,79.32884,-0.78097,-0.10439,0.45247
736.356,79.39067,-0.78097,-0.13888,0.45225
736.956,79.45238,-0.78228,-0.12525,0.45202
737.556,79.51408,-0.78196,-0.12944,0.4518
738.156,79.57579,-0.78311,-0.1339,0.45157
738.756,79.63762,-0.78327,-0.13095,0.45135
739.356,79.69945,-0.78327,-0.12526,0.45113
739.956,79.7614,-0.78411,-0.08910436,0.4509
740.556,79.8231,-0.78459,-0.05888886,0.45068
741.156,79.88498,-0.78458,-0.03738601,0.45046
741.756,79.9467,-0.78373,-0.02971013,0.45024
742.256,79.99839,-0.7859,-0.007745099,0.45005