File: 01_Data/Polyurethane_Foam/MCC/Polyurethane_Foam_MCC_30K_min_210308_R3.txt
Sample ID:	C:\MCC\MCC Cal\Test\PUF_30_3.txt
Sample Weight (mg):	5
Heating Rate (C/s):	0.5
Combustor Temp (C):	900
N2 Flow Rate (cc/min):	80
O2 Flow Rate (cc/min):	20
Calibration File:	C:\MCC\MCC Cal\Coeff1 JN10440_30_210304.txt.txt
T Correction Coefficients:	0	1.024463	0
Time Shift (s):	14
*
Time (s)	Temperature (C)	N2 flow rate (cc/min)	O2 flow rate (cc/min)	Flow Rate (cc/min)	Oxygen (%)	HRR (W/g)	Heating rate (C/s)
0.000	107.944	79.987	19.995	99.717	20.109	-0.232	-0.028
1.500	107.961	79.987	19.993	99.665	20.111	-0.327	-0.006
3.000	107.925	79.986	19.995	99.655	20.110	-0.301	-0.013
4.500	107.966	79.986	19.994	99.647	20.113	-0.458	0.017
6.000	107.940	79.986	19.993	99.646	20.112	-0.443	0.012
7.500	108.000	79.987	19.993	99.645	20.108	-0.177	0.026
9.000	107.973	79.987	19.993	99.644	20.105	0.005	-0.023
10.500	107.918	79.987	19.991	99.645	20.110	-0.267	-0.026
12.000	107.946	79.985	19.994	99.647	20.110	-0.273	0.006
13.501	107.949	79.985	19.993	99.649	20.108	-0.143	-0.009
15.000	107.922	79.989	19.994	99.645	20.106	-0.036	-0.005
16.500	107.926	79.988	19.994	99.652	20.107	-0.111	0.007
18.000	107.926	79.988	19.994	99.676	20.102	0.194	-0.011
19.500	107.975	79.986	19.993	99.684	20.101	0.242	0.037
21.000	107.937	79.987	19.994	99.685	20.098	0.428	-0.018
22.500	107.956	79.986	19.993	99.694	20.101	0.259	0.032
24.000	107.957	79.990	19.994	99.726	20.099	0.401	-0.017
25.500	107.979	79.988	19.993	99.767	20.092	0.831	0.023
27.000	108.078	79.989	19.993	99.784	20.088	1.063	0.031
28.500	108.135	79.990	19.992	99.801	20.088	1.074	0.036
30.000	108.222	79.991	19.995	99.809	20.083	1.418	0.065
31.500	108.323	79.996	19.994	99.822	20.080	1.582	0.055
33.000	108.444	79.991	19.995	99.850	20.076	1.831	0.076
34.501	108.565	79.990	19.994	99.858	20.078	1.708	0.060
36.000	108.717	79.988	19.994	99.869	20.074	1.963	0.097
37.500	108.962	79.989	19.993	99.890	20.074	1.924	0.149
39.000	109.130	79.988	19.994	99.891	20.068	2.346	0.111
40.500	109.340	79.989	19.994	99.889	20.069	2.291	0.150
42.000	109.595	79.987	19.995	99.869	20.065	2.518	0.175
43.500	109.837	79.991	19.995	99.869	20.064	2.588	0.166
45.000	110.115	79.990	19.992	99.885	20.064	2.602	0.183
46.500	110.365	79.988	19.992	99.883	20.059	2.875	0.183
48.000	110.737	79.990	19.992	99.895	20.058	2.965	0.249
49.501	111.017	79.990	19.993	99.913	20.060	2.832	0.192
51.000	111.382	79.990	19.994	99.918	20.061	2.769	0.275
52.500	111.702	79.989	19.993	99.905	20.059	2.858	0.224
54.000	112.027	79.989	19.994	99.897	20.056	3.083	0.214
55.501	112.413	79.990	19.995	99.907	20.055	3.154	0.250
57.000	112.768	79.990	19.994	99.915	20.052	3.340	0.241
58.500	113.158	79.989	19.994	99.918	20.055	3.143	0.261
60.001	113.578	79.990	19.994	99.919	20.055	3.167	0.276
61.500	114.026	79.989	19.993	99.919	20.050	3.463	0.291
63.000	114.488	79.986	19.996	99.932	20.053	3.259	0.299
64.500	114.948	79.987	19.994	99.950	20.049	3.539	0.297
66.000	115.417	79.986	19.992	99.951	20.049	3.528	0.299
67.500	115.889	79.986	19.992	99.941	20.048	3.558	0.333
69.000	116.416	79.987	19.994	99.924	20.044	3.820	0.338
70.500	116.936	79.988	19.993	99.929	20.049	3.528	0.338
72.000	117.425	79.988	19.993	99.944	20.047	3.659	0.327
73.500	117.990	79.986	19.993	99.938	20.046	3.687	0.363
75.001	118.523	79.987	19.993	99.925	20.050	3.462	0.358
76.500	119.060	79.986	19.993	99.933	20.051	3.360	0.378
78.000	119.604	79.985	19.994	99.933	20.053	3.290	0.367
79.500	120.195	79.987	19.992	99.951	20.051	3.396	0.391
81.000	120.819	79.988	19.995	99.957	20.050	3.450	0.442
82.500	121.408	79.992	19.995	99.949	20.049	3.503	0.367
84.001	122.015	79.997	19.995	99.913	20.046	3.672	0.421
85.501	122.604	79.997	19.994	99.901	20.049	3.537	0.377
87.000	123.210	79.999	19.993	99.919	20.048	3.605	0.415
88.500	123.850	79.997	19.994	99.929	20.044	3.836	0.434
90.000	124.476	80.004	19.994	99.927	20.048	3.549	0.415
91.500	125.114	80.001	19.995	99.949	20.050	3.463	0.425
93.000	125.764	80.007	19.994	99.956	20.049	3.537	0.441
94.500	126.404	80.006	19.994	99.956	20.055	3.162	0.422
96.000	127.024	80.007	19.993	99.956	20.050	3.476	0.414
97.500	127.709	80.008	19.991	99.940	20.050	3.474	0.455
99.001	128.358	80.007	19.992	99.948	20.048	3.544	0.444
100.501	129.058	80.007	19.994	99.956	20.053	3.288	0.463
102.000	129.691	80.004	19.993	99.955	20.048	3.597	0.424
103.500	130.351	80.004	19.994	99.953	20.046	3.667	0.459
105.000	131.052	80.001	19.993	99.961	20.052	3.344	0.493
106.500	131.767	80.005	19.993	99.969	20.050	3.419	0.465
108.000	132.515	79.997	19.994	99.932	20.050	3.443	0.504
109.500	133.172	79.997	19.993	99.909	20.045	3.730	0.422
111.000	133.874	80.005	19.993	99.910	20.050	3.458	0.464
112.500	134.580	80.005	19.994	99.909	20.048	3.558	0.478
114.000	135.293	80.006	19.994	99.918	20.045	3.768	0.478
115.500	136.031	80.009	19.993	99.925	20.050	3.436	0.485
117.000	136.773	80.004	19.994	99.916	20.047	3.649	0.500
118.501	137.472	80.003	19.993	99.919	20.047	3.649	0.461
120.000	138.243	80.003	19.993	99.921	20.043	3.898	0.505
121.500	138.960	79.997	19.993	99.929	20.045	3.748	0.486
123.000	139.699	79.994	19.992	99.955	20.045	3.755	0.516
124.500	140.456	79.990	19.992	99.965	20.044	3.804	0.501
126.000	141.233	79.988	19.992	99.963	20.047	3.641	0.514
127.500	141.893	79.989	19.991	99.956	20.047	3.662	0.441
129.000	142.667	79.991	19.993	99.938	20.046	3.720	0.504
130.500	143.443	79.990	19.990	99.931	20.046	3.698	0.518
132.000	144.182	79.989	19.992	99.933	20.050	3.479	0.497
133.500	144.955	79.993	19.992	99.935	20.050	3.454	0.504
135.000	145.695	79.991	19.991	99.940	20.050	3.445	0.480
136.500	146.422	79.989	19.992	99.955	20.047	3.651	0.476
138.000	147.212	79.987	19.992	99.960	20.055	3.160	0.508
139.500	147.946	79.989	19.994	99.938	20.050	3.452	0.483
141.000	148.686	79.987	19.993	99.929	20.047	3.612	0.497
142.500	149.470	79.987	19.993	99.926	20.046	3.676	0.531
144.000	150.272	79.986	19.993	99.920	20.049	3.536	0.533
145.500	151.028	79.988	19.994	99.877	20.048	3.565	0.498
147.000	151.831	79.985	19.994	99.843	20.048	3.560	0.522
148.500	152.577	79.987	19.994	99.962	20.049	3.540	0.501
150.000	153.339	79.987	19.994	99.937	20.050	3.480	0.517
151.500	154.074	79.987	19.994	99.918	20.049	3.484	0.493
153.000	154.812	79.987	19.993	99.919	20.051	3.369	0.480
154.500	155.559	79.987	19.994	99.924	20.051	3.378	0.522
156.000	156.357	79.986	19.993	99.923	20.051	3.368	0.517
157.500	157.097	79.987	19.992	99.919	20.050	3.430	0.497
159.000	157.910	79.988	19.994	99.936	20.052	3.319	0.533
160.500	158.629	79.988	19.993	99.944	20.054	3.175	0.485
162.000	159.411	79.987	19.994	99.904	20.054	3.201	0.517
163.501	160.172	79.988	19.994	99.896	20.052	3.306	0.531
165.000	160.927	79.988	19.993	99.889	20.052	3.328	0.515
166.500	161.720	79.986	19.995	99.831	20.049	3.535	0.518
168.000	162.445	79.986	19.995	99.784	20.050	3.478	0.481
169.500	163.183	79.988	19.994	99.936	20.055	3.125	0.513
171.000	163.977	79.986	19.994	99.982	20.052	3.333	0.528
172.500	164.724	79.986	19.995	99.905	20.052	3.350	0.511
174.000	165.488	79.988	19.994	99.920	20.057	2.983	0.500
175.500	166.284	79.987	19.996	99.948	20.055	3.150	0.533
177.000	167.038	79.986	19.995	99.919	20.058	2.961	0.507
178.500	167.821	79.987	19.996	99.897	20.058	2.976	0.480
180.000	168.552	79.986	19.994	99.888	20.057	3.039	0.481
181.500	169.312	79.987	19.992	99.886	20.059	2.903	0.525
183.000	170.068	79.989	19.993	99.915	20.059	2.915	0.508
184.500	170.793	79.988	19.993	99.828	20.059	2.858	0.499
186.000	171.555	79.987	19.993	99.825	20.056	3.050	0.479
187.500	172.323	79.989	19.992	99.936	20.055	3.135	0.491
189.000	173.033	79.988	19.993	99.953	20.057	2.983	0.491
190.500	173.826	79.989	19.993	99.886	20.056	3.050	0.523
192.000	174.593	79.989	19.994	99.881	20.058	2.952	0.502
193.500	175.336	79.990	19.992	99.880	20.056	3.090	0.480
195.000	175.994	79.988	19.993	99.880	20.055	3.114	0.484
196.500	176.771	79.987	19.992	99.898	20.057	3.022	0.505
198.000	177.540	79.988	19.991	99.897	20.058	2.966	0.502
199.500	178.287	79.987	19.992	99.829	20.060	2.841	0.501
201.000	179.002	79.988	19.994	99.874	20.059	2.906	0.494
202.500	179.718	79.987	19.994	99.929	20.059	2.895	0.480
204.000	180.461	79.988	19.992	99.923	20.057	2.981	0.492
205.500	181.232	79.988	19.994	99.914	20.057	3.019	0.513
207.000	181.977	79.988	19.992	99.882	20.052	3.304	0.488
208.500	182.653	79.987	19.992	99.865	20.055	3.132	0.473
210.000	183.420	79.988	19.991	99.871	20.055	3.147	0.526
211.500	184.150	79.991	19.992	99.880	20.051	3.379	0.493
213.000	184.919	79.990	19.992	99.860	20.057	3.022	0.507
214.500	185.645	79.992	19.994	99.876	20.056	3.043	0.500
216.000	186.382	79.990	19.992	99.886	20.052	3.314	0.488
217.500	187.117	79.990	19.994	99.893	20.053	3.260	0.497
219.000	187.822	79.989	19.993	99.903	20.049	3.511	0.450
220.500	188.573	79.989	19.992	99.898	20.052	3.314	0.468
222.000	189.353	79.988	19.992	99.885	20.052	3.295	0.533
223.500	190.083	79.988	19.993	99.876	20.054	3.225	0.490
225.000	190.842	79.989	19.994	99.876	20.056	3.079	0.516
226.500	191.583	79.988	19.994	99.891	20.050	3.434	0.508
228.000	192.328	79.987	19.994	99.892	20.051	3.355	0.492
229.500	193.022	79.985	19.994	99.885	20.052	3.335	0.478
231.000	193.763	79.986	19.993	99.887	20.053	3.246	0.483
232.500	194.519	79.988	19.994	99.879	20.052	3.302	0.485
234.000	195.270	79.989	19.993	99.877	20.048	3.582	0.489
235.500	195.940	79.985	19.993	99.878	20.052	3.304	0.474
237.000	196.709	79.988	19.995	99.883	20.053	3.251	0.510
238.500	197.419	79.987	19.994	99.885	20.054	3.226	0.485
240.000	198.166	79.987	19.994	99.881	20.053	3.285	0.496
241.500	198.929	79.987	19.995	99.881	20.051	3.390	0.502
243.000	199.690	79.988	19.992	99.883	20.047	3.628	0.497
244.500	200.435	79.988	19.992	99.887	20.048	3.550	0.501
246.000	201.197	79.986	19.994	99.885	20.046	3.675	0.498
247.500	201.910	79.987	19.992	99.882	20.044	3.827	0.477
249.000	202.644	79.985	19.994	99.866	20.040	4.096	0.521
250.500	203.379	79.988	19.991	99.864	20.041	4.007	0.489
252.000	204.135	79.986	19.994	99.867	20.041	3.980	0.503
253.500	204.923	79.987	19.993	99.869	20.041	4.026	0.520
255.000	205.624	79.985	19.993	99.891	20.041	4.031	0.474
256.500	206.398	79.987	19.994	99.899	20.043	3.897	0.518
258.000	207.119	79.985	19.994	99.898	20.038	4.164	0.502
259.500	207.848	79.987	19.995	99.897	20.038	4.217	0.495
261.000	208.604	79.987	19.995	99.881	20.038	4.216	0.475
262.500	209.336	79.987	19.995	99.880	20.034	4.415	0.473
264.000	210.059	79.989	19.995	99.878	20.029	4.743	0.473
265.500	210.786	79.986	19.995	99.882	20.030	4.663	0.502
267.000	211.513	79.991	19.994	99.875	20.032	4.589	0.488
268.500	212.310	79.985	19.995	99.876	20.028	4.812	0.531
270.000	213.041	79.987	19.994	99.883	20.030	4.677	0.491
271.500	213.779	79.990	19.993	99.892	20.028	4.845	0.467
273.000	214.498	79.989	19.994	99.892	20.026	4.928	0.478
274.500	215.265	79.989	19.994	99.884	20.028	4.826	0.483
276.000	216.015	79.989	19.992	99.895	20.024	5.037	0.492
277.500	216.740	79.987	19.993	99.899	20.021	5.235	0.481
279.000	217.497	79.990	19.993	99.883	20.020	5.324	0.512
280.500	218.221	79.988	19.993	99.879	20.021	5.228	0.492
282.000	218.980	79.988	19.993	99.875	20.017	5.483	0.501
283.500	219.733	79.988	19.992	99.875	20.014	5.684	0.509
285.000	220.443	79.988	19.993	99.877	20.010	5.967	0.479
286.500	221.231	79.988	19.992	99.874	20.006	6.201	0.502
288.000	221.971	79.990	19.993	99.866	20.003	6.358	0.503
289.500	222.725	79.991	19.991	99.869	20.001	6.511	0.505
291.000	223.421	79.991	19.994	99.890	20.000	6.551	0.478
292.500	224.194	79.991	19.994	99.887	19.996	6.804	0.510
294.000	224.955	79.990	19.992	99.873	19.988	7.295	0.485
295.500	225.678	79.992	19.993	99.889	19.992	7.053	0.487
297.000	226.436	79.992	19.994	99.884	19.989	7.258	0.530
298.500	227.191	79.989	19.994	99.891	19.983	7.622	0.514
300.000	227.899	79.991	19.992	99.898	19.979	7.893	0.469
301.501	228.671	79.991	19.993	99.883	19.978	7.918	0.524
303.000	229.400	79.989	19.993	99.879	19.973	8.266	0.490
304.500	230.150	79.988	19.992	99.891	19.972	8.319	0.473
306.000	230.885	79.988	19.992	99.907	19.969	8.501	0.481
307.500	231.618	79.990	19.993	99.907	19.964	8.785	0.468
309.000	232.383	79.990	19.992	99.900	19.958	9.162	0.490
310.500	233.136	79.987	19.993	99.884	19.958	9.199	0.489
312.000	233.875	79.988	19.993	99.894	19.952	9.570	0.504
313.500	234.622	79.986	19.992	99.898	19.945	9.987	0.475
315.000	235.369	79.988	19.994	99.899	19.939	10.361	0.488
316.500	236.109	79.986	19.992	99.884	19.936	10.564	0.507
318.000	236.852	79.990	19.993	99.864	19.928	11.038	0.495
319.500	237.617	79.988	19.993	99.875	19.916	11.774	0.530
321.000	238.331	79.989	19.994	99.874	19.915	11.836	0.471
322.500	239.047	79.988	19.994	99.879	19.904	12.582	0.483
324.000	239.805	79.986	19.994	99.911	19.900	12.771	0.496
325.500	240.626	79.988	19.992	99.906	19.898	12.949	0.540
327.000	241.312	79.986	19.995	99.912	19.891	13.384	0.466
328.500	242.108	79.987	19.992	99.939	19.884	13.823	0.537
330.000	242.837	79.986	19.992	99.926	19.879	14.110	0.489
331.500	243.570	79.987	19.993	99.913	19.869	14.721	0.484
333.000	244.337	79.987	19.993	99.937	19.860	15.307	0.516
334.500	245.055	79.987	19.992	99.930	19.849	16.000	0.495
336.000	245.799	79.987	19.994	99.917	19.845	16.252	0.503
337.500	246.564	79.985	19.994	99.920	19.833	16.983	0.533
339.000	247.348	79.987	19.992	99.918	19.823	17.590	0.532
340.500	248.087	79.986	19.992	99.903	19.813	18.207	0.477
342.000	248.842	79.988	19.993	99.887	19.803	18.837	0.501
343.500	249.580	79.989	19.994	99.902	19.796	19.330	0.492
345.000	250.362	79.987	19.994	99.888	19.786	19.883	0.524
346.500	251.140	79.990	19.992	99.911	19.770	20.929	0.523
348.000	251.876	79.988	19.994	99.968	19.763	21.318	0.497
349.500	252.635	79.990	19.993	99.985	19.752	22.032	0.512
351.000	253.403	79.989	19.995	99.891	19.740	22.776	0.509
352.500	254.124	79.989	19.993	99.858	19.726	23.642	0.468
354.000	254.886	79.990	19.994	100.009	19.717	24.217	0.516
355.500	255.666	79.988	19.995	99.972	19.704	25.045	0.521
357.000	256.391	79.989	19.994	99.950	19.687	26.103	0.483
358.500	257.165	79.990	19.994	99.943	19.674	26.901	0.509
360.000	257.892	79.988	19.994	99.931	19.656	28.072	0.465
361.500	258.685	79.990	19.994	99.952	19.640	29.054	0.526
363.000	259.458	79.992	19.994	99.898	19.626	29.907	0.513
364.500	260.215	79.989	19.995	99.896	19.609	30.995	0.497
366.000	260.992	79.986	19.993	100.022	19.595	31.835	0.513
367.500	261.768	79.987	19.993	99.985	19.580	32.753	0.526
369.000	262.492	79.987	19.992	100.001	19.561	33.955	0.504
370.500	263.311	79.990	19.993	100.075	19.548	34.766	0.569
372.001	264.076	79.990	19.991	100.015	19.533	35.707	0.510
373.500	264.831	79.993	19.991	100.001	19.514	36.897	0.511
375.000	265.592	79.989	19.991	100.003	19.492	38.302	0.507
376.500	266.378	79.989	19.994	100.003	19.472	39.524	0.525
378.000	267.123	79.991	19.992	100.003	19.454	40.663	0.506
379.500	267.921	79.990	19.993	100.004	19.436	41.749	0.512
381.000	268.691	79.990	19.992	100.017	19.418	42.891	0.512
382.500	269.420	79.990	19.991	100.025	19.393	44.432	0.504
384.000	270.212	79.989	19.992	100.002	19.373	45.743	0.528
385.500	270.992	79.988	19.993	100.012	19.354	46.935	0.521
387.000	271.771	79.988	19.992	100.024	19.333	48.210	0.517
388.500	272.495	79.986	19.992	100.009	19.310	49.674	0.486
390.000	273.305	79.987	19.993	100.018	19.289	50.974	0.537
391.500	274.050	79.986	19.994	100.032	19.270	52.133	0.508
393.000	274.873	79.987	19.991	100.022	19.252	53.278	0.543
394.500	275.631	79.988	19.992	100.050	19.229	54.697	0.505
396.000	276.368	79.988	19.993	100.066	19.210	55.924	0.476
397.500	277.141	79.990	19.997	100.067	19.189	57.250	0.519
399.000	277.905	79.986	19.994	100.058	19.168	58.549	0.486
400.500	278.677	79.990	19.994	100.044	19.150	59.658	0.500
402.000	279.447	79.991	19.994	100.050	19.130	60.897	0.523
403.500	280.168	79.993	19.994	100.058	19.112	62.016	0.500
405.000	280.990	79.991	19.991	100.071	19.094	63.177	0.556
406.500	281.731	79.988	19.994	100.088	19.074	64.363	0.496
408.000	282.513	79.989	19.994	100.100	19.057	65.453	0.539
409.500	283.234	79.989	19.994	100.081	19.039	66.599	0.475
411.000	284.010	79.988	19.992	100.073	19.026	67.398	0.536
412.500	284.792	79.987	19.992	100.076	19.012	68.261	0.517
414.000	285.578	79.987	19.992	100.078	19.000	68.994	0.521
415.500	286.347	79.989	19.994	100.096	18.991	69.590	0.550
417.000	287.091	79.986	19.993	100.031	18.981	70.212	0.478
418.500	287.878	79.986	19.993	100.013	18.978	70.414	0.526
420.000	288.597	79.987	19.993	100.114	18.968	71.010	0.483
421.500	289.312	79.989	19.993	100.127	18.967	71.082	0.479
423.000	290.122	79.987	19.994	100.076	18.965	71.191	0.543
424.500	290.917	79.987	19.995	100.074	18.972	70.742	0.517
426.000	291.708	79.988	19.997	100.072	18.979	70.326	0.525
427.500	292.458	79.987	19.993	100.061	18.993	69.385	0.508
429.000	293.229	79.990	19.995	100.059	19.014	68.084	0.515
430.500	293.981	79.987	19.995	100.071	19.034	66.825	0.511
432.000	294.744	79.989	19.994	100.072	19.067	64.773	0.519
433.500	295.483	79.988	19.995	100.053	19.101	62.719	0.521
435.000	296.256	79.989	19.994	100.036	19.140	60.283	0.491
436.500	297.004	79.988	19.995	100.030	19.182	57.629	0.490
438.000	297.779	79.988	19.994	100.015	19.222	55.136	0.504
439.500	298.573	79.987	19.993	100.008	19.261	52.673	0.524
441.000	299.326	79.989	19.993	99.966	19.302	50.102	0.506
442.500	300.090	79.988	19.992	99.961	19.336	47.989	0.501
444.000	300.882	79.987	19.992	100.060	19.360	46.477	0.539
445.500	301.615	79.988	19.992	100.093	19.388	44.762	0.498
447.000	302.436	79.988	19.991	100.037	19.407	43.580	0.539
448.500	303.171	79.988	19.992	100.033	19.421	42.678	0.504
450.000	303.955	79.988	19.992	100.030	19.432	42.022	0.501
451.500	304.750	79.991	19.994	100.010	19.441	41.483	0.510
453.000	305.499	79.991	19.994	99.955	19.447	41.012	0.495
454.500	306.305	79.989	19.991	99.920	19.459	40.286	0.536
456.000	307.037	79.990	19.993	99.983	19.466	39.888	0.486
457.500	307.802	79.989	19.993	99.994	19.478	39.142	0.511
459.000	308.596	79.988	19.993	99.948	19.488	38.499	0.548
460.500	309.369	79.987	19.993	99.953	19.498	37.872	0.524
462.000	310.099	79.987	19.992	100.029	19.504	37.511	0.485
463.500	310.863	79.988	19.993	99.931	19.515	36.848	0.519
465.000	311.667	79.987	19.993	99.931	19.530	35.895	0.544
466.500	312.429	79.988	19.992	100.010	19.541	35.187	0.517
468.000	313.200	79.988	19.992	100.015	19.556	34.288	0.513
469.500	313.993	79.989	19.993	99.957	19.567	33.566	0.534
471.000	314.779	79.988	19.995	99.954	19.587	32.317	0.563
472.500	315.502	79.989	19.994	99.958	19.607	31.068	0.487
474.000	316.307	79.988	19.994	99.956	19.625	29.957	0.526
475.500	317.056	79.988	19.994	99.956	19.643	28.843	0.513
477.000	317.813	79.988	19.994	99.957	19.659	27.808	0.499
478.500	318.592	79.988	19.994	99.958	19.676	26.756	0.536
480.000	319.380	79.988	19.992	99.944	19.702	25.134	0.520
481.500	320.094	79.989	19.994	99.933	19.714	24.372	0.482
483.000	320.868	79.990	19.994	99.933	19.735	23.089	0.519
484.500	321.681	79.989	19.994	99.924	19.749	22.187	0.539
486.000	322.417	79.988	19.992	99.924	19.763	21.335	0.478
487.500	323.180	79.989	19.993	99.919	19.779	20.327	0.515
489.000	323.909	79.988	19.994	99.918	19.794	19.417	0.505
490.500	324.654	79.989	19.995	99.914	19.807	18.586	0.502
492.000	325.426	79.987	19.992	99.898	19.815	18.089	0.518
493.500	326.172	79.987	19.994	99.884	19.828	17.287	0.512
495.000	326.937	79.986	19.995	99.887	19.838	16.670	0.520
496.500	327.682	79.987	19.995	99.892	19.848	16.044	0.506
498.000	328.463	79.987	19.993	99.893	19.854	15.665	0.539
499.500	329.205	79.987	19.994	99.884	19.859	15.323	0.506
501.000	329.959	79.988	19.995	99.886	19.867	14.867	0.503
502.500	330.710	79.989	19.993	99.892	19.870	14.634	0.498
504.000	331.468	79.988	19.994	99.901	19.875	14.335	0.500
505.500	332.219	79.989	19.990	99.920	19.887	13.602	0.492
507.000	332.974	79.989	19.995	99.915	19.887	13.609	0.488
508.500	333.721	79.989	19.994	99.889	19.886	13.668	0.494
510.000	334.484	79.990	19.993	99.894	19.890	13.428	0.507
511.500	335.235	79.989	19.994	99.820	19.888	13.570	0.509
513.000	335.937	79.988	19.993	99.815	19.893	13.245	0.486
514.500	336.693	79.987	19.995	99.939	19.891	13.328	0.502
516.000	337.428	79.988	19.994	99.915	19.895	13.081	0.487
517.500	338.180	79.987	19.993	99.877	19.895	13.104	0.514
519.000	338.958	79.989	19.993	99.878	19.896	13.060	0.520
520.500	339.672	79.988	19.995	99.883	19.895	13.093	0.507
522.000	340.430	79.987	19.992	99.896	19.897	13.008	0.492
523.500	341.166	79.986	19.994	99.912	19.895	13.120	0.509
525.000	341.920	79.988	19.992	99.902	19.892	13.306	0.519
526.501	342.660	79.990	19.992	99.886	19.891	13.354	0.494
528.000	343.424	79.991	19.994	99.882	19.885	13.717	0.508
529.500	344.145	79.989	19.993	99.882	19.882	13.900	0.493
531.000	344.919	79.991	19.992	99.883	19.881	14.002	0.513
532.500	345.700	79.990	19.991	99.879	19.876	14.290	0.487
534.000	346.424	79.991	19.990	99.874	19.867	14.862	0.494
535.500	347.165	79.989	19.992	99.854	19.865	14.979	0.500
537.001	347.882	79.990	19.992	99.850	19.852	15.799	0.488
538.500	348.672	79.991	19.992	99.873	19.847	16.070	0.531
540.001	349.444	79.990	19.994	99.879	19.838	16.631	0.495
541.501	350.187	79.988	19.992	99.882	19.828	17.288	0.507
543.000	350.915	79.989	19.993	99.881	19.817	17.952	0.490
544.500	351.726	79.988	19.993	99.898	19.805	18.700	0.554
546.000	352.467	79.989	19.994	99.910	19.790	19.641	0.486
547.500	353.222	79.988	19.992	99.901	19.777	20.486	0.493
549.000	353.989	79.989	19.996	99.879	19.760	21.556	0.513
550.500	354.728	79.988	19.993	99.885	19.738	22.919	0.486
552.000	355.478	79.988	19.994	99.895	19.719	24.111	0.497
553.500	356.264	79.989	19.994	99.855	19.695	25.603	0.529
555.000	357.015	79.988	19.995	99.823	19.675	26.811	0.499
556.500	357.771	79.989	19.993	99.938	19.650	28.404	0.514
558.000	358.489	79.989	19.995	99.963	19.625	29.974	0.479
559.500	359.247	79.991	19.995	99.918	19.592	32.020	0.509
561.000	360.028	80.005	19.994	99.914	19.560	33.994	0.514
562.500	360.802	80.006	19.992	99.918	19.524	36.225	0.516
564.000	361.534	80.007	19.993	99.920	19.484	38.765	0.487
565.500	362.275	80.002	19.993	99.923	19.443	41.339	0.479
567.000	363.025	80.004	19.992	99.929	19.398	44.151	0.514
568.500	363.769	80.004	19.995	99.939	19.343	47.577	0.492
570.000	364.553	80.005	19.994	99.932	19.291	50.835	0.517
571.500	365.318	80.004	19.992	99.942	19.227	54.796	0.511
573.000	366.042	80.004	19.994	99.952	19.169	58.463	0.509
574.500	366.805	80.007	19.994	99.960	19.099	62.784	0.506
576.000	367.544	80.005	19.993	99.966	19.022	67.588	0.497
577.500	368.329	79.999	19.995	99.968	18.941	72.683	0.514
579.000	369.071	79.995	19.992	99.973	18.852	78.228	0.518
580.500	369.836	79.991	19.994	99.991	18.761	83.944	0.496
582.000	370.560	79.992	19.994	99.999	18.660	90.237	0.489
583.500	371.333	79.994	19.993	100.010	18.558	96.640	0.527
585.000	372.066	79.996	19.992	100.029	18.446	103.613	0.479
586.500	372.886	79.999	19.993	100.032	18.328	110.960	0.551
588.000	373.635	79.995	19.993	100.030	18.198	119.098	0.495
589.500	374.373	79.999	19.993	100.037	18.071	127.042	0.497
591.000	375.116	80.001	19.993	100.045	17.924	136.163	0.480
592.500	375.890	79.992	19.993	100.059	17.781	145.088	0.514
594.000	376.644	79.995	19.995	100.059	17.631	154.352	0.517
595.500	377.376	79.994	19.995	100.057	17.472	164.196	0.470
597.000	378.125	80.000	19.994	100.052	17.308	174.440	0.492
598.500	378.872	80.004	19.994	100.080	17.136	185.183	0.480
600.000	379.652	79.994	19.993	100.080	16.958	196.310	0.508
601.500	380.402	79.989	19.994	100.062	16.796	206.311	0.496
603.000	381.106	79.989	19.994	100.045	16.632	216.353	0.479
604.500	381.878	79.988	19.994	99.994	16.467	226.536	0.505
606.000	382.661	79.990	19.995	99.939	16.301	236.828	0.495
607.500	383.376	79.988	19.993	99.947	16.141	246.705	0.476
609.000	384.137	79.989	19.994	99.958	15.989	256.164	0.505
610.500	384.846	79.991	19.992	99.946	15.856	264.384	0.439
612.000	385.576	79.992	19.992	99.921	15.739	271.501	0.474
613.500	386.366	79.991	19.993	99.847	15.639	277.608	0.533
615.000	387.172	79.992	19.994	99.773	15.552	282.990	0.582
616.500	387.881	79.992	19.994	99.765	15.472	287.989	0.478
618.000	388.658	79.991	19.992	99.735	15.410	291.889	0.512
619.500	389.403	79.991	19.993	99.740	15.368	294.424	0.488
621.000	390.160	79.991	19.993	99.718	15.350	295.539	0.522
622.500	390.897	79.989	19.993	99.669	15.347	295.761	0.499
624.000	391.675	79.989	19.992	99.619	15.363	294.900	0.516
625.500	392.521	79.987	19.992	99.613	15.405	292.305	0.559
627.000	393.280	79.989	19.993	99.596	15.469	288.174	0.493
628.500	394.060	79.988	19.995	99.622	15.551	283.142	0.545
630.000	394.782	79.988	19.996	99.611	15.654	276.725	0.505
631.500	395.572	79.988	19.994	99.603	15.764	269.918	0.533
633.000	396.309	79.988	19.994	99.612	15.885	262.456	0.483
634.500	397.066	79.989	19.993	99.656	16.016	254.288	0.489
636.000	397.850	79.988	19.993	99.665	16.164	244.897	0.523
637.500	398.630	79.990	19.994	99.623	16.319	234.882	0.514
639.000	399.371	79.995	19.993	99.626	16.479	225.118	0.499
640.500	400.154	79.989	19.993	99.628	16.650	214.775	0.507
642.000	400.909	79.994	19.992	99.630	16.826	203.909	0.497
643.501	401.714	80.001	19.994	99.668	17.014	192.273	0.524
645.000	402.512	79.996	19.994	99.659	17.198	180.789	0.545
646.500	403.297	79.988	19.992	99.628	17.380	169.465	0.520
648.000	404.037	79.990	19.992	99.467	17.550	158.966	0.513
649.500	404.777	79.991	19.992	99.432	17.721	148.340	0.490
651.001	405.527	79.990	19.993	99.571	17.874	138.806	0.503
652.500	406.316	79.989	19.994	99.637	18.027	129.295	0.535
654.000	407.090	79.988	19.993	99.665	18.171	120.337	0.513
655.500	407.825	79.989	19.995	99.664	18.308	111.818	0.488
657.000	408.614	79.988	19.993	99.642	18.437	103.796	0.520
658.500	409.374	79.988	19.994	99.689	18.558	96.285	0.498
660.000	410.097	79.987	19.994	99.706	18.670	89.269	0.500
661.500	410.891	79.988	19.995	99.690	18.775	82.781	0.516
663.000	411.618	79.989	19.993	99.707	18.874	76.599	0.485
664.500	412.389	79.988	19.993	99.713	18.966	70.891	0.527
666.000	413.134	79.991	19.995	99.712	19.049	65.729	0.499
667.500	413.887	79.998	19.994	99.704	19.129	60.757	0.490
669.000	414.626	79.997	19.993	99.702	19.207	55.918	0.477
670.500	415.337	79.997	19.994	99.691	19.277	51.586	0.470
672.000	416.144	79.996	19.995	99.711	19.341	47.572	0.513
673.500	416.868	79.999	19.993	99.722	19.402	43.763	0.477
675.000	417.607	80.001	19.996	99.722	19.460	40.180	0.493
676.500	418.336	79.995	19.994	99.729	19.510	37.060	0.476
678.000	419.115	79.995	19.993	99.749	19.560	33.967	0.524
679.500	419.864	80.000	19.994	99.744	19.605	31.161	0.502
681.000	420.628	80.001	19.993	99.748	19.645	28.645	0.515
682.500	421.405	80.000	19.994	99.758	19.683	26.302	0.515
684.000	422.139	80.002	19.993	99.766	19.716	24.233	0.505
685.500	422.895	80.002	19.995	99.781	19.748	22.239	0.502
687.000	423.654	80.004	19.995	99.792	19.774	20.629	0.487
688.500	424.385	80.006	19.995	99.798	19.802	18.889	0.507
690.000	425.147	80.003	19.994	99.802	19.825	17.445	0.517
691.500	425.927	80.003	19.993	99.807	19.846	16.151	0.506
693.000	426.665	80.002	19.994	99.807	19.865	14.966	0.490
694.500	427.427	80.004	19.994	99.807	19.881	13.987	0.528
696.000	428.206	80.009	19.993	99.816	19.895	13.098	0.526
697.500	428.985	80.009	19.994	99.813	19.909	12.207	0.509
699.000	429.729	80.009	19.992	99.812	19.920	11.524	0.528
700.500	430.502	80.010	19.994	99.817	19.934	10.669	0.513
702.000	431.258	80.010	19.993	99.830	19.942	10.150	0.482
703.500	432.026	80.007	19.995	99.835	19.953	9.504	0.498
705.001	432.806	80.001	19.993	99.836	19.960	9.037	0.511
706.500	433.578	79.998	19.994	99.801	19.967	8.608	0.522
708.000	434.358	79.997	19.993	99.765	19.979	7.841	0.528
709.500	435.092	79.994	19.994	99.824	19.982	7.700	0.520
711.000	435.880	79.993	19.994	99.906	19.993	6.966	0.550
712.500	436.636	79.992	19.993	99.893	20.002	6.453	0.500
714.000	437.454	79.988	19.994	99.837	20.004	6.303	0.552
715.500	438.210	79.997	19.995	99.822	20.009	6.010	0.528
717.000	438.950	79.993	19.994	99.820	20.015	5.615	0.494
718.500	439.758	79.992	19.993	99.825	20.021	5.281	0.551
720.000	440.523	79.997	19.993	99.815	20.023	5.105	0.536
721.500	441.276	80.003	19.993	99.825	20.029	4.743	0.494
723.000	442.037	80.009	19.993	99.841	20.034	4.465	0.532
724.500	442.823	80.010	19.994	99.837	20.036	4.305	0.527
726.000	443.575	80.009	19.993	99.825	20.037	4.231	0.489
727.500	444.360	80.009	19.991	99.829	20.039	4.122	0.514
729.000	445.132	80.010	19.993	99.839	20.042	3.964	0.515
730.500	445.891	80.010	19.993	99.839	20.042	3.932	0.513
732.000	446.665	80.007	19.994	99.828	20.045	3.784	0.525
733.500	447.446	80.008	19.993	99.818	20.046	3.671	0.517
735.000	448.257	80.008	19.993	99.818	20.048	3.550	0.524
736.500	449.020	80.008	19.992	99.812	20.046	3.724	0.507
738.000	449.756	80.007	19.992	99.817	20.049	3.537	0.498
739.500	450.525	80.008	19.994	99.835	20.049	3.527	0.490
741.000	451.287	80.009	19.994	99.819	20.053	3.276	0.499
742.500	452.095	80.010	19.994	99.770	20.051	3.362	0.534
744.000	452.801	80.009	19.994	99.813	20.055	3.128	0.469
745.500	453.553	80.010	19.992	99.883	20.050	3.453	0.499
747.000	454.348	80.009	19.994	99.861	20.053	3.234	0.546
748.500	455.109	80.010	19.992	99.828	20.052	3.323	0.515
750.000	455.884	80.010	19.994	99.816	20.049	3.531	0.510
751.500	456.613	80.009	19.994	99.813	20.050	3.439	0.497
753.000	457.428	80.011	19.994	99.832	20.051	3.379	0.524
754.500	458.213	80.010	19.993	99.836	20.050	3.447	0.509
756.000	458.948	80.010	19.994	99.841	20.052	3.325	0.464
757.500	459.696	80.010	19.993	99.837	20.049	3.481	0.503
759.000	460.448	80.011	19.994	99.833	20.050	3.437	0.495
760.500	461.210	80.009	19.993	99.831	20.052	3.316	0.518
762.000	461.942	80.009	19.994	99.837	20.048	3.580	0.480
763.500	462.726	80.010	19.994	99.828	20.049	3.490	0.496
765.000	463.410	80.009	19.994	99.835	20.051	3.391	0.460
766.500	464.174	80.010	19.993	99.838	20.048	3.584	0.529
768.001	464.922	80.009	19.994	99.834	20.050	3.427	0.514
769.500	465.707	80.008	19.993	99.834	20.051	3.367	0.519
771.000	466.459	80.009	19.993	99.842	20.052	3.312	0.513
772.500	467.211	80.009	19.995	99.838	20.045	3.729	0.495
774.000	467.989	80.009	19.994	99.824	20.052	3.342	0.507
775.500	468.755	80.011	19.994	99.829	20.051	3.377	0.511
777.000	469.516	80.009	19.994	99.837	20.053	3.270	0.536
778.500	470.255	80.011	19.995	99.840	20.055	3.128	0.502
780.000	471.048	80.010	19.995	99.841	20.056	3.064	0.524
781.500	471.818	80.009	19.995	99.830	20.055	3.132	0.516
783.000	472.560	80.010	19.996	99.814	20.054	3.189	0.492
784.500	473.371	80.008	19.994	99.807	20.054	3.179	0.549
786.000	474.100	80.008	19.993	99.823	20.050	3.430	0.494
787.500	474.901	80.008	19.994	99.836	20.055	3.125	0.541
789.000	475.679	80.008	19.994	99.838	20.054	3.193	0.522
790.500	476.492	80.009	19.993	99.838	20.056	3.051	0.543
792.000	477.221	80.009	19.993	99.835	20.051	3.371	0.488
793.500	478.010	80.009	19.995	99.820	20.054	3.174	0.522
795.000	478.807	80.009	19.994	99.815	20.051	3.396	0.526
796.500	479.552	80.008	19.994	99.820	20.055	3.108	0.506
798.000	480.300	80.009	19.993	99.831	20.058	2.922	0.469
799.500	480.987	80.009	19.994	99.841	20.056	3.064	0.460
801.000	481.805	80.009	19.991	99.834	20.056	3.070	0.517
802.500	482.595	80.009	19.992	99.813	20.054	3.200	0.529
804.000	483.361	80.008	19.994	99.808	20.057	3.041	0.519
805.500	484.143	80.010	19.994	99.816	20.055	3.126	0.523
807.000	484.846	80.009	19.994	99.833	20.058	2.932	0.461
808.500	485.657	80.008	19.993	99.833	20.055	3.115	0.546
810.000	486.433	80.006	19.992	99.804	20.057	3.007	0.520
811.500	487.217	80.010	19.994	99.760	20.055	3.111	0.529
813.000	487.985	80.009	19.994	99.872	20.060	2.850	0.506
814.500	488.751	80.008	19.993	99.898	20.060	2.824	0.521
816.000	489.518	80.008	19.992	99.825	20.060	2.821	0.533
817.500	490.323	80.009	19.992	99.830	20.061	2.790	0.537
819.000	491.070	80.008	19.994	99.837	20.059	2.881	0.484
820.500	491.847	80.008	19.992	99.828	20.061	2.770	0.506
822.000	492.643	80.008	19.992	99.816	20.056	3.041	0.516
823.500	493.428	80.007	19.993	99.812	20.058	2.942	0.536
825.000	494.226	80.007	19.991	99.823	20.057	2.996	0.541
826.500	495.008	80.007	19.993	99.823	20.058	2.949	0.527
828.000	495.801	80.006	19.992	99.815	20.058	2.930	0.523
829.500	496.561	80.008	19.993	99.829	20.055	3.119	0.538
831.000	497.366	80.010	19.993	99.838	20.055	3.102	0.539
832.500	498.128	80.009	19.995	99.835	20.059	2.853	0.511
834.000	498.890	80.006	19.993	99.818	20.057	3.036	0.502
835.500	499.646	80.009	19.992	99.804	20.057	2.992	0.509
837.000	500.417	80.008	19.992	99.809	20.058	2.923	0.496
838.500	501.194	80.008	19.992	99.823	20.056	3.043	0.509
840.000	501.968	80.007	19.993	99.820	20.057	3.007	0.519
841.500	502.731	80.005	19.994	99.821	20.058	2.969	0.508
843.000	503.437	80.007	19.993	99.819	20.057	3.025	0.498
844.500	504.269	80.009	19.993	99.834	20.059	2.858	0.542
846.000	505.020	80.009	19.994	99.836	20.059	2.874	0.504
847.500	505.787	80.008	19.994	99.828	20.058	2.967	0.498
849.000	506.602	80.009	19.995	99.828	20.061	2.729	0.519
850.500	507.376	80.010	19.994	99.836	20.060	2.848	0.500
852.000	508.099	80.009	19.995	99.830	20.062	2.725	0.508
853.500	508.925	80.010	19.995	99.816	20.058	2.961	0.552
855.000	509.663	80.008	19.994	99.814	20.058	2.932	0.495
856.500	510.465	80.011	19.995	99.817	20.057	3.028	0.521
858.000	511.211	80.010	19.993	99.808	20.056	3.099	0.497
859.500	511.959	80.010	19.994	99.817	20.054	3.181	0.503
861.000	512.715	80.009	19.994	99.824	20.056	3.047	0.513
862.500	513.505	80.010	19.995	99.818	20.055	3.111	0.540
864.000	514.296	80.010	19.995	99.828	20.056	3.101	0.531
865.500	515.054	80.008	19.996	99.833	20.054	3.212	0.510
867.000	515.873	80.007	19.995	99.837	20.054	3.214	0.539
868.500	516.626	80.008	19.995	99.834	20.051	3.401	0.496
870.000	517.366	80.006	19.994	99.832	20.058	2.922	0.508
871.500	518.199	80.004	19.994	99.838	20.051	3.386	0.572
873.000	518.922	79.997	19.995	99.838	20.056	3.059	0.499
874.500	519.698	80.001	19.994	99.838	20.053	3.246	0.507
876.000	520.482	80.005	19.993	99.836	20.055	3.142	0.529
877.500	521.238	80.005	19.993	99.834	20.054	3.169	0.501
879.000	522.019	80.004	19.994	99.837	20.057	2.988	0.516
880.500	522.785	79.999	19.994	99.839	20.059	2.906	0.512
882.000	523.556	80.000	19.994	99.838	20.058	2.955	0.504
883.500	524.363	79.996	19.993	99.842	20.059	2.886	0.547
885.000	525.094	79.998	19.993	99.843	20.061	2.761	0.500
886.500	525.887	79.994	19.993	99.843	20.059	2.879	0.535
888.000	526.645	79.990	19.992	99.842	20.059	2.908	0.493
889.500	527.450	79.989	19.995	99.834	20.058	2.917	0.548
891.000	528.245	79.989	19.993	99.833	20.061	2.777	0.521
892.500	529.073	79.988	19.993	99.818	20.058	2.925	0.559
894.000	529.816	79.989	19.992	99.811	20.059	2.904	0.511
895.500	530.577	79.990	19.992	99.821	20.055	3.111	0.528
897.000	531.370	79.987	19.992	99.812	20.055	3.103	0.532
898.500	532.125	79.988	19.993	99.811	20.059	2.903	0.508
900.000	532.904	79.989	19.992	99.825	20.057	3.019	0.510
901.500	533.742	79.989	19.992	99.837	20.059	2.900	0.534
903.000	534.505	79.987	19.993	99.827	20.056	3.053	0.516
904.500	535.275	79.988	19.992	99.817	20.061	2.748	0.520
906.000	536.092	79.990	19.994	99.824	20.058	2.935	0.542
907.500	536.822	79.998	19.992	99.835	20.059	2.862	0.509
909.000	537.551	79.993	19.992	99.825	20.059	2.867	0.481
910.500	538.372	79.993	19.994	99.817	20.061	2.753	0.550
912.000	539.125	79.995	19.993	99.833	20.057	3.036	0.507
913.500	539.882	79.997	19.994	99.839	20.055	3.155	0.510
915.000	540.668	80.000	19.993	99.838	20.058	2.969	0.523
916.500	541.463	80.000	19.992	99.826	20.057	2.990	0.544
918.000	542.205	79.997	19.993	99.823	20.055	3.121	0.512
919.500	542.996	80.001	19.993	99.833	20.057	3.020	0.541
920.500	543.458	79.997	19.994	99.832	20.054	3.201	0.481