File: 01_Data/Polyurethane_Foam/MCC/Polyurethane_Foam_MCC_30K_min_210308_R1.txt
Sample ID:	C:\MCC\MCC Cal\Test\PUF_30_1.txt.txt
Sample Weight (mg):	3.67
Heating Rate (C/s):	0.5
Combustor Temp (C):	900
N2 Flow Rate (cc/min):	80
O2 Flow Rate (cc/min):	20
Calibration File:	C:\MCC\MCC Cal\Coeff1 JN10440_30_210304.txt.txt
T Correction Coefficients:	0	1.024463	0
Time Shift (s):	14
*
Time (s)	Temperature (C)	N2 flow rate (cc/min)	O2 flow rate (cc/min)	Flow Rate (cc/min)	Oxygen (%)	HRR (W/g)	Heating rate (C/s)
0.000	106.147	80.006	19.995	99.580	20.126	-0.123	0.007
1.500	106.136	80.007	19.997	99.574	20.125	-0.037	-0.010
3.000	106.114	80.005	19.996	99.573	20.125	-0.051	-0.009
4.500	106.148	80.007	19.998	99.592	20.124	0.058	0.020
6.000	106.162	80.006	19.997	99.602	20.123	0.160	0.001
7.500	106.117	80.008	19.997	99.609	20.125	0.012	-0.016
9.000	106.137	80.007	19.995	99.609	20.121	0.357	0.023
10.500	106.139	80.007	19.997	99.616	20.121	0.357	-0.010
12.000	106.160	80.008	19.996	99.627	20.118	0.543	0.006
13.500	106.128	80.007	19.996	99.634	20.117	0.677	-0.014
15.000	106.175	80.007	19.995	99.644	20.115	0.792	0.032
16.500	106.188	80.006	19.995	99.657	20.114	0.929	0.013
18.000	106.197	80.008	19.995	99.663	20.111	1.185	-0.001
19.500	106.233	80.007	19.996	99.665	20.110	1.282	0.030
21.000	106.297	80.004	19.995	99.690	20.107	1.526	0.044
22.500	106.331	80.003	19.994	99.721	20.100	2.085	0.031
24.000	106.444	80.003	19.994	99.680	20.096	2.459	0.073
25.500	106.526	80.005	19.996	99.686	20.095	2.548	0.062
27.000	106.608	80.004	19.996	99.813	20.094	2.586	0.059
28.500	106.737	80.004	19.997	99.828	20.094	2.579	0.092
30.000	106.904	80.004	19.996	99.767	20.094	2.574	0.122
31.500	107.025	80.001	19.995	99.765	20.087	3.239	0.071
32.999	107.170	80.001	19.996	99.766	20.089	3.023	0.099
34.499	107.319	80.005	19.994	99.770	20.090	2.988	0.096
35.999	107.515	80.004	19.995	99.781	20.086	3.316	0.119
37.499	107.766	80.003	19.995	99.800	20.087	3.217	0.166
38.999	107.975	80.005	19.995	99.807	20.083	3.572	0.111
40.499	108.150	80.004	19.995	99.811	20.083	3.569	0.108
41.999	108.461	80.005	19.995	99.805	20.082	3.627	0.201
43.499	108.713	80.003	19.994	99.816	20.080	3.837	0.152
44.999	108.989	80.003	19.996	99.832	20.078	3.974	0.179
46.499	109.286	80.005	19.994	99.826	20.082	3.635	0.193
48.001	109.623	80.004	19.996	99.840	20.077	4.039	0.189
49.500	109.989	80.003	19.997	99.839	20.080	3.767	0.247
50.999	110.297	80.004	19.996	99.828	20.079	3.853	0.212
52.499	110.642	80.003	19.997	99.821	20.079	3.872	0.223
53.999	111.007	80.003	19.996	99.827	20.078	4.002	0.254
55.499	111.408	80.006	19.996	99.839	20.080	3.786	0.260
56.999	111.738	80.005	19.994	99.842	20.076	4.167	0.231
58.500	112.149	80.005	19.995	99.841	20.076	4.146	0.276
59.999	112.574	80.006	19.995	99.838	20.078	4.007	0.272
61.499	113.010	80.004	19.996	99.837	20.076	4.161	0.298
62.999	113.424	80.006	19.994	99.837	20.068	4.777	0.272
64.499	113.867	80.007	19.995	99.837	20.074	4.270	0.289
66.000	114.337	80.008	19.997	99.839	20.071	4.562	0.313
67.500	114.757	80.007	19.997	99.845	20.071	4.537	0.278
68.999	115.242	80.006	19.996	99.843	20.071	4.577	0.321
70.499	115.706	80.006	19.996	99.847	20.070	4.674	0.318
71.999	116.205	80.007	19.997	99.857	20.070	4.607	0.318
73.499	116.714	80.007	19.996	99.871	20.071	4.537	0.357
74.999	117.191	80.006	19.995	99.867	20.070	4.679	0.335
76.499	117.722	80.006	19.995	99.853	20.071	4.592	0.330
77.999	118.224	80.006	19.996	99.845	20.074	4.299	0.344
79.499	118.731	80.005	19.995	99.854	20.071	4.573	0.336
80.999	119.327	80.006	19.995	99.860	20.070	4.661	0.386
82.499	119.871	80.005	19.995	99.850	20.071	4.527	0.347
83.999	120.437	80.005	19.994	99.851	20.072	4.518	0.359
85.499	121.008	80.007	19.995	99.855	20.072	4.480	0.394
86.999	121.606	80.005	19.994	99.872	20.072	4.507	0.393
88.499	122.194	80.008	19.995	99.874	20.071	4.593	0.394
89.999	122.762	80.008	19.995	99.872	20.073	4.391	0.378
91.499	123.389	80.007	19.994	99.878	20.073	4.422	0.425
93.000	123.979	80.008	19.994	99.879	20.073	4.391	0.379
94.499	124.596	80.007	19.994	99.883	20.071	4.542	0.433
95.999	125.191	80.006	19.994	99.882	20.076	4.171	0.400
97.499	125.765	80.007	19.994	99.872	20.071	4.566	0.386
98.999	126.433	80.005	19.993	99.859	20.067	4.873	0.403
100.499	127.052	80.003	19.996	99.868	20.069	4.745	0.422
101.999	127.693	80.003	19.996	99.866	20.072	4.476	0.410
103.499	128.302	80.004	19.997	99.866	20.073	4.425	0.400
104.999	128.962	80.004	19.996	99.858	20.070	4.608	0.429
106.499	129.594	80.004	19.997	99.874	20.068	4.803	0.407
107.999	130.228	80.003	19.996	99.885	20.067	4.894	0.428
109.499	130.868	80.005	19.997	99.886	20.071	4.578	0.433
111.001	131.503	80.005	19.996	99.885	20.072	4.453	0.424
112.499	132.150	80.005	19.997	99.890	20.069	4.731	0.435
113.999	132.802	80.005	19.996	99.890	20.068	4.798	0.446
115.500	133.498	80.005	19.997	99.880	20.069	4.717	0.449
116.999	134.121	80.006	19.997	99.878	20.070	4.687	0.416
118.499	134.792	80.006	19.997	99.881	20.071	4.526	0.459
119.999	135.448	80.005	19.996	99.882	20.069	4.724	0.409
121.499	136.173	80.006	19.996	99.887	20.070	4.682	0.463
122.999	136.855	80.005	19.998	99.884	20.073	4.397	0.444
124.500	137.524	80.004	19.998	99.873	20.075	4.198	0.446
126.000	138.250	80.004	19.998	99.871	20.074	4.344	0.479
127.499	138.916	80.004	19.999	99.878	20.071	4.544	0.435
129.000	139.616	80.005	19.997	99.871	20.075	4.179	0.470
130.500	140.323	80.004	19.997	99.876	20.072	4.468	0.473
132.000	140.976	80.004	19.998	99.875	20.073	4.400	0.448
133.500	141.718	80.003	19.998	99.852	20.073	4.359	0.471
135.000	142.429	80.003	19.997	99.844	20.069	4.742	0.459
136.500	143.161	80.003	19.998	99.848	20.071	4.579	0.483
138.000	143.856	80.004	19.998	99.844	20.070	4.658	0.451
139.500	144.567	80.004	19.998	99.849	20.071	4.582	0.453
141.000	145.316	80.005	19.998	99.869	20.071	4.597	0.512
142.500	146.044	79.999	19.997	99.859	20.070	4.641	0.488
144.000	146.748	79.990	19.995	99.870	20.073	4.426	0.495
145.500	147.471	79.988	19.996	99.863	20.070	4.617	0.487
147.000	148.166	79.988	19.995	99.856	20.071	4.602	0.483
148.500	148.943	79.988	19.995	99.864	20.067	4.878	0.518
150.000	149.666	79.989	19.995	99.867	20.067	4.890	0.478
151.500	150.401	79.990	19.996	99.881	20.068	4.797	0.494
153.000	151.131	80.003	19.995	99.887	20.072	4.517	0.487
154.500	151.845	80.005	19.995	99.911	20.069	4.766	0.480
156.000	152.611	80.006	19.995	99.903	20.071	4.597	0.529
157.500	153.331	80.006	19.996	99.848	20.069	4.748	0.510
159.000	154.102	80.005	19.994	99.869	20.074	4.297	0.526
160.500	154.794	80.004	19.995	99.885	20.072	4.476	0.479
162.000	155.555	80.004	19.996	99.884	20.072	4.499	0.501
163.500	156.281	80.004	19.996	99.880	20.072	4.494	0.490
165.000	156.985	80.005	19.996	99.881	20.074	4.317	0.484
166.500	157.740	80.006	19.994	99.883	20.067	4.861	0.483
168.000	158.486	80.008	19.994	99.886	20.068	4.815	0.495
169.500	159.256	80.007	19.996	99.892	20.070	4.622	0.532
171.000	160.027	80.006	19.994	99.889	20.070	4.610	0.497
172.500	160.758	80.007	19.994	99.878	20.066	4.946	0.488
174.000	161.488	80.006	19.995	99.875	20.068	4.775	0.485
175.500	162.216	80.006	19.995	99.879	20.068	4.819	0.500
177.000	162.925	80.006	19.995	99.881	20.074	4.324	0.456
178.500	163.722	80.005	19.995	99.880	20.067	4.881	0.494
180.000	164.488	80.005	19.995	99.876	20.072	4.489	0.497
181.500	165.207	80.005	19.995	99.877	20.070	4.670	0.477
183.000	165.976	80.004	19.996	99.854	20.072	4.472	0.504
184.500	166.705	80.004	19.996	99.858	20.068	4.797	0.505
186.000	167.471	80.003	19.997	99.879	20.069	4.702	0.513
187.500	168.230	80.004	19.996	99.864	20.073	4.376	0.522
189.000	169.023	80.004	19.996	99.852	20.072	4.476	0.531
190.500	169.740	80.005	19.995	99.860	20.072	4.516	0.480
192.000	170.496	80.003	19.995	99.874	20.074	4.290	0.516
193.500	171.265	80.004	19.997	99.861	20.072	4.481	0.513
195.000	172.010	80.004	19.995	99.847	20.074	4.297	0.499
196.500	172.758	80.005	19.995	99.842	20.073	4.390	0.520
198.000	173.512	80.006	19.996	99.843	20.075	4.225	0.494
199.500	174.287	80.005	19.997	99.848	20.076	4.116	0.517
201.000	175.017	80.006	19.996	99.847	20.076	4.172	0.457
202.500	175.777	80.005	19.997	99.843	20.073	4.351	0.516
204.000	176.527	80.004	19.996	99.842	20.075	4.258	0.496
205.500	177.270	80.004	19.994	99.838	20.077	4.021	0.508
207.000	178.023	80.004	19.995	99.834	20.075	4.261	0.505
208.500	178.821	80.004	19.996	99.840	20.075	4.189	0.534
210.000	179.554	80.006	19.996	99.846	20.074	4.298	0.490
211.500	180.304	80.004	19.996	99.848	20.076	4.119	0.489
213.000	181.056	80.003	19.997	99.847	20.073	4.398	0.496
214.500	181.814	80.004	19.998	99.845	20.076	4.121	0.510
216.000	182.561	80.004	19.997	99.847	20.079	3.900	0.484
217.500	183.268	80.005	19.998	99.851	20.081	3.735	0.474
219.000	184.034	80.005	19.999	99.856	20.077	4.065	0.518
220.500	184.833	80.004	19.995	99.861	20.076	4.105	0.544
222.000	185.595	80.006	19.995	99.857	20.078	3.937	0.524
223.500	186.368	80.006	19.995	99.853	20.077	4.072	0.520
225.000	187.116	80.006	19.996	99.859	20.079	3.839	0.503
226.500	187.909	80.004	19.996	99.849	20.081	3.702	0.526
228.000	188.638	80.005	19.996	99.850	20.077	4.060	0.473
229.500	189.357	80.005	19.995	99.852	20.082	3.591	0.502
231.000	190.103	80.004	19.994	99.860	20.076	4.096	0.505
232.500	190.850	80.005	19.996	99.856	20.080	3.766	0.483
234.000	191.600	80.006	19.995	99.846	20.081	3.707	0.489
235.500	192.337	80.005	19.995	99.843	20.080	3.826	0.488
237.000	193.089	80.005	19.997	99.843	20.077	4.060	0.506
238.500	193.840	80.007	19.996	99.844	20.078	4.002	0.498
240.000	194.598	80.005	19.996	99.848	20.082	3.612	0.498
241.500	195.347	80.006	19.995	99.848	20.077	4.042	0.498
243.000	196.107	80.006	19.996	99.856	20.075	4.197	0.472
244.500	196.821	80.007	19.995	99.847	20.078	4.002	0.466
246.000	197.599	80.008	19.995	99.845	20.077	4.032	0.524
247.500	198.310	80.007	19.994	99.839	20.078	3.983	0.489
249.000	199.067	80.007	19.996	99.840	20.073	4.391	0.513
250.500	199.818	80.008	19.994	99.843	20.074	4.286	0.499
252.000	200.523	80.008	19.995	99.843	20.075	4.180	0.483
253.500	201.286	80.007	19.995	99.841	20.071	4.602	0.505
255.000	202.031	80.008	19.996	99.837	20.075	4.188	0.488
256.500	202.757	80.005	19.996	99.833	20.069	4.716	0.501
258.000	203.486	80.006	19.994	99.837	20.072	4.509	0.475
259.500	204.244	80.005	19.995	99.824	20.068	4.823	0.484
261.000	204.947	80.005	19.994	99.822	20.067	4.878	0.475
262.500	205.736	80.005	19.994	99.783	20.063	5.232	0.525
264.000	206.449	80.006	19.995	99.794	20.068	4.855	0.477
265.500	207.257	80.005	19.996	99.899	20.069	4.709	0.537
267.000	207.949	80.006	19.995	99.883	20.068	4.832	0.466
268.500	208.669	80.004	19.995	99.843	20.065	5.073	0.481
270.000	209.450	80.005	19.996	99.844	20.064	5.141	0.478
271.500	210.192	80.004	19.996	99.845	20.064	5.163	0.501
273.000	210.952	80.005	19.995	99.846	20.061	5.420	0.499
274.500	211.652	80.003	19.995	99.845	20.063	5.196	0.481
276.000	212.397	80.004	19.997	99.844	20.061	5.371	0.509
277.500	213.132	80.005	19.996	99.843	20.057	5.789	0.482
279.000	213.925	80.004	19.996	99.841	20.058	5.634	0.509
280.500	214.641	80.004	19.996	99.839	20.056	5.850	0.484
282.000	215.375	80.005	19.996	99.831	20.055	5.950	0.480
283.500	216.122	80.004	19.996	99.817	20.053	6.080	0.497
285.000	216.840	80.005	19.995	99.821	20.049	6.439	0.476
286.500	217.606	80.004	19.996	99.840	20.049	6.446	0.508
288.000	218.370	80.003	19.996	99.844	20.050	6.324	0.506
289.500	219.111	80.002	19.996	99.845	20.049	6.421	0.494
291.000	219.849	80.001	19.995	99.845	20.045	6.744	0.486
292.500	220.621	79.998	19.995	99.845	20.044	6.881	0.524
294.000	221.340	80.001	19.994	99.846	20.044	6.812	0.472
295.500	222.080	80.001	19.994	99.865	20.038	7.318	0.503
297.000	222.877	79.993	19.996	99.870	20.036	7.560	0.531
298.500	223.591	79.987	19.997	99.849	20.038	7.395	0.471
300.000	224.309	79.985	19.996	99.842	20.034	7.715	0.495
301.500	225.080	79.987	19.997	99.834	20.031	7.941	0.514
303.000	225.847	79.987	19.995	99.830	20.030	8.002	0.511
304.500	226.571	79.986	19.995	99.837	20.026	8.397	0.494
306.000	227.329	79.986	19.996	99.839	20.023	8.615	0.494
307.500	228.055	79.986	19.998	99.839	20.018	9.034	0.488
309.000	228.855	79.985	19.996	99.839	20.017	9.108	0.513
310.500	229.587	79.988	19.996	99.838	20.014	9.405	0.494
312.000	230.383	79.986	19.996	99.833	20.012	9.575	0.529
313.500	231.106	79.986	19.995	99.839	20.008	9.915	0.491
315.000	231.849	79.987	19.995	99.839	20.003	10.341	0.494
316.500	232.568	79.988	19.995	99.839	20.001	10.536	0.488
318.000	233.333	79.988	19.994	99.842	19.992	11.274	0.520
319.500	234.103	79.985	19.995	99.843	19.989	11.479	0.512
321.000	234.790	79.987	19.995	99.840	19.987	11.677	0.483
322.500	235.554	79.988	19.995	99.843	19.984	11.925	0.502
324.000	236.311	79.988	19.995	99.843	19.979	12.363	0.514
325.500	237.080	79.988	19.994	99.849	19.977	12.522	0.495
327.000	237.868	79.988	19.995	99.866	19.968	13.327	0.515
328.500	238.544	79.988	19.993	99.870	19.968	13.335	0.461
330.000	239.285	79.989	19.995	99.850	19.960	13.969	0.492
331.500	240.020	79.989	19.996	99.845	19.956	14.316	0.485
333.000	240.742	79.988	19.996	99.858	19.950	14.858	0.483
334.500	241.521	79.988	19.996	99.869	19.946	15.179	0.526
336.000	242.287	79.987	19.995	99.873	19.941	15.560	0.518
337.500	243.036	79.997	19.996	99.878	19.935	16.124	0.539
339.000	243.795	80.000	19.996	99.877	19.928	16.672	0.523
340.500	244.528	80.002	19.995	99.866	19.924	17.040	0.485
342.000	245.262	80.000	19.995	99.871	19.916	17.743	0.499
343.500	246.040	79.998	19.994	99.878	19.907	18.508	0.527
345.000	246.772	79.995	19.995	99.880	19.904	18.763	0.477
346.500	247.490	79.997	19.994	99.875	19.895	19.522	0.479
348.000	248.223	79.997	19.994	99.868	19.885	20.383	0.491
349.500	249.009	80.002	19.994	99.858	19.881	20.710	0.560
351.000	249.801	80.003	19.995	99.874	19.871	21.576	0.517
352.500	250.561	80.003	19.994	99.885	19.861	22.423	0.497
354.000	251.314	80.007	19.995	99.885	19.855	22.921	0.517
355.500	252.077	80.006	19.995	99.884	19.844	23.863	0.507
357.000	252.841	80.007	19.995	99.889	19.835	24.607	0.508
358.500	253.548	80.005	19.996	99.894	19.827	25.256	0.482
360.000	254.329	80.005	19.996	99.889	19.819	25.983	0.530
361.500	255.067	80.005	19.995	99.885	19.809	26.852	0.502
363.000	255.854	80.003	19.995	99.884	19.798	27.743	0.512
364.500	256.558	80.004	19.996	99.888	19.789	28.518	0.491
366.000	257.294	80.005	19.995	99.889	19.775	29.698	0.502
367.500	258.034	80.006	19.997	99.896	19.766	30.466	0.482
369.000	258.786	80.006	19.996	99.892	19.754	31.497	0.508
370.500	259.567	80.002	19.997	99.897	19.744	32.380	0.496
372.000	260.292	80.005	19.996	99.919	19.726	33.841	0.488
373.500	261.060	80.005	19.995	99.912	19.719	34.500	0.511
375.000	261.802	80.007	19.996	99.904	19.706	35.544	0.522
376.500	262.568	80.005	19.996	99.908	19.694	36.549	0.515
378.000	263.307	80.006	19.996	99.914	19.680	37.739	0.488
379.500	264.045	80.006	19.997	99.916	19.665	39.058	0.489
381.000	264.811	80.005	19.996	99.919	19.653	40.052	0.522
382.500	265.548	80.008	19.997	99.915	19.637	41.434	0.504
384.000	266.312	80.006	19.998	99.914	19.622	42.757	0.509
385.500	267.046	80.006	19.996	99.918	19.608	43.930	0.475
387.000	267.790	80.005	19.997	99.916	19.593	45.137	0.492
388.500	268.581	80.006	19.997	99.864	19.577	46.579	0.506
390.000	269.324	80.005	19.996	99.858	19.556	48.321	0.493
391.500	270.090	80.005	19.996	99.911	19.544	49.357	0.508
393.000	270.875	80.006	19.996	99.938	19.528	50.695	0.507
394.500	271.610	80.005	19.995	99.978	19.516	51.752	0.491
396.000	272.398	80.006	19.996	99.970	19.498	53.246	0.529
397.500	273.075	80.007	19.994	99.939	19.487	54.179	0.477
399.000	273.891	80.004	19.995	99.952	19.469	55.749	0.510
400.500	274.629	80.007	19.995	99.960	19.454	57.044	0.486
402.000	275.382	80.008	19.994	99.960	19.434	58.702	0.494
403.500	276.084	80.009	19.996	99.960	19.421	59.795	0.479
405.000	276.820	80.006	19.995	99.961	19.406	61.096	0.498
406.500	277.556	80.008	19.995	99.964	19.390	62.441	0.477
408.000	278.325	80.007	19.996	99.970	19.377	63.587	0.497
409.500	279.100	80.007	19.994	99.980	19.361	64.908	0.513
411.000	279.852	80.006	19.996	99.995	19.347	66.120	0.517
412.500	280.569	80.006	19.996	99.985	19.340	66.737	0.485
414.000	281.309	80.004	19.995	99.965	19.327	67.781	0.489
415.500	282.106	80.004	19.996	99.966	19.313	68.991	0.526
417.000	282.828	80.005	19.995	99.981	19.303	69.807	0.471
418.500	283.582	80.007	19.994	99.985	19.292	70.741	0.504
420.000	284.356	80.005	19.996	99.984	19.283	71.562	0.513
421.500	285.077	80.004	19.995	99.985	19.270	72.618	0.492
423.000	285.853	80.004	19.996	99.981	19.269	72.681	0.497
424.500	286.597	80.006	19.997	99.987	19.262	73.336	0.498
426.000	287.416	80.006	19.996	99.987	19.259	73.583	0.565
427.500	288.151	80.006	19.996	99.979	19.258	73.616	0.506
429.000	288.927	80.007	19.996	99.988	19.259	73.568	0.516
430.500	289.702	80.006	19.996	99.970	19.264	73.103	0.490
432.000	290.470	80.005	19.996	99.964	19.269	72.740	0.512
433.500	291.224	80.005	19.996	99.963	19.284	71.441	0.504
435.000	291.976	80.006	19.995	99.962	19.296	70.436	0.513
436.500	292.767	80.006	19.995	99.960	19.316	68.718	0.541
438.000	293.488	80.005	19.996	99.944	19.341	66.591	0.489
439.500	294.299	80.005	19.996	99.943	19.369	64.249	0.529
441.000	295.047	80.006	19.997	99.940	19.402	61.426	0.507
442.500	295.829	80.003	19.995	99.934	19.435	58.583	0.529
444.000	296.537	80.004	19.995	99.945	19.469	55.689	0.467
445.500	297.329	80.004	19.995	99.946	19.499	53.139	0.526
447.000	298.111	80.004	19.996	99.945	19.529	50.639	0.530
448.500	298.859	80.003	19.995	99.948	19.551	48.743	0.495
450.000	299.573	80.004	19.994	99.955	19.569	47.170	0.481
451.500	300.339	80.005	19.994	99.952	19.583	46.049	0.500
453.000	301.086	80.004	19.995	99.948	19.598	44.752	0.511
454.500	301.849	80.006	19.997	99.948	19.606	44.078	0.530
456.000	302.615	80.005	19.995	99.931	19.610	43.721	0.511
457.500	303.406	80.005	19.996	99.923	19.612	43.550	0.507
459.000	304.168	80.006	19.996	99.924	19.616	43.196	0.509
460.500	304.930	80.006	19.996	99.923	19.618	43.070	0.536
462.000	305.715	80.006	19.996	99.920	19.616	43.186	0.533
463.500	306.441	80.005	19.996	99.912	19.618	42.996	0.505
465.000	307.209	80.005	19.995	99.913	19.624	42.547	0.512
466.500	308.021	80.006	19.997	99.916	19.628	42.220	0.545
468.000	308.759	80.007	19.997	99.909	19.635	41.547	0.514
469.500	309.567	80.005	19.996	99.906	19.646	40.682	0.523
471.000	310.338	80.004	19.995	99.908	19.660	39.479	0.522
472.500	311.117	80.005	19.996	99.912	19.671	38.498	0.514
474.000	311.890	80.003	19.995	99.904	19.688	37.114	0.521
475.500	312.624	80.005	19.996	99.896	19.704	35.731	0.503
477.000	313.413	80.004	19.997	99.904	19.717	34.611	0.529
478.500	314.217	80.004	19.995	99.887	19.738	32.875	0.550
480.000	314.942	80.006	19.997	99.885	19.756	31.304	0.469
481.500	315.734	80.007	19.995	99.884	19.775	29.661	0.512
483.000	316.505	80.007	19.994	99.884	19.793	28.166	0.517
484.500	317.285	80.006	19.995	99.883	19.806	27.036	0.526
486.000	318.056	80.006	19.995	99.839	19.822	25.653	0.492
487.500	318.822	80.007	19.995	99.804	19.843	23.929	0.525
489.000	319.538	80.006	19.996	99.841	19.859	22.545	0.478
490.500	320.313	80.007	19.994	99.919	19.870	21.590	0.514
492.000	321.048	80.006	19.994	99.883	19.883	20.485	0.520
493.500	321.845	80.004	19.994	99.849	19.892	19.740	0.528
495.000	322.591	80.005	19.996	99.835	19.904	18.759	0.502
496.500	323.346	80.005	19.994	99.789	19.913	17.954	0.493
498.000	324.099	80.005	19.995	99.863	19.924	17.018	0.485
499.500	324.842	80.005	19.995	99.909	19.933	16.313	0.492
501.000	325.645	80.004	19.997	99.847	19.934	16.153	0.532
502.500	326.382	80.004	19.996	99.835	19.937	15.951	0.502
504.000	327.122	80.004	19.996	99.830	19.943	15.393	0.502
505.500	327.864	80.005	19.996	99.820	19.946	15.165	0.491
507.000	328.623	80.004	19.996	99.830	19.944	15.305	0.501
508.500	329.392	80.005	19.996	99.835	19.950	14.824	0.520
510.000	330.114	80.005	19.995	99.832	19.951	14.748	0.510
511.500	330.869	80.005	19.996	99.818	19.951	14.711	0.506
513.000	331.637	80.004	19.995	99.829	19.954	14.517	0.513
514.500	332.400	80.005	19.995	99.833	19.951	14.746	0.503
516.000	333.158	80.005	19.996	99.825	19.951	14.726	0.508
517.500	333.930	80.006	19.995	99.829	19.949	14.922	0.504
519.000	334.680	80.005	19.994	99.831	19.949	14.913	0.514
520.500	335.417	80.004	19.995	99.833	19.948	14.963	0.484
522.000	336.163	80.004	19.995	99.836	19.949	14.949	0.495
523.500	336.944	80.003	19.995	99.834	19.941	15.555	0.524
525.000	337.709	80.004	19.996	99.822	19.941	15.615	0.514
526.500	338.464	80.004	19.996	99.826	19.941	15.590	0.497
528.000	339.213	80.003	19.997	99.822	19.935	16.120	0.492
529.500	339.932	80.004	19.996	99.811	19.930	16.529	0.469
531.000	340.718	80.005	19.996	99.811	19.926	16.855	0.507
532.500	341.452	80.004	19.995	99.826	19.923	17.156	0.479
534.000	342.208	80.003	19.997	99.841	19.917	17.663	0.511
535.500	342.963	80.006	19.997	99.839	19.911	18.133	0.512
537.000	343.697	80.003	19.996	99.840	19.906	18.543	0.484
538.500	344.467	80.004	19.995	99.844	19.901	18.951	0.524
540.000	345.211	80.003	19.995	99.844	19.898	19.240	0.502
541.500	345.971	80.006	19.995	99.844	19.886	20.260	0.510
543.000	346.734	80.005	19.995	99.842	19.879	20.869	0.500
544.500	347.470	80.005	19.995	99.835	19.866	21.985	0.488
546.000	348.225	80.005	19.994	99.816	19.855	22.855	0.521
547.500	349.020	80.005	19.996	99.807	19.845	23.712	0.537
549.000	349.762	80.006	19.995	99.818	19.833	24.759	0.505
550.500	350.515	80.005	19.995	99.817	19.818	26.022	0.513
552.000	351.277	80.005	19.996	99.810	19.807	26.959	0.506
553.500	352.055	80.005	19.996	99.812	19.794	28.095	0.514
555.000	352.822	80.006	19.997	99.814	19.778	29.419	0.478
556.500	353.573	80.005	19.996	99.822	19.757	31.230	0.496
558.000	354.342	80.006	19.997	99.818	19.739	32.760	0.511
559.500	355.054	80.009	19.996	99.831	19.724	34.031	0.490
561.000	355.843	80.006	19.996	99.838	19.703	35.817	0.516
562.500	356.590	80.006	19.995	99.837	19.679	37.797	0.503
564.000	357.338	80.008	19.995	99.839	19.656	39.787	0.492
565.500	358.073	80.009	19.994	99.837	19.634	41.649	0.497
567.000	358.841	80.007	19.994	99.833	19.608	43.894	0.519
568.500	359.616	80.008	19.994	99.833	19.577	46.470	0.492
570.000	360.372	80.007	19.996	99.840	19.550	48.829	0.498
571.500	361.126	80.005	19.995	99.851	19.516	51.703	0.482
573.000	361.897	80.005	19.996	99.850	19.488	54.080	0.524
574.500	362.617	80.005	19.994	99.832	19.449	57.360	0.475
576.000	363.404	80.004	19.995	99.834	19.409	60.792	0.514
577.500	364.186	80.004	19.995	99.858	19.373	63.820	0.530
579.000	364.935	80.005	19.994	99.870	19.329	67.552	0.499
580.500	365.681	80.004	19.996	99.867	19.289	70.940	0.495
582.000	366.436	80.003	19.996	99.873	19.242	74.996	0.509
583.500	367.194	80.005	19.994	99.882	19.192	79.186	0.504
585.000	367.933	80.006	19.995	99.883	19.138	83.764	0.498
586.500	368.721	80.005	19.994	99.881	19.087	88.154	0.521
588.000	369.440	80.003	19.995	99.882	19.029	93.040	0.479
589.500	370.185	80.004	19.994	99.878	18.968	98.184	0.512
591.000	370.957	80.005	19.994	99.878	18.909	103.204	0.521
592.500	371.728	80.005	19.994	99.881	18.846	108.590	0.524
594.000	372.530	80.005	20.008	99.896	18.784	113.905	0.530
595.500	373.284	80.006	19.998	99.900	18.706	120.485	0.503
597.000	374.060	80.005	19.999	99.889	18.625	127.407	0.507
598.500	374.789	80.004	19.998	99.890	18.548	133.932	0.496
600.000	375.568	80.002	19.996	99.889	18.463	141.061	0.502
601.500	376.307	80.000	19.996	99.891	18.382	147.960	0.494
603.000	377.048	80.005	19.995	99.900	18.296	155.377	0.487
604.500	377.786	80.001	19.994	99.908	18.204	163.168	0.494
606.000	378.538	80.003	19.996	99.903	18.114	170.817	0.518
607.500	379.293	80.004	19.995	99.918	18.017	179.075	0.505
609.000	380.056	80.004	19.996	99.924	17.927	186.467	0.492
610.500	380.770	80.004	19.995	99.894	17.831	194.544	0.484
612.000	381.573	80.005	19.996	99.870	17.726	203.446	0.544
613.500	382.339	80.005	19.996	99.906	17.611	213.125	0.531
615.000	383.080	80.005	19.996	99.926	17.494	223.132	0.484
616.500	383.848	80.005	19.996	99.938	17.394	231.569	0.521
618.000	384.601	80.006	19.995	99.936	17.301	239.410	0.495
619.500	385.368	80.007	19.996	99.856	17.213	246.714	0.498
621.000	386.140	80.006	19.994	99.778	17.138	253.033	0.512
622.500	386.907	80.006	19.995	99.760	17.073	258.536	0.505
624.000	387.636	80.008	19.995	99.745	17.016	263.425	0.492
625.500	388.388	80.006	19.996	99.757	16.964	267.806	0.505
627.000	389.124	80.006	19.995	99.762	16.939	269.929	0.510
628.500	389.916	80.006	19.995	99.743	16.935	270.261	0.495
630.000	390.653	80.006	19.995	99.673	16.938	269.928	0.479
631.500	391.451	80.004	19.995	99.641	16.949	269.020	0.540
633.000	392.203	80.006	19.995	99.660	16.968	267.416	0.497
634.500	392.908	80.007	19.995	99.673	17.002	264.448	0.483
636.000	393.708	80.007	19.995	99.663	17.040	261.129	0.519
637.500	394.473	80.006	19.997	99.673	17.083	257.468	0.511
639.000	395.188	80.007	19.995	99.659	17.137	252.892	0.462
640.500	395.950	80.008	19.997	99.644	17.199	247.714	0.509
642.000	396.731	80.006	19.994	99.641	17.270	241.800	0.525
643.500	397.466	80.006	19.995	99.645	17.357	234.472	0.499
645.000	398.243	80.006	19.996	99.624	17.452	226.421	0.503
646.500	398.979	80.006	19.996	99.575	17.561	217.173	0.491
648.000	399.728	80.007	19.995	99.558	17.679	207.155	0.497
649.500	400.507	80.006	19.996	99.553	17.796	197.276	0.521
651.000	401.249	80.005	19.995	99.574	17.914	187.315	0.498
652.500	402.058	80.005	19.995	99.622	18.026	177.782	0.555
654.000	402.796	80.005	19.996	99.653	18.143	167.919	0.489
655.500	403.553	80.003	19.994	99.653	18.259	158.085	0.523
657.000	404.336	80.003	19.994	99.647	18.368	148.783	0.508
658.500	405.065	80.004	19.994	99.635	18.472	139.989	0.490
660.000	405.808	80.005	19.994	99.647	18.573	131.560	0.493
661.500	406.606	80.004	19.994	99.653	18.678	122.680	0.519
663.000	407.375	80.002	19.994	99.649	18.773	114.617	0.509
664.500	408.160	80.004	19.994	99.658	18.862	107.016	0.513
666.000	408.907	80.003	19.995	99.678	18.950	99.580	0.491
667.500	409.662	80.003	19.995	99.660	19.033	92.542	0.485
669.000	410.465	80.004	19.995	99.626	19.111	85.931	0.528
670.500	411.224	80.005	19.996	99.693	19.186	79.565	0.492
672.000	411.957	80.004	19.994	99.763	19.255	73.704	0.496
673.500	412.754	80.005	19.996	99.713	19.323	67.939	0.549
675.000	413.459	80.005	19.996	99.712	19.388	62.470	0.472
676.500	414.240	80.004	19.995	99.722	19.442	57.877	0.489
678.000	414.990	80.004	19.994	99.724	19.497	53.196	0.498
679.500	415.738	80.005	19.995	99.722	19.549	48.839	0.496
681.000	416.485	80.004	19.996	99.722	19.594	44.982	0.509
682.500	417.238	80.005	19.995	99.730	19.635	41.522	0.506
684.000	418.057	80.004	19.996	99.732	19.676	38.098	0.523
685.500	418.760	80.005	19.996	99.732	19.712	34.991	0.472
687.000	419.566	80.004	19.995	99.753	19.748	31.918	0.539
688.500	420.314	80.006	19.995	99.764	19.780	29.277	0.520
690.000	421.063	80.003	19.995	99.767	19.811	26.592	0.502
691.500	421.840	80.006	19.995	99.770	19.837	24.401	0.527
693.000	422.620	80.005	19.994	99.766	19.861	22.396	0.514
694.500	423.362	80.007	19.996	99.768	19.884	20.392	0.505
696.000	424.124	80.007	19.995	99.786	19.899	19.159	0.502
697.500	424.888	80.006	19.998	99.782	19.915	17.757	0.500
699.000	425.630	80.006	19.997	99.788	19.933	16.226	0.506
700.500	426.406	80.006	19.996	99.794	19.943	15.454	0.501
702.000	427.155	80.006	19.997	99.782	19.958	14.138	0.485
703.500	427.927	80.005	19.996	99.769	19.970	13.097	0.513
705.000	428.718	80.005	19.996	99.763	19.982	12.077	0.553
706.500	429.496	80.005	19.996	99.766	19.990	11.447	0.525
708.000	430.245	80.005	19.996	99.770	19.999	10.648	0.479
709.500	431.008	80.005	19.996	99.768	20.008	9.924	0.522
711.000	431.756	80.005	19.996	99.769	20.016	9.253	0.508
712.500	432.580	80.007	19.995	99.780	20.027	8.277	0.553
714.000	433.311	80.006	19.996	99.790	20.028	8.237	0.481
715.500	434.134	80.005	19.996	99.741	20.037	7.434	0.528
717.000	434.907	80.007	19.996	99.745	20.041	7.064	0.501
718.500	435.689	80.007	19.994	99.833	20.047	6.586	0.533
720.000	436.455	80.005	19.995	99.862	20.049	6.388	0.548
721.500	437.234	80.006	19.995	99.808	20.056	5.856	0.511
723.000	438.006	80.006	19.997	99.804	20.058	5.675	0.494
724.500	438.797	80.007	19.996	99.800	20.063	5.214	0.522
726.000	439.592	80.006	19.997	99.796	20.070	4.610	0.529
727.500	440.364	80.006	19.999	99.800	20.074	4.289	0.513
729.000	441.114	80.005	19.998	99.797	20.070	4.629	0.504
730.500	441.882	80.003	19.997	99.789	20.077	4.070	0.504
732.000	442.629	80.006	19.997	99.788	20.078	3.953	0.501
733.500	443.430	80.005	19.996	99.795	20.079	3.857	0.521
735.000	444.190	80.005	19.995	99.776	20.080	3.809	0.500
736.500	444.934	80.004	19.995	99.764	20.078	3.937	0.499
738.000	445.741	80.003	19.994	99.763	20.079	3.883	0.530
739.500	446.512	80.005	19.997	99.776	20.084	3.495	0.521
741.000	447.275	80.007	19.997	99.798	20.084	3.487	0.518
742.500	448.020	80.005	19.995	99.792	20.079	3.847	0.493
744.000	448.797	80.004	19.994	99.774	20.087	3.235	0.518
745.500	449.565	80.005	19.995	99.772	20.084	3.411	0.532
747.000	450.322	80.001	19.993	99.775	20.085	3.387	0.502
748.500	451.065	79.995	19.996	99.774	20.082	3.633	0.507
750.000	451.855	79.991	19.994	99.765	20.087	3.234	0.508
751.500	452.626	79.994	19.996	99.784	20.085	3.368	0.504
753.000	453.375	79.995	19.995	99.793	20.091	2.891	0.493
754.500	454.147	79.994	19.995	99.770	20.088	3.119	0.517
756.000	454.922	80.002	19.997	99.763	20.084	3.417	0.515
757.500	455.657	80.004	19.997	99.778	20.094	2.565	0.506
759.000	456.421	80.005	19.995	99.798	20.090	2.909	0.506
760.500	457.230	80.003	19.996	99.798	20.087	3.199	0.542
762.000	457.936	80.001	19.995	99.798	20.093	2.702	0.462
763.500	458.742	80.003	19.996	99.776	20.091	2.899	0.531
765.000	459.486	80.002	19.996	99.770	20.091	2.857	0.498
766.500	460.260	80.003	19.996	99.789	20.090	2.949	0.519
768.000	461.062	79.999	19.996	99.794	20.090	2.949	0.554
769.500	461.797	80.004	19.995	99.804	20.087	3.173	0.494
771.000	462.562	80.001	19.996	99.803	20.096	2.474	0.505
772.500	463.340	80.005	19.995	99.805	20.094	2.602	0.504
774.000	464.086	80.005	19.995	99.803	20.097	2.381	0.510
775.500	464.806	80.006	19.995	99.790	20.091	2.894	0.516
777.000	465.571	80.006	19.997	99.772	20.091	2.833	0.541
778.500	466.391	80.005	19.995	99.767	20.097	2.376	0.552
780.000	467.166	80.007	19.995	99.780	20.092	2.748	0.511
781.500	467.948	80.007	19.997	99.799	20.097	2.367	0.521
783.000	468.719	80.006	19.996	99.804	20.094	2.624	0.523
784.500	469.509	80.003	19.995	99.796	20.094	2.581	0.507
786.000	470.310	80.005	19.997	99.781	20.092	2.785	0.534
787.500	471.080	80.006	19.996	99.773	20.092	2.792	0.517
789.000	471.823	80.008	19.994	99.781	20.096	2.450	0.523
790.500	472.617	80.005	19.996	99.782	20.094	2.615	0.522
792.000	473.405	80.007	19.997	99.772	20.098	2.283	0.539
793.500	474.169	80.006	19.996	99.771	20.099	2.157	0.518
795.000	474.971	80.007	19.996	99.779	20.098	2.257	0.510
796.500	475.736	80.007	19.994	99.792	20.093	2.652	0.518
798.000	476.447	80.008	19.995	99.778	20.094	2.582	0.495
799.500	477.225	80.007	19.994	99.763	20.094	2.564	0.527
801.000	478.021	80.007	19.996	99.760	20.095	2.552	0.515
802.500	478.779	80.004	19.996	99.759	20.096	2.404	0.518
804.000	479.552	80.007	19.996	99.761	20.095	2.550	0.511
805.500	480.317	80.005	19.995	99.764	20.097	2.334	0.515
807.000	481.064	80.004	19.998	99.768	20.097	2.332	0.502
808.500	481.819	80.005	19.997	99.766	20.091	2.884	0.503
810.000	482.612	80.005	19.997	99.764	20.098	2.269	0.508
811.500	483.396	80.004	19.996	99.769	20.095	2.541	0.531
813.000	484.119	80.004	19.997	99.785	20.096	2.469	0.467
814.500	484.879	80.005	19.998	99.782	20.093	2.657	0.494
816.000	485.638	80.004	19.995	99.765	20.092	2.737	0.517
817.500	486.470	80.007	19.995	99.763	20.094	2.632	0.527
819.000	487.231	80.005	19.995	99.762	20.095	2.506	0.511
820.500	487.930	80.006	19.995	99.768	20.095	2.557	0.457
822.000	488.684	80.005	19.996	99.793	20.097	2.392	0.504
823.500	489.500	79.998	19.996	99.799	20.094	2.645	0.547
825.000	490.256	79.996	19.995	99.781	20.099	2.181	0.503
826.500	490.971	79.988	19.996	99.792	20.096	2.395	0.485
828.000	491.759	79.986	19.997	99.796	20.098	2.297	0.513
829.500	492.555	79.987	19.996	99.773	20.095	2.501	0.531
831.000	493.365	79.986	19.994	99.765	20.099	2.171	0.515
832.500	494.121	79.987	19.997	99.765	20.095	2.531	0.517
834.000	494.901	79.984	19.997	99.767	20.098	2.250	0.506
835.500	495.635	79.984	19.996	99.778	20.094	2.594	0.500
837.000	496.368	79.986	19.997	99.799	20.094	2.620	0.524
838.500	497.211	79.986	19.996	99.780	20.096	2.418	0.542
840.000	497.947	79.984	19.995	99.761	20.095	2.553	0.472
841.500	498.690	79.985	19.995	99.763	20.097	2.337	0.482
843.000	499.457	79.985	19.996	99.769	20.095	2.562	0.514
844.500	500.217	79.985	19.997	99.769	20.099	2.219	0.509
846.000	500.961	79.985	19.997	99.770	20.101	2.016	0.482
847.500	501.746	79.986	19.997	99.777	20.106	1.593	0.524
849.000	502.524	79.986	19.995	99.802	20.102	1.923	0.527
850.500	503.268	79.988	19.996	99.791	20.100	2.109	0.491
852.000	504.064	79.987	19.995	99.787	20.102	1.928	0.516
853.500	504.800	79.989	19.996	99.779	20.102	1.967	0.490
855.000	505.559	79.988	19.996	99.792	20.096	2.443	0.517
856.500	506.387	79.990	19.995	99.786	20.101	2.002	0.527
858.000	507.141	79.996	19.996	99.763	20.099	2.143	0.511
859.500	507.931	80.000	19.997	99.773	20.103	1.863	0.516
861.000	508.738	80.000	19.996	99.783	20.098	2.248	0.546
862.500	509.498	80.001	19.997	99.773	20.099	2.158	0.508
864.000	510.283	79.994	19.995	99.766	20.100	2.095	0.521
865.500	511.035	79.995	19.997	99.766	20.096	2.462	0.514
867.000	511.825	79.992	19.996	99.769	20.096	2.450	0.537
868.500	512.553	79.992	19.997	99.771	20.098	2.294	0.491
870.000	513.324	79.990	19.996	99.767	20.099	2.218	0.520
871.500	514.154	79.990	19.997	99.778	20.093	2.713	0.566
873.000	514.946	79.995	19.996	99.791	20.100	2.137	0.515
874.500	515.717	79.991	19.996	99.802	20.097	2.357	0.526
876.000	516.532	79.998	19.994	99.792	20.101	2.037	0.548
877.500	517.289	79.996	19.996	99.771	20.097	2.369	0.530
879.000	518.030	79.992	19.995	99.769	20.101	2.030	0.500
880.500	518.858	79.994	19.996	99.771	20.100	2.102	0.533
882.000	519.664	79.991	19.996	99.783	20.097	2.329	0.519
883.500	520.400	79.987	19.996	99.771	20.099	2.174	0.504
885.000	521.184	79.986	19.996	99.761	20.093	2.657	0.536
886.500	522.031	79.986	19.997	99.763	20.098	2.253	0.576
888.000	522.802	79.988	19.997	99.778	20.100	2.055	0.541
889.500	523.554	79.998	19.997	99.783	20.104	1.719	0.507
891.000	524.342	79.997	19.998	99.771	20.097	2.390	0.538
892.500	525.103	79.993	19.996	99.767	20.100	2.088	0.501
894.000	525.933	79.987	19.997	99.769	20.098	2.248	0.558
895.500	526.685	79.985	19.998	99.776	20.098	2.290	0.503
897.000	527.497	79.991	19.997	99.770	20.101	2.011	0.552
898.500	528.258	79.990	19.996	99.766	20.100	2.130	0.505
900.000	529.050	79.996	19.995	99.787	20.100	2.125	0.525
901.500	529.846	80.000	19.996	99.800	20.098	2.248	0.535
903.000	530.643	80.003	19.996	99.780	20.102	1.904	0.530
904.500	531.423	80.004	19.996	99.765	20.097	2.374	0.520
906.000	532.210	80.005	19.996	99.769	20.101	2.048	0.517
907.500	532.976	80.006	19.996	99.775	20.093	2.685	0.505
909.000	533.783	80.006	19.997	99.785	20.098	2.290	0.527
910.500	534.581	80.006	19.997	99.790	20.101	1.986	0.538
912.000	535.373	80.004	19.997	99.781	20.097	2.369	0.529
913.500	536.137	80.005	19.996	99.773	20.095	2.501	0.521
915.000	536.916	80.005	19.995	99.779	20.100	2.130	0.508
916.500	537.667	80.004	19.995	99.777	20.094	2.592	0.528
918.000	538.490	80.003	19.996	99.770	20.098	2.241	0.555
919.500	539.221	80.001	19.998	99.766	20.099	2.153	0.485
921.000	539.996	79.999	19.995	99.765	20.098	2.257	0.514
922.500	540.769	80.004	19.996	99.765	20.099	2.151	0.519
924.000	541.559	80.006	19.997	99.778	20.097	2.380	0.518
925.500	542.357	80.008	19.997	99.774	20.100	2.111	0.504
927.000	543.094	80.005	19.995	99.770	20.101	2.039	0.491
928.500	543.826	80.009	19.995	99.770	20.101	2.051	0.493
930.000	544.604	80.009	19.995	99.766	20.095	2.525	0.529
931.500	545.385	80.007	19.996	99.767	20.096	2.462	0.492
933.000	546.162	80.007	19.995	99.771	20.098	2.260	0.515
934.500	546.964	80.008	19.994	99.769	20.097	2.350	0.528
936.000	547.713	80.007	19.996	99.764	20.103	1.876	0.492
937.500	548.461	80.008	19.994	99.764	20.098	2.290	0.505
939.000	549.238	80.007	19.995	99.765	20.097	2.329	0.504
940.500	550.044	80.007	19.995	99.773	20.104	1.756	0.543
942.000	550.794	80.007	19.997	99.774	20.097	2.322	0.493
943.500	551.582	80.007	19.995	99.768	20.104	1.786	0.503
945.000	552.320	80.006	19.997	99.774	20.096	2.459	0.489
946.500	553.097	80.008	19.996	99.774	20.098	2.269	0.531
948.000	553.856	80.008	19.997	99.767	20.098	2.248	0.507
949.500	554.673	80.008	19.996	99.767	20.097	2.348	0.520
951.000	555.428	80.007	19.996	99.764	20.094	2.578	0.530
952.500	556.224	80.009	19.995	99.768	20.098	2.246	0.529
954.000	556.970	80.009	19.996	99.776	20.101	1.995	0.516
955.500	557.742	80.008	19.994	99.771	20.101	2.028	0.511
957.000	558.512	80.009	19.994	99.764	20.101	2.000	0.508
958.500	559.296	80.008	19.995	99.773	20.101	1.976	0.520
960.000	560.107	80.007	19.994	99.772	20.100	2.058	0.536
961.500	560.873	80.003	19.995	99.768	20.097	2.350	0.509
963.000	561.659	80.007	19.996	99.767	20.104	1.772	0.508
964.500	562.446	80.006	19.996	99.771	20.103	1.879	0.520
966.000	563.214	80.003	19.994	99.776	20.106	1.621	0.501
967.500	563.914	80.003	19.995	99.771	20.103	1.869	0.468
969.000	564.705	80.004	19.996	99.770	20.102	1.962	0.519
970.500	565.465	80.005	19.997	99.766	20.102	1.907	0.527
972.000	566.279	80.005	19.996	99.766	20.102	1.930	0.536
973.500	566.959	80.005	19.997	99.767	20.095	2.552	0.478
975.000	567.745	80.005	19.996	99.766	20.097	2.313	0.511
976.500	568.504	80.006	19.996	99.766	20.099	2.172	0.504
978.000	569.343	80.005	19.996	99.765	20.100	2.132	0.545
979.500	570.068	80.006	19.997	99.764	20.099	2.190	0.499
981.000	570.826	80.005	19.996	99.765	20.092	2.775	0.504
982.500	571.574	80.006	19.996	99.763	20.094	2.601	0.503
984.000	572.375	80.007	19.996	99.762	20.097	2.386	0.505
985.500	573.143	80.006	19.996	99.777	20.096	2.435	0.505
987.000	573.895	80.006	19.995	99.789	20.096	2.460	0.519
988.500	574.659	80.005	19.996	99.770	20.096	2.401	0.512
990.000	575.445	80.006	19.996	99.767	20.094	2.592	0.545
991.500	576.221	80.005	19.994	99.773	20.095	2.557	0.510
993.000	576.965	80.004	19.994	99.769	20.097	2.378	0.492
994.500	577.740	80.005	19.995	99.801	20.099	2.171	0.493
996.000	578.495	80.003	19.996	99.827	20.098	2.236	0.524
997.500	579.293	80.004	19.994	99.791	20.098	2.292	0.536
999.000	580.022	80.003	19.995	99.761	20.100	2.132	0.507
1000.500	580.803	80.005	19.996	99.769	20.093	2.680	0.520
1002.000	581.571	80.006	19.995	99.770	20.101	2.020	0.517
1003.500	582.307	80.005	19.995	99.764	20.095	2.524	0.480
1005.000	583.107	80.008	19.996	99.767	20.097	2.343	0.527
1006.500	583.869	80.006	19.995	99.766	20.097	2.359	0.500
1008.000	584.641	80.007	19.995	99.773	20.098	2.225	0.522
1009.500	585.435	80.008	19.995	99.784	20.097	2.362	0.536
1011.000	586.209	80.008	19.994	99.769	20.099	2.214	0.519
1012.500	586.941	80.007	19.994	99.763	20.097	2.327	0.475
1014.000	587.717	80.005	19.995	99.765	20.094	2.576	0.520
1015.500	588.475	80.006	19.994	99.765	20.098	2.304	0.490
1017.000	589.261	80.007	19.994	99.766	20.096	2.411	0.525
1018.500	590.012	80.006	19.994	99.763	20.102	1.921	0.497
1020.000	590.763	80.006	19.994	99.772	20.101	2.046	0.491
1021.500	591.544	80.006	19.995	99.790	20.098	2.304	0.517
1023.000	592.340	80.008	19.995	99.776	20.099	2.162	0.523
1024.499	593.081	80.007	19.996	99.775	20.099	2.167	0.482
1025.999	593.896	80.007	19.995	99.777	20.101	2.051	0.534
1027.499	594.642	80.007	19.997	99.792	20.102	1.953	0.488
1028.999	595.438	80.006	19.996	99.787	20.097	2.311	0.523
1030.499	596.195	80.007	19.996	99.777	20.099	2.216	0.481
1031.999	596.959	80.005	19.994	99.784	20.102	1.923	0.502
1033.499	597.724	80.007	19.995	99.771	20.100	2.067	0.511
1034.999	598.484	80.008	19.996	99.761	20.101	2.044	0.532
1036.499	599.253	80.006	19.995	99.765	20.101	1.992	0.516
1037.999	600.044	80.006	19.996	99.765	20.098	2.227	0.535
1039.499	600.834	80.007	19.994	99.768	20.100	2.125	0.534
1040.999	601.578	80.006	19.994	99.770	20.102	1.907	0.480
1042.499	602.342	80.006	19.993	99.760	20.100	2.097	0.489
1043.999	603.091	80.005	19.995	99.758	20.098	2.293	0.520
1045.499	603.887	80.005	19.993	99.769	20.097	2.316	0.516
1047.000	604.633	80.005	19.994	99.759	20.103	1.868	0.489
1048.499	605.377	80.005	19.995	99.746	20.096	2.404	0.493
1049.999	606.202	80.005	19.995	99.752	20.095	2.550	0.536
1051.499	606.950	80.004	19.995	99.763	20.096	2.441	0.526
1052.999	607.730	80.005	19.997	99.766	20.094	2.610	0.515
1054.500	608.523	80.004	19.997	99.780	20.096	2.469	0.522
1055.999	609.243	80.005	20.000	99.785	20.099	2.211	0.482
1057.499	609.996	80.005	19.998	99.789	20.094	2.578	0.476
1058.999	610.802	80.004	19.997	99.789	20.096	2.436	0.505
1060.499	611.546	80.004	19.997	99.774	20.097	2.355	0.475
1061.999	612.316	80.005	19.997	99.773	20.097	2.322	0.502
1063.500	613.078	80.006	19.996	99.775	20.099	2.141	0.525
1065.000	613.859	80.006	19.997	99.764	20.101	2.053	0.514
1066.499	614.621	80.005	19.995	99.763	20.101	1.979	0.520
1067.999	615.425	80.005	19.994	99.764	20.101	2.041	0.563
1069.499	616.190	80.005	19.995	99.766	20.096	2.401	0.497
1070.999	616.950	80.005	19.994	99.770	20.101	1.979	0.528
1072.499	617.700	80.005	19.994	99.769	20.099	2.223	0.494
1073.999	618.528	80.005	19.994	99.762	20.102	1.916	0.556
1075.499	619.284	80.004	19.995	99.753	20.099	2.211	0.490
1076.999	620.068	80.003	19.994	99.767	20.099	2.204	0.512
1078.499	620.811	80.000	19.995	99.765	20.098	2.274	0.491
1079.999	621.587	79.998	19.995	99.763	20.097	2.371	0.501
1081.499	622.399	80.003	19.995	99.765	20.099	2.171	0.545
1082.999	623.176	80.006	19.995	99.768	20.095	2.529	0.503
1084.499	623.946	80.006	19.996	99.767	20.093	2.729	0.520
1085.999	624.765	80.004	19.996	99.773	20.096	2.445	0.530
1087.499	625.547	80.006	19.996	99.774	20.098	2.253	0.517
1088.999	626.280	80.004	19.994	99.766	20.095	2.552	0.496
1090.499	627.050	80.005	19.996	99.767	20.101	2.000	0.500
1091.999	627.856	80.006	19.995	99.767	20.100	2.116	0.541
1093.499	628.557	80.005	19.995	99.767	20.100	2.120	0.469
1094.999	629.386	80.005	19.994	99.764	20.102	1.951	0.543
1096.499	630.115	80.005	19.994	99.765	20.102	1.925	0.480
1097.999	630.854	80.005	19.996	99.769	20.100	2.055	0.487
1099.499	631.657	80.006	19.994	99.770	20.099	2.141	0.537
1100.999	632.406	80.006	19.993	99.768	20.102	1.936	0.513
1102.499	633.209	80.004	19.993	99.767	20.103	1.799	0.540
1103.999	634.017	80.007	19.994	99.766	20.106	1.625	0.543
1105.501	634.783	80.006	19.994	99.766	20.095	2.489	0.538
1107.000	635.578	80.008	19.995	99.764	20.099	2.190	0.523
1108.500	636.351	80.008	19.996	99.764	20.099	2.199	0.512
1110.000	637.143	80.006	19.996	99.762	20.097	2.320	0.513
1111.500	637.884	80.008	19.995	99.748	20.095	2.497	0.487
1113.000	638.649	80.006	19.994	99.737	20.098	2.267	0.520
1114.500	639.425	80.007	19.997	99.750	20.098	2.260	0.534
1116.000	640.187	80.007	19.996	99.762	20.099	2.155	0.478
1117.500	640.929	80.006	19.997	99.752	20.101	2.041	0.497
1119.000	641.687	80.004	19.995	99.756	20.096	2.404	0.526
1120.500	642.451	80.005	19.999	99.763	20.095	2.510	0.499
1122.000	643.160	80.004	19.996	99.764	20.099	2.148	0.466
1123.500	643.971	80.005	19.996	99.772	20.099	2.185	0.542
1125.000	644.714	80.005	19.996	99.769	20.099	2.218	0.499
1126.500	645.486	80.007	19.994	99.767	20.098	2.241	0.514
1128.000	646.216	80.005	19.998	99.768	20.101	1.974	0.497
1129.500	647.033	80.006	19.998	99.765	20.101	2.020	0.552
1131.000	647.779	80.006	19.997	99.764	20.102	1.932	0.492
1132.500	648.527	80.004	19.995	99.764	20.105	1.709	0.511
1134.000	649.298	80.005	19.997	99.763	20.100	2.092	0.508
1135.500	650.061	80.005	19.997	99.765	20.098	2.239	0.501
1137.000	650.878	80.004	19.997	99.766	20.099	2.155	0.543
1138.500	651.637	80.004	19.997	99.767	20.096	2.448	0.507
1140.000	652.411	80.005	19.997	99.766	20.098	2.271	0.528
1141.500	653.209	80.004	19.995	99.765	20.097	2.355	0.537
1143.000	654.028	80.004	19.996	99.766	20.100	2.120	0.533
1144.500	654.785	80.004	19.996	99.767	20.099	2.192	0.493
1146.000	655.579	80.003	19.996	99.767	20.100	2.067	0.529
1147.500	656.350	80.002	19.996	99.767	20.092	2.768	0.514
1149.000	657.113	80.003	19.996	99.766	20.101	2.002	0.514
1150.500	657.904	80.005	19.997	99.767	20.097	2.341	0.547
1152.000	658.667	80.002	19.996	99.770	20.100	2.076	0.523
1153.500	659.490	80.003	19.995	99.770	20.103	1.849	0.539
1155.000	660.238	80.006	19.996	99.769	20.106	1.575	0.512
1156.500	661.018	80.005	19.995	99.769	20.104	1.746	0.517
1158.000	661.796	80.006	19.995	99.767	20.098	2.280	0.518
1159.500	662.564	80.005	19.996	99.767	20.102	1.895	0.509
1161.000	663.338	80.006	19.995	99.768	20.104	1.788	0.527
1162.500	664.131	80.006	19.995	99.768	20.104	1.756	0.542
1164.000	664.901	80.007	19.995	99.767	20.103	1.811	0.518
1165.501	665.691	80.007	19.995	99.765	20.101	2.044	0.533
1167.000	666.443	80.007	19.995	99.764	20.101	2.037	0.518
1168.500	667.282	80.007	19.995	99.762	20.100	2.111	0.542
1170.000	668.018	80.007	19.996	99.764	20.101	2.037	0.500
1171.500	668.768	80.006	19.994	99.770	20.103	1.837	0.493
1173.000	669.552	80.007	19.995	99.768	20.098	2.250	0.537
1174.500	670.357	80.007	19.997	99.765	20.099	2.181	0.524
1176.000	671.097	80.006	19.996	99.765	20.095	2.529	0.515
1177.500	671.859	80.006	19.996	99.763	20.094	2.617	0.506
1179.000	672.647	80.007	19.994	99.764	20.097	2.322	0.520
1180.500	673.425	80.007	19.996	99.764	20.098	2.231	0.523
1182.000	674.257	80.007	19.995	99.765	20.100	2.122	0.566
1183.500	674.998	80.006	19.995	99.768	20.097	2.320	0.489
1185.000	675.803	80.008	19.994	99.785	20.101	1.969	0.537
1186.500	676.590	80.007	19.994	99.785	20.099	2.181	0.507
1188.000	677.352	80.008	19.994	99.765	20.096	2.476	0.527
1189.500	678.080	80.008	19.994	99.761	20.098	2.280	0.449
1191.000	678.836	80.008	19.993	99.749	20.097	2.313	0.519
1192.500	679.589	80.008	19.994	99.747	20.100	2.074	0.519
1194.000	680.378	80.004	19.995	99.753	20.102	1.897	0.526
1195.500	681.204	80.003	19.995	99.761	20.096	2.422	0.509
1197.000	681.984	79.998	19.995	99.772	20.100	2.099	0.530
1198.501	682.768	79.990	19.995	99.771	20.103	1.865	0.521
1200.000	683.551	79.986	19.994	99.763	20.101	2.009	0.534
1201.500	684.355	79.986	19.994	99.762	20.101	2.053	0.529
1203.000	685.177	79.985	19.995	99.766	20.103	1.800	0.537
1204.500	685.931	79.984	19.995	99.762	20.106	1.614	0.529
1206.000	686.692	80.001	19.998	99.756	20.103	1.872	0.475
1207.500	687.440	80.004	19.997	99.764	20.108	1.447	0.474
1209.000	688.166	79.999	19.996	99.760	20.107	1.521	0.480
1210.500	688.940	80.001	19.995	99.759	20.105	1.702	0.508
1212.000	689.714	79.997	19.995	99.766	20.105	1.656	0.524
1213.500	690.469	79.991	19.995	99.766	20.106	1.593	0.483
1215.000	691.213	79.991	19.995	99.764	20.108	1.435	0.496
1216.500	691.980	79.987	19.996	99.766	20.106	1.565	0.520
1218.000	692.751	79.986	19.994	99.766	20.107	1.514	0.482
1219.500	693.499	79.990	19.996	99.759	20.108	1.407	0.493