File: 01_Data/FRP_Panel/Cone/FRP_Panel_Cone_HF25Scan_220919_R2.csv
Names,Time,Stack TC,Smoke TC,Exh Press,Smoke Comp,Smoke Meas,CO Meter,CO2 Meter,O2 Meter,Sample Mass,Ext Coeff,Start Test,Flame Verif
Chan Gain,,500,500,1,1,1,1,1,1,1,1,1.0,1.0
Offset,,0,0,0.143022,0,0,0,0,0,0,0,0.0,0.0
Gain,,1,1,25.011,14.5176,16.5692,1,1,1,1.00088,1.03055,1.0,1.0
Units,sec,C,C,Pa,%,%,%,%,%,g,/m,,
Baseline,,36.6182,37.2262,149.043,108.916,110.163,0.000370824,0.0470271,20.9479,-445.494,-0.102904,,
3,0.5,35.7632,36.7293,151.222,108.919,110.008,0.000415878,0.0541265,20.9417,77.9887,-0.0899338,0.0,0.0
6,1.25,34.6945,35.5389,147.503,108.938,110.27,0.000337668,0.0537875,20.9419,78.0588,-0.109851,0.0,0.0
9,2,34.2814,35.3402,151.35,108.934,109.878,0.000259685,0.0534617,20.9425,78.0388,-0.0779615,0.0,0.0
12,2.75,34.3527,35.2307,149.856,108.93,110.037,0.000190538,0.0530027,20.9429,78.0788,-0.0914239,0.0,0.0
15,3.5,34.7826,35.1715,144.831,108.926,109.758,0.00014013,0.0525939,20.9436,78.0388,-0.0687959,0.0,0.0
18,4.25,34.1864,35.2225,149.611,108.936,110.128,0.000118288,0.0521689,20.9443,78.0488,-0.0984203,0.0,0.0
21,5,34.6761,35.5022,147.477,108.934,110.247,0.00010872,0.0514367,20.9448,78.0588,-0.108279,0.0,0.0
24,5.75,34.4968,35.3353,148.496,108.934,110.106,0.000135424,0.0508325,20.9452,78.0588,-0.0967455,0.0,0.0
27,6.5,35.328,35.7578,147.266,108.922,109.644,0.00017852,0.0503619,20.9455,78.0488,-0.059709,0.0,0.0
30,7.25,34.6431,35.3144,149.423,108.934,110.231,0.000220009,0.0498983,20.9457,78.0288,-0.106952,0.0,0.0
33,8,34.5428,35.6211,146.1,108.926,109.958,0.000263942,0.0494475,20.9461,78.0388,-0.0852352,0.0,0.0
36,8.75,34.5645,35.3892,150.231,108.935,110.323,0.000301803,0.0490338,20.9468,78.0688,-0.114465,0.0,0.0
39,9.5,34.4022,35.2179,145.182,108.934,110.397,0.000324934,0.0486688,20.9472,78.0688,-0.120617,0.0,0.0
42,10.25,34.3059,35.2021,144.919,108.927,110.576,0.000344191,0.0483182,20.9476,78.0788,-0.135777,0.0,0.0
45,11,34.5857,35.2905,147.041,108.943,109.554,0.000353082,0.0480266,20.9481,78.0788,-0.0505992,0.0,0.0
48,11.75,34.4396,35.2204,149.848,108.93,110.138,0.000356203,0.0477587,20.9485,78.0788,-0.0996869,0.0,0.0
51,12.5,34.7353,35.5525,150.426,108.922,110.067,0.000358479,0.0475472,20.9487,78.0688,-0.0944997,0.0,0.0
54,13.25,34.5732,35.3966,151.013,108.937,110.47,0.000367604,0.047448,20.9489,78.0588,-0.126284,0.0,0.0
57,14,34.256,35.1995,146.826,108.931,109.856,0.000377439,0.0472771,20.9491,78.0588,-0.0764301,0.0,0.0
60,14.75,34.6626,35.4053,147.059,108.941,110.63,0.000404525,0.0471062,20.9492,78.0688,-0.139024,0.0,0.0
63,15.5,34.4694,35.6299,149.516,108.924,110.699,0.000436695,0.0469436,20.9492,78.0688,-0.146153,0.0,0.0
66,16.25,35.0506,35.4106,151.43,108.93,110.116,0.000466872,0.0468653,20.9493,78.0688,-0.0978974,0.0,0.0
69,17,34.6596,35.5695,149.232,108.943,110.817,0.000480153,0.0468304,20.9493,78.0588,-0.154151,0.0,0.0
72,17.75,34.6516,35.6009,149.373,108.932,109.892,0.000486119,0.046843,20.9494,78.0488,-0.0793475,0.0,0.0
75,18.5,34.8568,35.7101,148.101,108.936,110.244,0.000475402,0.046824,20.9494,78.0388,-0.107842,0.0,0.0
78,19.25,34.7703,35.5541,152.095,108.924,110.57,0.000441825,0.0467982,20.9492,78.0488,-0.13554,0.0,0.0
81,20,34.5677,35.4518,146.396,108.933,110.349,0.000402376,0.046699,20.9489,78.0488,-0.116756,0.0,0.0
84,20.75,34.4523,35.417,146.828,108.943,109.42,0.00035853,0.0466267,20.9487,78.0288,-0.0394576,0.0,0.0
87,21.5,35.0676,35.4807,144.994,108.932,110.086,0.000333519,0.0464936,20.9485,78.0288,-0.0952691,0.0,0.0
90,22.25,34.4564,35.1492,150.745,108.932,110.333,0.00029808,0.0463664,20.9486,78.0288,-0.115468,0.0,0.0
93,23,34.4043,35.908,146.661,108.936,109.59,0.000261057,0.0462221,20.949,78.0288,-0.0541078,0.0,0.0
96,23.75,35.0271,35.4098,151.818,108.941,110.039,0.000225204,0.0462373,20.9494,78.0388,-0.0906712,0.0,0.0
99,24.5,34.7286,35.6945,148.555,108.942,109.895,0.000200311,0.0462674,20.9496,78.0488,-0.0786724,0.0,0.0
102,25.25,34.8243,35.6171,146.311,108.918,110.094,0.000183347,0.0463306,20.9498,78.0488,-0.0971049,0.0,0.0
105,26,34.8571,35.4479,147.543,108.939,110.134,0.000172099,0.0463486,20.9499,78.0488,-0.0986246,0.0,0.0
108,26.75,34.8891,35.5345,148.351,108.937,110.797,0.000156809,0.0463274,20.95,78.0288,-0.153053,0.0,0.0
111,27.5,34.5443,35.6364,148.086,108.952,109.902,0.000139123,0.046274,20.9501,78.0388,-0.0784827,0.0,0.0
114,28.25,34.8579,35.1693,149.069,108.916,110.369,0.000115049,0.0461547,20.9501,78.0588,-0.119811,0.0,0.0
117,29,34.7298,35.6197,151.436,108.931,109.969,9.81526e-05,0.0460818,20.9501,78.0388,-0.0857041,0.0,0.0
120,29.75,34.9041,35.6058,152.367,108.929,109.637,8.69538e-05,0.0460347,20.9502,78.0188,-0.0585792,0.0,0.0
123,30.5,34.7904,35.4101,147.298,108.921,109.709,0.000101828,0.0460405,20.9502,78.0388,-0.0651589,0.0,0.0
126,31.25,34.8154,35.1101,148.549,108.919,110.694,0.000132562,0.0460521,20.9502,78.0488,-0.146108,0.0,0.0
129,32,34.3239,35.413,146.555,108.924,110.098,0.000173264,0.0460733,20.9502,78.0388,-0.0969644,0.0,0.0
132,32.75,34.8495,35.3355,149.051,108.933,109.611,0.000219727,0.0460746,20.9502,78.0388,-0.0560795,0.0,0.0
135,33.5,34.6506,35.2718,153.013,108.924,109.834,0.000271019,0.0460696,20.9502,77.9887,-0.0751874,0.0,0.0
138,34.25,35.1288,35.4948,147.983,108.921,109.914,0.000321735,0.0460057,20.9502,77.9787,-0.0820544,0.0,0.0
141,35,34.6073,35.4427,148.715,108.917,109.778,0.00036879,0.0459732,20.9502,78.0188,-0.0712335,0.0,0.0
144,35.75,34.5748,35.2568,151.37,108.941,110.447,0.000401128,0.0459703,20.9502,78.0288,-0.124054,0.0,0.0
147,36.5,34.731,35.2596,151.914,108.925,110.525,0.000416099,0.0459935,20.9502,78.0288,-0.131786,0.0,0.0
150,37.25,34.8638,35.0005,150.185,108.917,109.568,0.000418052,0.0460306,20.9502,78.0188,-0.0538953,0.0,0.0
153,38,34.6321,35.2943,151.108,108.927,109.519,0.000420719,0.0460353,20.9502,78.0288,-0.0489646,0.0,0.0
156,38.75,34.9937,35.2915,146.773,108.925,109.867,0.000422455,0.0460008,20.9502,78.0388,-0.0778555,0.0,0.0
159,39.5,34.6367,35.1212,145.474,108.927,109.808,0.000451095,0.046046,20.9502,78.0388,-0.072802,0.0,0.0
162,40.25,34.7464,35.0365,146.884,108.914,110.6,0.000495641,0.0461238,20.9502,77.9887,-0.138865,0.0,0.0
165,41,34.4525,35.0709,147.416,108.91,110.239,0.000538205,0.0462059,20.9502,77.9787,-0.109717,0.0,0.0
168,41.75,34.8342,35.4402,149.34,108.922,110.315,0.000573169,0.0461915,20.9502,78.0188,-0.114863,0.0,0.0
171,42.5,34.9488,35.2419,146.529,108.934,110.198,0.000605387,0.0461823,20.9512,78.0088,-0.104257,0.0,0.0
174,43.25,34.9084,35.4841,150.037,108.933,110.346,0.00061766,0.0461883,20.9519,77.9987,-0.116471,0.0,0.0
177,44,34.8756,35.307,145.254,108.909,109.924,0.000615269,0.0461926,20.9524,77.9887,-0.0839206,0.0,0.0
180,44.75,35.0641,35.2448,150.759,108.926,110.023,0.000602315,0.0462159,20.9527,78.0188,-0.0905553,0.0,0.0
183,45.5,34.6674,35.3935,154.222,108.934,109.879,0.000566231,0.0462328,20.953,77.9687,-0.0780816,0.0,0.0
186,46.25,34.588,35.3004,149.011,108.923,109.677,0.000521256,0.0462452,20.9532,77.9687,-0.0623866,0.0,0.0
189,47,35.0946,35.8933,150.779,108.92,109.599,0.000470036,0.0462823,20.9533,77.9587,-0.0561451,0.0,0.0
192,47.75,34.7318,35.4,151.645,108.929,109.408,0.000414784,0.0463215,20.9535,77.9287,-0.0396676,0.0,0.0
195,48.5,34.8505,35.8148,151.12,108.934,109.9,0.0003571,0.04635,20.9535,77.9487,-0.0797867,0.0,0.0
198,49.25,34.2445,35.2062,146.567,108.971,110.282,0.000307628,0.0463306,20.9536,77.9587,-0.108167,0.0,0.0
201,50,34.4877,35.1378,149.466,108.923,109.829,0.000260378,0.0463164,20.9536,77.9487,-0.0748446,0.0,0.0
204,50.75,34.7855,35.4705,147.354,108.923,109.919,0.000217264,0.0463061,20.9537,77.9287,-0.0822914,0.0,0.0
207,51.5,35.2222,35.4636,150.77,108.934,109.74,0.000179165,0.0463187,20.9537,77.9387,-0.0667123,0.0,0.0
210,52.25,34.6181,35.4215,153.664,108.93,110.239,0.000147847,0.046342,20.9534,77.9387,-0.108021,0.0,0.0
213,53,35.0146,35.6251,149.164,108.932,109.447,0.000117563,0.0463649,20.9533,77.9487,-0.042669,0.0,0.0
216,53.75,34.7192,35.2691,145.184,108.93,109.955,8.51192e-05,0.0463535,20.9537,77.9687,-0.0846924,0.0,0.0
219,54.5,35.1639,35.7789,152.967,108.938,109.818,4.91732e-05,0.0463263,20.9533,77.9487,-0.072758,0.0,0.0
222,55.25,34.8163,35.7731,150.588,108.937,109.761,1.55174e-05,0.0462947,20.953,77.9387,-0.0681259,0.0,0.0
225,56,35.0235,35.6583,153.234,108.922,109.156,-1.21942e-05,0.0462516,20.9528,77.9387,-0.019352,0.0,0.0
228,56.75,34.746,35.4675,148.899,108.914,109.6,-4.65667e-05,0.0462001,20.9527,77.9587,-0.056748,0.0,0.0
231,57.5,34.8144,35.3687,149.1,108.932,109.472,-7.90755e-05,0.0461774,20.9526,77.9487,-0.0447199,0.0,0.0
234,58.25,35.0937,35.689,148.278,108.949,109.487,-0.000105951,0.0461862,20.9525,77.9487,-0.0444969,0.0,0.0
237,59,35.0002,35.4543,149.321,108.935,110.411,-0.000127314,0.0461926,20.9524,77.9787,-0.12163,0.0,0.0
240,59.75,35.0644,35.8479,153.638,108.921,110.089,-0.000129227,0.0461973,20.9524,77.9687,-0.0964737,0.0,0.0
243,60.5,34.5068,35.6004,147.434,108.939,109.853,-0.000124798,0.0462408,20.9523,77.9587,-0.0754765,0.0,0.0
246,61.25,34.8342,35.6012,148.204,108.931,109.979,-7.55136e-05,0.0462948,20.9523,77.9487,-0.0865358,0.0,0.0
249,62,34.6835,35.4688,148.707,108.918,109.911,-1.05524e-06,0.0463722,20.9523,77.9287,-0.0821044,0.0,0.0
252,62.75,35.0202,35.4287,146.997,108.926,110.138,6.96509e-05,0.0464286,20.9523,77.9287,-0.100018,0.0,0.0
255,63.5,35.0885,35.869,146.381,108.933,110.127,0.000157277,0.0464296,20.9523,77.8987,-0.0985162,0.0,0.0
258,64.25,34.5336,35.8641,148.568,108.936,109.242,0.000236537,0.046408,20.9523,77.8686,-0.025365,0.0,0.0
261,65,35.1249,35.5759,147.397,108.937,109.599,0.000291829,0.0463543,20.9523,77.8586,-0.0547485,0.0,0.0
264,65.75,35.0679,35.6312,150.429,108.931,109.204,0.000323215,0.0463574,20.9522,77.8786,-0.0226362,0.0,0.0
267,66.5,35.1353,35.4572,151.97,108.925,108.918,0.000332656,0.0463777,20.9522,77.9187,0.000613157,0.0,0.0
270,67.25,34.6697,35.6432,146.517,108.943,109.614,0.000328892,0.0463924,20.9521,77.9187,-0.0555628,0.0,0.0
273,68,34.8627,35.754,151.954,108.937,109.615,0.000326148,0.0463831,20.9521,77.8886,-0.0560827,0.0,0.0
276,68.75,34.7596,35.3596,150.726,108.93,109.16,0.000324148,0.0463904,20.9521,77.8886,-0.0190674,0.0,0.0
279,69.5,34.9576,35.5347,149.781,108.939,109.415,0.00033511,0.0464158,20.9521,77.8786,-0.039449,0.0,0.0
282,70.25,34.9169,35.7051,147.053,108.938,109.369,0.000343102,0.0464551,20.9521,77.8786,-0.0357199,0.0,0.0
285,71,35.2516,35.7921,150.37,108.94,109.666,0.000347154,0.0465092,20.9521,77.9087,-0.0600355,0.0,0.0
288,71.75,34.9602,35.6647,149.558,108.929,109.426,0.000348773,0.0465486,20.9521,77.9087,-0.0411766,0.0,0.0
291,72.5,34.7912,35.4032,149.482,108.93,109.358,0.000347673,0.0465773,20.9521,77.8786,-0.0354987,0.0,0.0
294,73.25,34.8341,35.6557,146.477,108.934,109.564,0.000352195,0.0466786,20.9519,77.8686,-0.0522054,0.0,0.0
297,74,34.8104,35.6061,148.754,108.947,109.734,0.000364201,0.0467524,20.9515,77.8486,-0.0650678,0.0,0.0
300,74.75,34.951,35.4613,153.031,108.926,109.79,0.000383219,0.0468464,20.9508,77.8686,-0.0714556,0.0,0.0
303,75.5,34.853,35.7701,150.409,108.928,108.927,0.000408284,0.046928,20.9503,77.8686,0.000116385,0.0,0.0
306,76.25,34.6826,35.6834,147.727,108.94,109.29,0.000451423,0.046993,20.9499,77.8386,-0.0290135,0.0,0.0
309,77,35.0377,35.6556,152.132,108.935,109.86,0.000482871,0.0471208,20.9496,77.8386,-0.0764268,0.0,0.0
312,77.75,35.1778,35.9552,147.67,108.93,109.83,0.000575125,0.0473546,20.9494,77.8586,-0.0743399,0.0,0.0
315,78.5,34.8729,35.8916,149.32,108.92,109.416,0.000697294,0.0480043,20.9493,77.7886,-0.0411138,0.0,0.0
318,79.25,35.2696,35.7874,144.765,108.93,109.708,0.000809767,0.0486823,20.9479,77.7585,-0.0643037,0.0,0.0
321,80,35.1304,35.7665,147.996,108.923,110.092,0.000982694,0.051675,20.9438,77.7886,-0.0964977,0.0,1.0
324,80.75,34.8816,35.3615,145.632,108.93,110.785,0.00115257,0.0553733,20.9367,77.7485,-0.152577,0.0,1.0
327,81.5,35.1372,35.8493,153.574,108.93,110.076,0.0012951,0.0606625,20.9268,77.6484,-0.0946174,0.0,1.0
330,82.25,35.4389,35.9536,144.936,108.93,110.257,0.00148303,0.0686665,20.9129,77.7085,-0.109477,0.0,1.0
333,83,35.4542,36.3543,143.421,108.94,110.045,0.00170042,0.0787584,20.8962,77.5884,-0.0912797,0.0,1.0
336,83.75,35.7113,35.8585,145.4,108.934,107.973,0.00189317,0.0903705,20.8777,77.6885,0.0800923,0.0,1.0
339,84.5,34.523,34.6778,143.5,108.949,104.533,0.00220507,0.106906,20.8549,77.6384,0.374109,0.0,1.0
342,85.25,34.9082,34.6017,139.247,108.931,103.492,0.00267641,0.122915,20.8344,77.5984,0.46301,0.0,1.0
345,86,35.0417,34.9613,139.414,108.928,101.246,0.00309287,0.141349,20.803,77.5383,0.661144,0.0,1.0
348,86.75,35.0105,34.8907,137.724,108.924,95.837,0.0037232,0.163737,20.7801,77.4783,1.15714,0.0,1.0
351,87.5,35.2302,35.4288,140.939,108.926,95.1675,0.0041827,0.183874,20.7476,77.4282,1.22062,0.0,1.0
354,88.25,35.8914,35.5836,142.305,108.924,92.9462,0.00520648,0.21187,20.7091,77.3482,1.43398,0.0,0.0
357,89,36.4314,36.0874,137.284,108.931,92.1832,0.00640513,0.240601,20.6747,77.2981,1.50912,0.0,0.0
360,89.75,37.0718,36.281,132.771,108.936,89.2039,0.00747178,0.265093,20.6313,77.2181,1.80648,0.0,0.0
363,90.5,37.7353,36.736,132.893,108.92,86.9381,0.0091987,0.295689,20.5788,77.138,2.03774,0.0,0.0
366,91.25,38.0876,36.7707,138.138,108.927,82.1045,0.01099,0.328544,20.5406,77.0479,2.55547,0.0,0.0
369,92,38.4709,37.4419,131.852,108.939,77.8586,0.0132063,0.361248,20.483,76.9578,3.03644,0.0,0.0
372,92.75,39.2747,37.667,133.355,108.925,81.8644,0.0162427,0.399264,20.4292,76.8277,2.58177,0.0,0.0
375,93.5,40.2184,38.4336,131.839,108.919,75.5731,0.019019,0.44124,20.3697,76.7076,3.30412,0.0,0.0
378,94.25,40.7525,38.878,123.893,108.915,74.0667,0.0220054,0.485893,20.2995,76.5775,3.4858,0.0,0.0
381,95,41.6459,40.0855,124.501,108.936,72.8279,0.0258771,0.536755,20.2177,76.3973,3.64,0.0,0.0
384,95.75,43.0042,40.3942,117.487,108.933,67.8472,0.0297784,0.58164,20.1451,76.2872,4.28014,0.0,0.0
387,96.5,43.9615,41.2965,120.617,108.927,62.0535,0.0336541,0.641123,20.0506,76.057,5.08658,0.0,0.0
390,97.25,45.1053,41.9821,116.273,108.917,66.0056,0.0374572,0.702865,19.9438,75.8969,4.52761,0.0,0.0
393,98,46.2733,42.8658,114.384,108.926,63.0112,0.0409213,0.755709,19.866,75.7167,4.94802,0.0,0.0
396,98.75,47.6272,44.1836,114.066,108.933,59.3948,0.0446294,0.824617,19.7689,75.4965,5.48292,0.0,0.0
399,99.5,49.6794,45.0478,110.994,108.939,62.9904,0.0483344,0.894203,19.6702,75.2964,4.95213,0.0,0.0
402,100.25,51.1445,46.4489,105.306,108.925,57.8884,0.0515516,0.953181,19.5753,75.1062,5.71448,0.0,0.0
405,101,52.3913,47.6099,106.575,108.931,60.7555,0.0542299,1.0244,19.4869,74.866,5.27805,0.0,0.0
408,101.75,54.2141,48.9551,110.82,108.936,59.3831,0.0563754,1.09102,19.3942,74.6658,5.48495,0.0,0.0
411,102.5,56.1884,50.8864,108.498,108.935,55.791,0.0579977,1.14586,19.3226,74.4256,6.04898,0.0,0.0
414,103.25,58.1043,51.9638,107.44,108.937,53.9181,0.0591135,1.19955,19.2636,74.2354,6.35782,0.0,0.0
417,104,60.1137,54.1303,101.81,108.938,59.0929,0.0598126,1.24298,19.2162,74.0653,5.52942,0.0,0.0
420,104.75,61.7262,55.8949,110.965,108.938,60.9891,0.0601754,1.27801,19.1817,73.8551,5.24391,0.0,0.0
423,105.5,63.2014,57.1711,100.337,108.938,56.8073,0.0601889,1.30617,19.1533,73.6649,5.886,0.0,0.0
426,106.25,65.3748,58.9926,106.139,108.93,59.6602,0.0599111,1.3292,19.1313,73.4848,5.44235,0.0,0.0
429,107,66.9157,60.7377,99.852,108.927,59.2603,0.0595495,1.34765,19.1143,73.2746,5.50294,0.0,0.0
432,107.75,68.4316,62.2412,103.317,108.931,61.0462,0.0591589,1.36214,19.1011,73.0544,5.23485,0.0,0.0
435,108.5,70.077,63.9413,112.21,108.945,63.3029,0.0587733,1.37413,19.087,72.8742,4.90791,0.0,0.0
438,109.25,71.4508,65.5136,110.711,108.941,58.7005,0.0583234,1.38532,19.0767,72.654,5.58987,0.0,0.0
441,110,73.0674,66.8364,100.592,108.943,56.8589,0.0579954,1.39641,19.0693,72.4839,5.87824,0.0,0.0
444,110.75,74.7073,68.4074,103.645,108.935,57.9142,0.0574697,1.4042,19.0643,72.2437,5.71134,0.0,0.0
447,111.5,76.4731,70.433,104.439,108.935,58.5377,0.0569643,1.40826,19.0614,72.0535,5.6145,0.0,0.0
450,112.25,77.7118,71.6426,104.435,108.932,57.1411,0.0563047,1.41058,19.061,71.8433,5.83257,0.0,0.0
453,113,78.9801,73.0695,107.894,108.943,56.4372,0.0556998,1.41105,19.0634,71.6031,5.94554,0.0,0.0
456,113.75,80.3194,74.3,103.189,108.94,60.1507,0.054924,1.40928,19.0679,71.483,5.36922,0.0,0.0
459,114.5,81.5968,75.7313,103.846,108.933,58.0275,0.0541985,1.40785,19.0724,71.2728,5.69345,0.0,0.0
462,115.25,82.9166,76.9635,104.7,108.932,58.878,0.0535016,1.40657,19.078,71.0927,5.56188,0.0,0.0
465,116,83.8631,78.7559,107.419,108.933,60.5466,0.0529508,1.4037,19.0857,70.8825,5.30928,0.0,0.0
468,116.75,85.5511,79.8275,107.198,108.931,54.7822,0.0524715,1.40082,19.0918,70.7023,6.21356,0.0,0.0
471,117.5,86.9837,81.5209,113.743,108.926,54.9304,0.0520975,1.39736,19.0973,70.5522,6.18878,0.0,0.0
474,118.25,87.6696,83.0069,103.98,108.93,56.647,0.051825,1.39404,19.1017,70.362,5.91085,0.0,0.0
477,119,88.4573,83.9755,104.255,108.927,54.6841,0.0516396,1.39039,19.1062,70.1819,6.22947,0.0,0.0
480,119.75,89.6677,85.1143,105.991,108.929,55.8092,0.0515029,1.38681,19.1105,69.9917,6.04548,0.0,0.0
483,120.5,90.6216,86.2429,109.821,108.93,54.5764,0.0514034,1.38351,19.1145,69.7815,6.24748,0.0,0.0
486,121.25,91.5853,87.8446,112.102,108.932,54.9486,0.0513323,1.38123,19.1173,69.5913,6.18626,0.0,0.0
489,122,92.7845,88.394,117.048,108.936,56.1338,0.0512837,1.37936,19.1199,69.4112,5.99368,0.0,0.0
492,122.75,93.2036,89.948,105.199,108.925,57.0865,0.0512432,1.37762,19.1226,69.231,5.84059,0.0,0.0
495,123.5,94.285,90.7932,101.243,108.932,54.7696,0.0511955,1.37573,19.1245,69.0909,6.21576,0.0,0.0
498,124.25,94.9936,91.9971,108.312,108.936,54.1405,0.051066,1.37404,19.1264,68.8407,6.32052,0.0,0.0
501,125,96.17,92.6613,96.2661,108.927,54.2457,0.0509312,1.37225,19.1286,68.6805,6.3022,0.0,0.0
504,125.75,97.1931,93.9259,108.743,108.934,55.4031,0.0506575,1.36798,19.1335,68.4704,6.11197,0.0,0.0
507,126.5,98.1981,94.9642,104.887,108.94,55.0148,0.0503132,1.36179,19.1428,68.2702,6.17604,0.0,0.0
510,127.25,98.3513,95.9242,113.446,108.938,54.4449,0.0499424,1.35416,19.1559,68.12,6.26998,0.0,0.0
513,128,99.5206,96.635,111.493,108.931,55.6727,0.0494652,1.34706,19.1654,67.9399,6.06781,0.0,0.0
516,128.75,100.133,97.8018,107.907,108.934,55.6029,0.0490308,1.34123,19.1724,67.7897,6.07944,0.0,0.0
519,129.5,100.696,98.6424,105.645,108.94,57.003,0.0483523,1.33393,19.1844,67.6196,5.85506,0.0,0.0
522,130.25,101.209,99.7306,103.794,108.937,56.3619,0.0479868,1.32632,19.1981,67.4394,5.95706,0.0,0.0
525,131,102.128,100.063,110.611,108.933,58.6019,0.047389,1.31686,19.2138,67.2793,5.60444,0.0,0.0
528,131.75,102.515,101.361,108.014,108.928,57.7848,0.0468784,1.30157,19.2337,67.0991,5.73098,0.0,0.0
531,132.5,103.034,101.783,111.559,108.941,57.1578,0.0462009,1.28071,19.2518,66.959,5.83071,0.0,0.0
534,133.25,103.202,102.799,113.792,108.94,59.4362,0.0455769,1.26991,19.2694,66.7288,5.47724,0.0,0.0
537,134,103.364,103.018,120.499,108.937,61.161,0.0449252,1.25455,19.2842,66.5987,5.21839,0.0,0.0
540,134.75,103.43,103.85,114.617,108.942,57.4794,0.0441137,1.23693,19.3039,66.4486,5.78002,0.0,0.0
543,135.5,104.498,104.087,112.438,108.939,59.4903,0.0432038,1.22409,19.3294,66.3084,5.46894,0.0,0.0
546,136.25,104.299,104.851,108.746,108.941,61.1676,0.0426289,1.21472,19.3457,66.1483,5.21778,0.0,0.0
549,137,104.326,105.401,113.57,108.939,61.9422,0.0418237,1.19282,19.3747,65.9781,5.10379,0.0,0.0
552,137.75,105.153,105.983,111.528,108.934,63.4445,0.0409468,1.17238,19.4178,65.798,4.88676,0.0,0.0
555,138.5,104.716,106.231,115.332,108.945,59.8407,0.0400462,1.14577,19.4559,65.7279,5.41636,0.0,0.0
558,139.25,105.034,106.689,111.682,108.951,59.9156,0.0392782,1.12729,19.4947,65.5578,5.40554,0.0,0.0
561,140,105.235,106.322,116.346,108.941,63.7818,0.0382351,1.0981,19.5336,65.4177,4.83946,0.0,0.0
564,140.75,104.861,106.367,112.349,108.937,64.9756,0.0373329,1.06935,19.5666,65.3376,4.67141,0.0,0.0
567,141.5,105.266,107.13,119.518,108.945,63.4091,0.0364326,1.04134,19.6044,65.1574,4.89272,0.0,0.0
570,142.25,104.319,107.286,123.005,108.942,66.4966,0.0354251,1.01142,19.644,65.0573,4.46268,0.0,0.0
573,143,104.98,107.062,124.799,108.938,62.3048,0.0345625,0.985558,19.6856,64.9372,5.051,0.0,0.0
576,143.75,104.426,107.452,122.615,108.947,65.3068,0.0335901,0.952441,19.7291,64.7971,4.62629,0.0,0.0
579,144.5,103.59,107.17,122.63,108.941,64.7633,0.0326685,0.921342,19.7709,64.707,4.70137,0.0,0.0
582,145.25,103.363,106.954,120.528,108.936,63.803,0.0316392,0.895705,19.8107,64.5869,4.83597,0.0,0.0
585,146,102.912,106.933,124.398,108.945,68.1182,0.0307365,0.865463,19.848,64.4568,4.24509,0.0,0.0
588,146.75,103.002,106.562,118.857,108.941,66.8931,0.0295964,0.8365,19.8814,64.3867,4.40891,0.0,0.0
591,147.5,101.943,106.655,124.104,108.942,72.0249,0.0283884,0.808126,19.9164,64.2766,3.74074,0.0,0.0
594,148.25,101.598,106.531,127.213,108.95,75.1579,0.0272149,0.780069,19.9589,64.1866,3.35653,0.0,0.0
597,149,101.058,106.76,127.847,108.943,69.4021,0.0259046,0.751224,19.9992,64.0865,4.07615,0.0,0.0
600,149.75,100.861,106.741,126.415,108.942,69.927,0.0246686,0.726618,20.0395,64.0364,4.00797,0.0,0.0
603,150.5,100.095,105.652,123.627,108.934,73.1571,0.0235103,0.696456,20.0809,63.9063,3.59909,0.0,0.0
606,151.25,99.5463,105.202,127.926,108.944,76.6491,0.0224307,0.671085,20.1243,63.8263,3.17841,0.0,0.0
609,152,98.8193,104.86,131.418,108.944,81.4846,0.0212888,0.646803,20.1652,63.7762,2.62534,0.0,0.0
612,152.75,97.9675,104.744,129.615,108.948,78.3895,0.0204564,0.620126,20.199,63.7162,2.97577,0.0,0.0
615,153.5,97.3966,104.655,133.054,108.923,81.0184,0.0192952,0.591731,20.2324,63.6161,2.67549,0.0,0.0
618,154.25,96.4827,104.287,131.719,108.941,83.0107,0.0182023,0.565641,20.2641,63.576,2.45739,0.0,0.0
621,155,96.068,103.128,130.462,108.953,84.1565,0.0173005,0.544325,20.2932,63.516,2.33446,0.0,0.0
624,155.75,95.3854,103.118,132.841,108.937,84.3764,0.0162143,0.520445,20.3144,63.4759,2.3095,0.0,0.0
627,156.5,94.3264,102.436,134.743,108.93,88.591,0.0154225,0.503036,20.336,63.4159,1.86832,0.0,0.0
630,157.25,93.8895,102.155,132.355,108.933,87.0281,0.0145034,0.480418,20.3601,63.3458,2.02945,0.0,0.0
633,158,92.6404,101.098,138.416,108.926,93.8791,0.0135875,0.460751,20.3875,63.2758,1.34388,0.0,0.0
636,158.75,92.3809,100.896,138.52,108.93,91.0844,0.0127488,0.44098,20.4181,63.2558,1.61745,0.0,0.0
639,159.5,90.9644,100.403,135.902,108.918,92.6797,0.0118711,0.422493,20.4498,63.2457,1.45945,0.0,0.0
642,160.25,90.5265,99.2552,140.531,108.916,94.627,0.0112313,0.402052,20.4768,63.2357,1.2713,0.0,0.0
645,161,89.6752,99.5275,134.721,108.93,96.5373,0.0104446,0.381027,20.5049,63.1657,1.0918,0.0,0.0
648,161.75,88.863,98.327,136.82,108.915,96.0034,0.00970564,0.361665,20.532,63.1356,1.14069,0.0,0.0
651,162.5,87.8642,97.5869,140.591,108.909,98.3683,0.00901791,0.345829,20.557,63.1056,0.920184,0.0,0.0
654,163.25,87.0989,96.8374,141.286,108.904,100.117,0.00838221,0.327561,20.5827,63.0756,0.760457,0.0,0.0
657,164,86.1622,96.3593,145.77,108.911,101.532,0.00778034,0.311843,20.6081,63.0556,0.634229,0.0,0.0
660,164.75,85.6629,95.9479,141.596,108.915,103.902,0.00718669,0.296281,20.6295,63.0356,0.425936,0.0,0.0
663,165.5,84.0898,95.0288,142.131,108.906,103.467,0.00671305,0.280343,20.6526,63.0055,0.463159,0.0,0.0
666,166.25,83.4474,94.3615,140.956,108.895,105.319,0.00625145,0.265524,20.673,62.9655,0.301764,0.0,0.0
669,167,82.8162,93.7612,139.268,108.902,105.418,0.00591495,0.253356,20.6894,62.9455,0.293973,0.0,0.0
672,167.75,82.2447,93.2823,143.733,108.898,108.062,0.00559157,0.239359,20.7059,62.9255,0.0696238,0.0,0.0
675,168.5,81.1213,91.8472,141.334,108.892,108.045,0.00534311,0.227562,20.722,62.8954,0.070584,0.0,0.0
678,169.25,80.5252,92.098,143.791,108.886,108.873,0.00516057,0.216237,20.7373,62.8854,0.00103448,0.0,0.0
681,170,79.7994,90.9461,142.885,108.885,109.569,0.00503437,0.204431,20.7529,62.9255,-0.0565897,0.0,0.0
684,170.75,78.7506,90.6775,146.959,108.888,109.229,0.0049587,0.194554,20.7669,62.9155,-0.0282492,0.0,0.0
687,171.5,78.728,89.8601,143.198,108.879,109.415,0.00491626,0.185181,20.7797,62.8954,-0.0444129,0.0,0.0
690,172.25,76.9522,88.9262,141.12,108.871,109.899,0.00490281,0.17592,20.7914,62.8754,-0.0849312,0.0,0.0
693,173,76.4102,88.4715,142.349,108.88,111.066,0.00491362,0.167591,20.8037,62.8754,-0.179722,0.0,0.0
696,173.75,75.489,87.5045,147.634,108.878,111.042,0.00494766,0.160847,20.8126,62.8854,-0.177931,0.0,0.0
699,174.5,75.1283,86.8162,148.624,108.864,110.321,0.0050172,0.153879,20.8205,62.8654,-0.120142,0.0,0.0
702,175.25,74.087,85.8478,143.392,108.855,111.515,0.00512613,0.147601,20.8286,62.8454,-0.218215,0.0,0.0
705,176,73.3926,85.9846,142.92,108.87,111.16,0.0052257,0.142512,20.8352,62.8054,-0.188184,0.0,0.0
708,176.75,72.3608,84.9652,143.865,108.874,111.05,0.00533276,0.136828,20.8419,62.8054,-0.178879,0.0,0.0
711,177.5,71.9732,83.952,147.035,108.862,110.538,0.00544728,0.132004,20.8481,62.8154,-0.138084,0.0,0.0
714,178.25,71.5617,83.6017,143.62,108.86,110.95,0.00553883,0.127325,20.8533,62.8054,-0.171907,0.0,0.0
717,179,70.1307,82.9678,143.787,108.868,111.053,0.00561938,0.123004,20.8575,62.8354,-0.179646,0.0,0.0
720,179.75,68.2621,80.8893,144.323,108.854,111.981,0.00569023,0.119565,20.8613,62.7953,-0.25608,0.0,0.0
723,180.5,67.5948,79.879,143.951,108.853,111.629,0.0057626,0.116563,20.8654,62.7853,-0.227658,0.0,0.0
726,181.25,66.7798,79.0987,143.583,108.844,111.225,0.00584165,0.113798,20.8684,62.7853,-0.195695,0.0,0.0
729,182,66.8087,78.5205,146.699,108.851,109.941,0.00594423,0.111782,20.8706,62.7553,-0.0901117,0.0,0.0
732,182.75,65.8857,78.2847,147.234,108.854,110.754,0.00608301,0.109901,20.8722,62.7153,-0.156422,0.0,0.0
735,183.5,65.4774,77.4459,144.776,108.837,110.666,0.00621627,0.108492,20.8733,62.7553,-0.1506,0.0,0.0
738,184.25,64.3516,76.7396,148.629,108.841,111.159,0.00633318,0.107399,20.8742,62.7853,-0.190529,0.0,0.0
741,185,63.9425,76.6199,148.761,108.829,110.995,0.00642881,0.106502,20.8748,62.7753,-0.178153,0.0,0.0
744,185.75,63.2009,75.8301,147.644,108.847,111.48,0.00649211,0.105805,20.8755,62.7453,-0.216049,0.0,0.0
747,186.5,63.4765,75.3907,144.099,108.85,111.154,0.00653551,0.105194,20.8764,62.7653,-0.189341,0.0,0.0
750,187.25,62.5854,74.3637,148.78,108.827,111.488,0.00655057,0.104762,20.877,62.7553,-0.21836,0.0,0.0
753,188,61.9287,73.9267,149.143,108.831,111.248,0.00656155,0.104454,20.8775,62.7453,-0.198533,0.0,0.0
756,188.75,61.1848,73.4189,144.944,108.844,111.613,0.00657871,0.104148,20.8777,62.7353,-0.22712,0.0,0.0
759,189.5,61.1792,72.6848,147.109,108.833,110.429,0.00660791,0.103808,20.878,62.7153,-0.131575,0.0,0.0
762,190.25,60.6422,72.6316,147.216,108.823,111.156,0.00664646,0.103512,20.8786,62.7153,-0.191756,0.0,0.0
765,191,60.2912,72.5315,146.67,108.821,111.711,0.00669191,0.103136,20.8791,62.7153,-0.236942,0.0,0.0
768,191.75,59.6399,71.1016,145.458,108.829,110.94,0.00673971,0.102794,20.8794,62.6953,-0.173659,0.0,0.0
771,192.5,59.304,71.444,144.865,108.82,111.953,0.00676684,0.102545,20.8796,62.6652,-0.256627,0.0,0.0
774,193.25,58.4662,70.431,146.91,108.8,110.776,0.00676575,0.102404,20.8798,62.6852,-0.162733,0.0,0.0
777,194,58.3641,70.3563,145.807,108.801,111.087,0.0067349,0.102273,20.8799,62.6953,-0.188037,0.0,0.0
780,194.75,57.7463,69.4293,143.342,108.801,111.249,0.00668944,0.10215,20.88,62.6452,-0.201122,0.0,0.0
783,195.5,57.177,68.8374,145.072,108.795,110.709,0.00661702,0.102034,20.8801,62.6852,-0.157648,0.0,0.0
786,196.25,57.0274,68.8172,145.897,108.789,111.832,0.00654628,0.10199,20.8801,62.6852,-0.249399,0.0,0.0
789,197,56.6743,68.2918,147.483,108.779,111.247,0.00648503,0.101951,20.8802,62.6752,-0.202798,0.0,0.0
792,197.75,56.3142,67.6716,146.152,108.761,110.746,0.00643692,0.10191,20.8802,62.6652,-0.163456,0.0,0.0
795,198.5,55.7929,67.4913,147.82,108.771,110.938,0.00639819,0.101804,20.8802,62.6452,-0.178279,0.0,0.0
798,199.25,55.3467,67.3748,146.726,108.773,111.378,0.00637123,0.101597,20.8802,62.5952,-0.213987,0.0,0.0
801,200,55.2577,66.424,144.647,108.766,110.676,0.00635618,0.101323,20.8802,62.6152,-0.157357,0.0,0.0
804,200.75,55.0324,65.9285,145.916,108.766,109.98,0.00635213,0.101065,20.8809,62.6152,-0.100343,0.0,0.0
807,201.5,54.1407,65.6201,147.6,108.782,110.522,0.00636133,0.100838,20.8813,62.5952,-0.143463,0.0,0.0
810,202.25,54.3046,65.1936,146.851,108.765,110.788,0.00638881,0.100646,20.8817,62.5852,-0.166591,0.0,0.0
813,203,53.3016,65.0137,144.81,108.761,110.582,0.00642708,0.100363,20.8818,62.6052,-0.150072,0.0,0.0
816,203.75,53.643,64.8441,148.041,108.764,111.485,0.00648618,0.100088,20.8816,62.6152,-0.223382,0.0,0.0
819,204.5,53.2241,63.8715,144.162,108.783,110.521,0.00655673,0.099771,20.8815,62.6152,-0.143306,0.0,0.0
822,205.25,53.0693,63.4742,144.037,108.763,110.679,0.00661845,0.09954,20.8814,62.5952,-0.157863,0.0,0.0
825,206,52.5074,63.0294,147.351,108.763,110.802,0.00666782,0.0993511,20.8813,62.5351,-0.167852,0.0,0.0
828,206.75,52.7119,62.8529,145.881,108.751,110.483,0.00670198,0.0992709,20.8813,62.5651,-0.142814,0.0,0.0
831,207.5,51.8965,62.4289,144.173,108.766,110.622,0.00670376,0.0992824,20.8812,62.5451,-0.15301,0.0,0.0
834,208.25,52.1265,62.5334,145.85,108.755,111.174,0.0066952,0.0993685,20.8812,62.5251,-0.198864,0.0,0.0
837,209,51.3583,62.0093,143.777,108.754,110.929,0.006664,0.0994519,20.8813,62.5251,-0.179011,0.0,0.0
840,209.75,51.9032,61.4033,145.464,108.74,110.585,0.00659858,0.0995126,20.8815,62.5351,-0.152051,0.0,0.0
843,210.5,50.7449,61.1911,148.564,108.737,110.526,0.00649786,0.0993516,20.8816,62.5051,-0.147472,0.0,0.0
846,211.25,50.8374,60.5613,142.066,108.739,110.737,0.00640009,0.0991743,20.8817,62.5151,-0.164554,0.0,0.0
849,212,50.3337,60.8155,150.846,108.748,110.032,0.00631372,0.0989427,20.8818,62.4951,-0.106133,0.0,0.0
852,212.75,49.7408,60.0103,144.475,108.743,110.965,0.00624269,0.0986731,20.8825,62.4851,-0.182861,0.0,0.0
855,213.5,50.1245,59.654,145.532,108.743,111.014,0.00620499,0.0983731,20.883,62.4651,-0.186893,0.0,0.0
858,214.25,49.7342,59.5338,150.057,108.737,110.513,0.00620786,0.0980509,20.8836,62.455,-0.146433,0.0,0.0
861,215,49.4192,59.2641,147.931,108.735,110.117,0.00622034,0.0976315,20.8844,62.425,-0.114214,0.0,0.0
864,215.75,49.3978,58.7822,147.251,108.728,110.657,0.00626405,0.0973106,20.885,62.445,-0.158992,0.0,0.0
867,216.5,48.991,58.3515,145.289,108.726,110.71,0.00631067,0.0970508,20.8854,62.4651,-0.163434,0.0,0.0
870,217.25,49.111,57.8403,144.789,108.735,110.497,0.0063593,0.0968614,20.8858,62.4751,-0.145303,0.0,0.0
873,218,48.4194,57.9994,145.777,108.726,111.051,0.00639134,0.0967377,20.886,62.4751,-0.191256,0.0,0.0
876,218.75,48.4195,57.3694,147.686,108.698,110.485,0.00640886,0.0966536,20.8862,62.455,-0.147363,0.0,0.0
879,219.5,48.5556,57.1247,148.806,108.71,110.608,0.00640334,0.0965514,20.8861,62.4651,-0.156495,0.0,0.0
882,220.25,48.5453,57.2089,149.778,108.713,110.909,0.00638777,0.0964768,20.886,62.4651,-0.180797,0.0,0.0
885,221,47.8422,56.5832,146.302,108.716,111.552,0.0063688,0.0964225,20.886,62.4751,-0.232844,0.0,0.0
888,221.75,47.3931,57.0756,145.829,108.696,110.807,0.00635036,0.0964103,20.8859,62.445,-0.173942,0.0,0.0
891,222.5,47.2761,55.8617,148.885,108.685,110.919,0.00633819,0.0963981,20.8859,62.425,-0.183975,0.0,0.0
894,223.25,47.3756,56.6697,143.55,108.695,111.421,0.0063265,0.0963633,20.8859,62.425,-0.223957,0.0,0.0
897,224,47.1074,55.9442,146.447,108.696,110.412,0.00631221,0.096215,20.8858,62.435,-0.141629,0.0,0.0
900,224.75,47.0295,55.635,146.789,108.692,110.337,0.00629153,0.0960236,20.8858,62.425,-0.135712,0.0,0.0
903,225.5,46.6683,55.3122,147.786,108.674,110.119,0.00627209,0.095742,20.8858,62.415,-0.119349,0.0,0.0
906,226.25,46.8676,54.7679,146.031,108.681,111.077,0.00623358,0.0953932,20.8863,62.415,-0.197155,0.0,0.0
909,227,46.5493,55.0007,148.218,108.681,110.728,0.00617963,0.0951012,20.8874,62.435,-0.168683,0.0,0.0
912,227.75,46.1892,55.2075,145.596,108.673,110.456,0.0061138,0.0948237,20.8882,62.425,-0.147184,0.0,0.0
915,228.5,46.6356,54.3514,146.209,108.665,110.442,0.00604151,0.0945308,20.8891,62.395,-0.146614,0.0,0.0
918,229.25,46.1711,54.2819,146.887,108.665,110.641,0.00597845,0.0941622,20.8901,62.375,-0.162865,0.0,0.0
921,230,45.7547,53.6734,149.65,108.678,110.905,0.00592096,0.0937094,20.8908,62.375,-0.183415,0.0,0.0
924,230.75,46.0369,53.4218,144.758,108.671,110.25,0.00587415,0.093349,20.8913,62.405,-0.130353,0.0,0.0
927,231.5,45.8325,53.5047,146.232,108.657,110.179,0.00584003,0.0930347,20.8917,62.375,-0.12573,0.0,0.0
930,232.25,45.7054,53.432,147.307,108.663,111.167,0.00582792,0.0927602,20.892,62.375,-0.205951,0.0,0.0
933,233,45.4614,53.0036,148.523,108.655,110.738,0.00582932,0.0924827,20.8922,62.365,-0.1716,0.0,0.0
936,233.75,45.5323,52.6327,149.816,108.654,110.353,0.00583471,0.0922804,20.8924,62.365,-0.140285,0.0,0.0
939,234.5,44.7044,51.7821,148.054,108.642,110.599,0.00583498,0.0921329,20.8931,62.365,-0.161431,0.0,0.0
942,235.25,44.9459,52.0607,148.765,108.638,111.111,0.005816,0.0920254,20.8936,62.345,-0.203528,0.0,0.0
945,236,44.8613,52.4061,146.568,108.637,110.669,0.00579399,0.0918243,20.894,62.3349,-0.167496,0.0,0.0
948,236.75,44.6945,52.4162,150.987,108.634,111.409,0.00575242,0.091606,20.8948,62.3249,-0.228059,0.0,0.0
951,237.5,44.6702,51.5746,148.313,108.623,111.008,0.00572279,0.0913937,20.8955,62.3149,-0.196307,0.0,0.0
954,238.25,44.4591,51.8263,146.074,108.615,110.348,0.00570234,0.0912002,20.896,62.3049,-0.143153,0.0,0.0
957,239,44.4328,51.2918,147.809,108.612,111.043,0.00569389,0.0910182,20.8964,62.2849,-0.200111,0.0,0.0
960,239.75,44.1888,51.0188,144.903,108.618,110.606,0.00569586,0.0908781,20.8967,62.3149,-0.163953,0.0,0.0
963,240.5,43.923,51.1351,146.322,108.599,110.673,0.0057065,0.090763,20.8965,62.3049,-0.171038,0.0,0.0
966,241.25,44.5711,50.5285,148.728,108.587,111.053,0.0057325,0.0906934,20.8963,62.2849,-0.202963,0.0,0.0
969,242,43.6345,50.2536,147.896,108.606,111.331,0.00575912,0.0906488,20.8962,62.2849,-0.22402,0.0,0.0
972,242.75,43.4581,50.5329,145.099,108.592,111.482,0.0057818,0.0906589,20.8962,62.2849,-0.237431,0.0,0.0
975,243.5,43.868,50.366,149.716,108.579,110.657,0.0057766,0.0906376,20.8963,62.2649,-0.171372,0.0,0.0
978,244.25,43.5407,50.0354,150.475,108.577,110.774,0.00574941,0.0905344,20.8969,62.2449,-0.181062,0.0,0.0
981,245,43.6941,49.7778,148.442,108.568,110.006,0.00570544,0.0903302,20.8972,62.2349,-0.119016,0.0,0.0
984,245.75,43.5242,49.7399,146.389,108.57,110.963,0.00563149,0.0900524,20.898,62.2449,-0.197108,0.0,0.0
987,246.5,42.8905,49.3451,150.603,108.568,110.771,0.00555589,0.0897949,20.8987,62.2549,-0.181667,0.0,0.0
990,247.25,43.1496,49.5173,149.081,108.549,110.61,0.00548549,0.0894234,20.8992,62.2349,-0.169965,0.0,0.0
993,248,43.1365,49.0806,147.122,108.561,110.903,0.00542383,0.0891525,20.8996,62.2449,-0.192947,0.0,0.0
996,248.75,42.7632,48.6443,147.683,108.574,110.523,0.00537888,0.0889626,20.8999,62.2549,-0.160825,0.0,0.0
999,249.5,42.9729,48.9642,148.097,108.559,110.639,0.00533884,0.088837,20.9001,62.2549,-0.17155,0.0,0.0
1002,250.25,42.8523,48.7387,150.032,108.544,110.197,0.00529639,0.0887046,20.8996,62.2549,-0.136664,0.0,0.0
1005,251,42.534,48.5468,146.072,108.547,110.948,0.00527372,0.0885795,20.899,62.2148,-0.197833,0.0,0.0
1008,251.75,42.6864,47.8392,145.569,108.544,110.54,0.00523479,0.088476,20.8983,62.2048,-0.164702,0.0,0.0
1011,252.5,42.4814,47.9804,151.237,108.545,109.964,0.00520097,0.0884006,20.8979,62.2248,-0.117406,0.0,0.0
1014,253.25,42.1361,47.5909,149.3,108.536,109.836,0.00515814,0.0881991,20.8975,62.2349,-0.107699,0.0,0.0
1017,254,42.5903,47.9929,145.507,108.545,110.506,0.0051142,0.0880959,20.8973,62.2148,-0.161895,0.0,0.0
1020,254.75,42.602,47.852,148.911,108.529,110.148,0.00507198,0.087938,20.8971,62.2148,-0.133816,0.0,0.0
1023,255.5,42.1394,47.1466,142.137,108.527,110.502,0.00502614,0.0877412,20.8969,62.2349,-0.163004,0.0,0.0
1026,256.25,42.2151,47.6735,145.754,108.51,110.381,0.00497439,0.0875262,20.8975,62.2048,-0.154472,0.0,0.0
1029,257,41.9356,47.4911,145.775,108.506,110.373,0.00490613,0.0872862,20.8978,62.2048,-0.154261,0.0,0.0
1032,257.75,42.1933,47.26,145.431,108.514,110.822,0.00483666,0.0870211,20.8981,62.2048,-0.190221,0.0,0.0
1035,258.5,41.9556,47.0724,146.449,108.503,110.896,0.00477457,0.0867667,20.8983,62.1848,-0.1972,0.0,0.0
1038,259.25,41.7402,46.9675,148.582,108.502,110.328,0.00472931,0.0865736,20.8985,62.2048,-0.150871,0.0,0.0
1041,260,41.5614,46.6157,144.744,108.496,110.591,0.00469631,0.0864201,20.8986,62.2048,-0.172901,0.0,0.0
1044,260.75,41.5511,46.6721,146.787,108.503,110.26,0.00468867,0.0863367,20.8987,62.2248,-0.145202,0.0,0.0
1047,261.5,41.3489,46.3802,147.834,108.501,110.846,0.00469073,0.0862806,20.8988,62.1948,-0.193307,0.0,0.0
1050,262.25,41.2585,46.3981,147.996,108.496,110.117,0.00469147,0.0862268,20.8991,62.1748,-0.134048,0.0,0.0
1053,263,41.5908,46.1953,146.612,108.499,109.994,0.00468514,0.0860856,20.8993,62.1448,-0.123701,0.0,0.0
1056,263.75,41.199,45.9924,146.381,108.49,110.118,0.00466648,0.0859231,20.8994,62.1448,-0.134652,0.0,0.0
1059,264.5,41.4643,45.8217,143.06,108.503,110.38,0.00462884,0.0857027,20.9001,62.1348,-0.154981,0.0,0.0
1062,265.25,41.0954,45.869,148.277,108.494,110.35,0.00458147,0.0853993,20.9006,62.1448,-0.153316,0.0,0.0
1065,266,41.0572,45.6415,148.847,108.495,109.969,0.00454857,0.0851405,20.9009,62.0947,-0.121997,0.0,0.0
1068,266.75,41.0857,46.0703,146.998,108.498,109.968,0.00449941,0.0848875,20.9012,62.0747,-0.121729,0.0,0.0
1071,267.5,41.2722,45.3675,145.56,108.494,110.177,0.0044527,0.0845745,20.9015,62.1047,-0.139134,0.0,0.0
1074,268.25,40.8439,45.246,149.764,108.502,110.051,0.00442246,0.0842914,20.9016,62.1047,-0.12817,0.0,0.0
1077,269,41.0147,45.4638,150.271,108.482,109.932,0.00440204,0.0841467,20.9018,62.1147,-0.120065,0.0,0.0
1080,269.75,41.054,45.1806,147.854,108.496,111.043,0.00438715,0.0840225,20.9018,62.1047,-0.209741,0.0,0.0
1083,270.5,40.9549,45.0384,145.686,108.49,110.996,0.00437162,0.0839727,20.9019,62.1047,-0.206433,0.0,0.0
1086,271.25,40.8324,44.6697,146.896,108.501,110.763,0.0043523,0.083975,20.9026,62.1147,-0.186537,0.0,0.0
1089,272,40.923,45.2227,148.262,108.491,110.331,0.00433813,0.0838544,20.9031,62.1147,-0.152079,0.0,0.0
1092,272.75,40.8263,44.9088,145.229,108.483,110.3,0.0043278,0.0837138,20.9034,62.0947,-0.150174,0.0,0.0
1095,273.5,40.7635,44.8698,146.702,108.486,110.341,0.00432281,0.0835214,20.9036,62.1047,-0.153267,0.0,0.0
1098,274.25,40.518,44.9499,145.731,108.494,111.053,0.00431691,0.0833127,20.9037,62.1047,-0.210711,0.0,0.0
1101,275,40.7549,44.5043,143.849,108.491,110.561,0.0043069,0.0830439,20.9037,62.0847,-0.170869,0.0,0.0
1104,275.75,40.2678,44.3833,150.291,108.488,110.504,0.00428512,0.0828479,20.9037,62.0747,-0.166495,0.0,0.0
1107,276.5,40.7042,44.3317,143.304,108.499,110.295,0.00425782,0.0826235,20.9043,62.0647,-0.14843,0.0,0.0
1110,277.25,40.9035,44.2573,145.536,108.497,110.402,0.00423306,0.0823581,20.9048,62.0947,-0.157361,0.0,0.0
1113,278,40.5196,43.8064,148.884,108.512,110.465,0.00420866,0.0820647,20.9052,62.0847,-0.161237,0.0,0.0
1116,278.75,39.96,44.307,147.449,108.494,109.949,0.00418684,0.0817932,20.9054,62.0847,-0.12044,0.0,0.0
1119,279.5,39.9557,43.649,149.041,108.504,110.482,0.00416865,0.0815696,20.9056,62.0947,-0.163304,0.0,0.0
1122,280.25,40.0914,43.8199,149.387,108.492,109.503,0.00415539,0.0813455,20.9057,62.0747,-0.0838489,0.0,0.0
1125,281,39.9088,43.7874,147.553,108.499,110.551,0.00414839,0.081137,20.9058,62.0647,-0.169418,0.0,0.0
1128,281.75,40.179,43.5035,146.588,108.502,110.224,0.00414785,0.080908,20.9059,62.0647,-0.142405,0.0,0.0
1131,282.5,39.9495,43.4592,142.522,108.501,110.334,0.00413732,0.0806269,20.9059,62.0547,-0.151474,0.0,0.0
1134,283.25,39.6935,43.4355,146.445,108.493,110.203,0.00411597,0.0803733,20.906,62.0347,-0.141402,0.0,0.0
1137,284,39.9717,43.0902,148.863,108.495,110.316,0.00408443,0.0801885,20.9062,62.0347,-0.150466,0.0,0.0
1140,284.75,40.1671,43.2957,148.202,108.488,109.982,0.00402217,0.0800109,20.9068,62.0247,-0.123664,0.0,0.0
1143,285.5,39.7095,43.488,142.845,108.491,110.181,0.00394739,0.0798182,20.9073,62.0247,-0.139724,0.0,0.0
1146,286.25,39.5383,42.7695,147.125,108.483,110.174,0.00387123,0.0796006,20.9076,62.0347,-0.139808,0.0,0.0
1149,287,40.1966,43.0204,146.38,108.481,110.357,0.00380488,0.0793708,20.9078,62.0547,-0.154962,0.0,0.0
1152,287.75,39.6776,43.0756,145.578,108.467,110.483,,0.0791728,,62.0347,-0.166456,0.0,0.0
1155,288.5,39.2995,42.6937,144.298,108.472,111.196,,0.0789064,,62.0147,-0.224157,0.0,0.0
1158,289.25,39.7697,43.0227,147.514,108.493,110.656,,0.0786125,,61.9946,-0.17849,0.0,0.0
1161,290,39.7595,43.1831,145.796,108.484,110.022,,0.0782956,,61.9946,-0.127242,0.0,0.0
1164,290.75,39.8703,42.6959,146.535,108.457,110.058,,,,62.0047,-0.13248,0.0,0.0
1167,291.5,39.1305,42.3568,145.311,108.473,110.552,,,,61.9946,-0.171679,0.0,0.0
1170,292.25,40.1214,42.6565,145.833,108.455,110.393,,,,62.0147,-0.160159,0.0,0.0
1173,293,39.5519,43.0162,145.527,108.47,110.072,,,,61.9946,-0.132535,0.0,0.0
1176,293.75,39.8861,42.6206,148.017,108.456,110.175,,,,61.9646,-0.142107,0.0,0.0
1179,294.5,39.3688,42.3257,146.632,108.46,109.796,,,,61.9546,-0.110644,0.0,0.0
1182,295.25,39.618,42.0731,147.952,108.452,109.9,,,,61.9546,-0.119841,0.0,0.0
1185,296,38.9137,42.4613,146.217,108.447,110.703,,,,61.9946,-0.18613,0.0,0.0
1188,296.75,39.0061,42.0905,147.111,108.436,110.577,,,,62.0047,-0.176766,0.0,0.0
1191,297.5,39.3834,41.8195,145.143,108.435,110.364,,,,61.9846,-0.159419,0.0,0.0
1194,298.25,39.1439,42.0517,147.147,108.429,109.745,,,,61.9746,-0.109061,0.0,0.0
1195,298.5,39.4518,42.1015,148.235,108.421,109.757,,,,61.9646,-0.110684,0.0,0.0