File: 01_Data/FRP_Panel/Cone/FRP_Panel_Cone_HF50Scan_220915_R1.csv
Names,Time,Stack TC,Smoke TC,Exh Press,Smoke Comp,Smoke Meas,CO Meter,CO2 Meter,O2 Meter,Sample Mass,Ext Coeff,Start Test,Flame Verif
Chan Gain,,500,500,1,1,1,1,1,1,1,1,1.0,1.0
Offset,,0,0,0.139139,0,0,0,0,0,0,0,0.0,0.0
Gain,,1,1,25.011,13.0826,14.7555,1,1,1,1.00088,1.03743,1.0,1.0
Units,sec,C,C,Pa,%,%,%,%,%,g,/m,,
Baseline,,53.5662,54.8722,140.076,99.5024,104.534,-0.000587638,0.0505188,20.992,-447.372,-0.448891,,
2,0.25,51.0644,52.6934,137.251,99.8066,104.734,-0.000487626,0.0523979,20.9907,151.594,-0.438508,0.0,0.0
4,0.75,50.9619,52.4045,139.009,99.8062,104.879,-0.000464584,0.052336,20.9907,151.814,-0.451173,0.0,0.0
6,1.25,51.1979,52.409,140.326,99.8265,104.552,-0.000442393,0.0522859,20.9908,151.744,-0.420905,0.0,0.0
8,1.75,50.9597,52.7416,143.374,99.8126,104.227,-0.000430949,0.0522453,20.9908,151.684,-0.393797,0.0,0.0
10,2.25,50.9965,52.858,141.333,99.8221,104.33,-0.000427557,0.0522125,20.9911,151.804,-0.401923,0.0,0.0
12,2.75,50.7696,52.7199,139.998,99.809,104.885,-0.00045583,0.0521859,20.9915,151.724,-0.451466,0.0,0.0
14,3.25,50.9136,52.7677,138.419,99.8249,104.607,-0.000478731,0.0520799,20.9919,151.734,-0.425832,0.0,0.0
16,3.75,51.3867,52.5659,140.284,99.8209,105.095,-0.000497281,0.0519941,20.9921,151.774,-0.468562,0.0,0.0
18,4.25,51.0356,52.2649,139.25,99.8293,104.737,-0.000534511,0.0518823,20.9924,151.694,-0.436746,0.0,0.0
20,4.75,51.108,51.9497,135.868,99.817,104.897,-0.000584651,0.0517918,20.9925,151.724,-0.451753,0.0,0.0
22,5.25,50.9706,52.3997,143.054,99.8313,105.192,-0.00063395,0.0516763,20.9927,151.734,-0.475956,0.0,0.0
24,5.75,50.686,52.7056,138.611,99.8221,104.456,-0.000673883,0.0515828,20.9928,151.684,-0.412915,0.0,0.0
26,6.25,51.2706,52.8014,139.617,99.8285,104.441,-0.000704987,0.0514922,20.9929,151.714,-0.411038,0.0,0.0
28,6.75,51.2445,52.8578,138.876,99.8154,105.154,-0.000729528,0.0514055,20.993,151.704,-0.474179,0.0,0.0
30,7.25,51.4608,52.2511,138.274,99.8205,105.163,-0.000748819,0.0513353,20.993,151.684,-0.474484,0.0,0.0
32,7.75,51.2811,53.0414,138.455,99.8245,104.655,-0.000765751,0.0512784,20.9931,151.684,-0.43002,0.0,0.0
34,8.25,51.1719,52.5586,137.725,99.8265,104.875,-0.000780641,0.0512323,20.9931,151.684,-0.449004,0.0,0.0
36,8.75,51.4595,52.8518,141.057,99.8401,104.609,-0.000792702,0.0511809,20.9932,151.674,-0.424645,0.0,0.0
38,9.25,51.0377,52.2098,138.47,99.8281,105.177,-0.00081488,0.0511393,20.9932,151.684,-0.474961,0.0,0.0
40,9.75,51.6659,52.9859,136.84,99.8273,105.134,-0.000832844,0.0511478,20.9932,151.684,-0.471372,0.0,0.0
42,10.25,51.0698,52.4041,140.249,99.8369,105.101,-0.000847395,0.0511547,20.9932,151.694,-0.467613,0.0,0.0
44,10.75,51.3896,52.8315,142.003,99.8301,104.637,-0.000874071,0.0511602,20.9935,151.684,-0.427983,0.0,0.0
46,11.25,50.8559,52.4157,141.146,99.8297,104.611,-0.000895679,0.0511647,20.9939,151.684,-0.425748,0.0,0.0
48,11.75,50.8724,52.5643,143.476,99.8369,104.679,-0.000902013,0.0510699,20.9942,151.684,-0.430967,0.0,0.0
50,12.25,51.3131,52.141,141.655,99.8345,104.78,-0.000907144,0.0509932,20.9945,151.694,-0.440028,0.0,0.0
52,12.75,51.4724,52.8151,140.489,99.8353,104.878,-0.0009113,0.0509162,20.9947,151.684,-0.448438,0.0,0.0
54,13.25,51.1334,52.2573,139.568,99.8365,105.162,-0.000871237,0.0508405,20.9949,151.694,-0.472911,0.0,0.0
56,13.75,51.392,53.1415,140.507,99.8369,104.425,-0.000838786,0.0507792,20.995,151.724,-0.4089,0.0,0.0
58,14.25,51.4593,52.0198,140.396,99.8485,105.186,-0.000782722,0.0507443,20.9951,151.704,-0.473923,0.0,0.0
60,14.75,51.6342,52.8162,139.268,99.8361,104.239,-0.00073731,0.0507294,20.9952,151.704,-0.392712,0.0,0.0
62,15.25,51.1946,52.8395,142.143,99.8353,104.003,-0.000669506,0.0507173,20.9951,151.684,-0.372201,0.0,0.0
64,15.75,51.515,52.6881,142.654,99.8465,105.204,-0.000614584,0.0506779,20.9947,151.684,-0.475664,0.0,0.0
66,16.25,51.5809,52.6969,141.546,99.8381,104.811,-0.000547763,0.0506194,20.9945,151.674,-0.44236,0.0,0.0
68,16.75,51.7812,52.2875,139.311,99.8513,104.697,-0.000493638,0.050572,20.9942,151.674,-0.431222,0.0,0.0
70,17.25,51.0853,52.6283,140.665,99.8257,104.645,-0.000449796,0.0505336,20.9941,151.674,-0.429049,0.0,0.0
72,17.75,51.9305,52.4923,138.098,99.8353,104.459,-0.000401876,0.0505099,20.9939,151.664,-0.412027,0.0,0.0
74,18.25,51.6717,52.7636,140.764,99.8365,105.303,-0.000363061,0.0504973,20.9938,151.664,-0.485139,0.0,0.0
76,18.75,51.4838,53.1013,141.448,99.8429,104.729,-0.000321694,0.050502,20.9937,151.664,-0.434765,0.0,0.0
78,19.25,51.0494,52.6195,139.119,99.8289,104.727,-0.000288186,0.050519,20.9936,151.664,-0.435882,0.0,0.0
80,19.75,51.6128,52.7708,141.15,99.8385,104.727,-0.000252555,0.0505181,20.9936,151.664,-0.435048,0.0,0.0
82,20.25,51.3261,52.7772,136.741,99.8325,105.113,-0.000233344,0.050504,20.9936,151.674,-0.469066,0.0,0.0
84,20.75,51.8463,52.9305,141.113,99.8293,104.608,-0.000200493,0.0504925,20.9935,151.664,-0.425471,0.0,0.0
86,21.25,51.3138,52.6553,138.059,99.8241,104.635,-0.000168919,0.0504981,20.9935,151.654,-0.428333,0.0,0.0
88,21.75,51.5477,52.9745,141.507,99.8333,104.649,-0.000143344,0.0505159,20.9934,151.644,-0.42875,0.0,0.0
90,22.25,51.6228,53.5477,140.549,99.8261,104.263,-0.000125895,0.0504741,20.9934,151.624,-0.395744,0.0,0.0
92,22.75,51.8139,53.3394,141.209,99.8373,104.343,-0.000114699,0.0504563,20.9934,151.634,-0.401718,0.0,0.0
94,23.25,51.6077,52.6953,138.535,99.8301,104.5625,-0.000116733,0.0504258,20.9934,151.634,-0.42148,0.0,0.0
96,23.75,51.2984,52.5664,141.861,99.8449,104.697,-0.000128373,0.0504011,20.9934,151.644,-0.431805,0.0,0.0
98,24.25,51.6116,52.3673,139.892,99.8186,104.893,-0.0001378,0.0503811,20.9934,151.634,-0.451295,0.0,0.0
100,24.75,51.5232,52.6814,142.421,99.8305,104.581,-0.000183903,0.0503871,20.9934,151.624,-0.423089,0.0,0.0
102,25.25,51.5382,52.7714,143.313,99.8269,104.287,-0.000221246,0.0504119,20.9933,151.614,-0.397794,0.0,0.0
104,25.75,51.5785,52.6254,144.584,99.8365,104.748,-0.000258938,0.0504024,20.9933,151.594,-0.43703,0.0,0.0
106,26.25,51.7669,52.9352,139.459,99.8261,104.461,-0.000302485,0.0503681,20.9933,151.614,-0.412983,0.0,0.0
108,26.75,51.0915,52.8822,138.268,99.8341,104.499,-0.00030375,0.0503403,20.9933,151.614,-0.415588,0.0,0.0
110,27.25,51.5817,52.8343,136.147,99.8194,104.587,-0.000305913,0.0503459,20.9929,151.604,-0.424578,0.0,0.0
112,27.75,51.8358,53.2367,140.183,99.8365,104.007,-0.000287421,0.0503505,20.9925,151.573,-0.372447,0.0,0.0
114,28.25,52.1782,53.3132,140.137,99.8401,104.433,-0.000254221,0.0504244,20.9922,151.583,-0.409276,0.0,0.0
116,28.75,51.1997,52.9994,139.333,99.8225,104.723,-0.000176444,0.0504844,20.9906,151.594,-0.436113,0.0,0.0
118,29.25,51.6274,52.805,142.001,99.8497,104.036,-0.000113444,0.0509616,20.9881,151.594,-0.373766,0.0,0.0
120,29.75,51.2241,52.6769,136.448,99.8289,104.089,2.95974e-05,0.0511541,20.9823,151.543,-0.380306,0.0,1.0
122,30.25,51.3422,52.0905,138.335,99.8058,104.044,0.000145461,0.0523737,20.9743,151.533,-0.37844,0.0,1.0
124,30.75,52.0514,53.2374,138.263,99.8269,104.36,0.00023931,0.0541628,20.9679,151.594,-0.404118,0.0,1.0
126,31.25,52.0397,53.3159,134.16,99.8325,104.021,0.000581392,0.0573646,20.9567,151.493,-0.373992,0.0,1.0
128,31.75,51.6715,52.9871,139.217,99.8421,101.561,0.000858479,0.0615355,20.9422,151.523,-0.155319,0.0,1.0
130,32.25,52.0041,53.4693,138.469,99.8142,99.2692,0.00126125,0.0676098,20.9304,151.453,0.0498213,0.0,1.0
132,32.75,52.0834,53.1029,131.565,99.8293,95.3574,0.001748,0.0749561,20.9046,151.423,0.417066,0.0,1.0
134,33.25,52.6314,53.4929,133.403,99.8058,91.5429,0.00236122,0.0809066,20.8836,151.403,0.786432,0.0,1.0
136,33.75,51.7111,52.9523,127.632,99.8241,88.2557,0.003055,0.0958958,20.8478,151.353,1.1209,0.0,1.0
138,34.25,51.7493,52.2339,131.461,99.8082,86.5256,0.00390851,0.108037,20.8188,151.313,1.29961,0.0,1.0
140,34.75,52.1583,52.5588,131.682,99.8189,85.5107,0.00486226,0.124333,20.7954,151.253,1.40797,0.0,1.0
142,35.25,53.1691,52.9008,126.385,99.8018,81.7425,0.00563479,0.143347,20.747,151.183,1.81653,0.0,0.0
144,35.75,53.1055,52.7292,128.465,99.8166,79.5612,0.00626055,0.16354,20.7079,151.123,2.06401,0.0,0.0
146,36.25,53.9802,53.0408,125.659,99.8042,76.392,0.00795244,0.184208,20.6585,151.053,2.4328,0.0,0.0
148,36.75,53.7109,53.985,125.351,99.8201,77.1746,0.00932288,0.206455,20.6185,150.993,2.3415,0.0,0.0
150,37.25,55.1194,54.1152,126.226,99.8006,72.5969,0.011372,0.229432,20.5655,150.903,2.89619,0.0,0.0
152,37.75,55.5625,54.3266,118.437,99.809,69.1061,0.0130318,0.248043,20.5226,150.843,3.3454,0.0,0.0
154,38.25,56.5957,55.4762,122.178,99.7958,63.3643,0.0150545,0.263118,20.4879,150.753,4.13358,0.0,0.0
156,38.75,56.7953,55.5563,121.186,99.8082,65.6244,0.0173033,0.294289,20.4304,150.623,3.81578,0.0,0.0
158,39.25,57.9363,56.0426,117.54,99.7858,65.4461,0.0191248,0.319538,20.3838,150.533,3.8385,0.0,0.0
160,39.75,58.7937,56.1858,114.01,99.7982,60.5346,0.0216402,0.35422,20.3272,150.463,4.54955,0.0,0.0
162,40.25,59.3971,57.1118,109.94,99.791,60.2275,0.0236777,0.382312,20.2643,150.342,4.59518,0.0,0.0
164,40.75,60.3187,57.8665,110.668,99.8062,58.1246,0.0263033,0.414253,20.1988,150.212,4.91999,0.0,0.0
166,41.25,61.1337,58.303,110.795,99.7902,58.9635,0.02843,0.448392,20.1327,150.152,4.78813,0.0,0.0
168,41.75,62.4982,58.9659,110.113,99.805,61.1425,0.0308548,0.476045,20.0792,150.032,4.45924,0.0,0.0
170,42.25,63.731,60.0162,105.604,99.7806,60.5031,0.032819,0.518586,20.0022,149.892,4.55269,0.0,0.0
172,42.75,64.7055,60.8268,107.074,99.7882,57.1754,0.0347709,0.553045,19.9399,149.782,5.0682,0.0,0.0
174,43.25,66.0099,61.6744,109.121,99.7874,55.9037,0.0366768,0.594502,19.8719,149.652,5.27282,0.0,0.0
176,43.75,67.2315,62.2613,108.752,99.7878,54.9175,0.038439,0.628083,19.8168,149.562,5.43482,0.0,0.0
178,44.25,68.0654,63.6523,111.853,99.7854,56.3067,0.0400629,0.66314,19.7521,149.412,5.20726,0.0,0.0
180,44.75,69.7916,64.2016,107.432,99.781,52.6876,0.0413783,0.698606,19.6996,149.311,5.81142,0.0,0.0
182,45.25,70.7807,65.297,104.783,99.7838,50.5514,0.042634,0.727334,19.6571,149.161,6.18834,0.0,0.0
184,45.75,72.023,66.2595,97.4402,99.7822,51.3935,0.0432594,0.765051,19.6295,149.051,6.03785,0.0,0.0
186,46.25,73.2404,67.4045,106.555,99.7742,54.8104,0.0448728,0.795602,19.5623,148.921,5.45136,0.0,0.0
188,46.75,74.4289,68.9139,101.2,99.7722,50.2614,0.0453623,0.831695,19.5394,148.781,6.23964,0.0,0.0
190,47.25,75.6117,69.5286,105.03,99.7694,51.6988,0.0461994,0.860931,19.5001,148.661,5.98279,0.0,0.0
192,47.75,76.4761,71.1495,102.389,99.7654,54.5686,0.0469938,0.894142,19.4668,148.551,5.49079,0.0,0.0
194,48.25,77.9002,71.6683,108.815,99.7615,49.7719,0.0476372,0.921044,19.4383,148.401,6.32772,0.0,0.0
196,48.75,79.5771,73.1603,107.673,99.7559,54.8221,0.0482471,0.932512,19.4152,148.291,5.44774,0.0,0.0
198,49.25,80.5109,73.8256,97.1426,99.7535,49.5022,0.048741,0.971375,19.3948,148.14,6.37644,0.0,0.0
200,49.75,81.7229,74.7449,102.741,99.7551,51.724,0.0492409,0.98183,19.3759,148.03,5.97704,0.0,0.0
202,50.25,82.3282,75.7365,114.783,99.7591,51.8996,0.0496457,1.00486,19.3586,147.9,5.94656,0.0,0.0
204,50.75,83.4279,76.5889,105.284,99.7483,50.4632,0.050094,1.02352,19.3445,147.8,6.201,0.0,0.0
206,51.25,84.4777,78.0608,99.0378,99.7407,50.0597,0.050457,1.04155,19.3305,147.67,6.27336,0.0,0.0
208,51.75,85.6443,78.7621,101.708,99.7339,51.8154,0.0507511,1.05877,19.3191,147.49,5.95904,0.0,0.0
210,52.25,86.5365,79.7033,105.299,99.7351,47.9604,0.0512088,1.07502,19.3086,147.37,6.66272,0.0,0.0
212,52.75,87.1278,80.9323,102.829,99.7259,49.5855,0.0515795,1.09024,19.2987,147.24,6.35862,0.0,0.0
214,53.25,87.545,80.7623,98.0409,99.7327,47.2593,0.0519684,1.10485,19.2908,147.14,6.79651,0.0,0.0
216,53.75,89.818,82.7497,102.885,99.7215,45.0037,0.0523632,1.11874,19.2782,146.959,7.24054,0.0,0.0
218,54.25,89.4139,83.006,102.537,99.7323,45.3171,0.0527528,1.12998,19.268,146.859,7.17836,0.0,0.0
220,54.75,90.781,84.7169,103.628,99.7255,47.8928,0.0531312,1.14558,19.2532,146.709,6.67467,0.0,0.0
222,55.25,92.1467,85.4601,95.0367,99.7227,47.9487,0.0535077,1.15822,19.2412,146.579,6.66381,0.0,0.0
224,55.75,92.9033,86.2174,105.739,99.7036,46.9004,0.0538757,1.17156,19.2271,146.429,6.86323,0.0,0.0
226,56.25,93.0864,86.4755,110.147,99.7088,46.165,0.0542507,1.18516,19.2157,146.359,7.00751,0.0,0.0
228,56.75,95.292,88.5416,105.997,99.7016,46.4208,0.0546236,1.19866,19.1994,146.199,6.95658,0.0,0.0
230,57.25,95.8656,89.042,103.491,99.712,47.1422,0.0549794,1.21183,19.1863,146.069,6.81719,0.0,0.0
232,57.75,96.1839,90.107,104.689,99.6924,45.6701,0.0553158,1.22551,19.1756,145.888,7.1041,0.0,0.0
234,58.25,97.1296,90.6979,97.1151,99.694,46.5329,0.0554592,1.23931,19.1657,145.758,6.93393,0.0,0.0
236,58.75,98.3428,91.7219,93.9719,99.6872,44.0779,0.0557044,1.25368,19.1489,145.628,7.42657,0.0,0.0
238,59.25,98.8962,92.542,101.926,99.6864,44.6056,0.0559182,1.26818,19.1352,145.498,7.31818,0.0,0.0
240,59.75,100.392,94.2145,101.721,99.682,46.6072,0.0561049,1.28289,19.1169,145.388,6.91832,0.0,0.0
242,60.25,101.164,94.1954,98.2554,99.69,47.2966,0.0562411,1.29747,19.1021,145.218,6.78542,0.0,0.0
244,60.75,102.306,95.5348,105.081,99.6628,45.5274,0.0563378,1.30927,19.0866,145.118,7.12989,0.0,0.0
246,61.25,103.128,96.4136,100.286,99.6788,49.9777,0.0564161,1.31431,19.074,144.978,6.28263,0.0,0.0
248,61.75,103.997,97.4315,101.164,99.6553,49.7436,0.0564684,1.32592,19.0638,144.828,6.32321,0.0,0.0
250,62.25,104.651,98.4458,98.1341,99.6596,48.1504,0.0565107,1.33804,19.0556,144.687,6.61984,0.0,0.0
252,62.75,105.863,99.7645,106.49,99.6481,46.7846,0.0565721,1.34785,19.0489,144.587,6.88064,0.0,0.0
254,63.25,106.413,100.465,101.849,99.6437,44.5619,0.0566218,1.35836,19.0435,144.437,7.3232,0.0,0.0
256,63.75,107.241,101.15,95.2,99.6425,46.4284,0.0567041,1.36687,19.0391,144.307,6.94968,0.0,0.0
258,64.25,108.3,102.003,97.1983,99.6405,45.386,0.0568086,1.37544,19.0364,144.137,7.15616,0.0,0.0
260,64.75,109.236,103.219,98.7332,99.6261,46.111,0.0569294,1.38239,19.0342,144.017,7.01063,0.0,0.0
262,65.25,109.791,103.773,103.112,99.6341,44.1463,0.0570597,1.38872,19.0329,143.887,7.4076,0.0,0.0
264,65.75,110.507,104.675,102.304,99.6157,48.8722,0.0571654,1.39448,19.0318,143.727,6.48042,0.0,0.0
266,66.25,110.873,105.574,97.2906,99.6217,46.8769,0.0573005,1.39915,19.0312,143.626,6.8603,0.0,0.0
268,66.75,112.118,106.143,100.902,99.6149,44.8654,0.05741,1.40477,19.0309,143.516,7.2588,0.0,0.0
270,67.25,112.659,107.074,97.0334,99.6197,47.2016,0.0574875,1.40985,19.0307,143.386,6.79731,0.0,0.0
272,67.75,113.32,107.832,97.9791,99.5934,45.9646,0.0575502,1.41445,19.0305,143.176,7.03656,0.0,0.0
274,68.25,113.8,108.676,105.442,99.6061,46.9211,0.0575526,1.41818,19.0304,143.106,6.85031,0.0,0.0
276,68.75,114.322,109.495,93.1163,99.5886,45.3311,0.0575566,1.4218,19.032,142.916,7.16244,0.0,0.0
278,69.25,115.434,110.024,100.184,99.585,43.5497,0.0575287,1.42473,19.0333,142.816,7.52694,0.0,0.0
280,69.75,116.127,111.216,105.292,99.5738,45.4387,0.057478,1.42722,19.0352,142.696,7.13951,0.0,0.0
282,70.25,116.606,111.517,104.265,99.5818,48.7624,0.0573883,1.42936,19.0368,142.556,6.4978,0.0,0.0
284,70.75,117.008,112.347,96.193,99.5678,46.1078,0.0572718,1.43101,19.0415,142.385,7.00592,0.0,0.0
286,71.25,117.781,113.229,93.501,99.5658,46.5023,0.0571046,1.43168,19.0454,142.305,6.92822,0.0,0.0
288,71.75,118.577,113.851,107.308,99.5586,47.8825,0.0569035,1.43227,19.0538,142.155,6.66139,0.0,0.0
290,72.25,119.104,114.735,104.093,99.5582,47.3444,0.0567406,1.43225,19.0606,142.015,6.76421,0.0,0.0
292,72.75,119.348,115.243,99.3278,99.5455,50.1623,0.0566086,1.43155,19.0661,141.915,6.23689,0.0,0.0
294,73.25,119.96,116.027,96.0343,99.5443,46.7441,0.0561988,1.43036,19.0732,141.755,6.87905,0.0,0.0
296,73.75,120.286,116.495,107.006,99.5371,50.3128,0.0558669,1.4294,19.0789,141.635,6.20888,0.0,0.0
298,74.25,120.987,117.272,104.296,99.5311,49.2307,0.0554579,1.42758,19.0836,141.515,6.40618,0.0,0.0
300,74.75,121.217,117.826,103.51,99.5239,48.9006,0.0550006,1.4261,19.0894,141.385,6.46675,0.0,0.0
302,75.25,122.054,118.245,103.076,99.5167,53.4671,0.0545311,1.42367,19.0941,141.224,5.65364,0.0,0.0
304,75.75,122.356,118.45,96.3365,99.4999,48.5165,0.0540618,1.42059,19.1027,141.094,6.53632,0.0,0.0
306,76.25,122.942,118.877,104.278,99.5071,47.5767,0.0535953,1.41809,19.1097,140.984,6.71498,0.0,0.0
308,76.75,122.35,120.302,98.202,99.5004,47.2286,0.0531398,1.41401,19.125,140.874,6.78119,0.0,0.0
310,77.25,123.75,119.793,104.362,99.484,49.3986,0.0526881,1.40885,19.1374,140.764,6.37088,0.0,0.0
312,77.75,123.823,120.669,110.152,99.4764,48.8114,0.0522478,1.40266,19.157,140.624,6.47901,0.0,0.0
314,78.25,123.965,121.746,101.053,99.4584,44.8123,0.051803,1.39584,19.173,140.484,7.25528,0.0,0.0
316,78.75,123.729,122.294,109.919,99.4564,47.9775,0.0513634,1.3886,19.1898,140.394,6.63401,0.0,0.0
318,79.25,124.066,122.339,103.528,99.45,47.3056,0.0510073,1.3812,19.2035,140.243,6.76176,0.0,0.0
320,79.75,124.197,122.913,97.6402,99.4337,49.6486,0.0504919,1.37372,19.2171,140.163,6.32035,0.0,0.0
322,80.25,124.676,123.1,102.13,99.4321,49.9376,0.0500743,1.36633,19.2304,140.043,6.26737,0.0,0.0
324,80.75,124.97,123.224,103.427,99.4213,52.6142,0.0496617,1.35867,19.2411,139.933,5.79124,0.0,0.0
326,81.25,125.231,123.578,107.225,99.4125,48.1346,0.0492604,1.35096,19.2528,139.783,6.60023,0.0,0.0
328,81.75,125.25,124.243,107.563,99.3874,51.0733,0.0489354,1.34472,19.265,139.703,6.05864,0.0,0.0
330,82.25,125.25,124.586,102.24,99.4025,51.5939,0.0485374,1.33504,19.2749,139.603,5.96775,0.0,0.0
332,82.75,125.448,125.185,102.67,99.3778,53.4248,0.048094,1.3272,19.2904,139.443,5.64813,0.0,0.0
334,83.25,125.569,125.4,107.702,99.3746,52.5481,0.0476202,1.31805,19.3029,139.323,5.79842,0.0,0.0
336,83.75,125.876,125.41,116.527,99.3638,50.0745,0.0471334,1.30811,19.3245,139.273,6.23621,0.0,0.0
338,84.25,125.652,125.911,106.325,99.3434,50.8599,0.0467391,1.30006,19.3419,139.143,6.09273,0.0,0.0
340,84.75,126.183,126.192,112.155,99.3247,48.0004,0.0461544,1.28921,19.3629,139.022,6.61759,0.0,0.0
342,85.25,125.459,126.558,104.511,99.3179,49.9867,0.0456808,1.27655,19.3859,138.932,6.24797,0.0,0.0
344,85.75,126.123,125.922,113.604,99.3075,49.6976,0.0451161,1.26629,19.4112,138.832,6.29981,0.0,0.0
346,86.25,125.579,126.949,111.096,99.2963,51.6502,0.0446588,1.25165,19.4378,138.722,5.9481,0.0,0.0
348,86.75,125.302,127.056,102.344,99.2856,52.055,0.0441501,1.23979,19.4593,138.632,5.87606,0.0,0.0
350,87.25,125.483,127.216,108.267,99.274,52.4071,0.0436135,1.22294,19.4868,138.512,5.81365,0.0,0.0
352,87.75,125.479,126.921,108.807,99.2616,48.9056,0.0430517,1.20929,19.509,138.382,6.44181,0.0,0.0
354,88.25,125.213,127.325,110.787,99.2436,53.319,0.042482,1.19189,19.5398,138.312,5.65388,0.0,0.0
356,88.75,125.194,127.031,115.583,99.2348,47.388,0.0418651,1.1778,19.5647,138.232,6.72621,0.0,0.0
358,89.25,124.67,127.17,112.961,99.2149,51.6695,0.0412255,1.16269,19.5923,138.102,5.93722,0.0,0.0
360,89.75,124.963,126.975,111.394,99.2153,54.4537,0.040546,1.14713,19.6147,138.042,5.45964,0.0,0.0
362,90.25,124.29,127.472,111.899,99.1949,56.4107,0.0398503,1.13452,19.6503,137.961,5.13646,0.0,0.0
364,90.75,124.665,127.199,115.254,99.2033,51.2043,0.0391204,1.1163,19.6792,137.931,6.01845,0.0,0.0
366,91.25,124.249,127.54,119.636,99.1941,58.47,0.0383793,1.09783,19.714,137.791,4.8101,0.0,0.0
368,91.75,123.722,127.746,116.579,99.1861,59.8069,0.0376076,1.07953,19.7421,137.701,4.60363,0.0,0.0
370,92.25,123.296,127.583,115.292,99.1654,54.1714,0.0368283,1.0647,19.775,137.621,5.50237,0.0,0.0
372,92.75,122.817,127.51,119.056,99.1714,56.0676,0.036197,1.04543,19.8017,137.561,5.18982,0.0,0.0
374,93.25,123.201,127.073,117.994,99.1578,56.7935,0.0356857,1.02981,19.8232,137.461,5.07151,0.0,0.0
376,93.75,122.479,127.443,114.022,99.1566,60.3288,0.034743,1.01027,19.846,137.351,4.52185,0.0,0.0
378,94.25,122.044,126.926,119.686,99.1462,56.8768,0.0339795,0.994445,19.8692,137.291,5.05711,0.0,0.0
380,94.75,121.562,127.019,118.776,99.1466,57.3748,0.0331271,0.975351,19.8881,137.231,4.97781,0.0,0.0
382,95.25,121.201,126.646,119.833,99.1482,58.8446,0.0322262,0.959885,19.9107,137.161,4.74776,0.0,0.0
384,95.75,120.753,126.705,119.929,99.1358,57.1101,0.0313092,0.940045,19.9291,137.091,5.01891,0.0,0.0
386,96.25,120.218,126.479,115.481,99.1227,60.8669,0.030398,0.923974,19.9528,137.001,4.43792,0.0,0.0
388,96.75,119.924,126.531,118.939,99.1199,60.3095,0.029486,0.910957,19.9719,136.941,4.5214,0.0,0.0
390,97.25,119.401,125.93,119.436,99.1099,62.6074,0.0285907,0.891505,20.001,136.901,4.18019,0.0,0.0
392,97.75,118.97,125.95,119.593,99.1478,65.9702,0.0276907,0.875749,20.0246,136.81,3.70754,0.0,0.0
394,98.25,118.806,125.13,120.898,99.1494,60.8395,0.0268044,0.859359,20.0538,136.75,4.44449,0.0,0.0
396,98.75,117.841,125.202,118.177,99.1853,64.4252,0.0259203,0.842819,20.0774,136.71,3.92664,0.0,0.0
398,99.25,117.349,125.42,122.209,99.1965,65.1939,0.0250545,0.826556,20.104,136.65,3.81973,0.0,0.0
400,99.75,117.407,124.429,121.071,99.2344,65.75,0.0243532,0.810806,20.1255,136.59,3.74591,0.0,0.0
402,100.25,116.617,124.366,120.284,99.246,66.1882,0.0233613,0.795208,20.1469,136.51,3.68653,0.0,0.0
404,100.75,116.268,124.093,121.23,99.278,65.5478,0.0225579,0.780018,20.1677,136.47,3.77793,0.0,0.0
406,101.25,116.065,123.378,123.459,99.2796,66.2949,0.021598,0.764757,20.1846,136.41,3.67495,0.0,0.0
408,101.75,115.198,123.394,128.101,99.3135,67.4508,0.0208206,0.749735,20.207,136.39,3.52075,0.0,0.0
410,102.25,114.996,123.081,122.294,99.3299,69.2246,0.019876,0.737567,20.2293,136.33,3.28603,0.0,0.0
412,102.75,114.619,122.866,122.118,99.3482,71.8196,0.0191109,0.721152,20.2511,136.26,2.9528,0.0,0.0
414,103.25,114.065,122.543,125.359,99.3582,71.4315,0.018347,0.707856,20.2688,136.21,3.00303,0.0,0.0
416,103.75,113.155,122.653,124.765,99.3894,74.616,0.0175985,0.693602,20.2831,136.18,2.60896,0.0,0.0
418,104.25,113.023,122.112,126.309,99.3918,73.1845,0.0169923,0.678919,20.3052,136.16,2.78547,0.0,0.0
420,104.75,112.18,121.431,126.968,99.4245,74.1801,0.0165012,0.664232,20.3231,136.08,2.6655,0.0,0.0
422,105.25,111.775,121.316,130.031,99.4261,73.5781,0.0156176,0.649821,20.3437,136.05,2.7398,0.0,0.0
424,105.75,111.199,121.243,125.517,99.4536,75.2717,0.0149019,0.635423,20.3604,136.01,2.53523,0.0,0.0
426,106.25,110.761,120.444,123.865,99.4556,75.9611,0.0140782,0.621309,20.3774,135.97,2.45244,0.0,0.0
428,106.75,110.034,119.969,127.193,99.4964,78.1428,0.013411,0.609876,20.3941,135.95,2.19848,0.0,0.0
430,107.25,109.414,119.785,127.093,99.5051,77.9546,0.0131266,0.600616,20.4012,135.91,2.22123,0.0,0.0
432,107.75,109.118,119.431,126.085,99.5399,79.7378,0.0123419,0.585484,20.4178,135.89,2.01858,0.0,0.0
434,108.25,108.416,118.863,129.125,99.5586,83.6752,0.0117063,0.573228,20.4352,135.85,1.58167,0.0,0.0
436,108.75,107.811,118.819,129.924,99.5846,82.6891,0.0109998,0.557847,20.4541,135.83,1.69193,0.0,0.0
438,109.25,107.247,118.134,134.402,99.6058,83.2164,0.0104276,0.545388,20.4738,135.79,1.63602,0.0,0.0
440,109.75,106.978,117.795,127.937,99.6397,85.018,0.00979008,0.532433,20.4931,135.75,1.44419,0.0,0.0
442,110.25,106.509,117.618,131.898,99.6433,85.9294,0.00927372,0.525553,20.512,135.74,1.34748,0.0,0.0
444,110.75,105.464,116.513,129.631,99.6896,88.0396,0.00874248,0.513788,20.5321,135.72,1.13094,0.0,0.0
446,111.25,105.266,115.54,130.205,99.692,90.3609,0.00831218,0.501291,20.5527,135.71,0.894324,0.0,0.0
448,111.75,104.609,116.264,130.305,99.7112,92.8069,0.00787782,0.488496,20.5726,135.669,0.653006,0.0,0.0
450,112.25,104.295,115.376,130.377,99.7251,91.3848,0.007526,0.475505,20.5917,135.649,0.794803,0.0,0.0
452,112.75,103.462,115.055,130.917,99.7515,93.5472,0.00717711,0.462618,20.6101,135.649,0.584383,0.0,0.0
454,113.25,103.047,114.619,129.374,99.7623,94.4419,0.00689451,0.449984,20.6277,135.619,0.498738,0.0,0.0
456,113.75,102.307,114.374,133.76,99.7834,95.6695,0.00666561,0.437776,20.642,135.619,0.383148,0.0,0.0
458,114.25,101.951,113.923,134.516,99.7822,97.0348,0.0064215,0.425893,20.6536,135.589,0.254084,0.0,0.0
460,114.75,101.327,113.597,132.993,99.8078,99.1562,0.00622376,0.414473,20.6673,135.579,0.0596073,0.0,0.0
462,115.25,100.586,113.128,131.01,99.8126,98.9405,0.00604285,0.401651,20.6784,135.569,0.0798616,0.0,0.0
464,115.75,99.9851,112.515,131.559,99.8421,99.2048,0.00587763,0.391265,20.6914,135.559,0.058275,0.0,0.0
466,116.25,99.4008,112.333,131.01,99.8229,99.932,0.0057438,0.380702,20.7019,135.559,-0.00993985,0.0,0.0
468,116.75,99.1584,111.804,132.591,99.8569,100.302,0.0056354,0.37021,20.7149,135.549,-0.0404512,0.0,0.0
470,117.25,98.6513,111.081,133.309,99.8501,101.749,0.00556236,0.361712,20.7255,135.539,-0.171482,0.0,0.0
472,117.75,97.6757,110.826,132.81,99.8637,101.768,0.00551647,0.352309,20.7402,135.529,-0.171896,0.0,0.0
474,118.25,97.2525,110.105,133.22,99.8645,101.576,0.0055075,0.342426,20.7521,135.529,-0.154612,0.0,0.0
476,118.75,96.2922,109.261,136.166,99.8772,102.509,0.00552561,0.33442,20.7652,135.499,-0.236698,0.0,0.0
478,119.25,96.5652,109.382,136.767,99.8589,102.921,0.00557054,0.324309,20.7759,135.499,-0.274836,0.0,0.0
480,119.75,95.7565,109.232,135.876,99.8828,103.431,0.00563417,0.316118,20.7871,135.509,-0.317693,0.0,0.0
482,120.25,95.158,108.321,138.966,99.8661,104.084,0.0056857,0.306817,20.7963,135.489,-0.376449,0.0,0.0
484,120.75,94.9781,108.261,138.073,99.8772,104.576,0.00578,0.299283,20.8036,135.499,-0.418322,0.0,0.0
486,121.25,94.1528,107.502,137.324,99.8617,104.535,0.00590368,0.290756,20.8118,135.469,-0.416253,0.0,0.0
488,121.75,93.1343,106.669,135.711,99.8681,104.998,0.00605114,0.28385,20.8184,135.479,-0.455881,0.0,0.0
490,122.25,93.1658,106.705,132.225,99.8569,105.148,0.00621313,0.276069,20.8251,135.479,-0.469847,0.0,0.0
492,122.75,92.016,105.973,135.093,99.8605,105.076,0.00640733,0.269767,20.8305,135.469,-0.463282,0.0,0.0
494,123.25,91.7365,105.227,135.281,99.8429,105.057,0.00662132,0.262245,20.8366,135.489,-0.463284,0.0,0.0
496,123.75,91.3118,105.249,134.445,99.8289,105.521,0.00685102,0.256152,20.8416,135.479,-0.504646,0.0,0.0
498,124.25,90.9029,104.765,136.448,99.8277,104.669,0.00708782,0.250115,20.8474,135.479,-0.430942,0.0,0.0
500,124.75,90.6693,104.352,143.767,99.8154,105.599,0.00727962,0.244235,20.8521,135.449,-0.5126,0.0,0.0
502,125.25,89.665,103.849,136.38,99.8158,105.704,0.00755016,0.239472,20.8565,135.449,-0.521639,0.0,0.0
504,125.75,88.4197,102.694,136.98,99.7866,105.348,0.0077693,0.233825,20.8608,135.449,-0.49354,0.0,0.0
506,126.25,87.3546,101.635,133.994,99.7762,105.518,0.00799729,0.229252,20.8642,135.439,-0.509141,0.0,0.0
508,126.75,87.5181,101.27,140.097,99.767,105.245,0.0082274,0.223981,20.867,135.449,-0.486452,0.0,0.0
510,127.25,86.5795,100.385,133.772,99.7507,104.712,0.00841379,0.219712,20.87,135.449,-0.441688,0.0,0.0
512,127.75,86.1129,100.142,135.815,99.7547,105.274,0.00856477,0.215028,20.8724,135.439,-0.490034,0.0,0.0
514,128.25,85.7035,99.6412,136.528,99.7203,105.233,0.00872059,0.211234,20.875,135.419,-0.489702,0.0,0.0
516,128.75,85.0078,99.2538,136.755,99.7008,105.444,0.00887699,0.207374,20.8776,135.429,-0.509693,0.0,0.0
518,129.25,84.6687,99.2918,141.97,99.6792,105.122,0.00899956,0.203541,20.8797,135.409,-0.483792,0.0,0.0
520,129.75,84.1247,98.1496,136.979,99.6688,105.353,0.00909514,0.200436,20.8819,135.409,-0.504755,0.0,0.0
522,130.25,84.0364,97.7049,135.194,99.6561,105.311,0.00916298,0.19792,20.8836,135.379,-0.502304,0.0,0.0
524,130.75,83.6383,97.6856,135.444,99.6373,105.502,0.00920931,0.194218,20.8859,135.389,-0.520463,0.0,0.0
526,131.25,83.0934,97.0781,135.226,99.6093,104.842,0.00923657,0.19122,20.8878,135.379,-0.465894,0.0,0.0
528,131.75,82.8462,96.6435,137.562,99.593,104.927,0.00924941,0.188209,20.8902,135.389,-0.474775,0.0,0.0
530,132.25,82.4193,96.3416,137.848,99.583,105.355,0.0092516,0.185247,20.8921,135.429,-0.512791,0.0,0.0
532,132.75,82.1258,96.2876,135.896,99.5491,105.179,0.00924599,0.182393,20.8936,135.409,-0.500672,0.0,0.0
534,133.25,81.1462,96.3127,139.33,99.5295,105.074,0.00923803,0.179672,20.8949,135.369,-0.493338,0.0,0.0
536,133.75,80.9218,95.0959,138.821,99.4956,104.933,0.0092285,0.177117,20.8964,135.369,-0.484188,0.0,0.0
538,134.25,81.2842,94.5616,136.551,99.4844,104.874,0.00922079,0.17473,20.8976,135.369,-0.480132,0.0,0.0
540,134.75,80.5988,94.4846,133.607,99.4624,104.519,0.00920804,0.172469,20.8987,135.399,-0.451259,0.0,0.0
542,135.25,80.2949,94.0039,141.578,99.4373,104.349,0.00919772,0.170343,20.8999,135.399,-0.438767,0.0,0.0
544,135.75,79.5486,93.7533,137.672,99.4245,104.312,0.00918394,0.168317,20.9009,135.349,-0.436716,0.0,0.0
546,136.25,79.3103,93.6581,136.078,99.4464,105.356,0.0091679,0.166402,20.9016,135.379,-0.525316,0.0,0.0
548,136.75,79.3892,93.1251,137.288,99.4285,104.787,0.00915491,0.164851,20.9023,135.359,-0.477702,0.0,0.0
550,137.25,78.6528,93.027,138.233,99.4572,105.511,0.00911843,0.16293,20.9031,135.349,-0.537739,0.0,0.0
552,137.75,78.5701,92.1747,135.644,99.45,105.057,0.00908888,0.161374,20.904,135.329,-0.499124,0.0,0.0
554,138.25,78.1069,92.088,141.087,99.4752,105.332,0.00904159,0.159795,20.905,135.299,-0.520624,0.0,0.0
556,138.75,77.8783,91.5844,136.513,99.4656,104.775,0.00900329,0.15823,20.906,135.289,-0.473287,0.0,0.0
558,139.25,77.0972,91.1593,136.55,99.4888,104.957,0.00895282,0.156962,20.9069,135.289,-0.486878,0.0,0.0
560,139.75,77.5759,91.132,136.146,99.4908,105.469,0.00891193,0.15526,20.9075,135.289,-0.531019,0.0,0.0
562,140.25,76.5584,90.6136,137.24,99.5023,104.919,0.00886456,0.153881,20.9081,135.279,-0.482395,0.0,0.0
564,140.75,76.2345,89.688,137.421,99.5143,105.238,0.00882619,0.152382,20.9085,135.289,-0.508872,0.0,0.0
566,141.25,76.4992,90.006,140.165,99.5295,104.847,0.0087917,0.151167,20.9089,135.269,-0.473622,0.0,0.0
568,141.75,75.974,89.6484,136.279,99.5263,105.006,0.00876069,0.149831,20.9092,135.259,-0.48774,0.0,0.0
570,142.25,75.3968,89.5735,140.336,99.5479,105.007,0.00873353,0.148749,20.9094,135.239,-0.485847,0.0,0.0
572,142.75,75.7567,88.7162,139.375,99.5379,104.263,0.00870969,0.147477,20.9096,135.239,-0.422021,0.0,0.0
574,143.25,74.4557,88.5996,140.287,99.5718,104.889,0.00869038,0.146446,20.9097,135.239,-0.473388,0.0,0.0
576,143.75,74.8316,88.4635,139.732,99.5538,104.467,0.00867474,0.145356,20.9103,135.239,-0.438388,0.0,0.0
578,144.25,74.3756,88.1136,137.668,99.585,105.134,0.00866139,0.144245,20.9108,135.259,-0.49349,0.0,0.0
580,144.75,73.9963,87.4309,135.567,99.5838,105.034,0.00864996,0.143345,20.9116,135.239,-0.484903,0.0,0.0
582,145.25,74.1651,87.3247,136.209,99.599,105.024,0.00863729,0.142264,20.9122,135.209,-0.48262,0.0,0.0
584,145.75,73.5893,86.8261,140.625,99.6169,104.937,0.00862396,0.141389,20.9127,135.189,-0.473445,0.0,0.0
586,146.25,73.9471,86.644,135.608,99.6413,105.372,0.00861317,0.140388,20.9132,135.169,-0.508865,0.0,0.0
588,146.75,73.6893,86.4885,135.364,99.6109,105.101,0.00860433,0.139577,20.9135,135.139,-0.488234,0.0,0.0
590,147.25,72.8952,86.1207,138.571,99.6345,104.969,0.00859717,0.138643,20.9138,135.139,-0.474651,0.0,0.0
592,147.75,73.0637,85.976,136.658,99.6269,104.75,0.00859137,0.137755,20.914,135.139,-0.456352,0.0,0.0
594,148.25,71.9975,85.6823,134.89,99.6413,105.276,0.0085789,0.136919,20.9141,135.119,-0.500579,0.0,0.0
596,148.75,72.3995,85.2443,135.074,99.6337,104.725,0.0085688,0.136141,20.9141,135.119,-0.453501,0.0,0.0
598,149.25,72.7991,84.5826,136.808,99.6541,105.231,0.00855653,0.135422,20.9141,135.149,-0.495557,0.0,0.0
600,149.75,71.9041,85.0274,136.392,99.6549,105.31,0.00854291,0.134839,20.9141,135.159,-0.502257,0.0,0.0
602,150.25,72.3318,84.3039,137.405,99.6616,104.172,0.00853711,0.13419,20.9141,135.189,-0.40281,0.0,0.0
604,150.75,71.5128,84.1862,137.256,99.6481,105.353,0.00852514,0.133505,20.9141,135.169,-0.50665,0.0,0.0
606,151.25,71.2317,84.2075,136.305,99.6756,104.856,0.0085136,0.132949,20.9146,135.159,-0.461053,0.0,0.0
608,151.75,70.6456,83.416,136.125,99.6684,105.206,0.00850425,0.132346,20.9149,135.129,-0.492063,0.0,0.0
610,152.25,71.2348,83.5749,137.525,99.6752,105.04,0.00849151,0.13172,20.9152,135.119,-0.47706,0.0,0.0
612,152.75,70.9792,82.8655,140.855,99.6744,104.566,0.00847914,0.131213,20.9154,135.129,-0.435998,0.0,0.0
614,153.25,70.6674,83.0516,134.152,99.6852,105.019,0.00846728,0.130996,20.9156,135.069,-0.474353,0.0,0.0
616,153.75,70.781,82.9399,136.789,99.6724,104.253,0.00845699,0.130335,20.9158,135.089,-0.408864,0.0,0.0
618,154.25,70.2978,82.6797,135.932,99.69,104.821,0.00844805,0.1298,20.9164,135.089,-0.456691,0.0,0.0
620,154.75,70.4149,82.2086,140.948,99.6844,104.977,0.0084408,0.129192,20.9168,135.079,-0.470797,0.0,0.0
622,155.25,70.1308,82.1553,138.171,99.6932,104.638,0.00843698,0.128699,20.9172,135.039,-0.440553,0.0,0.0
624,155.75,69.7252,81.5976,137.121,99.67,105.189,0.00843572,0.128067,20.9175,135.049,-0.490476,0.0,0.0
626,156.25,69.6655,81.5808,139.546,99.7032,105.541,0.0084347,0.127456,20.9177,135.059,-0.517865,0.0,0.0
628,156.75,69.608,81.3754,135.703,99.6908,105.113,0.00843426,0.126872,20.9178,135.039,-0.481956,0.0,0.0
630,157.25,69.2369,80.6608,135.755,99.7108,104.885,0.00843352,0.126399,20.918,135.029,-0.460386,0.0,0.0
632,157.75,69.1066,80.7018,135.38,99.7096,104.957,0.00843365,0.125826,20.9181,135.029,-0.466705,0.0,0.0
634,158.25,69.1121,80.8602,139.507,99.7371,104.866,0.00843441,0.125363,20.9183,134.989,-0.456379,0.0,0.0
636,158.75,68.3092,80.6129,141.977,99.7227,104.408,0.00843503,0.124911,20.9184,134.989,-0.417862,0.0,0.0
638,159.25,68.8147,79.912,136.862,99.7239,105.289,0.00844848,0.124476,20.9185,134.979,-0.494162,0.0,0.0
640,159.75,68.2132,79.9545,137.727,99.7235,105.421,0.00846278,0.124291,20.9187,134.979,-0.505595,0.0,0.0
642,160.25,68.7192,79.5966,136.454,99.7339,105.279,0.00847743,0.1238,20.9189,135.009,-0.492434,0.0,0.0
644,160.75,68.0829,79.6871,141.547,99.7275,105.346,0.00848725,0.123402,20.919,134.959,-0.498814,0.0,0.0
646,161.25,67.919,79.0229,136.841,99.7503,104.625,0.00849336,0.123012,20.9191,134.929,-0.434168,0.0,0.0
648,161.75,67.9193,78.835,137.134,99.7359,104.625,0.00849832,0.122635,20.9192,134.949,-0.435519,0.0,0.0
650,162.25,67.8925,78.9201,138.679,99.7579,105.141,0.00849824,0.122329,20.9193,134.969,-0.478251,0.0,0.0
652,162.75,67.4611,78.8246,135.248,99.7435,105.327,0.0084945,0.12198,20.9198,134.999,-0.495646,0.0,0.0
654,163.25,67.9274,78.5015,137.865,99.7603,105.617,0.00848397,0.121698,20.9202,134.979,-0.519176,0.0,0.0
656,163.75,66.9202,77.9944,135.11,99.7543,104.934,0.0084687,0.121338,20.9205,134.979,-0.460711,0.0,0.0
658,164.25,67.2217,78.0312,138.878,99.7555,105.695,0.00845633,0.121047,20.9208,134.989,-0.526361,0.0,0.0
660,164.75,66.8497,77.9247,137.658,99.7543,104.848,0.0084282,0.120674,20.921,134.959,-0.453171,0.0,0.0
662,165.25,66.5596,77.5834,139.438,99.7555,105.442,0.00839929,0.120248,20.9212,134.959,-0.504508,0.0,0.0
664,165.75,66.7886,77.3891,133.239,99.7571,104.619,0.00837035,0.119904,20.9213,134.949,-0.433041,0.0,0.0
666,166.25,66.7935,77.3261,137.269,99.7535,104.807,0.00834419,0.119465,20.9214,134.959,-0.449765,0.0,0.0
668,166.75,66.5488,77.1252,137.803,99.7639,104.918,0.00832056,0.11911,20.9217,134.979,-0.458392,0.0,0.0
670,167.25,66.5421,76.92,137.273,99.7591,105.212,0.00830141,0.118692,20.9222,134.959,-0.484337,0.0,0.0
672,167.75,65.9578,76.3132,136.905,99.767,104.934,0.00828978,0.118353,20.9226,134.929,-0.459546,0.0,0.0
674,168.25,66.3207,76.3353,139.962,99.775,105.452,0.00828036,0.117934,20.9229,134.939,-0.503578,0.0,0.0
676,168.75,66.1932,76.3762,137.949,99.7631,104.724,0.00827273,0.117595,20.9232,134.909,-0.441655,0.0,0.0
678,169.25,66.2708,76.0767,136.476,99.7722,105.267,0.00826655,0.117204,20.9234,134.889,-0.487847,0.0,0.0
680,169.75,65.4452,75.8801,138.057,99.7674,104.563,0.00827059,0.116888,20.9235,134.859,-0.427274,0.0,0.0
682,170.25,65.3157,75.4673,133.696,99.7607,105.098,0.00827387,0.116574,20.9237,134.849,-0.474333,0.0,0.0
684,170.75,64.6217,75.3897,138.461,99.7587,104.98,0.00825583,0.11632,20.9238,134.799,-0.464294,0.0,0.0
686,171.25,65.5611,74.9968,136.332,99.7619,104.594,0.00824123,0.116113,20.9238,134.849,-0.430487,0.0,0.0
688,171.75,64.9751,75.0979,138.072,99.7702,105.428,0.00819321,0.11586,20.9239,134.919,-0.501994,0.0,0.0
690,172.25,64.9367,74.9817,139.199,99.7555,104.617,0.00813734,0.115654,20.924,134.909,-0.433068,0.0,0.0
692,172.75,65.4598,74.6974,136.814,99.775,105.314,0.00807678,0.115465,20.924,134.929,-0.49168,0.0,0.0
694,173.25,65.1647,74.953,140.025,99.7487,103.958,0.00802774,0.115291,20.9241,134.929,-0.376121,0.0,0.0
696,173.75,64.8915,74.6594,138.617,99.7702,104.983,0.0079595,0.11515,20.9241,134.899,-0.463471,0.0,0.0
698,174.25,64.6287,73.8432,136.031,99.7503,105.236,0.00787858,0.114935,20.9235,134.889,-0.487203,0.0,0.0
700,174.75,64.5135,74.1115,139.584,99.7535,104.828,0.00779879,0.11467,20.9229,134.869,-0.451564,0.0,0.0
702,175.25,64.4561,73.7538,140.412,99.7443,104.924,0.00772134,0.114372,20.923,134.869,-0.460723,0.0,0.0
704,175.75,63.9901,73.6606,139.336,99.7339,104.658,0.00765861,0.114132,20.923,134.859,-0.43852,0.0,0.0
706,176.25,63.8247,73.4149,135.698,99.7395,105.129,0.00760238,0.113937,20.923,134.839,-0.478953,0.0,0.0
708,176.75,64.0935,73.2916,136.566,99.7371,105.093,0.00755195,0.11349,20.9235,134.789,-0.476014,0.0,0.0
710,177.25,63.7705,73.0983,135.59,99.7295,105.804,0.00751788,0.113128,20.9238,134.799,-0.538069,0.0,0.0
712,177.75,63.9076,73.1113,138.743,99.7239,105.145,0.00749639,0.112691,20.9245,134.749,-0.481699,0.0,0.0
714,178.25,63.5522,72.8907,135.68,99.7259,104.839,0.00747897,0.112336,20.9251,134.659,-0.455054,0.0,0.0
716,178.75,64.2249,72.5318,136.252,99.7203,105.071,0.00746894,0.111948,20.9256,134.649,-0.475633,0.0,0.0
718,179.25,63.7057,72.6481,135.093,99.7127,104.932,0.00746447,0.111634,20.926,134.659,-0.464266,0.0,0.0
720,179.75,63.246,72.5112,139.072,99.7175,104.56,0.0074622,0.11138,20.9263,134.679,-0.431553,0.0,0.0
722,180.25,63.0755,72.0867,137.761,99.6976,105.186,0.00746159,0.111044,20.9266,134.729,-0.487689,0.0,0.0
724,180.75,62.5351,72.296,137.311,99.702,104.991,0.00746991,0.110771,20.9268,134.709,-0.470403,0.0,0.0
726,181.25,63.7412,72.4034,137.358,99.6884,105.21,0.00748458,0.110537,20.927,134.629,-0.490631,0.0,0.0
728,181.75,63.0445,71.7977,136.219,99.7008,104.806,0.00749647,0.110346,20.9271,134.569,-0.454418,0.0,0.0
730,182.25,63.3827,71.9289,137.679,99.6804,105.032,0.00753059,0.110185,20.9272,134.619,-0.475883,0.0,0.0
732,182.75,63.1474,71.3689,139.356,99.6892,104.533,0.00755823,0.110047,20.9273,134.619,-0.431788,0.0,0.0
734,183.25,62.5893,70.9998,140.025,99.6624,105.575,0.00758198,0.109935,20.9274,134.649,-0.524455,0.0,0.0
736,183.75,62.9576,71.0561,137.656,99.6672,105.407,0.00760243,0.10983,20.9274,134.689,-0.509529,0.0,0.0
738,184.25,62.9287,70.8975,141.061,99.6572,105.033,0.00760746,0.109746,20.9275,134.699,-0.478115,0.0,0.0
740,184.75,63.0085,71.0035,134.993,99.6636,105.346,0.00760116,0.109576,20.9275,134.719,-0.504645,0.0,0.0
742,185.25,62.5746,70.82,140.682,99.6373,105.204,0.00759605,0.109438,20.9275,134.739,-0.494752,0.0,0.0
744,185.75,62.738,70.5456,141.503,99.6473,105.102,0.00756614,0.109274,20.9276,134.749,-0.484955,0.0,0.0
746,186.25,62.5158,70.5816,137.968,99.6213,105.242,0.00753107,0.109093,20.9276,134.719,-0.499442,0.0,0.0
748,186.75,62.879,70.0331,139.797,99.6249,104.997,0.0074929,0.108946,20.9276,134.679,-0.477907,0.0,0.0
750,187.25,62.7974,70.2459,137.94,99.6077,105.138,0.00745047,0.108712,20.9276,134.709,-0.491684,0.0,0.0
752,187.75,62.5341,70.4004,137.967,99.6081,105.203,0.00740574,0.108523,20.9276,134.719,-0.497336,0.0,0.0
754,188.25,62.4928,69.8706,138.039,99.5966,105.43,0.0073695,0.10824,20.9276,134.689,-0.518005,0.0,0.0
756,188.75,62.1476,69.9035,139.978,99.5946,105.432,0.00730405,0.10801,20.9281,134.679,-0.518303,0.0,0.0
758,189.25,62.7102,69.7649,135.692,99.591,104.411,0.00725104,0.107753,20.9284,134.629,-0.430089,0.0,0.0
760,189.75,62.1108,69.3134,137.683,99.583,104.191,0.00720809,0.107544,20.929,134.639,-0.411647,0.0,0.0
762,190.25,62.1017,69.5466,140.74,99.5638,104.852,0.00715032,0.107216,20.9295,134.629,-0.470952,0.0,0.0
764,190.75,61.9524,69.6225,138.44,99.567,104.082,0.00708283,0.106875,20.9298,134.619,-0.403543,0.0,0.0
766,191.25,61.8507,69.3516,138.163,99.5554,104.041,0.00701127,0.106531,20.9301,134.649,-0.401097,0.0,0.0
768,191.75,61.5847,68.9926,139.501,99.563,104.97,0.00693811,0.106252,20.9304,134.639,-0.481299,0.0,0.0
770,192.25,61.9738,69.3353,138.827,99.5455,104.159,0.00686265,0.106026,20.9306,134.609,-0.412283,0.0,0.0
772,192.75,61.9782,69.0235,136.397,99.5443,105.186,0.00678695,0.105741,20.9307,134.609,-0.501655,0.0,0.0
774,193.25,61.8637,69.1002,136.918,99.5335,105.096,0.00670945,0.10551,20.9309,134.619,-0.494885,0.0,0.0
776,193.75,61.6685,68.6623,138.478,99.5431,104.812,0.0066321,0.105255,20.931,134.589,-0.469332,0.0,0.0
778,194.25,61.1083,68.4226,138.876,99.5191,104.615,0.00656203,0.104987,20.9311,134.559,-0.45442,0.0,0.0
780,194.75,61.6089,68.5363,138.512,99.5367,105.211,0.0064986,0.104684,20.9311,134.559,-0.504569,0.0,0.0
782,195.25,61.6153,68.1731,137.642,99.5235,104.621,0.00644723,0.104438,20.9312,134.548,-0.454528,0.0,0.0
784,195.75,61.3019,68.1895,137.74,99.5203,104.685,0.0064191,0.104216,20.9312,134.528,-0.460459,0.0,0.0
786,196.25,61.4395,68.1845,138.47,99.5135,104.54,0.00640845,0.104016,20.9313,134.559,-0.448467,0.0,0.0
788,196.75,61.3535,68.1301,144.675,99.5171,104.772,0.00639982,0.103883,20.9318,134.569,-0.468264,0.0,0.0
790,197.25,60.9065,67.9723,134.303,99.5083,104.588,0.00641462,0.103775,20.9323,134.559,-0.453095,0.0,0.0
792,197.75,61.1954,68.2374,138.507,99.5059,104.854,0.00642661,0.103745,20.9327,134.569,-0.476402,0.0,0.0
794,198.25,60.9976,67.3112,140.518,99.5075,105.001,0.00642735,0.103721,20.933,134.559,-0.489026,0.0,0.0
796,198.75,61.1403,68.1811,138.035,99.5004,105.015,0.00642794,0.103701,20.9332,134.559,-0.490854,0.0,0.0
798,199.25,60.9355,67.8262,137.034,99.5007,104.966,0.00641566,0.103617,20.9334,134.548,-0.486603,0.0,0.0
800,199.75,60.676,67.756,137.278,99.5075,104.34,0.00639422,0.103488,20.9336,134.548,-0.431553,0.0,0.0
802,200.25,60.6825,67.7629,138.793,99.492,104.116,0.00637685,0.103383,20.9338,134.528,-0.413437,0.0,0.0
804,200.75,60.9328,67.2664,140.376,99.4987,104.665,0.00632949,0.103227,20.9341,134.508,-0.460669,0.0,0.0
806,201.25,60.7039,67.3344,139.825,99.4856,104.488,0.00629113,0.1031,20.9343,134.538,-0.446474,0.0,0.0
808,201.75,60.784,67.1403,138.025,99.4828,105.16,0.0062383,0.102951,20.9344,134.538,-0.505018,0.0,0.0
810,202.25,61.0102,66.8591,136.285,99.482,104.761,0.00619551,0.102791,20.9346,134.579,-0.470499,0.0,0.0
812,202.75,60.5523,66.9213,141.401,99.478,104.633,0.00614874,0.102593,20.9347,134.559,-0.459788,0.0,0.0
814,203.25,60.6186,66.9532,138.936,99.4832,104.857,0.00609995,0.102372,20.9347,134.569,-0.478757,0.0,0.0
816,203.75,60.8292,66.3978,136.115,99.4852,104.685,0.00606043,0.102193,20.9352,134.528,-0.463672,0.0,0.0
818,204.25,60.7739,66.7663,138.773,99.4644,104.822,0.00598498,0.101991,20.9357,134.508,-0.477424,0.0,0.0
820,204.75,60.3811,66.2451,138.936,99.4708,105.043,0.00592386,0.101827,20.936,134.488,-0.495976,0.0,0.0
822,205.25,60.3268,66.3583,137.799,99.4528,104.887,0.00585018,0.101623,20.9363,134.498,-0.484151,0.0,0.0
824,205.75,60.4252,66.403,138.823,99.4588,104.499,0.00576873,0.101457,20.9365,134.488,-0.449863,0.0,0.0
826,206.25,60.4286,66.3573,140.839,99.4716,104.695,0.00566196,0.101262,20.9366,134.498,-0.465774,0.0,0.0
828,206.75,60.6249,66.5926,139.304,99.4293,104.506,0.00557548,0.10105,20.9368,134.498,-0.453154,0.0,0.0
830,207.25,60.1111,66.2796,139.811,99.4492,104.557,0.00546596,0.100878,20.9369,134.468,-0.455757,0.0,0.0
832,207.75,60.327,65.8342,136.287,99.4313,104.681,0.00537724,0.100682,20.9372,134.488,-0.468252,0.0,0.0
834,208.25,59.9504,66.1689,137.074,99.448,105.296,0.00529065,0.100523,20.9377,134.458,-0.520035,0.0,0.0
836,208.75,60.0404,65.8067,137.424,99.4213,104.729,0.00520725,0.100279,20.9381,134.478,-0.473313,0.0,0.0
838,209.25,59.5456,65.923,139.568,99.4269,104.737,0.0051397,0.100081,20.9384,134.478,-0.473467,0.0,0.0
840,209.75,59.9461,65.6314,137.839,99.4093,104.386,0.00506972,0.0998354,20.9386,134.478,-0.444584,0.0,0.0
842,210.25,59.4778,65.5858,136.84,99.4205,104.537,0.00501304,0.0996362,20.9388,134.438,-0.456703,0.0,0.0
844,210.75,59.6665,65.0803,137.717,99.3989,104.538,0.00496713,0.0994174,20.9394,134.418,-0.458755,0.0,0.0
846,211.25,59.2072,65.4971,136.936,99.4041,104.999,0.00490707,0.0992401,20.9399,134.428,-0.498332,0.0,0.0
848,211.75,59.945,65.473,135.283,99.3937,104.336,0.00485173,0.0990815,20.9403,134.448,-0.441573,0.0,0.0
850,212.25,59.4061,64.9869,137.49,99.3925,104.496,0.00482497,0.0989394,20.9405,134.448,-0.455654,0.0,0.0
852,212.75,59.5548,64.7393,139.915,99.379,104.746,0.00475904,0.0988243,20.9409,134.428,-0.478675,0.0,0.0
854,213.25,59.9151,65.1648,147.306,99.3918,104.801,0.00474088,0.0986307,20.941,134.428,-0.482237,0.0,0.0
856,213.75,59.5879,64.7293,137.184,99.3802,104.608,0.00470983,0.0984739,20.9412,134.408,-0.466586,0.0,0.0
858,214.25,59.7978,64.7975,140.592,99.3834,104.096,0.0046923,0.0982638,20.9414,134.408,-0.421644,0.0,0.0
860,214.75,59.8292,64.7103,139.229,99.3913,104.945,0.0046781,0.098019,20.9415,134.388,-0.494778,0.0,0.0
862,215.25,59.6329,64.3916,135.591,99.4141,104.038,0.00467549,0.0979146,20.9416,134.398,-0.41371,0.0,0.0
864,215.75,59.3154,64.4504,137.595,99.4165,105.197,0.00467338,0.0974965,20.9417,134.378,-0.514277,0.0,0.0
866,216.25,59.4199,64.3425,141,99.4552,104.426,0.00467548,0.0973841,20.9417,134.368,-0.443797,0.0,0.0
868,216.75,59.1445,64.3366,140.026,99.4297,104.957,0.00467718,0.0971487,20.9418,134.368,-0.492324,0.0,0.0
870,217.25,59.2853,64.5347,138.376,99.4624,104.943,0.00467856,0.0969581,20.9418,134.368,-0.488156,0.0,0.0
872,217.75,59.3152,64.6371,138.758,99.468,104.991,0.00467205,0.0968467,20.9419,134.358,-0.491783,0.0,0.0
874,218.25,59.2461,64.4185,139.041,99.4736,105.146,0.00466678,0.0967565,20.9419,134.358,-0.504689,0.0,0.0
876,218.75,59.1945,64.1758,138.14,99.4788,105.034,0.00466251,0.0966834,20.9419,134.338,-0.494543,0.0,0.0
878,219.25,59.2705,64.3375,139.891,99.492,104.576,0.00461715,0.0966242,20.9419,134.388,-0.453495,0.0,0.0
880,219.75,59.3057,64.0449,135.323,99.4968,104.303,0.00458041,0.0965235,20.942,134.388,-0.429318,0.0,0.0
882,220.25,58.9542,64.2316,139.763,99.5211,105.341,0.00452728,0.0963944,20.9422,134.388,-0.517164,0.0,0.0
884,220.75,59.1157,63.5131,137.763,99.5159,104.539,0.00446322,0.0961918,20.9423,134.338,-0.448091,0.0,0.0
886,221.25,59.1558,63.8615,139.01,99.5427,105.028,0.00441133,0.0959395,20.9424,134.318,-0.488116,0.0,0.0
888,221.75,59.2722,63.9864,138.34,99.5391,105.381,0.00432242,0.0957351,20.9425,134.328,-0.519022,0.0,0.0
890,222.25,58.6634,63.6735,137.189,99.5618,105.016,0.00425041,0.0955696,20.943,134.318,-0.48535,0.0,0.0
892,222.75,58.7543,63.2507,136.393,99.5459,104.78,0.00415664,0.0952637,20.9434,134.358,-0.466378,0.0,0.0
894,223.25,58.4847,63.5461,136.399,99.5766,104.745,0.00408069,0.095016,20.9437,134.308,-0.460479,0.0,0.0
896,223.75,58.8653,63.747,138.795,99.5906,104.841,0.0040002,0.0948077,20.944,134.308,-0.467531,0.0,0.0
898,224.25,59.1115,63.0444,141.262,99.5994,104.326,0.00393501,0.0946323,20.9442,134.328,-0.421942,0.0,0.0
900,224.75,59.2843,63.2449,138.894,99.5918,104.726,0.00387688,0.094445,20.9444,134.338,-0.45741,0.0,0.0
902,225.25,59.1142,63.1927,140.887,99.6145,104.801,0.003825,0.0942526,20.9445,134.318,-0.461902,0.0,0.0
904,225.75,57.9066,63.0341,139.146,99.6109,104.596,0.00378232,0.0940742,20.9446,134.288,-0.444382,0.0,0.0
906,226.25,58.9456,62.4456,138.71,99.6393,105.096,0.00374714,0.0939093,20.9447,134.278,-0.485216,0.0,0.0
908,226.75,58.7548,63.4755,139.104,99.6261,105.051,0.00371998,0.0937758,20.9448,134.238,-0.48252,0.0,0.0
910,227.25,58.7389,62.5394,135.666,99.6513,105.455,0.00369918,0.0935674,20.9449,134.258,-0.515184,0.0,0.0
912,227.75,59.129,63.1999,137.042,99.6401,104.761,0.00368433,0.0933987,20.9453,134.228,-0.456047,0.0,0.0
914,228.25,58.2041,62.6389,140.28,99.6672,104.794,0.00367409,0.0932018,20.9457,134.218,-0.456463,0.0,0.0
916,228.75,58.5191,62.9038,136.763,99.6553,105.176,0.0036658,0.0929881,20.9461,134.208,-0.490695,0.0,0.0
918,229.25,58.1321,62.8627,138.939,99.6836,105.397,0.00365909,0.0927548,20.9463,134.158,-0.507179,0.0,0.0
920,229.75,58.3604,63.0499,136.953,99.6688,104.728,0.00365365,0.0925116,20.9465,134.198,-0.450567,0.0,0.0
922,230.25,58.2309,62.9358,140.681,99.6984,105.017,0.00364292,0.0923147,20.9467,134.188,-0.472995,0.0,0.0
924,230.75,58.6074,62.7631,137.692,99.706,105.35,0.00363423,0.0921265,20.9468,134.188,-0.501054,0.0,0.0
926,231.25,58.319,62.8529,139.01,99.7048,104.751,0.0036272,0.0919516,20.9469,134.198,-0.449321,0.0,0.0
928,231.75,58.2806,62.6023,140.005,99.696,104.237,0.0036062,0.0917895,20.947,134.228,-0.405377,0.0,0.0
930,232.25,58.366,62.2524,138.307,99.7068,104.682,0.00357543,0.0916056,20.9473,134.208,-0.443152,0.0,0.0
932,232.75,58.267,62.4181,138.969,99.7092,104.6,0.00351895,0.0914093,20.9478,134.228,-0.435767,0.0,0.0
934,233.25,58.4197,62.395,138.108,99.7451,104.988,0.00349487,0.0912502,20.948,134.228,-0.466157,0.0,0.0
936,233.75,58.077,62.104,136.418,99.7231,104.544,0.00344307,0.0910687,20.9483,134.238,-0.429632,0.0,0.0
938,234.25,57.9672,62.2219,137.95,99.7303,104.817,0.00339155,0.0908743,20.9486,134.238,-0.452699,0.0,0.0
940,234.75,57.6844,62.5132,140.274,99.7367,105.059,,0.0907169,,134.198,-0.473125,0.0,0.0
942,235.25,58.0687,62.1743,137.311,99.7379,104.857,,0.0904608,,134.178,-0.455446,0.0,0.0
944,235.75,58.1385,62.2292,136.806,99.7427,104.837,,0.0902533,,134.188,-0.453329,0.0,0.0
946,236.25,58.0366,62.0251,137.018,99.7551,105.27,,0.0900972,,134.198,-0.489686,0.0,0.0
948,236.75,57.9946,61.5614,140.806,99.7515,104.816,,0.0898303,,134.158,-0.450729,0.0,0.0
950,237.25,57.8838,61.8459,137.079,99.7658,104.966,,0.0895464,,134.138,-0.462428,0.0,0.0
952,237.75,57.8938,62.0579,136.021,99.7698,105.317,,,,134.128,-0.492425,0.0,0.0
954,238.25,57.7875,61.7648,134.674,99.7826,104.887,,,,134.138,-0.453986,0.0,0.0
956,238.75,57.8357,61.6064,139.28,99.787,105.182,,,,134.168,-0.479178,0.0,0.0
958,239.25,58.0656,61.2501,137.68,99.7914,105.079,,,,134.168,-0.469813,0.0,0.0
960,239.75,58.0537,61.3869,138.62,99.7902,104.973,,,,134.188,-0.460792,0.0,0.0
962,240.25,57.8877,61.3536,135.135,99.7918,105.541,,,,134.158,-0.50974,0.0,0.0
964,240.75,57.8324,61.5393,141.54,99.7986,104.481,,,,134.148,-0.417299,0.0,0.0
966,241.25,57.5552,61.5318,135.31,99.8058,105.052,,,,134.138,-0.466201,0.0,0.0
968,241.75,58.0173,60.8021,141.584,99.8054,104.557,,,,134.138,-0.423227,0.0,0.0
970,242.25,57.8634,61.1363,143.402,99.8054,105.491,,,,134.098,-0.504191,0.0,0.0
972,242.75,57.0031,60.806,139.231,99.8126,104.501,,,,134.118,-0.41775,0.0,0.0
974,243.25,57.599,60.7968,141.729,99.805,104.855,,,,134.138,-0.449211,0.0,0.0
976,243.75,57.7296,61.404,138.029,99.8225,104.932,,,,134.108,-0.45429,0.0,0.0
978,244.25,57.7218,61.5762,138.743,99.8134,104.897,,,,134.108,-0.452041,0.0,0.0
980,244.75,57.7982,61.2438,140.623,99.817,105.151,,,,134.118,-0.473721,0.0,0.0
982,245.25,57.6073,61.2703,142.716,99.8174,105.145,,,,134.128,-0.473177,0.0,0.0
983,245.5,57.658,61.141,137.863,99.8022,104.957,,,,134.138,-0.458295,0.0,0.0