File: 01_Data/FRP_Panel/Cone/FRP_Panel_Cone_HF75Scan_220919_R1.csv
Names,Time,Stack TC,Smoke TC,Exh Press,Smoke Comp,Smoke Meas,CO Meter,CO2 Meter,O2 Meter,Sample Mass,Ext Coeff,Start Test,Flame Verif
Chan Gain,,500,500,1,1,1,1,1,1,1,1,1.0,1.0
Offset,,0,0,0.143022,0,0,0,0,0,0,0,0.0,0.0
Gain,,1,1,25.011,14.5176,16.5692,1,1,1,1.00088,1.03055,1.0,1.0
Units,sec,C,C,Pa,%,%,%,%,%,g,/m,,
Baseline,,60.0893,62.474,138.423,109.671,115.874,0.000264601,0.0428893,20.9526,-448.929,-0.497292,,
2,0.25,59.7701,62.2751,143.117,109.578,115.178,0.000256611,0.0444357,20.9519,83.6137,-0.450567,0.0,0.0
4,0.75,57.7701,60.6755,140.229,109.56,114.847,0.000217042,0.0443797,20.9524,83.4035,-0.426,0.0,0.0
6,1.25,57.7359,60.4547,134.625,109.56,115.263,0.000187933,0.0442973,20.9527,83.5837,-0.45873,0.0,0.0
8,1.75,57.7862,60.6419,140.922,109.558,116.61,0.000164355,0.0441972,20.953,83.6037,-0.563875,0.0,0.0
10,2.25,57.8212,60.6321,140.648,109.575,115.38,0.000163897,0.0440866,20.9533,83.4936,-0.466611,0.0,0.0
12,2.75,58.3416,60.6251,137.966,109.553,115.738,0.000163525,0.0439703,20.9534,83.5837,-0.49652,0.0,0.0
14,3.25,57.9761,60.4725,140.816,109.576,116.128,0.000175658,0.0438538,20.9536,83.5737,-0.524942,0.0,0.0
16,3.75,58.0725,60.3235,142.212,109.556,116.158,0.000196675,0.0437395,20.9537,83.4936,-0.528949,0.0,0.0
18,4.25,58.2676,60.7189,139.701,109.577,115.56,0.000213699,0.043647,20.9538,83.5236,-0.480593,0.0,0.0
20,4.75,57.7306,60.3363,138.665,109.564,115.845,0.000236655,0.0435298,20.9539,83.5236,-0.503972,0.0,0.0
22,5.25,58.6161,60.7855,136.514,109.564,115.418,0.000263499,0.0434349,20.9541,83.4836,-0.470568,0.0,0.0
24,5.75,57.7976,60.5357,141.054,109.556,116.313,0.000287863,0.043358,20.9543,83.4936,-0.541022,0.0,0.0
26,6.25,58.0697,60.6315,138.359,109.556,115.526,0.000309956,0.0433098,20.9544,83.5236,-0.479585,0.0,0.0
28,6.75,58.1172,60.5823,136.225,109.559,115.638,0.000331127,0.0432707,20.9545,83.4836,-0.488145,0.0,0.0
30,7.25,57.9065,60.0698,140.499,109.563,116.115,0.000351222,0.0432391,20.9546,83.4836,-0.525052,0.0,0.0
32,7.75,58.0896,60.5532,142.735,109.56,115.847,0.000372742,0.0432135,20.9546,83.4736,-0.504419,0.0,0.0
34,8.25,57.9776,60.4145,139.948,109.577,116.124,0.00039489,0.0431927,20.9547,83.4536,-0.52463,0.0,0.0
36,8.75,57.9128,60.5121,139.663,109.553,115.414,0.00041283,0.0431759,20.9547,83.4436,-0.471129,0.0,0.0
38,9.25,58.339,60.4896,136.566,109.573,116.449,0.000432604,0.0431623,20.9548,83.4536,-0.550195,0.0,0.0
40,9.75,58.4058,60.7458,139.653,109.572,115.339,0.00045334,0.0431513,20.9548,83.4636,-0.463656,0.0,0.0
42,10.25,58.2335,60.2696,136.517,109.578,115.687,0.000470136,0.0431423,20.9548,83.4536,-0.490444,0.0,0.0
44,10.75,58.1148,60.4652,140.931,109.551,115.643,0.000499934,0.0431492,20.9548,83.4536,-0.489198,0.0,0.0
46,11.25,57.7019,60.257,139.058,109.561,115.729,0.000524071,0.0431547,20.9548,83.4335,-0.495151,0.0,0.0
48,11.75,58.0641,60.5798,138.787,109.549,116.464,0.000558576,0.0431451,20.9549,83.4335,-0.553308,0.0,0.0
50,12.25,57.937,60.3473,138.307,109.559,115.321,0.000586525,0.0431373,20.9549,83.4035,-0.463366,0.0,0.0
52,12.75,57.7741,60.2175,141.061,109.547,115.287,0.000611657,0.043131,20.9549,83.3835,-0.461694,0.0,0.0
54,13.25,57.9756,59.9334,138.249,109.564,116.027,0.000632014,0.043126,20.9549,83.3935,-0.518129,0.0,0.0
56,13.75,57.7353,60.5166,140.113,109.552,114.832,0.00065229,0.0431218,20.9549,83.4135,-0.4255,0.0,0.0
58,14.25,58.3554,60.4302,137.659,109.569,115.253,0.000668714,0.0431325,20.9549,83.4436,-0.457249,0.0,0.0
60,14.75,58.0738,60.7696,139.439,109.557,115.167,0.00072318,0.0431412,20.9545,83.4636,-0.451414,0.0,0.0
62,15.25,58.243,60.553,137.472,109.556,115.419,0.000767298,0.043289,20.9539,83.4335,-0.471306,0.0,0.0
64,15.75,57.9479,60.4594,139.447,109.545,114.823,0.000803034,0.0434086,20.9534,83.4335,-0.425369,0.0,0.0
66,16.25,58.1933,60.7403,140.256,109.553,114.677,0.00108244,0.045112,20.9515,83.3835,-0.413202,0.0,0.0
68,16.75,58.1776,60.54,140.086,109.567,114.115,0.00130876,0.0464917,20.9488,83.3535,-0.367598,0.0,0.0
70,17.25,58.0063,60.5089,139.494,109.556,114.511,0.00186713,0.0516456,20.9466,83.3234,-0.399935,0.0,0.0
72,17.75,58.2444,60.5128,135.664,109.547,114.743,0.0023194,0.059453,20.9302,83.2834,-0.418894,0.0,1.0
74,18.25,58.0051,60.5627,129.929,109.553,110.753,0.003323,0.065777,20.9169,83.3234,-0.0984666,0.0,1.0
76,18.75,58.1216,60.7325,130.969,109.546,101.74,0.00413591,0.0871983,20.8832,83.2734,0.668251,0.0,1.0
78,19.25,58.3707,60.5778,128.684,109.549,95.6267,0.00566176,0.10455,20.8342,83.2334,1.2287,0.0,1.0
80,19.75,58.6089,60.7561,130.982,109.539,90.3057,0.00689769,0.130533,20.775,83.1133,1.7454,0.0,1.0
82,20.25,58.8378,61.1289,126.634,109.544,81.4983,0.00874798,0.162316,20.727,83.0832,2.67354,0.0,1.0
84,20.75,59.1857,61.1148,121.466,109.535,76.817,0.011011,0.200379,20.6533,83.0432,3.20754,0.0,1.0
86,21.25,59.7264,61.5565,127.88,109.544,72.3849,0.0138696,0.242298,20.5935,82.9231,3.74546,0.0,1.0
88,21.75,60.3566,61.618,122.217,109.536,68.1491,0.017108,0.288803,20.5075,82.803,4.28994,0.0,1.0
90,22.25,60.4672,61.3997,117.909,109.552,66.3338,0.0197312,0.337767,20.4378,82.7429,4.53536,0.0,1.0
92,22.75,60.2143,61.0155,119.326,109.528,61.4937,0.0236171,0.393145,20.3814,82.5428,5.21825,0.0,1.0
94,23.25,61.0464,61.2781,116.63,109.542,54.9187,0.0283496,0.452144,20.2888,82.4126,6.24162,0.0,1.0
96,23.75,61.3169,62.0281,123.412,109.528,52.3652,0.0335317,0.499934,20.2138,82.3226,6.67086,0.0,1.0
98,24.25,62.2123,62.2212,111.834,109.53,55.6858,0.0389432,0.583021,20.1193,82.1124,6.11528,0.0,0.0
100,24.75,63.1131,63.1961,105.429,109.52,48.233,0.0433266,0.650322,20.0123,81.8822,7.41327,0.0,0.0
102,25.25,64.0503,63.6871,102.868,109.526,49.0072,0.0488509,0.753951,19.8627,81.8121,7.26988,0.0,0.0
104,25.75,65.2172,64.3803,103.313,109.513,46.4734,0.0533257,0.83789,19.7416,81.5219,7.74869,0.0,0.0
106,26.25,65.9138,65.5259,91.6063,109.518,47.0614,0.0582685,0.931668,19.6434,81.4418,7.63546,0.0,0.0
108,26.75,67.6156,66.1365,103.291,109.504,45.0247,0.0622722,1.03084,19.5267,81.2116,8.0342,0.0,0.0
110,27.25,69.4973,67.2069,96.0013,109.515,43.4339,0.0655152,1.11116,19.3986,81.0114,8.36032,0.0,0.0
112,27.75,70.5136,68.99,98.5956,109.509,42.7538,0.068987,1.21226,19.274,80.8813,8.50248,0.0,0.0
114,28.25,72.5587,69.9447,97.0615,109.508,46.9375,0.0717991,1.29414,19.1545,80.7211,7.65844,0.0,0.0
116,28.75,74.1532,71.7981,98.3598,109.503,48.0813,0.0741,1.38385,19.0434,80.521,7.44036,0.0,0.0
118,29.25,75.4848,73.1727,102.997,109.508,45.235,0.0759637,1.45652,18.9406,80.3608,7.9924,0.0,0.0
120,29.75,77.7272,74.7226,93.2268,109.486,44.3476,0.0774416,1.51538,18.8574,80.2507,8.16968,0.0,0.0
122,30.25,79.3138,76.2773,89.789,109.487,44.2895,0.0786102,1.58132,18.7741,80.0305,8.18168,0.0,0.0
124,30.75,80.9683,77.9205,93.1268,109.47,45.3473,0.0795567,1.63474,18.7065,79.9204,7.96692,0.0,0.0
126,31.25,82.9074,79.3985,92.3856,109.485,44.1661,0.0804299,1.6841,18.6519,79.7803,8.20668,0.0,0.0
128,31.75,84.7815,81.1318,95.5654,109.466,42.1986,0.0812329,1.72409,18.5996,79.5501,8.6171,0.0,0.0
130,32.25,86.4353,82.5316,100.45,109.477,45.5516,0.082089,1.7623,18.5573,79.39,7.9268,0.0,0.0
132,32.75,87.9486,84.5142,101.646,109.489,42.7427,0.0829676,1.79848,18.507,79.2398,8.50315,0.0,0.0
134,33.25,89.3698,85.8069,99.465,109.478,41.428,0.0836793,1.8278,18.4663,79.0997,8.78473,0.0,0.0
136,33.75,90.8115,87.5264,91.488,109.486,41.3172,0.0846802,1.85953,18.4152,78.8495,8.80958,0.0,0.0
138,34.25,92.2691,88.8861,97.5729,109.474,43.3049,0.085491,1.89243,18.3738,78.6793,8.3838,0.0,0.0
140,34.75,94.4423,90.1824,91.9948,109.47,42.1602,0.0865503,1.92462,18.3319,78.5592,8.6257,0.0,0.0
142,35.25,96.3657,93.0148,97.2485,109.467,40.5224,0.0879164,1.95568,18.2727,78.4191,8.98358,0.0,0.0
144,35.75,97.4699,93.9852,80.3373,109.469,38.3228,0.0883736,1.9856,18.25,78.1789,9.48828,0.0,0.0
146,36.25,99.1657,95.7201,87.4289,109.468,36.5444,0.0891554,2.01411,18.2113,77.9787,9.91775,0.0,0.0
148,36.75,100.704,97.3071,89.2745,109.458,36.9044,0.0900423,2.04231,18.1798,77.7986,9.82829,0.0,0.0
150,37.25,102.522,98.5811,85.2315,109.452,37.0637,0.0909889,2.06974,18.1429,77.6384,9.78888,0.0,0.0
152,37.75,103.986,100.611,88.5983,109.459,38.9306,0.0920127,2.09196,18.113,77.4383,9.34523,0.0,0.0
154,38.25,105.76,101.997,87.7655,109.46,35.5528,0.0930732,2.13398,18.0805,77.2381,10.1658,0.0,0.0
156,38.75,107.287,103.586,86.9687,109.455,37.9855,0.0939322,2.14528,18.047,77.0379,9.56706,0.0,0.0
158,39.25,108.967,105.315,83.4187,109.443,37.5623,0.0952643,2.17262,18.01,76.8077,9.66728,0.0,0.0
160,39.75,110.414,107.325,88.4365,109.446,33.6743,0.0963432,2.20196,17.9712,76.7076,10.6553,0.0,0.0
162,40.25,111.954,108.682,84.1728,109.439,32.8845,0.0977525,2.22572,17.9323,76.4474,10.8693,0.0,0.0
164,40.75,113.507,110.468,84.1705,109.444,36.1126,0.0988939,2.25551,17.8942,76.2972,10.0232,0.0,0.0
166,41.25,114.766,112.311,87.2694,109.435,35.1776,0.100354,2.27963,17.8597,76.1271,10.2596,0.0,0.0
168,41.75,116.966,113.991,81.4723,109.449,38.4699,0.101536,2.30563,17.8287,75.9069,9.45199,0.0,0.0
170,42.25,118.705,115.63,81.4762,109.434,36.7467,0.10284,2.32669,17.8036,75.7067,9.86504,0.0,0.0
172,42.75,119.473,117.226,99.6795,109.444,37.3231,0.103896,2.35214,17.7704,75.5566,9.72517,0.0,0.0
174,43.25,121.34,119.128,77.4903,109.425,37.2503,0.104751,2.37276,17.7435,75.3064,9.74121,0.0,0.0
176,43.75,123.011,121.035,83.2462,109.43,33.4311,0.1058,2.39829,17.7159,75.1362,10.7195,0.0,0.0
178,44.25,124.371,122.465,86.413,109.412,37.225,0.10665,2.41896,17.6883,74.9761,9.74629,0.0,0.0
180,44.75,126.158,123.887,84.5651,109.412,36.8139,0.107485,2.44072,17.6659,74.7459,9.84664,0.0,0.0
182,45.25,127.354,125.831,88.1869,109.403,35.8041,0.108292,2.46285,17.6367,74.5857,10.0973,0.0,0.0
184,45.75,128.88,127.556,82.1234,109.416,36.5687,0.109017,2.48077,17.6131,74.4156,9.90739,0.0,0.0
186,46.25,130.43,129.273,90.6087,109.4,35.0805,0.109667,2.50339,17.5891,74.1954,10.2817,0.0,0.0
188,46.75,131.671,130.606,81.3021,109.404,34.1653,0.110143,2.52171,17.5696,73.9452,10.5209,0.0,0.0
190,47.25,133.822,132.388,88.4265,109.394,35.3617,0.110483,2.53796,17.5539,73.805,10.209,0.0,0.0
192,47.75,134.779,133.973,90.0111,109.396,34.0976,0.110461,2.5524,17.5411,73.6049,10.5383,0.0,0.0
194,48.25,135.883,135.841,89.9241,109.371,35.1665,0.110443,2.5623,17.5308,73.3947,10.2572,0.0,0.0
196,48.75,137.238,137.177,81.5281,109.412,33.9964,0.1102,2.56871,17.5224,73.2045,10.5664,0.0,0.0
198,49.25,138.929,138.937,82.5814,109.372,36.423,0.109797,2.57019,17.5156,73.1044,9.93984,0.0,0.0
200,49.75,139.828,140.55,86.0421,109.38,34.0379,0.109471,2.56805,17.5225,72.8542,10.5528,0.0,0.0
202,50.25,141.465,142.191,94.651,109.364,33.8528,0.109207,2.56313,17.5281,72.644,10.6008,0.0,0.0
204,50.75,142.459,143.343,83.5553,109.38,34.2978,0.108008,2.55627,17.5362,72.4338,10.484,0.0,0.0
206,51.25,143.804,144.773,82.1295,109.36,36.7947,0.107037,2.54761,17.5459,72.2337,9.84708,0.0,0.0
208,51.75,144.551,146.358,79.9038,109.366,35.0239,0.105949,2.5378,17.5537,72.0635,10.2935,0.0,0.0
210,52.25,145.649,147.69,92.5101,109.349,35.6453,0.104796,2.52986,17.5681,71.8633,10.133,0.0,0.0
212,52.75,146.176,148.997,75.6493,109.354,35.3238,0.103566,2.52342,17.5797,71.6832,10.2154,0.0,0.0
214,53.25,147.077,149.565,87.3213,109.349,37.5471,0.102303,2.50635,17.5997,71.453,9.66317,0.0,0.0
216,53.75,148.011,151.118,87.4938,109.347,36.3012,0.10128,2.49252,17.6159,71.2828,9.96809,0.0,0.0
218,54.25,148.88,152.19,89.299,109.337,38.25,0.0997818,2.47495,17.64,71.1127,9.49452,0.0,0.0
220,54.75,150.068,153.213,87.3709,109.35,40.7008,0.0985685,2.45497,17.6694,70.9325,8.93422,0.0,0.0
222,55.25,150.763,154.19,89.0967,109.332,36.8311,0.0971113,2.43879,17.7119,70.7323,9.83587,0.0,0.0
224,55.75,151.44,155.347,88.5555,109.338,43.5396,0.0955042,2.40406,17.763,70.6423,8.32368,0.0,0.0
226,56.25,152.045,156.334,90.5568,109.311,35.9543,0.0936957,2.37593,17.8044,70.4221,10.0519,0.0,0.0
228,56.75,152.885,157.013,97.1057,109.312,38.2945,0.0917746,2.3328,17.8656,70.2519,9.48196,0.0,0.0
230,57.25,153.382,158.189,87.8335,109.302,42.1071,0.0902186,2.29787,17.9152,70.0618,8.62314,0.0,0.0
232,57.75,153.63,158.965,93.0726,109.309,43.6043,0.0882096,2.24789,17.9553,69.9817,8.30791,0.0,0.0
234,58.25,154.014,159.928,87.548,109.299,43.845,0.0859086,2.20741,18.0148,69.8215,8.25727,0.0,0.0
236,58.75,154.276,160.495,100.452,109.303,41.2773,0.0834726,2.16085,18.063,69.6714,8.80313,0.0,0.0
238,59.25,154.616,160.903,98.3094,109.279,48.1142,0.0809844,2.11076,18.1349,69.5213,7.41566,0.0,0.0
240,59.75,154.668,161.684,99.2582,109.294,46.2797,0.0783989,2.07018,18.193,69.4112,7.76832,0.0,0.0
242,60.25,155.024,161.664,101.423,109.283,44.8937,0.0757914,2.00817,18.2765,69.2911,8.0423,0.0,0.0
244,60.75,155.02,162.22,100.654,109.291,47.0902,0.0731421,1.95794,18.3441,69.191,7.61118,0.0,0.0
246,61.25,155.053,162.617,96.012,109.276,48.3938,0.0705126,1.90149,18.4444,69.0609,7.36305,0.0,0.0
248,61.75,154.752,162.401,99.0735,109.282,50.2551,0.0678649,1.84157,18.5257,68.9207,7.02239,0.0,0.0
250,62.25,154.542,163.088,102.741,109.255,48.9834,0.0652544,1.77974,18.6116,68.8006,7.25182,0.0,0.0
252,62.75,154.563,163.641,102.298,109.258,50.0665,0.0631398,1.71768,18.6992,68.7306,7.0544,0.0,0.0
254,63.25,154.064,163.052,99.1712,109.254,49.5806,0.0602106,1.65288,18.7895,68.6005,7.14221,0.0,0.0
256,63.75,154.114,163.841,113.265,109.266,56.0554,0.0578378,1.58731,18.8801,68.5004,6.03366,0.0,0.0
258,64.25,153.334,163.613,109.552,109.238,56.8463,0.0559159,1.51967,18.9534,68.3903,5.9047,0.0,0.0
260,64.75,153.427,163.429,106.114,109.256,56.6921,0.0529345,1.4518,19.0324,68.2802,5.93069,0.0,0.0
262,65.25,153.027,163.271,116.659,109.23,56.8781,0.0505196,1.39683,19.114,68.2201,5.89898,0.0,0.0
264,65.75,152.175,162.983,111.082,109.251,59.0818,0.047402,1.31983,19.2025,68.1801,5.55708,0.0,0.0
266,66.25,151.558,162.664,115.514,109.234,62.146,0.0448767,1.25746,19.2943,68.07,5.09859,0.0,0.0
268,66.75,151.156,162.363,118.647,109.228,62.4969,0.0418568,1.19348,19.3856,68.0099,5.04714,0.0,0.0
270,67.25,150.196,161.559,119.727,109.215,66.0845,0.0394107,1.12955,19.4748,67.9399,4.54149,0.0,0.0
272,67.75,149.389,161.312,115.804,109.219,68.3711,0.036526,1.07776,19.5677,67.9099,4.23436,0.0,0.0
274,68.25,148.848,160.918,124.858,109.204,71.4748,0.0341894,1.01009,19.6617,67.8398,3.8318,0.0,0.0
276,68.75,148.052,160.324,124.222,109.218,75.4143,0.0314925,0.955277,19.7535,67.8098,3.34792,0.0,0.0
278,69.25,146.742,159.967,121.892,109.197,79.5707,0.0293079,0.899866,19.8418,67.7797,2.86117,0.0,0.0
280,69.75,145.673,159.138,122.783,109.211,82.8873,0.0268405,0.845074,19.9258,67.7497,2.49323,0.0,0.0
282,70.25,145.31,158.522,124.107,109.2,87.5883,0.0248418,0.784684,20.0049,67.7097,1.99358,0.0,0.0
284,70.75,144.212,157.733,128.028,109.199,93.7219,0.0232229,0.735769,20.0689,67.7097,1.38169,0.0,0.0
286,71.25,143.093,156.791,128.759,109.182,99.0307,0.0211327,0.680955,20.1313,67.6596,0.882176,0.0,0.0
288,71.75,141.95,156.413,130.449,109.184,103.152,0.0194396,0.636557,20.1913,67.6496,0.51379,0.0,0.0
290,72.25,141.014,155.523,132.612,109.179,104.805,0.0176392,0.587722,20.2399,67.6096,0.369637,0.0,0.0
292,72.75,140.189,155.092,129.678,109.183,108.361,0.0161809,0.548166,20.2888,67.5896,0.0682709,0.0,0.0
294,73.25,139.197,154.307,131.41,109.173,110.308,0.0149997,0.509474,20.337,67.5896,-0.0934582,0.0,0.0
296,73.75,137.789,153.518,132.935,109.159,111.845,0.0144961,0.472148,20.3826,67.5896,-0.219701,0.0,0.0
298,74.25,136.844,152.919,128.397,109.155,113.211,0.0131616,0.441913,20.4051,67.6596,-0.329828,0.0,0.0
300,74.75,135.757,151.698,133.061,109.156,114.706,0.0119946,0.407679,20.4436,67.6596,-0.448289,0.0,0.0
302,75.25,134.662,150.639,133.16,109.151,115.531,0.0109719,0.379949,20.4903,67.6096,-0.513455,0.0,0.0
304,75.75,133.697,149.985,131.009,109.14,115.369,0.0101435,0.357488,20.5282,67.5796,-0.501777,0.0,0.0
306,76.25,132.505,149.652,135.375,109.136,114.885,0.00933925,0.334878,20.5635,67.5696,-0.464036,0.0,0.0
308,76.75,131.643,148.683,130.669,109.137,115.016,0.00868779,0.312589,20.5963,67.5395,-0.474338,0.0,0.0
310,77.25,130.23,147.435,134.708,109.128,114.975,0.00806936,0.301151,20.6263,67.5495,-0.471776,0.0,0.0
312,77.75,129.742,146.492,132.677,109.111,115.013,0.00756844,0.281591,20.6538,67.5395,-0.476228,0.0,0.0
314,78.25,128.905,145.372,136.264,109.116,115.407,0.00716269,0.265748,20.6761,67.5295,-0.506729,0.0,0.0
316,78.75,127.936,145.307,134.167,109.109,115.403,0.00673332,0.250526,20.696,67.4995,-0.507,0.0,0.0
318,79.25,126.937,144.517,134.212,109.112,115.671,0.00638553,0.238196,20.7138,67.4995,-0.527711,0.0,0.0
320,79.75,126.143,143.383,131.955,109.089,115.228,0.0060364,0.226107,20.7296,67.4795,-0.494936,0.0,0.0
322,80.25,125.329,142.802,133.465,109.095,115.601,0.0057536,0.216315,20.7437,67.4795,-0.523615,0.0,0.0
324,80.75,124.448,141.781,131.89,109.089,115.255,0.00546739,0.207652,20.7557,67.4695,-0.497041,0.0,0.0
326,81.25,123.604,141.522,131.602,109.082,115.558,0.00523556,0.199977,20.7662,67.4595,-0.521357,0.0,0.0
328,81.75,122.714,140.328,135.643,109.082,115.564,0.00500338,0.19376,20.7755,67.4494,-0.521832,0.0,0.0
330,82.25,121.543,139.721,134.918,109.077,115.326,0.00481532,0.187757,20.784,67.4294,-0.503621,0.0,0.0
332,82.75,120.707,138.785,136.061,109.072,115.505,0.00462751,0.182895,20.791,67.4294,-0.518044,0.0,0.0
334,83.25,119.901,138.094,133.203,109.069,114.386,0.00447539,0.178422,20.797,67.4294,-0.430336,0.0,0.0
336,83.75,118.221,135.966,132.129,109.066,115.364,0.00432938,0.174799,20.8018,67.3994,-0.50751,0.0,0.0
338,84.25,117.095,135.022,132.287,109.077,115.957,0.00421112,0.171271,20.807,67.4094,-0.552991,0.0,0.0
340,84.75,115.963,134.104,134.881,109.092,115.317,0.00411532,0.168413,20.8112,67.4094,-0.501698,0.0,0.0
342,85.25,115.423,133.235,133.625,109.122,115.909,0.00402308,0.165802,20.8147,67.3794,-0.545424,0.0,0.0
344,85.75,114.471,132.734,133.302,109.129,116.111,0.00393518,0.163421,20.8179,67.3193,-0.560558,0.0,0.0
346,86.25,113.646,132.495,135.461,109.153,116.264,0.00386398,0.161267,20.8205,67.3494,-0.570498,0.0,0.0
348,86.75,113.171,131.537,132.152,109.159,116.03,0.00379366,0.159319,20.8231,67.3594,-0.551835,0.0,0.0
350,87.25,112.268,131.27,132.912,109.187,115.809,0.0037367,0.157741,20.8256,67.3494,-0.532255,0.0,0.0
352,87.75,111.975,130.069,133.966,109.2,116.357,0.0036899,0.15599,20.8276,67.3594,-0.57384,0.0,0.0
354,88.25,111.192,129.9,133.54,109.229,116.312,0.00365139,0.154572,20.8292,67.3293,-0.568036,0.0,0.0
356,88.75,110.369,129.218,133.528,109.25,115.467,0.00361388,0.153424,20.831,67.3293,-0.500329,0.0,0.0
358,89.25,109.705,128.376,131.214,109.276,115.632,0.0035835,0.152154,20.8329,67.3093,-0.511137,0.0,0.0
360,89.75,109.451,127.818,135.002,109.291,115.387,0.00354958,0.151126,20.8347,67.2793,-0.490701,0.0,0.0
362,90.25,108.832,127.125,135.463,109.339,115.551,0.00351372,0.150131,20.8363,67.2393,-0.49953,0.0,0.0
364,90.75,107.993,126.575,132.722,109.361,115.68,0.00346573,0.149325,20.8376,67.2192,-0.507782,0.0,0.0
366,91.25,107.498,125.943,136.959,109.374,116.287,0.00342685,0.148618,20.8387,67.2293,-0.554015,0.0,0.0
368,91.75,106.786,125.31,133.179,109.392,115.754,0.00339537,0.147997,20.8395,67.2593,-0.510988,0.0,0.0
370,92.25,105.944,124.751,137.635,109.421,116.638,0.00337491,0.147462,20.8402,67.2593,-0.577412,0.0,0.0
372,92.75,105.463,124.324,133.493,109.439,116.18,0.00335835,0.147001,20.8408,67.2192,-0.54037,0.0,0.0
374,93.25,104.867,123.207,130.956,109.457,115.486,0.0033664,0.146566,20.8413,67.2192,-0.48465,0.0,0.0
376,93.75,104.481,123.015,137.421,109.47,115.346,0.00337293,0.146158,20.8421,67.1992,-0.472656,0.0,0.0
378,94.25,103.896,122.676,135.225,109.502,116.916,0.00339152,0.145796,20.8427,67.1992,-0.592206,0.0,0.0
380,94.75,103.673,122.041,136.718,109.505,116.062,0.00341856,0.145475,20.8437,67.1992,-0.525747,0.0,0.0
382,95.25,103.411,121.431,135.998,109.531,116.211,0.00345244,0.145215,20.8445,67.1692,-0.5352,0.0,0.0
384,95.75,102.06,120.777,135.263,109.536,115.898,0.00349067,0.144974,20.8452,67.1792,-0.510342,0.0,0.0
386,96.25,101.985,119.912,131.752,109.575,115.925,0.00352164,0.14475,20.8457,67.1992,-0.509254,0.0,0.0
388,96.75,101.115,119.775,134.662,109.586,115.904,0.00354672,0.1446,20.8461,67.1892,-0.506724,0.0,0.0
390,97.25,100.661,118.949,128.997,109.609,116.105,0.00360248,0.144506,20.8461,67.1892,-0.520427,0.0,0.0
392,97.75,100.653,118.575,133.719,109.627,116.816,0.00364765,0.144431,20.8459,67.1892,-0.574189,0.0,0.0
394,98.25,99.9166,118.159,131.63,109.652,116.22,0.0036931,0.144354,20.8457,67.1792,-0.525892,0.0,0.0
396,98.75,99.2063,117.313,133.238,109.672,116.279,0.00372991,0.144293,20.8456,67.1492,-0.528888,0.0,0.0
398,99.25,98.9721,117.333,132.788,109.691,116.713,0.00375573,0.144243,20.8454,67.1392,-0.560984,0.0,0.0
400,99.75,98.3707,116.582,132.357,109.7,116.583,0.00377305,0.144143,20.8458,67.1292,-0.550144,0.0,0.0
402,100.25,98.3416,116.083,133.23,109.732,115.858,0.00378707,0.144063,20.8461,67.1492,-0.491078,0.0,0.0
404,100.75,98.1408,115.298,129.445,109.717,116.162,0.00378197,0.143959,20.8465,67.1492,-0.516039,0.0,0.0
406,101.25,97.247,114.734,137.251,109.739,117.21,0.00377784,0.14384,20.8471,67.1392,-0.595347,0.0,0.0
408,101.75,97.1269,114.603,134.472,109.735,116.099,0.00374665,0.143666,20.8476,67.1192,-0.509586,0.0,0.0
410,102.25,96.3019,114.106,133.096,109.753,116.867,0.00372139,0.143456,20.8479,67.1092,-0.567733,0.0,0.0
412,102.75,95.8762,113.705,132.953,109.768,115.96,0.00366679,0.143285,20.8483,67.0591,-0.496088,0.0,0.0
414,103.25,95.8451,113.494,134.193,109.779,116.662,0.00362256,0.143162,20.8485,67.0791,-0.549689,0.0,0.0
416,103.75,95.2132,112.679,135.238,109.788,116.403,0.00355515,0.143062,20.8487,67.0691,-0.528912,0.0,0.0
418,104.25,94.9464,112.491,135.235,109.781,116.09,0.00350055,0.142952,20.8489,67.0691,-0.505156,0.0,0.0
420,104.75,94.4916,111.771,132.474,109.78,116.398,0.00343991,0.142862,20.849,67.0491,-0.52914,0.0,0.0
422,105.25,94.1565,111.486,133.391,109.808,116.122,0.00339079,0.142687,20.8491,67.0391,-0.505375,0.0,0.0
424,105.75,93.4361,111.2,135.402,109.799,116.6,0.00335101,0.142545,20.8492,67.0491,-0.543302,0.0,0.0
426,106.25,93.2738,110.933,136.035,109.818,116.091,0.00332383,0.142401,20.8495,67.0491,-0.50221,0.0,0.0
428,106.75,92.5216,109.972,136.318,109.816,116.471,0.00330182,0.142284,20.85,67.0091,-0.531841,0.0,0.0
430,107.25,92.7636,109.694,134.395,109.843,116.234,0.00328731,0.142115,20.8503,67.0491,-0.511267,0.0,0.0
432,107.75,92.1259,109.219,132.98,109.831,115.606,0.00327855,0.141979,20.8506,67.0191,-0.463276,0.0,0.0
434,108.25,91.8795,108.688,131.497,109.842,116.018,0.00327677,0.141869,20.8509,67.0191,-0.49449,0.0,0.0
436,108.75,91.6331,108.222,132.419,109.849,116.84,0.00328011,0.141471,20.8515,67.0091,-0.557744,0.0,0.0
438,109.25,91.4649,107.992,133.929,109.867,116.859,0.00328947,0.141148,20.852,66.979,-0.557773,0.0,0.0
440,109.75,90.9422,107.423,134.307,109.862,116.544,0.00330303,0.140756,20.8529,66.939,-0.533774,0.0,0.0
442,110.25,90.2967,107.136,131.655,109.868,116.602,0.00332333,0.14032,20.8536,66.939,-0.537734,0.0,0.0
444,110.75,90.4145,107.254,133.446,109.863,116.503,0.00334815,0.139967,20.8541,66.929,-0.530484,0.0,0.0
446,111.25,90.124,106.67,133.174,109.889,116.451,0.00337424,0.139637,20.8546,66.929,-0.524329,0.0,0.0
448,111.75,89.795,106.004,135.972,109.891,115.487,0.00341208,0.139369,20.8551,66.919,-0.44898,0.0,0.0
450,112.25,89.0669,105.459,134.392,109.898,116.474,0.00342225,0.139123,20.8553,66.909,-0.525293,0.0,0.0
452,112.75,88.8453,105.395,139.17,109.907,116.811,0.00344165,0.138924,20.8555,66.889,-0.550739,0.0,0.0
454,113.25,88.7735,104.949,135.354,109.91,116.075,0.00345916,0.13869,20.8562,66.8789,-0.493365,0.0,0.0
456,113.75,88.3793,104.471,132.784,109.914,116.437,0.00346869,0.138499,20.8567,66.8789,-0.521228,0.0,0.0
458,114.25,88.2751,103.6,137.151,109.931,114.725,0.00347221,0.138096,20.8571,66.8689,-0.385854,0.0,0.0
460,114.75,88.0807,103.771,132.887,109.927,116.289,0.00346974,0.13763,20.8574,66.889,-0.508586,0.0,0.0
462,115.25,88.1358,103.447,131.655,109.929,115.658,0.00346295,0.137389,20.8577,66.8689,-0.459177,0.0,0.0
464,115.75,87.724,103.065,134.711,109.946,116.757,0.00345745,0.136977,20.8579,66.8589,-0.543345,0.0,0.0
466,116.25,86.9067,102.811,136.022,109.941,116.681,0.00344794,0.136559,20.8586,66.8389,-0.537947,0.0,0.0
468,116.75,86.3334,102.3,132.142,109.947,116.489,0.00344024,0.136143,20.8591,66.8289,-0.522538,0.0,0.0
470,117.25,86.3325,101.678,135.431,109.948,116.978,0.00343021,0.135768,20.8595,66.8089,-0.560295,0.0,0.0
472,117.75,86.3613,101.395,134.141,109.974,116.715,0.00342209,0.13543,20.8598,66.7789,-0.537839,0.0,0.0
474,118.25,85.743,101.728,131.17,109.95,115.634,0.00340686,0.135156,20.8601,66.7789,-0.455683,0.0,0.0
476,118.75,85.4706,101.012,137.781,109.966,116.287,0.00338675,0.134846,20.8603,66.7588,-0.505187,0.0,0.0
478,119.25,85.2311,100.318,135.663,109.946,116.425,0.00337046,0.134595,20.8605,66.7588,-0.517626,0.0,0.0
480,119.75,84.7178,100.125,129.936,109.95,115.94,0.00335727,0.134231,20.8606,66.7188,-0.479567,0.0,0.0
482,120.25,84.7921,99.8997,133.604,109.929,115.785,0.0033024,0.133936,20.8611,66.7188,-0.469244,0.0,0.0
484,120.75,84.5915,99.6652,133.509,109.933,116.016,0.00325795,0.133492,20.8617,66.7188,-0.486788,0.0,0.0
486,121.25,84.5209,98.598,135.785,109.909,116.598,0.00321565,0.133132,20.8623,66.7088,-0.534065,0.0,0.0
488,121.75,84.1239,98.9259,134.567,109.907,116.246,0.00318138,0.132841,20.8627,66.7088,-0.506847,0.0,0.0
490,122.25,83.5291,98.4279,135.679,109.894,116.633,0.00315993,0.132605,20.8633,66.6688,-0.538086,0.0,0.0
492,122.75,84.1993,98.2778,136.564,109.894,116.452,0.00314255,0.132137,20.864,66.6588,-0.523933,0.0,0.0
494,123.25,83.2309,98.0959,132.642,109.888,116.079,0.00314488,0.131757,20.8645,66.6688,-0.495504,0.0,0.0
496,123.75,83.1701,98.1598,133.89,109.9,116.418,0.00314677,0.131419,20.865,66.6888,-0.520829,0.0,0.0
498,124.25,83.0333,97.3438,131.017,109.89,116.224,0.00315694,0.131117,20.8656,66.6988,-0.506654,0.0,0.0
500,124.75,82.7001,97.3012,134.057,109.905,116.945,0.00317295,0.130796,20.8663,66.6788,-0.561324,0.0,0.0
502,125.25,83.0036,96.607,136.435,109.893,117.417,0.00318924,0.130467,20.8671,66.6888,-0.598628,0.0,0.0
504,125.75,82.4988,96.8535,133.602,109.909,116.764,0.00320542,0.130123,20.8679,66.6487,-0.546954,0.0,0.0
506,126.25,82.457,96.1589,136.451,109.922,115.56,0.00321853,0.129775,20.8686,66.6387,-0.45213,0.0,0.0
508,126.75,82.2551,95.9586,136.883,109.926,116.633,0.00322915,0.129409,20.8692,66.6287,-0.53539,0.0,0.0
510,127.25,82.0124,96.0814,130.205,109.914,116.458,0.00324533,0.129037,20.8696,66.6287,-0.522764,0.0,0.0
512,127.75,81.9491,95.5751,138.886,109.937,117.178,0.00326708,0.128635,20.87,66.6487,-0.576663,0.0,0.0
514,128.25,81.3107,95.0794,132.362,109.92,116.56,0.00329248,0.12822,20.8703,66.6287,-0.530252,0.0,0.0
516,128.75,81.4895,94.9384,135.376,109.952,116.457,0.00331305,0.127884,20.8708,66.6087,-0.519628,0.0,0.0
518,129.25,81.1191,94.7913,137.278,109.941,116.402,0.00337144,0.127306,20.8714,66.6087,-0.516221,0.0,0.0
520,129.75,80.6931,94.6357,136.691,109.955,116.855,0.00341873,0.126837,20.8718,66.5887,-0.550247,0.0,0.0
522,130.25,80.6252,93.7788,134.956,109.951,116.238,0.00350768,0.126397,20.8722,66.5887,-0.502686,0.0,0.0
524,130.75,80.6704,93.9589,129.699,109.968,116.452,0.00357972,0.125984,20.8725,66.5687,-0.517924,0.0,0.0
526,131.25,79.9291,93.6922,132.548,109.953,116.141,0.00367357,0.12565,20.8728,66.5787,-0.494951,0.0,0.0
528,131.75,79.6796,93.5809,132.397,109.976,116.44,0.00371357,0.12522,20.8729,66.5787,-0.516363,0.0,0.0
530,132.25,79.8594,93.0434,135.422,109.966,117.319,0.00378265,0.124871,20.8731,66.5787,-0.585137,0.0,0.0
532,132.75,79.8104,92.9006,134.193,109.986,116.822,0.0038392,0.12437,20.8732,66.5487,-0.545116,0.0,0.0
534,133.25,78.9967,92.3185,134.515,109.974,116.648,0.00388501,0.123964,20.8736,66.5587,-0.53259,0.0,0.0
536,133.75,79.4433,92.4271,133.15,109.99,115.772,0.00390077,0.123475,20.8741,66.5587,-0.463154,0.0,0.0
538,134.25,79.3058,92.3175,129.528,109.977,116.778,0.00389433,0.12308,20.8745,66.5286,-0.5424,0.0,0.0
540,134.75,79.2626,92.0031,140.187,110.005,115.956,0.00387512,0.122865,20.8748,66.5286,-0.476313,0.0,0.0
542,135.25,78.5628,91.8458,131.585,109.983,116.848,0.00384696,0.122498,20.8751,66.5286,-0.547369,0.0,0.0
544,135.75,78.9137,91.3543,134.248,109.991,117.25,0.00382415,0.1222,20.8753,66.5286,-0.57776,0.0,0.0
546,136.25,78.5121,91.4242,138.606,109.997,117.079,0.00378922,0.121712,20.8755,66.4986,-0.564061,0.0,0.0
548,136.75,78.2609,90.6705,133.462,109.999,115.619,0.00376093,0.121317,20.8759,66.4986,-0.450452,0.0,0.0
550,137.25,78.3244,90.9202,136.546,109.999,116.164,0.00373403,0.120844,20.8764,66.4486,-0.492974,0.0,0.0
552,137.75,78.5605,90.6208,137.749,109.998,116.612,0.00370863,0.120323,20.877,66.4586,-0.527844,0.0,0.0
554,138.25,78.03,90.2777,136.938,109.992,115.738,0.00368806,0.11984,20.8777,66.4486,-0.460363,0.0,0.0
556,138.75,77.5599,90.0577,131.745,110.007,116.735,0.0036714,0.119394,20.8783,66.4586,-0.536672,0.0,0.0
558,139.25,77.8211,90.2628,136.066,109.993,115.598,0.00365791,0.119033,20.8788,66.4386,-0.449268,0.0,0.0
560,139.75,77.767,89.7817,135.727,110.026,116.1,0.00364445,0.118566,20.8792,66.4386,-0.485794,0.0,0.0
562,140.25,76.9603,89.3744,131.763,110,115.53,0.00363355,0.118187,20.8795,66.4185,-0.443382,0.0,0.0
564,140.75,77.3923,89.1822,134.49,110.005,117.348,0.00362472,0.117721,20.8798,66.4085,-0.584153,0.0,0.0
566,141.25,77.1038,88.7903,131.463,109.999,117.156,0.00362642,0.117344,20.88,66.4286,-0.569775,0.0,0.0
568,141.75,77.0028,88.5326,135.562,110.006,116.429,0.0036278,0.116939,20.8802,66.4085,-0.512984,0.0,0.0
570,142.25,76.7186,88.4031,138.465,110.001,117.264,0.00362891,0.116522,20.8807,66.4185,-0.578011,0.0,0.0
572,142.75,76.6203,88.1847,133.927,110.007,116.348,0.00367032,0.116184,20.8812,66.4185,-0.506554,0.0,0.0
574,143.25,76.1492,88.2267,135.812,109.999,117.013,0.00370387,0.115707,20.8815,66.4386,-0.558763,0.0,0.0
576,143.75,76.3804,87.7535,138.27,110.002,116.364,0.00376525,0.115321,20.8817,66.3985,-0.508249,0.0,0.0
578,144.25,76.1931,87.6003,136.704,110.002,116.425,0.00381496,0.114863,20.8818,66.3985,-0.513037,0.0,0.0
580,144.75,76.2797,87.3113,133.815,109.997,116.638,0.00388314,0.114362,20.882,66.3785,-0.529915,0.0,0.0
582,145.25,76.0902,86.9434,138.515,109.996,116.721,0.00393835,0.113956,20.8823,66.3885,-0.536452,0.0,0.0
584,145.75,75.5598,87.0231,136.584,109.995,116.088,0.00398689,0.113536,20.8828,66.3585,-0.487433,0.0,0.0
586,146.25,75.5388,86.7234,133.938,109.989,116.719,0.0040262,0.113114,20.8832,66.3485,-0.536839,0.0,0.0
588,146.75,75.5652,86.7527,136.146,109.998,116.712,0.00404629,0.112771,20.8837,66.3385,-0.535563,0.0,0.0
590,147.25,75.4396,86.7096,134.837,110.005,117.266,0.00405169,0.112451,20.8838,66.3485,-0.577803,0.0,0.0
592,147.75,75.3096,86.2953,138.374,109.987,116.675,0.00406093,0.112191,20.8844,66.3185,-0.533649,0.0,0.0
594,148.25,75.0595,85.7278,134.736,109.991,116.547,0.0040424,0.111879,20.885,66.3385,-0.523405,0.0,0.0
596,148.75,75.0559,85.9224,138.9,109.996,117.217,0.00400398,0.111627,20.8854,66.3485,-0.574825,0.0,0.0
598,149.25,75.1544,85.1081,134.027,110.008,117.157,0.00394891,0.111335,20.8857,66.3285,-0.569164,0.0,0.0
600,149.75,74.6184,85.3732,138.429,109.999,115.79,0.00388275,0.110999,20.886,66.3385,-0.463811,0.0,0.0
602,150.25,74.5406,85.2297,138.236,109.985,117.375,0.00381053,0.110749,20.8862,66.3285,-0.587819,0.0,0.0
604,150.75,74.0466,84.6595,135.019,109.993,116.245,0.00373525,0.11032,20.8864,66.3585,-0.499738,0.0,0.0
606,151.25,74.519,84.6462,135.027,109.986,116.674,0.00366431,0.109974,20.8872,66.3485,-0.533646,0.0,0.0
608,151.75,74.1383,84.6995,133.514,109.969,116.297,0.00359787,0.109375,20.8878,66.3485,-0.505754,0.0,0.0
610,152.25,74.2559,84.5073,136.333,109.968,115.869,0.00353873,0.10889,20.8883,66.3185,-0.472552,0.0,0.0
612,152.75,73.7722,84.0778,140.402,109.98,116.054,0.00348604,0.108399,20.8887,66.3185,-0.48596,0.0,0.0
614,153.25,74.1428,84.3886,133.561,109.976,116.183,0.00343805,0.107913,20.889,66.2884,-0.496399,0.0,0.0
616,153.75,73.8928,84.1907,140.085,109.98,116.363,0.00339439,0.107443,20.8893,66.2784,-0.510027,0.0,0.0
618,154.25,73.7655,83.8087,136.874,109.986,116.475,0.00335903,0.106995,20.8897,66.2484,-0.518198,0.0,0.0
620,154.75,73.3949,83.6653,135.157,109.974,117.098,0.0033264,0.106578,20.8903,66.2484,-0.567402,0.0,0.0
622,155.25,73.3748,83.4383,134.975,109.977,116.253,0.00329638,0.106193,20.891,66.2484,-0.501681,0.0,0.0
624,155.75,73.007,83.3696,134.093,109.967,116.407,0.00327206,0.105812,20.8918,66.2384,-0.514504,0.0,0.0
626,156.25,73.4129,83.0009,133.354,109.98,116.827,0.00325237,0.105443,20.8924,66.2184,-0.546017,0.0,0.0
628,156.75,73.0616,83.2993,134.122,109.958,115.956,0.00323642,0.105143,20.8929,66.2384,-0.480137,0.0,0.0
630,157.25,73.1542,82.6535,136.196,109.98,115.705,0.00322981,0.104742,20.8933,66.2584,-0.458736,0.0,0.0
632,157.75,72.511,82.4411,134.404,109.963,116.768,0.00322445,0.104417,20.8936,66.2184,-0.542825,0.0,0.0
634,158.25,72.7861,82.3556,133.466,109.98,116.931,0.00323021,0.104154,20.8941,66.1983,-0.554037,0.0,0.0
636,158.75,72.8399,82.1259,132.612,109.956,115.758,0.00323488,0.10384,20.8948,66.2084,-0.46489,0.0,0.0
638,159.25,72.7561,82.3548,133.023,109.962,116.828,0.00324245,0.103586,20.8953,66.1883,-0.547513,0.0,0.0
640,159.75,72.6258,81.9728,133.707,109.953,116.778,0.00324858,0.103264,20.8957,66.2084,-0.544331,0.0,0.0
642,160.25,72.7365,81.6882,135.313,109.946,116.447,0.00325219,0.103004,20.896,66.2284,-0.519353,0.0,0.0
644,160.75,72.7445,81.6433,136.882,109.943,116.575,0.00325389,0.102747,20.8963,66.1883,-0.529494,0.0,0.0
646,161.25,72.4971,81.4687,135.527,109.958,116.443,0.00325527,0.102499,20.8965,66.1983,-0.51798,0.0,0.0
648,161.75,72.293,81.3902,138.105,109.945,116.421,0.00325173,0.102237,20.8966,66.1883,-0.517382,0.0,0.0
650,162.25,71.8244,81.196,131.829,109.954,116.218,0.00324468,0.10197,20.8966,66.1483,-0.500859,0.0,0.0
652,162.75,72.0163,80.7117,136.833,109.936,117.123,0.00323033,0.101754,20.8966,66.1483,-0.572483,0.0,0.0
654,163.25,71.91,80.6908,132.015,109.938,116.689,0.00321093,0.101333,20.897,66.1683,-0.538714,0.0,0.0
656,163.75,72.066,80.8893,135.105,109.937,116.502,0.00318593,0.100992,20.8974,66.1683,-0.524396,0.0,0.0
658,164.25,71.8447,80.6777,131.936,109.93,116.96,0.00315731,0.100485,20.8977,66.1683,-0.560381,0.0,0.0
660,164.75,71.9378,80.7338,133.114,109.931,116.47,0.00313412,0.100075,20.8979,66.1583,-0.522282,0.0,0.0
662,165.25,71.4222,80.8146,136.375,109.938,116.531,0.0031034,0.0996746,20.8981,66.1583,-0.526447,0.0,0.0
664,165.75,71.3639,80.4306,135.067,109.917,116.015,0.00306776,0.099289,20.8987,66.1483,-0.488057,0.0,0.0
666,166.25,72.0911,79.9676,135.55,109.925,115.633,0.00302961,0.0989387,20.8991,66.1283,-0.45768,0.0,0.0
668,166.75,71.2056,80.2211,131.476,109.911,116.095,0.00299034,0.098621,20.8995,66.1183,-0.494829,0.0,0.0
670,167.25,71.5767,79.9526,136.291,109.929,116.573,0.00294727,0.0983636,20.8998,66.1383,-0.530467,0.0,0.0
672,167.75,71.4714,79.3627,133.944,109.89,116.217,0.00290224,0.0981551,20.9001,66.1383,-0.505991,0.0,0.0
674,168.25,71.1558,79.5418,137.298,109.902,115.828,0.00286576,0.0977994,20.9003,66.1283,-0.474749,0.0,0.0
676,168.75,71.5304,79.1043,135.231,109.886,115.359,0.00281634,0.0975113,20.9005,66.1183,-0.439363,0.0,0.0
678,169.25,71.0245,79.1334,134.004,109.889,117.191,0.00275843,0.0970911,20.9011,66.1383,-0.581537,0.0,0.0
680,169.75,70.9677,79.3205,135.825,109.882,115.994,0.00271152,0.0967507,20.9015,66.1183,-0.48936,0.0,0.0
682,170.25,70.5629,78.8832,138.878,109.894,116.644,0.00264208,0.0963601,20.9019,66.0983,-0.538834,0.0,0.0
684,170.75,70.7764,79.0269,135.585,109.871,116.312,0.00258584,0.0960438,20.9022,66.0882,-0.514986,0.0,0.0
686,171.25,70.8278,78.6843,134.513,109.89,116.058,0.00252023,0.0957497,20.9025,66.0882,-0.493744,0.0,0.0
688,171.75,71.4376,78.5726,136.749,109.871,116.549,0.00246708,0.0954775,20.9029,66.0882,-0.533438,0.0,0.0
690,172.25,70.4597,78.9816,131.516,109.87,116.244,0.00241273,0.095257,20.9032,66.0882,-0.509751,0.0,0.0
692,172.75,70.7539,78.1949,135.994,109.848,116.479,0.00236871,0.0949062,20.9034,66.0482,-0.52988,0.0,0.0
694,173.25,70.686,78.4974,137.318,109.851,116.569,0.00232049,0.094622,20.9038,66.0582,-0.536571,0.0,0.0
696,173.75,70.4463,78.4966,137.069,109.838,116.116,0.00228143,0.0942943,20.9044,66.0482,-0.502459,0.0,0.0
698,174.25,70.4139,77.9105,135.432,109.847,115.824,0.00223223,0.093941,20.9048,66.0682,-0.479026,0.0,0.0
700,174.75,69.9938,77.6021,136.296,109.821,116.061,0.00219237,0.0935401,20.9052,66.0782,-0.499552,0.0,0.0
702,175.25,70.1534,77.8683,134.005,109.826,116.484,0.00214688,0.0932154,20.9055,66.0782,-0.532056,0.0,0.0
704,175.75,69.9674,77.78,137.607,109.804,116.638,0.00209814,0.0928233,20.9061,66.0682,-0.54584,0.0,0.0
706,176.25,70.1902,78.0616,136.925,109.805,116.396,0.00205867,0.0925058,20.9067,66.0682,-0.526943,0.0,0.0
708,176.75,69.979,77.6342,135.276,109.79,116.899,0.00202294,0.0920908,20.9071,66.0582,-0.567174,0.0,0.0
710,177.25,70.3983,77.3467,136.791,109.798,116.426,0.00199399,0.0917547,20.9075,66.0282,-0.529803,0.0,0.0
712,177.75,69.6078,77.2222,132.803,109.778,116.575,0.00197682,0.0914146,20.9083,66.0382,-0.54302,0.0,0.0
714,178.25,69.9052,77.0889,136.154,109.783,116.307,0.0019629,0.091078,20.9093,66.0182,-0.521852,0.0,0.0
716,178.75,69.7486,77.1593,138.594,109.763,116.166,0.00194899,0.0908053,20.9101,66.0182,-0.512522,0.0,0.0
718,179.25,69.5733,77.0096,137.579,109.769,115.627,0.00193535,0.0903983,20.9108,65.9882,-0.469965,0.0,0.0
720,179.75,69.8022,76.6305,133.403,109.757,115.981,0.00191045,0.0900685,20.9114,65.9882,-0.498617,0.0,0.0
722,180.25,69.5564,76.7473,135.496,109.755,115.719,0.0018778,0.0895723,20.9118,65.9982,-0.478324,0.0,0.0
724,180.75,69.6533,76.7204,135.593,109.739,115.48,0.00185136,0.0891704,20.9122,65.9982,-0.460938,0.0,0.0
726,181.25,69.6674,76.4301,135.91,109.721,116.221,0.00178606,0.0885587,20.9127,65.9982,-0.520277,0.0,0.0
728,181.75,69.6777,76.1269,130.365,109.725,116.131,0.00173317,0.0880632,20.9133,66.0082,-0.512942,0.0,0.0
730,182.25,68.8024,76.5547,133.966,109.718,116.502,0.00167387,0.0874962,20.9138,65.9982,-0.542335,0.0,0.0
732,182.75,69.1907,76.3681,134.86,109.719,115.282,0.00161101,0.086888,20.9145,65.9882,-0.447124,0.0,0.0
734,183.25,69.3052,76.1852,136.657,109.704,116.476,0.00155221,0.0863953,20.9151,65.9982,-0.541426,0.0,0.0
736,183.75,69.265,76.2481,138.277,109.69,114.902,0.00149747,0.0857663,20.916,65.9882,-0.419632,0.0,0.0
738,184.25,69.2013,75.561,137.341,109.689,115.279,0.00144326,0.0852569,20.9167,65.9581,-0.449295,0.0,0.0
740,184.75,68.857,76.193,138.922,109.676,116.395,0.00139047,0.0846864,20.9178,65.9681,-0.537482,0.0,0.0
742,185.25,69.1534,75.7383,138.951,109.676,115.528,0.00133786,0.0840822,20.9186,65.9882,-0.469882,0.0,0.0
744,185.75,68.9034,75.7995,133.528,109.665,116.343,0.00128636,0.0834651,20.9193,65.9681,-0.534424,0.0,0.0
746,186.25,68.8383,75.5906,136.624,109.635,115.693,0.00126441,0.0828503,20.9196,65.9481,-0.486243,0.0,0.0
748,186.75,68.6618,75.1115,139.003,109.622,116.23,0.00121188,0.0823523,20.9201,65.9581,-0.529126,0.0,0.0
750,187.25,68.8115,75.3432,134.322,109.616,115.411,0.00116934,0.0817492,20.9207,65.9381,-0.465665,0.0,0.0
752,187.75,68.6305,75.3849,132.511,109.609,115.735,0.00113488,0.0811481,20.9214,65.9381,-0.491641,0.0,0.0
754,188.25,68.5476,75.2023,135.263,109.596,114.537,0.00107328,0.0805599,20.9224,65.9381,-0.398648,0.0,0.0
756,188.75,68.0789,74.947,134.149,109.583,115.807,0.00102338,0.0799334,20.9235,65.9281,-0.499367,0.0,0.0
758,189.25,68.2911,74.7524,136.034,109.58,116.329,0.000982969,0.0795953,20.9243,65.9281,-0.540266,0.0,0.0
760,189.75,68.8788,75.2006,134.152,109.56,115.886,0.000931862,0.0790171,20.9251,65.9281,-0.507457,0.0,0.0
762,190.25,68.3014,74.6273,131.339,109.564,115.905,0.000873932,0.0785487,20.9256,65.9081,-0.508627,0.0,0.0
764,190.75,68.396,74.5466,137.152,109.55,115.933,0.000827009,0.0776567,20.9261,65.9281,-0.511892,0.0,0.0
766,191.25,68.0103,74.8229,136.25,109.539,116.15,0.00076569,0.0769342,20.9267,65.9381,-0.529705,0.0,0.0
768,191.75,68.193,74.9107,138.336,109.545,115.734,0.000733038,0.0763489,20.9277,65.9381,-0.496822,0.0,0.0
770,192.25,68.3171,74.3811,138.734,109.52,116.227,,0.0754481,,65.9181,-0.537333,0.0,0.0
772,192.75,68.0797,74.3549,136.099,109.525,116.134,,0.0747185,,65.9081,-0.529731,0.0,0.0
774,193.25,67.8484,74.3084,135.004,109.495,116.402,,0.0739329,,65.9081,-0.553018,0.0,0.0
776,193.75,68.1626,74.0798,135.275,109.497,116.397,,0.0731216,,65.8781,-0.552367,0.0,0.0
778,194.25,68.1151,74.1604,135.856,109.494,115.778,,0.0724645,,65.8781,-0.504466,0.0,0.0
780,194.75,67.5402,74.2206,134.562,109.499,115.821,,0.0713203,,65.8881,-0.50738,0.0,0.0
782,195.25,68.1537,73.7501,134.307,109.501,115.36,,,,65.8781,-0.471171,0.0,0.0
784,195.75,67.8257,74.2636,140.07,109.518,115.962,,,,65.8781,-0.516888,0.0,0.0
786,196.25,67.8095,73.5674,134.116,109.509,115.702,,,,65.8981,-0.497259,0.0,0.0
788,196.75,67.9828,73.5061,132.867,109.535,115.592,,,,65.8881,-0.486559,0.0,0.0
790,197.25,67.825,73.8071,136.369,109.517,115.378,,,,65.8781,-0.471242,0.0,0.0
792,197.75,68.0462,73.6018,133.549,109.541,115.792,,,,65.8881,-0.501653,0.0,0.0
794,198.25,67.5972,73.7179,132.714,109.529,116.708,,,,65.8781,-0.573927,0.0,0.0
796,198.75,68.0163,73.6138,136.04,109.549,116.216,,,,65.868,-0.534055,0.0,0.0
798,199.25,68.0126,73.2352,136.32,109.544,116.558,,,,65.8781,-0.561044,0.0,0.0
800,199.75,67.6602,73.4001,135.744,109.56,116.181,,,,65.828,-0.530466,0.0,0.0
802,200.25,67.5954,73.0154,133.759,109.572,115.28,,,,65.828,-0.459055,0.0,0.0
804,200.75,67.424,73.2127,135,109.56,115.273,,,,65.848,-0.459527,0.0,0.0
806,201.25,67.8038,72.9049,136.063,109.566,115.866,,,,65.818,-0.505407,0.0,0.0
808,201.75,67.1341,73.2886,135.343,109.585,116.226,,,,65.808,-0.531844,0.0,0.0
810,202.25,67.3302,72.674,137.394,109.576,115.23,,,,65.818,-0.4548,0.0,0.0
812,202.75,67.8759,72.9879,138.539,109.586,116.315,,,,65.808,-0.538766,0.0,0.0