File: 01_Data/FRP_Panel/Cone/FRP_Panel_Cone_HF75Scan_220919_R2.csv
Names,Time,Stack TC,Smoke TC,Exh Press,Smoke Comp,Smoke Meas,CO Meter,CO2 Meter,O2 Meter,Sample Mass,Ext Coeff,Start Test,Flame Verif
Chan Gain,,500,500,1,1,1,1,1,1,1,1,1.0,1.0
Offset,,0,0,0.143022,0,0,0,0,0,0,0,0.0,0.0
Gain,,1,1,25.011,14.5176,16.5692,1,1,1,1.00088,1.03055,1.0,1.0
Units,sec,C,C,Pa,%,%,%,%,%,g,/m,,
Baseline,,64.2082,66.1508,138.253,110.47,116.941,-8.51123e-06,0.0426409,20.9552,-449.26,-0.514551,,
2,0.25,62.8098,64.8992,139.206,110.051,115.794,0.000278775,0.0440958,20.9515,74.3255,-0.459828,0.0,0.0
4,0.75,61.5952,63.9654,136.725,110.021,116.142,0.000263602,0.0441607,20.9514,74.3555,-0.489459,0.0,0.0
6,1.25,61.4069,63.5394,138.242,110.03,116.376,0.000243089,0.0441991,20.9517,74.2154,-0.506862,0.0,0.0
8,1.75,61.7211,62.9145,141.462,109.999,116.943,0.000216663,0.0442303,20.9519,74.2855,-0.553334,0.0,0.0
10,2.25,61.2378,63.2755,140.882,110.018,116.047,0.00018643,0.0442274,20.9521,74.2955,-0.482274,0.0,0.0
12,2.75,60.834,63.254,139.527,109.98,117.373,0.000161941,0.044225,20.9523,74.2254,-0.588102,0.0,0.0
14,3.25,61.643,63.3384,140.225,109.982,117.271,0.000125957,0.0442023,20.9524,74.2855,-0.580047,0.0,0.0
16,3.75,61.3786,62.9364,137.716,109.96,117.224,9.68106e-05,0.0441636,20.9525,74.2955,-0.578319,0.0,0.0
18,4.25,61.3682,63.5648,137.382,109.986,116.846,7.05872e-05,0.0441173,20.9526,74.2654,-0.546957,0.0,0.0
20,4.75,61.2551,62.9986,137.913,109.944,116.349,4.6993e-05,0.0440666,20.9531,74.3055,-0.51188,0.0,0.0
22,5.25,61.4461,63.5339,134.296,109.942,116.054,3.04965e-05,0.0440254,20.9535,74.2955,-0.48913,0.0,0.0
24,5.75,61.3324,63.3209,137.241,109.917,116.922,1.94875e-05,0.0439218,20.9538,74.2654,-0.558542,0.0,0.0
26,6.25,61.104,63.3616,139.078,109.923,116.54,1.05702e-05,0.0438378,20.9541,74.2654,-0.528431,0.0,0.0
28,6.75,61.2223,63.043,134.357,109.907,117.377,5.96187e-06,0.0437698,20.9543,74.2554,-0.594461,0.0,0.0
30,7.25,61.2168,63.3035,137.319,109.921,117.091,4.58238e-06,0.0437147,20.9545,74.2454,-0.571227,0.0,0.0
32,7.75,61.1821,62.9419,140.477,109.885,116.313,3.46499e-06,0.0436553,20.9546,74.2454,-0.513898,0.0,0.0
34,8.25,61.271,63.4827,136.324,109.879,116.114,-7.37596e-06,0.0435938,20.9547,74.2354,-0.498947,0.0,0.0
36,8.75,61.351,62.9206,135.5,109.868,116.661,-1.61571e-05,0.043544,20.9548,74.2454,-0.54232,0.0,0.0
38,9.25,61.3353,63.1367,138.921,109.863,116.883,-2.94795e-05,0.0434889,20.9548,74.2354,-0.559978,0.0,0.0
40,9.75,61.8026,63.3212,138.857,109.857,115.976,-4.02706e-05,0.0434309,20.9549,74.1954,-0.489944,0.0,0.0
42,10.25,61.0278,63.4045,138.354,109.868,116.664,-4.90113e-05,0.0433765,20.9549,74.2054,-0.542554,0.0,0.0
44,10.75,61.2759,63.3995,136.619,109.849,116.392,-4.86395e-05,0.0433258,20.9549,74.1854,-0.523055,0.0,0.0
46,11.25,61.4697,63.538,140.244,109.85,115.871,-4.83382e-05,0.0432848,20.955,74.1854,-0.482404,0.0,0.0
48,11.75,61.0873,63.0093,139.6,109.834,115.405,-2.32977e-05,0.0433218,20.9547,74.2054,-0.447231,0.0,0.0
50,12.25,61.4312,62.8536,133.659,109.831,116.381,-3.01493e-06,0.0433519,20.9541,74.2254,-0.523646,0.0,0.0
52,12.75,61.4758,63.433,139.329,109.813,115.762,5.69252e-05,0.0434725,20.9537,74.2254,-0.476905,0.0,0.0
54,13.25,61.9174,63.7729,139.633,109.827,116.105,0.000105477,0.0436568,20.9534,74.2254,-0.502507,0.0,0.0
56,13.75,61.298,63.2213,137.832,109.793,116.438,0.000219515,0.0438061,20.9524,74.2154,-0.531183,0.0,0.0
58,14.25,61.2901,63.1213,135.397,109.808,115.376,0.000311885,0.0444047,20.951,74.2254,-0.447201,0.0,0.0
60,14.75,61.1098,63.7593,140.759,109.787,116.287,0.000540338,0.0448895,20.9477,74.1854,-0.519949,0.0,0.0
62,15.25,61.5246,63.0449,136.297,109.785,116.398,0.000725385,0.0477106,20.9432,74.1654,-0.528702,0.0,0.0
64,15.75,61.4131,63.3598,140.088,109.769,115.973,0.00116553,0.0499957,20.9325,74.1754,-0.497004,0.0,0.0
66,16.25,61.2315,63.2319,138.5,109.779,116.562,0.00152204,0.0594519,20.9176,74.1554,-0.541966,0.0,0.0
68,16.75,61.6108,63.5275,132.639,109.764,114.902,0.00219421,0.0671114,20.9055,74.0953,-0.413497,0.0,1.0
70,17.25,61.2746,63.3463,129.964,109.768,107.841,0.00308371,0.0870497,20.8741,73.9752,0.160073,0.0,1.0
72,17.75,60.9943,63.4125,129.099,109.749,99.2952,0.00428057,0.1032,20.8486,74.0453,0.904899,0.0,1.0
74,18.25,61.8474,63.5514,130.619,109.748,95.3986,0.00567876,0.133053,20.8135,73.9852,1.26672,0.0,1.0
76,18.75,61.9873,63.4937,123.472,109.733,89.615,0.00681129,0.157233,20.772,73.9352,1.83085,0.0,1.0
78,19.25,62.397,63.364,125.768,109.744,87.1873,0.00916614,0.188876,20.7242,73.9952,2.07999,0.0,1.0
80,19.75,63.0138,64.3249,123.184,109.714,80.7656,0.0110736,0.225357,20.6728,73.755,2.76917,0.0,1.0
82,20.25,63.2698,64.211,124.381,109.713,75.167,0.0126804,0.270427,20.6254,73.6549,3.41848,0.0,1.0
84,20.75,63.4882,64.1354,120.027,109.705,74.2159,0.0165994,0.320902,20.5099,73.5548,3.53294,0.0,1.0
86,21.25,64.212,65.0353,118.474,109.696,65.6041,0.0187298,0.361786,20.4789,73.4748,4.64722,0.0,1.0
88,21.75,63.4828,64.1561,118.644,109.688,62.8752,0.0223729,0.436284,20.3615,73.3446,5.03061,0.0,1.0
90,22.25,63.584,64.3876,107.449,109.694,65.8342,0.026195,0.496628,20.2665,73.2245,4.61535,0.0,1.0
92,22.75,64.8863,64.9589,107.173,109.682,59.6253,0.0300748,0.589454,20.1267,73.0444,5.50989,0.0,1.0
94,23.25,65.7428,65.799,108.963,109.676,60.2306,0.0332175,0.629028,20.0134,72.9543,5.41804,0.0,0.0
96,23.75,66.5253,66.1701,94.5449,109.667,54.8186,0.0377196,0.752974,19.89,72.7841,6.26846,0.0,0.0
98,24.25,68.2254,67.4624,99.1651,109.656,54.4303,0.0413664,0.803622,19.7615,72.654,6.33178,0.0,0.0
100,24.75,68.8443,68.2103,93.774,109.659,53.0772,0.0452987,0.908344,19.6303,72.5039,6.55964,0.0,0.0
102,25.25,70.9619,68.9642,103.45,109.636,48.3028,0.048484,1.00947,19.4998,72.3438,7.40978,0.0,0.0
104,25.75,72.7013,70.3308,104.884,109.642,51.2128,0.0514701,1.09138,19.3941,72.1236,6.88149,0.0,0.0
106,26.25,73.7658,71.4734,93.4306,109.623,51.5971,0.0542544,1.18633,19.2779,72.0335,6.8123,0.0,0.0
108,26.75,76.2162,73.3196,103.729,109.622,49.0977,0.056789,1.26323,19.1838,71.8533,7.26106,0.0,0.0
110,27.25,77.7745,74.6575,101.461,109.62,48.2168,0.0590935,1.33381,19.0867,71.6832,7.42457,0.0,0.0
112,27.75,79.1431,75.663,99.494,109.611,53.0316,0.061463,1.39844,19.0081,71.493,6.56345,0.0,0.0
114,28.25,81.2821,77.8769,100.834,109.599,51.5015,0.0633823,1.45722,18.9349,71.3529,6.82709,0.0,0.0
116,28.75,82.989,79.1874,97.956,109.595,46.661,0.0649369,1.51062,18.867,71.2028,7.719,0.0,0.0
118,29.25,83.9153,81.3341,86.1879,109.585,44.7668,0.0655997,1.5626,18.8381,70.9926,8.09286,0.0,0.0
120,29.75,85.4303,82.3553,94.8961,109.591,46.7414,0.0677855,1.61254,18.7763,70.8324,7.70314,0.0,0.0
122,30.25,87.3389,84.08,94.4854,109.571,42.0636,0.0695561,1.66138,18.7154,70.6823,8.65469,0.0,0.0
124,30.75,88.3361,85.4241,85.7566,109.568,42.6648,0.0709902,1.70849,18.666,70.5422,8.52622,0.0,0.0
126,31.25,90.4407,87.0278,87.403,109.556,43.2387,0.0730493,1.74665,18.6154,70.322,8.4044,0.0,0.0
128,31.75,92.189,88.6226,95.9555,109.548,42.3513,0.0747172,1.78729,18.5651,70.2019,8.59124,0.0,0.0
130,32.25,93.4473,90.0981,101.459,109.533,37.8323,0.0764241,1.80923,18.5243,69.9717,9.60995,0.0,0.0
132,32.75,95.5148,91.7622,95.0014,109.536,43.9633,0.0781271,1.84674,18.4753,69.8015,8.25256,0.0,0.0
134,33.25,96.7303,93.4175,93.2474,109.517,40.2306,0.0797809,1.88584,18.4356,69.6114,9.053,0.0,0.0
136,33.75,98.3694,95.4492,85.807,109.523,38.3804,0.0813674,1.92534,18.3769,69.4412,9.47915,0.0,0.0
138,34.25,99.9898,97.0426,95.9234,109.489,42.4777,0.0828867,1.95734,18.3293,69.3211,8.55937,0.0,0.0
140,34.75,101.805,98.8072,90.6293,109.505,39.3922,0.0843281,1.99568,18.2576,69.1009,9.24246,0.0,0.0
142,35.25,103.319,100.324,90.2729,109.489,39.5424,0.0857213,2.03791,18.1995,68.9207,9.20671,0.0,0.0
144,35.75,105.084,101.624,91.0888,109.481,38.9184,0.0864221,2.08093,18.1619,68.7506,9.34984,0.0,0.0
146,36.25,106.387,103.412,88.9555,109.462,36.4079,0.0876205,2.1237,18.0975,68.5804,9.95104,0.0,0.0
148,36.75,108.415,104.919,83.6141,109.452,36.9894,0.0890864,2.16567,18.0375,68.3903,9.80703,0.0,0.0
150,37.25,110.184,107.034,83.6622,109.434,38.5306,0.0902738,2.20626,17.9818,68.1601,9.43646,0.0,0.0
152,37.75,111.366,108.527,92.5826,109.431,36.7254,0.0916131,2.24527,17.9366,67.9699,9.86997,0.0,0.0
154,38.25,113.402,110.449,82.7943,109.412,37.3807,0.0930376,2.2824,17.8859,67.7097,9.70855,0.0,0.0
156,38.75,115.29,112.251,89.2432,109.41,37.224,0.0945222,2.29822,17.8448,67.5896,9.74635,0.0,0.0
158,39.25,116.5,113.798,77.4453,109.399,37.3413,0.0960224,2.33812,17.7951,67.3994,9.71703,0.0,0.0
160,39.75,118.413,115.479,85.0803,109.391,37.7585,0.0972375,2.37043,17.7548,67.2092,9.61594,0.0,0.0
162,40.25,119.894,117.61,81.8082,109.373,36.4731,0.0989502,2.40388,17.7131,66.919,9.92757,0.0,0.0
164,40.75,121.224,119.483,87.9495,109.373,34.946,0.100337,2.43751,17.6711,66.7789,10.3141,0.0,0.0
166,41.25,123.381,120.713,85.9154,109.359,34.6148,0.102007,2.46475,17.6372,66.5887,10.3991,0.0,0.0
168,41.75,125.015,122.489,82.3524,109.352,34.5228,0.103359,2.49527,17.599,66.3585,10.4226,0.0,0.0
170,42.25,126.74,124.028,83.9392,109.328,34.5021,0.104454,2.51999,17.5681,66.1883,10.4261,0.0,0.0
172,42.75,128.137,125.83,90.4385,109.332,36.4933,0.105734,2.5433,17.5409,65.9581,9.91912,0.0,0.0
174,43.25,129.676,128.045,93.7771,109.31,33.152,0.10686,2.56219,17.5171,65.798,10.7854,0.0,0.0
176,43.75,131.187,129.94,81.8845,109.321,33.9211,0.107853,2.57956,17.492,65.5778,10.579,0.0,0.0
178,44.25,132.435,131.151,91.9849,109.289,34.9324,0.108658,2.59551,17.4716,65.4477,10.3107,0.0,0.0
180,44.75,133.987,133.16,81.4937,109.288,34.9299,0.109374,2.61077,17.4552,65.2175,10.3113,0.0,0.0
182,45.25,135.519,134.896,77.8712,109.268,34.94,0.110012,2.62524,17.4352,65.0273,10.3071,0.0,0.0
184,45.75,136.852,136.469,85.3192,109.264,32.9603,0.110577,2.63696,17.419,64.8171,10.834,0.0,0.0
186,46.25,138.275,137.898,83.6316,109.241,33.4159,0.111079,2.65027,17.4059,64.647,10.708,0.0,0.0
188,46.75,140.213,139.308,86.8496,109.256,31.8479,0.111528,2.66105,17.3953,64.4268,11.1437,0.0,0.0
190,47.25,141.164,141.253,85.2139,109.231,35.2413,0.11193,2.66917,17.3867,64.1565,10.2263,0.0,0.0
192,47.75,142.964,143.001,86.7489,109.244,35.6226,0.112245,2.67519,17.3797,64.0464,10.1302,0.0,0.0
194,48.25,143.515,144.458,89.2913,109.222,38.0098,0.112491,2.6773,17.3769,63.7562,9.54198,0.0,0.0
196,48.75,144.785,145.971,89.4478,109.23,34.3084,0.11269,2.67654,17.3771,63.6261,10.4688,0.0,0.0
198,49.25,146.44,147.624,75.918,109.188,34.9046,0.112633,2.67308,17.3843,63.3458,10.3096,0.0,0.0
200,49.75,147.415,149.307,79.4039,109.203,36.415,0.112392,2.66774,17.3902,63.2057,9.92792,0.0,0.0
202,50.25,148.885,150.224,90.737,109.197,32.6307,0.112023,2.66341,17.4003,63.0556,10.9193,0.0,0.0
204,50.75,149.743,151.812,90.6965,109.199,34,0.111723,2.65222,17.4134,62.8354,10.5479,0.0,0.0
206,51.25,150.597,153.086,86.9206,109.167,36.9742,0.111481,2.64316,17.4239,62.5952,9.7871,0.0,0.0
208,51.75,151.94,154.38,86.0718,109.174,35.6898,0.110192,2.62385,17.4325,62.455,10.1073,0.0,0.0
210,52.25,152.683,155.506,80.6449,109.157,34.9829,0.109148,2.6082,17.4483,62.3149,10.2867,0.0,0.0
212,52.75,154.26,157.315,87.8869,109.166,36.0458,0.108302,2.5821,17.469,62.1047,10.0169,0.0,0.0
214,53.25,154.638,158.282,84.7727,109.133,38.0487,0.106665,2.56096,17.4859,61.9246,9.52539,0.0,0.0
216,53.75,155.858,159.541,91.4491,109.135,39.7674,0.105517,2.53106,17.5025,61.7544,9.12611,0.0,0.0
218,54.25,156.412,160.75,92.178,109.111,42.3695,0.102905,2.49535,17.531,61.5943,8.55117,0.0,0.0
220,54.75,157.17,161.939,83.8301,109.103,41.1109,0.100207,2.46643,17.583,61.4442,8.8231,0.0,0.0
222,55.25,158.047,162.831,87.0626,109.106,42.2021,0.0980211,2.443,17.6251,61.3341,8.58654,0.0,0.0
224,55.75,158.539,164.125,89.2929,109.087,42.8468,0.0949993,2.40247,17.7067,61.1039,8.44795,0.0,0.0
226,56.25,159.305,164.643,91.3125,109.07,43.9638,0.0925517,2.35024,17.7728,60.9437,8.21391,0.0,0.0
228,56.75,159.641,165.48,93.6496,109.069,46.7515,0.0894274,2.32797,17.8777,60.8436,7.658,0.0,0.0
230,57.25,160.019,166.348,97.0897,109.06,45.1784,0.0863033,2.2602,17.9627,60.6935,7.96671,0.0,0.0
232,57.75,160.366,167.183,92.5894,109.05,45.3478,0.0832386,2.2053,18.0683,60.6034,7.932,0.0,0.0
234,58.25,160.548,167.629,96.7004,109.042,47.5312,0.0807562,2.13321,18.1538,60.4333,7.50623,0.0,0.0
236,58.75,160.359,168.01,93.4649,109.027,49.3298,0.0778132,2.07481,18.2231,60.3132,7.16923,0.0,0.0
238,59.25,160.465,168.416,95.928,109.022,51.1906,0.0745902,1.99876,18.3214,60.2331,6.83413,0.0,0.0
240,59.75,160.348,168.656,105.367,109.004,53.8887,0.0713254,1.93715,18.4009,60.0129,6.36828,0.0,0.0
242,60.25,160.682,169.287,102.927,109.006,55.1645,0.0680921,1.8579,18.5048,59.9428,6.15691,0.0,0.0
244,60.75,160.546,169.528,101.488,108.994,62.3341,0.0654731,1.79371,18.589,59.8327,5.05134,0.0,0.0
246,61.25,160.256,169.173,106.717,108.981,58.8178,0.0619669,1.72171,18.6812,59.8027,5.57517,0.0,0.0
248,61.75,159.755,169.789,100.47,108.973,60.5234,0.0591269,1.6454,18.7775,59.7026,5.3161,0.0,0.0
250,62.25,159.611,169.628,113.16,108.972,62.4206,0.055625,1.58359,18.8874,59.5725,5.03705,0.0,0.0
252,62.75,158.909,169.883,107.278,108.954,63.4268,0.0527884,1.49295,19.0053,59.5125,4.89097,0.0,0.0
254,63.25,159.05,169.788,117.399,108.945,64.2399,0.0493228,1.40458,19.1007,59.4524,4.77509,0.0,0.0
256,63.75,158.374,169.225,115.401,108.935,67.8315,0.0465157,1.31954,19.2201,59.3623,4.28241,0.0,0.0
258,64.25,157.219,169.065,113.099,108.931,66.8764,0.0435257,1.25066,19.3168,59.3023,4.41028,0.0,0.0
260,64.75,156.556,168.154,116.106,108.911,70.8685,0.0404593,1.16473,19.4342,59.2522,3.88453,0.0,0.0
262,65.25,155.485,167.758,122.378,108.918,72.702,0.0379755,1.09512,19.5292,59.2422,3.65418,0.0,0.0
264,65.75,154.433,167.605,121.373,108.897,80.1795,0.0352432,1.01592,19.6062,59.2022,2.76744,0.0,0.0
266,66.25,153.92,166.928,125.57,108.894,82.5768,0.0323816,0.95177,19.699,59.1421,2.50086,0.0,0.0
268,66.75,152.627,166.309,122.092,108.884,85.6057,0.0296345,0.886619,19.7741,59.1421,2.17437,0.0,0.0
270,67.25,151.702,165.598,122.51,108.886,92.1362,0.0270231,0.821975,19.87,59.1021,1.50998,0.0,0.0
272,67.75,150.461,165.05,127.19,108.86,95.3127,0.0245521,0.769615,19.9477,59.052,1.2014,0.0,0.0
274,68.25,149.392,163.99,129.77,108.864,98.8133,0.0222304,0.706483,20.0354,59.022,0.87567,0.0,0.0
276,68.75,148.532,163.342,128.304,108.858,101.659,0.0201247,0.655346,20.1065,58.972,0.618522,0.0,0.0
278,69.25,147.313,162.485,126.251,108.857,105.974,0.0191203,0.604882,20.1515,58.9319,0.242649,0.0,0.0
280,69.75,146.184,161.325,130.217,108.836,109.245,0.0172364,0.555869,20.2284,58.9319,-0.0339707,0.0,0.0
282,70.25,145.132,160.578,131.994,108.836,111.316,0.0155608,0.516167,20.3067,58.9119,-0.203677,0.0,0.0
284,70.75,144.035,159.607,130.855,108.818,113.208,0.0140833,0.473194,20.3701,58.9419,-0.357511,0.0,0.0
286,71.25,142.963,158.463,134.109,108.818,114.157,0.0127782,0.434616,20.4265,58.952,-0.432947,0.0,0.0
288,71.75,141.552,157.961,133.438,108.798,115.098,0.0117211,0.399973,20.4769,58.9219,-0.508852,0.0,0.0
290,72.25,140.547,157.239,131.204,108.804,114.51,0.0108648,0.385205,20.5177,58.9019,-0.46203,0.0,0.0
292,72.75,139.321,156.325,131.924,108.801,114.972,0.00989792,0.354893,20.5543,58.9019,-0.498736,0.0,0.0
294,73.25,138.343,154.813,132.755,108.8,115.039,0.00911472,0.330341,20.587,58.9419,-0.504057,0.0,0.0
296,73.75,137.472,154.547,135.578,108.793,115.469,0.00837945,0.30697,20.6135,58.9419,-0.538437,0.0,0.0
298,74.25,136.228,153.529,131.307,108.794,114.907,0.00778389,0.28804,20.6399,58.952,-0.494235,0.0,0.0
300,74.75,135.325,152.522,133.636,108.774,115.026,0.00724721,0.270853,20.6612,58.9419,-0.505236,0.0,0.0
302,75.25,134.379,151.827,133.501,108.789,116.315,0.00676367,0.255264,20.6785,58.9319,-0.604718,0.0,0.0
304,75.75,133.205,150.837,133.564,108.759,115.71,0.006372,0.242637,20.6974,58.9319,-0.560059,0.0,0.0
306,76.25,132.345,150.017,131.828,108.768,115.66,0.00599859,0.230274,20.7127,58.9019,-0.555411,0.0,0.0
308,76.75,131.116,149.284,131.661,108.751,114.789,0.00564559,0.220259,20.7286,58.9019,-0.488533,0.0,0.0
310,77.25,130.532,148.411,133.189,108.752,115.174,0.00535966,0.211376,20.7414,58.9219,-0.518639,0.0,0.0
312,77.75,128.176,145.986,133.637,108.729,115.004,0.00507989,0.203488,20.754,58.9119,-0.507246,0.0,0.0
314,78.25,127.168,145.269,132.783,108.737,115.493,0.00485327,0.197098,20.7642,58.9219,-0.544937,0.0,0.0
316,78.75,125.922,144.222,132.715,108.717,115.079,0.00464692,0.191922,20.7738,58.9219,-0.514082,0.0,0.0
318,79.25,125.149,143.078,133.712,108.73,115.574,0.00447977,0.186389,20.7815,58.8919,-0.551857,0.0,0.0
320,79.75,124.516,142.814,133.489,108.727,115.471,0.00432907,0.181907,20.7878,58.9019,-0.544045,0.0,0.0
322,80.25,124.073,142.374,131.468,108.731,115.848,0.0041932,0.177653,20.7943,58.8819,-0.57312,0.0,0.0
324,80.75,123.168,141.464,129.568,108.712,115.708,0.00406585,0.174207,20.7995,58.9119,-0.563842,0.0,0.0
326,81.25,122.045,140.376,133.067,108.709,116.236,0.00394712,0.170808,20.805,58.8919,-0.605175,0.0,0.0
328,81.75,121.292,139.605,130.151,108.689,114.997,0.00385096,0.168054,20.8095,58.8519,-0.509969,0.0,0.0
330,82.25,120.132,138.651,133.41,108.702,115.626,0.0037339,0.165232,20.8136,58.7618,-0.558213,0.0,0.0
332,82.75,119.514,138.42,134.98,108.673,115.469,0.00363908,0.162946,20.8174,58.7718,-0.548379,0.0,0.0
334,83.25,118.873,137.982,130.936,108.694,115.344,0.00353829,0.161094,20.8206,58.7818,-0.536827,0.0,0.0
336,83.75,118.534,137.095,133.493,108.681,115.791,0.00341123,0.159166,20.8247,58.7718,-0.57286,0.0,0.0
338,84.25,117.691,136.423,134.854,108.686,115.921,0.00337034,0.157603,20.826,58.7418,-0.582635,0.0,0.0
340,84.75,116.707,135.068,135.773,108.663,115.188,0.00330043,0.156235,20.8283,58.7318,-0.527193,0.0,0.0
342,85.25,116.153,134.669,137.126,108.67,115.311,0.00323183,0.155126,20.8304,58.7618,-0.536201,0.0,0.0
344,85.75,115.572,133.797,131.476,108.648,115.629,0.00316549,0.154213,20.8323,58.7418,-0.562947,0.0,0.0
346,86.25,114.274,133.162,130.646,108.651,115.615,0.00311175,0.153474,20.8338,58.7418,-0.561581,0.0,0.0
348,86.75,114.006,132.712,129.889,108.648,114.405,0.0030594,0.15243,20.8349,58.7218,-0.466727,0.0,0.0
350,87.25,113.148,131.669,133.823,108.65,114.956,0.003017,0.15215,20.8358,58.7117,-0.510026,0.0,0.0
352,87.75,112.552,131.701,132.367,108.641,115.636,0.00298643,0.15156,20.8367,58.7017,-0.56409,0.0,0.0
354,88.25,112.035,130.762,130.292,108.637,115.374,0.00296167,0.150984,20.8377,58.6917,-0.543919,0.0,0.0
356,88.75,111.343,130.204,133.918,108.621,115.222,0.00294918,0.150463,20.8384,58.7117,-0.533353,0.0,0.0
358,89.25,110.708,129.397,135.598,108.624,115.512,0.00294105,0.149992,20.8391,58.6817,-0.555838,0.0,0.0
360,89.75,110.247,129.258,134.167,108.615,116.091,0.00293626,0.14961,20.8398,58.6717,-0.601809,0.0,0.0
362,90.25,109.78,128.224,133.588,108.618,115.607,0.00293238,0.149316,20.8406,58.6217,-0.56379,0.0,0.0
364,90.75,108.904,127.7,134.637,108.601,115.536,0.00292167,0.149078,20.8413,58.6017,-0.559615,0.0,0.0
366,91.25,108.731,127.128,134.183,108.603,116.026,0.002913,0.148914,20.8418,58.5816,-0.597687,0.0,0.0
368,91.75,107.934,126.552,132.943,108.598,115.167,0.00289841,0.148782,20.8427,58.5616,-0.530946,0.0,0.0
370,92.25,107.675,126.124,135.211,108.602,115.562,0.0028866,0.148733,20.8434,58.5516,-0.561559,0.0,0.0
372,92.75,106.91,125.6,130.624,108.587,115.184,0.00287703,0.148694,20.844,58.5316,-0.533177,0.0,0.0
374,93.25,106.643,124.817,134.256,108.597,115.401,0.00288188,0.148736,20.8445,58.5216,-0.54934,0.0,0.0
376,93.75,105.856,124.308,133.636,108.583,116.09,0.00288581,0.148771,20.8449,58.5216,-0.604349,0.0,0.0
378,94.25,105.653,123.823,133.301,108.604,115.992,0.00290286,0.148739,20.8452,58.5416,-0.594897,0.0,0.0
380,94.75,104.879,123.152,135.582,108.57,115.116,0.00291667,0.148714,20.8454,58.5716,-0.529262,0.0,0.0
382,95.25,104.35,122.315,130.339,108.591,115.502,0.0029325,0.148639,20.8458,58.5616,-0.557699,0.0,0.0
384,95.75,103.997,121.94,131.445,108.566,115.136,0.00294951,0.148529,20.8464,58.5416,-0.531103,0.0,0.0
386,96.25,103.463,121.843,131.757,108.571,115.149,0.00296328,0.14844,20.8469,58.5016,-0.531766,0.0,0.0
388,96.75,102.736,120.986,130.778,108.557,115.466,0.00297444,0.148236,20.8472,58.5216,-0.557766,0.0,0.0
390,97.25,102.87,120.443,133.025,108.566,116.26,0.00298215,0.14807,20.8475,58.5316,-0.619007,0.0,0.0
392,97.75,101.729,120.162,138.66,108.58,115.285,0.0029872,0.147744,20.8478,58.5316,-0.541701,0.0,0.0
394,98.25,101.757,119.661,130.928,108.559,115.272,0.00299129,0.14748,20.8484,58.5216,-0.542367,0.0,0.0
396,98.75,100.719,119.17,132.267,108.553,114.944,0.0029893,0.147197,20.8489,58.5116,-0.517151,0.0,0.0
398,99.25,100.639,118.864,136.53,108.563,114.814,0.0029829,0.146904,20.849,58.4815,-0.506073,0.0,0.0
400,99.75,100.277,118.023,129.722,108.564,115.538,0.00297772,0.146621,20.8491,58.4515,-0.562758,0.0,0.0
402,100.25,99.8822,117.683,134.523,108.545,115.483,0.00296689,0.146349,20.8491,58.4515,-0.560145,0.0,0.0
404,100.75,99.4964,117.242,132.319,108.56,116.15,0.00295215,0.146129,20.8496,58.4515,-0.610912,0.0,0.0
406,101.25,99.109,116.613,132.999,108.543,115.356,0.00293423,0.145951,20.85,58.4115,-0.550312,0.0,0.0
408,101.75,98.2119,115.965,136.933,108.549,114.872,0.00291435,0.14563,20.8503,58.4115,-0.511871,0.0,0.0
410,102.25,98.1157,115.754,134.014,108.529,115.548,0.00289493,0.14537,20.8506,58.4115,-0.56654,0.0,0.0
412,102.75,97.6366,115.084,134.981,108.549,115.841,0.00287622,0.145101,20.8512,58.4015,-0.58768,0.0,0.0
414,103.25,97.0956,114.602,132.659,108.538,115.602,0.00286106,0.144883,20.8518,58.4115,-0.569997,0.0,0.0
416,103.75,96.6353,114.411,132.358,108.548,115.001,0.0028513,0.144768,20.8522,58.4015,-0.522086,0.0,0.0
418,104.25,96.5942,113.359,132.184,108.542,115.348,0.0028434,0.144731,20.8526,58.3714,-0.549715,0.0,0.0
420,104.75,96.3209,113.344,136.185,108.534,115.715,0.00284077,0.1447,20.8531,58.3614,-0.57918,0.0,0.0
422,105.25,95.7349,113.102,132.71,108.533,115.183,0.00283865,0.144661,20.8537,58.3414,-0.537602,0.0,0.0
424,105.75,95.295,112.536,128.856,108.53,114.625,0.00283826,0.14463,20.8542,58.3014,-0.493981,0.0,0.0
426,106.25,95.2111,111.905,133.935,108.529,114.902,0.0028395,0.144442,20.8554,58.2914,-0.515879,0.0,0.0
428,106.75,94.5484,111.481,133.82,108.533,115.818,0.00283984,0.14429,20.8557,58.3114,-0.587269,0.0,0.0
430,107.25,94.8587,111.207,132.744,108.523,116.204,0.00284307,0.144082,20.8563,58.2914,-0.618181,0.0,0.0
432,107.75,93.8061,110.496,135.637,108.538,115.115,0.00284807,0.143837,20.8568,58.2513,-0.531839,0.0,0.0
434,108.25,93.7227,110.165,134.652,108.519,115.578,0.00285212,0.143599,20.8571,58.2814,-0.569686,0.0,0.0
436,108.75,93.1004,109.905,131.701,108.525,115.617,0.00286548,0.143372,20.8574,58.2613,-0.572288,0.0,0.0
438,109.25,93.2016,109.518,137.219,108.528,115.91,0.00288228,0.14311,20.8577,58.2613,-0.594932,0.0,0.0
440,109.75,92.4074,109.29,134.849,108.534,115.342,0.00290126,0.143008,20.8579,58.2814,-0.549943,0.0,0.0
442,110.25,92.3826,108.21,132.126,108.529,115.345,0.00291664,0.142835,20.858,58.2613,-0.550584,0.0,0.0
444,110.75,91.9432,108.568,132.219,108.533,115.254,0.00292909,0.142694,20.8581,58.2513,-0.543156,0.0,0.0
446,111.25,91.4621,108.073,132.134,108.523,114.415,0.00293918,0.142359,20.8583,58.2013,-0.477927,0.0,0.0
448,111.75,91.6416,107.687,135.867,108.536,115.366,0.00292466,0.142089,20.8588,58.2013,-0.551658,0.0,0.0
450,112.25,91.4593,106.591,136.416,108.529,115.399,0.00289566,0.141605,20.8592,58.1713,-0.554823,0.0,0.0
452,112.75,90.7348,106.839,135.872,108.537,115.913,0.00285666,0.141213,20.8596,58.1713,-0.594357,0.0,0.0
454,113.25,90.5819,106.577,133.708,108.534,115.837,0.00282506,0.140631,20.8598,58.1312,-0.588696,0.0,0.0
456,113.75,90.4051,106.132,134.338,108.549,115.291,0.00278225,0.14016,20.8601,58.1513,-0.544761,0.0,0.0
458,114.25,90.1619,105.631,139.042,108.529,115.704,0.00273207,0.139603,20.8602,58.1813,-0.578715,0.0,0.0
460,114.75,89.8697,105.319,134.645,108.545,115.461,0.00269142,0.139151,20.8604,58.1613,-0.558366,0.0,0.0
462,115.25,89.2054,104.605,136.308,108.544,115.838,0.00265976,0.138668,20.8605,58.1112,-0.587923,0.0,0.0
464,115.75,89.0417,104.335,133.515,108.531,115.375,0.00263411,0.138277,20.8606,58.1212,-0.552777,0.0,0.0
466,116.25,88.5558,103.902,135.205,108.528,115.987,0.00262194,0.137921,20.8607,58.1212,-0.600885,0.0,0.0
468,116.75,88.948,104.139,136.799,108.549,115.443,0.00261984,0.137599,20.8612,58.1513,-0.556684,0.0,0.0
470,117.25,88.1005,103.351,133.369,108.534,115.153,0.00263006,0.137337,20.8616,58.1312,-0.535149,0.0,0.0
472,117.75,88.2902,103.576,134.072,108.538,115.902,0.00264908,0.137064,20.8619,58.0712,-0.593415,0.0,0.0
474,118.25,87.8026,102.662,133.423,108.537,115.391,0.00267973,0.136787,20.8622,58.1012,-0.553489,0.0,0.0
476,118.75,87.3609,102.717,131.745,108.544,115.664,0.00271829,0.136447,20.8629,58.1212,-0.574377,0.0,0.0
478,119.25,87.1458,102.195,132.083,108.534,115.876,0.00274952,0.136067,20.8634,58.0912,-0.591733,0.0,0.0
480,119.75,87.4731,101.825,139.443,108.546,115.648,0.00280003,0.135644,20.8643,58.0412,-0.572928,0.0,0.0
482,120.25,86.8849,101.568,133.562,108.533,115.416,0.00284094,0.135198,20.865,58.0412,-0.555841,0.0,0.0
484,120.75,86.6578,101.396,137.595,108.553,115.467,0.00288537,0.134836,20.8656,58.0512,-0.558216,0.0,0.0
486,121.25,86.019,101.193,136.772,108.537,115.589,0.00293152,0.134382,20.866,58.0612,-0.56908,0.0,0.0
488,121.75,85.8551,100.479,133.76,108.55,115.523,0.0029689,0.134014,20.8664,58.0712,-0.562828,0.0,0.0
490,122.25,85.7555,100.165,132.439,108.552,115.4,0.00300914,0.133541,20.8667,58.0512,-0.553021,0.0,0.0
492,122.75,85.5755,99.97,134.681,108.555,115.742,0.00305071,0.133158,20.8677,58.0612,-0.579578,0.0,0.0
494,123.25,85.4865,99.0561,137.367,108.552,115.853,0.00306843,0.132693,20.8682,58.0311,-0.588442,0.0,0.0
496,123.75,85.1391,99.5525,132.011,108.569,115.33,0.00310338,0.132179,20.8689,58.0412,-0.546077,0.0,0.0
498,124.25,85.0419,98.9518,132.076,108.568,115.788,0.00313588,0.131762,20.8695,58.0211,-0.581989,0.0,0.0
500,124.75,84.7925,99.0956,136.324,108.568,115.828,0.00316021,0.131424,20.87,58.0011,-0.585144,0.0,0.0
502,125.25,84.3707,98.5857,134.56,108.564,115.226,0.00317812,0.130669,20.8704,57.9911,-0.538388,0.0,0.0
504,125.75,84.4603,98.2938,133.216,108.57,115.263,0.00317735,0.130057,20.8707,57.9811,-0.540771,0.0,0.0
506,126.25,84.181,98.038,134.99,108.568,115.872,0.00316297,0.129689,20.8714,57.9711,-0.588579,0.0,0.0
508,126.75,84.0523,98.0737,135.22,108.584,115.368,0.00315133,0.129059,20.8719,57.9511,-0.547872,0.0,0.0
510,127.25,83.2055,97.4309,128.353,108.576,115.682,0.00310028,0.128505,20.8724,57.9611,-0.573031,0.0,0.0
512,127.75,83.2907,96.7151,133.277,108.583,115.493,0.00305893,0.128057,20.8728,57.9511,-0.557727,0.0,0.0
514,128.25,83.3204,96.8255,132.157,108.561,115.185,0.00301682,0.127601,20.8731,57.9311,-0.535396,0.0,0.0
516,128.75,83.0746,96.5123,131.034,108.585,115.489,0.00297495,0.127149,20.8733,57.921,-0.557186,0.0,0.0
518,129.25,82.655,95.8187,135.253,108.577,115.909,0.00294103,0.126661,20.8735,57.921,-0.590721,0.0,0.0
520,129.75,82.5251,95.8575,133.228,108.587,115.627,0.00292112,0.126155,20.8739,57.9311,-0.567801,0.0,0.0
522,130.25,82.3522,95.5908,131.068,108.601,115.263,0.00290499,0.125745,20.8744,57.921,-0.538225,0.0,0.0
524,130.75,82.4448,95.1495,133.496,108.603,115.676,0.0028957,0.125221,20.8749,57.911,-0.570343,0.0,0.0
526,131.25,82.418,95.4528,136.446,108.602,115.866,0.00288818,0.124624,20.8752,57.891,-0.58534,0.0,0.0
528,131.75,82.0402,94.9095,133.04,108.626,115.2,0.00288461,0.124141,20.8755,57.881,-0.531167,0.0,0.0
530,132.25,82.4069,94.5309,138.044,108.613,115.586,0.00288172,0.123532,20.8757,57.871,-0.562535,0.0,0.0
532,132.75,81.4485,94.4738,135.63,108.63,115.934,0.00290081,0.123038,20.8761,57.871,-0.588302,0.0,0.0
534,133.25,81.3248,94.1465,133.558,108.615,115.867,0.00291627,0.122362,20.8767,57.851,-0.584236,0.0,0.0
536,133.75,81.148,94.0418,132.956,108.621,115.817,0.00296791,0.121814,20.8771,57.831,-0.579927,0.0,0.0
538,134.25,81.1006,93.3374,133.655,108.634,115.735,0.00300973,0.121225,20.8775,57.811,-0.572422,0.0,0.0
540,134.75,80.7909,93.4548,137.21,108.648,115.9,0.00306488,0.120748,20.8778,57.821,-0.584111,0.0,0.0
542,135.25,80.8596,93.1921,135.352,108.648,115.511,0.0031287,0.120304,20.878,57.8009,-0.553691,0.0,0.0
544,135.75,80.4829,93.03,134.041,108.649,115.794,0.00318039,0.119944,20.8782,57.8009,-0.575711,0.0,0.0
546,136.25,80.0456,92.5904,133.203,108.646,116.141,0.00323616,0.119606,20.8784,57.8009,-0.603051,0.0,0.0
548,136.75,80.525,92.4869,134.672,108.659,115.528,0.00328133,0.119291,20.8789,57.7909,-0.554076,0.0,0.0
550,137.25,80.3603,92.3255,136.675,108.651,115.397,0.00331463,0.11893,20.8794,57.7909,-0.544522,0.0,0.0
552,137.75,79.6667,92.1492,134.879,108.665,115.824,0.00333864,0.11854,20.8798,57.7809,-0.576716,0.0,0.0
554,138.25,79.3657,91.5378,137.382,108.673,114.577,0.00335143,0.118225,20.8801,57.7709,-0.478203,0.0,0.0
556,138.75,79.6389,91.5304,138.54,108.677,115.168,0.0033558,0.117679,20.8809,57.7609,-0.524389,0.0,0.0
558,139.25,79.8217,91.2173,135.756,108.669,115.661,0.00335004,0.117237,20.8816,57.7709,-0.563701,0.0,0.0
560,139.75,79.4349,91.0087,134.095,108.689,115.701,0.00333699,0.116826,20.8822,57.7709,-0.56513,0.0,0.0
562,140.25,78.9258,90.5693,135.569,108.698,115.365,0.00332642,0.116445,20.8826,57.7709,-0.53812,0.0,0.0
564,140.75,79.0235,90.6992,137.381,108.695,115.409,0.00330145,0.116136,20.883,57.7609,-0.541824,0.0,0.0
566,141.25,79.2352,90.5336,135.024,108.704,115.476,0.00328122,0.115785,20.8833,57.7609,-0.546317,0.0,0.0
568,141.75,78.4791,90.3817,134.234,108.715,116.052,0.00325421,0.115448,20.8835,57.7509,-0.590447,0.0,0.0
570,142.25,78.8891,89.8186,135.262,108.724,115.781,0.00322276,0.115127,20.8837,57.7509,-0.56846,0.0,0.0
572,142.75,78.1785,89.8749,131.194,108.744,115.48,0.00318401,0.114791,20.8843,57.7609,-0.543318,0.0,0.0
574,143.25,78.4111,89.6247,137.724,108.746,114.707,0.00314068,0.11445,20.8848,57.7409,-0.482448,0.0,0.0
576,143.75,78.2696,89.183,133.112,108.747,114.882,0.00309496,0.114173,20.8852,57.7109,-0.496149,0.0,0.0
578,144.25,78.3769,89.0404,137.047,108.761,115.39,0.00304838,0.113646,20.8855,57.7109,-0.53487,0.0,0.0
580,144.75,77.6064,88.9197,135.616,108.755,115.586,0.00301065,0.113218,20.8858,57.7109,-0.550707,0.0,0.0
582,145.25,77.9172,88.6609,135.695,108.784,115.961,0.00298008,0.112719,20.8864,57.6808,-0.57757,0.0,0.0
584,145.75,78.0257,88.6242,138.7,108.779,115.432,0.00294021,0.112178,20.887,57.6808,-0.536651,0.0,0.0
586,146.25,77.9899,88.7718,137.588,108.78,115.465,0.00290791,0.111656,20.8874,57.6708,-0.539151,0.0,0.0
588,146.75,77.1249,88.3341,139.416,108.798,115.669,0.00287843,0.111158,20.8878,57.6208,-0.553619,0.0,0.0
590,147.25,77.5162,87.8578,134.976,108.802,115.826,0.00285157,0.110694,20.8881,57.6508,-0.565529,0.0,0.0
592,147.75,77.3182,88.0489,135.749,108.809,116.259,0.00282981,0.110263,20.8883,57.6408,-0.598696,0.0,0.0
594,148.25,77.1017,87.4527,134.999,108.828,115.955,0.00280589,0.109914,20.8885,57.6408,-0.573416,0.0,0.0
596,148.75,77.0206,87.4224,138.294,108.845,114.848,0.00278652,0.109631,20.8887,57.6308,-0.48535,0.0,0.0
598,149.25,76.7494,86.8434,135.985,108.842,115.653,0.00275691,0.10907,20.8888,57.6408,-0.548749,0.0,0.0
600,149.75,77.037,86.8958,135.419,108.848,115.685,0.00272041,0.108615,20.8889,57.6308,-0.550684,0.0,0.0
602,150.25,76.6704,86.7237,133.904,108.884,116.32,0.00268223,0.108156,20.8894,57.6308,-0.597236,0.0,0.0
604,150.75,76.6486,86.4805,133.874,108.867,116.103,0.00264356,0.107702,20.8899,57.6308,-0.581757,0.0,0.0
606,151.25,76.4072,86.1942,137.159,108.877,116.056,0.0026043,0.107334,20.8902,57.6208,-0.577251,0.0,0.0
608,151.75,76.4959,86.2296,133.88,108.881,116.029,0.00256535,0.106848,20.8905,57.6208,-0.574754,0.0,0.0
610,152.25,76.1113,86.4018,136.802,108.908,115.835,0.00253379,0.106455,20.8907,57.6208,-0.557446,0.0,0.0
612,152.75,76.187,85.747,135.182,108.903,116.346,0.00249315,0.106076,20.8909,57.6108,-0.597621,0.0,0.0
614,153.25,75.758,85.8678,135.312,108.938,116.066,0.00245296,0.105714,20.8915,57.5908,-0.572925,0.0,0.0
616,153.75,75.8931,85.3618,135.606,108.933,115.978,0.00241385,0.10539,20.892,57.5807,-0.566508,0.0,0.0
618,154.25,75.6224,85.7238,134.844,108.958,115.973,0.00237953,0.105101,20.8928,57.5707,-0.563982,0.0,0.0
620,154.75,75.5135,85.2719,133.038,108.957,115.706,0.00234935,0.104821,20.8935,57.5707,-0.543258,0.0,0.0
622,155.25,75.9284,85.2749,135.308,108.976,116.12,0.00232491,0.104553,20.894,57.5507,-0.574051,0.0,0.0
624,155.75,75.2572,85.0824,135.873,108.98,115.901,0.00231039,0.104268,20.8945,57.5707,-0.556619,0.0,0.0
626,156.25,75.709,84.7907,132.559,108.997,115.793,0.0023034,0.103975,20.8948,57.5607,-0.546745,0.0,0.0
628,156.75,75.3225,84.675,139.596,109.014,116.047,0.00229774,0.103663,20.8951,57.5307,-0.565181,0.0,0.0
630,157.25,75.9102,84.6525,132.919,109.039,115.842,0.00228059,0.103341,20.8954,57.5307,-0.547157,0.0,0.0
632,157.75,75.3374,84.282,135.48,109.023,116.134,0.00226669,0.10308,20.8955,57.5207,-0.571184,0.0,0.0
634,158.25,75.1876,84.3368,133.804,109.057,115.787,0.00222907,0.102754,20.8957,57.5307,-0.541312,0.0,0.0
636,158.75,75.0094,84.0489,132.756,109.062,115.728,0.0021986,0.10249,20.8958,57.5307,-0.536251,0.0,0.0
638,159.25,74.9176,84.1804,133.192,109.077,115.831,0.00215936,0.102276,20.8959,57.5507,-0.543093,0.0,0.0
640,159.75,74.7411,83.6273,132.527,109.063,116.314,0.00211447,0.102059,20.8959,57.5207,-0.581841,0.0,0.0
642,160.25,75.1635,83.6891,136.485,109.097,115.05,0.00207284,0.101884,20.8958,57.5107,-0.480301,0.0,0.0
644,160.75,74.7271,83.4769,133.685,109.081,116.296,0.00203436,0.10167,20.8958,57.5107,-0.578996,0.0,0.0
646,161.25,74.463,83.7088,135.395,109.112,115.751,0.00200319,0.101496,20.896,57.5007,-0.533916,0.0,0.0
648,161.75,74.397,83.2622,131.428,109.107,115.507,0.00197795,0.101254,20.8963,57.4807,-0.515302,0.0,0.0
650,162.25,74.6029,83.3971,134.287,109.123,116.776,0.00196212,0.101057,20.8966,57.4807,-0.61273,0.0,0.0
652,162.75,74.4521,83.0192,138.056,109.117,115.982,0.00195345,0.100769,20.8973,57.4706,-0.551505,0.0,0.0
654,163.25,73.9316,82.8804,129.144,109.146,116.206,0.00194644,0.100535,20.8978,57.4807,-0.566599,0.0,0.0
656,163.75,74.0882,82.6887,134.064,109.155,116.284,0.00195455,0.100101,20.8983,57.4706,-0.571886,0.0,0.0
658,164.25,73.9746,82.3435,132.89,109.159,116.138,0.00196113,0.0997491,20.8986,57.4506,-0.560265,0.0,0.0
660,164.75,73.881,82.4806,134.867,109.155,115.754,0.00196771,0.0993281,20.8989,57.4506,-0.530596,0.0,0.0
662,165.25,73.3919,82.2412,135.661,109.167,115.492,0.00197303,0.0988645,20.8991,57.4206,-0.509161,0.0,0.0
664,165.75,73.4412,82.3152,139.523,109.164,116.567,0.00197108,0.098489,20.8998,57.4206,-0.5931,0.0,0.0
666,166.25,73.6578,81.9015,135.84,109.187,116.537,0.00196949,0.0979836,20.9003,57.4306,-0.588918,0.0,0.0
668,166.75,73.5725,81.7724,139.203,109.19,115.844,0.00195441,0.0975742,20.9009,57.4206,-0.534685,0.0,0.0
670,167.25,73.8866,82.1355,138.095,109.204,116.12,0.0019422,0.0970846,20.9017,57.4006,-0.555066,0.0,0.0
672,167.75,73.1903,81.688,135.222,109.207,115.894,0.00190472,0.096688,20.9023,57.3906,-0.537273,0.0,0.0
674,168.25,73.0546,81.4499,137.217,109.216,116.277,0.00187437,0.0962232,20.9028,57.3606,-0.566351,0.0,0.0
676,168.75,73.1989,81.1592,137.465,109.228,116.143,0.00184978,0.0958467,20.9032,57.3806,-0.554973,0.0,0.0
678,169.25,73.2346,81.5647,132.595,109.236,116.592,0.00182987,0.0954125,20.9035,57.3906,-0.589158,0.0,0.0
680,169.75,73.0605,80.5321,133.825,109.247,115.986,0.0017795,0.0950608,20.9037,57.3806,-0.541073,0.0,0.0
682,170.25,72.6965,81.1238,134.844,109.255,115.299,0.00170788,0.0946476,20.9049,57.3606,-0.486731,0.0,0.0
684,170.75,72.9107,80.4387,136.504,109.25,116.334,0.00164329,0.0941973,20.9059,57.3706,-0.567966,0.0,0.0
686,171.25,72.8172,80.5453,133.34,109.274,115.664,0.00158505,0.0938325,20.9068,57.3706,-0.513734,0.0,0.0
688,171.75,72.2178,80.494,136.531,109.272,116.52,0.00153524,0.0933333,20.9076,57.3606,-0.580578,0.0,0.0
690,172.25,72.8837,80.0945,132.283,109.276,116.285,0.00149252,0.0927456,20.9082,57.3606,-0.561952,0.0,0.0
692,172.75,72.685,79.9389,138.177,109.272,116.689,0.00145332,0.0922695,20.9087,57.3505,-0.593598,0.0,0.0
694,173.25,72.3868,79.8312,133.757,109.297,115.944,0.00141742,0.0918091,20.91,57.3606,-0.533698,0.0,0.0
696,173.75,72.3587,79.8751,134.45,109.295,116.307,0.00137715,0.0913689,20.9111,57.3706,-0.562105,0.0,0.0
698,174.25,72.002,79.9734,132.51,109.3,116.351,0.00133448,0.0909369,20.9123,57.3806,-0.56512,0.0,0.0
700,174.75,71.8507,79.7286,135.698,109.313,116.256,0.00129991,0.0905192,20.9134,57.3505,-0.556671,0.0,0.0
702,175.25,72.1679,79.2104,131.57,109.305,116.06,0.00125318,0.0900451,20.9142,57.3405,-0.542023,0.0,0.0
704,175.75,72.0159,79.116,135.382,109.335,117.306,0.00121532,0.0895391,20.9149,57.3405,-0.636175,0.0,0.0
706,176.25,72.0978,79.424,133.105,109.321,115.682,0.00118466,0.0891292,20.9155,57.3305,-0.511235,0.0,0.0
708,176.75,71.7836,79.2621,136.059,109.329,116.617,0.00114484,0.0883822,20.9164,57.3305,-0.58342,0.0,0.0
710,177.25,71.5697,79.2561,133.178,109.322,116.548,0.00111259,0.0877772,20.9171,57.3105,-0.578598,0.0,0.0
712,177.75,72.213,79.4052,134.367,109.335,116.942,0.00108272,0.086944,20.9179,57.3405,-0.608036,0.0,0.0
714,178.25,72.2497,79.0275,135.127,109.346,116.605,0.00105852,0.0862692,20.9188,57.3205,-0.581014,0.0,0.0
716,178.75,71.4318,79.0584,132.071,109.347,116.33,0.00104642,0.0855571,20.9197,57.3005,-0.559587,0.0,0.0
718,179.25,71.5516,78.305,137.156,109.369,116.815,0.00103661,0.0848315,20.9207,57.3205,-0.595436,0.0,0.0
720,179.75,71.6425,78.7995,136.433,109.354,115.364,0.00103615,0.0842438,20.9215,57.3205,-0.483673,0.0,0.0
722,180.25,71.7931,78.5341,135.024,109.364,115.415,0.00103579,0.0832825,20.9226,57.3205,-0.486871,0.0,0.0
724,180.75,71.3555,78.326,134.543,109.375,115.618,0.00103155,0.0825038,20.9234,57.3105,-0.501823,0.0,0.0
726,181.25,71.8244,78.6505,134.35,109.383,116.243,0.00102457,0.0814739,20.925,57.3105,-0.54986,0.0,0.0
728,181.75,71.522,77.98,134.985,109.391,116.783,0.00100249,0.0806397,20.9263,57.2905,-0.591103,0.0,0.0
730,182.25,70.8366,77.9201,132.771,109.384,116.206,0.000969835,0.0798139,20.9274,57.2905,-0.546879,0.0,0.0
732,182.75,71.8004,77.9021,136.219,109.396,116.335,0.000943383,0.0790102,20.9282,57.3005,-0.555918,0.0,0.0
734,183.25,71.4691,77.8624,139.589,109.394,116.783,0.000884575,0.0781568,20.9289,57.2905,-0.590846,0.0,0.0
736,183.75,71.5051,77.9869,131.807,109.408,117.374,0.000803296,0.0772835,20.9299,57.3005,-0.635353,0.0,0.0
738,184.25,71.1998,77.3778,134.323,109.408,116.632,0.000711924,0.0763964,20.9307,57.2905,-0.577965,0.0,0.0
740,184.75,70.9615,77.7929,136.219,109.427,117.294,0.000614931,0.0755162,20.9318,57.2805,-0.627548,0.0,0.0
742,185.25,70.5316,77.3246,136.865,109.412,116.502,0.000536366,0.0748032,20.9327,57.2905,-0.56767,0.0,0.0
744,185.75,71.0176,77.2241,132.399,109.424,116.876,0.000442904,0.0740087,20.9337,57.2705,-0.595594,0.0,0.0
746,186.25,70.6716,77.0117,134.687,109.428,116.041,,0.0731699,,57.2705,-0.530386,0.0,0.0
748,186.75,70.4916,77.4409,139.534,109.434,115.47,,0.0724905,,57.2605,-0.485327,0.0,0.0
750,187.25,70.7776,76.8732,138.201,109.428,116.675,,0.0715426,,57.2705,-0.579648,0.0,0.0
752,187.75,70.8246,77.3507,137.687,109.443,116.231,,0.0707747,,57.2605,-0.54394,0.0,0.0
754,188.25,70.4641,76.7884,136.401,109.436,115.96,,0.0698548,,57.2404,-0.523422,0.0,0.0
756,188.75,70.7591,76.7694,137.571,109.451,116.165,,0.0691096,,57.2605,-0.538204,0.0,0.0
758,189.25,70.3114,76.7599,133.87,109.445,116.246,,,,57.2605,-0.54497,0.0,0.0
760,189.75,70.5583,76.4103,139.479,109.456,116.265,,,,57.2505,-0.545551,0.0,0.0
762,190.25,70.5273,76.5061,134.941,109.45,116.498,,,,57.2204,-0.564169,0.0,0.0
764,190.75,70.2374,76.1023,137.997,109.477,116.771,,,,57.2204,-0.583064,0.0,0.0
766,191.25,70.0117,76.7771,137.621,109.468,115.341,,,,57.2204,-0.472485,0.0,0.0
768,191.75,70.0735,75.9728,134.706,109.481,115.741,,,,57.1804,-0.502718,0.0,0.0
770,192.25,69.7068,75.7098,137.324,109.46,116.012,,,,57.2905,-0.525581,0.0,0.0
772,192.75,70.3159,75.7699,136.274,109.493,116.088,,,,57.2605,-0.528706,0.0,0.0
774,193.25,70.3176,76.0297,133.113,109.482,116.523,,,,57.2204,-0.563496,0.0,0.0
776,193.75,69.8699,75.6562,135.972,109.496,116.355,,,,57.2404,-0.549253,0.0,0.0
778,194.25,69.9806,75.9667,133.261,109.484,116.44,,,,57.2304,-0.556841,0.0,0.0
780,194.75,69.7559,75.753,134.392,109.497,116.511,,,,57.2004,-0.561272,0.0,0.0
782,195.25,69.4753,75.5276,138.233,109.492,115.887,,,,57.2505,-0.513094,0.0,0.0
784,195.75,69.4704,75.5565,135.586,109.515,116.055,,,,57.2004,-0.524354,0.0,0.0
786,196.25,69.4953,74.9944,136.319,109.518,116.37,,,,57.2104,-0.548606,0.0,0.0
788,196.75,69.6509,75.5599,136.606,109.524,116.557,,,,57.1704,-0.562613,0.0,0.0