File: 01_Data/FRP_Panel/Cone/FRP_Panel_Cone_HF75Scan_220919_R3.csv
Names,Time,Stack TC,Smoke TC,Exh Press,Smoke Comp,Smoke Meas,CO Meter,CO2 Meter,O2 Meter,Sample Mass,Ext Coeff,Start Test,Flame Verif
Chan Gain,,500,500,1,1,1,1,1,1,1,1,1.0,1.0
Offset,,0,0,0.143022,0,0,0,0,0,0,0,0.0,0.0
Gain,,1,1,25.011,14.5176,16.5692,1,1,1,1.00088,1.03055,1.0,1.0
Units,sec,C,C,Pa,%,%,%,%,%,g,/m,,
Baseline,,66.4049,68.4257,137.549,109.679,116.683,6.05519e-05,0.0427628,20.9553,-449.481,-0.559547,,
2,0.25,64.4101,66.1114,140.066,109.313,115.87,0.000220576,0.0445206,20.955,81.8822,-0.526582,0.0,0.0
4,0.75,62.7477,65.3058,136.26,109.276,116.656,0.000231861,0.0444754,20.955,81.8421,-0.590722,0.0,0.0
6,1.25,63.116,65.0264,138.806,109.301,116.34,0.000245584,0.0443988,20.955,81.9522,-0.564146,0.0,0.0
8,1.75,63.2148,64.9203,137.201,109.289,115.878,0.000260825,0.0443368,20.955,81.8922,-0.529229,0.0,0.0
10,2.25,62.6187,64.4792,134.249,109.299,115.887,0.000274479,0.0442865,20.955,81.8521,-0.529095,0.0,0.0
12,2.75,62.9998,65.059,138.716,109.276,115.713,0.000286718,0.0441333,20.9554,81.9022,-0.517346,0.0,0.0
14,3.25,62.5974,64.8112,141.915,109.294,115.913,0.000290084,0.0440091,20.9558,81.9022,-0.531587,0.0,0.0
16,3.75,62.9166,64.5557,136.914,109.288,115.14,0.000286919,0.0438863,20.9561,81.8622,-0.471528,0.0,0.0
18,4.25,63.1384,65.1124,137.199,109.284,115.8,0.000284355,0.0437669,20.9563,81.9022,-0.523519,0.0,0.0
20,4.75,62.7083,64.3328,141.888,109.291,116.341,0.000258656,0.043685,20.9565,81.9022,-0.565071,0.0,0.0
22,5.25,62.7088,64.8616,137.094,109.279,116.574,0.000237839,0.0436319,20.9566,81.8722,-0.584152,0.0,0.0
24,5.75,62.725,64.5751,137.761,109.257,116.842,0.000184951,0.043589,20.9567,81.8922,-0.606705,0.0,0.0
26,6.25,62.4018,64.3207,136.996,109.268,116.557,0.000142112,0.0435401,20.9569,81.8922,-0.583811,0.0,0.0
28,6.75,62.5695,64.6706,137.94,109.29,116.09,0.000107412,0.0435005,20.9569,81.9022,-0.545669,0.0,0.0
30,7.25,62.6813,64.1872,137.443,109.282,115.876,4.70155e-05,0.0434122,20.957,81.8722,-0.52966,0.0,0.0
32,7.75,62.7871,64.5615,136.301,109.274,116.333,-1.90557e-06,0.0433406,20.957,81.8321,-0.565868,0.0,0.0
34,8.25,62.7683,64.8142,138.249,109.272,116.539,-5.51931e-05,0.0432679,20.9571,81.8421,-0.582032,0.0,0.0
36,8.75,62.8326,64.5297,137.52,109.275,116.289,-9.83561e-05,0.0431956,20.9571,81.8421,-0.562376,0.0,0.0
38,9.25,63.242,64.5766,137.822,109.278,115.962,-0.000143253,0.0431371,20.9572,81.8521,-0.536654,0.0,0.0
40,9.75,62.8815,65.0696,137.633,109.264,115.781,-0.00017962,0.0430897,20.9572,81.8622,-0.523668,0.0,0.0
42,10.25,62.7563,64.6969,133.981,109.271,115.889,-0.000201626,0.0430513,20.957,81.8421,-0.531599,0.0,0.0
44,10.75,63.1129,64.9105,138.775,109.251,115.058,-0.00021945,0.0430061,20.9566,81.8521,-0.468133,0.0,0.0
46,11.25,62.5082,64.4447,136.205,109.274,115.413,-0.000211533,0.0429695,20.9563,81.8722,-0.49415,0.0,0.0
48,11.75,63.064,64.7728,135.537,109.268,115.915,-0.000205121,0.0429399,20.956,81.8421,-0.53383,0.0,0.0
50,12.25,62.9583,64.2309,136.156,109.252,115.707,-0.000180056,0.0429159,20.9558,81.7921,-0.518928,0.0,0.0
52,12.75,63.2224,64.6371,138.9,109.262,115.762,-0.000159754,0.0428964,20.9556,81.7921,-0.522426,0.0,0.0
54,13.25,62.8183,64.5986,138.45,109.284,115.217,-0.000143309,0.0428807,20.9555,81.8121,-0.477924,0.0,0.0
56,13.75,63.1311,64.9139,138.598,109.256,115.852,-0.000114299,0.0429523,20.9554,81.8221,-0.529928,0.0,0.0
58,14.25,63.0818,64.5248,140.853,109.254,115.664,-7.66806e-05,0.0430104,20.9553,81.8321,-0.515386,0.0,0.0
60,14.75,62.5952,64.7096,139.169,109.25,114.843,-1.41407e-05,0.0431907,20.9552,81.8021,-0.451307,0.0,0.0
62,15.25,63.0166,64.6648,135.18,109.256,115.505,6.53788e-05,0.0434567,20.9547,81.8021,-0.502785,0.0,0.0
64,15.75,63.2238,65.005,136.907,109.255,116.111,0.00012979,0.0436721,20.9539,81.7721,-0.550141,0.0,0.0
66,16.25,63.0256,64.9141,137.588,109.266,114.622,0.000402905,0.0449315,20.9527,81.7821,-0.432577,0.0,0.0
68,16.75,62.7879,64.7448,139.308,109.256,114.217,0.000624129,0.0459515,20.9514,81.7521,-0.40146,0.0,0.0
70,17.25,63.2344,64.8155,136.353,109.259,113.706,0.00111259,0.0508403,20.9431,81.652,-0.360648,0.0,0.0
72,17.75,62.8886,64.7029,135.141,109.252,114.799,0.00150824,0.0584565,20.9298,81.672,-0.447773,0.0,0.0
74,18.25,62.8664,64.6154,131.801,109.237,111.47,0.0023793,0.0646256,20.9035,81.652,-0.182906,0.0,1.0
76,18.75,63.0363,64.61,130.878,109.256,105.394,0.00308486,0.0872573,20.868,81.652,0.325348,0.0,1.0
78,19.25,63.4994,64.6068,129.053,109.273,97.3009,0.00452005,0.105589,20.8237,81.5319,1.04899,0.0,1.0
80,19.75,63.6392,64.8117,124.283,109.237,87.5489,0.00568256,0.139777,20.7738,81.4918,2.00077,0.0,1.0
82,20.25,63.6933,65.1653,125.497,109.246,82.7396,0.00749168,0.167469,20.7334,81.4418,2.51221,0.0,1.0
84,20.75,64.0065,65.5154,123.811,109.244,82.3144,0.0097378,0.210646,20.6718,81.2916,2.55861,0.0,1.0
86,21.25,64.2252,65.0561,122.065,109.238,77.9708,0.0115572,0.24562,20.6219,81.2416,3.04823,0.0,1.0
88,21.75,64.8567,65.8146,116.558,109.239,70.9489,0.0147148,0.298584,20.5815,81.1815,3.90145,0.0,1.0
90,22.25,65.4775,65.9326,121.947,109.232,69.6635,0.0172726,0.341485,20.5299,81.0715,4.0661,0.0,1.0
92,22.75,65.6937,66.2968,111.307,109.248,64.9296,0.0193443,0.396416,20.4711,80.9914,4.70359,0.0,1.0
94,23.25,65.789,65.4854,115.637,109.229,64.9994,0.0227876,0.459073,20.4235,80.9013,4.6923,0.0,1.0
96,23.75,66.2628,65.9312,115.453,109.243,60.5911,0.0271653,0.509825,20.3412,80.6511,5.32834,0.0,1.0
98,24.25,67.1477,66.6816,105.941,109.232,58.8866,0.0316208,0.603825,20.2745,80.581,5.58538,0.0,1.0
100,24.75,67.3411,66.9979,105.386,109.24,55.0264,0.0360484,0.679965,20.1375,80.3808,6.19898,0.0,1.0
102,25.25,68.3149,68.1346,95.9295,109.224,55.0264,0.0403728,0.741639,20.0266,80.2207,6.19762,0.0,1.0
104,25.75,69.8373,68.6009,89.1913,109.232,57.6098,0.0445399,0.833897,19.8906,80.0506,5.78358,0.0,1.0
106,26.25,71.5435,70.1148,102.185,109.22,54.5931,0.0479153,0.946698,19.7388,79.9405,6.2688,0.0,0.0
108,26.75,73.1674,71.4405,93.2321,109.238,49.93,0.0515278,1.03807,19.5792,79.7603,7.0774,0.0,0.0
110,27.25,75.1744,72.3968,93.8626,109.22,49.3207,0.0544539,1.154,19.417,79.5601,7.18693,0.0,0.0
112,27.75,76.8685,73.8914,93.3504,109.234,52.2363,0.0568241,1.2479,19.2856,79.43,6.66891,0.0,0.0
114,28.25,78.3459,75.2339,88.8433,109.207,51.1734,0.0594059,1.34135,19.1682,79.2699,6.85248,0.0,0.0
116,28.75,80.2381,77.0359,92.2544,109.22,48.1228,0.0614971,1.41705,19.0632,79.1297,7.4092,0.0,0.0
118,29.25,82.0624,78.5549,93.0741,109.211,47.8841,0.0636458,1.4893,18.9703,78.9796,7.45338,0.0,0.0
120,29.75,83.8129,80.5821,92.7909,109.225,46.6984,0.0653863,1.54782,18.8878,78.8095,7.68119,0.0,0.0
122,30.25,85.3522,82.0287,91.2888,109.2,47.0847,0.0672551,1.60199,18.8117,78.6393,7.60466,0.0,0.0
124,30.75,87.223,83.9963,93.0359,109.217,46.7676,0.0687689,1.65194,18.7417,78.4792,7.66713,0.0,0.0
126,31.25,88.478,85.4882,92.5757,109.202,46.9952,0.0704792,1.6924,18.6747,78.3491,7.622,0.0,0.0
128,31.75,90.4564,87.2165,95.1311,109.218,44.9493,0.0718646,1.73882,18.6112,78.1189,8.02576,0.0,0.0
130,32.25,92.1884,87.9883,92.5841,109.202,44.741,0.0735544,1.77643,18.5597,77.9787,8.06636,0.0,0.0
132,32.75,93.7009,90.1229,89.8844,109.205,43.3555,0.0749232,1.81729,18.5021,77.7785,8.35102,0.0,0.0
134,33.25,94.7553,91.7844,88.3907,109.192,43.3798,0.0766433,1.8504,18.4554,77.6584,8.34489,0.0,0.0
136,33.75,96.7852,93.0677,90.2981,109.204,43.3242,0.0780366,1.88371,18.3994,77.4282,8.35745,0.0,0.0
138,34.25,98.8775,94.7796,88.7494,109.209,44.0326,0.0791652,1.91654,18.3541,77.2881,8.21126,0.0,0.0
140,34.75,100.309,96.627,86.5306,109.219,40.3302,0.0805643,1.95103,18.3173,77.108,9.00607,0.0,0.0
142,35.25,101.334,98.5503,83.3011,109.214,42.8822,0.0821341,1.98609,18.269,76.9478,8.45098,0.0,0.0
144,35.75,103.527,99.7753,87.0778,109.24,37.2174,0.0837567,2.02286,18.2298,76.7476,9.73388,0.0,0.0
146,36.25,105.089,101.52,91.4941,109.226,40.2235,0.0853869,2.06017,18.1873,76.5975,9.03061,0.0,0.0
148,36.75,105.929,102.884,91.2239,109.248,40.8748,0.0867074,2.09039,18.1432,76.3873,8.88721,0.0,0.0
150,37.25,108.218,105.123,89.9042,109.238,37.8105,0.0885623,2.13573,18.0945,76.2672,9.59084,0.0,0.0
152,37.75,109.98,106.833,82.4661,109.254,38.0674,0.0900648,2.17245,18.0432,76.047,9.53092,0.0,0.0
154,38.25,111.747,108.226,81.9982,109.245,36.327,0.0918967,2.21166,17.9886,75.8569,9.9532,0.0,0.0
156,38.75,113.345,110.579,78.4307,109.267,36.2961,0.0933805,2.25193,17.9327,75.6267,9.96275,0.0,0.0
158,39.25,115.089,111.945,85.6184,109.252,35.033,0.0951608,2.28454,17.8771,75.4365,10.2817,0.0,0.0
160,39.75,116.792,114.024,84.9422,109.273,34.9754,0.0966029,2.32478,17.8228,75.2463,10.2983,0.0,0.0
162,40.25,118.531,115.606,78.7268,109.269,33.7709,0.0983194,2.35737,17.7714,75.0562,10.6148,0.0,0.0
164,40.75,119.909,117.632,82.1997,109.29,34.5875,0.0997098,2.39013,17.723,74.836,10.4005,0.0,0.0
166,41.25,121.798,119.359,87.0099,109.291,35.4441,0.100836,2.42239,17.6838,74.6758,10.1795,0.0,0.0
168,41.75,123.314,121.288,84.4873,109.313,34.2624,0.102534,2.45389,17.6443,74.4957,10.4878,0.0,0.0
170,42.25,125.4,122.862,94.3312,109.3,35.5341,0.103909,2.48423,17.6055,74.2654,10.1573,0.0,0.0
172,42.75,126.762,124.909,87.9151,109.321,36.0028,0.105601,2.51376,17.5674,74.0753,10.0406,0.0,0.0
174,43.25,128.206,126.499,78.3009,109.323,35.5179,0.106972,2.54214,17.5308,73.8551,10.1633,0.0,0.0
176,43.75,130.155,127.99,84.1438,109.315,35.1599,0.108524,2.56923,17.501,73.6449,10.2542,0.0,0.0
178,44.25,131.267,130.054,80.432,109.326,36.6076,0.109781,2.59487,17.4681,73.4347,9.89038,0.0,0.0
180,44.75,133.328,132.148,92.5536,109.339,36.0301,0.110987,2.61563,17.4414,73.3046,10.0352,0.0,0.0
182,45.25,134.613,133.569,83.7797,109.339,35.0224,0.112132,2.63376,17.4198,73.0744,10.2917,0.0,0.0
184,45.75,136.485,135.353,83.1706,109.381,35.8759,0.11306,2.64844,17.4023,72.8842,10.0774,0.0,0.0
186,46.25,137.487,137.158,83.7194,109.357,34.6846,0.113849,2.65969,17.3882,72.6841,10.3807,0.0,0.0
188,46.75,139.026,138.996,80.4488,109.376,34.4449,0.114521,2.66822,17.3774,72.5239,10.445,0.0,0.0
190,47.25,140.714,140.861,82.5073,109.383,33.5772,0.115065,2.67513,17.3694,72.2737,10.6762,0.0,0.0
192,47.75,141.681,142.386,78.0353,109.388,31.7417,0.115128,2.67765,17.3651,72.1436,11.1848,0.0,0.0
194,48.25,143.332,143.938,85.3574,109.4,35.6352,0.115179,2.67969,17.3634,71.8633,10.1399,0.0,0.0
196,48.75,144.705,145.545,85.3513,109.395,35.5998,0.115221,2.68134,17.3621,71.6832,10.1484,0.0,0.0
198,49.25,145.995,147.294,85.9741,109.408,34.4859,0.114561,2.68147,17.3611,71.5331,10.4368,0.0,0.0
200,49.75,147.108,149.025,81.3014,109.416,37.5203,0.114026,2.68157,17.3605,71.2928,9.67515,0.0,0.0
202,50.25,148.441,150.25,80.8297,109.425,36.87,0.113036,2.68051,17.3626,71.0626,9.834,0.0,0.0
204,50.75,149.878,151.621,80.1908,109.431,39.0575,0.112235,2.67861,17.3666,70.9125,9.3135,0.0,0.0
206,51.25,150.337,152.959,83.3393,109.45,35.9214,0.110992,2.67434,17.3731,70.7223,10.0717,0.0,0.0
208,51.75,151.729,154.739,85.2658,109.433,36.954,0.109986,2.66841,17.3813,70.4321,9.81407,0.0,0.0
210,52.25,152.894,156.402,84.4728,109.46,36.0494,0.108595,2.66361,17.3928,70.342,10.0403,0.0,0.0
212,52.75,153.942,157.425,77.2033,109.449,40.671,0.107469,2.65247,17.4066,70.0918,8.94902,0.0,0.0
214,53.25,155.191,158.737,86.7221,109.468,36.1935,0.105853,2.64344,17.4278,69.9617,10.0049,0.0,0.0
216,53.75,155.814,159.656,84.8292,109.471,37.405,0.104544,2.62955,17.454,69.7915,9.70755,0.0,0.0
218,54.25,156.765,161.212,90.0928,109.491,38.0078,0.102656,2.61236,17.4752,69.6314,9.56469,0.0,0.0
220,54.75,158.073,162.19,86.5428,109.503,39.9242,0.101126,2.57998,17.519,69.4612,9.12102,0.0,0.0
222,55.25,158.801,163.39,94.2992,109.531,42.9525,0.0998876,2.55375,17.5545,69.231,8.46239,0.0,0.0
224,55.75,159.072,164.559,86.8099,109.529,40.9759,0.0981109,2.51139,17.5968,69.0909,8.88805,0.0,0.0
226,56.25,159.66,165.229,87.4999,109.549,37.8505,0.0959757,2.47708,17.6432,68.9908,9.60696,0.0,0.0
228,56.75,160.679,166.565,86.8343,109.564,37.6229,0.0937251,2.43715,17.6808,68.7906,9.66267,0.0,0.0
230,57.25,161.292,167.342,86.6702,109.585,37.9688,0.0914329,2.39389,17.7401,68.6005,9.58171,0.0,0.0
232,57.75,161.573,168.241,91.0362,109.592,45.3296,0.0895763,2.35884,17.7881,68.5004,7.9805,0.0,0.0
234,58.25,162.21,169.413,93.8504,109.605,43.9057,0.0869053,2.29768,17.8643,68.3603,8.27008,0.0,0.0
236,58.75,162.515,169.922,91.7827,109.62,44.3071,0.0847417,2.24814,17.926,68.2301,8.189,0.0,0.0
238,59.25,162.444,170.673,92.1765,109.632,44.8194,0.0819902,2.19094,18.0009,68.04,8.08608,0.0,0.0
240,59.75,162.762,170.794,99.0002,109.629,46.2706,0.0797615,2.12926,18.0841,67.8798,7.79779,0.0,0.0
242,60.25,162.407,171.794,96.202,109.639,45.3564,0.0768635,2.07929,18.1725,67.7397,7.97903,0.0,0.0
244,60.75,163.055,171.719,94.0465,109.635,47.5762,0.0745162,2.0067,18.263,67.6196,7.54676,0.0,0.0
246,61.25,163.147,172.228,97.9667,109.65,49.2468,0.0721144,1.94789,18.3363,67.5095,7.23597,0.0,0.0
248,61.75,162.873,172.274,104.022,109.65,51.3109,0.0697186,1.87046,18.4378,67.3894,6.86481,0.0,0.0
250,62.25,163.028,172.745,101.84,109.684,51.8848,0.0677779,1.80775,18.52,67.2693,6.76704,0.0,0.0
252,62.75,162.587,172.86,109.291,109.679,53.241,0.0647392,1.74195,18.6084,67.1992,6.53342,0.0,0.0
254,63.25,162.547,173.162,101.731,109.703,53.8705,0.0622778,1.67517,18.6994,67.0691,6.4291,0.0,0.0
256,63.75,162.224,173.149,105.121,109.698,53.553,0.0596891,1.60388,18.7965,66.969,6.48214,0.0,0.0
258,64.25,161.576,172.538,113.163,109.724,54.4308,0.0570568,1.53065,18.8962,66.889,6.33732,0.0,0.0
260,64.75,161.351,172.527,113.483,109.723,58.1635,0.0537007,1.47134,18.9769,66.8089,5.73764,0.0,0.0
262,65.25,160.762,172.66,111.866,109.734,58.5084,0.0509822,1.38653,19.0871,66.7188,5.68508,0.0,0.0
264,65.75,159.952,172.183,111.762,109.731,60.1269,0.0480351,1.31784,19.1764,66.6487,5.43821,0.0,0.0
266,66.25,159.546,171.907,116.639,109.751,59.3159,0.0449773,1.2457,19.2966,66.5987,5.56259,0.0,0.0
268,66.75,158.586,171.309,119.335,109.747,68.809,0.041945,1.17241,19.3939,66.5487,4.22026,0.0,0.0
270,67.25,157.926,170.932,122.216,109.773,68.9005,0.0389887,1.10094,19.5074,66.4886,4.21036,0.0,0.0
272,67.75,157.044,170.42,120.167,109.746,74.7408,0.0365941,1.03215,19.5993,66.4386,3.47259,0.0,0.0
274,68.25,156.044,169.46,121.714,109.768,76.6395,0.0335429,0.976433,19.6737,66.4185,3.24767,0.0,0.0
276,68.75,154.78,169.07,125.143,109.76,83.8399,0.0310715,0.907411,19.7515,66.3885,2.43521,0.0,0.0
278,69.25,154.101,168.73,122.425,109.785,84.9569,0.0290696,0.851504,19.8303,66.2984,2.31765,0.0,0.0
280,69.75,152.806,167.609,121.703,109.781,90.6986,0.027448,0.787117,19.8941,66.2984,1.72614,0.0,0.0
282,70.25,152.083,166.889,125.154,109.794,94.1527,0.024707,0.734965,19.9599,66.2984,1.38935,0.0,0.0
284,70.75,150.75,166.153,124.104,109.793,98.4669,0.0224867,0.677636,20.0257,66.2784,0.984269,0.0,0.0
286,71.25,149.641,165.576,125.83,109.808,102.447,0.0201897,0.6312,20.0908,66.2884,0.627276,0.0,0.0
288,71.75,148.779,164.8,130.826,109.8,105.352,0.0183291,0.593587,20.154,66.2684,0.373816,0.0,0.0
290,72.25,147.789,163.596,131.503,109.824,108.425,0.016442,0.563121,20.2177,66.2484,0.115923,0.0,0.0
292,72.75,146.869,162.778,128.407,109.823,109.166,0.0149135,0.51521,20.2807,66.2484,0.0541774,0.0,0.0
294,73.25,145.374,161.851,131.523,109.843,111.606,0.0134185,0.476402,20.3434,66.2384,-0.143949,0.0,0.0
296,73.75,144.783,161.325,130.493,109.835,113.632,0.0122075,0.440029,20.4047,66.2084,-0.307249,0.0,0.0
298,74.25,143.28,160.087,128.849,109.871,114.577,0.0110303,0.406121,20.4593,66.2084,-0.379168,0.0,0.0
300,74.75,142.385,159.197,133.118,109.847,115.879,0.0100767,0.375489,20.5079,66.1683,-0.483287,0.0,0.0
302,75.25,141.151,158.35,133.148,109.864,115.589,0.00915612,0.347827,20.5472,66.1783,-0.459158,0.0,0.0
304,75.75,140.423,157.678,131.673,109.851,116.306,0.00841043,0.323164,20.5853,66.1883,-0.516118,0.0,0.0
306,76.25,139.128,156.57,134.105,109.879,116.563,0.00780643,0.301157,20.6162,66.1683,-0.533801,0.0,0.0
308,76.75,138.046,156.009,134.025,109.856,116.52,0.00714033,0.281724,20.6435,66.1683,-0.532366,0.0,0.0
310,77.25,137.039,154.762,131.754,109.861,116.983,0.00660079,0.264538,20.6677,66.1783,-0.567864,0.0,0.0
312,77.75,135.982,154.05,131.3,109.852,116.121,0.00611905,0.249515,20.6874,66.1583,-0.501649,0.0,0.0
314,78.25,135.122,153.14,132.125,109.866,116.035,0.0056886,0.236355,20.7064,66.1483,-0.493864,0.0,0.0
316,78.75,134.105,152.494,133.867,109.856,116.934,0.00533994,0.225695,20.7218,66.1183,-0.564399,0.0,0.0
318,79.25,133.141,151.523,133.367,109.879,117.374,0.00499051,0.215084,20.7373,66.1383,-0.596448,0.0,0.0
320,79.75,132.173,150.821,135.231,109.864,117.313,0.00470748,0.206489,20.75,66.1383,-0.593013,0.0,0.0
322,80.25,131.527,149.259,130.047,109.881,116.843,0.0044542,0.198853,20.7626,66.1183,-0.555318,0.0,0.0
324,80.75,128.713,147.708,132.256,109.879,116.918,0.0042424,0.192061,20.7728,66.0983,-0.561252,0.0,0.0
326,81.25,127.898,146.246,132.214,109.897,116.789,0.00406486,0.186145,20.7824,66.0882,-0.549859,0.0,0.0
328,81.75,126.816,145.882,131.232,109.902,116.762,0.00392105,0.18098,20.7901,66.0782,-0.547346,0.0,0.0
330,82.25,126.258,145.206,134.66,109.909,116.917,0.0038033,0.176797,20.7971,66.0582,-0.558808,0.0,0.0
332,82.75,124.968,143.924,135.353,109.899,116.352,0.00370792,0.172728,20.8034,66.0182,-0.515793,0.0,0.0
334,83.25,124.686,142.958,132.429,109.916,117.115,0.00363067,0.169432,20.8085,66.0082,-0.573498,0.0,0.0
336,83.75,123.61,143.014,132.987,109.912,117.177,0.00358072,0.166407,20.8129,66.0382,-0.578589,0.0,0.0
338,84.25,123.258,141.87,135.361,109.918,116.182,0.00354027,0.163957,20.8166,65.9982,-0.501019,0.0,0.0
340,84.75,122.003,141.188,133.021,109.917,116.676,0.00350497,0.161721,20.8199,65.9781,-0.539484,0.0,0.0
342,85.25,121.59,140.561,131.151,109.955,116.609,0.00347638,0.15991,20.8227,66.0082,-0.531138,0.0,0.0
344,85.75,120.623,139.783,136.213,109.929,116.724,0.00345196,0.15831,20.8251,66.0082,-0.542148,0.0,0.0
346,86.25,119.673,139.001,132.599,109.962,117.022,0.00343218,0.156896,20.8278,65.9982,-0.562525,0.0,0.0
348,86.75,119.298,137.97,132.309,109.93,116.628,0.00341683,0.15575,20.8301,65.9581,-0.53467,0.0,0.0
350,87.25,118.373,137.738,132.005,109.939,116.662,0.00340498,0.154586,20.8323,65.9581,-0.536604,0.0,0.0
352,87.75,117.532,136.671,133.076,109.934,117.352,0.00339473,0.153643,20.8341,65.9581,-0.59033,0.0,0.0
354,88.25,117.284,135.966,131.247,109.94,117.001,0.00338582,0.152809,20.8361,65.9381,-0.562706,0.0,0.0
356,88.75,116.507,135.43,131.166,109.936,116.98,0.00337528,0.152071,20.8376,65.9281,-0.561431,0.0,0.0
358,89.25,115.547,134.462,136.369,109.941,117.836,0.00336376,0.151395,20.8389,65.9381,-0.626947,0.0,0.0
360,89.75,115.026,134.026,133.817,109.952,117.013,0.00335442,0.150778,20.8399,65.9381,-0.562623,0.0,0.0
362,90.25,114.496,133.097,134.101,109.951,117.145,0.00333622,0.150208,20.8407,65.9381,-0.572962,0.0,0.0
364,90.75,113.756,132.873,128.769,109.963,116.914,0.00331191,0.149684,20.8423,65.9181,-0.554053,0.0,0.0
366,91.25,113.202,131.922,131.603,109.939,117.251,0.00329222,0.149143,20.8436,65.9081,-0.58206,0.0,0.0
368,91.75,112.478,131.148,133.413,109.947,116.998,0.00325355,0.1486,20.8446,65.8981,-0.561967,0.0,0.0
370,92.25,112.363,130.561,132.304,109.948,116.631,0.00322223,0.14816,20.8454,65.8881,-0.533409,0.0,0.0
372,92.75,111.186,130.132,134.751,109.959,117.072,0.00319686,0.147641,20.8461,65.8781,-0.566646,0.0,0.0
374,93.25,110.428,129.051,135.034,109.956,117.681,0.00314226,0.147074,20.8461,65.868,-0.613755,0.0,0.0
376,93.75,110.564,129.322,133.935,109.964,117.724,0.00309803,0.146615,20.8457,65.8881,-0.616473,0.0,0.0
378,94.25,109.787,128.401,132.635,109.965,116.513,0.00305591,0.146169,20.8458,65.868,-0.522889,0.0,0.0
380,94.75,108.873,127.435,131.425,109.98,117,0.00302178,0.145808,20.8463,65.838,-0.559315,0.0,0.0
382,95.25,108.837,127.338,134.27,109.972,116.939,0.00299288,0.145516,20.8467,65.798,-0.555282,0.0,0.0
384,95.75,107.814,126.644,131.505,109.98,117.286,0.00296948,0.14522,20.847,65.798,-0.581401,0.0,0.0
386,96.25,107.069,125.88,131.332,109.986,116.396,0.00294799,0.144981,20.8473,65.798,-0.512073,0.0,0.0
388,96.75,106.954,125.724,134.754,109.982,117.529,0.0029306,0.144816,20.8475,65.768,-0.600019,0.0,0.0
390,97.25,106.362,124.803,135.434,109.989,117.152,0.0029165,0.144683,20.8477,65.758,-0.570337,0.0,0.0
392,97.75,105.596,124.61,137.065,110.004,117.23,0.00289779,0.144663,20.8481,65.7479,-0.57507,0.0,0.0
394,98.25,105.697,124.212,132.426,110.007,116.8,0.00287607,0.144647,20.8486,65.7279,-0.541683,0.0,0.0
396,98.75,105.387,123.529,137.498,110.012,117.483,0.00285914,0.144649,20.849,65.7379,-0.594003,0.0,0.0
398,99.25,104.38,122.946,133.649,110,116.93,0.00284602,0.144651,20.8498,65.7479,-0.552245,0.0,0.0
400,99.75,104.252,122.342,128.791,110.008,117.089,0.0028354,0.144652,20.8504,65.768,-0.563892,0.0,0.0
402,100.25,103.528,121.962,134.613,110.015,116.896,0.00283681,0.144535,20.8507,65.758,-0.548424,0.0,0.0
404,100.75,102.886,121.537,130.358,110.019,117.326,0.00283922,0.144441,20.8511,65.758,-0.581237,0.0,0.0
406,101.25,102.781,120.663,133.486,110.031,117.078,0.00283361,0.144302,20.8517,65.7479,-0.561182,0.0,0.0
408,101.75,102.208,120.48,137.649,110.032,116.906,0.00282907,0.144134,20.8522,65.7379,-0.547862,0.0,0.0
410,102.25,101.873,119.31,134.04,110.03,117.336,0.00281412,0.143928,20.8527,65.7079,-0.581143,0.0,0.0
412,102.75,101.332,119.436,133.476,110.037,116.896,0.00279186,0.143699,20.853,65.7079,-0.54664,0.0,0.0
414,103.25,101.184,118.789,134.608,110.038,116.694,0.0027639,0.143601,20.8533,65.6779,-0.530839,0.0,0.0
416,103.75,100.242,118.275,133.303,110.055,116.843,0.00273231,0.143379,20.8536,65.6779,-0.541081,0.0,0.0
418,104.25,99.9457,117.699,134.923,110.027,117.331,0.00270672,0.14315,20.8537,65.6779,-0.581046,0.0,0.0
420,104.75,99.3682,117.383,130.782,110.052,116.514,0.00268201,0.142948,20.8539,65.6779,-0.515792,0.0,0.0
422,105.25,99.3917,116.884,137.714,110.027,117.265,0.00265843,0.142771,20.8545,65.6679,-0.575944,0.0,0.0
424,105.75,98.8069,116.108,133.881,110.051,117.222,0.00264065,0.142597,20.8549,65.6679,-0.570663,0.0,0.0
426,106.25,98.5282,115.599,134.883,110.034,117.358,0.00262744,0.142428,20.8553,65.6679,-0.582493,0.0,0.0
428,106.75,97.9484,115.648,130.041,110.056,116.251,0.00261674,0.142291,20.8556,65.6278,-0.495004,0.0,0.0
430,107.25,97.1681,115.233,134.205,110.05,117.72,0.00261059,0.142048,20.8559,65.5978,-0.6091,0.0,0.0
432,107.75,96.9567,114.324,133.112,110.063,117.163,0.00260561,0.141851,20.8561,65.5778,-0.565079,0.0,0.0
434,108.25,96.8558,114.16,133.261,110.057,117.119,0.00260912,0.141583,20.8565,65.5578,-0.562194,0.0,0.0
436,108.75,96.696,113.792,135.372,110.075,117.368,0.00261197,0.141269,20.857,65.5578,-0.579884,0.0,0.0
438,109.25,96.0434,113.458,134.412,110.058,117.549,0.00262309,0.141014,20.8574,65.5578,-0.595238,0.0,0.0
440,109.75,95.6497,112.84,134.254,110.06,117.03,0.0026321,0.140808,20.8578,65.5378,-0.555068,0.0,0.0
442,110.25,95.0929,112.469,133.51,110.068,117.391,0.00263939,0.140641,20.858,65.4977,-0.582294,0.0,0.0
444,110.75,95.2211,111.752,135.289,110.076,117.242,0.0026453,0.14052,20.8583,65.4677,-0.570108,0.0,0.0
446,111.25,94.9461,111.571,130.916,110.066,117.078,0.00265009,0.140423,20.8585,65.4377,-0.558305,0.0,0.0
448,111.75,94.6287,111.004,132.511,110.087,117.302,0.00264535,0.14029,20.8586,65.4477,-0.573837,0.0,0.0
450,112.25,93.9224,110.751,131.159,110.066,117.036,0.00263377,0.140133,20.8587,65.4377,-0.555103,0.0,0.0
452,112.75,94.1861,110.419,130.766,110.077,116.86,0.00261776,0.139771,20.8588,65.4577,-0.540515,0.0,0.0
454,113.25,93.8127,110.096,132.326,110.066,117.417,0.00259883,0.139478,20.8589,65.4777,-0.584428,0.0,0.0
456,113.75,92.8204,109.509,132.007,110.077,117.364,0.00258946,0.139241,20.859,65.4777,-0.579391,0.0,0.0
458,114.25,92.9245,109.113,131.599,110.071,117.018,0.00258724,0.138829,20.859,65.4377,-0.55326,0.0,0.0
460,114.75,92.7515,108.625,134.689,110.073,117.584,0.00260266,0.138495,20.8591,65.4477,-0.596681,0.0,0.0
462,115.25,92.8591,108.922,133.596,110.064,117.239,0.00263066,0.138263,20.8591,65.4177,-0.570894,0.0,0.0
464,115.75,91.5198,107.957,139.324,110.094,117.816,0.00265334,0.13811,20.8591,65.4477,-0.61276,0.0,0.0
466,116.25,92.1936,107.65,131.566,110.064,117.269,0.00270887,0.138025,20.8591,65.4177,-0.573193,0.0,0.0
468,116.75,91.4709,107.297,130.182,110.076,117.383,0.00278729,0.13799,20.8592,65.4076,-0.581055,0.0,0.0
470,117.25,91.0174,106.435,136.114,110.064,118.09,0.00285081,0.137962,20.8593,65.4277,-0.636275,0.0,0.0
472,117.75,91.2518,106.617,132.507,110.084,117.361,0.00293888,0.137866,20.8597,65.3976,-0.578648,0.0,0.0
474,118.25,90.4245,106.382,133.299,110.086,117.638,0.00301021,0.137789,20.8601,65.4076,-0.599823,0.0,0.0
476,118.75,90.2823,105.696,137.085,110.081,117.221,0.00306799,0.137726,20.8605,65.3676,-0.568147,0.0,0.0
478,119.25,89.787,105.563,133.377,110.082,117.284,0.00310974,0.137396,20.8608,65.3576,-0.572835,0.0,0.0
480,119.75,90.254,105.264,136.801,110.086,117.429,0.00314355,0.137129,20.8611,65.3476,-0.583726,0.0,0.0
482,120.25,89.7493,105.186,133.236,110.081,117.946,0.00314065,0.136708,20.8613,65.3276,-0.623854,0.0,0.0
484,120.75,89.6337,104.887,129.55,110.086,117.249,0.00313829,0.136367,20.8614,65.3576,-0.569854,0.0,0.0
486,121.25,89.2388,104.244,136.378,110.077,117.285,0.00311716,0.13609,20.8616,65.3176,-0.57335,0.0,0.0
488,121.75,89.3208,103.844,135.787,110.101,117.857,0.00308275,0.135486,20.8621,65.3076,-0.615321,0.0,0.0
490,122.25,89.0026,103.666,135.34,110.084,116.868,0.00305155,0.134996,20.8626,65.2775,-0.540632,0.0,0.0
492,122.75,88.7314,103.142,133.367,110.092,117.301,0.0030233,0.134446,20.8631,65.2775,-0.573435,0.0,0.0
494,123.25,88.338,102.938,132.954,110.087,117.377,0.00299975,0.133861,20.8637,65.2775,-0.579678,0.0,0.0
496,123.75,87.8582,102.554,133.823,110.093,116.809,0.00298008,0.13328,20.8645,65.3176,-0.535254,0.0,0.0
498,124.25,88.1201,102.555,129.817,110.077,117.481,0.00295884,0.132712,20.8651,65.2475,-0.588422,0.0,0.0
500,124.75,87.4345,101.758,135.686,110.099,117.699,0.00293686,0.132199,20.8656,65.2275,-0.603433,0.0,0.0
502,125.25,87.0666,101.833,134.192,110.087,117.578,0.00292749,0.131736,20.8658,65.2475,-0.595089,0.0,0.0
504,125.75,87.2705,101.356,133.38,110.102,117.253,0.00291014,0.131307,20.8661,65.2175,-0.568859,0.0,0.0
506,126.25,87.016,101.074,130.6,110.084,117.504,0.00289489,0.130911,20.8669,65.2275,-0.589666,0.0,0.0
508,126.75,86.6687,100.83,135.237,110.099,117.567,0.00288718,0.130445,20.8675,65.1674,-0.593252,0.0,0.0
510,127.25,86.6207,100.401,135.255,110.096,117.209,0.00288512,0.129935,20.8684,65.1875,-0.56594,0.0,0.0
512,127.75,85.8412,100.218,135.25,110.099,117.834,0.00288345,0.129369,20.8691,65.1875,-0.613794,0.0,0.0
514,128.25,85.8421,99.6685,135.919,110.087,117.709,0.0028947,0.129055,20.8697,65.1674,-0.60519,0.0,0.0
516,128.75,86.2373,99.6134,132.069,110.093,117.734,0.00290381,0.128518,20.8702,65.1775,-0.606584,0.0,0.0
518,129.25,85.7197,99.4125,133.287,110.089,117.199,0.00292002,0.128006,20.8706,65.1775,-0.565703,0.0,0.0
520,129.75,85.3585,99.0366,134.302,110.102,117.974,0.00293315,0.127522,20.871,65.2075,-0.624241,0.0,0.0
522,130.25,85.0869,98.4465,136.342,110.088,117.704,0.00294126,0.127123,20.8712,65.1875,-0.604691,0.0,0.0
524,130.75,84.7297,98.6219,135.193,110.096,115.857,0.00294783,0.126793,20.8714,65.1975,-0.461051,0.0,0.0
526,131.25,84.4473,97.9389,137.604,110.095,116.948,0.00295448,0.126525,20.8718,65.1474,-0.545864,0.0,0.0
528,131.75,84.7779,97.9394,131.247,110.104,117.523,0.00296106,0.126381,20.8724,65.1174,-0.589505,0.0,0.0
530,132.25,83.8394,97.315,138.478,110.101,117.539,0.00296387,0.126265,20.8726,65.1875,-0.590968,0.0,0.0
532,132.75,84.4975,97.2189,132.142,110.097,117.108,0.00298523,0.126097,20.873,65.1775,-0.558061,0.0,0.0
534,133.25,84.1293,97.1487,136.327,110.114,117.253,0.00301746,0.125962,20.8731,65.1174,-0.567877,0.0,0.0
536,133.75,83.8636,96.2009,133.757,110.1,116.487,0.0030615,0.125663,20.8733,65.1474,-0.509823,0.0,0.0
538,134.25,83.5701,96.4473,134.193,110.112,117.303,0.00311332,0.12542,20.8734,65.1374,-0.571842,0.0,0.0
540,134.75,83.2273,95.8143,134.542,110.123,117.331,0.00317592,0.125224,20.8735,65.1274,-0.573112,0.0,0.0
542,135.25,83.3118,95.9662,132.832,110.109,116.867,0.00324519,0.125017,20.8735,65.1274,-0.538444,0.0,0.0
544,135.75,82.9914,95.6196,136.608,110.097,117.331,0.00331261,0.124663,20.8736,65.1274,-0.575297,0.0,0.0
546,136.25,82.9554,95.7376,133.615,110.11,117.507,0.00337741,0.124284,20.8741,65.0874,-0.58779,0.0,0.0
548,136.75,83.1214,95.336,132.64,110.095,117.418,0.00342989,0.123895,20.8745,65.0674,-0.582177,0.0,0.0
550,137.25,82.3932,94.6655,135.335,110.104,117.618,0.00347114,0.123495,20.8752,65.0373,-0.596853,0.0,0.0
552,137.75,82.9958,94.8718,129.588,110.095,117.017,0.00350455,0.123095,20.8758,65.0073,-0.551216,0.0,0.0
554,138.25,82.1822,94.1437,133.605,110.105,117.88,0.00351896,0.122772,20.8763,65.0073,-0.616853,0.0,0.0
556,138.75,81.5255,94.3355,134.055,110.093,117.322,0.00353064,0.122248,20.8767,65.0073,-0.574848,0.0,0.0
558,139.25,81.9578,93.9122,133.556,110.109,117.211,0.00354009,0.121824,20.8771,64.9973,-0.565038,0.0,0.0
560,139.75,81.684,93.7033,131.647,110.112,117.517,0.00354775,0.121291,20.8773,65.0173,-0.588347,0.0,0.0
562,140.25,81.7345,93.7362,132.368,110.103,117.264,0.00351982,0.12086,20.8779,65.0273,-0.569605,0.0,0.0
564,140.75,81.8197,93.2905,131.055,110.094,117.466,0.0034972,0.120336,20.8785,65.0373,-0.585947,0.0,0.0
566,141.25,81.1981,93.0274,134.739,110.107,117.44,0.00346425,0.119912,20.8791,65.0173,-0.582869,0.0,0.0
568,141.75,81.4027,92.5792,133.736,110.1,117.072,0.00342439,0.119568,20.88,65.0073,-0.555074,0.0,0.0
570,142.25,81.4252,92.8069,139.226,110.104,116.752,0.00337753,0.11929,20.8807,64.9773,-0.529958,0.0,0.0
572,142.75,81.0026,92.4964,133.103,110.096,117.419,0.00332643,0.118759,20.8813,64.9873,-0.582107,0.0,0.0
574,143.25,80.5375,92.2768,135.694,110.105,117.058,0.00327974,0.11833,20.8818,64.9673,-0.553581,0.0,0.0
576,143.75,80.8842,91.9177,137.981,110.09,116.924,0.00323713,0.117936,20.8823,64.9773,-0.544424,0.0,0.0
578,144.25,80.6542,91.6675,135.768,110.114,117.092,0.00320129,0.117576,20.8828,64.9673,-0.555432,0.0,0.0
580,144.75,80.5191,91.3831,133.326,110.096,116.475,0.00317107,0.117186,20.8831,64.9973,-0.509169,0.0,0.0
582,145.25,80.0903,91.1412,135.982,110.123,116.945,0.00314659,0.116781,20.8834,64.9873,-0.543338,0.0,0.0
584,145.75,80.0304,91.1561,134.076,110.089,117.438,0.00313433,0.116415,20.8841,64.9573,-0.584171,0.0,0.0
586,146.25,79.8566,90.6323,132.188,110.103,117.805,0.0031244,0.116084,20.8846,64.9272,-0.611216,0.0,0.0
588,146.75,80.1286,90.609,137.823,110.109,117.689,0.00312233,0.115816,20.8851,64.8872,-0.601819,0.0,0.0
590,147.25,80.0378,90.728,139.912,110.1,116.737,0.00312604,0.115497,20.8855,64.9272,-0.529111,0.0,0.0
592,147.75,79.3466,90.0322,136.38,110.1,117.522,0.00312837,0.115239,20.8857,64.9372,-0.589794,0.0,0.0
594,148.25,79.2136,90.2002,133.38,110.102,117.108,0.00312967,0.114828,20.886,64.9272,-0.557663,0.0,0.0
596,148.75,79.5044,89.2879,136.531,110.096,116.843,0.00313072,0.114494,20.8862,64.8972,-0.537732,0.0,0.0
598,149.25,79.4633,89.7908,137.089,110.113,117.15,0.0031236,0.114064,20.8866,64.8972,-0.559954,0.0,0.0
600,149.75,79.0959,89.4404,134.203,110.092,117.672,0.00311066,0.113571,20.8871,64.8872,-0.601881,0.0,0.0
602,150.25,78.8242,89.7015,133.019,110.1,117.896,0.00309135,0.11302,20.8875,64.8972,-0.618379,0.0,0.0
604,150.75,79.1031,89.1557,133.85,110.089,117.719,0.00307571,0.112436,20.8879,64.8872,-0.605784,0.0,0.0
606,151.25,78.5738,89.2331,130.581,110.09,117.515,0.003058,0.111963,20.8884,64.8472,-0.590013,0.0,0.0
608,151.75,78.5143,88.9714,136.275,110.081,116.888,0.00304365,0.111306,20.889,64.8271,-0.542451,0.0,0.0
610,152.25,78.415,88.8298,137.901,110.089,117.109,0.00303399,0.110773,20.8895,64.8371,-0.558833,0.0,0.0
612,152.75,78.4387,88.1129,134.787,110.084,117.324,0.00302793,0.11022,20.8899,64.7871,-0.575843,0.0,0.0
614,153.25,78.1168,87.9735,135.998,110.09,117.418,0.00302302,0.109662,20.8902,64.7971,-0.582539,0.0,0.0
616,153.75,77.8863,87.9928,136.903,110.073,117.097,0.00302635,0.109158,20.8905,64.7871,-0.559206,0.0,0.0
618,154.25,77.8668,87.5026,137.246,110.101,117.767,0.00303562,0.108701,20.891,64.7871,-0.608453,0.0,0.0
620,154.75,78.1199,87.4941,136.258,110.081,117.827,0.00303957,0.108345,20.8912,64.7471,-0.614781,0.0,0.0
622,155.25,77.7643,87.3372,131.301,110.099,117.908,0.00304758,0.108057,20.8916,64.7471,-0.619495,0.0,0.0
624,155.75,77.6303,87.3283,134.554,110.077,117.206,0.00305408,0.107824,20.8919,64.7571,-0.567342,0.0,0.0
626,156.25,77.4792,87.0499,132.475,110.09,117.42,0.00305429,0.107691,20.8921,64.7771,-0.582658,0.0,0.0
628,156.75,76.9433,86.7647,134.757,110.074,117.276,0.00305447,0.107584,20.8923,64.8071,-0.572867,0.0,0.0
630,157.25,76.9401,86.5192,134.703,110.07,117.602,0.00304199,0.107497,20.8925,64.7971,-0.598338,0.0,0.0
632,157.75,77.063,86.2548,136.609,110.063,117.474,0.00303189,0.10746,20.8926,64.7971,-0.589081,0.0,0.0
634,158.25,76.9113,85.933,133.251,110.08,117.08,0.00300984,0.107397,20.8927,64.7971,-0.557333,0.0,0.0
636,158.75,76.724,86.3994,134.067,110.071,117.986,0.00299198,0.107259,20.8928,64.7871,-0.627755,0.0,0.0
638,159.25,76.5357,85.8858,131.977,110.072,117.289,0.00296112,0.107147,20.8928,64.7571,-0.5741,0.0,0.0
640,159.75,76.9723,86.0103,132.045,110.083,117.634,0.00293613,0.10684,20.8929,64.7571,-0.599731,0.0,0.0
642,160.25,76.8575,85.7666,134.792,110.078,117.697,0.00291589,0.106591,20.8929,64.7471,-0.604987,0.0,0.0
644,160.75,75.8091,85.5147,130.511,110.063,117.285,0.0028806,0.106276,20.8932,64.7571,-0.574516,0.0,0.0
646,161.25,76.0278,85.3687,136.662,110.066,116.779,0.00285201,0.105918,20.8936,64.7871,-0.535126,0.0,0.0
648,161.75,76.5945,84.9305,132.249,110.056,117.407,0.00282289,0.105296,20.894,64.8071,-0.584447,0.0,0.0
650,162.25,76.4599,85.2334,135.212,110.056,117.481,0.00279394,0.104793,20.8943,64.7871,-0.590169,0.0,0.0
652,162.75,76.0452,84.7053,139.818,110.057,117.287,0.00277048,0.104385,20.8949,64.8171,-0.575143,0.0,0.0
654,163.25,76.008,84.6964,132.532,110.066,117.696,0.00275019,0.103853,20.8955,64.7571,-0.605853,0.0,0.0
656,163.75,75.6326,85.1039,131.919,110.058,117.642,0.00273258,0.103422,20.8956,64.7571,-0.602463,0.0,0.0
658,164.25,75.8347,84.6643,132.985,110.05,117.372,0.00272508,0.102981,20.8957,64.727,-0.582345,0.0,0.0
660,164.75,75.8157,84.4151,135.565,110.04,117.013,0.0027198,0.102543,20.8957,64.7371,-0.555377,0.0,0.0
662,165.25,75.6076,83.6864,134.681,110.051,117.16,0.00271552,0.102188,20.896,64.7571,-0.565828,0.0,0.0
664,165.75,75.7577,84.387,136.292,110.04,116.792,0.0027167,0.101855,20.8962,64.717,-0.53829,0.0,0.0
666,166.25,75.3934,83.7778,134.028,110.056,117.487,0.00272183,0.101544,20.8968,64.717,-0.590675,0.0,0.0
668,166.75,75.2256,83.9502,135.386,110.048,117.338,0.00272267,0.101293,20.8973,64.697,-0.579881,0.0,0.0
670,167.25,75.2229,83.4361,133.911,110.039,116.708,0.00272036,0.101125,20.8976,64.697,-0.531903,0.0,0.0
672,167.75,74.8648,83.2699,132.967,110.036,117.629,0.0027185,0.100839,20.898,64.687,-0.603161,0.0,0.0
674,168.25,74.8544,83.239,131.826,110.037,117.327,0.00267671,0.10057,20.8985,64.697,-0.579934,0.0,0.0
676,168.75,75.0171,82.955,133.045,110.03,116.95,0.00264287,0.100317,20.8991,64.687,-0.551333,0.0,0.0
678,169.25,74.9868,83.0965,133.925,110.046,117.706,0.00258527,0.100105,20.8996,64.657,-0.608343,0.0,0.0
680,169.75,74.7757,82.4471,134.968,110.032,118.019,0.00253862,0.0999269,20.9,64.657,-0.633475,0.0,0.0
682,170.25,74.7961,83.1064,136.768,110.022,117.394,0.00248562,0.0997823,20.9003,64.687,-0.58628,0.0,0.0
684,170.75,74.6588,82.36,136.437,110.035,117.268,0.002429,0.0994493,20.901,64.677,-0.575484,0.0,0.0
686,171.25,74.59,82.4897,142.636,110.038,116.999,0.00237257,0.0991796,20.9016,64.677,-0.554505,0.0,0.0
688,171.75,74.4002,82.5648,134.848,110.026,117.548,0.00231734,0.098825,20.902,64.677,-0.597778,0.0,0.0
690,172.25,74.6374,82.412,140.791,110.029,116.857,0.00224876,0.0984151,20.9024,64.647,-0.544323,0.0,0.0
692,172.75,74.2651,82.1244,133.206,110.03,117.513,0.00219322,0.0979847,20.9027,64.647,-0.594804,0.0,0.0
694,173.25,74.0308,81.5385,138.068,110.025,117.341,0.00212908,0.0975477,20.9029,64.657,-0.582008,0.0,0.0
696,173.75,74.2925,81.3048,134.557,110.029,116.787,0.00205991,0.0971483,20.9031,64.637,-0.538848,0.0,0.0
698,174.25,73.8092,81.6948,134.852,110.014,117.645,0.00200388,0.0967839,20.9033,64.617,-0.606299,0.0,0.0
700,174.75,74.0843,81.1237,136.194,110.031,117.08,0.00189839,0.0964661,20.9037,64.6069,-0.561336,0.0,0.0
702,175.25,74.4363,81.6584,136.939,110.013,116.461,0.00181295,0.0961883,20.9042,64.617,-0.514953,0.0,0.0
704,175.75,73.891,81.2805,137.72,110.018,117.375,0.00173846,0.0959557,20.9046,64.6069,-0.585161,0.0,0.0
706,176.25,73.9747,81.1139,136.78,110.005,117.872,0.00167339,0.0957605,20.9049,64.627,-0.62442,0.0,0.0
708,176.75,73.9178,81.1762,131.21,110.018,117.108,0.00162398,0.0956024,20.9052,64.5969,-0.564575,0.0,0.0
710,177.25,73.4258,80.8954,137.778,110.01,117.053,0.00158692,0.0954887,20.9054,64.5669,-0.560939,0.0,0.0
712,177.75,73.3289,80.7709,134.581,110.01,117.422,0.00156019,0.0953966,20.9056,64.5569,-0.58944,0.0,0.0
714,178.25,73.5003,80.6319,130.261,109.999,117.19,0.0015415,0.0952842,20.9057,64.5469,-0.572462,0.0,0.0
716,178.75,73.5571,80.1144,137.676,110.009,117.546,0.00152834,0.0951591,20.9058,64.627,-0.599006,0.0,0.0
718,179.25,73.5141,80.1567,135.897,109.988,116.93,0.00151946,0.0949822,20.9059,64.5669,-0.553265,0.0,0.0
720,179.75,73.2009,80.2879,132.968,110.006,117.311,0.00151227,0.094771,20.906,64.5469,-0.581235,0.0,0.0
722,180.25,73.1243,79.8648,135.037,109.99,117.522,0.00151019,0.0944941,20.9061,64.5269,-0.598783,0.0,0.0
724,180.75,73.1888,80.2745,132.644,110.009,117.668,0.00150851,0.0941746,20.9061,64.4668,-0.608412,0.0,0.0
726,181.25,73.2817,79.6767,137.67,109.98,117.716,0.00150715,0.0937422,20.9066,64.4568,-0.614466,0.0,0.0
728,181.75,73.0421,79.448,134.776,110,117.585,0.00149354,0.0932357,20.9074,64.4368,-0.602767,0.0,0.0
730,182.25,72.8562,79.7872,136.669,109.972,117.565,0.00147125,0.0928254,20.9083,64.4768,-0.603543,0.0,0.0
732,182.75,72.7657,79.735,139.196,109.983,117.055,0.00143346,0.0922064,20.9093,64.4768,-0.563352,0.0,0.0
734,183.25,72.8036,79.404,136.81,109.98,117.327,0.00138509,0.0917051,20.9101,64.4768,-0.584592,0.0,0.0
736,183.75,72.9095,79.4142,131.753,109.984,117.102,0.00132355,0.0911708,20.9107,64.4868,-0.566838,0.0,0.0
738,184.25,72.946,79.6871,133.25,109.964,117.491,0.0012536,0.0906226,20.9112,64.4768,-0.598519,0.0,0.0
740,184.75,72.6673,79.2373,132.271,109.968,117.284,0.00119694,0.0901787,20.9116,64.4768,-0.582302,0.0,0.0
742,185.25,72.7807,79.0418,132.838,109.965,117.023,0.00115104,0.0894469,20.9121,64.4468,-0.562387,0.0,0.0
744,185.75,72.8397,79.2226,131.252,109.968,117.183,0.00106148,0.0888541,20.9128,64.4268,-0.574392,0.0,0.0
746,186.25,72.5988,78.969,135.853,109.956,117.77,0.000988943,0.0881332,20.9137,64.3968,-0.620661,0.0,0.0
748,186.75,72.1461,78.8189,129.657,109.95,117.487,0.000912739,0.0873324,20.9146,64.4168,-0.599413,0.0,0.0
750,187.25,72.0635,78.6044,134.806,109.935,117.229,0.000851015,0.0864357,20.9157,64.4068,-0.580709,0.0,0.0
752,187.75,72.2922,78.8442,132.812,109.943,117.112,0.0007923,0.085486,20.9167,64.4068,-0.57108,0.0,0.0
754,188.25,71.8405,78.5672,132.083,109.941,116.987,0.00074474,0.0847168,20.9182,64.4368,-0.561578,0.0,0.0
756,188.75,72.1598,78.0082,129.635,109.943,116.878,0.000706217,0.0840938,20.9201,64.4068,-0.552952,0.0,0.0
758,189.25,72.1552,78.7327,131.807,109.916,116.808,,0.0830326,,64.4268,-0.549776,0.0,0.0
760,189.75,72.6309,78.3253,134.376,109.934,116.816,,0.0821731,,64.4268,-0.548871,0.0,0.0
762,190.25,71.5688,78.1421,135.527,109.916,117.028,,0.0811347,,64.4268,-0.566822,0.0,0.0
764,190.75,71.8705,78.1064,135.39,109.91,117.601,,0.0802937,,64.4268,-0.611442,0.0,0.0
766,191.25,72.2627,77.8419,136.14,109.898,117.02,,0.079395,,64.4468,-0.567617,0.0,0.0
768,191.75,71.6894,77.9418,137.372,109.906,117.659,,0.0784715,,64.4368,-0.616199,0.0,0.0
770,192.25,72.0506,78.1155,136.33,109.897,116.829,,,,64.4268,-0.55295,0.0,0.0
772,192.75,71.8095,77.7678,137.397,109.907,117.289,,,,64.4368,-0.587607,0.0,0.0
774,193.25,71.6648,77.4057,134.302,109.887,117.44,,,,64.4268,-0.600929,0.0,0.0
776,193.75,71.5957,77.1841,133.193,109.896,117.244,,,,64.4068,-0.585125,0.0,0.0
778,194.25,71.822,77.4112,135.866,109.876,117.888,,,,64.4268,-0.636223,0.0,0.0
780,194.75,71.7051,77.3488,134.254,109.879,117.212,,,,64.4368,-0.584016,0.0,0.0
782,195.25,71.8023,77.2356,134.76,109.868,117.352,,,,64.4468,-0.59576,0.0,0.0
784,195.75,71.3733,77.487,133.555,109.875,117.501,,,,64.4168,-0.606582,0.0,0.0
786,196.25,71.7111,77.1285,136.23,109.872,117.538,,,,64.4168,-0.609677,0.0,0.0
788,196.75,71.9178,77.364,134.046,109.875,117.765,,,,64.4068,-0.626903,0.0,0.0
790,197.25,70.8125,76.8833,136.87,109.866,117.252,,,,64.4068,-0.588188,0.0,0.0
792,197.75,71.0917,76.9855,138.897,109.879,117.244,,,,64.3968,-0.586507,0.0,0.0
794,198.25,71.1199,77.0077,134.302,109.853,117.564,,,,64.3867,-0.613231,0.0,0.0
796,198.75,71.5228,77.1321,134.557,109.863,117.25,,,,64.3867,-0.588287,0.0,0.0
798,199.25,71.4318,76.8411,134.186,109.855,117.177,,,,64.3767,-0.583366,0.0,0.0
800,199.75,71.2028,76.7127,137.043,109.863,117.218,,,,64.3867,-0.585758,0.0,0.0