File: 01_Data/FRP_Panel/Cone/FRP_Panel_Cone_HF25Scan_220919_R1.csv
Names,Time,Stack TC,Smoke TC,Exh Press,Smoke Comp,Smoke Meas,CO Meter,CO2 Meter,O2 Meter,Sample Mass,Ext Coeff,Start Test,Flame Verif
Chan Gain,,500,500,1,1,1,1,1,1,1,1,1.0,1.0
Offset,,0,0,0.143022,0,0,0,0,0,0,0,0.0,0.0
Gain,,1,1,25.011,14.5176,16.5692,1,1,1,1.00088,1.03055,1.0,1.0
Units,sec,C,C,Pa,%,%,%,%,%,g,/m,,
Baseline,,34.9507,35.8513,149.159,109.242,110.387,0.000484467,0.0463551,20.944,-445.306,-0.09422,,
3,0.5,34.8135,35.6116,150.42,108.742,109.752,0.000525651,0.0530597,20.9381,86.8265,-0.0835628,0.0,0.0
6,1.25,33.309,34.2546,148.071,108.752,109.891,0.000511221,0.0536159,20.9373,86.8165,-0.094203,0.0,0.0
9,2,33.4934,34.3218,150.273,108.729,109.749,0.000497392,0.0542228,20.9366,86.8165,-0.0844645,0.0,0.0
12,2.75,33.4414,34.589,148.785,108.725,109.304,0.00048619,0.0546229,20.9362,86.8265,-0.0479857,0.0,0.0
15,3.5,33.6321,34.4194,148.857,108.722,109.79,0.000479269,0.0548965,20.9361,86.8566,-0.0883894,0.0,0.0
18,4.25,33.2796,34.4227,144.464,108.71,109.353,0.000474755,0.0549347,20.9364,86.8566,-0.0532991,0.0,0.0
21,5,33.5726,34.2248,146.758,108.69,109.686,0.000480179,0.0548496,20.9366,86.8465,-0.0824616,0.0,0.0
24,5.75,33.077,34.003,147.499,108.688,109.876,0.000493747,0.0546947,20.9368,86.8365,-0.0983016,0.0,0.0
27,6.5,33.0549,34.1633,149.013,108.671,109.669,0.000513725,0.0545056,20.9376,86.8365,-0.0825878,0.0,0.0
30,7.25,33.1893,34.1821,149.3,108.672,109.423,0.000529535,0.054283,20.9384,86.8265,-0.0622765,0.0,0.0
33,8,33.0996,34.0515,149.105,108.648,109.325,0.000535036,0.0540846,20.9393,86.8265,-0.0561543,0.0,0.0
36,8.75,32.831,34.0276,148.975,108.65,109.036,0.00052999,0.0538192,20.94,86.8165,-0.0320579,0.0,0.0
39,9.5,33.5031,34.558,150.5,108.667,109.342,0.000500511,0.053544,20.9404,86.8165,-0.0559906,0.0,0.0
42,10.25,33.2993,34.102,151.642,108.675,109.686,0.000468937,0.0532036,20.9408,86.8265,-0.0837096,0.0,0.0
45,11,33.1951,34.5769,145.887,108.681,109.276,0.000418555,0.0526738,20.9409,86.8065,-0.0493379,0.0,0.0
48,11.75,33.1986,34.2294,149.491,108.661,110.13,0.000370161,0.0523064,20.9405,86.8165,-0.121331,0.0,0.0
51,12.5,33.2133,33.8382,150.266,108.687,109.413,0.000329908,0.0517582,20.9407,86.8265,-0.0602243,0.0,0.0
54,13.25,33.259,34.6224,147.738,108.687,109.522,0.000304333,0.0512546,20.9411,86.7865,-0.069202,0.0,0.0
57,14,33.1534,34.175,148.813,108.679,109.433,0.000295761,0.0507099,20.9413,86.7465,-0.0625223,0.0,0.0
60,14.75,33.2586,34.3333,149.082,108.679,109.282,0.000312577,0.0501577,20.9419,86.7565,-0.0500243,0.0,0.0
63,15.5,33.3351,34.4904,150.622,108.701,109.151,0.000341013,0.0496891,20.9423,86.7164,-0.0373787,0.0,0.0
66,16.25,33.3308,34.0073,147.396,108.693,109.441,0.000375192,0.0492671,20.9422,86.7565,-0.0619276,0.0,0.0
69,17,33.2369,34.345,148.038,108.689,109.538,0.000411312,0.0489669,20.9421,86.7765,-0.0703488,0.0,0.0
72,17.75,33.4092,34.1298,148.324,108.691,109.551,0.000431419,0.0487533,20.9421,86.7865,-0.0712492,0.0,0.0
75,18.5,33.2522,33.8908,149.302,108.702,109.333,0.000443422,0.0485848,20.942,86.7965,-0.0522899,0.0,0.0
78,19.25,33.2978,34.2129,148.934,108.695,109.196,0.000429772,0.0484621,20.942,86.7765,-0.0416204,0.0,0.0
81,20,33.354,34.3359,151.955,108.697,109.469,0.000408306,0.0483503,20.942,86.7865,-0.0639347,0.0,0.0
84,20.75,32.9502,34.1102,149.232,108.702,109.53,0.000389298,0.0482308,20.942,86.7965,-0.0685803,0.0,0.0
87,21.5,33.2891,33.8668,145.572,108.716,109.751,0.000380765,0.0481015,20.9424,86.7965,-0.0855795,0.0,0.0
90,22.25,33.5656,34.4578,147.601,108.72,109.296,0.000384499,0.0479891,20.9429,86.7665,-0.0477685,0.0,0.0
93,23,33.2934,34.2541,146.729,108.719,109.489,0.000391464,0.0478469,20.9433,86.7665,-0.0637941,0.0,0.0
96,23.75,33.3979,33.8995,148.057,108.713,109.599,0.000396542,0.0476869,20.9435,86.7765,-0.0733338,0.0,0.0
99,24.5,33.4421,34.3709,149.583,108.719,109.987,0.000371851,0.047524,20.9437,86.7365,-0.104828,0.0,0.0
102,25.25,33.0531,34.292,148.554,108.731,109.959,0.000353851,0.0473673,20.9439,86.7465,-0.101511,0.0,0.0
105,26,32.9375,34.4288,150.05,108.745,109.686,0.000305259,0.0472329,20.944,86.7264,-0.0778887,0.0,0.0
108,26.75,32.9811,34.0787,150.616,108.736,109.558,0.00024747,0.0471201,20.9441,86.7565,-0.0680391,0.0,0.0
111,27.5,33.492,34.4056,150.541,108.747,109.611,0.000195806,0.0470125,20.9441,86.7465,-0.0715349,0.0,0.0
114,28.25,32.988,33.9717,152.737,108.763,109.463,0.0001298,0.04692,20.9446,86.7465,-0.0579447,0.0,0.0
117,29,32.873,34.7263,147.27,108.762,109.412,7.05055e-05,0.0468169,20.9451,86.7665,-0.0539159,0.0,0.0
120,29.75,33.7285,33.955,149.348,108.782,109.458,2.25147e-05,0.0466911,20.9455,86.7865,-0.0559808,0.0,0.0
123,30.5,33.4422,33.9317,146.404,108.787,109.623,-2.66403e-05,0.0466416,20.9458,86.7765,-0.0691803,0.0,0.0
126,31.25,33.1927,34.3678,149.677,108.79,109.451,-6.07034e-05,0.0466235,20.946,86.7665,-0.0546965,0.0,0.0
129,32,33.6299,34.1164,150.663,108.795,109.4375,-8.55353e-05,0.0466304,20.9462,86.7665,-0.0532427,0.0,0.0
132,32.75,33.26,34.5065,149.337,108.799,109.016,-6.46696e-05,0.0466355,20.9463,86.7765,-0.017973,0.0,0.0
135,33.5,33.2607,34.3688,150.033,108.808,109.497,-4.94585e-05,0.0466391,20.9464,86.7465,-0.0570245,0.0,0.0
138,34.25,33.0651,34.5003,155.486,108.829,110.142,7.60548e-06,0.0466418,20.9465,86.7365,-0.108484,0.0,0.0
141,35,33.4169,34.0386,154.524,108.844,109.567,7.73141e-05,0.0466438,20.9468,86.7465,-0.0599227,0.0,0.0
144,35.75,33.2995,34.5734,147.874,108.836,109.502,0.000142682,0.0466452,20.9464,86.7465,-0.0551649,0.0,0.0
147,36.5,33.5759,34.0487,146.322,108.837,109.76,0.000185013,0.046624,20.9461,86.7665,-0.0763143,0.0,0.0
150,37.25,33.3351,34.1089,148.424,108.863,110.179,0.000197221,0.0465705,20.9461,86.7765,-0.108602,0.0,0.0
153,38,33.2524,34.0415,147.136,108.883,109.545,0.000198169,0.0465315,20.9465,86.7565,-0.0548071,0.0,0.0
156,38.75,33.4444,34.247,146.888,108.883,109.501,0.000163409,0.0465031,20.9468,86.7465,-0.051218,0.0,0.0
159,39.5,33.1922,34.4494,150.997,108.877,109.568,0.000130224,0.0464676,20.947,86.7565,-0.0571682,0.0,0.0
162,40.25,33.3439,34.4399,150.397,108.902,110.091,0.000103859,0.0464163,20.9467,86.7365,-0.0981845,0.0,0.0
165,41,33.742,34.8195,151.207,108.917,109.997,6.4706e-05,0.0464392,20.9463,86.7565,-0.0892454,0.0,0.0
168,41.75,33.5386,34.3868,149.376,108.932,109.345,3.24576e-05,0.0464559,20.946,86.7365,-0.0342703,0.0,0.0
171,42.5,33.4547,34.3577,145.829,108.934,109.985,-6.9932e-06,0.046468,20.9458,86.7365,-0.0868503,0.0,0.0
174,43.25,33.205,33.8178,150.536,108.934,109.855,-3.94784e-05,0.0464743,20.9457,86.7465,-0.0761263,0.0,0.0
177,44,32.8444,34.2099,145.459,108.969,110.205,-5.69051e-05,0.0465216,20.9456,86.7465,-0.101966,0.0,0.0
180,44.75,33.1746,34.0899,151.617,108.973,109.442,-5.61969e-05,0.0465702,20.9455,86.7264,-0.0387536,0.0,0.0
183,45.5,33.3197,34.2197,153.48,108.972,109.65,-2.71136e-05,0.0466117,20.9454,86.6964,-0.0560182,0.0,0.0
186,46.25,33.4514,34.2692,146.106,109,109.543,6.26672e-06,0.0467021,20.9454,86.6764,-0.0449035,0.0,0.0
189,47,33.0116,34.3936,149.968,109.005,109.872,6.41629e-05,0.0468667,20.9454,86.6864,-0.0716598,0.0,0.0
192,47.75,33.6665,34.2365,154.158,109.035,109.924,0.000128533,0.0470435,20.9453,86.7164,-0.0734826,0.0,0.0
195,48.5,33.3008,34.2328,147.18,109.035,109.697,0.000188893,0.0471978,20.9453,86.7264,-0.0546775,0.0,0.0
198,49.25,33.1901,34.2817,150.763,109.04,110.28,0.000241768,0.0473243,20.9453,86.7264,-0.102228,0.0,0.0
201,50,33.3197,34.3748,147.409,109.066,110.695,0.00027835,0.0474226,20.9453,86.7264,-0.134064,0.0,0.0
204,50.75,33.4391,34.0624,148.015,109.077,109.699,0.000293801,0.0475344,20.9453,86.7264,-0.0513974,0.0,0.0
207,51.5,33.6984,33.7197,151.784,109.074,110.026,0.000291631,0.0476018,20.9453,86.7064,-0.0785637,0.0,0.0
210,52.25,33.387,34.0423,149.469,109.082,110.405,0.000270539,0.047645,20.9453,86.6964,-0.109013,0.0,0.0
213,53,33.7146,34.0444,145.693,109.104,110.251,0.000255164,0.0476363,20.9453,86.6964,-0.0944992,0.0,0.0
216,53.75,33.342,34.2724,148.702,109.122,109.7,0.000219136,0.0476017,20.9453,86.6964,-0.0478097,0.0,0.0
219,54.5,32.9918,34.3054,150.648,109.124,110.165,0.000182931,0.0475349,20.9453,86.6764,-0.0857601,0.0,0.0
222,55.25,33.3697,34.4154,152.265,109.132,110.389,0.000152301,0.0474354,20.9453,86.6564,-0.103463,0.0,0.0
225,56,33.2957,34.2442,151.651,109.135,109.469,0.000142375,0.0473348,20.9453,86.6664,-0.0276401,0.0,0.0
228,56.75,33.3779,33.8842,147.572,109.142,109.384,0.00013514,0.0472494,20.9453,86.6864,-0.0199989,0.0,0.0
231,57.5,33.4184,34.0888,149.39,109.148,109.89,0.0001597,0.0472474,20.9455,86.6764,-0.0612197,0.0,0.0
234,58.25,33.2862,34.2272,151.667,109.15,109.434,0.000192288,0.0472318,20.946,86.6864,-0.0234745,0.0,0.0
237,59,33.0332,34.5792,149.215,109.159,110.291,0.000219402,0.0472145,20.9463,86.6664,-0.0932285,0.0,0.0
240,59.75,34.0247,34.043,147.166,109.164,109.656,0.000223003,0.0471871,20.9466,86.6764,-0.0406607,0.0,0.0
243,60.5,33.153,34.1609,151.94,109.174,110.045,0.000218737,0.0471417,20.9467,86.6264,-0.0718895,0.0,0.0
246,61.25,33.5261,34.0962,149.488,109.165,110.203,0.000190772,0.0471287,20.9469,86.5663,-0.0855327,0.0,0.0
249,62,33.6754,34.4049,149.726,109.175,109.121,0.000159135,0.0471052,20.947,86.6163,0.00450881,0.0,0.0
252,62.75,33.3455,34.3321,147.848,109.185,109.732,0.000134953,0.047082,20.947,86.5663,-0.0451824,0.0,0.0
255,63.5,33.3765,34.5363,150.614,109.185,109.694,0.000147455,0.0470228,20.9471,86.5763,-0.0420578,0.0,0.0
258,64.25,33.5749,34.4944,151.419,109.183,109.917,0.000178951,0.0469617,20.9471,86.6063,-0.0605259,0.0,0.0
261,65,33.5598,34.5235,150.845,109.198,109.39,0.000219965,0.0469171,20.9472,86.6163,-0.0158779,0.0,0.0
264,65.75,33.0823,33.9368,149.085,109.21,109.417,0.00026442,0.0468772,20.9472,86.5963,-0.0171394,0.0,0.0
267,66.5,33.4899,34.3882,148.669,109.202,109.667,0.000304294,0.0468281,20.9472,86.5763,-0.0384181,0.0,0.0
270,67.25,33.6117,34.5344,148.679,109.224,109.342,0.000336546,0.0467795,20.9472,86.5763,-0.00978004,0.0,0.0
273,68,33.683,34.2226,150.686,109.2,110.051,0.000360057,0.046704,20.9472,86.5863,-0.070187,0.0,0.0
276,68.75,33.722,34.6886,148.356,109.211,109.982,0.000373922,0.0466489,20.9472,86.5863,-0.0635727,0.0,0.0
279,69.5,33.7197,34.7774,148.059,109.227,109.611,0.000378429,0.0466088,20.9472,86.5663,-0.0316999,0.0,0.0
282,70.25,33.4435,34.5729,153.042,109.209,109.111,0.000377981,0.0466499,20.9472,86.5463,0.00805609,0.0,0.0
285,71,33.7152,34.5344,151.31,109.215,109.648,0.000375409,0.0467099,20.9472,86.5263,-0.0358124,0.0,0.0
288,71.75,33.8747,34.4385,150.693,109.247,109.666,0.000372414,0.0467336,20.9472,86.4762,-0.0345532,0.0,0.0
291,72.5,33.3283,34.3772,149.536,109.24,109.853,0.000372005,0.046779,20.9472,86.5163,-0.0505851,0.0,0.0
294,73.25,33.9554,34.1727,151.322,109.228,110.172,0.000370463,0.0468241,20.9472,86.4962,-0.0777985,0.0,0.0
297,74,33.5334,34.4954,150.362,109.223,110.089,0.000368809,0.0468168,20.9472,86.4662,-0.0714311,0.0,0.0
300,74.75,33.7178,34.6145,146.869,109.229,109.855,0.000358894,0.0468189,20.9472,86.5163,-0.0516689,0.0,0.0
303,75.5,34.0014,34.588,150.546,109.223,109.404,0.000348609,0.0468332,20.9472,86.5463,-0.0149155,0.0,0.0
306,76.25,33.7473,34.3356,147.59,109.227,110.161,0.00034223,0.0468636,20.9472,86.5563,-0.0769539,0.0,0.0
309,77,33.4842,34.22,146.42,109.213,109.489,0.0003438,0.0469006,20.947,86.5563,-0.0228539,0.0,0.0
312,77.75,33.4635,35.1716,147.612,109.228,109.421,0.000355456,0.046953,20.9464,86.5563,-0.015933,0.0,0.0
315,78.5,34.0081,34.4381,147.909,109.223,109.062,0.000377393,0.0472323,20.9454,86.5363,0.0133357,0.0,0.0
318,79.25,33.6116,34.9231,151.001,109.221,109.327,0.00045378,0.0477846,20.9446,86.5263,-0.00870992,0.0,0.0
321,80,33.6847,34.6816,145.994,109.206,109.84,0.000509466,0.0487837,20.9428,86.5163,-0.0522948,0.0,1.0
324,80.75,33.5234,34.095,147.46,109.21,109.427,0.000681134,0.0513252,20.9401,86.5363,-0.0180167,0.0,1.0
327,81.5,34.0313,35.0037,145.645,109.221,110.604,0.000862158,0.0553893,20.9357,86.5062,-0.113707,0.0,1.0
330,82.25,33.4575,34.6718,146.703,109.211,109.414,0.00111939,0.0592947,20.9304,86.4462,-0.0167777,0.0,1.0
333,83,34.0124,34.1294,146.81,109.211,109.386,0.00140461,0.0651975,20.923,86.4062,-0.0145216,0.0,1.0
336,83.75,34.1119,34.7789,141.897,109.211,107.667,0.00168828,0.074726,20.9075,86.3761,0.128765,0.0,1.0
339,84.5,33.9983,34.5134,143.591,109.219,107.741,0.00201899,0.0877517,20.8852,86.3861,0.123191,0.0,1.0
342,85.25,33.2578,33.7059,141.899,109.207,107.105,0.00235599,0.0998392,20.8581,86.3361,0.175683,0.0,1.0
345,86,33.4221,33.8048,143.705,109.2,103.614,0.00276915,0.117893,20.8281,86.1659,0.474617,0.0,1.0
348,86.75,33.3602,33.6988,140.363,109.177,101.879,0.0031243,0.136931,20.7935,86.246,0.625398,0.0,1.0
351,87.5,33.9626,33.8032,142.919,109.203,101.592,0.003737,0.15676,20.763,86.1659,0.653118,0.0,1.0
354,88.25,34.5906,33.6816,138.309,109.192,98.4598,0.00418366,0.177105,20.7317,86.1359,0.935283,0.0,1.0
357,89,34.7924,34.5966,137.067,109.19,95.5018,0.00514823,0.202472,20.6977,86.0759,1.21085,0.0,1.0
360,89.75,34.9709,34.4278,131.761,109.178,93.6829,0.0062393,0.225874,20.6601,86.0458,1.38369,0.0,0.0
363,90.5,35.6378,34.9919,135.126,109.2,89.3055,0.0069129,0.251328,20.6312,85.9458,1.81807,0.0,0.0
366,91.25,36.0973,35.7366,132.812,109.185,84.1337,0.00858316,0.280665,20.5905,85.8557,2.35614,0.0,0.0
369,92,36.9181,36.1894,133.251,109.172,82.4363,0.0101925,0.312333,20.5485,85.7856,2.53933,0.0,0.0
372,92.75,37.0026,35.8302,134.106,109.178,81.1317,0.0123542,0.34514,20.4915,85.6555,2.68401,0.0,0.0
375,93.5,38.2568,36.6404,133.573,109.19,77.268,0.0144752,0.372402,20.4284,85.5554,3.12613,0.0,0.0
378,94.25,38.7264,37.2877,129.58,109.181,78.2004,0.016878,0.403898,20.3617,85.4353,3.01689,0.0,0.0
381,95,39.6641,37.537,124.006,109.186,74.6725,0.0186296,0.445425,20.3042,85.3252,3.4346,0.0,0.0
384,95.75,40.6883,38.6218,126.973,109.186,72.3834,0.0212323,0.487992,20.2433,85.1951,3.71613,0.0,0.0
387,96.5,41.2636,38.5807,128.925,109.178,68.4864,0.0238238,0.530492,20.1908,85.055,4.21572,0.0,0.0
390,97.25,42.1571,39.8158,120.48,109.193,66.3166,0.0260088,0.572123,20.128,84.9048,4.508,0.0,0.0
393,98,43.2209,40.5306,122.54,109.2,63.3242,0.029274,0.618111,20.064,84.6946,4.92599,0.0,0.0
396,98.75,44.1594,41.174,120.18,109.198,58.295,0.0326052,0.658303,19.9944,84.5245,5.67391,0.0,0.0
399,99.5,45.1281,42.4497,121.186,109.197,61.2894,0.0359751,0.711079,19.9173,84.3143,5.22098,0.0,0.0
402,100.25,46.4794,42.6627,119.712,109.197,53.7441,0.0393487,0.75839,19.8259,84.1942,6.40858,0.0,0.0
405,101,47.3825,44.158,117.023,109.201,51.1865,0.04306,0.807994,19.746,83.984,6.84964,0.0,0.0
408,101.75,48.6308,44.9374,112.65,109.201,53.689,0.0457656,0.860142,19.682,83.7738,6.41819,0.0,0.0
411,102.5,49.8603,46.5097,114.376,109.196,52.165,0.0490456,0.91227,19.6354,83.5637,6.6781,0.0,0.0
414,103.25,51.0993,47.1618,113.89,109.2,51.2533,0.0514368,0.95886,19.5845,83.3935,6.83782,0.0,0.0
417,104,52.4001,48.0193,109.123,109.197,52.4274,0.0537627,0.996486,19.5386,83.1533,6.63278,0.0,0.0
420,104.75,53.6255,49.5258,114.186,109.204,53.5676,0.0554292,1.03802,19.4959,82.9831,6.43886,0.0,0.0
423,105.5,55.0175,50.3645,110.619,109.222,56.5439,0.0565427,1.0683,19.4552,82.7729,5.95156,0.0,0.0
426,106.25,56.0126,51.7759,110.611,109.217,57.3181,0.0572021,1.09859,19.4016,82.5728,5.82819,0.0,0.0
429,107,57.5736,52.4179,111.962,109.214,55.1589,0.0572436,1.13474,19.3564,82.3526,6.17504,0.0,0.0
432,107.75,59.5393,54.7672,116.023,109.218,55.9118,0.0570853,1.16784,19.3207,82.1924,6.05285,0.0,0.0
435,108.5,61.0372,56.0031,107.679,109.224,55.0618,0.0566475,1.19448,19.2947,81.9823,6.19185,0.0,0.0
438,109.25,63.0489,56.944,102.036,109.226,56.0291,0.0561031,1.21569,19.2758,81.7821,6.03456,0.0,0.0
441,110,64.5398,58.5973,118.248,109.231,56.8903,0.055321,1.23239,19.262,81.5919,5.89712,0.0,0.0
444,110.75,65.5911,60.5355,110.592,109.235,58.0244,0.0543864,1.24597,19.2519,81.3917,5.71897,0.0,0.0
447,111.5,67.5811,61.6126,109.822,109.237,61.4887,0.0535225,1.25504,19.2469,81.1715,5.1949,0.0,0.0
450,112.25,68.5935,63.1187,106.666,109.245,59.3927,0.0528149,1.26024,19.2472,81.0715,5.50915,0.0,0.0
453,113,69.9035,64.6155,110.319,109.243,56.7264,0.0521658,1.26112,19.2544,80.8613,5.92418,0.0,0.0
456,113.75,70.7432,65.5995,106.25,109.249,54.3559,0.0516523,1.25993,19.2603,80.7011,6.31058,0.0,0.0
459,114.5,72.4,66.9713,115.092,109.266,55.9902,0.0512272,1.25803,19.2659,80.531,6.04414,0.0,0.0
462,115.25,72.9458,68.5665,110.337,109.267,57.9537,0.0508601,1.25693,19.2699,80.3508,5.73264,0.0,0.0
465,116,74.4653,69.5763,108.882,109.261,55.9194,0.0505215,1.25591,19.2728,80.1406,6.05518,0.0,0.0
468,116.75,75.6217,70.9341,110.762,109.277,55.6474,0.0501534,1.25483,19.2762,79.9805,6.10058,0.0,0.0
471,117.5,76.7451,71.8036,111.791,109.271,57.2397,0.0496869,1.25332,19.2791,79.7803,5.84503,0.0,0.0
474,118.25,77.8021,72.9817,116.539,109.287,55.8501,0.0492689,1.25221,19.2814,79.6402,6.06855,0.0,0.0
477,119,79.0425,74.5948,104.969,109.291,58.5923,0.0488313,1.25138,19.2831,79.4,5.63555,0.0,0.0
480,119.75,79.8421,75.8379,109.916,109.305,57.4697,0.0483852,1.25099,19.2848,79.2398,5.81163,0.0,0.0
483,120.5,80.9952,76.4972,112.227,109.311,57.2407,0.0479895,1.25077,19.2862,79.0797,5.84821,0.0,0.0
486,121.25,81.8591,77.778,108.434,109.315,55.6772,0.0476371,1.25057,19.2872,78.9095,6.09893,0.0,0.0
489,122,83.0065,78.8881,109.984,109.325,59.7942,0.0473224,1.25033,19.288,78.6994,5.45481,0.0,0.0
492,122.75,83.6769,80.1199,112.56,109.336,60.0698,0.0470929,1.25027,19.2885,78.5592,5.41419,0.0,0.0
495,123.5,84.6311,80.9413,109.44,109.348,58.0735,0.0467709,1.25048,19.2889,78.339,5.72071,0.0,0.0
498,124.25,85.7821,82.0929,103.139,109.351,58.0325,0.0464752,1.25158,19.2892,78.1689,5.72734,0.0,0.0
501,125,86.4155,83.1329,106.299,109.364,59.6137,0.0462015,1.25238,19.2894,78.0188,5.4854,0.0,0.0
504,125.75,87.6584,84.231,107.725,109.374,61.1635,0.0459472,1.25348,19.2896,77.8486,5.25419,0.0,0.0
507,126.5,88.4704,85.4422,108.696,109.384,57.1775,0.0457194,1.25329,19.2897,77.6885,5.86424,0.0,0.0
510,127.25,89.7118,86.3318,111.648,109.386,57.6669,0.0454808,1.25145,19.2952,77.4983,5.78733,0.0,0.0
513,128,90.0438,87.2107,105.235,109.408,60.9977,0.045244,1.24605,19.3017,77.3382,5.28159,0.0,0.0
516,128.75,91.2403,88.0905,114.984,109.409,61.2636,0.0450283,1.24212,19.3109,77.148,5.2423,0.0,0.0
519,129.5,91.7286,89.0378,112.7,109.424,60.1699,0.0447973,1.23403,19.3257,77.0079,5.40638,0.0,0.0
522,130.25,92.4972,90.1289,108.108,109.439,64.9048,0.0445295,1.2235,19.3366,76.8277,4.72286,0.0,0.0
525,131,92.9112,90.5839,108.618,109.439,60.1684,0.0441641,1.2117,19.3577,76.6676,5.40786,0.0,0.0
528,131.75,92.9377,91.6047,118.617,109.455,58.7344,0.0436421,1.19711,19.3776,76.5475,5.62727,0.0,0.0
531,132.5,94.2514,92.0177,108.456,109.459,61.5114,0.04308,1.18391,19.3969,76.3373,5.20998,0.0,0.0
534,133.25,94.425,92.8717,112.838,109.466,63.3763,0.0425928,1.1699,19.4162,76.2472,4.9405,0.0,0.0
537,134,94.7538,93.7079,116,109.465,61.5589,0.0419947,1.15583,19.4356,76.057,5.20344,0.0,0.0
540,134.75,95.4987,94.0772,108.476,109.484,64.3173,0.0414291,1.14215,19.4548,75.9269,4.80876,0.0,0.0
543,135.5,95.5493,94.9023,114.128,109.509,65.4449,0.0408966,1.1291,19.4735,75.7568,4.6537,0.0,0.0
546,136.25,95.8566,95.7906,119.322,109.502,63.6311,0.0403974,1.11538,19.4947,75.6267,4.90726,0.0,0.0
549,137,96.3521,95.8973,115.141,109.512,61.6439,0.0399587,1.10149,19.5102,75.4765,5.19489,0.0,0.0
552,137.75,96.7565,96.4675,116.746,109.524,65.9591,0.0394534,1.08782,19.531,75.3064,4.58419,0.0,0.0
555,138.5,96.5244,96.9822,116.893,109.538,65.2507,0.0389866,1.07188,19.5543,75.1362,4.68301,0.0,0.0
558,139.25,96.8284,97.5827,111.799,109.533,63.5451,0.0384902,1.06026,19.5748,75.0261,4.92197,0.0,0.0
561,140,96.7706,97.7333,120.624,109.533,66.801,0.0379762,1.04394,19.5957,74.906,4.4703,0.0,0.0
564,140.75,97.0311,97.7796,120.378,109.545,65.8539,0.037455,1.02552,19.6217,74.7859,4.60041,0.0,0.0
567,141.5,97.5605,98.1564,117.362,109.551,65.4327,0.0369113,1.00664,19.6492,74.6258,4.65885,0.0,0.0
570,142.25,97.2591,98.6549,119.912,109.557,68.0095,0.0363661,0.988318,19.6793,74.4957,4.31023,0.0,0.0
573,143,97.6604,98.9403,117.256,109.554,68.8444,0.0358335,0.9694,19.7067,74.3856,4.19965,0.0,0.0
576,143.75,97.0615,98.8815,123.831,109.565,71.3003,0.0353246,0.950914,19.7268,74.2554,3.88369,0.0,0.0
579,144.5,96.9372,99.5147,118.59,109.567,68.2624,0.0347473,0.933468,19.7502,74.1454,4.27753,0.0,0.0
582,145.25,97.1635,99.5019,126.135,109.571,70.739,0.0340792,0.913941,19.771,74.0353,3.95561,0.0,0.0
585,146,97.3808,99.4637,122.565,109.571,70.0979,0.0334786,0.896668,19.7926,73.8651,4.03796,0.0,0.0
588,146.75,97.0034,99.9025,119.464,109.578,67.1251,0.0328465,0.878878,19.8184,73.775,4.43024,0.0,0.0
591,147.5,96.6399,99.8105,124.483,109.589,73.0554,0.0320918,0.8625,19.8498,73.6149,3.66587,0.0,0.0
594,148.25,96.3241,99.6574,123.572,109.587,71.0262,0.0312266,0.844728,19.8727,73.5348,3.92033,0.0,0.0
597,149,96.2274,99.8411,118.834,109.587,70.247,0.0305959,0.825229,19.896,73.4147,4.02005,0.0,0.0
600,149.75,96.1042,99.5695,126.901,109.59,72.9482,0.0299209,0.806079,19.9158,73.3446,3.67918,0.0,0.0
603,150.5,95.9279,99.7689,122.445,109.614,75.6828,0.029061,0.787276,19.941,73.2245,3.34852,0.0,0.0
606,151.25,95.5731,99.5679,125.751,109.599,73.3259,0.0282694,0.768887,19.9593,73.1745,3.63326,0.0,0.0
609,152,95.0443,99.08,125.68,109.599,73.7163,0.0274106,0.750993,19.9844,73.0244,3.58523,0.0,0.0
612,152.75,94.8777,99.6385,129.519,109.598,74.6497,0.026506,0.730272,20.0112,72.9543,3.47141,0.0,0.0
615,153.5,94.0181,99.5371,122.066,109.601,74.5688,0.0256564,0.71105,20.0403,72.8742,3.48146,0.0,0.0
618,154.25,93.8556,98.8049,126.481,109.597,76.8326,0.0248439,0.689996,20.0718,72.7641,3.21078,0.0,0.0
621,155,93.3528,98.7802,133.923,109.6,76.3902,0.02406,0.66864,20.1087,72.6841,3.26324,0.0,0.0
624,155.75,92.684,98.482,124.629,109.6,78.8795,0.0232851,0.650511,20.1389,72.594,2.97336,0.0,0.0
627,156.5,92.4119,97.9868,128.05,109.599,77.8409,0.0225174,0.631165,20.1664,72.5439,3.09314,0.0,0.0
630,157.25,92.4639,98.1546,130.705,109.606,80.7509,0.0217594,0.612711,20.1947,72.4639,2.76194,0.0,0.0
633,158,90.9724,97.7232,130.736,109.598,75.7141,0.0209063,0.595067,20.2186,72.3638,3.34342,0.0,0.0
636,158.75,90.5855,97.7058,131.87,109.592,78.0603,0.0201563,0.578209,20.2415,72.3037,3.06707,0.0,0.0
639,159.5,90.4616,96.801,131.714,109.594,80.3267,0.0192626,0.55955,20.2649,72.2237,2.8085,0.0,0.0
642,160.25,89.8174,96.5131,134.754,109.599,78.6287,0.0184697,0.542958,20.2848,72.1736,3.00207,0.0,0.0
645,161,89.5649,96.2911,134.028,109.597,81.9286,0.0176501,0.525753,20.3094,72.0935,2.63025,0.0,0.0
648,161.75,88.6976,95.689,135.735,109.595,80.8354,0.0167935,0.507749,20.3363,72.0435,2.75154,0.0,0.0
651,162.5,87.9629,95.2942,137.73,109.599,83.6619,0.0159656,0.492297,20.3625,71.9534,2.44117,0.0,0.0
654,163.25,87.2305,95.1762,130.862,109.591,86.2382,0.0152753,0.475048,20.3864,71.8934,2.16634,0.0,0.0
657,164,86.1869,94.5386,131.036,109.585,85.7159,0.0144815,0.458308,20.4087,71.8333,2.22078,0.0,0.0
660,164.75,85.6938,93.9882,138.101,109.585,89.5103,0.0135674,0.442473,20.432,71.7933,1.82918,0.0,0.0
663,165.5,85.3357,93.7063,134.681,109.592,88.3235,0.0129937,0.427756,20.4457,71.7532,1.95046,0.0,0.0
666,166.25,84.589,93.1327,136.991,109.587,90.7325,0.0121469,0.413411,20.4616,71.6932,1.70677,0.0,0.0
669,167,83.9765,93.0908,137,109.6,92.1316,0.011451,0.401411,20.4801,71.6632,1.56953,0.0,0.0
672,167.75,83.6218,91.7492,134.631,109.579,93.0903,0.0106824,0.38318,20.4985,71.6231,1.47423,0.0,0.0
675,168.5,83.0697,91.7194,136.741,109.6,93.5752,0.00997333,0.376571,20.5139,71.5631,1.42898,0.0,0.0
678,169.25,82.1736,91.4294,139.636,109.586,97.2513,0.00932034,0.36283,20.5346,71.473,1.07947,0.0,0.0
681,170,81.4106,90.655,139.189,109.587,96.4519,0.00872015,0.349132,20.5579,71.4129,1.15417,0.0,0.0
684,170.75,81.2407,90.4898,143.256,109.575,99.2218,0.00814642,0.335671,20.5775,71.453,0.89726,0.0,0.0
687,171.5,79.9836,89.4701,138.911,109.592,100.344,0.00767012,0.322602,20.5961,71.4129,0.79696,0.0,0.0
690,172.25,79.5301,89.0549,139.009,109.591,101.628,0.00712012,0.309405,20.6097,71.423,0.681878,0.0,0.0
693,173,78.7343,88.567,139.608,109.587,102.377,0.00671917,0.296569,20.6248,71.3729,0.615218,0.0,0.0
696,173.75,78.3955,88.0028,146.339,109.581,105.034,0.00629421,0.284387,20.6402,71.3729,0.383068,0.0,0.0
699,174.5,76.9522,87.889,140.009,109.579,106.554,0.00589974,0.271423,20.6553,71.3129,0.253046,0.0,0.0
702,175.25,76.8941,87.1948,143.088,109.585,108.228,0.00556406,0.260231,20.6711,71.3028,0.112624,0.0,0.0
705,176,76.2127,86.7377,143.075,109.589,109.765,0.00529521,0.24923,20.6882,71.2828,-0.0144973,0.0,0.0
708,176.75,75.2152,85.6528,142.874,109.576,109.56,0.00509092,0.236351,20.7067,71.2928,0.00136096,0.0,0.0
711,177.5,74.7252,85.3315,140.816,109.567,110.369,0.00494542,0.222666,20.7277,71.2828,-0.0658802,0.0,0.0
714,178.25,74.3235,85.0802,146.854,109.575,111.732,0.00485023,0.21269,20.747,71.3129,-0.176228,0.0,0.0
717,179,73.5455,84.2355,143.53,109.577,111.465,0.00478084,0.200714,20.7628,71.3129,-0.154423,0.0,0.0
720,179.75,72.5592,83.8247,143.808,109.571,111.96,0.00476472,0.188485,20.7778,71.2928,-0.194993,0.0,0.0
723,180.5,71.9159,82.7886,145.942,109.561,111.254,0.00478223,0.177342,20.7917,71.2728,-0.138581,0.0,0.0
726,181.25,71.4137,82.4437,144.768,109.572,111.241,0.00480747,0.168268,20.8042,71.2828,-0.136599,0.0,0.0
729,182,70.3984,81.8992,142.588,109.561,111.769,0.00487128,0.158619,20.8164,71.2828,-0.180347,0.0,0.0
732,182.75,70.3561,81.3535,141.291,109.56,111.098,0.00493946,0.150571,20.8265,71.2728,-0.126027,0.0,0.0
735,183.5,69.3013,80.497,147.855,109.556,111.114,0.00501451,0.142971,20.8359,71.2628,-0.127709,0.0,0.0
738,184.25,67.8055,78.7785,144.004,109.553,111.09,0.00509677,0.13608,20.8446,71.2628,-0.125959,0.0,0.0
741,185,66.4164,77.9344,146.418,109.547,110.858,0.00522046,0.130076,20.8523,71.2228,-0.107564,0.0,0.0
744,185.75,65.4154,77.0389,144.904,109.544,111.653,0.00531063,0.125008,20.8584,71.2128,-0.172366,0.0,0.0
747,186.5,64.8776,76.7305,144.811,109.538,111.364,0.00550769,0.120508,20.8629,71.2228,-0.149393,0.0,0.0
750,187.25,64.2654,75.8018,147.075,109.542,111.214,0.00570387,0.117061,20.8662,71.2228,-0.136984,0.0,0.0
753,188,63.562,75.11,146.63,109.525,110.816,0.00586928,0.114262,20.8686,71.2528,-0.105933,0.0,0.0
756,188.75,63.085,74.6043,146.669,109.533,111.376,0.00605207,0.111872,20.8703,71.2428,-0.150817,0.0,0.0
759,189.5,62.4318,73.8247,145.515,109.522,111.977,0.00621486,0.110129,20.8716,71.1727,-0.200403,0.0,0.0
762,190.25,61.9896,73.3607,146.959,109.533,111.844,0.00635964,0.108591,20.8725,71.1527,-0.188778,0.0,0.0
765,191,61.4066,72.9756,148.391,109.525,110.819,0.00648832,0.107383,20.8738,71.1727,-0.106176,0.0,0.0
768,191.75,61.4857,72.9297,145.957,109.512,111.295,0.00659112,0.106413,20.8748,71.1727,-0.146003,0.0,0.0
771,192.5,60.4138,72.0558,145.481,109.501,111.187,0.0066699,0.105615,20.8754,71.1527,-0.138129,0.0,0.0
774,193.25,60.1645,71.2735,143.279,109.498,111.206,0.00671448,0.104932,20.876,71.1527,-0.139947,0.0,0.0
777,194,59.5616,70.8781,148.876,109.504,111.161,0.00673676,0.104307,20.8763,71.1327,-0.135735,0.0,0.0
780,194.75,58.6465,70.1037,147.198,109.506,111.834,0.00674491,0.10371,20.8766,71.1627,-0.190197,0.0,0.0
783,195.5,58.4241,70.0036,144.321,109.478,111.31,0.00674535,0.103216,20.8768,71.1427,-0.150052,0.0,0.0
786,196.25,57.875,69.5627,147.583,109.474,111.776,0.00674567,0.102832,20.8769,71.1227,-0.188165,0.0,0.0
789,197,57.7584,68.9804,144.069,109.467,110.976,0.00673435,0.102511,20.8772,71.1227,-0.123708,0.0,0.0
792,197.75,56.9211,68.9086,146.343,109.47,111.283,0.00671778,0.102147,20.8776,71.1027,-0.148456,0.0,0.0
795,198.5,56.7456,67.6031,144.862,109.452,111.01,0.00669993,0.101826,20.8785,71.1027,-0.127789,0.0,0.0
798,199.25,56.4335,67.7241,143.772,109.431,111.575,0.00668508,0.101547,20.8791,71.1027,-0.175391,0.0,0.0
801,200,55.9984,67.231,145.079,109.434,111.357,0.00667425,0.101266,20.8796,71.0927,-0.157456,0.0,0.0
804,200.75,55.9926,66.643,142.852,109.428,111.602,0.00667186,0.10104,20.88,71.0927,-0.177819,0.0,0.0
807,201.5,54.9061,66.7889,146.264,109.416,111.792,0.00667011,0.10079,20.8802,71.1127,-0.19419,0.0,0.0
810,202.25,54.7786,65.8146,145.418,109.394,111.372,0.00666884,0.10057,20.8804,71.0826,-0.161941,0.0,0.0
813,203,54.233,65.3553,147.598,109.405,111.466,0.00665885,0.100309,20.8812,71.0726,-0.168657,0.0,0.0
816,203.75,54.2035,65.0275,144.397,109.387,111.576,0.00665029,0.100068,20.8821,71.0626,-0.179134,0.0,0.0
819,204.5,53.8407,64.9901,145.636,109.391,111.177,0.00664755,0.0998799,20.8825,71.0526,-0.146423,0.0,0.0
822,205.25,53.5388,64.2859,147.615,109.361,110.966,0.00665249,0.0997857,20.8829,71.0426,-0.131711,0.0,0.0
825,206,53.2617,63.5751,145.313,109.362,112.016,0.0066561,0.0997588,20.8833,71.0426,-0.216752,0.0,0.0
828,206.75,52.8715,63.3655,147.103,109.359,111.347,0.00665872,0.0997792,20.8835,71.0126,-0.162863,0.0,0.0
831,207.5,51.9847,62.7076,146.667,109.343,111.348,0.00660754,0.0997531,20.8837,71.0226,-0.164223,0.0,0.0
834,208.25,52.1261,62.5076,147.88,109.334,111.76,0.0065151,0.0996908,20.8838,71.0126,-0.198428,0.0,0.0
837,209,52.0723,62.2705,143.762,109.321,111.181,0.00640062,0.099627,20.8839,71.0126,-0.152498,0.0,0.0
840,209.75,51.7492,61.6968,147.266,109.318,111.484,0.00627682,0.0993547,20.884,71.0226,-0.177388,0.0,0.0
843,210.5,51.3795,61.1777,146.055,109.315,111.752,0.00615738,0.0991562,20.884,71.0326,-0.199272,0.0,0.0
846,211.25,51.1232,61.0374,148.699,109.291,111.648,0.00606775,0.0988474,20.884,71.0026,-0.192894,0.0,0.0
849,212,50.896,60.7119,147.26,109.281,111.258,0.00600132,0.0986079,20.8841,71.0126,-0.162084,0.0,0.0
852,212.75,50.2489,60.8029,147.599,109.274,111.233,0.00597296,0.0984127,20.8841,70.9926,-0.160652,0.0,0.0
855,213.5,50.2453,59.8774,146.164,109.268,111.606,0.00595229,0.0982568,20.8841,70.9726,-0.191405,0.0,0.0
858,214.25,50.012,59.8067,144.308,109.262,111.075,0.00599189,0.0981302,20.8841,70.9625,-0.148774,0.0,0.0
861,215,49.707,58.8777,146.057,109.236,110.363,0.00605408,0.0979947,20.884,70.9726,-0.0928033,0.0,0.0
864,215.75,49.2398,59.1178,147.411,109.241,111.13,0.00612643,0.0978776,20.8838,70.9726,-0.154982,0.0,0.0
867,216.5,49.4899,58.693,148.734,109.243,110.92,0.00620111,0.0976879,20.8843,70.9726,-0.137707,0.0,0.0
870,217.25,48.4428,58.1679,146.541,109.232,111.214,0.00627201,0.0975269,20.8847,70.9726,-0.162536,0.0,0.0
873,218,48.7257,57.816,145.872,109.207,111.17,0.00632505,0.0973707,20.8849,70.9625,-0.161091,0.0,0.0
876,218.75,48.1251,57.7261,149.407,109.215,110.778,0.00636602,0.0971338,20.8851,70.9625,-0.128472,0.0,0.0
879,219.5,48.3631,57.6905,145.754,109.202,111.312,0.00639589,0.0969324,20.8852,70.9625,-0.173041,0.0,0.0
882,220.25,48.085,57.3715,148.823,109.178,111.949,0.00636279,0.0967733,20.885,70.9425,-0.226612,0.0,0.0
885,221,47.8387,57.1082,145.942,109.154,111.264,0.00630563,0.0965753,20.8848,70.9125,-0.173096,0.0,0.0
888,221.75,47.5956,56.5478,149.043,109.153,110.718,0.00620749,0.096431,20.8847,70.9125,-0.128732,0.0,0.0
891,222.5,46.9121,56.5771,147.083,109.152,111.145,0.00610309,0.0963114,20.8846,70.9025,-0.163584,0.0,0.0
894,223.25,47.1211,55.5237,142.375,109.136,111.477,0.00602635,0.096203,20.8845,70.8825,-0.191847,0.0,0.0
897,224,46.6354,55.3573,148.076,109.128,111.091,0.00595868,0.0960981,20.8852,70.8725,-0.161126,0.0,0.0
900,224.75,46.8682,55.0739,146.531,109.134,111.729,0.00594051,0.0959211,20.8856,70.8825,-0.212465,0.0,0.0
903,225.5,46.4163,55.3837,149.296,109.129,110.89,0.00592718,0.0957416,20.8861,70.8725,-0.144662,0.0,0.0
906,226.25,46.9249,55.027,145.584,109.125,111.174,0.00592209,0.0955978,20.8865,70.8725,-0.168165,0.0,0.0
909,227,46.519,54.2377,147.364,109.102,110.706,0.00592067,0.0954666,20.8868,70.8524,-0.131962,0.0,0.0
912,227.75,45.8426,54.1001,145.589,109.109,111.514,0.00591897,0.0953966,20.887,70.8625,-0.197079,0.0,0.0
915,228.5,45.9768,54.0265,149.656,109.101,111.09,0.00591658,0.0952866,20.8871,70.8524,-0.16332,0.0,0.0
918,229.25,45.3778,53.7193,144.441,109.116,111.261,0.00591484,0.0952065,20.8872,70.8524,-0.175973,0.0,0.0
921,230,45.4665,53.7148,147.401,109.082,110.927,0.00591895,0.0951253,20.8873,70.8324,-0.151598,0.0,0.0
924,230.75,45.4389,53.52,145.777,109.088,110.823,0.00593386,0.0950274,20.888,70.8024,-0.142669,0.0,0.0
927,231.5,44.8284,52.9295,145.226,109.082,110.83,0.00594934,0.0948956,20.8885,70.7924,-0.143646,0.0,0.0
930,232.25,45.5913,52.8871,146.73,109.072,111.18,0.00596062,0.0946961,20.8888,70.7724,-0.173106,0.0,0.0
933,233,44.8659,52.5972,148.067,109.064,111.348,0.00596501,0.0944892,20.8891,70.8024,-0.18737,0.0,0.0
936,233.75,44.5393,52.3639,143.444,109.054,111.678,0.00596657,0.094324,20.8893,70.8124,-0.214936,0.0,0.0
939,234.5,44.8259,52.2758,146.954,109.072,111.641,0.00596252,0.0941522,20.8894,70.8024,-0.210442,0.0,0.0
942,235.25,44.4945,52.4851,147.082,109.055,110.979,0.00595735,0.0939494,20.8895,70.8024,-0.158123,0.0,0.0
945,236,44.6221,52.1839,147.112,109.045,111.041,0.00595176,0.0936788,20.8899,70.7924,-0.163992,0.0,0.0
948,236.75,44.2866,51.7227,149.667,109.019,111.747,0.00594257,0.0934053,20.8903,70.7824,-0.223407,0.0,0.0
951,237.5,44.1197,51.5223,148.606,109.025,110.71,0.00593436,0.0930757,20.8905,70.8024,-0.138682,0.0,0.0
954,238.25,43.5468,51.1802,146.263,109.027,110.912,0.00592952,0.0927207,20.8907,70.8124,-0.15492,0.0,0.0
957,239,43.8321,51.4067,146.939,109.021,110.706,0.00593148,0.092413,20.8904,70.8224,-0.138682,0.0,0.0
960,239.75,43.5785,50.8101,148.528,109.015,111,0.00592394,0.0921887,20.8903,70.8324,-0.163154,0.0,0.0
963,240.5,43.3359,50.4151,147.689,108.99,110.987,0.00591463,0.0920456,20.8905,70.7924,-0.164141,0.0,0.0
966,241.25,43.6721,50.5165,147.091,108.99,110.602,0.00589761,0.0919413,20.8907,70.8024,-0.132744,0.0,0.0
969,242,43.1495,50.1944,147.677,108.975,111.471,0.00588084,0.0918652,20.8909,70.7524,-0.204724,0.0,0.0
972,242.75,43.3072,50.1264,146.445,108.94,110.83,0.00585327,0.0916666,20.8911,70.7624,-0.155476,0.0,0.0
975,243.5,43.3617,49.7015,143.612,108.946,111.128,0.00582663,0.0914215,20.8915,70.7624,-0.179304,0.0,0.0
978,244.25,43.3301,49.5641,145.634,108.945,110.881,0.00577257,0.0912,20.8918,70.7423,-0.159241,0.0,0.0
981,245,42.9767,49.471,147.556,108.931,111.995,0.00570378,0.0909782,20.8922,70.7223,-0.250705,0.0,0.0
984,245.75,42.8268,49.1549,145.57,108.898,111.166,0.00562768,0.0907133,20.893,70.7023,-0.186396,0.0,0.0
987,246.5,42.7739,49.1938,148.307,108.899,111.151,0.00554923,0.0905407,20.8935,70.6923,-0.185016,0.0,0.0
990,247.25,42.8277,48.9384,148.185,108.899,110.968,0.00547748,0.0904148,20.8939,70.6823,-0.17019,0.0,0.0
993,248,42.4857,48.527,146.905,108.883,110.598,0.00542518,0.0902413,20.8942,70.7123,-0.141315,0.0,0.0
996,248.75,42.5441,48.764,149.183,108.884,110.97,0.00538523,0.0901005,20.8944,70.6923,-0.171491,0.0,0.0
999,249.5,42.0768,48.7033,145.632,108.884,110.066,0.00535812,0.089954,20.8945,70.6923,-0.0976158,0.0,0.0
1002,250.25,42.2213,48.0409,151.523,108.883,109.696,0.0053418,0.0897827,20.8946,70.6523,-0.0672389,0.0,0.0
1005,251,42.2675,48.2233,145.252,108.864,110.445,0.00534082,0.0895149,20.8951,70.6323,-0.130402,0.0,0.0
1008,251.75,41.9131,47.5065,146.311,108.856,110.617,0.00535032,0.0893121,20.8957,70.6523,-0.145126,0.0,0.0
1011,252.5,41.861,47.8377,144.25,108.868,111.16,0.00537691,0.0891513,20.8961,70.6423,-0.188327,0.0,0.0
1014,253.25,42.0495,47.9719,147.499,108.845,110.526,0.00541291,0.0890485,20.8964,70.6823,-0.138526,0.0,0.0
1017,254,41.612,47.5048,145.757,108.838,110.29,0.00545639,0.0889645,20.8966,70.6423,-0.119822,0.0,0.0
1020,254.75,41.7798,47.0043,149.082,108.832,111.159,0.00548809,0.0888775,20.8968,70.6423,-0.191302,0.0,0.0
1023,255.5,41.443,47.9195,145.288,108.817,110.91,0.00555312,0.088712,20.8969,70.6423,-0.172221,0.0,0.0
1026,256.25,41.514,46.381,145.338,108.806,111.345,0.00560436,0.0885484,20.897,70.6523,-0.208557,0.0,0.0
1029,257,41.2607,46.9456,146.955,108.796,110.505,0.00563393,0.0884108,20.8971,70.6423,-0.140915,0.0,0.0
1032,257.75,41.283,46.5266,148.575,108.767,110.461,0.00563938,0.0883922,20.8971,70.6323,-0.139751,0.0,0.0
1035,258.5,41.0627,46.6621,142.782,108.765,110.682,0.00561602,0.0883258,20.8971,70.6323,-0.157922,0.0,0.0
1038,259.25,41.4643,46.4699,145.835,108.749,110.735,0.00557729,0.0881873,20.8974,70.6222,-0.163583,0.0,0.0
1041,260,40.9172,46.3438,144.111,108.731,110.621,0.0055398,0.088025,20.898,70.6222,-0.155764,0.0,0.0
1044,260.75,41.0897,46.1849,146.93,108.72,110.341,0.00549608,0.0878208,20.8984,70.6122,-0.133722,0.0,0.0
1047,261.5,41.5691,46.333,147.919,108.703,110.081,0.00547374,0.0876354,20.8986,70.6323,-0.113882,0.0,0.0
1050,262.25,40.8266,45.5121,147.144,108.707,110.844,0.00545175,0.0873573,20.8989,70.6122,-0.176031,0.0,0.0
1053,263,40.6258,45.885,146.508,108.689,110.655,0.0054434,0.0870688,20.8991,70.6022,-0.162105,0.0,0.0
1056,263.75,40.8527,45.9083,148.682,108.681,110.128,0.00544766,0.0868218,20.8992,70.5822,-0.119544,0.0,0.0
1059,264.5,40.6917,45.2538,147.356,108.66,111.095,0.00546351,0.086673,20.8993,70.5722,-0.200369,0.0,0.0
1062,265.25,40.5229,45.1721,145.755,108.651,110.726,0.00547506,0.0864721,20.8994,70.6022,-0.171019,0.0,0.0
1065,266,40.4815,45.1616,146.412,108.652,110.405,0.00548476,0.0863052,20.8994,70.6323,-0.144694,0.0,0.0
1068,266.75,40.046,45.0111,147.199,108.634,110.133,0.00548431,0.0862122,20.8992,70.6222,-0.123866,0.0,0.0
1071,267.5,40.29,44.9899,143.432,108.625,110.414,0.0054702,0.0861565,20.8991,70.5822,-0.147687,0.0,0.0
1074,268.25,40.9197,44.8238,144.849,108.609,110.87,0.00541441,0.086116,20.8991,70.5722,-0.186239,0.0,0.0
1077,269,40.2878,45.0849,148.283,108.594,110.333,0.00537374,0.085964,20.899,70.5622,-0.143642,0.0,0.0
1080,269.75,40.5739,44.1587,151.24,108.584,110.704,0.00526047,0.0857716,20.899,70.5322,-0.174775,0.0,0.0
1083,270.5,40.0848,44.8671,144.414,108.568,110.912,0.0051558,0.0855938,20.899,70.5422,-0.193135,0.0,0.0
1086,271.25,40.2005,44.3072,149.44,108.555,109.209,0.00504168,0.0853997,20.8996,70.5622,-0.054323,0.0,0.0
1089,272,40.0484,44.0798,145.823,108.548,110.334,0.0049331,0.0851156,20.9,70.5522,-0.147525,0.0,0.0
1092,272.75,40.1509,44.0444,150.652,108.541,110.31,0.0048603,0.0848482,20.9008,70.5422,-0.146205,0.0,0.0
1095,273.5,39.7477,44.1984,145.123,108.518,110.126,0.00481999,0.0845504,20.9015,70.5322,-0.132912,0.0,0.0
1098,274.25,39.7353,44.1456,143.647,108.497,109.894,0.00481983,0.0843333,20.9021,70.5222,-0.115691,0.0,0.0
1101,275,39.4976,43.9749,144.985,108.501,111.149,0.00484033,0.0841976,20.9025,70.5322,-0.217975,0.0,0.0
1104,275.75,39.9476,43.8359,144.944,108.479,110.492,0.00485527,0.0841373,20.9028,70.5422,-0.166199,0.0,0.0
1107,276.5,39.6857,43.7191,146.519,108.462,109.922,0.00489159,0.0840933,20.903,70.5522,-0.120894,0.0,0.0
1110,277.25,39.3387,43.5891,145.419,108.434,110.501,0.00490152,0.0840326,20.9031,70.5522,-0.170711,0.0,0.0
1113,278,39.2067,43.514,148.906,108.432,110.217,0.00487959,0.0839762,20.9033,70.5422,-0.147585,0.0,0.0
1116,278.75,39.3678,43.2821,145.079,108.411,109.484,0.00482582,0.0838536,20.9033,70.5222,-0.0889787,0.0,0.0
1119,279.5,39.2363,43.1509,146.178,108.396,109.906,0.00473404,0.0836965,20.9034,70.5222,-0.12503,0.0,0.0
1122,280.25,39.6584,43.202,145.643,108.401,110.552,0.00464046,0.0834662,20.9034,70.5121,-0.177663,0.0,0.0
1125,281,39.3934,42.9783,145.142,108.37,110.192,0.00456088,0.0831984,20.9035,70.4821,-0.150684,0.0,0.0
1128,281.75,39.1778,43.1196,144.864,108.361,110.306,0.00447208,0.0829455,20.9035,70.5021,-0.160867,0.0,0.0
1131,282.5,39.7645,43.1227,145.356,108.366,109.807,0.00440267,0.0827354,20.9035,70.4821,-0.119387,0.0,0.0
1134,283.25,39.3526,42.6893,149.194,108.342,110.218,0.00434408,0.0825823,20.9035,70.4921,-0.155206,0.0,0.0
1137,284,39.1932,42.5548,146.551,108.325,109.588,0.00430318,0.0824706,20.9035,70.4721,-0.104783,0.0,0.0
1140,284.75,39.2177,42.7234,146.9,108.342,109.718,0.00427082,0.0823893,20.9035,70.4721,-0.114018,0.0,0.0
1143,285.5,39.0266,42.4124,145.532,108.314,110.159,0.00424615,0.0821873,20.9035,70.4921,-0.152718,0.0,0.0
1146,286.25,38.9584,42.5465,147.319,108.304,110.634,0.0042137,0.0819725,20.904,70.4721,-0.192449,0.0,0.0
1149,287,38.9578,42.442,144.13,108.283,110.104,0.00415835,0.0817003,20.9045,70.4421,-0.150787,0.0,0.0
1152,287.75,39.1973,41.9822,146.059,108.308,109.466,0.00413453,0.0815222,20.9049,70.4521,-0.0961301,0.0,0.0
1155,288.5,38.9881,41.9769,146.758,108.274,110.019,0.00409566,0.0814066,20.9052,70.4821,-0.144508,0.0,0.0
1158,289.25,38.8964,42.1411,146.15,108.255,109.559,0.00404794,0.0813285,20.9047,70.4821,-0.108212,0.0,0.0
1161,290,38.9848,42.1586,147.738,108.248,110.348,0.00400429,0.0812308,20.9044,70.4721,-0.173736,0.0,0.0
1164,290.75,39.1516,42.0181,144.688,108.238,110.673,0.00396868,0.0811595,20.9042,70.4721,-0.201146,0.0,0.0
1167,291.5,39.0397,41.6537,144.497,108.225,110.512,0.00393188,0.0809651,20.904,70.4521,-0.189071,0.0,0.0
1170,292.25,38.6234,41.9667,146.251,108.21,110.285,0.00390379,0.0807859,20.9039,70.4221,-0.171701,0.0,0.0
1173,293,38.9105,41.8124,145.697,108.178,110.913,,0.0805909,,70.4121,-0.22574,0.0,0.0
1176,293.75,38.5628,42.1403,144.19,108.175,110.619,,0.0804061,,70.402,-0.201903,0.0,0.0
1179,294.5,38.8964,41.2108,146.919,108.147,109.454,,0.080193,,70.382,-0.108561,0.0,0.0
1182,295.25,38.4458,41.7791,146.307,108.134,110.714,,0.0799349,,70.4121,-0.213149,0.0,0.0
1185,296,38.2992,41.5773,146.569,108.124,110.014,,,,70.4221,-0.156683,0.0,0.0
1188,296.75,38.3612,41.2988,146.496,108.142,110.139,,,,70.4521,-0.165417,0.0,0.0
1191,297.5,38.5411,41.191,148.094,108.117,109.894,,,,70.4421,-0.147419,0.0,0.0
1194,298.25,38.3363,41.3707,147.918,108.114,109.61,,,,70.4521,-0.124239,0.0,0.0
1197,299,38.2277,40.7573,145.145,108.091,109.979,,,,70.4421,-0.156553,0.0,0.0
1200,299.75,38.1483,41.1891,142.43,108.082,109.386,,,,70.4321,-0.108445,0.0,0.0
1203,300.5,38.4809,41.2196,151.106,108.074,110.18,,,,70.392,-0.174409,0.0,0.0
1206,301.25,38.1872,40.4444,150.013,108.058,110.121,,,,70.362,-0.170966,0.0,0.0
1209,302,38.4293,41.0162,145.276,108.038,110.147,,,,70.372,-0.17483,0.0,0.0
1212,302.75,38.1817,40.8218,145.969,108.036,109.738,,,,70.342,-0.141306,0.0,0.0
1214,303.25,38.5314,41.2685,150.037,108.035,110.035,,,,70.372,-0.165872,0.0,0.0