File: 01_Data/FRP_Panel/Cone/FRP_Panel_Cone_HF50Scan_220919_R3.csv
Names,Time,Stack TC,Smoke TC,Exh Press,Smoke Comp,Smoke Meas,CO Meter,CO2 Meter,O2 Meter,Sample Mass,Ext Coeff,Start Test,Flame Verif
Chan Gain,,500,500,1,1,1,1,1,1,1,1,1.0,1.0
Offset,,0,0,0.143022,0,0,0,0,0,0,0,0.0,0.0
Gain,,1,1,25.011,14.5176,16.5692,1,1,1,1.00088,1.03055,1.0,1.0
Units,sec,C,C,Pa,%,%,%,%,%,g,/m,,
Baseline,,50.3759,52.0623,144.392,109.497,113.951,0.000398469,0.0431698,20.9519,-447.026,-0.360359,,
2,0.25,49.5312,51.4265,146.096,108.142,112.194,0.00047761,0.0495024,20.9474,79.9104,-0.33257,0.0,0.0
4,0.75,47.9649,50.4708,144.031,108.125,112.269,0.000471053,0.0497376,20.9473,79.9305,-0.339926,0.0,0.0
6,1.25,48.231,50.0798,145.707,108.117,112.918,0.000464563,0.0498612,20.9471,80.0506,-0.392762,0.0,0.0
8,1.75,48.2169,49.8016,140.12,108.118,112.058,0.000459306,0.0499013,20.947,79.9605,-0.323526,0.0,0.0
10,2.25,47.8956,49.9488,143.353,108.118,112.557,0.000451314,0.0498595,20.9472,79.9305,-0.363739,0.0,0.0
12,2.75,48.3747,50.1152,143.566,108.12,112.329,0.00044484,0.0497588,20.9475,79.9905,-0.345293,0.0,0.0
14,3.25,48.3769,49.8233,148.431,108.125,111.748,0.000442085,0.0495586,20.9478,79.9605,-0.297892,0.0,0.0
16,3.75,48.0254,49.8641,141.688,108.108,112.47,0.000439854,0.0492897,20.948,79.9405,-0.357603,0.0,0.0
18,4.25,47.7602,50.0855,143.224,108.114,111.396,0.000438047,0.0490718,20.9482,79.9605,-0.270382,0.0,0.0
20,4.75,47.817,49.9529,142.702,108.115,112.346,0.000441824,0.0487262,20.9485,79.9805,-0.347043,0.0,0.0
22,5.25,47.9317,49.9386,146.14,108.118,112.397,0.000449601,0.0484463,20.9491,79.9505,-0.350852,0.0,0.0
24,5.75,47.6436,50.3365,139.774,108.105,112.529,0.000455221,0.0480224,20.9495,80.0005,-0.362572,0.0,0.0
26,6.25,47.5664,49.4236,143.546,108.105,111.808,0.000459161,0.0476791,20.9498,79.9905,-0.304501,0.0,0.0
28,6.75,47.6394,49.9002,144.222,108.094,111.917,0.000458472,0.047401,20.9502,79.9505,-0.314253,0.0,0.0
30,7.25,47.7126,50.0906,145.038,108.102,112.666,0.000451836,0.0470208,20.9507,79.9505,-0.373836,0.0,0.0
32,7.75,47.9419,49.9983,143.342,108.094,112.728,0.000449007,0.0467129,20.9509,79.9405,-0.379492,0.0,0.0
34,8.25,48.149,49.7625,143.151,108.09,112.073,0.000437947,0.0464635,20.9512,79.9104,-0.327157,0.0,0.0
36,8.75,47.7831,49.6973,146.213,108.095,112.074,0.000428989,0.0461197,20.9515,79.9305,-0.326794,0.0,0.0
38,9.25,48.6598,49.6631,144.239,108.095,112.814,0.000425465,0.0458412,20.9517,79.9505,-0.386231,0.0,0.0
40,9.75,47.978,49.6636,144.301,108.079,112.107,0.000422611,0.0454391,20.9519,79.9405,-0.330742,0.0,0.0
42,10.25,47.8232,49.719,143.801,108.072,112.672,0.000421544,0.0452262,20.9521,79.9204,-0.376765,0.0,0.0
44,10.75,47.8863,49.3092,145.713,108.084,111.841,0.00042068,0.045132,20.9522,79.9305,-0.30894,0.0,0.0
46,11.25,47.7985,49.6283,143.297,108.065,113.069,0.00041998,0.0449708,20.9523,79.9204,-0.409149,0.0,0.0
48,11.75,47.6587,49.5957,144.145,108.07,112.678,0.000419414,0.0447558,20.9524,79.9204,-0.377437,0.0,0.0
50,12.25,48.2243,49.6079,143.998,108.069,112.163,0.000415221,0.0445816,20.9524,79.9405,-0.33616,0.0,0.0
52,12.75,47.9422,49.652,145.538,108.08,112.437,0.000411825,0.0443702,20.9524,79.9605,-0.357291,0.0,0.0
54,13.25,47.9015,49.8079,143.073,108.111,112.364,0.000409074,0.044199,20.9524,79.9505,-0.348805,0.0,0.0
56,13.75,47.7947,50.0117,145.151,108.153,112.113,0.000406846,0.0440603,20.9524,79.9204,-0.325081,0.0,0.0
58,14.25,47.8978,49.4948,143.686,108.156,112.621,0.000408316,0.0439479,20.9524,79.9204,-0.365703,0.0,0.0
60,14.75,48.2117,49.5185,142.928,108.198,112.958,0.000412455,0.0438569,20.9524,79.9204,-0.389217,0.0,0.0
62,15.25,47.7841,49.632,145.096,108.223,111.879,0.000424325,0.0437832,20.9524,79.9104,-0.300336,0.0,0.0
64,15.75,47.7565,49.7998,145.594,108.249,112.845,0.000441606,0.0437376,20.9524,79.9505,-0.375859,0.0,0.0
66,16.25,48.2844,49.4142,141.783,108.259,112.762,0.000455603,0.0437006,20.9524,79.9505,-0.368395,0.0,0.0
68,16.75,48.1145,50.1932,148.344,108.264,112.339,0.000478196,0.0436485,20.9524,79.9204,-0.333998,0.0,0.0
70,17.25,48.4466,49.5956,142.06,108.253,112.805,0.000496497,0.0435862,20.9524,79.9104,-0.372361,0.0,0.0
72,17.75,48.1749,49.5688,142.289,108.255,112.43,0.000508829,0.043558,20.9525,79.9104,-0.342097,0.0,0.0
74,18.25,48.1383,49.9151,144.504,108.248,112.436,0.000518819,0.0435552,20.9526,79.9004,-0.343099,0.0,0.0
76,18.75,48.2181,49.944,142.224,108.277,112.918,0.000519045,0.0435529,20.9527,79.9204,-0.379399,0.0,0.0
78,19.25,47.8671,49.8634,142.344,108.253,111.78,0.00051215,0.0435802,20.9528,79.8704,-0.289812,0.0,0.0
80,19.75,48.2931,50.0744,148.22,108.267,112.839,0.000509211,0.0436023,20.9529,79.8604,-0.373892,0.0,0.0
82,20.25,47.9661,49.7554,142.047,108.262,112.076,0.000496715,0.0436061,20.9529,79.8604,-0.312963,0.0,0.0
84,20.75,48.254,50.1869,144.775,108.26,112.746,0.000486594,0.0436092,20.953,79.8704,-0.367064,0.0,0.0
86,21.25,48.0617,49.8043,143.362,108.249,112.362,0.00047964,0.0436044,20.953,79.8404,-0.337091,0.0,0.0
88,21.75,48.3663,50.0198,143.227,108.269,112.363,0.000474007,0.0435937,20.9531,79.8404,-0.335541,0.0,0.0
90,22.25,48.1669,50.094,147.813,108.241,112.81,0.000466956,0.0435851,20.9531,79.8204,-0.373766,0.0,0.0
92,22.75,48.244,49.8407,144.156,108.247,112.543,0.000461244,0.0435741,20.9531,79.8103,-0.351865,0.0,0.0
94,23.25,48.2903,50.118,145.497,108.217,111.579,0.000454224,0.0435551,20.9531,79.8003,-0.276593,0.0,0.0
96,23.75,48.1138,50.0423,141.941,108.222,112.05,0.000442219,0.0435679,20.9531,79.8103,-0.314209,0.0,0.0
98,24.25,48.4336,49.6278,143.44,108.21,112.61,0.000427911,0.0435783,20.9532,79.8103,-0.360299,0.0,0.0
100,24.75,48.128,50.0416,144.416,108.221,112.533,0.000412195,0.0435867,20.9532,79.8204,-0.353195,0.0,0.0
102,25.25,48.311,49.5834,141.712,108.201,112.441,0.000399466,0.0435935,20.9532,79.8304,-0.347468,0.0,0.0
104,25.75,48.2327,49.8745,143.397,108.192,112.094,0.000386536,0.0435709,20.9532,79.8504,-0.320278,0.0,0.0
106,26.25,48.2632,49.9079,146.068,108.179,112.419,0.000373706,0.0435612,20.9532,79.8304,-0.347608,0.0,0.0
108,26.75,48.3252,50.3585,145.614,108.178,112.539,0.000363313,0.0435447,20.9532,79.8404,-0.357236,0.0,0.0
110,27.25,47.9341,49.7654,143.238,108.18,111.513,0.000359825,0.0435314,20.953,79.8103,-0.274297,0.0,0.0
112,27.75,48.0657,49.4584,145.106,108.173,111.76,0.000357,0.0435206,20.9526,79.8003,-0.294953,0.0,0.0
114,28.25,48.4762,49.8369,146.247,108.162,111.592,0.000385827,0.0435681,20.9522,79.8204,-0.282212,0.0,0.0
116,28.75,48.2106,49.7474,142.769,108.153,111.272,0.000409177,0.0436065,20.9518,79.8103,-0.257023,0.0,0.0
118,29.25,48.1958,49.731,145.011,108.146,112.203,0.000504123,0.0436377,20.9512,79.8304,-0.33297,0.0,0.0
120,29.75,48.371,49.9736,140.965,108.16,112.307,0.00058103,0.0442673,20.9505,79.8404,-0.340128,0.0,0.0
122,30.25,48.411,49.479,143.757,108.139,111.501,0.000778325,0.0447772,20.9472,79.8604,-0.27672,0.0,0.0
124,30.75,48.4447,49.5638,144.304,108.145,111.824,0.000938135,0.0477034,20.942,79.8003,-0.3024,0.0,0.0
126,31.25,47.771,49.9449,140.801,108.129,112.076,0.00124457,0.0500736,20.9324,79.7603,-0.324183,0.0,1.0
128,31.75,47.7038,49.9872,137.575,108.133,113.382,0.00149279,0.0579047,20.9198,79.7503,-0.428433,0.0,1.0
130,32.25,48.4572,49.7789,138.832,108.111,111.941,0.00191627,0.0642479,20.9096,79.7403,-0.314691,0.0,1.0
132,32.75,48.1315,50.114,136.827,108.139,107.025,0.00245947,0.0785671,20.8863,79.6502,0.0936591,0.0,1.0
134,33.25,48.5748,49.6518,136.063,108.115,102.844,0.00289947,0.0901657,20.8674,79.6702,0.451832,0.0,1.0
136,33.75,48.8125,49.9476,133.617,108.124,98.7298,0.00379399,0.11235,20.8521,79.5601,0.821657,0.0,1.0
138,34.25,49.1218,50.4262,130.738,108.105,92.48,0.00451855,0.130319,20.8285,79.5401,1.41126,0.0,1.0
140,34.75,49.1947,50.4315,140.245,108.12,92.1882,0.00510545,0.154481,20.7993,79.4901,1.44105,0.0,1.0
142,35.25,49.2676,50.5688,126.625,108.111,89.4501,0.00647693,0.182697,20.7757,79.38,1.71288,0.0,1.0
144,35.75,49.7971,50.7303,124.616,108.112,83.6741,0.00839432,0.205552,20.7362,79.3399,2.31638,0.0,1.0
146,36.25,49.0796,49.5806,129.437,108.094,79.413,0.0106891,0.246588,20.7041,79.2899,2.7874,0.0,1.0
148,36.75,49.6176,49.9864,124.513,108.103,74.0955,0.0132155,0.279826,20.6396,79.2298,3.41462,0.0,1.0
150,37.25,49.4442,49.8745,127.455,108.09,71.182,0.0152618,0.30675,20.5874,79.1097,3.77623,0.0,1.0
152,37.75,50.4231,50.3662,126.222,108.09,70.3244,0.0185607,0.345472,20.5074,79.0397,3.88576,0.0,0.0
154,38.25,50.9025,50.7902,122.317,108.09,62.8494,0.0199671,0.39206,20.4733,78.9196,4.90161,0.0,0.0
156,38.75,51.983,51.2469,116.068,108.094,61.8123,0.0236639,0.429796,20.3889,78.8095,5.05236,0.0,0.0
158,39.25,52.0465,51.6516,114.85,108.084,61.8001,0.0266584,0.488004,20.2972,78.6393,5.05332,0.0,0.0
160,39.75,53.0319,52.452,116.726,108.087,62.5965,0.0290839,0.535153,20.2229,78.5192,4.93783,0.0,0.0
162,40.25,53.9081,52.846,115.711,108.08,59.9232,0.0324975,0.598272,20.1461,78.4091,5.33184,0.0,0.0
164,40.75,54.9329,53.1877,112.806,108.078,56.4109,0.0352626,0.649399,20.0691,78.319,5.8777,0.0,0.0
166,41.25,56.0907,54.1725,108.539,108.067,59.8352,0.038305,0.682513,19.988,78.249,5.34401,0.0,0.0
168,41.75,56.852,55.2605,107.13,108.065,59.0696,0.0407693,0.739139,19.9055,78.0888,5.46027,0.0,0.0
170,42.25,57.7202,55.9774,108.806,108.061,60.7014,0.0432893,0.796838,19.8254,77.9287,5.2136,0.0,0.0
172,42.75,59.0842,56.7642,102.641,108.061,60.2726,0.0453305,0.854224,19.7486,77.8286,5.27765,0.0,0.0
174,43.25,59.644,57.3727,99.9642,108.065,61.1064,0.0472416,0.900707,19.6749,77.6885,5.15378,0.0,0.0
176,43.75,60.9494,58.2298,106.012,108.056,56.1773,0.0487897,0.955835,19.605,77.5083,5.91333,0.0,0.0
178,44.25,62.3799,59.2919,117.093,108.056,57.852,0.0500944,1.00049,19.5406,77.4182,5.64781,0.0,0.0
180,44.75,64.0325,61.0424,107.594,108.058,57.0025,0.0511512,1.04228,19.4816,77.2981,5.78169,0.0,0.0
182,45.25,65.3191,61.8586,100.447,108.059,59.5191,0.051931,1.08118,19.4293,77.148,5.39121,0.0,0.0
184,45.75,66.2799,63.2977,104.129,108.064,61.1387,0.0525627,1.11675,19.383,77.0179,5.14896,0.0,0.0
186,46.25,67.3652,64.5185,107.057,108.061,60.5193,0.0530744,1.14921,19.3415,76.9178,5.24071,0.0,0.0
188,46.75,68.8051,65.4132,98.1713,108.043,60.129,0.0534114,1.18207,19.3043,76.7176,5.29777,0.0,0.0
190,47.25,70.0889,66.268,104.094,108.05,58.9215,0.0536146,1.20868,19.2742,76.6375,5.48167,0.0,0.0
192,47.75,71.3913,67.5926,106.654,108.044,55.9022,0.0537792,1.23668,19.2405,76.5375,5.9567,0.0,0.0
194,48.25,72.6862,68.9229,102.331,108.062,59.9757,0.0539218,1.25936,19.2132,76.4274,5.32239,0.0,0.0
196,48.75,74.1917,70.0995,104.948,108.041,55.7232,0.0540372,1.27774,19.1845,76.2772,5.98543,0.0,0.0
198,49.25,74.9503,70.9693,107.229,108.047,56.7942,0.0542146,1.29989,19.1612,76.1771,5.81386,0.0,0.0
200,49.75,76.4331,72.4091,103.695,108.031,54.9693,0.0544284,1.31783,19.1395,76.027,6.10772,0.0,0.0
202,50.25,77.3637,73.1662,109.954,108.051,56.2557,0.0546646,1.33411,19.122,75.8769,5.90028,0.0,0.0
204,50.75,78.4731,74.1903,99.7932,108.031,53.4468,0.0548559,1.34886,19.1046,75.7568,6.36164,0.0,0.0
206,51.25,79.6764,75.8928,112.474,108.046,55.6899,0.0551843,1.36197,19.0906,75.6567,5.99129,0.0,0.0
208,51.75,80.8972,76.8594,102.41,108.031,51.3847,0.0554503,1.37365,19.0748,75.5066,6.71739,0.0,0.0
210,52.25,82.0215,77.8779,102.388,108.043,53.7927,0.0558957,1.38513,19.062,75.3564,6.30437,0.0,0.0
212,52.75,82.5952,79.1239,99.8543,108.031,53.1363,0.0562566,1.39626,19.0472,75.2763,6.41438,0.0,0.0
214,53.25,84.1475,80.4558,107.136,108.039,52.5735,0.0567103,1.40786,19.0312,75.1162,6.51126,0.0,0.0
216,53.75,85.4053,81.55,100.343,108.035,48.3685,0.0572232,1.41958,19.0183,74.9861,7.26456,0.0,0.0
218,54.25,85.9821,82.4928,101.71,108.041,51.0717,0.0576386,1.42908,19.0012,74.8159,6.77344,0.0,0.0
220,54.75,87.3508,83.6261,96.8561,108.028,47.0073,0.0582434,1.44265,18.9873,74.7058,7.52203,0.0,0.0
222,55.25,88.307,84.5974,102.605,108.04,47.5671,0.0587332,1.45364,18.9676,74.5157,7.41602,0.0,0.0
224,55.75,89.3131,85.6391,96.6478,108.025,47.2996,0.0594308,1.47026,18.9517,74.3956,7.46574,0.0,0.0
226,56.25,89.9037,86.7638,92.0025,108.04,49.2377,0.0599958,1.48373,18.9388,74.2354,7.10396,0.0,0.0
228,56.75,91.5938,87.8295,99.7818,108.029,45.7341,0.0604535,1.49951,18.9223,74.0953,7.77033,0.0,0.0
230,57.25,92.2068,88.9984,101.337,108.05,47.5924,0.061189,1.51667,18.9035,73.9652,7.41203,0.0,0.0
232,57.75,93.4303,90.2219,93.4413,108.03,49.5219,0.0621131,1.5353,18.8882,73.805,7.05109,0.0,0.0
234,58.25,94.7066,91.6256,100.602,108.041,51.0075,0.0628616,1.55464,18.8691,73.6449,6.78481,0.0,0.0
236,58.75,95.1763,92.6481,109.449,108.034,48.0095,0.0640773,1.5703,18.8476,73.4648,7.33177,0.0,0.0
238,59.25,96.9273,93.7109,94.7671,108.045,47.6556,0.065062,1.59214,18.8238,73.2946,7.39962,0.0,0.0
240,59.75,98.0287,94.891,97.2332,108.029,44.6075,0.06627,1.60983,18.7989,73.1445,7.99577,0.0,0.0
242,60.25,98.9442,95.7739,95.2716,108.051,45.0191,0.0672486,1.62415,18.7787,73.0144,7.91463,0.0,0.0
244,60.75,100.51,96.9752,90.9743,108.043,42.0135,0.0680412,1.64403,18.7522,72.7942,8.5385,0.0,0.0
246,61.25,101.725,98.4882,88.1731,108.048,47.1944,0.0691245,1.66014,18.7307,72.664,7.48775,0.0,0.0
248,61.75,102.463,99.55,98.3751,108.03,45.9687,0.0700019,1.67318,18.7084,72.5239,7.72411,0.0,0.0
250,62.25,103.424,100.669,96.763,108.057,43.8404,0.0708954,1.69043,18.6859,72.4138,8.15494,0.0,0.0
252,62.75,104.68,101.857,97.7316,108.057,47.1813,0.0716191,1.70439,18.6677,72.2637,7.49105,0.0,0.0
254,63.25,105.529,102.841,105.08,108.053,46.263,0.072254,1.71901,18.6441,72.1136,7.66835,0.0,0.0
256,63.75,106.903,104.173,100.572,108.045,45.8367,0.0728121,1.73383,18.6215,71.9334,7.75136,0.0,0.0
258,64.25,107.585,105.193,90.9224,108.063,44.2485,0.0732849,1.74584,18.6,71.8033,8.07167,0.0,0.0
260,64.75,108.946,106.578,93.5725,108.059,44.5711,0.0736865,1.76013,18.5807,71.6331,8.00567,0.0,0.0
262,65.25,109.681,107.748,90.1599,108.056,47.2556,0.0740254,1.7717,18.5634,71.463,7.47674,0.0,0.0
264,65.75,111.051,108.705,98.0553,108.064,46.619,0.0743121,1.78386,18.5476,71.2928,7.59998,0.0,0.0
266,66.25,112.152,109.981,94.1099,108.067,42.3634,0.0745624,1.7937,18.533,71.1827,8.4656,0.0,0.0
268,66.75,113.097,111.284,92.033,108.064,44.2965,0.0747814,1.80405,18.5213,70.9926,8.06194,0.0,0.0
270,67.25,114.312,111.982,93.4733,108.072,46.8132,0.0749588,1.81244,18.5103,70.8324,7.56308,0.0,0.0
272,67.75,115.144,113.244,95.7837,108.086,43.5143,0.0751269,1.82214,18.5002,70.7023,8.22489,0.0,0.0
274,68.25,115.689,114.65,97.637,108.083,43.3257,0.0752851,1.82999,18.492,70.5121,8.26386,0.0,0.0
276,68.75,116.831,115.66,90.6309,108.074,42.9697,0.0754132,1.83811,18.4823,70.332,8.33766,0.0,0.0
278,69.25,117.612,116.464,95.051,108.089,41.6929,0.075498,1.84627,18.4744,70.2019,8.6116,0.0,0.0
280,69.75,119.044,117.597,92.8856,108.086,44.2212,0.0755668,1.85288,18.468,70.0417,8.07914,0.0,0.0
282,70.25,119.542,118.38,84.2056,108.098,43.2251,0.0755902,1.85879,18.4628,69.8716,8.28618,0.0,0.0
284,70.75,120.096,119.549,94.1557,108.089,45.0565,0.0756091,1.86358,18.4588,69.7114,7.91023,0.0,0.0
286,71.25,121.072,120.548,90.1912,108.094,42.6324,0.0755799,1.86584,18.4555,69.5913,8.41057,0.0,0.0
288,71.75,122.567,122.058,102.102,108.089,44.1524,0.0755092,1.86623,18.456,69.4112,8.09347,0.0,0.0
290,72.25,123.504,122.926,94.3167,108.099,42.911,0.0754098,1.8656,18.4563,69.261,8.35216,0.0,0.0
292,72.75,123.841,123.614,96.3211,108.103,42.8509,0.0752311,1.86424,18.4571,69.0809,8.36514,0.0,0.0
294,73.25,124.119,124.593,93.6824,108.117,47.4376,0.0749982,1.86268,18.4577,68.9107,7.4471,0.0,0.0
296,73.75,125.431,125.088,98.4605,108.116,43.6933,0.0748094,1.86101,18.4591,68.7906,8.19026,0.0,0.0
298,74.25,126.008,126.391,100.036,108.126,49.3515,0.0744045,1.85891,18.4611,68.6105,7.09025,0.0,0.0
300,74.75,126.969,127.277,94.1793,108.121,45.456,0.0738497,1.85654,18.4627,68.5304,7.83318,0.0,0.0
302,75.25,127.579,128.186,97.8041,108.135,47.7688,0.0732054,1.85267,18.4684,68.3302,7.38569,0.0,0.0
304,75.75,128.177,128.976,99.6978,108.137,49.3925,0.0725081,1.84777,18.4731,68.1301,7.08371,0.0,0.0
306,76.25,128.618,129.712,96.6691,108.152,44.9706,0.0719432,1.8438,18.4866,68.0099,7.93275,0.0,0.0
308,76.75,128.926,130.801,97.4179,108.161,47.602,0.0710965,1.83292,18.4976,67.8498,7.41947,0.0,0.0
310,77.25,130.078,131.586,100.66,108.17,47.829,0.0704106,1.82411,18.5113,67.7297,7.37719,0.0,0.0
312,77.75,130.197,132.403,97.1263,108.166,47.0923,0.0694458,1.81306,18.5269,67.6096,7.51723,0.0,0.0
314,78.25,130.759,133.397,95.7433,108.178,50.3608,0.0686643,1.80059,18.5442,67.4494,6.91161,0.0,0.0
316,78.75,131.148,133.76,100.363,108.184,45.3953,0.0678497,1.7871,18.5623,67.2993,7.85051,0.0,0.0
318,79.25,132.298,134.205,97.7255,108.2,49.6595,0.0670262,1.77312,18.5771,67.2092,7.0402,0.0,0.0
320,79.75,132.315,134.898,97.8637,108.199,49.435,0.0663593,1.76179,18.589,67.0291,7.08105,0.0,0.0
322,80.25,132.542,135.41,102.981,108.203,50.8366,0.065819,1.74237,18.6054,66.899,6.82867,0.0,0.0
324,80.75,133.29,136.357,99.0368,108.215,50.6207,0.0647691,1.72664,18.6248,66.7889,6.86815,0.0,0.0
326,81.25,133.637,136.727,96.2203,108.215,49.3748,0.0639187,1.7011,18.6405,66.6588,7.09343,0.0,0.0
328,81.75,133.818,137.426,104.494,108.231,48.3518,0.0632299,1.68042,18.6701,66.5487,7.28402,0.0,0.0
330,82.25,134.438,137.861,96.8325,108.237,50.6976,0.0623707,1.65563,18.694,66.4085,6.85625,0.0,0.0
332,82.75,134.643,138.451,102.172,108.256,52.6185,0.0614037,1.6283,18.7333,66.2884,6.52164,0.0,0.0
334,83.25,134.596,138.903,103.279,108.249,50.0554,0.0603569,1.60617,18.7652,66.1383,6.97256,0.0,0.0
336,83.75,134.956,139.251,103.137,108.27,49.5411,0.0592719,1.58824,18.8132,66.0482,7.06765,0.0,0.0
338,84.25,134.786,139.494,108.342,108.275,49.2484,0.0581684,1.56191,18.852,65.9181,7.1216,0.0,0.0
340,84.75,135.079,139.548,109.121,108.3,52.2499,0.0570726,1.52994,18.9079,65.818,6.58893,0.0,0.0
342,85.25,134.976,140.082,103.228,108.307,54.2594,0.0559633,1.50405,18.9531,65.6379,6.2483,0.0,0.0
344,85.75,134.879,140.459,112.361,108.315,54.2604,0.0548653,1.47475,19.0018,65.5678,6.24884,0.0,0.0
346,86.25,134.934,140.283,112.07,108.307,56.1793,0.0535784,1.44352,19.0498,65.4477,5.93403,0.0,0.0
348,86.75,134.875,140.675,107.479,108.323,56.4665,0.0525361,1.41226,19.0964,65.3176,5.88926,0.0,0.0
350,87.25,134.58,140.983,103.043,108.335,55.3349,0.0514282,1.38158,19.1342,65.2275,6.07323,0.0,0.0
352,87.75,134.642,141.022,108.846,108.342,57.7205,0.0502936,1.35023,19.1813,65.0774,5.69229,0.0,0.0
354,88.25,134.375,140.997,110.283,108.35,57.6766,0.0493746,1.319,19.2193,65.0073,5.69977,0.0,0.0
356,88.75,134.136,141.048,109.488,108.359,57.3904,0.0482642,1.28687,19.2502,64.9172,5.74556,0.0,0.0
358,89.25,134.05,141.432,111.854,108.364,58.2712,0.0470353,1.25471,19.2942,64.8271,5.60823,0.0,0.0
360,89.75,133.464,141.002,113.924,108.402,59.644,0.0460399,1.22193,19.3299,64.717,5.4009,0.0,0.0
362,90.25,133.866,141.198,114.941,108.397,59.8832,0.0445973,1.18931,19.3686,64.677,5.36436,0.0,0.0
364,90.75,133.751,141.149,115.637,108.415,55.7596,0.0434289,1.16289,19.4088,64.5769,6.01076,0.0,0.0
366,91.25,132.954,141.492,116.294,108.425,61.3921,0.0419323,1.13166,19.4523,64.4768,5.14169,0.0,0.0
368,91.75,132.508,141.363,114.97,108.444,62.1662,0.0407201,1.09752,19.4974,64.3968,5.02997,0.0,0.0
370,92.25,131.942,140.636,117.162,108.428,61.9903,0.0392497,1.06232,19.5461,64.3467,5.05433,0.0,0.0
372,92.75,131.628,140.417,114.534,108.454,64.7081,0.0380587,1.02701,19.5964,64.2466,4.66858,0.0,0.0
374,93.25,131.307,140.79,122.096,108.464,66.2453,0.0365763,0.998416,19.6477,64.1766,4.45719,0.0,0.0
376,93.75,130.513,139.423,119.577,108.493,63.9406,0.0353757,0.961378,19.6987,64.1465,4.77966,0.0,0.0
378,94.25,129.986,139.836,119.913,108.478,66.7671,0.0338153,0.931377,19.7491,64.0765,4.38737,0.0,0.0
380,94.75,129.342,139.597,122.732,108.497,70.5858,0.0325513,0.894865,19.7981,64.0464,3.88617,0.0,0.0
382,95.25,128.931,139.187,117.081,108.499,66.6873,0.0315276,0.86529,19.8378,63.9564,4.4,0.0,0.0
384,95.75,128.161,138.713,123.223,108.526,70.6768,0.0299003,0.830912,19.8779,63.9063,3.87699,0.0,0.0
386,96.25,128.378,138.488,125.413,108.523,71.5455,0.0285822,0.803066,19.9175,63.8263,3.76626,0.0,0.0
388,96.75,127.229,138.118,126.331,108.539,72.1721,0.0269628,0.774568,19.9578,63.8062,3.68881,0.0,0.0
390,97.25,126.663,137.703,122.855,108.538,77.7656,0.0256511,0.746134,19.9977,63.7662,3.01395,0.0,0.0
392,97.75,125.83,137.166,126.776,108.553,79.778,0.0242722,0.71666,20.0301,63.6861,2.7842,0.0,0.0
394,98.25,125.171,136.801,127.884,108.571,79.3902,0.0228704,0.686988,20.0714,63.6261,2.82977,0.0,0.0
396,98.75,124.108,136.005,123.937,108.596,81.4265,0.0215106,0.662954,20.1048,63.6261,2.60293,0.0,0.0
398,99.25,123.621,135.614,125.464,108.577,84.4553,0.0202072,0.631068,20.1514,63.556,2.27119,0.0,0.0
400,99.75,122.934,135.381,131.742,108.606,88.2563,0.0189418,0.60524,20.1892,63.516,1.87562,0.0,0.0
402,100.25,121.848,134.905,130.314,108.6,92.0411,0.0177283,0.579279,20.2339,63.496,1.49556,0.0,0.0
404,100.75,121.552,134.135,133.124,108.63,94.7342,0.0167453,0.553714,20.2702,63.4759,1.23728,0.0,0.0
406,101.25,120.727,133.691,128.781,108.643,96.8286,0.0155352,0.52754,20.3075,63.4559,1.04075,0.0,0.0
408,101.75,120.001,133.01,135.022,108.662,99.8832,0.014555,0.50142,20.3449,63.4159,0.761556,0.0,0.0
410,102.25,119.109,132.36,133.718,108.668,101.183,0.0135645,0.475912,20.3751,63.3458,0.645144,0.0,0.0
412,102.75,118.235,131.759,133.27,108.697,104.06,0.0125853,0.451333,20.3996,63.3759,0.394103,0.0,0.0
414,103.25,117.698,131.044,130.22,108.685,105.975,0.0117921,0.431424,20.4312,63.3759,0.228234,0.0,0.0
416,103.75,117.082,130.038,134.927,108.704,108.009,0.0111497,0.406181,20.4567,63.3658,0.057943,0.0,0.0
418,104.25,116.374,129.935,133.998,108.705,108.247,0.0103415,0.385734,20.4827,63.3358,0.0381423,0.0,0.0
420,104.75,115.219,129.394,136.589,108.729,110.785,0.00963752,0.36514,20.5086,63.3558,-0.169322,0.0,0.0
422,105.25,114.715,128.815,132.664,108.72,110.713,0.00902291,0.34483,20.5406,63.3558,-0.164239,0.0,0.0
424,105.75,113.678,127.864,136.188,108.748,111.718,0.00850483,0.328379,20.5666,63.3558,-0.243586,0.0,0.0
426,106.25,112.579,127.34,136.162,108.749,113.73,0.00806697,0.315054,20.5987,63.3158,-0.404868,0.0,0.0
428,106.75,111.409,126.584,136.715,108.774,113.713,0.0077123,0.294649,20.6247,63.3058,-0.401402,0.0,0.0
430,107.25,111.254,125.755,138.618,108.766,114.531,0.00744296,0.278121,20.6499,63.3058,-0.466876,0.0,0.0
432,107.75,110.492,125.376,141.424,108.792,113.687,0.00722479,0.26097,20.6742,63.2858,-0.397842,0.0,0.0
434,108.25,109.511,124.757,137.29,108.783,114.037,0.00710453,0.247078,20.6954,63.3058,-0.426399,0.0,0.0
436,108.75,108.927,124.003,136.701,108.82,114.318,0.00700711,0.232733,20.7141,63.2758,-0.445563,0.0,0.0
438,109.25,108.236,123.064,140.396,108.819,113.834,0.00692821,0.221113,20.7293,63.3058,-0.407287,0.0,0.0
440,109.75,107.317,122.378,137.547,108.831,113.922,0.00694011,0.209394,20.7429,63.2958,-0.413241,0.0,0.0
442,110.25,106.054,121.871,138.741,108.829,114.637,0.00694976,0.199901,20.7553,63.2858,-0.47002,0.0,0.0
444,110.75,105.326,121.18,135.411,108.856,113.953,0.00701421,0.19042,20.7652,63.3058,-0.413707,0.0,0.0
446,111.25,104.77,120.479,139.182,108.856,114.691,0.00706641,0.182741,20.776,63.2958,-0.472007,0.0,0.0
448,111.75,104.099,120.011,140.136,108.877,115.32,0.00713919,0.176521,20.7855,63.2958,-0.519683,0.0,0.0
450,112.25,103.742,119.436,137.732,108.893,114.629,0.00722559,0.169436,20.794,63.2858,-0.464011,0.0,0.0
452,112.75,102.585,118.496,139.921,108.903,114.562,0.00735496,0.163698,20.8019,63.2758,-0.457976,0.0,0.0
454,113.25,101.973,117.836,142.248,108.899,114.712,0.00741011,0.157819,20.8056,63.2558,-0.470186,0.0,0.0
456,113.75,101.549,117.136,140.87,108.918,114.842,0.0075364,0.153056,20.8121,63.2558,-0.478767,0.0,0.0
458,114.25,100.706,116.805,138.903,108.914,114.831,0.00766749,0.148745,20.8182,63.2357,-0.478219,0.0,0.0
460,114.75,99.4703,115.643,141.75,108.939,114.007,0.00780298,0.144843,20.8232,63.2257,-0.411044,0.0,0.0
462,115.25,98.7741,114.472,136.672,108.964,114.154,0.0079391,0.141391,20.8281,63.2157,-0.420643,0.0,0.0
464,115.75,97.4759,113.103,139.168,108.967,114.058,0.00804935,0.138332,20.832,63.2057,-0.412777,0.0,0.0
466,116.25,96.2199,112.732,142.047,108.965,113.633,0.00816869,0.137028,20.8353,63.1957,-0.379157,0.0,0.0
468,116.75,95.4183,111.439,137.551,108.986,114.516,0.00829239,0.134347,20.8383,63.1957,-0.447393,0.0,0.0
470,117.25,95.1451,111.474,141.942,108.995,115.133,0.00840556,0.131992,20.8408,63.1957,-0.495262,0.0,0.0
472,117.75,94.5536,110.506,140.18,109.011,114.328,0.00850891,0.129918,20.8437,63.1857,-0.430475,0.0,0.0
474,118.25,94.222,110.063,138.972,109.018,114.83,0.00859263,0.128239,20.846,63.1757,-0.469542,0.0,0.0
476,118.75,93.396,109.984,140.89,109.033,113.802,0.00867473,0.126675,20.8479,63.1657,-0.387,0.0,0.0
478,119.25,92.7451,108.955,140.115,109.025,114.409,0.00874122,0.125408,20.8494,63.1657,-0.43577,0.0,0.0
480,119.75,92.5742,108.485,138.245,109.046,113.857,0.0087847,0.124313,20.8509,63.1657,-0.390272,0.0,0.0
482,120.25,92.0862,108.183,135.571,109.031,114.316,0.00881991,0.123364,20.8523,63.1857,-0.427861,0.0,0.0
484,120.75,91.3351,107.565,140.944,109.045,114.835,0.00882377,0.122596,20.8534,63.1957,-0.467699,0.0,0.0
486,121.25,90.8519,106.984,141.534,109.072,115.092,0.00882689,0.121799,20.8544,63.2057,-0.485657,0.0,0.0
488,121.75,90.4875,106.638,138.833,109.077,114.078,0.00881167,0.121153,20.8551,63.2057,-0.405229,0.0,0.0
490,122.25,89.6775,106.043,137.568,109.071,114.929,0.00878336,0.120456,20.8557,63.1857,-0.472933,0.0,0.0
492,122.75,88.9708,105.112,138.821,109.078,114.059,0.00876043,0.119892,20.8562,63.1757,-0.403633,0.0,0.0
494,123.25,88.6751,104.654,141.451,109.097,114.725,0.00873162,0.119188,20.8568,63.1457,-0.454644,0.0,0.0
496,123.75,88.264,104.252,137.442,109.087,113.996,0.00869907,0.118617,20.8576,63.1356,-0.397931,0.0,0.0
498,124.25,87.9389,103.742,140.073,109.107,114.056,0.00867612,0.117923,20.8584,63.1457,-0.401006,0.0,0.0
500,124.75,87.6636,103.592,138.662,109.108,114.424,0.0086606,0.117361,20.8592,63.1256,-0.430062,0.0,0.0
502,125.25,87.3815,102.841,136.667,109.125,113.909,0.00866236,0.116906,20.8599,63.1356,-0.387872,0.0,0.0
504,125.75,86.4588,102.379,141.085,109.131,114.611,0.00867669,0.11632,20.8605,63.1557,-0.442925,0.0,0.0
506,126.25,86.1863,101.897,140.559,109.143,114.171,0.00868829,0.115845,20.8614,63.1557,-0.407129,0.0,0.0
508,126.75,85.5145,101.625,140.541,109.174,114.525,0.00872502,0.115414,20.8622,63.1657,-0.432584,0.0,0.0
510,127.25,85.2078,101.25,139.139,109.182,114.797,0.00877936,0.115025,20.8625,63.1256,-0.453335,0.0,0.0
512,127.75,84.523,100.597,141.18,109.164,114.372,0.00882954,0.114694,20.8629,63.1356,-0.421249,0.0,0.0
514,128.25,83.8884,99.7095,138.684,109.18,114.942,0.00887572,0.114412,20.8631,63.1056,-0.464899,0.0,0.0
516,128.75,84.1137,99.9203,136.488,109.172,114.272,0.00891312,0.114183,20.8633,63.0856,-0.412748,0.0,0.0
518,129.25,83.2858,98.8276,141.218,109.202,114.17,0.00892263,0.113999,20.8635,63.0556,-0.402247,0.0,0.0
520,129.75,83.3972,99.0433,139.607,109.201,113.575,0.00893034,0.113907,20.8636,63.0656,-0.354997,0.0,0.0
522,130.25,82.6967,98.2633,139.975,109.212,114.349,0.00893658,0.11381,20.8637,63.0356,-0.415489,0.0,0.0
524,130.75,82.1641,97.9111,144.99,109.22,113.3,0.00889492,0.11371,20.8638,63.0256,-0.331536,0.0,0.0
526,131.25,81.8819,97.4117,140.573,109.233,114.566,0.00886117,0.11363,20.8639,63.0356,-0.430938,0.0,0.0
528,131.75,81.3685,96.9218,138.623,109.22,114.437,0.00880401,0.113376,20.8639,63.0155,-0.421859,0.0,0.0
530,132.25,81.0239,96.6933,142.446,109.238,114.865,0.00875771,0.113171,20.864,63.0055,-0.454044,0.0,0.0
532,132.75,80.9791,95.8592,139.064,109.221,114.661,0.00871342,0.112837,20.864,63.0356,-0.43935,0.0,0.0
534,133.25,79.9282,96.0971,141.602,109.239,114.82,0.00867146,0.112416,20.864,63.0356,-0.450468,0.0,0.0
536,133.75,80.1401,95.6281,136.319,109.256,113.826,0.00863951,0.112074,20.8641,63.0256,-0.37039,0.0,0.0
538,134.25,79.68,94.5596,137.795,109.264,114.738,0.00861547,0.111624,20.8647,63.0356,-0.441928,0.0,0.0
540,134.75,79.1757,94.6543,139.826,109.264,114.567,0.00860282,0.11126,20.8652,63.0256,-0.428412,0.0,0.0
542,135.25,78.7588,94.1411,141.557,109.268,114.415,0.00859871,0.110911,20.8656,63.0055,-0.416101,0.0,0.0
544,135.75,78.7687,93.9252,144.377,109.268,114.082,0.00859948,0.110581,20.866,63.0155,-0.389775,0.0,0.0
546,136.25,78.3657,93.4053,137.408,109.277,113.949,0.00860379,0.110322,20.8662,62.9855,-0.378465,0.0,0.0
548,136.75,77.7885,92.6208,141.312,109.278,114.754,0.00860727,0.110119,20.8664,63.0155,-0.442026,0.0,0.0
550,137.25,77.8023,92.8988,139.696,109.297,114.312,0.008606,0.109933,20.8666,62.9955,-0.405569,0.0,0.0
552,137.75,76.9881,92.2402,142.496,109.286,114.128,0.00860129,0.109761,20.8668,62.9955,-0.391918,0.0,0.0
554,138.25,77.0492,91.8025,138.509,109.308,114.358,0.00858929,0.109622,20.8669,63.0055,-0.408331,0.0,0.0
556,138.75,76.9017,91.0908,136.384,109.301,114.869,0.0085722,0.109451,20.8674,62.9955,-0.449161,0.0,0.0
558,139.25,76.7542,91.3806,142.999,109.311,115.133,0.00855836,0.109313,20.8679,62.9655,-0.469101,0.0,0.0
560,139.75,75.8565,90.5432,138.323,109.314,115.28,0.00853808,0.109071,20.8682,62.9555,-0.48039,0.0,0.0
562,140.25,75.8811,89.9141,139.445,109.322,113.859,0.00852165,0.108875,20.8685,62.9555,-0.367584,0.0,0.0
564,140.75,75.5536,90.3442,139.67,109.308,113.617,0.00851871,0.10864,20.8687,62.9655,-0.349542,0.0,0.0
566,141.25,75.1132,89.465,139.765,109.333,114.756,0.00851633,0.108381,20.8689,62.9855,-0.437646,0.0,0.0
568,141.75,75.4991,89.5874,143.286,109.327,115.395,0.00852865,0.108141,20.8691,62.9855,-0.488251,0.0,0.0
570,142.25,74.8612,89.1241,139.878,109.339,113.817,0.00853864,0.10792,20.8692,62.9755,-0.362819,0.0,0.0
572,142.75,74.4526,89.1103,140.534,109.324,114.366,0.00855487,0.10774,20.8693,62.9655,-0.407611,0.0,0.0
574,143.25,74.1467,88.1902,142.4,109.343,114.527,0.00857536,0.107595,20.8694,62.9855,-0.41874,0.0,0.0
576,143.75,73.9973,87.9698,142.146,109.339,114.826,0.00859195,0.107477,20.8694,63.0155,-0.442664,0.0,0.0
578,144.25,74.0417,87.7778,140.073,109.348,113.294,0.00860129,0.107374,20.8696,62.9855,-0.32046,0.0,0.0
580,144.75,73.2011,87.4155,143.108,109.344,114.304,0.00860517,0.107283,20.8699,62.9555,-0.401085,0.0,0.0
582,145.25,73.477,87.321,144.774,109.353,113.671,0.00859809,0.107109,20.8702,62.9455,-0.350106,0.0,0.0
584,145.75,72.4923,86.2744,143.732,109.346,115.163,0.00858314,0.106968,20.8704,62.8954,-0.468591,0.0,0.0
586,146.25,72.5784,86.4688,136.317,109.361,113.8,0.00856693,0.106854,20.8705,62.8954,-0.359735,0.0,0.0
588,146.75,72.332,86.4688,143.969,109.35,115.523,0.00855013,0.106486,20.8711,62.8854,-0.496436,0.0,0.0
590,147.25,71.9957,85.6704,141.554,109.373,114.393,0.00853992,0.106187,20.8715,62.8954,-0.405628,0.0,0.0
592,147.75,72.1098,85.8663,142.853,109.349,114.873,0.00853473,0.105862,20.8719,62.8954,-0.445483,0.0,0.0
594,148.25,72.1679,85.5007,139.938,109.397,114.49,0.00854075,0.105524,20.8722,62.8954,-0.411319,0.0,0.0
596,148.75,71.5266,85.3238,139.148,109.369,113.987,0.00855484,0.105227,20.8725,62.8654,-0.373926,0.0,0.0
598,149.25,71.1338,83.9637,140.295,109.384,114.9,0.00856625,0.104966,20.8731,62.8654,-0.444776,0.0,0.0
600,149.75,70.8793,83.9184,138.125,109.378,114.292,0.0085755,0.104755,20.8736,62.8554,-0.397269,0.0,0.0
602,150.25,70.9555,83.8978,139.586,109.378,115.093,0.00860114,0.104468,20.874,62.8454,-0.460396,0.0,0.0
604,150.75,70.4793,83.6274,138.361,109.364,115.041,0.00862191,0.104236,20.8742,62.8154,-0.457476,0.0,0.0
606,151.25,70.4225,82.8916,138.87,109.397,114.427,0.00863873,0.103976,20.8744,62.7953,-0.406363,0.0,0.0
608,151.75,69.9511,82.8288,139.651,109.389,114.591,0.00865755,0.103765,20.8745,62.8054,-0.420032,0.0,0.0
610,152.25,69.5924,82.9796,141.665,109.387,114.832,0.00867279,0.103594,20.8747,62.8254,-0.439147,0.0,0.0
612,152.75,69.6173,82.7381,138.778,109.382,115.203,0.00867995,0.103471,20.8748,62.8154,-0.468684,0.0,0.0
614,153.25,69.2637,82.4452,134.459,109.394,114.531,0.00868574,0.10337,20.8748,62.8654,-0.414808,0.0,0.0
616,153.75,69.2652,81.6821,137.856,109.394,115.907,0.00868498,0.103289,20.8749,62.8354,-0.522759,0.0,0.0
618,154.25,69.2193,81.1491,137.197,109.407,114.299,0.00867944,0.103266,20.875,62.8354,-0.395449,0.0,0.0
620,154.75,68.7255,81.2744,137.479,109.407,114.815,0.008662,0.103248,20.8752,62.8254,-0.436145,0.0,0.0
622,155.25,68.5832,81.0736,138.646,109.398,115.025,0.00865456,0.10332,20.8755,62.8154,-0.453465,0.0,0.0
624,155.75,68.5034,81.2526,143.68,109.398,114.38,0.00863229,0.103378,20.8759,62.8154,-0.402538,0.0,0.0
626,156.25,68.9609,80.7637,137.62,109.4,115.283,0.00860566,0.103402,20.8762,62.8054,-0.473489,0.0,0.0
628,156.75,68.6301,80.3116,142.018,109.403,114.794,0.00858067,0.103401,20.8764,62.7953,-0.434846,0.0,0.0
630,157.25,68.0528,80.4254,138.407,109.4,115.151,0.00855737,0.103325,20.8766,62.8054,-0.463131,0.0,0.0
632,157.75,67.9924,79.8957,139.338,109.416,114.606,0.0085385,0.103195,20.8768,62.8254,-0.418996,0.0,0.0
634,158.25,67.6066,79.5517,136.861,109.408,115.401,0.00852866,0.103139,20.8769,62.8154,-0.482064,0.0,0.0
636,158.75,67.9706,79.4744,136.826,109.416,114.891,0.00852561,0.102871,20.8771,62.8054,-0.441387,0.0,0.0
638,159.25,67.7208,79.4847,140.589,109.421,114.427,0.00853609,0.102654,20.8771,62.7953,-0.40439,0.0,0.0
640,159.75,67.3111,79.3665,138.625,109.435,115.087,0.00855625,0.102392,20.8772,62.7853,-0.4552,0.0,0.0
642,160.25,67.1878,78.978,138.919,109.419,114.178,0.00858624,0.10218,20.8773,62.7753,-0.384857,0.0,0.0
644,160.75,66.9693,78.6078,139.751,109.429,114.749,0.00862281,0.101892,20.8773,62.7553,-0.429179,0.0,0.0
646,161.25,66.3093,78.3256,137.836,109.417,114.989,0.00865244,0.10166,20.8774,62.7553,-0.448952,0.0,0.0
648,161.75,66.4936,77.714,142.424,109.428,114.52,0.00868811,0.101418,20.8776,62.7553,-0.411112,0.0,0.0
650,162.25,66.7687,77.5911,139.025,109.427,114.99,0.00871701,0.101175,20.878,62.7553,-0.44819,0.0,0.0
652,162.75,66.6906,77.7431,139.329,109.427,114.61,0.0087495,0.100909,20.8784,62.7953,-0.41836,0.0,0.0
654,163.25,66.1011,77.2414,138.756,109.421,113.749,0.00877582,0.100633,20.8787,62.7753,-0.350658,0.0,0.0
656,163.75,65.8866,77.1977,140.425,109.432,115.332,0.00879304,0.100409,20.8789,62.7653,-0.474736,0.0,0.0
658,164.25,65.8501,76.8483,139.49,109.416,115.352,0.0088033,0.10007,20.8795,62.7553,-0.477596,0.0,0.0
660,164.75,65.6847,76.5648,141.878,109.432,115.024,0.00881161,0.0997948,20.88,62.7353,-0.45049,0.0,0.0
662,165.25,65.4673,76.7655,139.26,109.433,114.231,0.00880263,0.099519,20.8804,62.7353,-0.387849,0.0,0.0
664,165.75,65.3607,76.4081,142.408,109.436,114.934,0.00878123,0.099248,20.8808,62.7153,-0.443125,0.0,0.0
666,166.25,65.3085,76.0933,135.836,109.432,113.932,0.00875297,0.0989754,20.881,62.7153,-0.364278,0.0,0.0
668,166.75,64.6603,75.7719,140.831,109.437,114.487,0.00872026,0.098707,20.8813,62.6852,-0.407862,0.0,0.0
670,167.25,65.1167,75.733,139.277,109.435,113.881,0.00868762,0.0984895,20.8814,62.6852,-0.360046,0.0,0.0
672,167.75,64.768,75.442,141.018,109.441,113.715,0.00865566,0.0982983,20.8816,62.6953,-0.346359,0.0,0.0
674,168.25,64.2826,75.3463,139.356,109.424,114.696,0.00862977,0.0981297,20.8817,62.7053,-0.425398,0.0,0.0
676,168.75,64.4208,75.1529,140.058,109.471,114.425,0.00860362,0.0979932,20.882,62.7153,-0.400055,0.0,0.0
678,169.25,64.5043,75.1675,139.057,109.431,114.931,0.00858243,0.0977101,20.8825,62.7053,-0.443248,0.0,0.0
680,169.75,64.0231,74.595,145.223,109.445,114.078,0.00857175,0.0974808,20.8829,62.7053,-0.374808,0.0,0.0
682,170.25,63.9352,74.3045,143.192,109.436,114.787,0.0085631,0.0972088,20.8832,62.6752,-0.431543,0.0,0.0
684,170.75,64.1281,74.3108,140.937,109.451,114.78,0.00856905,0.0969885,20.8834,62.6852,-0.429815,0.0,0.0
686,171.25,63.5329,73.4004,137.54,109.431,115.709,0.00857388,0.0967813,20.8836,62.6652,-0.504285,0.0,0.0
688,171.75,63.931,73.6029,140.25,109.439,114.237,0.00857778,0.0966135,20.8838,62.6652,-0.387817,0.0,0.0
690,172.25,63.6181,73.6352,142.741,109.429,114.017,0.00858095,0.0964489,20.8839,62.6352,-0.371313,0.0,0.0
692,172.75,63.742,73.4413,140.922,109.448,113.637,0.00858351,0.0963155,20.8841,62.6252,-0.339581,0.0,0.0
694,173.25,63.3587,73.5417,138.065,109.425,115.062,0.00858559,0.0961212,20.8841,62.6452,-0.454132,0.0,0.0
696,173.75,63.3314,73.0276,133.859,109.447,114.45,0.00856885,0.0959639,20.8842,62.6452,-0.404065,0.0,0.0
698,174.25,63.6779,73.0337,138.577,109.426,115.052,0.00853873,0.0958365,20.8841,62.6552,-0.453188,0.0,0.0
700,174.75,63.1353,72.4118,142.367,109.439,114.943,0.00850415,0.0956614,20.8841,62.6852,-0.443577,0.0,0.0
702,175.25,63.3971,72.4304,139.589,109.428,115.263,0.00846697,0.0955196,20.8841,62.6752,-0.469597,0.0,0.0
704,175.75,62.8176,72.7876,138.655,109.439,114.105,0.00844299,0.0954048,20.884,62.6452,-0.377444,0.0,0.0
706,176.25,62.7214,72.5428,143.812,109.44,115.02,0.00842909,0.0952967,20.8846,62.6452,-0.44955,0.0,0.0
708,176.75,62.9457,71.6268,140.362,109.433,114.686,0.00843146,0.0951955,20.8851,62.6552,-0.423792,0.0,0.0
710,177.25,62.9808,72.2682,138.335,109.434,114.482,0.00844566,0.0951135,20.8854,62.6352,-0.407678,0.0,0.0
712,177.75,62.4368,71.7349,139.846,109.439,115.128,0.00846943,0.0949909,20.8857,62.6452,-0.458084,0.0,0.0
714,178.25,62.3317,71.588,141.141,109.412,114.53,0.00848539,0.0948916,20.8859,62.6352,-0.413302,0.0,0.0
716,178.75,61.9161,71.2876,136.624,109.441,114.237,0.00851267,0.0946819,20.8861,62.6552,-0.387747,0.0,0.0
718,179.25,62.4059,71.2673,139.287,109.419,114.17,0.00855183,0.0944668,20.8863,62.6252,-0.384257,0.0,0.0
720,179.75,62.0767,70.9744,141.473,109.433,115.493,0.00861899,0.0942517,20.8871,62.6352,-0.487218,0.0,0.0
722,180.25,62.1109,70.3598,139.008,109.427,114.871,0.00863705,0.0940096,20.8874,62.6252,-0.43888,0.0,0.0
724,180.75,61.9858,70.8247,143.496,109.42,114.303,0.00868482,0.0937522,20.8877,62.6152,-0.394671,0.0,0.0
726,181.25,61.4688,70.6675,140.156,109.415,114.182,0.00872351,0.0936425,20.8881,62.5952,-0.385467,0.0,0.0
728,181.75,61.5558,70.2176,141.431,109.418,114.436,0.00875355,0.0934096,20.8883,62.6052,-0.405363,0.0,0.0
730,182.25,61.6955,69.7641,139.269,109.409,114.537,0.00877788,0.0931802,20.8885,62.5952,-0.414043,0.0,0.0
732,182.75,61.5529,70.2576,140.225,109.422,114.695,0.00878461,0.0929453,20.8887,62.5651,-0.425464,0.0,0.0
734,183.25,61.1805,69.7023,136.82,109.414,115.035,0.00879006,0.0929012,20.8888,62.5551,-0.452865,0.0,0.0
736,183.75,61.1269,70.056,143.566,109.421,114.159,0.00878833,0.0928258,20.8889,62.5451,-0.38323,0.0,0.0
738,184.25,61.4031,69.8755,140.07,109.399,113.953,0.00878139,0.0927073,20.889,62.5251,-0.368673,0.0,0.0
740,184.75,61.0713,69.4008,140.004,109.417,115.257,0.0087751,0.0926113,20.8891,62.5351,-0.469997,0.0,0.0
742,185.25,60.6387,69.2847,137.27,109.407,114.231,0.00876938,0.0924882,20.8896,62.5351,-0.390045,0.0,0.0
744,185.75,60.9289,69.5073,136.918,109.43,115.072,0.00876475,0.0923478,20.89,62.5451,-0.454448,0.0,0.0
746,186.25,60.6379,68.7834,139.753,109.4,114.618,0.00876851,0.0921888,20.8903,62.5451,-0.421158,0.0,0.0
748,186.75,60.8289,68.6686,141.251,109.412,114.299,0.00877832,0.0920192,20.8906,62.5451,-0.39501,0.0,0.0
750,187.25,60.4634,68.7476,142.291,109.402,113.444,0.00878367,0.0918139,20.8908,62.5351,-0.327967,0.0,0.0
752,187.75,60.3292,68.8901,144.907,109.415,114.693,0.008788,0.0915866,20.891,62.5351,-0.425851,0.0,0.0
754,188.25,60.7197,68.5645,137.13,109.398,114.986,0.00878468,0.0914024,20.8911,62.5251,-0.450288,0.0,0.0
756,188.75,60.6884,68.5835,142.656,109.404,114.95,0.00877584,0.0911528,20.8912,62.5151,-0.446992,0.0,0.0
758,189.25,60.385,68.7583,141.308,109.401,114.596,0.0087605,0.0909507,20.8913,62.5151,-0.41937,0.0,0.0
760,189.75,59.7906,68.4462,141.257,109.402,114.419,0.00874069,0.0907418,20.8914,62.4951,-0.405325,0.0,0.0
762,190.25,60.1296,68.1785,137.56,109.399,113.571,0.00872192,0.0905318,20.8915,62.4851,-0.338296,0.0,0.0
764,190.75,60.4337,67.8287,138.545,109.391,114.422,0.00870426,0.0903014,20.892,62.4851,-0.40644,0.0,0.0
766,191.25,60.6207,67.6737,137.685,109.402,114.201,0.00869541,0.0900605,20.8924,62.4851,-0.388086,0.0,0.0
768,191.75,59.7713,67.767,141.113,109.392,115.192,0.00869316,0.0898276,20.8927,62.4851,-0.467009,0.0,0.0
770,192.25,59.6108,67.3727,137.81,109.392,114.734,0.00869134,0.0896051,20.8929,62.455,-0.431022,0.0,0.0
772,192.75,59.568,67.4915,138.042,109.394,114.404,0.00870352,0.0894098,20.8932,62.4751,-0.404822,0.0,0.0
774,193.25,60.3904,66.8212,139.266,109.389,113.713,0.00872568,0.089238,20.8933,62.4851,-0.350404,0.0,0.0
776,193.75,59.8688,67.5602,140.794,109.382,114.485,0.00875045,0.0891064,20.8935,62.5051,-0.412201,0.0,0.0
778,194.25,59.7569,67.0605,139.406,109.38,114.185,0.00877667,0.0890066,20.8936,62.4951,-0.38864,0.0,0.0
780,194.75,59.8997,66.8361,139.722,109.372,115.451,0.00879791,0.0889257,20.8937,62.4951,-0.489024,0.0,0.0
782,195.25,59.6041,66.6734,139.925,109.38,114.248,0.00881641,0.0888602,20.8937,62.5151,-0.393679,0.0,0.0
784,195.75,59.4863,66.8988,138.919,109.372,114.393,0.00883139,0.0888072,20.8938,62.5051,-0.405814,0.0,0.0
786,196.25,60.0163,66.7529,138.729,109.369,114.352,0.00884353,0.0887642,20.8938,62.5151,-0.402793,0.0,0.0
788,196.75,59.4056,66.3117,142.476,109.368,114.532,0.00882084,0.0887151,20.894,62.4951,-0.417049,0.0,0.0
790,197.25,59.5156,66.2889,135.782,109.369,114.701,0.00880246,0.0886753,20.8942,62.5051,-0.430332,0.0,0.0
792,197.75,59.2445,66.4415,140.847,109.367,114.708,0.00875775,0.0885858,20.8944,62.4951,-0.43104,0.0,0.0
794,198.25,59.4218,66.4068,138.574,109.356,114.379,0.00872154,0.0885133,20.8945,62.4851,-0.405976,0.0,0.0
796,198.75,59.2704,65.6783,139.238,109.347,113.885,0.00866499,0.0884546,20.8949,62.4951,-0.367577,0.0,0.0
798,199.25,59.3537,65.4863,143.416,109.35,113.911,0.00861919,0.0882707,20.8954,62.4851,-0.369483,0.0,0.0
800,199.75,58.9,66.1019,140.167,109.34,114.318,0.00858209,0.0879992,20.8958,62.4651,-0.402455,0.0,0.0
802,200.25,58.9896,65.2432,137.906,109.342,114.015,0.00850674,0.0876791,20.8964,62.4751,-0.378252,0.0,0.0
804,200.75,58.5278,65.2225,139.782,109.33,114.424,0.0084457,0.0874198,20.897,62.435,-0.41169,0.0,0.0
806,201.25,58.6548,64.8786,136.969,109.336,115.119,0.00835358,0.0871526,20.8976,62.4651,-0.465941,0.0,0.0
808,201.75,58.5468,65.5843,142.205,109.315,114.22,0.00827897,0.0869361,20.898,62.445,-0.396786,0.0,0.0
810,202.25,58.8357,65.0385,141.184,109.332,114.448,0.00819202,0.0867005,20.8983,62.445,-0.413425,0.0,0.0
812,202.75,58.7393,64.8761,140.85,109.313,114.402,0.00809774,0.0864555,20.8986,62.455,-0.411368,0.0,0.0
814,203.25,58.65,65.1948,140.399,109.32,114.927,0.00800642,0.086257,20.8989,62.4751,-0.452161,0.0,0.0
816,203.75,58.4626,65.0867,143.953,109.312,113.725,0.00791902,0.0859676,20.8995,62.455,-0.357741,0.0,0.0
818,204.25,59.0527,64.5819,142.215,109.309,114.167,0.00784143,0.0857331,20.9,62.425,-0.393059,0.0,0.0
820,204.75,58.4766,64.7713,139.197,109.299,115.204,0.00777247,0.0855004,20.9004,62.415,-0.475686,0.0,0.0
822,205.25,58.3468,64.5549,140.13,109.293,113.84,0.00771119,0.0853118,20.9007,62.395,-0.368472,0.0,0.0
824,205.75,58.4643,64.0425,143.286,109.293,114.626,0.00765667,0.085144,20.901,62.415,-0.430696,0.0,0.0
826,206.25,58.3566,64.8576,139.445,109.295,114.435,0.0076125,0.0849946,20.9012,62.395,-0.41539,0.0,0.0
828,206.75,57.9969,64.4079,138.523,109.28,115.186,0.00756317,0.084866,20.9014,62.405,-0.475796,0.0,0.0
830,207.25,58.0681,64.3802,143.591,109.284,114.06,0.007511,0.0847551,20.9016,62.395,-0.38666,0.0,0.0
832,207.75,57.823,64.3582,139.731,109.272,114.963,0.00745586,0.0846502,20.9017,62.395,-0.458939,0.0,0.0
834,208.25,57.771,63.8138,139.326,109.275,114.595,0.00739961,0.0845517,20.9018,62.405,-0.429766,0.0,0.0
836,208.75,57.8766,64.0961,139.749,109.252,114.026,0.00734186,0.0844719,20.9018,62.395,-0.386646,0.0,0.0
838,209.25,58.004,63.7736,143.141,109.267,114.059,0.0072841,0.08425,20.9019,62.415,-0.388008,0.0,0.0
840,209.75,57.6791,63.5825,140.148,109.26,114.582,0.00723123,0.0840704,20.902,62.415,-0.429942,0.0,0.0
842,210.25,57.628,62.9269,142.821,109.254,113.687,0.00718291,0.0838647,20.9024,62.435,-0.359527,0.0,0.0
844,210.75,57.9805,63.515,141.767,109.239,113.951,0.00713769,0.0836439,20.9028,62.405,-0.381814,0.0,0.0
846,211.25,57.5473,63.1773,141.857,109.249,114.258,0.00709557,0.0834501,20.9031,62.375,-0.405211,0.0,0.0
848,211.75,57.7781,62.9556,138.253,109.221,113.845,0.00705131,0.0832795,20.9034,62.365,-0.37489,0.0,0.0
850,212.25,57.4165,63.439,140.599,109.244,113.923,0.00700633,0.0831414,20.9036,62.365,-0.379164,0.0,0.0
852,212.75,57.769,62.8689,136.815,109.217,114.862,0.00696989,0.0829152,20.9038,62.365,-0.455492,0.0,0.0
854,213.25,57.34,63.136,141.338,109.235,114.16,0.00694037,0.082732,20.9039,62.345,-0.398656,0.0,0.0
856,213.75,57.4328,63.1238,143.62,109.226,114.294,0.00687664,0.0825265,20.904,62.345,-0.409998,0.0,0.0
858,214.25,57.6493,62.7504,143.171,109.216,113.906,0.00682502,0.082315,20.9041,62.3349,-0.380073,0.0,0.0
860,214.75,57.1193,62.6407,138.543,109.195,114.465,0.006746,0.0821031,20.9044,62.345,-0.426072,0.0,0.0
862,215.25,56.8512,63.0467,143.675,109.204,115.367,0.00668199,0.0819314,20.9049,62.345,-0.496261,0.0,0.0
864,215.75,57.2549,62.6683,138.168,109.186,115.003,0.00660184,0.0817248,20.9053,62.3049,-0.469269,0.0,0.0
866,216.25,57.0066,62.6816,143.455,109.206,114.438,0.00651145,0.0814965,20.9056,62.3249,-0.423111,0.0,0.0
868,216.75,57.1583,62.6045,144.949,109.175,115.052,0.00641466,0.0813117,20.9058,62.3249,-0.473967,0.0,0.0
870,217.25,56.8537,62.172,139.732,109.187,114.581,0.00631503,0.0811476,20.9062,62.3349,-0.435949,0.0,0.0
872,217.75,56.8687,62.3798,141.432,109.181,114.705,0.00623433,0.0810148,20.9065,62.3349,-0.446195,0.0,0.0
874,218.25,56.4686,62.2984,138.946,109.18,113.305,0.00613699,0.0807787,20.9067,62.3349,-0.335243,0.0,0.0
876,218.75,57.0108,61.8934,140.125,109.152,113.673,0.00605815,0.0805876,20.9071,62.345,-0.366913,0.0,0.0
878,219.25,57.1897,62.0927,139.336,109.152,114.224,0.00599428,0.0804327,20.9077,62.3149,-0.410562,0.0,0.0
880,219.75,57.0868,61.8495,141.633,109.134,114.764,0.005917,0.0801658,20.9077,62.3049,-0.454743,0.0,0.0
882,220.25,56.8959,62.1497,144.416,109.154,115.218,0.00585439,0.0799496,20.9077,62.3049,-0.488711,0.0,0.0
884,220.75,56.9133,62.0856,139.091,109.123,114.795,0.00578554,0.0797174,20.9078,62.3049,-0.458052,0.0,0.0
886,221.25,56.276,61.6393,139.056,109.135,114.136,0.00571343,0.0795294,20.9082,62.3049,-0.405064,0.0,0.0
888,221.75,56.5094,61.8213,141.602,109.103,113.545,0.00563892,0.079377,20.9086,62.2949,-0.360768,0.0,0.0
890,222.25,56.5154,61.4221,139.633,109.124,114.461,0.00556405,0.0790683,20.9089,62.3049,-0.431656,0.0,0.0
892,222.75,55.9335,61.4529,140.09,109.116,114.552,0.00550341,0.0788182,20.9091,62.3049,-0.439465,0.0,0.0
894,223.25,56.1661,61.5639,145.349,109.119,114.83,0.0054084,0.0785332,20.9093,62.3049,-0.461129,0.0,0.0
896,223.75,56.3797,61.0885,141.671,109.106,114.509,,0.078228,,62.2949,-0.436957,0.0,0.0
898,224.25,56.542,61.4921,143.624,109.124,115.414,,0.0779808,,62.2949,-0.506626,0.0,0.0
900,224.75,56.5143,61.147,141.094,109.094,115.198,,0.0775811,,62.2849,-0.492118,0.0,0.0
902,225.25,56.3527,60.8245,140.791,109.105,114.144,,0.0772574,,62.2349,-0.408163,0.0,0.0
904,225.75,56.0924,60.8866,142.106,109.085,114.092,,0.076867,,62.2749,-0.405653,0.0,0.0
906,226.25,56.1222,60.563,142.756,109.077,114.363,,0.0765507,,62.2849,-0.427837,0.0,0.0
908,226.75,56.1146,60.774,146.13,109.074,114.698,,,,62.2649,-0.454478,0.0,0.0
910,227.25,56.0289,60.576,142.765,109.074,113.754,,,,62.2649,-0.379768,0.0,0.0
912,227.75,56.3654,61.0078,138.228,109.083,114.439,,,,62.2649,-0.43328,0.0,0.0
914,228.25,55.91,60.4396,144.091,109.065,114.812,,,,62.2449,-0.464175,0.0,0.0
916,228.75,56.2287,60.891,142.822,109.059,114.333,,,,62.2649,-0.42687,0.0,0.0
918,229.25,55.7622,60.4228,139.268,109.064,113.555,,,,62.2349,-0.364804,0.0,0.0
920,229.75,56.138,60.07,137.285,109.056,113.569,,,,62.2549,-0.366551,0.0,0.0
922,230.25,55.8535,60.0266,139.464,109.04,113.91,,,,62.2449,-0.395041,0.0,0.0
924,230.75,55.6504,60.1463,138.199,109.043,113.235,,,,62.2449,-0.340976,0.0,0.0
926,231.25,55.7962,60.3665,138.727,109.035,114.745,,,,62.2349,-0.461415,0.0,0.0
928,231.75,56.0697,60.2665,142.273,109.039,114.302,,,,62.2649,-0.426158,0.0,0.0
930,232.25,55.999,60.0759,136.255,109.018,114.031,,,,62.2649,-0.406423,0.0,0.0
932,232.75,55.5156,59.5732,141.265,109.026,115.168,,,,62.2549,-0.495433,0.0,0.0
934,233.25,56.1481,59.8965,141.841,109.007,114.306,,,,62.2148,-0.429126,0.0,0.0
936,233.75,55.757,59.8734,141.641,109.016,113.74,,,,62.2248,-0.383451,0.0,0.0
938,234.25,55.8512,59.7193,137.866,108.991,113.559,,,,62.2248,-0.37111,0.0,0.0
939,234.5,55.8243,59.7744,141.525,109.003,113.801,,,,62.2148,-0.389418,0.0,0.0