File: 01_Data/FRP_Panel/Cone/FRP_Panel_Cone_HF50Scan_220919_R4.csv
Names,Time,Stack TC,Smoke TC,Exh Press,Smoke Comp,Smoke Meas,CO Meter,CO2 Meter,O2 Meter,Sample Mass,Ext Coeff,Start Test,Flame Verif
Chan Gain,,500,500,1,1,1,1,1,1,1,1,1.0,1.0
Offset,,0,0,0.143022,0,0,0,0,0,0,0,0.0,0.0
Gain,,1,1,25.011,14.5176,16.5692,1,1,1,1.00088,1.03055,1.0,1.0
Units,sec,C,C,Pa,%,%,%,%,%,g,/m,,
Baseline,,51.6137,53.2079,143.374,108.343,113.495,0.000261741,0.043038,20.9505,-447.61,-0.419922,,
3,0.5,50.0084,52.2842,139.843,108.607,113.261,0.000689673,0.0438289,20.953,84.4244,-0.379289,0.0,0.0
6,1.25,48.9896,50.8538,140.625,108.613,113.441,0.000704127,0.0437888,20.9531,84.4244,-0.393162,0.0,0.0
9,2,48.6778,50.7823,144.435,108.629,113.79,0.000703321,0.0436835,20.9532,84.4444,-0.419559,0.0,0.0
12,2.75,48.8976,50.987,142.253,108.634,114.426,0.000691515,0.0436208,20.9533,84.4444,-0.469625,0.0,0.0
15,3.5,49.2616,50.5659,146.271,108.637,113.079,0.000677578,0.0435812,20.9534,84.4344,-0.362238,0.0,0.0
18,4.25,48.9744,50.7128,141.36,108.646,113.093,0.000667417,0.043472,20.9534,84.4244,-0.362709,0.0,0.0
21,5,48.6787,50.7082,140.661,108.646,113.472,0.000677785,0.0434124,20.9535,84.4244,-0.392892,0.0,0.0
24,5.75,48.635,50.1321,143.656,108.654,114.694,0.000696563,0.043369,20.9535,84.4244,-0.489039,0.0,0.0
27,6.5,49.1376,50.6702,142.886,108.674,113.939,0.000717004,0.0433374,20.9535,84.4144,-0.427641,0.0,0.0
30,7.25,48.9516,51.0005,143.305,108.671,113.107,0.000735272,0.0433425,20.9535,84.4444,-0.361663,0.0,0.0
33,8,49.0899,50.6539,144.218,108.666,113.755,0.000741476,0.0433582,20.9535,84.4444,-0.413767,0.0,0.0
36,8.75,48.8552,50.6103,138.412,108.687,113.855,0.000745999,0.0433094,20.9535,84.4544,-0.41991,0.0,0.0
39,9.5,49.0249,50.8922,145.195,108.69,114.147,0.000708411,0.0432457,20.9535,84.4344,-0.442825,0.0,0.0
42,10.25,49.3002,50.5669,145.389,108.7,114.423,0.000652367,0.0431873,20.9531,84.4144,-0.463819,0.0,0.0
45,11,49.2005,50.6835,144.708,108.72,114.093,0.0005993,0.0431447,20.9526,84.4144,-0.435997,0.0,0.0
48,11.75,48.7476,50.4021,143.773,108.737,114.062,0.000520801,0.0431338,20.9522,84.4044,-0.432193,0.0,0.0
51,12.5,48.6015,50.7606,143.811,108.747,113.776,0.000437441,0.0431258,20.9519,84.4144,-0.408749,0.0,0.0
54,13.25,48.8917,50.6133,145.639,108.752,114.04,0.000361007,0.0431199,20.9517,84.4044,-0.429177,0.0,0.0
57,14,48.6982,51.0685,144.433,108.755,113.982,0.000275159,0.0431297,20.9516,84.4044,-0.424346,0.0,0.0
60,14.75,49.2791,50.8356,143.163,108.801,113.781,0.000197672,0.0431429,20.9515,84.3944,-0.404579,0.0,0.0
63,15.5,49.1508,50.9125,142.727,108.801,114.255,0.000134177,0.0431725,20.9514,84.3944,-0.442223,0.0,0.0
66,16.25,49.0693,50.9966,143.406,108.786,113.253,8.67709e-05,0.0431801,20.9514,84.3944,-0.363754,0.0,0.0
69,17,49.3686,50.6265,142.658,108.803,113.981,7.05189e-05,0.0431944,20.9513,84.3944,-0.420293,0.0,0.0
72,17.75,49.3236,50.6775,144.833,108.805,113.393,8.99763e-05,0.0432301,20.9517,84.3844,-0.373307,0.0,0.0
75,18.5,49.3291,50.9545,141.203,108.799,113.598,0.000130998,0.0432161,20.952,84.3944,-0.390212,0.0,0.0
78,19.25,48.9933,50.7842,144.23,108.787,114.102,0.000206794,0.0432058,20.9523,84.3744,-0.431195,0.0,0.0
81,20,49.3979,50.8025,143.732,108.797,113.871,0.000295668,0.0432406,20.9524,84.3343,-0.412061,0.0,0.0
84,20.75,49.1334,51.0695,142.643,108.809,113.765,0.000380035,0.0432691,20.9526,84.3143,-0.402674,0.0,0.0
87,21.5,49.3454,50.9797,144.344,108.837,113.483,0.000450508,0.0432645,20.952,84.3543,-0.377867,0.0,0.0
90,22.25,49.1352,51.1701,142.156,108.848,113.341,0.000504376,0.0432612,20.9516,84.3744,-0.365662,0.0,0.0
93,23,49.4707,50.5799,142.125,108.848,114.068,0.000545994,0.0432588,20.9513,84.3543,-0.423508,0.0,0.0
96,23.75,49.5982,50.4747,140.495,108.868,113.475,0.000578535,0.043257,20.9509,84.3243,-0.37461,0.0,0.0
99,24.5,49.4436,50.9564,143.45,108.889,112.835,0.000600479,0.0432557,20.9506,84.3143,-0.321779,0.0,0.0
102,25.25,49.3043,51.0797,146.063,108.897,113.392,0.000616476,0.0432548,20.9503,84.3143,-0.365687,0.0,0.0
105,26,49.5602,50.7533,141.503,108.902,113.426,0.000615698,0.0432125,20.9501,84.3043,-0.367984,0.0,0.0
108,26.75,49.3496,50.8985,142.744,108.918,113.942,0.000620462,0.0432098,20.95,84.3343,-0.407676,0.0,0.0
111,27.5,49.5798,51.0309,142.147,108.946,112.968,0.000641649,0.0432199,20.9499,84.3143,-0.327761,0.0,0.0
114,28.25,49.2978,50.8661,142.435,108.927,113.661,0.000687385,0.0433074,20.9499,84.2943,-0.38457,0.0,0.0
117,29,49.1458,50.8643,146.629,108.934,112.948,0.000857869,0.0440607,20.9467,84.2843,-0.327095,0.0,0.0
120,29.75,49.2687,50.7367,142.865,108.927,112.413,0.00110229,0.0457888,20.9431,84.2543,-0.284763,0.0,0.0
123,30.5,49.5315,50.9392,135.986,108.951,114.098,0.00148591,0.0538598,20.9284,84.2242,-0.417226,0.0,1.0
126,31.25,49.8123,50.6902,139.962,108.956,112.282,0.00252505,0.0697012,20.8915,84.1842,-0.271841,0.0,1.0
129,32,49.3687,50.9083,133.175,108.958,103.179,0.00290172,0.0925643,20.8746,84.1542,0.49267,0.0,1.0
132,32.75,50.0226,51.1822,128.469,108.993,96.0352,0.0044352,0.121321,20.833,84.0841,1.14416,0.0,1.0
135,33.5,50.1271,51.5114,128.741,109,91.3499,0.00635839,0.163289,20.7783,83.974,1.59687,0.0,1.0
138,34.25,51.095,51.6046,129.827,108.997,83.7317,0.0081037,0.223888,20.7128,83.8439,2.38387,0.0,1.0
141,35,51.5727,51.8423,125.562,109.003,80.5573,0.0108274,0.259881,20.6392,83.7738,2.73374,0.0,1.0
144,35.75,51.0452,50.9988,127.472,109.015,76.9196,0.0138849,0.301465,20.5529,83.6337,3.15241,0.0,1.0
147,36.5,52.0084,52.0548,120.989,109.036,70.4321,0.0171351,0.366644,20.4533,83.4636,3.95069,0.0,1.0
150,37.25,52.6612,52.1407,123.961,109.05,66.9896,0.0204695,0.434651,20.3359,83.3335,4.40487,0.0,1.0
153,38,53.7057,53.5041,118.549,109.048,63.0724,0.0245468,0.505596,20.2152,83.1333,4.94939,0.0,0.0
156,38.75,54.7089,53.7354,111.613,109.049,60.1138,0.0275192,0.578916,20.1124,83.0132,5.38377,0.0,0.0
159,39.5,56.0312,54.926,109.301,109.067,61.4558,0.0316395,0.669864,20.0374,82.813,5.18568,0.0,0.0
162,40.25,57.4703,56.1355,108.247,109.086,60.3069,0.0346432,0.74945,19.9315,82.7129,5.35789,0.0,0.0
165,41,59.3638,56.6451,103.039,109.099,60.5512,0.0381375,0.830185,19.8368,82.4226,5.32238,0.0,0.0
168,41.75,60.8801,58.7078,105.629,109.099,57.4576,0.0417191,0.927502,19.722,82.2125,5.79645,0.0,0.0
171,42.5,63.2348,60.1876,107.285,109.12,57.269,0.0446701,0.998446,19.6112,82.0623,5.82793,0.0,0.0
174,43.25,64.6996,62.1999,100.644,109.138,54.9516,0.0470545,1.08142,19.4927,81.8421,6.20281,0.0,0.0
177,44,67.154,64.0514,99.0612,109.152,58.3875,0.048944,1.15523,19.3797,81.652,5.65572,0.0,0.0
180,44.75,69.2287,65.6288,100.75,109.16,59.2592,0.0504317,1.22762,19.2794,81.4318,5.52241,0.0,0.0
183,45.5,71.9209,67.5917,97.6446,109.155,59.5717,0.0515945,1.28714,19.1962,81.2216,5.47443,0.0,0.0
186,46.25,73.8327,69.4194,103.144,109.177,56.7972,0.0525548,1.33577,19.1355,81.0614,5.90744,0.0,0.0
189,47,75.2743,71.3875,97.5973,109.191,55.8906,0.0534474,1.37529,19.0843,80.8412,6.05404,0.0,0.0
192,47.75,77.4807,73.3754,97.8125,109.187,53.4518,0.05448,1.40841,19.0426,80.6311,6.45703,0.0,0.0
195,48.5,79.5284,75.0381,99.391,109.188,54.3246,0.0554269,1.43255,19.0102,80.4109,6.31073,0.0,0.0
198,49.25,81.3372,77.0765,102.735,109.207,50.874,0.0564492,1.46035,18.9746,80.1907,6.90551,0.0,0.0
201,50,83.0814,79.3223,102.258,109.214,46.0087,0.057778,1.49185,18.9283,79.9405,7.81485,0.0,0.0
204,50.75,84.5624,80.7726,93.7618,109.217,46.308,0.0591496,1.5196,18.8786,79.7002,7.75645,0.0,0.0
207,51.5,86.8983,82.6522,104.339,109.213,46.1644,0.0605463,1.55485,18.83,79.4901,7.78419,0.0,0.0
210,52.25,88.5191,84.6247,96.7508,109.229,50.0797,0.0619494,1.59064,18.7768,79.2398,7.04965,0.0,0.0
213,53,90.3366,86.5074,95.2288,109.241,49.8754,0.0631775,1.62573,18.7381,79.0397,7.08759,0.0,0.0
216,53.75,92.5752,88.2186,92.707,109.244,45.6436,0.0644236,1.65938,18.6928,78.7995,7.88933,0.0,0.0
219,54.5,94.1861,90.0245,97.7629,109.243,47.4467,0.0656769,1.69121,18.6522,78.5092,7.53901,0.0,0.0
222,55.25,96.5589,92.0698,93.3542,109.257,45.9743,0.0668305,1.71753,18.6163,78.3691,7.82513,0.0,0.0
225,56,97.5259,93.8415,92.955,109.273,44.4103,0.0677738,1.74438,18.5848,78.0788,8.13937,0.0,0.0
228,56.75,99.8287,95.998,98.2858,109.271,45.6213,0.0689285,1.76908,18.5441,77.8386,7.89593,0.0,0.0
231,57.5,101.484,98.0891,99.3849,109.259,42.8878,0.0701289,1.79585,18.5065,77.5984,8.45354,0.0,0.0
234,58.25,103.169,99.8408,96.286,109.293,40.804,0.0713397,1.82769,18.4655,77.3482,8.90658,0.0,0.0
237,59,104.881,101.241,106.554,109.291,43.9775,0.0725353,1.85827,18.4224,77.118,8.2294,0.0,0.0
240,59.75,106.471,103.17,89.8615,109.299,39.0145,0.0736247,1.88672,18.3881,76.8577,9.31254,0.0,0.0
243,60.5,108.305,105.293,98.9704,109.296,45.4949,0.0744428,1.91262,18.3673,76.5875,7.92314,0.0,0.0
246,61.25,110.533,107.471,91.5483,109.307,41.4639,0.0756975,1.93824,18.3394,76.3573,8.76269,0.0,0.0
249,62,111.626,109.246,100.016,109.313,39.6385,0.0767141,1.96089,18.3127,76.067,9.1702,0.0,0.0
252,62.75,113.295,110.881,86.1199,109.338,42.2805,0.0776293,1.98419,18.2891,75.8368,8.58898,0.0,0.0
255,63.5,115.061,112.666,89.3867,109.327,37.1426,0.0782965,1.99883,18.2646,75.5566,9.7593,0.0,0.0
258,64.25,116.424,114.911,93.1955,109.321,35.4846,0.0789725,2.01925,18.2405,75.2864,10.1716,0.0,0.0
261,65,118.218,116.678,95.999,109.336,39.2122,0.0795135,2.03651,18.2203,74.9961,9.26985,0.0,0.0
264,65.75,119.797,118.19,91.8834,109.339,39.5217,0.0799903,2.0491,18.2048,74.7559,9.19904,0.0,0.0
267,66.5,121.292,120.007,84.1812,109.334,39.8605,0.0804707,2.05864,18.1926,74.5857,9.12148,0.0,0.0
270,67.25,122.873,121.686,98.2613,109.335,39.9368,0.0808505,2.06576,18.1836,74.2955,9.10425,0.0,0.0
273,68,124.166,123.37,91.7224,109.357,43.8,0.081178,2.07298,18.1771,73.9852,8.27142,0.0,0.0
276,68.75,125.492,125.265,91.7895,109.377,39.2223,0.0812739,2.0779,18.1732,73.805,9.27089,0.0,0.0
279,69.5,126.945,127.049,87.9686,109.363,38.8522,0.0811281,2.08135,18.1715,73.5148,9.3555,0.0,0.0
282,70.25,128.341,128.161,94.8449,109.372,37.7372,0.080785,2.07838,18.1714,73.3146,9.61945,0.0,0.0
285,71,129.624,130.343,91.5056,109.389,40.3605,0.0802868,2.07317,18.184,73.0344,9.01331,0.0,0.0
288,71.75,130.707,131.585,87.0839,109.39,39.6754,0.0795032,2.06419,18.1967,72.8042,9.1682,0.0,0.0
291,72.5,131.704,132.932,98.1751,109.404,43.8961,0.0787487,2.05093,18.2119,72.604,8.25546,0.0,0.0
294,73.25,132.554,134.409,97.3965,109.402,43.1138,0.0778855,2.03275,18.2344,72.3638,8.41782,0.0,0.0
297,74,133.538,135.222,98.6376,109.416,45.4337,0.0768221,2.01075,18.2581,72.0735,7.9452,0.0,0.0
300,74.75,134.815,136.513,97.3912,109.426,43.7964,0.0758618,1.99097,18.2877,71.8433,8.27783,0.0,0.0
303,75.5,135.455,137.432,95.2868,109.425,43.756,0.0743701,1.95619,18.3279,71.6632,8.28611,0.0,0.0
306,76.25,136.282,139.371,93.5855,109.424,48.633,0.0726424,1.92222,18.3759,71.433,7.33075,0.0,0.0
309,77,136.749,139.663,98.3972,109.439,44.3739,0.0707172,1.8827,18.4293,71.2128,8.16051,0.0,0.0
312,77.75,137.404,141.207,106.611,109.452,47.8467,0.0686419,1.82585,18.5087,71.0927,7.48041,0.0,0.0
315,78.5,138.092,141.506,98.6674,109.463,47.1676,0.0663602,1.77481,18.5794,70.8625,7.61047,0.0,0.0
318,79.25,137.755,142.513,100.16,109.453,46.8941,0.0639526,1.72119,18.653,70.6423,7.66228,0.0,0.0
321,80,138.095,143.142,107.44,109.47,52.6018,0.061485,1.65787,18.7388,70.4921,6.62535,0.0,0.0
324,80.75,138.253,143.454,99.6673,109.493,51.2219,0.0591417,1.60226,18.815,70.322,6.86753,0.0,0.0
327,81.5,137.959,143.356,105.982,109.483,51.5481,0.0565022,1.54558,18.8937,70.2019,6.80935,0.0,0.0
330,82.25,138.118,143.94,107.48,109.487,54.8692,0.0536267,1.4776,18.9745,70.0918,6.24525,0.0,0.0
333,83,138.174,144.318,107.634,109.494,58.2323,0.0517483,1.42805,19.0229,69.9316,5.70807,0.0,0.0
336,83.75,137.325,144.629,114.025,109.499,57.4015,0.0490538,1.35836,19.1205,69.7715,5.83841,0.0,0.0
339,84.5,137.098,144.081,116.488,109.522,56.2592,0.046277,1.28474,19.2272,69.6114,6.02198,0.0,0.0
342,85.25,137.194,144.43,117.101,109.502,67.2086,0.0436549,1.22135,19.3201,69.4812,4.41279,0.0,0.0
345,86,135.499,144.011,112.355,109.525,61.0169,0.0414886,1.17008,19.4021,69.3811,5.2884,0.0,0.0
348,86.75,134.822,143.809,117.376,109.525,64.923,0.0393848,1.10195,19.4862,69.3011,4.72746,0.0,0.0
351,87.5,134.22,143.418,119.83,109.517,71.6381,0.0369542,1.03707,19.5792,69.201,3.83702,0.0,0.0
354,88.25,133.037,142.454,118.66,109.523,70.6126,0.0347003,0.968775,19.647,69.1009,3.96787,0.0,0.0
357,89,132.268,142.099,122.065,109.529,73.417,0.0322329,0.91899,19.7275,69.0008,3.61627,0.0,0.0
360,89.75,131.551,141.496,129.937,109.532,74.2078,0.0294863,0.858553,19.8123,68.9608,3.51964,0.0,0.0
363,90.5,129.885,140.977,126.09,109.54,84.0503,0.0268868,0.804201,19.8984,68.9107,2.39444,0.0,0.0
366,91.25,129.225,139.626,125.049,109.538,82.9293,0.0244555,0.7423,19.9835,68.8307,2.51564,0.0,0.0
369,92,127.715,139.286,129.634,109.54,86.8137,0.0222013,0.690036,20.0772,68.7506,2.10205,0.0,0.0
372,92.75,126.261,138.277,127.118,109.558,91.6502,0.0200587,0.639729,20.1534,68.6905,1.61338,0.0,0.0
375,93.5,125.156,137.331,127.429,109.553,93.282,0.0180423,0.589183,20.2226,68.6605,1.45348,0.0,0.0
378,94.25,124.211,136.544,130.649,109.546,97.584,0.0161591,0.543922,20.2901,68.5905,1.04527,0.0,0.0
381,95,122.967,135.632,130.031,109.537,100.163,0.0145972,0.502925,20.3393,68.5804,0.80874,0.0,0.0
384,95.75,121.632,134.475,132.385,109.544,101.309,0.0131354,0.465487,20.3903,68.5704,0.706474,0.0,0.0
387,96.5,120.389,133.396,134.634,109.558,105.606,0.0118855,0.425615,20.4343,68.5404,0.332081,0.0,0.0
390,97.25,118.915,132.793,135.58,109.557,106.347,0.0108462,0.392439,20.478,68.5204,0.268811,0.0,0.0
393,98,117.943,131.555,135.774,109.541,110.194,0.0100036,0.361227,20.5231,68.5104,-0.0537734,0.0,0.0
396,98.75,116.552,130.612,133.863,109.548,111.696,0.00933962,0.331866,20.5662,68.5204,-0.175521,0.0,0.0
399,99.5,114.898,129.637,135.935,109.558,112.335,0.00886075,0.307645,20.6057,68.5104,-0.226256,0.0,0.0
402,100.25,114.31,128.621,137.456,109.562,114.4,0.0085322,0.282294,20.6408,68.4904,-0.3906,0.0,0.0
405,101,112.732,127.442,135.46,109.559,114.611,0.00832405,0.26002,20.6741,68.4603,-0.40758,0.0,0.0
408,101.75,111.309,126.356,139.374,109.564,114.97,0.00821108,0.240659,20.7004,68.4704,-0.435414,0.0,0.0
411,102.5,110.53,125.548,136.986,109.574,115.869,0.00822296,0.223967,20.7232,68.4804,-0.504949,0.0,0.0
414,103.25,109.38,124.731,137.262,109.569,115.473,0.00827938,0.208577,20.742,68.4904,-0.474409,0.0,0.0
417,104,108.284,123.993,136.755,109.571,115.509,0.00839572,0.196154,20.7581,68.4403,-0.477112,0.0,0.0
420,104.75,106.92,122.415,138.668,109.567,115.564,0.00854813,0.185039,20.7722,68.4203,-0.481754,0.0,0.0
423,105.5,105.697,121.549,139.537,109.576,115.013,0.00872003,0.175429,20.7857,68.3903,-0.437806,0.0,0.0
426,106.25,104.46,119.918,135.08,109.581,114.913,0.00889608,0.167239,20.7962,68.3603,-0.429531,0.0,0.0
429,107,103.856,119.152,138.545,109.572,114.949,0.00904605,0.160341,20.8051,68.3502,-0.433049,0.0,0.0
432,107.75,102.587,118.074,141.339,109.599,115.632,0.00920541,0.154607,20.8128,68.3402,-0.484417,0.0,0.0
435,108.5,101.33,117.382,137.008,109.59,115.704,0.00932912,0.149803,20.8184,68.3803,-0.490763,0.0,0.0
438,109.25,100.497,116.443,139.698,109.584,115.667,0.00943221,0.145747,20.8229,68.3603,-0.488351,0.0,0.0
441,110,99.636,115.612,137.781,109.574,116.303,0.00949914,0.142086,20.8268,68.3603,-0.538734,0.0,0.0
444,110.75,98.6324,114.75,140.128,109.587,115.661,0.00953385,0.139117,20.8302,68.3402,-0.487624,0.0,0.0
447,111.5,98.0344,114.263,140.202,109.599,114.917,0.00953832,0.136224,20.833,68.3202,-0.428311,0.0,0.0
450,112.25,96.9611,112.91,141.418,109.601,115.709,0.00951694,0.134114,20.8355,68.3402,-0.490205,0.0,0.0
453,113,95.9074,111.935,141.024,109.59,114.793,0.00947441,0.131862,20.8386,68.3402,-0.419327,0.0,0.0
456,113.75,95.1191,111.332,135.222,109.6,116.25,0.00938961,0.129724,20.8411,68.3302,-0.532526,0.0,0.0
459,114.5,94.5095,110.477,136.925,109.602,115.526,0.00931411,0.127838,20.8433,68.3102,-0.47582,0.0,0.0
462,115.25,93.7095,109.608,139.57,109.607,116.078,0.00923569,0.126151,20.8456,68.2902,-0.518563,0.0,0.0
465,116,93.0827,108.857,138.801,109.599,115.977,0.00918604,0.124689,20.8472,68.2502,-0.511302,0.0,0.0
468,116.75,91.9954,108.004,142.583,109.594,115.63,0.0091627,0.123524,20.849,68.2401,-0.484665,0.0,0.0
471,117.5,90.8718,107.112,140.829,109.602,115.348,0.00915219,0.122343,20.8506,68.2101,-0.461921,0.0,0.0
474,118.25,90.1616,106.73,140.77,109.614,115.682,0.00914046,0.121421,20.8521,68.1701,-0.487054,0.0,0.0
477,119,89.9463,105.561,137.476,109.603,116.355,0.00912021,0.120644,20.8532,68.1601,-0.540442,0.0,0.0
480,119.75,89.74,105.16,140.786,109.595,116.247,0.00907581,0.119889,20.8541,68.1601,-0.53269,0.0,0.0
483,120.5,88.8354,104.444,137.987,109.612,115.585,0.00902122,0.119258,20.8551,68.1601,-0.479645,0.0,0.0
486,121.25,88.0616,103.936,138.052,109.629,116.493,0.0089821,0.118301,20.856,68.2001,-0.549044,0.0,0.0
489,122,87.5703,102.771,139.29,109.622,115.643,0.00895475,0.11743,20.8574,68.2001,-0.483315,0.0,0.0
492,122.75,86.4817,102.409,140.401,109.611,115.816,0.0089452,0.116705,20.8583,68.2101,-0.497812,0.0,0.0
495,123.5,86.0165,101.455,138.439,109.614,115.646,0.0089454,0.116151,20.859,68.1601,-0.484245,0.0,0.0
498,124.25,85.4957,100.75,139.42,109.626,116.459,0.00895023,0.115747,20.8595,68.1601,-0.546634,0.0,0.0
501,125,84.8774,100.297,136.614,109.624,115.644,0.00895114,0.115414,20.8599,68.1801,-0.483323,0.0,0.0
504,125.75,84.0692,99.2718,138.884,109.603,116.226,0.0089507,0.115106,20.8602,68.1701,-0.530346,0.0,0.0
507,126.5,84.1467,98.912,136.563,109.604,115.515,0.00895038,0.114716,20.861,68.1601,-0.474883,0.0,0.0
510,127.25,83.117,98.5662,140.065,109.625,116.155,0.008952,0.114341,20.8616,68.1601,-0.523009,0.0,0.0
513,128,82.6645,97.6135,140.519,109.623,116.056,0.00895283,0.11391,20.8619,68.1601,-0.515478,0.0,0.0
516,128.75,81.7796,96.8964,138.572,109.612,115.072,0.00893909,0.113437,20.8623,68.1501,-0.439418,0.0,0.0
519,129.5,81.725,96.6938,140.737,109.611,115.779,0.00892907,0.113002,20.8626,68.1301,-0.494855,0.0,0.0
522,130.25,81.5545,96.2213,135.474,109.619,116.276,0.00885699,0.112645,20.863,68.1301,-0.532999,0.0,0.0
525,131,80.5698,95.2905,138.983,109.634,116.136,0.00877203,0.112479,20.8635,68.1401,-0.520825,0.0,0.0
528,131.75,80.4585,94.6618,139.278,109.624,114.638,0.00869015,0.112286,20.8643,68.1,-0.404321,0.0,0.0
531,132.5,79.3483,94.3175,137.204,109.609,115.322,0.00861997,0.111899,20.8651,68.1,-0.459352,0.0,0.0
534,133.25,79.0143,94.0704,137.159,109.624,115.122,0.00857357,0.111486,20.8661,68.09,-0.442364,0.0,0.0
537,134,78.7906,93.5819,139.418,109.617,115.647,0.00854792,0.110964,20.8667,68.11,-0.484145,0.0,0.0
540,134.75,78.3377,92.7911,139.771,109.623,115.668,0.00854476,0.110483,20.8671,68.09,-0.485214,0.0,0.0
543,135.5,77.9683,91.7862,137.855,109.601,115.722,0.00856069,0.110089,20.8675,68.05,-0.491233,0.0,0.0
546,136.25,77.6327,91.8665,143.327,109.625,115.773,0.00859214,0.109628,20.8677,68.0099,-0.493285,0.0,0.0
549,137,77.1043,91.0149,140.204,109.626,115.768,0.00863453,0.109187,20.8678,68.07,-0.492856,0.0,0.0
552,137.75,76.4494,90.5721,137.34,109.63,116.387,0.00867372,0.108814,20.868,68.04,-0.540652,0.0,0.0
555,138.5,75.9934,90.4045,137.47,109.617,116.134,0.00869859,0.108398,20.8685,68.05,-0.522089,0.0,0.0
558,139.25,75.6976,89.8414,140.097,109.63,115.457,0.00870234,0.108042,20.8691,68.04,-0.468175,0.0,0.0
561,140,75.4478,89.2447,137.675,109.634,116.23,0.0086805,0.107691,20.8699,68.02,-0.528215,0.0,0.0
564,140.75,75.1027,88.9699,140.242,109.617,115.692,0.00861097,0.10729,20.8705,67.9899,-0.487586,0.0,0.0
567,141.5,75.0562,88.4737,138.614,109.605,115.701,0.00851412,0.106937,20.8709,67.9999,-0.48932,0.0,0.0
570,142.25,74.3718,87.6815,140.576,109.613,116.073,0.0084367,0.106431,20.8712,67.9799,-0.517618,0.0,0.0
573,143,73.6822,87.0633,139.49,109.636,115.629,0.00836862,0.105946,20.8715,67.9699,-0.481075,0.0,0.0
576,143.75,73.8419,87.1041,139.175,109.624,115.152,0.00832103,0.105505,20.8716,67.9799,-0.444706,0.0,0.0
579,144.5,73.4097,86.5495,143.485,109.619,115.694,0.00828983,0.105119,20.8724,67.9599,-0.487562,0.0,0.0
582,145.25,73.0511,85.8704,137.152,109.612,115.78,0.00827631,0.104756,20.8729,67.9499,-0.49486,0.0,0.0
585,146,72.9452,85.7359,141.223,109.626,115.677,0.00826258,0.10446,20.8734,67.9599,-0.485746,0.0,0.0
588,146.75,72.682,84.8142,140.321,109.615,116.096,0.00825227,0.104193,20.8736,67.9499,-0.519246,0.0,0.0
591,147.5,72.5617,84.6334,139.448,109.605,116.168,0.00824709,0.103897,20.8739,67.9699,-0.525715,0.0,0.0
594,148.25,72.3533,83.9222,140.274,109.608,115.637,0.00825069,0.103638,20.8742,67.9499,-0.484009,0.0,0.0
597,149,71.7291,84.0325,139.004,109.614,115.214,0.0082554,0.103347,20.8749,67.9399,-0.450427,0.0,0.0
600,149.75,71.2764,83.4867,137.286,109.612,116.352,0.00826031,0.103048,20.8753,67.9199,-0.539439,0.0,0.0
603,150.5,71.1127,83.3963,135.66,109.595,116.153,0.0082653,0.102649,20.8757,67.9099,-0.525299,0.0,0.0
606,151.25,71.0403,82.7905,140,109.594,116.107,0.00826777,0.102297,20.8766,67.9099,-0.521903,0.0,0.0
609,152,70.3849,82.375,138.193,109.612,116.456,0.00825665,0.101796,20.8775,67.9099,-0.547492,0.0,0.0
612,152.75,70.164,81.8671,136.471,109.611,116.351,0.00823949,0.101509,20.8782,67.8998,-0.539397,0.0,0.0
615,153.5,69.9265,81.8798,136.748,109.6,116.869,0.00822379,0.101139,20.8787,67.8998,-0.580527,0.0,0.0
618,154.25,69.9723,81.1932,135.246,109.583,116.133,0.00821352,0.100769,20.8795,67.9099,-0.52479,0.0,0.0
621,155,69.6835,81.0521,143.929,109.581,116.098,0.00821341,0.10041,20.8802,67.8898,-0.522257,0.0,0.0
624,155.75,69.5626,80.6734,137.721,109.581,115.578,0.00821335,0.100071,20.8806,67.8498,-0.481649,0.0,0.0
627,156.5,69.5524,80.5171,133.101,109.588,116.399,0.00820037,0.0995777,20.8811,67.8498,-0.545029,0.0,0.0
630,157.25,68.9837,79.758,141.122,109.573,115.936,0.00819091,0.0990129,20.8818,67.8598,-0.510265,0.0,0.0
633,158,68.653,79.4831,139.63,109.572,115.72,0.00817495,0.0985005,20.8825,67.8498,-0.493489,0.0,0.0
636,158.75,68.6436,78.9449,140.748,109.574,115.282,0.00816287,0.0982085,20.883,67.8798,-0.459067,0.0,0.0
639,159.5,67.4888,78.7253,134.173,109.572,115.458,0.00815988,0.0978712,20.8834,67.8398,-0.473005,0.0,0.0
642,160.25,67.8584,78.8324,143.416,109.563,114.757,0.00817973,0.0974408,20.8836,67.8298,-0.41877,0.0,0.0
645,161,67.265,78.1994,140.07,109.562,115.83,0.00819938,0.097074,20.8836,67.7998,-0.502938,0.0,0.0
648,161.75,67.2052,78.5266,139.033,109.577,114.948,0.00821115,0.0967162,20.8836,67.8398,-0.432604,0.0,0.0
651,162.5,67.2057,77.8658,141.966,109.559,116.223,0.00821157,0.0963822,20.8835,67.8298,-0.533801,0.0,0.0
654,163.25,67.0379,77.4093,143.933,109.573,115.544,0.00819343,0.0960698,20.8835,67.7897,-0.47966,0.0,0.0
657,164,66.9466,76.9996,142.144,109.55,115.976,0.0081802,0.0957774,20.8839,67.8198,-0.515319,0.0,0.0
660,164.75,66.4995,76.831,140.506,109.554,115.58,0.00815027,0.0954208,20.8845,67.8298,-0.484,0.0,0.0
663,165.5,66.5877,76.4525,137.116,109.548,115.442,0.00812844,0.095046,20.8848,67.8198,-0.473712,0.0,0.0
666,166.25,66.3216,76.0132,140.187,109.557,115.627,0.00811186,0.0947238,20.8851,67.8098,-0.487459,0.0,0.0
669,167,66.1206,76.1994,140.763,109.53,115.577,0.0080986,0.0943252,20.8857,67.7897,-0.485774,0.0,0.0
672,167.75,65.8464,75.6397,139.434,109.535,114.98,0.00808764,0.0940346,20.8864,67.7897,-0.438545,0.0,0.0
675,168.5,65.7262,75.0673,138.99,109.535,115.162,0.00807638,0.0935976,20.8869,67.7897,-0.452886,0.0,0.0
678,169.25,65.5688,75.0238,138.271,109.532,115.814,0.00806352,0.0931786,20.8872,67.7697,-0.504121,0.0,0.0
681,170,65.3845,74.9722,139.225,109.513,115.302,0.00805293,0.0928304,20.8875,67.7497,-0.465699,0.0,0.0
684,170.75,65.5077,74.4132,134.551,109.534,115.795,0.00804468,0.0923924,20.8876,67.7497,-0.502478,0.0,0.0
687,171.5,65.0755,74.5197,139.716,109.517,115.094,0.00803997,0.0920302,20.8884,67.7297,-0.449021,0.0,0.0
690,172.25,65.0628,74.1089,138.087,109.522,115.181,0.00804797,0.0917106,20.8892,67.7297,-0.455451,0.0,0.0
693,173,64.7734,73.9293,137.748,109.504,115.408,0.00807243,0.0914143,20.8898,67.7197,-0.474676,0.0,0.0
696,173.75,64.6881,73.2347,141.645,109.497,115.747,0.00812532,0.0912126,20.8902,67.7197,-0.501762,0.0,0.0
699,174.5,64.6911,73.7479,140.802,109.498,115.206,0.00818718,0.0910717,20.8905,67.7197,-0.45941,0.0,0.0
702,175.25,64.3413,73.085,143.93,109.485,115.755,0.00825176,0.0908872,20.891,67.7197,-0.503455,0.0,0.0
705,176,63.9578,72.4756,135.47,109.466,115.471,0.00831516,0.090638,20.8917,67.7297,-0.482811,0.0,0.0
708,176.75,63.7216,72.9536,139.213,109.47,115.618,0.00836508,0.0903472,20.8929,67.6797,-0.493951,0.0,0.0
711,177.5,63.7681,72.9786,138.352,109.477,114.99,0.0083851,0.090032,20.8937,67.6797,-0.444092,0.0,0.0
714,178.25,62.4497,70.9784,141.848,109.452,115.409,0.00837173,0.0895979,20.8943,67.6496,-0.479035,0.0,0.0
717,179,61.9748,70.7145,137.997,109.441,115.795,0.00836197,0.0891383,20.8948,67.6396,-0.51012,0.0,0.0
720,179.75,61.9137,70.1866,138.836,109.437,114.627,0.00829923,0.0886368,20.8953,67.6296,-0.418839,0.0,0.0
723,180.5,61.948,69.7891,143.227,109.454,115.139,0.00821889,0.0880908,20.8958,67.6496,-0.45779,0.0,0.0
726,181.25,61.1926,69.5326,144.589,109.425,115.371,0.0081417,0.0876927,20.8962,67.6696,-0.478336,0.0,0.0
729,182,60.9148,69.7664,148.881,109.415,115.297,0.00809281,0.0872166,20.8965,67.6596,-0.473429,0.0,0.0
732,182.75,60.976,68.7054,140.702,109.401,115.457,0.00808173,0.0867902,20.897,67.6696,-0.487045,0.0,0.0
735,183.5,61.4352,68.8858,142.44,109.406,115.549,0.00810047,0.0866222,20.8977,67.6797,-0.493882,0.0,0.0
738,184.25,61.2051,68.6162,136.071,109.396,115.308,0.00814207,0.0865569,20.8982,67.6496,-0.475798,0.0,0.0
741,185,60.8599,68.9184,138.586,109.389,114.868,0.00818807,0.0865036,20.8986,67.6596,-0.441829,0.0,0.0
744,185.75,60.372,68.0661,139.833,109.374,115.935,0.00824841,0.0864133,20.8989,67.6496,-0.526612,0.0,0.0
747,186.5,60.859,68.4972,138.486,109.374,115.408,0.00829609,0.0861842,20.8991,67.6196,-0.485475,0.0,0.0
750,187.25,60.7011,68.3007,138.742,109.379,115.078,0.00831272,0.0859645,20.8993,67.6096,-0.459131,0.0,0.0
753,188,60.6272,67.9084,139.34,109.361,116.134,0.00831711,0.0857142,20.8994,67.6196,-0.543235,0.0,0.0
756,188.75,60.2027,67.5683,140.564,109.36,115.111,0.00826125,0.0854889,20.8994,67.5896,-0.46333,0.0,0.0
759,189.5,60.4143,67.42,138.526,109.356,115.947,0.0081727,0.0852311,20.8997,67.5896,-0.52906,0.0,0.0
762,190.25,60.1339,67.4612,135.93,109.344,115.039,0.00808776,0.0849145,20.9004,67.5696,-0.458965,0.0,0.0
765,191,60.0743,66.9465,139.44,109.329,116.016,0.00796692,0.0845206,20.9008,67.5796,-0.536658,0.0,0.0
768,191.75,59.9,67.2123,141.159,109.317,114.823,0.00787407,0.0841959,20.9011,67.5896,-0.444217,0.0,0.0
771,192.5,59.7623,66.7239,141.495,109.305,115.533,0.00779825,0.0838948,20.9014,67.5796,-0.50089,0.0,0.0
774,193.25,60.0375,66.7287,137.736,109.318,115.014,0.00773746,0.083604,20.9015,67.5796,-0.459183,0.0,0.0
777,194,59.9783,66.6376,138.175,109.297,114.439,0.00767895,0.0833614,20.9019,67.5996,-0.415564,0.0,0.0
780,194.75,59.4123,66.3048,141.443,109.289,115.254,0.00762143,0.083042,20.9026,67.5896,-0.480383,0.0,0.0
783,195.5,59.1965,66.3547,141.158,109.276,114.849,0.00756442,0.0827791,20.903,67.5796,-0.449695,0.0,0.0
786,196.25,59.0912,66.0618,141.56,109.286,115.197,0.00749712,0.0825361,20.9034,67.5595,-0.476233,0.0,0.0
789,197,59.5126,65.8726,138.742,109.273,115.041,0.00743003,0.0823996,20.9036,67.5595,-0.465026,0.0,0.0
792,197.75,58.852,66.0898,136.408,109.26,115.195,0.00737343,0.0822573,20.9038,67.5595,-0.478124,0.0,0.0
795,198.5,59.0269,65.5497,138.977,109.239,115.127,0.00729871,0.0820639,20.9044,67.5395,-0.474561,0.0,0.0
798,199.25,58.8234,65.5489,140.989,109.243,115.223,0.00720695,0.0818399,20.905,67.5295,-0.481736,0.0,0.0
801,200,58.9444,65.2141,139.002,109.237,115.593,0.00713246,0.0815866,20.9053,67.5095,-0.511245,0.0,0.0
804,200.75,58.6493,65.4328,139.419,109.208,116.026,0.00701127,0.0813449,20.9057,67.5095,-0.547452,0.0,0.0
807,201.5,59.1947,64.9562,142.912,109.206,115.415,0.00686281,0.0811444,20.906,67.5095,-0.499879,0.0,0.0
810,202.25,58.7432,63.988,139.889,109.214,114.82,0.00667257,0.080815,20.9061,67.4895,-0.452522,0.0,0.0
813,203,58.6075,64.4108,141.929,109.204,115.107,0.00649891,0.0806466,20.906,67.5095,-0.475913,0.0,0.0
816,203.75,58.7105,64.6973,139.91,109.197,115.269,0.00630296,0.0803504,20.9065,67.5095,-0.489235,0.0,0.0
819,204.5,57.9146,64.3895,136.128,109.175,115.123,0.00612177,0.0801344,20.9069,67.5095,-0.479601,0.0,0.0
822,205.25,58.2634,64.3113,138.749,109.178,115.502,0.00597334,0.0798142,20.9072,67.5095,-0.509039,0.0,0.0
825,206,58.0882,64.032,140.455,109.179,115.004,0.00578503,0.0795095,20.9079,67.5195,-0.469899,0.0,0.0
828,206.75,58.4704,63.6112,141.072,109.17,114.319,0.00560695,0.0791894,20.9085,67.4995,-0.416615,0.0,0.0
831,207.5,57.9068,63.6538,144.251,109.153,114.94,0.0054336,0.0788406,20.909,67.5295,-0.467054,0.0,0.0
834,208.25,58.2923,63.1644,141.117,109.163,114.814,0.00526253,0.0784437,20.9094,67.4895,-0.456299,0.0,0.0
837,209,58.0465,63.3418,137.618,109.154,114.146,0.00506527,0.0780937,20.9099,67.4595,-0.404246,0.0,0.0
840,209.75,57.9823,63.3529,139.464,109.149,115.73,0.00489807,0.0777165,20.9106,67.4895,-0.529254,0.0,0.0
843,210.5,57.7845,63.1737,138.916,109.117,115.172,0.00478456,0.0772706,20.911,67.4595,-0.488183,0.0,0.0
846,211.25,57.8539,63.0581,142.537,109.121,115.377,0.00462677,0.0767603,20.9117,67.4394,-0.503915,0.0,0.0
849,212,57.0579,62.9612,142.678,109.127,115.365,0.00450039,0.076196,20.9126,67.4494,-0.502523,0.0,0.0
852,212.75,57.4579,62.781,144.788,109.116,115.825,0.00437529,0.0755569,20.9132,67.4695,-0.539465,0.0,0.0
855,213.5,57.2662,62.9692,138.11,109.092,115.556,0.00425536,0.0750723,20.9137,67.4394,-0.520388,0.0,0.0
858,214.25,57.4982,61.8383,138.758,109.093,115.113,0.00414285,0.0743972,20.9147,67.4595,-0.485597,0.0,0.0
861,215,57.19,62.5882,140.728,109.086,115.236,0.00401569,0.0737769,20.9154,67.4695,-0.495791,0.0,0.0
864,215.75,57.5238,62.3031,139.443,109.077,115.135,0.0038833,0.0732702,20.9159,67.4695,-0.488552,0.0,0.0
867,216.5,56.951,61.8712,136.533,109.057,114.965,0.00376883,0.0726981,20.9163,67.4695,-0.476892,0.0,0.0
870,217.25,56.7042,61.5851,142.49,109.054,115.361,0.00365466,0.0721814,20.9172,67.4595,-0.508267,0.0,0.0
873,218,57.2329,62.0993,139.56,109.058,115.239,0.0035138,0.0716951,20.9179,67.4394,-0.498419,0.0,0.0
876,218.75,56.9182,61.7004,139.673,109.042,114.346,0.00341112,0.0712254,20.9184,67.4394,-0.429382,0.0,0.0
879,219.5,57.1135,61.6187,141.301,109.026,114.991,0.00325532,0.0706601,20.9187,67.4394,-0.481491,0.0,0.0
882,220.25,56.9997,61.6713,138.442,109.027,115.023,0.00311524,0.0701509,20.9192,67.4494,-0.483963,0.0,0.0
885,221,56.9898,61.5177,139.774,109.025,115.252,0.00296778,0.0696135,20.92,67.4094,-0.502169,0.0,0.0
888,221.75,56.581,61.4879,140.336,109.021,115.041,0.00280742,0.0690192,20.9205,67.4394,-0.485866,0.0,0.0
891,222.5,56.8967,61.6205,138.912,109.002,115.062,0.0026422,0.068586,20.9209,67.4294,-0.489115,0.0,0.0
894,223.25,56.5618,60.8161,138.33,109.003,115.373,0.00247768,0.068007,20.9222,67.4194,-0.513479,0.0,0.0
897,224,56.1939,61.4647,141.124,109.011,114.165,0.00230585,0.0673296,20.9232,67.4194,-0.417631,0.0,0.0
900,224.75,56.4427,61.3788,141.039,109.006,114.669,0.0021806,0.066727,20.9239,67.4394,-0.457863,0.0,0.0
903,225.5,56.7254,60.9767,143.006,108.993,113.505,0.00206798,0.0659018,20.9247,67.3794,-0.366695,0.0,0.0
906,226.25,56.5794,60.962,143.773,108.98,114.07,0.00197679,0.0650877,20.9257,67.3794,-0.412633,0.0,0.0
909,227,56.0281,61.0543,139.986,108.988,114.149,0.00190139,0.0644036,20.9264,67.3894,-0.418257,0.0,0.0
912,227.75,56.4123,60.6931,139.285,108.977,113.796,0.00182637,0.0637036,20.9271,67.3994,-0.391108,0.0,0.0
915,228.5,56.6945,60.323,138.678,108.986,114.553,0.00178205,0.0628492,20.9278,67.3694,-0.450383,0.0,0.0
918,229.25,56.5234,60.3468,146.774,108.961,114.256,0.00167193,0.0619999,20.929,67.3393,-0.428951,0.0,0.0
921,230,55.9601,60.1131,140.267,108.96,114.781,0.00154666,0.0611428,20.9303,67.3293,-0.470493,0.0,0.0
924,230.75,55.8673,60.147,142.351,108.981,114.62,0.00143615,0.0602761,20.9317,67.3393,-0.456057,0.0,0.0
927,231.5,56.0502,59.6177,143.068,108.992,115.155,0.00128437,0.0595786,20.9327,67.3794,-0.497266,0.0,0.0
930,232.25,56.4052,60.1636,140.238,108.957,115.005,0.00115993,0.0586389,20.9334,67.3894,-0.488339,0.0,0.0
933,233,55.5118,59.7983,138.318,108.961,114.432,0.00104565,0.0577249,20.9346,67.3794,-0.442936,0.0,0.0
936,233.75,55.8358,60.1155,140.845,108.964,114.189,0.000949222,0.0568891,20.9354,67.3794,-0.423408,0.0,0.0
939,234.5,55.9947,59.5704,141.699,108.957,114.968,0.000856494,0.0561184,20.9367,67.3794,-0.48551,0.0,0.0
942,235.25,56.0396,59.8583,135.789,108.935,114.729,0.000783564,0.055404,20.938,67.3994,-0.468409,0.0,0.0
945,236,55.8348,59.6424,140.257,108.944,115.929,0.000739119,0.0547644,20.9392,67.4094,-0.561765,0.0,0.0
948,236.75,55.8767,59.4721,142.002,108.954,114.767,0.000716339,0.0540948,20.94,67.3994,-0.469816,0.0,0.0
951,237.5,55.7085,59.8061,137.837,108.945,114.705,0.000709826,0.0533951,20.9413,67.3794,-0.465764,0.0,0.0
954,238.25,55.5676,59.611,141.234,108.937,114.048,0.000722858,0.0527947,20.9422,67.3694,-0.414472,0.0,0.0
957,239,55.6385,59.3352,143.301,108.937,114.62,0.000734113,0.0521157,20.9427,67.3994,-0.459769,0.0,0.0
960,239.75,55.9171,58.786,141.383,108.947,113.652,0.000753012,0.0515219,20.9426,67.4194,-0.382189,0.0,0.0
963,240.5,55.681,58.9678,138.017,108.957,114.993,0.000763509,0.0509483,20.9425,67.3994,-0.487458,0.0,0.0
966,241.25,55.3918,59.4143,140.586,108.941,115.381,0.000765549,0.0504881,20.9425,67.3994,-0.519182,0.0,0.0
969,242,55.177,58.9839,139.297,108.933,114.89,0.00076205,0.0501542,20.9427,67.3794,-0.48133,0.0,0.0
972,242.75,55.8154,59.2091,137.401,108.965,115.761,0.000757373,0.0496943,20.9432,67.3894,-0.546864,0.0,0.0
975,243.5,55.4162,59.4137,138.554,108.975,114.637,0.000743363,0.0492322,20.9436,67.3694,-0.457884,0.0,0.0
978,244.25,55.1469,58.6211,141.588,108.99,114.455,0.000726039,0.0488211,20.944,67.3694,-0.442271,0.0,0.0
981,245,55.1451,58.405,138.068,108.988,115.41,0.000714656,0.0483947,20.9446,67.3494,-0.517547,0.0,0.0
984,245.75,54.9231,58.442,137.582,109.001,115.056,0.000708857,0.0480035,20.9455,67.3894,-0.488711,0.0,0.0
987,246.5,55.4734,58.6335,144.464,109.02,115.378,0.000707995,0.0476743,20.9462,67.3694,-0.512443,0.0,0.0
990,247.25,55.3656,58.2345,141.448,109.023,114.843,0.000698185,0.0473593,20.9466,67.3594,-0.470096,0.0,0.0
993,248,55.2295,58.7,138.285,109.03,114.68,0.000675332,0.0470292,20.947,67.3794,-0.456679,0.0,0.0
996,248.75,55.0328,58.5071,140.799,109.035,114.786,0.000638355,0.0467604,20.9472,67.3694,-0.464681,0.0,0.0
999,249.5,54.8755,58.3383,140.59,109.043,114.57,0.000576658,0.046508,20.9472,67.3694,-0.446961,0.0,0.0
1002,250.25,55.035,58.1716,139.777,109.071,115.389,0.000504311,0.0462479,20.9476,67.3894,-0.509014,0.0,0.0
1005,251,54.8712,58.2497,142.041,109.059,114.892,0.000421252,0.0460583,20.948,67.3794,-0.471017,0.0,0.0
1008,251.75,54.9073,58.0747,141.012,109.071,114.634,0.000352751,0.0458075,20.9484,67.3794,-0.449673,0.0,0.0
1011,252.5,54.7769,57.4757,137.031,109.084,114.648,0.000288633,0.045547,20.9487,67.3894,-0.449687,0.0,0.0
1014,253.25,54.5877,57.6918,141.451,109.094,114.457,0.000249087,0.0453065,20.9488,67.3794,-0.4338,0.0,0.0
1017,254,54.5807,56.9483,140.582,109.095,115.292,0.000232562,0.045111,20.9483,67.3994,-0.499459,0.0,0.0
1020,254.75,54.4758,57.88,141.408,109.111,114.86,0.000237923,0.0449538,20.948,67.3794,-0.464139,0.0,0.0
1023,255.5,54.2067,57.4021,141.702,109.13,115.129,0.000249253,0.0448137,20.9477,67.3494,-0.483744,0.0,0.0
1026,256.25,54.3318,57.7386,142.91,109.142,115.044,0.000255738,0.0446715,20.9475,67.3794,-0.47612,0.0,0.0
1029,257,55.1219,57.7744,143.456,109.14,115.319,0.000243059,0.0445531,20.9476,67.3694,-0.497892,0.0,0.0
1032,257.75,54.1917,57.8874,142.8,109.153,114.911,0.000213314,0.0444414,20.9481,67.3594,-0.464707,0.0,0.0
1035,258.5,54.5222,57.3619,140.653,109.179,114.287,0.000169263,0.0443037,20.9484,67.3794,-0.413325,0.0,0.0
1038,259.25,54.9773,57.2968,140.308,109.208,115.075,0.000103492,0.0441719,20.9487,67.3594,-0.473041,0.0,0.0
1041,260,53.878,56.6909,143.683,109.212,114.985,4.06421e-05,0.0440631,20.9489,67.3694,-0.465638,0.0,0.0
1044,260.75,54.285,57.2117,137.381,109.232,116.003,-1.15285e-05,0.0440039,20.949,67.3594,-0.543735,0.0,0.0
1047,261.5,54.285,57.4925,139.401,109.262,114.919,-6.07376e-05,0.0439889,20.9491,67.3794,-0.456285,0.0,0.0
1050,262.25,54.056,57.3685,141.643,109.28,115.514,-0.000101376,0.0439826,20.9492,67.3594,-0.501554,0.0,0.0
1053,263,54.2993,56.8495,139.326,109.287,114.94,-0.000123916,0.0439653,20.9492,67.3293,-0.455906,0.0,0.0
1056,263.75,53.9008,56.8416,141.837,109.292,114.458,-0.000131198,0.0439245,20.9492,67.3494,-0.417481,0.0,0.0
1059,264.5,54.0528,56.8327,139.16,109.329,115.454,-0.000120858,0.0438828,20.9493,67.3494,-0.492775,0.0,0.0
1062,265.25,54.0678,56.84,141.497,109.339,115.469,-8.8521e-05,0.0438228,20.9493,67.3794,-0.493159,0.0,0.0
1065,266,53.4392,56.8097,143.644,109.347,115.151,-6.86735e-05,0.0437284,20.9493,67.3594,-0.467566,0.0,0.0
1068,266.75,54.0603,57.0693,139.907,109.362,115.593,-6.29832e-05,0.0436194,20.9493,67.3494,-0.500911,0.0,0.0
1071,267.5,53.7985,57.0894,141.991,109.393,116.384,-7.11296e-05,0.0435474,20.9493,67.3594,-0.559985,0.0,0.0
1074,268.25,54.1458,57.1307,138.182,109.412,115.319,-7.70684e-05,0.0435075,20.9493,67.3794,-0.475313,0.0,0.0
1077,269,54.452,56.8516,138.697,109.419,115.532,-0.000109739,0.0435387,20.9493,67.3794,-0.491439,0.0,0.0
1080,269.75,53.9842,56.8221,142.205,109.427,115.272,-0.000139765,0.0435755,20.9493,67.4094,-0.470381,0.0,0.0
1083,270.5,53.6269,56.3986,137.515,109.447,115.877,-0.000162994,0.0436083,20.9493,67.3894,-0.516152,0.0,0.0
1086,271.25,53.7845,56.5428,139.796,109.466,115.181,-0.000177693,0.043572,20.9493,67.3694,-0.46002,0.0,0.0
1089,272,53.7054,56.6703,141.721,109.482,115.159,-0.000188408,0.0435308,20.9493,67.3794,-0.457036,0.0,0.0
1092,272.75,53.6632,56.4662,139.609,109.488,114.956,-0.000132451,0.0434754,20.9492,67.3594,-0.44055,0.0,0.0
1095,273.5,54.3038,56.4016,138.567,109.504,115.849,-5.68654e-05,0.0434751,20.9491,67.3694,-0.509148,0.0,0.0
1098,274.25,54.0395,56.2402,140.985,109.54,115.135,1.30691e-05,0.0434749,20.949,67.3794,-0.450376,0.0,0.0
1101,275,53.4279,56.3073,142.757,109.558,115.544,0.000103076,0.0434466,20.9489,67.3794,-0.480903,0.0,0.0
1104,275.75,53.8955,56.0281,139.094,109.568,115.367,0.000168691,0.0434362,20.9488,67.3694,-0.466241,0.0,0.0
1107,276.5,53.2589,55.9556,138.712,109.561,115.962,0.00021475,0.0434667,20.9488,67.3494,-0.513265,0.0,0.0
1110,277.25,53.9488,56.2066,146.117,109.596,115.615,0.000238376,0.0435029,20.9488,67.3293,-0.483332,0.0,0.0
1113,278,53.7895,55.8565,143.861,109.6,115.387,0.00024743,0.0435353,20.9487,67.3193,-0.465119,0.0,0.0
1116,278.75,53.3265,55.7265,142.959,109.62,114.821,0.000247314,0.0435188,20.9487,67.3293,-0.419036,0.0,0.0
1119,279.5,53.7734,56.2098,140.883,109.65,115.236,0.00023659,0.0435142,20.9487,67.3393,-0.449214,0.0,0.0
1122,280.25,53.5901,56.3475,140.246,109.656,115.418,0.000217584,0.0435235,20.9487,67.3494,-0.463008,0.0,0.0
1125,281,53.717,55.5804,138.916,109.676,116.312,0.000195035,0.0435704,20.9491,67.3794,-0.531076,0.0,0.0
1128,281.75,53.4348,55.6083,141.728,109.674,115.178,0.000171886,0.0436327,20.9497,67.3594,-0.442642,0.0,0.0
1131,282.5,53.593,55.4537,138.416,109.685,115.516,0.000149779,0.0437042,20.9494,67.3494,-0.468201,0.0,0.0
1134,283.25,53.3119,56.0666,143.552,109.708,114.518,0.000124717,0.0437624,20.9492,67.3594,-0.387891,0.0,0.0
1137,284,53.4928,55.5306,140.535,109.741,115.7,0.000113902,0.0437847,20.9491,67.3594,-0.477994,0.0,0.0
1140,284.75,53.6549,55.9847,139.989,109.731,116.056,0.000113119,0.0437565,20.949,67.3494,-0.50668,0.0,0.0
1143,285.5,53.5595,55.6794,138.834,109.754,115.986,0.000119259,0.04366,20.9491,67.3894,-0.499269,0.0,0.0
1146,286.25,52.9778,55.3025,141.912,109.754,115.395,0.000121249,0.0436178,20.9496,67.3494,-0.453045,0.0,0.0
1149,287,53.3268,56.1263,140.073,109.771,116.336,,0.0435768,,67.3694,-0.525114,0.0,0.0
1152,287.75,53.488,55.106,139.693,109.778,115.939,,0.0435089,,67.3393,-0.493597,0.0,0.0
1155,288.5,53.1208,55.2575,140.993,109.772,115.368,,0.0434313,,67.3093,-0.449446,0.0,0.0
1158,289.25,53.0003,55.4535,138.902,109.785,115.914,,0.0433923,,67.3293,-0.491041,0.0,0.0
1161,290,53.2566,55.2681,142.379,109.8,115.182,,,,67.3494,-0.432555,0.0,0.0
1164,290.75,53.9355,55.4932,143.903,109.808,115.494,,,,67.3594,-0.456351,0.0,0.0
1167,291.5,53.3887,55.1647,139.577,109.809,116.004,,,,67.3694,-0.496088,0.0,0.0
1170,292.25,53.3701,55.2058,137.755,109.816,114.878,,,,67.3594,-0.407362,0.0,0.0
1173,293,53.3256,55.033,141.563,109.831,116.913,,,,67.3494,-0.564874,0.0,0.0
1176,293.75,53.0825,55.1464,143.178,109.84,116.315,,,,67.3093,-0.51781,0.0,0.0
1179,294.5,53.1564,55.0835,140.213,109.837,115.011,,,,67.3193,-0.416068,0.0,0.0
1182,295.25,53.2348,55.1452,140.849,109.838,115.379,,,,67.3293,-0.444922,0.0,0.0
1185,296,53.3178,55.3563,137.829,109.852,115.285,,,,67.3794,-0.43642,0.0,0.0
1188,296.75,53.0308,55.043,137.704,109.863,115.883,,,,67.2893,-0.482217,0.0,0.0
1190,297.25,52.7717,54.693,142.08,109.855,115.395,,,,67.3293,-0.444761,0.0,0.0