File: 01_Data/FRP_Panel/Cone/FRP_Panel_Cone_HF25Scan_220919_R3.csv
Names,Time,Stack TC,Smoke TC,Exh Press,Smoke Comp,Smoke Meas,CO Meter,CO2 Meter,O2 Meter,Sample Mass,Ext Coeff,Start Test,Flame Verif
Chan Gain,,500,500,1,1,1,1,1,1,1,1,1.0,1.0
Offset,,0,0,0.143022,0,0,0,0,0,0,0,0.0,0.0
Gain,,1,1,25.011,14.5176,16.5692,1,1,1,1.00088,1.03055,1.0,1.0
Units,sec,C,C,Pa,%,%,%,%,%,g,/m,,
Baseline,,37.7977,38.2921,149.275,109.38,111.076,0.00032127,0.0464794,20.949,-445.628,-0.138992,,
3,0.5,36.8355,37.3957,145.383,109.34,110.965,0.000177252,0.051187,20.9469,86.3761,-0.13335,0.0,0.0
6,1.25,35.7287,36.4998,150.001,109.337,110.812,0.00014291,0.0511971,20.9468,86.3361,-0.121115,0.0,0.0
9,2,35.576,36.5323,146.203,109.337,111.099,0.000115389,0.0511924,20.9471,86.3461,-0.144511,0.0,0.0
12,2.75,35.1728,36.1354,148.218,109.338,111.054,9.42675e-05,0.0510682,20.9476,86.3161,-0.14078,0.0,0.0
15,3.5,35.6889,36.164,147.884,109.335,111.113,9.30453e-05,0.0509072,20.9479,86.3261,-0.145815,0.0,0.0
18,4.25,36.1367,36.3796,149.997,109.339,111.463,0.000103274,0.0507227,20.9482,86.3261,-0.173944,0.0,0.0
21,5,35.3783,36.2846,144.901,109.329,111.094,0.000129746,0.0505247,20.9484,86.3061,-0.144764,0.0,0.0
24,5.75,35.6232,36.0999,152.122,109.342,110.922,0.000180971,0.0503099,20.9485,86.2961,-0.129738,0.0,0.0
27,6.5,35.7526,36.0608,151.33,109.341,110.891,0.000233244,0.0501232,20.9486,86.286,-0.127255,0.0,0.0
30,7.25,36.0907,36.0801,151.843,109.338,110.44,0.000281646,0.0499067,20.9487,86.286,-0.0906679,0.0,0.0
33,8,35.6184,36.1725,148.346,109.336,110.545,0.000311096,0.0496895,20.9491,86.2961,-0.0993829,0.0,0.0
36,8.75,35.9932,36.2588,150.762,109.361,110.709,0.000346896,0.0494297,20.9497,86.3061,-0.110683,0.0,0.0
39,9.5,35.7385,36.4807,146.717,109.352,111.165,0.000372994,0.0491197,20.9501,86.286,-0.148659,0.0,0.0
42,10.25,35.9111,36.1873,152.348,109.351,110.932,0.000379594,0.0488133,20.9504,86.276,-0.129751,0.0,0.0
45,11,35.516,36.4115,150.915,109.348,111.063,0.00038637,0.048627,20.9506,86.276,-0.140674,0.0,0.0
48,11.75,35.7392,36.8835,148.637,109.364,111.309,0.00039729,0.0483737,20.9507,86.266,-0.159417,0.0,0.0
51,12.5,35.7429,36.3501,148.18,109.35,111.373,0.000409731,0.0480686,20.9509,86.256,-0.165721,0.0,0.0
54,13.25,35.7886,36.2562,149.073,109.361,110.751,0.000420046,0.0478461,20.9509,86.256,-0.114182,0.0,0.0
57,14,35.5001,36.1073,147.444,109.36,111.253,0.000428096,0.047704,20.951,86.256,-0.15511,0.0,0.0
60,14.75,35.5832,36.6427,148.783,109.356,110.996,0.000429379,0.04753,20.9511,86.276,-0.134544,0.0,0.0
63,15.5,35.4832,36.1997,149.53,109.364,110.775,0.000422449,0.047336,20.9511,86.2961,-0.11587,0.0,0.0
66,16.25,35.4635,36.256,148.077,109.351,110.956,0.000417355,0.0471312,20.951,86.2961,-0.13177,0.0,0.0
69,17,35.2685,36.2858,148.473,109.352,110.48,0.000413642,0.0469894,20.9508,86.266,-0.0927646,0.0,0.0
72,17.75,35.8759,36.1385,148.473,109.355,110.84,0.000434015,0.0468986,20.9507,86.276,-0.121924,0.0,0.0
75,18.5,35.8157,36.2271,147.683,109.361,110.633,0.000473775,0.0468455,20.9506,86.3061,-0.104524,0.0,0.0
78,19.25,35.4643,36.5072,146.166,109.362,110.967,0.000521905,0.0468123,20.9506,86.286,-0.131642,0.0,0.0
81,20,35.4387,36.4877,145.945,109.353,110.498,0.000586901,0.0468083,20.9505,86.276,-0.0941861,0.0,0.0
84,20.75,35.6535,36.1484,149.884,109.362,110.635,0.000613112,0.0467682,20.9505,86.266,-0.104615,0.0,0.0
87,21.5,36.0317,36.4901,151.905,109.35,110.814,0.000646676,0.0466756,20.9505,86.256,-0.12026,0.0,0.0
90,22.25,35.4063,35.8922,149.111,109.344,111.057,0.000676753,0.046568,20.9505,86.256,-0.140473,0.0,0.0
93,23,35.7292,36.3151,147.313,109.36,111.209,0.000702237,0.0465086,20.9504,86.276,-0.151571,0.0,0.0
96,23.75,35.7729,36.5515,148.161,109.332,111.333,0.000720814,0.0465004,20.9504,86.286,-0.163948,0.0,0.0
99,24.5,36.0302,36.352,150.311,109.348,110.965,0.000718354,0.0465005,20.9504,86.256,-0.132686,0.0,0.0
102,25.25,35.8555,36.5583,148.04,109.342,110.896,0.000713936,0.0465288,20.9504,86.266,-0.127636,0.0,0.0
105,26,35.7622,36.3466,147.947,109.341,110.664,0.000706229,0.0465613,20.9504,86.276,-0.108692,0.0,0.0
108,26.75,35.9226,35.83,148.231,109.352,111.495,0.000695279,0.0466133,20.9504,86.276,-0.175506,0.0,0.0
111,27.5,35.5193,36.38,146.764,109.341,111.148,0.000665972,0.0466112,20.9504,86.246,-0.148213,0.0,0.0
114,28.25,35.6558,35.9215,145.974,109.332,111.185,0.000630189,0.046521,20.9504,86.236,-0.15191,0.0,0.0
117,29,35.5751,36.0928,153.024,109.347,110.647,0.000579449,0.0464835,20.9504,86.236,-0.106811,0.0,0.0
120,29.75,35.6923,36.2447,148.238,109.339,110.856,0.000503416,0.0464607,20.9504,86.246,-0.124599,0.0,0.0
123,30.5,35.4943,36.0803,148.986,109.352,111.495,0.000447988,0.0464314,20.9504,86.276,-0.175465,0.0,0.0
126,31.25,35.3596,35.4704,146.98,109.345,110.753,0.000375658,0.0464903,20.9504,86.276,-0.115707,0.0,0.0
129,32,35.64,36.2487,151.71,109.337,111.344,0.000318351,0.0465474,20.9504,86.266,-0.164443,0.0,0.0
132,32.75,35.8667,36.1915,148.292,109.341,111.169,0.000268745,0.046595,20.9504,86.266,-0.149904,0.0,0.0
135,33.5,35.6583,36.487,149.117,109.346,111.18,0.000244633,0.0465695,20.9504,86.276,-0.150368,0.0,0.0
138,34.25,35.4731,36.056,154.57,109.347,110.908,0.000223973,0.0465583,20.9504,86.246,-0.128108,0.0,0.0
141,35,35.5965,36.4875,152.087,109.344,111.563,0.000221217,0.0465628,20.9504,86.226,-0.181657,0.0,0.0
144,35.75,35.1316,36.1989,152.75,109.341,110.432,0.000258234,0.0465097,20.9504,86.236,-0.0897536,0.0,0.0
147,36.5,35.3187,35.9093,146.313,109.35,110.306,0.000308807,0.0464322,20.9504,86.216,-0.078667,0.0,0.0
150,37.25,35.5869,36.1925,149.302,109.346,110.889,0.00038601,0.0463748,20.9504,86.226,-0.126729,0.0,0.0
153,38,35.4526,36.3314,147.45,109.348,111.549,0.000442291,0.0463226,20.9504,86.246,-0.18014,0.0,0.0
156,38.75,35.3475,36.0003,151.33,109.341,110.745,0.000499518,0.0462906,20.9504,86.1759,-0.115334,0.0,0.0
159,39.5,35.1259,36.4893,141.337,109.346,110.736,0.000539616,0.0463274,20.9504,86.196,-0.114188,0.0,0.0
162,40.25,35.5173,36.0653,146.779,109.354,110.088,0.00055427,0.0463543,20.9504,86.206,-0.0605372,0.0,0.0
165,41,35.6203,36.2061,148.038,109.351,110.781,0.00052943,0.0464021,20.9503,86.196,-0.117426,0.0,0.0
168,41.75,35.5549,36.0968,150.144,109.34,111.215,0.000488922,0.0464489,20.9503,86.206,-0.153717,0.0,0.0
171,42.5,35.3662,36.0539,151.046,109.342,110.611,0.000449841,0.0464408,20.9503,86.246,-0.104285,0.0,0.0
174,43.25,36.0221,36.2756,148.837,109.356,110.487,0.000408932,0.0463746,20.9503,86.186,-0.093014,0.0,0.0
177,44,35.4143,36.2265,145.345,109.355,111.21,0.000385328,0.0463084,20.9503,86.1559,-0.152098,0.0,0.0
180,44.75,35.9178,35.9163,147.254,109.34,110.738,0.000370773,0.04624,20.9503,86.1659,-0.114872,0.0,0.0
183,45.5,35.2654,36.2295,147.581,109.36,110.951,0.000370809,0.0462043,20.9503,86.196,-0.130626,0.0,0.0
186,46.25,35.5971,35.7322,145.722,109.361,110.746,0.000368216,0.0461842,20.9503,86.196,-0.113696,0.0,0.0
189,47,35.8812,36.4958,151.706,109.362,110.316,0.000361846,0.0461696,20.9503,86.236,-0.0785115,0.0,0.0
192,47.75,35.25,36.1927,150.329,109.341,111.647,0.000357249,0.0461589,20.9504,86.226,-0.188676,0.0,0.0
195,48.5,36.0139,36.4889,152.855,109.34,110.815,0.000358502,0.0461511,20.9506,86.216,-0.121148,0.0,0.0
198,49.25,35.5972,36.2696,148.356,109.354,110.839,0.000367254,0.0461053,20.9508,86.236,-0.121988,0.0,0.0
201,50,35.2407,36.2593,148.157,109.348,110.657,0.000378959,0.0460872,20.9513,86.206,-0.107606,0.0,0.0
204,50.75,35.8061,36.5088,153.653,109.347,110.743,0.000388736,0.0461004,20.9519,86.226,-0.11462,0.0,0.0
207,51.5,35.6083,36.1898,146.59,109.345,110.851,0.000396395,0.0461702,20.9523,86.226,-0.12371,0.0,0.0
210,52.25,35.5225,36.4347,150.434,109.353,110.96,0.000394511,0.0462211,20.9526,86.206,-0.131876,0.0,0.0
213,53,35.2456,36.1914,147.158,109.351,110.655,0.000382098,0.0462434,20.9529,86.226,-0.107147,0.0,0.0
216,53.75,35.6189,36.2792,148.7,109.344,110.417,0.000359613,0.0462343,20.953,86.226,-0.088255,0.0,0.0
219,54.5,35.9037,35.8779,151.271,109.342,110.693,0.000334515,0.0462136,20.9532,86.206,-0.110973,0.0,0.0
222,55.25,35.8312,36.4611,147.575,109.35,111.213,0.000311264,0.0461925,20.9533,86.196,-0.152784,0.0,0.0
225,56,35.8469,36.3144,147.558,109.351,111.223,0.000291821,0.046163,20.9533,86.196,-0.153455,0.0,0.0
228,56.75,35.5037,36.3673,149.969,109.35,111.334,0.00027429,0.0461578,20.9534,86.1759,-0.162528,0.0,0.0
231,57.5,35.667,36.4153,149.797,109.34,110.5,0.000257779,0.0461919,20.9534,86.1559,-0.0954134,0.0,0.0
234,58.25,35.73,36.7453,149.324,109.359,110.877,0.000244153,0.0461968,20.9534,86.1559,-0.1246,0.0,0.0
237,59,35.6971,36.1995,151.523,109.365,109.96,0.00023795,0.0462285,20.9532,86.1559,-0.0490329,0.0,0.0
240,59.75,35.8376,36.34,147.729,109.351,110.571,0.000235018,0.0462636,20.9527,86.1559,-0.100245,0.0,0.0
243,60.5,35.6418,35.8057,147.245,109.347,110.366,0.0002382,0.0463695,20.9523,86.1459,-0.0838538,0.0,0.0
246,61.25,35.7895,36.0992,151.839,109.365,110.618,0.000240521,0.0463904,20.952,86.1259,-0.103032,0.0,0.0
249,62,35.7027,36.1292,149.637,109.363,110.378,0.00024576,0.0463816,20.9513,86.1559,-0.0834513,0.0,0.0
252,62.75,36.0474,36.5618,149.878,109.363,110.952,0.000243362,0.0463612,20.9506,86.1459,-0.130451,0.0,0.0
255,63.5,35.6648,36.2993,151.008,109.371,111.491,0.000238963,0.0463402,20.95,86.1559,-0.173563,0.0,0.0
258,64.25,36.0171,36.5361,150.312,109.373,110.305,0.000219798,0.0463672,20.9497,86.0959,-0.0766806,0.0,0.0
261,65,35.9427,36.3753,149.724,109.379,110.751,0.000194642,0.0464049,20.9494,86.0458,-0.112722,0.0,0.0
264,65.75,35.8435,36.1137,150.203,109.381,110.929,0.000171535,0.0463922,20.9492,86.0659,-0.12705,0.0,0.0
267,66.5,35.4881,36.3261,147.093,109.37,110.974,0.00014475,0.0463829,20.949,86.0859,-0.131596,0.0,0.0
270,67.25,35.3586,36.4227,151.537,109.384,110.761,0.00012048,0.0463762,20.9489,86.0358,-0.113103,0.0,0.0
273,68,35.5124,36.2319,147.283,109.392,110.864,0.000119612,0.0463311,20.9488,86.0358,-0.120823,0.0,0.0
276,68.75,36.1977,36.0308,150.073,109.387,110.795,0.000140984,0.0463056,20.9488,86.0959,-0.115653,0.0,0.0
279,69.5,35.7942,36.7578,150.699,109.37,110.382,0.000179196,0.0462998,20.9487,86.0859,-0.0832333,0.0,0.0
282,70.25,35.9762,36.1234,148.652,109.384,110.292,0.000245163,0.0462943,20.9487,86.1059,-0.0747653,0.0,0.0
285,71,35.6296,36.2291,145.471,109.388,110.623,0.000320139,0.0462997,20.9487,86.1359,-0.1015,0.0,0.0
288,71.75,35.384,36.3631,151.668,109.386,111.192,0.000415664,0.0463155,20.9487,86.1059,-0.148014,0.0,0.0
291,72.5,35.5165,36.0189,151.72,109.384,110.786,0.000485301,0.0464275,20.9487,86.1059,-0.115166,0.0,0.0
294,73.25,35.5202,36.2337,148.04,109.37,110.536,0.000582302,0.0465936,20.9482,86.0959,-0.0958954,0.0,0.0
297,74,35.5231,36.5764,147.812,109.393,110.966,0.00067173,0.046773,20.9477,86.0659,-0.129037,0.0,0.0
300,74.75,35.9132,36.4914,147.809,109.395,110.799,0.000744901,0.0469418,20.9473,86.0558,-0.115283,0.0,0.0
303,75.5,35.7125,36.1118,148.246,109.401,110.364,0.000789343,0.0470447,20.947,86.0759,-0.0791839,0.0,0.0
306,76.25,35.906,36.1626,150.595,109.375,109.467,0.000795054,0.0471124,20.9468,86.0358,-0.00756821,0.0,0.0
309,77,35.5497,36.4133,149.505,109.389,110.499,0.000783008,0.047149,20.9467,86.0358,-0.0913385,0.0,0.0
312,77.75,35.9249,36.365,149.808,109.396,110.232,0.000767317,0.047218,20.9466,86.0258,-0.0688116,0.0,0.0
315,78.5,35.6139,36.4183,149.207,109.395,110.01,0.000764701,0.0474049,20.9465,86.0058,-0.0507358,0.0,0.0
318,79.25,36.2299,37.087,145.819,109.385,109.848,0.000762793,0.0477441,20.9465,86.0258,-0.0381887,0.0,0.0
321,80,35.7634,36.0548,150.99,109.383,110.56,0.000823678,0.0493395,20.944,86.0158,-0.0967362,0.0,0.0
324,80.75,36.3522,36.548,147.145,109.396,111.293,0.000914276,0.0525823,20.9394,85.9758,-0.155468,0.0,1.0
327,81.5,35.8815,36.7101,146.511,109.386,111.698,0.00102899,0.055833,20.9328,85.9558,-0.189075,0.0,1.0
330,82.25,36.1847,36.3956,143.309,109.393,110.88,0.00116214,0.0630045,20.9199,85.9558,-0.122032,0.0,1.0
333,83,36.3958,36.3913,143.624,109.381,110.585,0.00134316,0.0702796,20.9104,85.9357,-0.0990272,0.0,1.0
336,83.75,35.9867,36.847,146.205,109.405,108.737,0.00151092,0.0841687,20.8929,85.9157,0.0553781,0.0,1.0
339,84.5,36.6939,37.0185,143.793,109.392,106.229,0.00176039,0.100144,20.8756,85.8657,0.265191,0.0,1.0
342,85.25,36.248,36.3693,142.265,109.382,103.466,0.00215972,0.118288,20.851,85.7456,0.502695,0.0,1.0
345,86,35.3832,35.3271,138.791,109.392,101.446,0.0027977,0.138364,20.8212,85.6955,0.681705,0.0,1.0
348,86.75,35.8282,35.8389,137.477,109.39,98.9468,0.00326279,0.159634,20.7943,85.6555,0.907066,0.0,1.0
351,87.5,36.0235,36.1584,134.879,109.39,97.4298,0.00425272,0.186487,20.7539,85.6054,1.04669,0.0,1.0
354,88.25,36.726,36.4108,137.226,109.396,93.4089,0.00538411,0.216996,20.7245,85.5454,1.4282,0.0,1.0
357,89,37.3614,36.8176,128.607,109.387,90.6116,0.00638357,0.243898,20.6752,85.4954,1.70232,0.0,1.0
360,89.75,38.051,37.3804,133.259,109.393,89.6398,0.00797297,0.278171,20.6256,85.4353,1.80031,0.0,0.0
363,90.5,38.8523,37.6359,133.347,109.4,88.2396,0.00970279,0.309636,20.5734,85.3552,1.94318,0.0,0.0
366,91.25,38.9613,38.0552,130.971,109.4,86.6883,0.0115614,0.343654,20.5178,85.2752,2.10348,0.0,0.0
369,92,39.5746,38.4165,137.052,109.385,85.0838,0.0135219,0.379365,20.4533,85.1751,2.27115,0.0,0.0
372,92.75,40.8078,38.4567,127.36,109.402,83.4759,0.0160487,0.415989,20.3894,85.065,2.44502,0.0,0.0
375,93.5,41.9462,38.8857,125.4,109.403,76.1025,0.0178907,0.452844,20.3357,84.9649,3.28108,0.0,0.0
378,94.25,42.6825,40.4247,125.266,109.391,74.1876,0.0208859,0.496392,20.2694,84.8047,3.51047,0.0,0.0
381,95,43.5491,40.9778,123.384,109.397,73.3441,0.0241936,0.540676,20.2118,84.6646,3.61434,0.0,0.0
384,95.75,44.3687,41.7498,121.329,109.391,74.3054,0.0270842,0.578304,20.1538,84.4745,3.49616,0.0,0.0
387,96.5,45.7846,42.4908,126.712,109.405,79.0009,0.0305975,0.628475,20.093,84.3143,2.9434,0.0,0.0
390,97.25,46.9854,43.429,128.242,109.414,71.9607,0.0346283,0.674288,20.012,84.1642,3.78788,0.0,0.0
393,98,48.2195,44.0556,115.223,109.4,65.8787,0.03816,0.723484,19.9407,84.004,4.58504,0.0,0.0
396,98.75,49.0723,45.1175,121.99,109.405,63.4061,0.041749,0.774128,19.8603,83.8039,4.93127,0.0,0.0
399,99.5,50.3973,46.2119,120.17,109.4,58.1296,0.0454838,0.82334,19.7943,83.6537,5.71626,0.0,0.0
402,100.25,51.6212,47.6907,125.149,109.404,57.4424,0.0486832,0.869463,19.7334,83.4436,5.82409,0.0,0.0
405,101,52.8983,48.6775,119.131,109.401,54.0344,0.052336,0.919137,19.6804,83.2734,6.37675,0.0,0.0
408,101.75,54.2665,49.9628,117.921,109.404,54.7342,0.0559732,0.966775,19.6273,83.0732,6.26071,0.0,0.0
411,102.5,55.7212,51.2601,112.519,109.411,53.644,0.0593282,1.00637,19.5645,82.853,6.44313,0.0,0.0
414,103.25,57.3323,52.4752,107.469,109.406,57.7317,0.0625931,1.05148,19.4998,82.6729,5.77884,0.0,0.0
417,104,58.5767,53.2497,119.767,109.398,57.1876,0.0651831,1.09129,19.4331,82.4527,5.86378,0.0,0.0
420,104.75,60.1521,54.4652,105.706,109.414,51.7432,0.0671108,1.13948,19.3649,82.2425,6.76947,0.0,0.0
423,105.5,61.5624,56.4398,107.505,109.408,51.7615,0.0684306,1.18076,19.2993,82.0023,6.76585,0.0,0.0
426,106.25,63.2919,57.425,108.523,109.404,57.2538,0.0690335,1.22139,19.2447,81.742,5.85379,0.0,0.0
429,107,64.9389,58.8816,111.257,109.401,58.7511,0.0693198,1.26606,19.1995,81.5619,5.62024,0.0,0.0
432,107.75,66.7424,60.5545,108.498,109.402,58.6378,0.0695285,1.30456,19.1574,81.3117,5.63776,0.0,0.0
435,108.5,67.9704,62.0408,102.24,109.405,55.9326,0.0686385,1.33516,19.1232,81.1315,6.06499,0.0,0.0
438,109.25,69.131,63.7494,99.3276,109.4,55.9321,0.0676679,1.36368,19.0967,80.8412,6.0646,0.0,0.0
441,110,71.1496,65.2255,105.653,109.403,54.6765,0.0668232,1.38446,19.0717,80.6911,6.27009,0.0,0.0
444,110.75,72.2061,66.4395,111.084,109.408,53.3684,0.0657231,1.40133,19.0535,80.4509,6.48947,0.0,0.0
447,111.5,73.9318,68.2387,110.449,109.407,52.5862,0.0646946,1.41435,19.039,80.2707,6.62285,0.0,0.0
450,112.25,75.213,69.9252,108.105,109.407,46.6847,0.0638483,1.42544,19.0263,80.0606,7.69889,0.0,0.0
453,113,76.6264,70.9695,105.842,109.409,51.0899,0.0628844,1.43427,19.017,79.8604,6.88397,0.0,0.0
456,113.75,77.6674,72.4382,102.183,109.404,56.3335,0.0619543,1.44201,19.0103,79.6702,6.00031,0.0,0.0
459,114.5,79.018,73.8343,96.7378,109.396,55.2065,0.0611793,1.44868,19.0053,79.42,6.18231,0.0,0.0
462,115.25,80.717,75.3345,110.072,109.388,55.0285,0.0603415,1.4534,19.0022,79.2699,6.21085,0.0,0.0
465,116,82.0038,76.4547,102.241,109.394,54.8217,0.0596144,1.45647,19.0001,79.0897,6.24543,0.0,0.0
468,116.75,83.332,77.9066,106.515,109.396,52.6099,0.0588906,1.45819,18.9994,78.8895,6.61788,0.0,0.0
471,117.5,84.0741,79.4762,107.353,109.417,57.2963,0.0582864,1.45887,19.0002,78.6693,5.84818,0.0,0.0
474,118.25,85.5167,80.4577,111.59,109.395,55.1822,0.0577687,1.45912,19.0016,78.5092,6.18625,0.0,0.0
477,119,86.9554,82.0516,101.434,109.4,54.4657,0.057338,1.45801,19.0035,78.279,6.30477,0.0,0.0
480,119.75,88.2214,83.3755,103.381,109.388,53.6753,0.0569653,1.45601,19.0117,78.0788,6.43595,0.0,0.0
483,120.5,89.1728,84.3464,105.914,109.391,51.9723,0.0565841,1.45249,19.0187,77.8786,6.72768,0.0,0.0
486,121.25,89.9238,85.5773,103.424,109.395,51.1031,0.0562595,1.4477,19.0254,77.6684,6.88047,0.0,0.0
489,122,91.1664,87.0151,108.131,109.391,54.9602,0.0558853,1.44304,19.0308,77.4583,6.22233,0.0,0.0
492,122.75,92.2021,87.8352,105.293,109.38,56.2547,0.0555066,1.43811,19.0357,77.3081,6.01096,0.0,0.0
495,123.5,93.1222,89.3959,110.239,109.392,52.7505,0.0551494,1.43271,19.0443,77.108,6.59336,0.0,0.0
498,124.25,93.8897,90.1868,103.088,109.39,51.3847,0.0547654,1.42609,19.0541,76.8678,6.83035,0.0,0.0
501,125,95.4445,91.6443,110.811,109.391,51.0814,0.0543925,1.41668,19.0718,76.7577,6.88399,0.0,0.0
504,125.75,96.068,92.69,111.002,109.392,50.2035,0.0540084,1.40382,19.0927,76.5575,7.0408,0.0,0.0
507,126.5,96.8487,93.1711,101.708,109.379,52.93,0.0536041,1.39021,19.1124,76.4174,6.56162,0.0,0.0
510,127.25,97.674,94.257,106.528,109.386,54.1299,0.0530607,1.3774,19.1279,76.2072,6.35957,0.0,0.0
513,128,98.3374,95.0947,105.241,109.383,53.6192,0.0525586,1.36523,19.1412,76.047,6.445,0.0,0.0
516,128.75,98.5427,95.9482,111.649,109.371,52.6994,0.0518291,1.35478,19.1523,75.7968,6.60039,0.0,0.0
519,129.5,99.4915,96.9919,108.241,109.372,58.2009,0.0510091,1.34512,19.1627,75.6367,5.70287,0.0,0.0
522,130.25,99.975,97.8304,107.898,109.372,57.3944,0.0501836,1.33575,19.172,75.4165,5.82902,0.0,0.0
525,131,100.939,98.7408,107.605,109.363,54.857,0.0495818,1.3248,19.1815,75.2563,6.237,0.0,0.0
528,131.75,101.25,99.4436,110.803,109.369,53.5095,0.0485708,1.31508,19.195,75.1062,6.46232,0.0,0.0
531,132.5,102.149,100.422,103.313,109.351,51.8176,0.0476282,1.30227,19.2124,74.9361,6.75133,0.0,0.0
534,133.25,102.24,101.311,111.119,109.351,57.1775,0.0467521,1.2905,19.2332,74.7459,5.86149,0.0,0.0
537,134,102.405,101.543,112.249,109.344,57.3256,0.0459402,1.27358,19.2622,74.6158,5.83751,0.0,0.0
540,134.75,103.253,102.317,109.769,109.34,58.3779,0.0450835,1.2577,19.2962,74.4356,5.67279,0.0,0.0
543,135.5,103.587,102.733,113.144,109.345,55.9907,0.0444589,1.23528,19.3265,74.2855,6.05059,0.0,0.0
546,136.25,103.574,103.643,112.56,109.319,56.5712,0.0435475,1.21247,19.3578,74.1554,5.95526,0.0,0.0
549,137,103.9,104.047,112.901,109.328,57.3145,0.0427213,1.18972,19.3846,73.9652,5.83799,0.0,0.0
552,137.75,104.341,104.643,113.491,109.315,63.0557,0.0418426,1.16739,19.4174,73.775,4.97386,0.0,0.0
555,138.5,104.023,104.84,114.36,109.31,61.2095,0.0407963,1.14356,19.4498,73.735,5.24208,0.0,0.0
558,139.25,104.551,105.306,118.215,109.294,60.7039,0.0396325,1.11905,19.4884,73.5749,5.31579,0.0,0.0
561,140,103.991,105.712,121.453,109.293,61.2824,0.0385294,1.09449,19.5269,73.4347,5.22998,0.0,0.0
564,140.75,103.464,105.854,117.154,109.278,61.5114,0.0374887,1.06935,19.5641,73.2746,5.195,0.0,0.0
567,141.5,104.24,106.422,118.526,109.273,56.9742,0.0365112,1.04434,19.6038,73.1645,5.88728,0.0,0.0
570,142.25,103.962,106.184,118.13,109.249,59.5156,0.0357987,1.01994,19.6328,73.0144,5.4908,0.0,0.0
573,143,103.583,106.551,118.21,109.256,67.4877,0.0346998,0.993195,19.6627,72.9243,4.355,0.0,0.0
576,143.75,103.828,106.722,121.012,109.244,64.4897,0.0336233,0.967459,19.6932,72.7541,4.76475,0.0,0.0
579,144.5,103.813,106.871,122.027,109.223,67.9377,0.0325705,0.946036,19.7236,72.6741,4.29214,0.0,0.0
582,145.25,102.898,106.464,122.296,109.197,65.9606,0.0315452,0.919058,19.759,72.5539,4.55699,0.0,0.0
585,146,103.247,106.812,126.358,109.213,69.5315,0.0304039,0.894715,19.7977,72.3938,4.08167,0.0,0.0
588,146.75,102.147,106.623,119.731,109.179,73.7113,0.0292905,0.868974,19.8313,72.2837,3.55121,0.0,0.0
591,147.5,102,106.478,124.839,109.159,69.6392,0.0283589,0.841314,19.8704,72.1736,4.06327,0.0,0.0
594,148.25,101.889,106.056,120.202,109.154,75.2429,0.0272095,0.817511,19.9086,72.1036,3.36321,0.0,0.0
597,149,101.647,106.13,124.359,109.133,69.9512,0.0263715,0.793936,19.9406,72.0035,4.0207,0.0,0.0
600,149.75,101.024,106.526,124.835,109.119,73.469,0.025352,0.765994,19.9741,71.9034,3.57594,0.0,0.0
603,150.5,100.126,105.624,135.779,109.109,75.4355,0.0241693,0.737972,20.0029,71.8633,3.33635,0.0,0.0
606,151.25,100.388,105.789,127.783,109.078,76.8898,0.0230553,0.714282,20.0384,71.7833,3.16117,0.0,0.0
609,152,99.2293,105.467,129.338,109.06,78.6226,0.0220059,0.685823,20.074,71.7032,2.95823,0.0,0.0
612,152.75,99.032,104.954,132.242,109.042,75.6393,0.0209614,0.665077,20.1041,71.6031,3.30638,0.0,0.0
615,153.5,98.5087,104.916,131.777,109.018,79.727,0.0200807,0.638744,20.1393,71.523,2.82864,0.0,0.0
618,154.25,97.6606,104.311,133.571,108.994,80.6827,0.0192593,0.61344,20.1706,71.463,2.71894,0.0,0.0
621,155,96.6062,103.816,125.013,108.972,81.7501,0.0183538,0.589233,20.205,71.3829,2.59826,0.0,0.0
624,155.75,96.5171,103.646,132.758,108.952,85.3893,0.0173768,0.566186,20.2385,71.3028,2.20288,0.0,0.0
627,156.5,95.6712,103.32,132.358,108.941,87.8027,0.0163072,0.549385,20.274,71.2828,1.95004,0.0,0.0
630,157.25,94.7651,103.015,138.371,108.928,84.072,0.0156961,0.523984,20.2971,71.2328,2.34147,0.0,0.0
633,158,94.3867,101.925,134.333,108.905,88.6603,0.0148525,0.500109,20.3237,71.1827,1.85916,0.0,0.0
636,158.75,93.6903,101.705,134.831,108.881,86.7019,0.0140022,0.48042,20.3583,71.1227,2.05909,0.0,0.0
639,159.5,92.5245,101.201,139.98,108.853,90.4134,0.0130718,0.452589,20.391,71.0526,1.67789,0.0,0.0
642,160.25,91.66,100.839,135.368,108.852,90.1257,0.0121989,0.441071,20.4227,71.0126,1.70663,0.0,0.0
645,161,91.2094,99.9653,137.648,108.801,91.4085,0.0113908,0.419814,20.4538,70.9826,1.57459,0.0,0.0
648,161.75,90.363,99.1707,137.867,108.793,93.8705,0.0106496,0.401877,20.4853,70.9525,1.33367,0.0,0.0
651,162.5,89.8751,98.8686,139.538,108.796,94.3003,0.00990807,0.384627,20.5132,70.9425,1.29263,0.0,0.0
654,163.25,88.8274,98.2222,141.508,108.809,96.1778,0.00936748,0.367039,20.5355,70.8725,1.11548,0.0,0.0
657,164,88.1386,97.7015,141.678,108.793,99.6405,0.00877877,0.351183,20.5558,70.8124,0.794416,0.0,0.0
660,164.75,87.3353,96.6541,141.278,108.819,100.196,0.00815622,0.336623,20.5749,70.8024,0.746319,0.0,0.0
663,165.5,85.8125,96.3939,137.604,108.829,100.73,0.00765532,0.32309,20.5932,70.7824,0.699036,0.0,0.0
666,166.25,85.8961,95.8921,144.212,108.829,100.151,0.00718602,0.308287,20.6128,70.7524,0.751145,0.0,0.0
669,167,84.7235,94.6811,143.724,108.819,102.576,0.00679148,0.297496,20.6301,70.7323,0.534085,0.0,0.0
672,167.75,84.1473,93.7075,141.763,108.836,104.32,0.00645866,0.283678,20.648,70.7023,0.383086,0.0,0.0
675,168.5,83.3697,93.6223,141.351,108.847,104.502,0.00617695,0.270881,20.6654,70.6923,0.368282,0.0,0.0
678,169.25,82.6722,93.2814,145.83,108.854,104.77,0.00592565,0.258929,20.6818,70.6823,0.345637,0.0,0.0
681,170,82.0432,92.3243,141.689,108.853,105.818,0.00572289,0.247718,20.697,70.6423,0.255693,0.0,0.0
684,170.75,80.9511,91.7317,143.699,108.871,107.427,0.00554321,0.235576,20.7099,70.6523,0.120709,0.0,0.0
687,171.5,79.963,90.9365,143.512,108.877,108.026,0.00539529,0.226725,20.7225,70.6122,0.0709786,0.0,0.0
690,172.25,79.4767,90.5933,144.354,108.895,109.067,0.00528172,0.215243,20.738,70.6122,-0.0142582,0.0,0.0
693,173,78.3781,89.9025,142.199,108.899,109.904,0.00520785,0.20404,20.7514,70.5822,-0.0830299,0.0,0.0
696,173.75,78.0767,89.1775,149.531,108.902,109.834,0.00517386,0.194666,20.7648,70.5422,-0.077067,0.0,0.0
699,174.5,76.9054,88.6449,148.111,108.921,110.084,0.00517656,0.184184,20.7789,70.5722,-0.0960587,0.0,0.0
702,175.25,76.4609,87.4637,142.705,108.922,111.181,0.00524584,0.175618,20.7913,70.5722,-0.185644,0.0,0.0
705,176,75.7142,86.9345,143.214,108.934,111.552,0.00535511,0.16779,20.8012,70.5422,-0.21466,0.0,0.0
708,176.75,74.9297,86.3203,144.904,108.955,111.531,0.00545983,0.159756,20.8096,70.5322,-0.211293,0.0,0.0
711,177.5,74.0864,86.0536,144.952,108.956,111.311,0.00553616,0.152127,20.8177,70.5121,-0.193337,0.0,0.0
714,178.25,73.5212,85.0395,146.303,108.98,111.716,0.00568909,0.14581,20.8243,70.4821,-0.224108,0.0,0.0
717,179,72.786,84.5586,146.078,108.981,112.038,0.00585285,0.13948,20.8303,70.5121,-0.250097,0.0,0.0
720,179.75,71.6136,83.4388,145.069,108.996,110.98,0.00599069,0.134865,20.8372,70.4721,-0.163013,0.0,0.0
723,180.5,71.4311,83.1434,144.215,109.013,111.432,0.00610398,0.130004,20.8435,70.4821,-0.198442,0.0,0.0
726,181.25,70.4324,82.2623,148.044,109.026,111.246,0.00619169,0.125823,20.8494,70.4821,-0.182228,0.0,0.0
729,182,70.1596,82.0239,145.006,109.041,111.665,0.00626188,0.12166,20.8549,70.4821,-0.215018,0.0,0.0
732,182.75,69.391,81.4166,146.495,109.038,111.71,0.00631997,0.118389,20.8595,70.4821,-0.218878,0.0,0.0
735,183.5,68.4297,80.5108,147.332,109.066,111.316,0.00638612,0.115601,20.8629,70.4821,-0.184595,0.0,0.0
738,184.25,66.7596,78.0091,145.357,109.078,111.335,0.00643434,0.113321,20.8654,70.4721,-0.185122,0.0,0.0
741,185,66.1813,77.7665,150.398,109.097,111.984,0.00654094,0.111639,20.8672,70.4521,-0.236185,0.0,0.0
744,185.75,64.9612,77.1575,147.357,109.095,111.864,0.0066417,0.110427,20.8685,70.4521,-0.226571,0.0,0.0
747,186.5,64.7254,77.0703,149.159,109.128,111.325,0.00675457,0.109549,20.8697,70.4521,-0.180195,0.0,0.0
750,187.25,64.3314,75.994,149.266,109.134,111.739,0.00687724,0.108848,20.8705,70.4221,-0.213206,0.0,0.0
753,188,63.4574,75.4333,145.113,109.155,112.291,0.00697569,0.108336,20.8711,70.402,-0.256047,0.0,0.0
756,188.75,62.8069,75.237,146.013,109.157,112.285,0.00704926,0.107677,20.8716,70.4121,-0.255411,0.0,0.0
759,189.5,62.5368,74.2484,148.888,109.178,112.169,0.00709942,0.107067,20.8726,70.4121,-0.244316,0.0,0.0
762,190.25,61.7424,73.9569,143.99,109.2,111.868,0.00711281,0.106528,20.8733,70.382,-0.218165,0.0,0.0
765,191,61.3622,73.3513,148.549,109.209,112.087,0.0071127,0.106071,20.8738,70.392,-0.235148,0.0,0.0
768,191.75,61.3218,72.5345,145.745,109.222,111.665,0.00706674,0.105593,20.8742,70.372,-0.199968,0.0,0.0
771,192.5,60.3486,72.2835,148.351,109.223,111.473,0.0070285,0.105215,20.8744,70.342,-0.184289,0.0,0.0
774,193.25,60.235,71.816,149.991,109.248,111.688,0.00699252,0.104887,20.8746,70.352,-0.199646,0.0,0.0
777,194,59.5877,71.1181,145.483,109.261,112.037,0.00698463,0.104662,20.8752,70.352,-0.226779,0.0,0.0
780,194.75,59.3211,70.846,146.562,109.255,111.13,0.0069931,0.104505,20.8758,70.362,-0.153804,0.0,0.0
783,195.5,58.6364,70.1566,146.722,109.261,111.81,0.00702359,0.104225,20.8763,70.342,-0.208482,0.0,0.0
786,196.25,58.6936,69.724,147.85,109.291,111.611,0.00706969,0.103964,20.8766,70.342,-0.189868,0.0,0.0
789,197,57.6457,69.4994,149.096,109.298,112.326,0.00710587,0.103734,20.8769,70.322,-0.247045,0.0,0.0
792,197.75,58.1349,68.6672,147.609,109.287,111.829,0.00713334,0.10354,20.877,70.342,-0.207832,0.0,0.0
795,198.5,57.2843,68.8573,143.888,109.286,110.946,0.00712634,0.103341,20.8772,70.342,-0.136295,0.0,0.0
798,199.25,57.3709,67.9685,146.959,109.319,111.795,0.00708669,0.103171,20.8773,70.342,-0.202532,0.0,0.0
801,200,57.1936,67.7661,151.618,109.298,111.35,0.00701844,0.102945,20.8776,70.352,-0.168161,0.0,0.0
804,200.75,56.1659,67.1749,147.793,109.289,111.992,0.00696868,0.102621,20.8782,70.332,-0.220802,0.0,0.0
807,201.5,56.104,66.4905,146.783,109.275,111.938,0.00686279,0.102318,20.8789,70.322,-0.217688,0.0,0.0
810,202.25,55.5993,66.5293,146.844,109.274,111.718,0.00677661,0.101768,20.8796,70.292,-0.200016,0.0,0.0
813,203,55.4933,66.0428,148.95,109.265,111.58,0.00670995,0.101367,20.88,70.332,-0.189573,0.0,0.0
816,203.75,55.0273,65.6849,148.017,109.266,111.851,0.00666136,0.101061,20.8804,70.352,-0.21139,0.0,0.0
819,204.5,54.5238,65.0029,148.067,109.263,111.566,0.00662044,0.100831,20.8811,70.322,-0.188568,0.0,0.0
822,205.25,54.4233,64.7419,153.555,109.272,112.003,0.00659062,0.100622,20.8818,70.302,-0.223092,0.0,0.0
825,206,53.6745,64.3462,145.977,109.285,111.941,0.0065611,0.100384,20.8823,70.2819,-0.217089,0.0,0.0
828,206.75,53.4983,64.0678,150.317,109.289,111.617,0.006541,0.100166,20.8826,70.2819,-0.190543,0.0,0.0
831,207.5,53.5343,63.5907,146.613,109.251,111.617,0.00653443,0.0999938,20.8827,70.2819,-0.193658,0.0,0.0
834,208.25,53.0786,63.4657,147.712,109.281,111.972,0.00655711,0.0998396,20.8827,70.2419,-0.21991,0.0,0.0
837,209,52.3687,62.707,149.818,109.273,112.175,0.00658175,0.099715,20.8827,70.2419,-0.236884,0.0,0.0
840,209.75,52.4917,62.6374,145.121,109.273,111.877,0.00661358,0.0996633,20.8827,70.2319,-0.212888,0.0,0.0
843,210.5,51.4963,61.7004,150.222,109.267,111.825,0.00665328,0.0995969,20.8827,70.2219,-0.209154,0.0,0.0
846,211.25,52.1216,61.6811,151.571,109.272,111.284,0.00669138,0.0995362,20.8827,70.2319,-0.164949,0.0,0.0
849,212,51.3602,61.497,143.646,109.302,111.199,0.00671916,0.0994304,20.8828,70.2219,-0.155589,0.0,0.0
852,212.75,51.5693,61.1497,148.395,109.282,111.344,0.00673391,0.0993245,20.8828,70.2219,-0.16895,0.0,0.0
855,213.5,51.3088,60.5809,148.654,109.293,112.041,0.0067331,0.0992199,20.8828,70.2219,-0.224467,0.0,0.0
858,214.25,50.6185,60.3603,147.857,109.293,111.809,0.00672758,0.0991177,20.8828,70.2319,-0.205761,0.0,0.0
861,215,50.8256,59.7455,148.854,109.324,110.853,0.0067089,0.0990001,20.8828,70.1919,-0.125596,0.0,0.0
864,215.75,50.123,59.8617,147.557,109.307,111.425,0.00668244,0.0988959,20.8828,70.1518,-0.173469,0.0,0.0
867,216.5,49.7927,59.5422,148.38,109.317,111.541,0.00663881,0.0987789,20.8828,70.1418,-0.182012,0.0,0.0
870,217.25,49.9315,59.0296,148.467,109.331,111.822,0.00657473,0.0986217,20.8828,70.1418,-0.203636,0.0,0.0
873,218,49.4573,58.9699,145.954,109.33,112.278,0.00648595,0.0984083,20.8829,70.1418,-0.240502,0.0,0.0
876,218.75,49.4088,58.5433,150.646,109.333,111.377,0.00642123,0.0981363,20.8831,70.1518,-0.167446,0.0,0.0
879,219.5,49.476,58.5985,147.831,109.335,112.393,0.00632837,0.0978386,20.8837,70.1318,-0.2493,0.0,0.0
882,220.25,49.2092,58.3161,147.838,109.323,111.125,0.00626196,0.0975414,20.8843,70.1018,-0.147828,0.0,0.0
885,221,49.1542,57.7358,146.229,109.344,111.923,0.00622285,0.09726,20.8848,70.1218,-0.210783,0.0,0.0
888,221.75,48.6688,57.3639,148.273,109.352,111.269,0.00620933,0.0969256,20.8851,70.1018,-0.15712,0.0,0.0
891,222.5,48.7454,57.2897,148.966,109.354,111.624,0.00622038,0.0965813,20.8853,70.1318,-0.185731,0.0,0.0
894,223.25,48.1968,56.8363,149.902,109.35,112.47,0.00626421,0.0962527,20.8855,70.1418,-0.254348,0.0,0.0
897,224,48.2082,56.7507,147.442,109.364,112.412,0.00631641,0.0959844,20.8856,70.1418,-0.248465,0.0,0.0
900,224.75,47.915,56.3911,153.509,109.381,111.153,0.00638912,0.0957539,20.8857,70.1318,-0.145291,0.0,0.0
903,225.5,47.8289,56.1455,146.887,109.386,111.997,0.00644212,0.0955471,20.8862,70.1118,-0.213265,0.0,0.0
906,226.25,48.1026,55.7348,141.958,109.37,111.302,0.00648075,0.0953964,20.8868,70.1118,-0.158331,0.0,0.0
909,227,47.3065,55.4695,145.398,109.377,111.966,0.00648878,0.0952045,20.8872,70.1018,-0.211544,0.0,0.0
912,227.75,47.1856,55.7077,148.302,109.388,112.229,0.00647796,0.0950359,20.8875,70.0718,-0.231755,0.0,0.0
915,228.5,47.2994,54.8877,144.977,109.398,111.746,0.00646295,0.0949008,20.8877,70.0918,-0.19201,0.0,0.0
918,229.25,46.8144,54.856,151.417,109.395,111.359,0.00642458,0.0945361,20.8883,70.0918,-0.160919,0.0,0.0
921,230,47.1032,55.0177,147.238,109.402,112.004,0.00637097,0.0942702,20.8889,70.1018,-0.212477,0.0,0.0
924,230.75,46.6064,54.5592,149.223,109.418,111.807,0.00630546,0.0938512,20.8894,70.0918,-0.195311,0.0,0.0
927,231.5,46.3037,54.124,151.81,109.436,112.037,0.00623119,0.0934597,20.8904,70.0818,-0.212312,0.0,0.0
930,232.25,46.3814,54.2584,148.148,109.429,111.605,0.00613141,0.0931527,20.8911,70.0718,-0.178028,0.0,0.0
933,233,46.1358,53.7717,146.753,109.445,111.777,0.00605868,0.0929547,20.8916,70.0517,-0.190584,0.0,0.0
936,233.75,45.9648,53.5804,150.483,109.46,110.854,0.00597368,0.0928718,20.8919,70.0417,-0.114361,0.0,0.0
939,234.5,45.9263,53.5847,146.308,109.452,112.02,0.00589877,0.0927282,20.8922,70.0217,-0.209651,0.0,0.0
942,235.25,45.7486,53.0355,146.932,109.466,112.016,0.0058453,0.0924816,20.8924,70.0417,-0.208191,0.0,0.0
945,236,45.832,52.8942,145.983,109.473,111.425,0.00581909,0.0921727,20.893,70.0417,-0.159813,0.0,0.0
948,236.75,45.3869,52.8184,145.772,109.492,111.848,0.00579797,0.0918926,20.8936,70.0317,-0.192474,0.0,0.0
951,237.5,45.3274,52.3276,146.661,109.507,111.447,0.00577912,0.0917701,20.8941,70.0417,-0.15876,0.0,0.0
954,238.25,45.327,52.1724,144.521,109.498,111.831,0.00575808,0.0916522,20.8944,70.0517,-0.19061,0.0,0.0
957,239,45.176,51.9422,147.12,109.514,111.607,0.00574274,0.091554,20.8946,70.0217,-0.171126,0.0,0.0
960,239.75,44.8628,51.4172,150.495,109.535,111.462,0.00573156,0.0913392,20.8948,70.0417,-0.15765,0.0,0.0
963,240.5,44.9525,51.6983,146.976,109.538,112.139,0.00574003,0.091154,20.8949,70.0217,-0.21214,0.0,0.0
966,241.25,44.8048,51.5442,142.99,109.55,112.358,0.0057607,0.0910068,20.895,70.0117,-0.228822,0.0,0.0
969,242,44.7665,51.5096,143.245,109.554,112.256,0.00578842,0.0908585,20.8951,70.0017,-0.220271,0.0,0.0
972,242.75,44.9917,50.9443,143.124,109.563,112.392,0.00582689,0.0906931,20.8951,69.9917,-0.230451,0.0,0.0
975,243.5,44.6142,51.2039,146.324,109.567,112.284,0.00584853,0.0905482,20.8952,69.9717,-0.221491,0.0,0.0
978,244.25,44.62,50.6291,145.31,109.575,112.027,0.00584946,0.0903402,20.8952,69.9717,-0.200129,0.0,0.0
981,245,44.0404,50.482,150.931,109.583,111.926,0.00582941,0.0900884,20.8959,69.9617,-0.191307,0.0,0.0
984,245.75,43.7794,50.0261,148.868,109.586,111.449,0.0057583,0.089862,20.8963,69.9817,-0.15238,0.0,0.0
987,246.5,44.284,50.3334,145.029,109.59,111.699,0.00570645,0.0895335,20.8967,69.9416,-0.172326,0.0,0.0
990,247.25,44.086,49.7279,152.787,109.614,112.089,0.00566866,0.0891509,20.8969,69.8916,-0.201849,0.0,0.0
993,248,43.786,49.7348,150.602,109.599,111.908,0.00556282,0.0887657,20.8973,69.9116,-0.188408,0.0,0.0
996,248.75,43.7532,49.5234,149.38,109.611,112.788,0.00548438,0.0884076,20.8977,69.9316,-0.258293,0.0,0.0
999,249.5,43.6343,49.3811,146.593,109.623,112.154,0.00542935,0.0881465,20.8979,69.9416,-0.206341,0.0,0.0
1002,250.25,43.7149,49.0744,149.518,109.625,112.309,0.00539382,0.0880787,20.8981,69.9416,-0.218622,0.0,0.0
1005,251,43.1917,48.9302,151.833,109.63,111.76,0.00537338,0.0880368,20.8982,69.9216,-0.173955,0.0,0.0
1008,251.75,43.829,49.3086,147.655,109.649,112.469,0.00535302,0.0880191,20.8984,69.9216,-0.229579,0.0,0.0
1011,252.5,43.2579,48.5855,149.551,109.649,112.279,0.0053318,0.0879042,20.8984,69.9316,-0.214247,0.0,0.0
1014,253.25,43.1791,48.5708,149.582,109.65,112.106,0.00531361,0.0877059,20.8985,69.9216,-0.200204,0.0,0.0
1017,254,43.5131,48.6297,146.796,109.661,111.447,0.00527102,0.0874598,20.8985,69.9416,-0.146082,0.0,0.0
1020,254.75,43.0448,48.2707,147.09,109.656,112.081,0.00521742,0.0871902,20.8985,69.9016,-0.197689,0.0,0.0
1023,255.5,43.0623,48.0162,152.242,109.662,111.936,0.00516114,0.0869121,20.8986,69.9116,-0.185507,0.0,0.0
1026,256.25,43.1357,48.4197,148.212,109.676,112.089,0.00510483,0.0866521,20.8986,69.8716,-0.196736,0.0,0.0
1029,257,42.6457,47.8377,145.086,109.661,112.098,0.00504789,0.0864381,20.8986,69.8616,-0.198675,0.0,0.0
1032,257.75,42.5269,47.6855,147.263,109.669,111.979,0.00499033,0.0862107,20.8986,69.8916,-0.18843,0.0,0.0
1035,258.5,42.5265,47.7834,150.587,109.687,112.036,0.00492547,0.0859918,20.8988,69.8616,-0.191581,0.0,0.0
1038,259.25,42.9362,47.811,145.003,109.706,111.33,0.00485825,0.0857936,20.8994,69.8616,-0.132874,0.0,0.0
1041,260,42.8203,47.5334,149.814,109.695,112.048,0.00480491,0.085384,20.8998,69.8315,-0.191902,0.0,0.0
1044,260.75,42.4175,47.1603,149.191,109.688,111.831,0.0047673,0.0850328,20.9001,69.8115,-0.174932,0.0,0.0
1047,261.5,42.5291,47.2945,149.648,109.691,111.638,0.00474845,0.0846867,20.9004,69.8015,-0.159044,0.0,0.0
1050,262.25,42.1285,47.0101,144.024,109.705,111.604,0.00474845,0.084312,20.9011,69.8215,-0.155173,0.0,0.0
1053,263,42.1666,47.1511,149.256,109.706,112.128,0.00477749,0.0839675,20.9017,69.8516,-0.197396,0.0,0.0
1056,263.75,42.3911,46.8037,148.098,109.693,112.023,0.00480757,0.0836859,20.9021,69.8115,-0.190008,0.0,0.0
1059,264.5,41.7852,46.5792,148.99,109.693,112.053,0.0048333,0.0836233,20.9025,69.8015,-0.192415,0.0,0.0
1062,265.25,41.2695,46.3558,147.951,109.705,112.278,0.00484479,0.0836227,20.9027,69.8215,-0.209564,0.0,0.0
1065,266,41.9317,46.3652,144.744,109.703,112.255,0.00484044,0.0836995,20.9028,69.8215,-0.207878,0.0,0.0
1068,266.75,41.5175,46.7225,150.109,109.694,112.661,0.00483184,0.0836536,20.903,69.8015,-0.241248,0.0,0.0
1071,267.5,41.6228,46.4449,149.012,109.696,111.992,0.00479886,0.0835486,20.903,69.8015,-0.18726,0.0,0.0
1074,268.25,41.5541,45.8093,149.1,109.739,112.173,0.00475473,0.0834266,20.9031,69.8115,-0.198286,0.0,0.0
1077,269,41.9895,45.6925,150.637,109.719,112.49,0.00470768,0.083312,20.9032,69.7915,-0.225479,0.0,0.0
1080,269.75,41.4343,45.7334,148.737,109.712,111.884,0.00467338,0.0831427,20.9032,69.8115,-0.177251,0.0,0.0
1083,270.5,41.3467,45.6149,147.982,109.707,112.463,0.00463207,0.0829827,20.9033,69.8315,-0.224275,0.0,0.0
1086,271.25,41.4595,45.3654,147.947,109.719,112.768,0.00458416,0.0827642,20.9035,69.8215,-0.247797,0.0,0.0
1089,272,41.406,45.3089,147.201,109.716,112.282,0.00453229,0.082605,20.9036,69.7715,-0.209018,0.0,0.0
1092,272.75,41.4513,45.2016,144.93,109.718,112.06,0.00447314,0.0824032,20.9043,69.7815,-0.190983,0.0,0.0
1095,273.5,41.4308,45.1371,148.725,109.73,113.2,0.00442088,0.0821895,20.9049,69.7715,-0.281399,0.0,0.0
1098,274.25,41.0141,44.8794,147.947,109.727,112.321,0.00438278,0.0819823,20.9052,69.7815,-0.211277,0.0,0.0
1101,275,41.1948,45.3302,148.075,109.733,113.071,0.004355,0.0817702,20.9055,69.8015,-0.270841,0.0,0.0
1104,275.75,41.3859,44.4496,146.761,109.729,112.286,0.00433222,0.0815157,20.9057,69.8015,-0.208285,0.0,0.0
1107,276.5,41.0205,44.4893,143.421,109.723,111.819,0.00431452,0.0812875,20.9059,69.7615,-0.171026,0.0,0.0
1110,277.25,41.1037,44.3908,147.593,109.727,111.922,0.00429439,0.0809787,20.906,69.7515,-0.179074,0.0,0.0
1113,278,40.6365,44.6653,146.155,109.73,112.672,0.00427463,0.0807536,20.9061,69.7415,-0.23918,0.0,0.0
1116,278.75,41.0372,44.392,152.15,109.732,112.263,0.00425673,0.0804673,20.9061,69.7715,-0.20608,0.0,0.0
1119,279.5,40.7838,44.0344,148.274,109.712,111.737,0.00424139,0.0802016,20.9062,69.7815,-0.165355,0.0,0.0
1122,280.25,40.8155,43.735,149.756,109.732,112.499,0.00423202,0.0799611,20.9062,69.7915,-0.225152,0.0,0.0
1125,281,40.7953,44.2442,145.304,109.732,112.294,0.00422519,0.0797472,20.9062,69.7515,-0.208641,0.0,0.0
1128,281.75,40.7676,43.6287,147.014,109.727,111.294,0.00421298,0.0795506,20.9067,69.7415,-0.128202,0.0,0.0
1131,282.5,41.1045,44.0344,145.126,109.729,111.207,0.004199,0.0793547,20.9072,69.7515,-0.120951,0.0,0.0
1134,283.25,40.8505,43.9841,146.902,109.743,112.311,0.00418664,0.0791221,20.9076,69.7615,-0.209112,0.0,0.0
1137,284,40.3766,44.5957,148.764,109.735,111.887,0.00416497,0.078924,20.9078,69.7515,-0.175598,0.0,0.0
1140,284.75,40.0701,43.6802,150.221,109.728,111.863,0.00412928,0.0787674,20.908,69.7615,-0.174143,0.0,0.0
1143,285.5,40.7838,44.042,146.556,109.735,111.335,0.00409659,0.0785923,20.9082,69.7215,-0.130839,0.0,0.0
1146,286.25,40.0759,43.5831,148.193,109.729,112.327,0.00406136,0.0784442,20.9083,69.7415,-0.211542,0.0,0.0
1149,287,40.4999,43.4073,149.713,109.743,111.991,0.00403025,0.0782936,20.9084,69.7615,-0.183349,0.0,0.0
1152,287.75,40.564,43.5856,144.591,109.739,112.085,0.00400757,0.0781655,20.9084,69.7815,-0.19123,0.0,0.0
1155,288.5,40.1374,42.9745,149.203,109.733,112.149,0.003982,0.0778485,20.9091,69.7415,-0.196841,0.0,0.0
1158,289.25,40.4995,43.6129,146.408,109.735,111.865,0.00395956,0.0775035,20.9096,69.7114,-0.173759,0.0,0.0
1161,290,40.0603,43.6892,148.977,109.743,112.04,0.00394158,0.0772033,20.91,69.7014,-0.187307,0.0,0.0
1164,290.75,40.1489,43.3071,146.356,109.735,111.965,0.00391944,0.0768829,20.9107,69.6914,-0.181883,0.0,0.0
1167,291.5,40.0532,42.5943,152.855,109.732,111.064,0.0038919,0.0766568,20.9114,69.6514,-0.10902,0.0,0.0
1170,292.25,40.2151,43.4287,150.325,109.723,111.588,,0.0765048,,69.6814,-0.152361,0.0,0.0
1173,293,39.721,42.9189,145.69,109.727,112.47,,0.0763513,,69.7014,-0.223233,0.0,0.0
1176,293.75,40.0999,42.7196,149.635,109.729,111.528,,0.0761612,,69.7114,-0.147056,0.0,0.0
1179,294.5,39.7938,42.8116,148.495,109.722,111.707,,0.07592,,69.7215,-0.162137,0.0,0.0
1182,295.25,39.5443,42.6456,145.77,109.717,112.443,,,,69.7215,-0.221841,0.0,0.0
1185,296,40.0434,42.3561,149.283,109.726,111.581,,,,69.7215,-0.151573,0.0,0.0
1188,296.75,39.739,42.9839,148.136,109.722,111.734,,,,69.7215,-0.164306,0.0,0.0
1191,297.5,39.6893,42.2545,147.535,109.721,111.725,,,,69.7815,-0.163565,0.0,0.0
1194,298.25,39.3626,41.9464,151.658,109.71,111.721,,,,69.6714,-0.164228,0.0,0.0
1197,299,39.8984,42.6858,147.07,109.73,111.628,,,,69.8115,-0.155018,0.0,0.0
1200,299.75,39.9936,42.162,152.684,109.722,111.931,,,,69.7114,-0.18021,0.0,0.0
1203,300.5,39.2056,42.0847,147.093,109.707,111.934,,,,69.6514,-0.181619,0.0,0.0
1206,301.25,39.4009,42.5267,147.489,109.698,112.123,,,,69.6514,-0.197641,0.0,0.0
1209,302,39.4033,42.0095,147.81,109.703,111.706,,,,69.6514,-0.163625,0.0,0.0
1212,302.75,39.1532,41.8834,150.805,109.693,111.96,,,,69.6414,-0.184906,0.0,0.0
1213,303,39.285,42.1941,145.707,109.689,111.851,,,,69.6514,-0.176494,0.0,0.0