File: 01_Data/FRP_Panel/Cone/FRP_Panel_Cone_HF50Scan_220919_R2.csv
Names,Time,Stack TC,Smoke TC,Exh Press,Smoke Comp,Smoke Meas,CO Meter,CO2 Meter,O2 Meter,Sample Mass,Ext Coeff,Start Test,Flame Verif
Chan Gain,,500,500,1,1,1,1,1,1,1,1,1.0,1.0
Offset,,0,0,0.143022,0,0,0,0,0,0,0,0.0,0.0
Gain,,1,1,25.011,14.5176,16.5692,1,1,1,1.00088,1.03055,1.0,1.0
Units,sec,C,C,Pa,%,%,%,%,%,g,/m,,
Baseline,,46.2666,47.7745,145.432,109.015,111.98,0.000483121,0.0457353,20.9498,-446.206,-0.242572,,
3,0.5,46.0397,47.7531,147.248,108.588,111.521,0.000492732,0.0500356,20.9485,88.6681,-0.240923,0.0,0.0
6,1.25,44.6807,47.0638,140.973,108.593,111.748,0.00045091,0.0504664,20.9474,88.6181,-0.258862,0.0,0.0
9,2,44.8437,46.8262,144.236,108.585,111.345,0.000420422,0.0509075,20.9464,88.6381,-0.226944,0.0,0.0
12,2.75,44.5682,46.4821,142.889,108.591,111.735,0.000369813,0.0512831,20.945,88.5781,-0.257983,0.0,0.0
15,3.5,44.9512,46.3724,143.214,108.578,112.111,0.000341624,0.0517546,20.944,88.5881,-0.289439,0.0,0.0
18,4.25,44.7855,46.3167,148.824,108.594,111.219,0.000331332,0.0521825,20.9432,88.538,-0.215937,0.0,0.0
21,5,45.1456,46.079,140.715,108.586,111.08,0.000335024,0.0525146,20.9427,88.538,-0.205291,0.0,0.0
24,5.75,44.7911,46.5587,145.905,108.581,110.832,0.000341448,0.0527047,20.9425,88.518,-0.185469,0.0,0.0
27,6.5,44.4752,46.4521,143.047,108.58,111.313,0.000344448,0.0527544,20.9428,88.518,-0.224721,0.0,0.0
30,7.25,44.8699,45.9256,145.943,108.594,111.501,0.000341038,0.0526698,20.943,88.518,-0.238764,0.0,0.0
33,8,44.4821,46.8937,145.043,108.583,111.667,0.000334819,0.0525658,20.9431,88.528,-0.2532,0.0,0.0
36,8.75,44.4356,46.6352,145.231,108.566,110.907,0.000328695,0.0524719,20.9432,88.508,-0.192909,0.0,0.0
39,9.5,44.8199,46.5272,148.201,108.564,111.141,0.000336672,0.0522223,20.9436,88.508,-0.21204,0.0,0.0
42,10.25,44.8319,46.7649,143.904,108.576,111.275,0.000359582,0.0519736,20.9442,88.528,-0.221932,0.0,0.0
45,11,45.0874,46.7628,148.078,108.575,111.344,0.000396447,0.051678,20.9446,88.518,-0.227673,0.0,0.0
48,11.75,44.8136,46.79,144.246,108.573,111.384,0.000439511,0.0513074,20.945,88.508,-0.231059,0.0,0.0
51,12.5,45.1095,46.8493,144.91,108.556,111.348,0.000487773,0.050971,20.9452,88.488,-0.229547,0.0,0.0
54,13.25,44.843,46.5759,147.135,108.579,111.691,0.000529172,0.0505567,20.946,88.498,-0.255456,0.0,0.0
57,14,44.7127,46.6412,144.664,108.578,110.897,0.000562717,0.0501231,20.9471,88.508,-0.19101,0.0,0.0
60,14.75,44.8139,46.8371,143.727,108.566,111.313,0.000579695,0.0496463,20.948,88.508,-0.225865,0.0,0.0
63,15.5,45.0305,46.6293,145.931,108.55,111.332,0.000588885,0.0491972,20.9487,88.508,-0.22879,0.0,0.0
66,16.25,44.3521,46.5503,148.449,108.564,111.345,0.000574411,0.0487852,20.9492,88.508,-0.228637,0.0,0.0
69,17,44.9161,46.0725,147.438,108.556,111.96,0.000554833,0.0484044,20.9495,88.498,-0.279088,0.0,0.0
72,17.75,44.7888,46.776,147.154,108.562,111.502,0.000531682,0.0480507,20.9498,88.488,-0.241539,0.0,0.0
75,18.5,44.6721,46.6155,145.621,108.563,111.644,0.000509825,0.0477225,20.95,88.468,-0.253018,0.0,0.0
78,19.25,44.8921,46.3992,145.612,108.552,111.779,0.000490459,0.0474531,20.9501,88.478,-0.264792,0.0,0.0
81,20,44.9736,46.4686,148.115,108.564,111.173,0.000474102,0.0472145,20.9502,88.468,-0.214746,0.0,0.0
84,20.75,44.6996,46.4865,150.298,108.57,111.721,0.00045471,0.0470226,20.9503,88.4279,-0.258608,0.0,0.0
87,21.5,45.1374,46.8172,144.641,108.549,111.132,0.000434115,0.0468425,20.9504,88.4079,-0.212627,0.0,0.0
90,22.25,44.8971,46.3513,146.535,108.549,110.998,0.000413502,0.0467112,20.9504,88.4079,-0.201647,0.0,0.0
93,23,45.107,46.3897,146.71,108.563,110.531,0.000389965,0.0466081,20.9504,88.448,-0.162372,0.0,0.0
96,23.75,45.2963,46.9715,151.778,108.564,111.81,0.000358252,0.0465202,20.9505,88.448,-0.266363,0.0,0.0
99,24.5,44.8551,46.6858,146.61,108.545,111.013,0.00032401,0.0463558,20.9505,88.4279,-0.203215,0.0,0.0
102,25.25,44.678,46.4574,146.026,108.549,111.154,0.000280025,0.0462211,20.9503,88.4179,-0.214401,0.0,0.0
105,26,45.2093,46.2388,144.999,108.557,111.041,0.000237323,0.0460975,20.9502,88.438,-0.204484,0.0,0.0
108,26.75,45.0901,46.6345,145.612,108.549,111.232,0.00020881,0.0460074,20.9501,88.458,-0.220653,0.0,0.0
111,27.5,44.9312,46.6414,144.826,108.537,111.373,0.000192498,0.046002,20.95,88.448,-0.233182,0.0,0.0
114,28.25,45.2647,46.5186,141.318,108.545,110.247,0.000191244,0.045984,20.9498,88.448,-0.140618,0.0,0.0
117,29,45.057,46.424,145.613,108.553,111.265,0.000206693,0.0459649,20.9492,88.438,-0.22307,0.0,0.0
120,29.75,44.9766,46.5965,147.629,108.56,110.882,0.000245936,0.0459368,20.9487,88.3679,-0.191286,0.0,0.0
123,30.5,44.9478,46.8473,146.472,108.535,109.653,0.000380449,0.0463893,20.9482,88.3879,-0.0926955,0.0,0.0
126,31.25,45.6025,46.4875,147.299,108.54,110.197,0.000659911,0.0469234,20.9446,88.3579,-0.136996,0.0,0.0
129,32,45.3033,46.8534,143.375,108.55,111.01,0.000921726,0.0510406,20.9372,88.3579,-0.202599,0.0,0.0
132,32.75,45.4899,46.9886,143.269,108.564,112.464,0.00142969,0.0579275,20.9179,88.2978,-0.319111,0.0,1.0
135,33.5,44.9175,47.1165,137.71,108.534,108.032,0.00209468,0.0695922,20.8908,88.2278,0.0419532,0.0,1.0
138,34.25,45.4073,46.7784,133.339,108.534,100.694,0.00295995,0.0958661,20.8487,88.3479,0.677789,0.0,1.0
141,35,45.5579,46.9782,135.886,108.557,97.3792,0.00402655,0.127923,20.7871,88.1377,0.982327,0.0,1.0
144,35.75,46.3149,47.2474,134.416,108.59,90.1975,0.0057025,0.164597,20.7192,88.0776,1.67758,0.0,1.0
147,36.5,46.6984,47.2548,129.565,108.603,83.9522,0.00692426,0.204677,20.6599,87.9675,2.3273,0.0,1.0
150,37.25,46.2059,46.3667,125.28,108.603,83.1669,0.0096358,0.256811,20.5937,87.8775,2.41233,0.0,1.0
153,38,46.4794,47.1402,125.82,108.65,77.5072,0.0127408,0.313212,20.5356,87.7373,3.05329,0.0,0.0
156,38.75,47.461,47.371,118.098,108.667,72.0456,0.0154853,0.36217,20.4566,87.6573,3.71528,0.0,0.0
159,39.5,48.7597,48.2529,123.552,108.69,70.2273,0.0196926,0.428794,20.3707,87.4771,3.94832,0.0,0.0
162,40.25,49.6444,48.6044,125.99,108.695,68.1855,0.0240487,0.477363,20.2729,87.327,4.21545,0.0,0.0
165,41,50.7541,49.6779,114.824,108.724,62.3639,0.0284088,0.551305,20.1623,87.0868,5.02461,0.0,0.0
168,41.75,52.2459,50.5994,113.038,108.748,59.1172,0.0326734,0.626797,20.0349,86.9667,5.50996,0.0,0.0
171,42.5,53.5387,51.7016,117.339,108.763,61.1994,0.037264,0.703749,19.9093,86.8065,5.19825,0.0,0.0
174,43.25,54.9709,52.7598,110.023,108.787,62.6527,0.0406105,0.781588,19.8037,86.5963,4.98808,0.0,0.0
177,44,56.9212,54.3289,113.453,108.798,57.5117,0.0445518,0.857298,19.7055,86.4162,5.76298,0.0,0.0
180,44.75,58.6828,55.3394,110.326,108.825,56.4048,0.0478356,0.92751,19.6156,86.206,5.9409,0.0,0.0
183,45.5,60.4239,56.773,109.214,108.844,58.3521,0.0504735,0.990555,19.5341,85.9758,5.63567,0.0,0.0
186,46.25,61.9266,59.0361,106.701,108.863,60.4147,0.0525147,1.0536,19.4691,85.7756,5.32324,0.0,0.0
189,47,64.1061,60.4516,104.248,108.856,58.7394,0.0540027,1.10415,19.4122,85.5854,5.57689,0.0,0.0
192,47.75,66.202,62.061,101.071,108.878,59.8109,0.0548867,1.14885,19.3612,85.3652,5.41528,0.0,0.0
195,48.5,67.8102,63.8664,106.531,108.898,56.372,0.0553683,1.19121,19.3153,85.2451,5.95224,0.0,0.0
198,49.25,69.3208,65.4192,102.067,108.919,55.6919,0.0555659,1.22208,19.2739,85.045,6.06369,0.0,0.0
201,50,71.1825,67.1275,104.252,108.898,59.1475,0.055659,1.25258,19.2461,84.8248,5.51773,0.0,0.0
204,50.75,72.9463,68.6056,105.686,108.925,59.5879,0.0556692,1.27822,19.214,84.6246,5.45291,0.0,0.0
207,51.5,74.4306,70.5388,107.267,108.953,55.3465,0.0555997,1.30316,19.1844,84.4044,6.12276,0.0,0.0
210,52.25,76.3383,72.0006,104.065,108.95,54.9557,0.0555903,1.32546,19.1567,84.2242,6.18657,0.0,0.0
213,53,78.1291,73.6796,106.68,108.956,51.5632,0.0556504,1.3381,19.1305,84.004,6.76309,0.0,0.0
216,53.75,79.7568,74.8686,101.395,108.957,55.6165,0.0557785,1.35882,19.1032,83.8239,6.07913,0.0,0.0
219,54.5,81.2143,77.0006,103.474,108.986,54.046,0.0560628,1.37654,19.0789,83.6037,6.34047,0.0,0.0
222,55.25,83.3039,78.1212,103.585,109.01,49.6413,0.0564634,1.39679,19.0536,83.4335,7.11093,0.0,0.0
225,56,84.7405,80.2264,108.051,109.005,50.78,0.0569808,1.41911,19.0267,83.1833,6.90554,0.0,0.0
228,56.75,86.255,81.4706,100.179,109.033,48.772,0.0576023,1.44137,18.9994,83.0132,7.27253,0.0,0.0
231,57.5,87.9087,84.0996,104.468,109.053,46.8081,0.0582544,1.46482,18.9722,82.783,7.64577,0.0,0.0
234,58.25,89.6397,85.0861,101.665,109.055,49.7505,0.0590704,1.48391,18.9457,82.5928,7.09481,0.0,0.0
237,59,91.3158,86.984,100.947,109.061,48.8939,0.0599405,1.50727,18.9148,82.3226,7.25228,0.0,0.0
240,59.75,92.5967,88.067,105.074,109.063,49.4107,0.0605569,1.53116,18.8835,82.1424,7.15742,0.0,0.0
243,60.5,94.4755,90.3019,99.7436,109.088,46.5143,0.061384,1.5515,18.8621,81.8922,7.70559,0.0,0.0
246,61.25,95.4544,91.7762,93.5725,109.098,45.4666,0.0621314,1.57477,18.8305,81.722,7.91234,0.0,0.0
249,62,97.2212,93.4118,101.489,109.124,48.3074,0.0627837,1.59837,18.7917,81.4818,7.36664,0.0,0.0
252,62.75,98.4075,95.1696,103.661,109.119,46.2448,0.0633377,1.61405,18.7585,81.2416,7.76069,0.0,0.0
255,63.5,99.907,96.7429,93.2749,109.136,47.1752,0.0638544,1.63461,18.7323,81.0314,7.58198,0.0,0.0
258,64.25,101.833,98.0847,98.2476,109.163,45.3195,0.064231,1.65543,18.7081,80.7912,7.947,0.0,0.0
261,65,103.538,99.8855,95.4952,109.175,45.5955,0.0647365,1.67347,18.6833,80.541,7.89313,0.0,0.0
264,65.75,105.083,101.253,92.6276,109.182,43.6913,0.065299,1.69364,18.6583,80.3108,8.27934,0.0,0.0
267,66.5,106.514,103.437,105.967,109.21,45.6603,0.065904,1.71165,18.6294,80.0706,7.8832,0.0,0.0
270,67.25,107.702,104.617,96.8943,109.228,45.5667,0.0666441,1.73043,18.6015,79.8604,7.90324,0.0,0.0
273,68,109.113,106.269,98.5041,109.248,43.845,0.0673673,1.74805,18.5717,79.6402,8.25305,0.0,0.0
276,68.75,110.268,107.845,96.85,109.248,45.6006,0.0681111,1.76759,18.55,79.38,7.89814,0.0,0.0
279,69.5,111.887,109.727,101.753,109.262,45.4236,0.0687458,1.78692,18.5315,79.1798,7.9345,0.0,0.0
282,70.25,113.482,110.959,98.4537,109.297,46.2842,0.0694869,1.80298,18.5169,78.9396,7.76769,0.0,0.0
285,71,114.893,113.164,101.475,109.288,50.1358,0.0701459,1.81644,18.5056,78.7194,7.0444,0.0,0.0
288,71.75,116.399,114.366,95.2693,109.307,45.5495,0.0707487,1.8278,18.4973,78.4592,7.91314,0.0,0.0
291,72.5,117.753,116.132,93.9282,109.302,47.4917,0.0713974,1.83609,18.4913,78.1989,7.53527,0.0,0.0
294,73.25,118.756,117.674,92.3673,109.337,47.9372,0.0719503,1.84267,18.487,77.9887,7.4538,0.0,0.0
297,74,120.622,119.001,92.2605,109.353,43.5952,0.0723109,1.84512,18.4866,77.7485,8.31338,0.0,0.0
300,74.75,121.394,120.439,99.8169,109.35,44.6651,0.0724983,1.84291,18.4911,77.4783,8.09401,0.0,0.0
303,75.5,122.847,121.817,100.088,109.364,44.8907,0.0725371,1.83721,18.5007,77.3081,8.04958,0.0,0.0
306,76.25,123.93,123.423,92.0735,109.385,46.7874,0.0723599,1.82965,18.5121,77.0879,7.6772,0.0,0.0
309,77,124.884,124.745,97.2195,109.387,46.442,0.0720684,1.82129,18.5256,76.7977,7.7444,0.0,0.0
312,77.75,125.958,125.888,94.4755,109.405,47.561,0.0717869,1.81073,18.541,76.5875,7.53063,0.0,0.0
315,78.5,127.011,127.025,92.5062,109.402,48.189,0.0712856,1.79868,18.5557,76.4073,7.41179,0.0,0.0
318,79.25,127.669,128.705,99.1055,109.423,49.2878,0.0705979,1.78573,18.5724,76.1471,7.2097,0.0,0.0
321,80,128.38,129.332,94.7129,109.435,48.9268,0.0697614,1.77011,18.5922,75.9169,7.27722,0.0,0.0
324,80.75,129.19,131.037,96.6264,109.445,50.0695,0.0686126,1.75107,18.6172,75.8068,7.06928,0.0,0.0
327,81.5,129.856,131.891,96.0715,109.438,48.2224,0.067514,1.73393,18.64,75.5366,7.40853,0.0,0.0
330,82.25,130.77,132.848,97.9949,109.466,52.7025,0.0662667,1.70722,18.6781,75.3464,6.60774,0.0,0.0
333,83,131.351,133.266,99.1009,109.477,49.9002,0.064701,1.67863,18.7187,75.1662,7.10255,0.0,0.0
336,83.75,131.442,134.097,100.469,109.479,52.0734,0.0631118,1.64873,18.7606,74.9761,6.71739,0.0,0.0
339,84.5,132.138,135.074,96.044,109.474,53.0539,0.0617623,1.61811,18.8026,74.7659,6.54832,0.0,0.0
342,85.25,132.484,136.105,103.948,109.499,55.8011,0.0601763,1.58212,18.8519,74.5457,6.09399,0.0,0.0
345,86,132.841,136.538,110.557,109.506,53.9165,0.0583582,1.54462,18.9041,74.3755,6.40515,0.0,0.0
348,86.75,132.577,137.095,105.604,109.509,54.8171,0.0573078,1.50796,18.9409,74.2154,6.2557,0.0,0.0
351,87.5,132.591,137.379,108.755,109.496,52.6974,0.0553995,1.46853,18.9962,74.0553,6.6111,0.0,0.0
354,88.25,132.597,137.502,100.947,109.508,53.4963,0.0535584,1.43437,19.0534,73.8951,6.47603,0.0,0.0
357,89,133.089,138.495,112.209,109.513,55.0487,0.0520244,1.39018,19.1146,73.705,6.21792,0.0,0.0
360,89.75,132.974,138.289,107.376,109.514,57.7514,0.0502359,1.36146,19.1757,73.5548,5.78468,0.0,0.0
363,90.5,132.627,138.672,108.437,109.502,60.7241,0.048638,1.3204,19.2272,73.4447,5.32994,0.0,0.0
366,91.25,132.378,139.156,113.708,109.508,59.6901,0.0469704,1.26949,19.2918,73.3246,5.48572,0.0,0.0
369,92,131.72,138.822,113.322,109.521,59.4767,0.0453487,1.22,19.339,73.2045,5.51919,0.0,0.0
372,92.75,131.76,138.885,113.19,109.532,60.7762,0.0434721,1.17865,19.3832,73.0744,5.32464,0.0,0.0
375,93.5,130.979,138.686,117.563,109.519,65.4287,0.0416658,1.1245,19.4321,72.8942,4.65678,0.0,0.0
378,94.25,130.961,138.538,118.042,109.505,65.2229,0.0395996,1.07716,19.4992,72.8142,4.68416,0.0,0.0
381,95,129.93,138.367,118.814,109.513,69.6291,0.0373518,1.02921,19.5659,72.6941,4.09385,0.0,0.0
384,95.75,128.95,138.002,122.108,109.508,67.6844,0.0351935,0.99425,19.6381,72.5539,4.34946,0.0,0.0
387,96.5,128.04,137.567,121.357,109.497,69.2726,0.0331092,0.944991,19.7183,72.4739,4.13887,0.0,0.0
390,97.25,127.554,136.977,122.15,109.499,69.4552,0.0310947,0.893179,19.809,72.3738,4.11526,0.0,0.0
393,98,126.524,136.792,123.639,109.504,71.7564,0.0287628,0.839989,19.8825,72.3037,3.82104,0.0,0.0
396,98.75,125.478,135.982,127.74,109.507,70.7719,0.0270628,0.791714,19.9489,72.2437,3.94614,0.0,0.0
399,99.5,124.258,135.256,124.958,109.486,73.7461,0.0247528,0.744729,20.0128,72.1636,3.57228,0.0,0.0
402,100.25,122.932,134.288,123.348,109.491,79.8478,0.0227433,0.699767,20.066,72.0835,2.8541,0.0,0.0
405,101,122.616,133.729,132.02,109.487,83.7965,0.0207216,0.657273,20.1287,72.0535,2.4174,0.0,0.0
408,101.75,121.253,133.359,126.831,109.479,86.1406,0.0185103,0.609041,20.1947,71.9834,2.16732,0.0,0.0
411,102.5,119.977,132.446,134.489,109.462,93.0736,0.0166315,0.567466,20.2428,71.9234,1.46616,0.0,0.0
414,103.25,118.388,131.628,137.028,109.446,99.371,0.0148059,0.526193,20.3063,71.9034,0.873002,0.0,0.0
417,104,117.642,130.328,133.025,109.459,101.887,0.0130283,0.484306,20.369,71.8433,0.648018,0.0,0.0
420,104.75,116.34,130.139,134.312,109.445,107.047,0.011544,0.443929,20.428,71.8533,0.200266,0.0,0.0
423,105.5,114.944,128.513,136.187,109.438,109.917,0.0103816,0.406266,20.4817,71.8233,-0.0395361,0.0,0.0
426,106.25,114.352,127.441,136.393,109.43,110.721,0.00940179,0.370486,20.5272,71.8033,-0.105998,0.0,0.0
429,107,112.799,126.516,137.386,109.416,111.487,0.00862901,0.337769,20.5711,71.8033,-0.169541,0.0,0.0
432,107.75,111.348,125.295,144.303,109.416,113.67,0.00806218,0.308644,20.6139,71.8033,-0.344753,0.0,0.0
435,108.5,110.162,124.761,140.374,109.426,112.942,0.00772591,0.282012,20.6508,71.7933,-0.285854,0.0,0.0
438,109.25,108.95,123.498,145.676,109.399,113.555,0.00755666,0.260295,20.6802,71.8033,-0.337045,0.0,0.0
441,110,107.516,122.485,140.056,109.397,112.931,0.00746564,0.240157,20.7104,71.8033,-0.28742,0.0,0.0
444,110.75,106.156,121.548,141.568,109.393,113.9,0.00751697,0.220996,20.7351,71.8033,-0.364935,0.0,0.0
447,111.5,104.94,120.793,140.993,109.395,113.701,0.00763576,0.2059,20.7557,71.7632,-0.34904,0.0,0.0
450,112.25,103.961,119.358,140.312,109.376,113.189,0.00775706,0.192099,20.7731,71.7532,-0.309801,0.0,0.0
453,113,102.881,118.317,144.926,109.369,113.942,0.00791538,0.18037,20.7867,71.7532,-0.370356,0.0,0.0
456,113.75,101.51,117.441,144.337,109.376,112.682,0.00808515,0.171108,20.7982,71.7232,-0.269242,0.0,0.0
459,114.5,100.289,116.318,140.969,109.369,113.1,0.00825091,0.162405,20.8091,71.7232,-0.303312,0.0,0.0
462,115.25,99.1422,115.332,144.186,109.351,113.485,0.00842542,0.15502,20.817,71.7132,-0.335446,0.0,0.0
465,116,98.2401,113.861,138.733,109.356,113.34,0.00855263,0.149193,20.8235,71.7132,-0.323512,0.0,0.0
468,116.75,97.4389,113.729,140.765,109.346,114.328,0.00868044,0.144082,20.8286,71.6932,-0.402818,0.0,0.0
471,117.5,96.3744,112.326,137.004,109.323,113.098,0.00879267,0.139736,20.8331,71.6632,-0.306924,0.0,0.0
474,118.25,95.5877,111.874,138.512,109.306,113.085,0.0088815,0.136134,20.837,71.6632,-0.307302,0.0,0.0
477,119,93.897,110.667,143.943,109.273,113.747,0.0089407,0.133262,20.8398,71.6632,-0.362771,0.0,0.0
480,119.75,93.5294,109.932,141.647,109.267,113.983,0.00898454,0.130749,20.8425,71.6732,-0.381954,0.0,0.0
483,120.5,92.8666,109.047,141.279,109.248,112.833,0.00900776,0.128502,20.8439,71.6431,-0.291951,0.0,0.0
486,121.25,92.0638,108.009,137.933,109.206,113.998,0.00904417,0.126617,20.8461,71.6532,-0.388217,0.0,0.0
489,122,90.8754,107.506,137.77,109.175,112.667,0.00908914,0.125029,20.8482,71.6231,-0.284627,0.0,0.0
492,122.75,90.0278,106.488,141.47,109.155,113.83,0.00912544,0.123689,20.8499,71.6331,-0.379114,0.0,0.0
495,123.5,89.3269,105.748,144.946,109.131,112.988,0.00912594,0.122851,20.8511,71.6231,-0.313986,0.0,0.0
498,124.25,88.2793,105.023,142.057,109.093,114.098,0.00910648,0.121687,20.8525,71.6131,-0.40547,0.0,0.0
501,125,87.9907,104.299,143.111,109.053,113.937,0.00905839,0.120527,20.8539,71.6131,-0.396062,0.0,0.0
504,125.75,86.8586,103.469,145.015,109.046,113.711,0.00899737,0.119479,20.8553,71.5931,-0.378666,0.0,0.0
507,126.5,86.1961,102.535,145.916,109.027,112.592,0.00894182,0.118628,20.8563,71.5931,-0.290919,0.0,0.0
510,127.25,85.4299,101.899,144.898,109.004,113.159,0.00889484,0.117718,20.8573,71.5831,-0.338111,0.0,0.0
513,128,84.8351,100.868,136.102,108.946,113.754,0.00886124,0.116924,20.8584,71.5931,-0.390383,0.0,0.0
516,128.75,84.7796,100.62,142.492,108.945,113.15,0.00884258,0.11629,20.8593,71.5431,-0.34239,0.0,0.0
519,129.5,83.8486,99.8029,143.714,108.972,112.676,0.00882158,0.115639,20.8603,71.5631,-0.302175,0.0,0.0
522,130.25,83.1044,98.8,148.06,108.986,113.04,0.00879978,0.115084,20.8612,71.5431,-0.330161,0.0,0.0
525,131,82.0251,98.1669,139.659,108.982,113.339,0.00877771,0.11452,20.8619,71.5431,-0.354355,0.0,0.0
528,131.75,81.6163,98.0414,142.453,108.996,112.772,0.00875578,0.114011,20.8624,71.5331,-0.307895,0.0,0.0
531,132.5,81.0989,96.8302,140.896,109.016,113.26,0.00872554,0.113587,20.863,71.513,-0.345232,0.0,0.0
534,133.25,80.5418,96.0358,137.772,109.024,113.564,0.0086974,0.113237,20.8639,71.493,-0.368757,0.0,0.0
537,134,80.1193,95.9835,139.055,109.023,113.256,0.00866134,0.112881,20.8645,71.493,-0.34432,0.0,0.0
540,134.75,79.4348,95.2044,139.88,109.034,112.357,0.00862232,0.112578,20.8649,71.503,-0.271433,0.0,0.0
543,135.5,78.7045,94.2036,142.818,109.058,113.076,0.00859507,0.112109,20.8652,71.503,-0.32704,0.0,0.0
546,136.25,78.5591,93.6303,142.78,109.058,111.678,0.0085584,0.111637,20.8657,71.483,-0.214532,0.0,0.0
549,137,77.7046,93.3671,143.739,109.065,113.224,0.00853083,0.111237,20.8667,71.483,-0.338288,0.0,0.0
552,137.75,77.615,93.2278,140.374,109.073,113.62,0.00851306,0.111005,20.8674,71.463,-0.369184,0.0,0.0
555,138.5,77.0526,92.1094,142.31,109.096,113.137,0.00852783,0.110904,20.8679,71.463,-0.328772,0.0,0.0
558,139.25,76.3761,91.5548,143.762,109.122,113.222,0.0085386,0.110788,20.8683,71.463,-0.333391,0.0,0.0
561,140,76.1735,90.9773,140.428,109.117,113.978,0.00859054,0.110517,20.8685,71.443,-0.393951,0.0,0.0
564,140.75,75.2265,90.3938,139.906,109.13,113.065,0.00864721,0.110233,20.8684,71.4129,-0.320207,0.0,0.0
567,141.5,74.8751,89.194,141.718,109.145,113.431,0.00873481,0.109989,20.8683,71.4129,-0.348141,0.0,0.0
570,142.25,74.8541,89.2568,144.568,109.168,112.937,0.0088055,0.109712,20.8683,71.4129,-0.306817,0.0,0.0
573,143,74.0954,89.0772,141.272,109.175,112.906,0.00886873,0.109341,20.8682,71.3729,-0.30376,0.0,0.0
576,143.75,73.7928,88.2213,144.186,109.189,112.758,0.00891112,0.108998,20.8682,71.3629,-0.29075,0.0,0.0
579,144.5,73.1851,87.8255,140.369,109.2,113.254,0.00892643,0.108718,20.8684,71.3829,-0.329518,0.0,0.0
582,145.25,72.2737,86.9555,141.705,109.224,112.422,0.00893095,0.108513,20.869,71.3629,-0.260898,0.0,0.0
585,146,72.6405,86.7081,140.872,109.227,114.101,0.0088971,0.108306,20.8694,71.3929,-0.394634,0.0,0.0
588,146.75,71.9049,86.6311,141.576,109.234,113.262,0.00884389,0.10807,20.8698,71.3829,-0.3273,0.0,0.0
591,147.5,71.5717,85.6424,141.04,109.255,112.847,0.00879293,0.107794,20.8704,71.3829,-0.292422,0.0,0.0
594,148.25,71.2729,85.2773,139.946,109.277,113.165,0.00871431,0.107418,20.8708,71.3529,-0.316032,0.0,0.0
597,149,70.9918,84.6311,140.065,109.293,113.104,0.0086325,0.107069,20.8711,71.3429,-0.3099,0.0,0.0
600,149.75,70.3574,84.301,144.322,109.301,112.421,0.0085612,0.106589,20.8713,71.3429,-0.254435,0.0,0.0
603,150.5,70.4459,83.4681,141.644,109.321,113.618,0.00850738,0.106108,20.8715,71.3429,-0.348524,0.0,0.0
606,151.25,70.0653,83.0085,143.379,109.346,113.957,0.00847073,0.105703,20.8719,71.3229,-0.37331,0.0,0.0
609,152,69.6463,82.9536,141.559,109.369,112.673,0.00844444,0.105222,20.8725,71.3329,-0.26902,0.0,0.0
612,152.75,69.4815,82.5249,145.262,109.353,113.145,0.0084241,0.1048,20.873,71.3129,-0.308188,0.0,0.0
615,153.5,69.0426,82.1526,144.53,109.396,113.319,0.00840594,0.104415,20.8735,71.3229,-0.318449,0.0,0.0
618,154.25,68.4567,81.6354,140.068,109.405,113.83,0.00838496,0.104057,20.8743,71.3129,-0.358403,0.0,0.0
621,155,68.4262,81.2149,142.837,109.42,113.997,0.00833459,0.103611,20.8749,71.2928,-0.370477,0.0,0.0
624,155.75,68.4642,80.8764,145.275,109.439,113.78,0.00828629,0.103233,20.8754,71.3028,-0.351572,0.0,0.0
627,156.5,67.8012,80.777,140.315,109.449,114.175,0.0082313,0.102976,20.8757,71.2628,-0.382206,0.0,0.0
630,157.25,67.4903,79.9012,140.651,109.473,113.091,0.00819859,0.102564,20.876,71.2528,-0.293943,0.0,0.0
633,158,67.1696,79.6623,136.905,109.489,113.165,0.00819285,0.102215,20.8764,71.2428,-0.298566,0.0,0.0
636,158.75,66.9097,79.3018,140.522,109.5,113.183,0.00821069,0.101859,20.8771,71.2428,-0.299107,0.0,0.0
639,159.5,66.9361,79.0145,150.269,109.507,113.972,0.00824816,0.101528,20.8776,71.2328,-0.361304,0.0,0.0
642,160.25,66.3233,78.0951,142.628,109.528,113.895,0.00830503,0.101244,20.8779,71.2428,-0.353487,0.0,0.0
645,161,66.0256,78.0593,144.678,109.542,113.283,0.00835945,0.100985,20.8782,71.2428,-0.303625,0.0,0.0
648,161.75,66.0991,77.6382,143.212,109.551,114.235,0.00842129,0.100837,20.8784,71.2728,-0.378476,0.0,0.0
651,162.5,65.8325,77.2585,140.194,109.552,113.913,0.00846636,0.100759,20.8786,71.2328,-0.352877,0.0,0.0
654,163.25,65.009,77.1303,143.286,109.567,113.187,0.00853251,0.100713,20.8793,71.2228,-0.293794,0.0,0.0
657,164,65.4522,77.1,140.515,109.595,114.131,0.00858982,0.10066,20.8802,71.2128,-0.366651,0.0,0.0
660,164.75,65.044,76.5709,140.267,109.607,114.343,0.00864161,0.100621,20.8808,71.2028,-0.382393,0.0,0.0
663,165.5,64.8615,76.4172,139.284,109.621,113.579,0.00868987,0.100434,20.8812,71.2028,-0.320693,0.0,0.0
666,166.25,64.7928,75.6947,143.646,109.649,113.9,0.00874583,0.100231,20.8818,71.1727,-0.343912,0.0,0.0
669,167,64.0591,75.5627,142.411,109.652,113.424,0.00880094,0.0999384,20.8826,71.1627,-0.305772,0.0,0.0
672,167.75,64.6354,75.403,148.861,109.661,113.388,0.00885047,0.0997254,20.8832,71.1527,-0.302144,0.0,0.0
675,168.5,63.8787,75.0775,143.787,109.661,114.358,0.00889068,0.099555,20.8836,71.1727,-0.379099,0.0,0.0
678,169.25,63.6576,74.4546,144.03,109.673,114.363,0.008927,0.0994048,20.8833,71.1627,-0.378546,0.0,0.0
681,170,63.7921,74.322,142.492,109.687,113.549,0.00894978,0.0993098,20.8831,71.1627,-0.312836,0.0,0.0
684,170.75,63.4933,73.7713,142.979,109.695,113.822,0.00895681,0.0992466,20.8829,71.1527,-0.333891,0.0,0.0
687,171.5,62.7115,73.6629,147.556,109.698,113.7,0.00893328,0.0992006,20.8828,71.1527,-0.323911,0.0,0.0
690,172.25,63.1157,73.5642,144.546,109.712,114.106,0.0088951,0.099167,20.8827,71.1227,-0.354968,0.0,0.0
693,173,62.9829,73.2498,143.166,109.719,113.416,0.00883581,0.0991425,20.8826,71.1127,-0.299541,0.0,0.0
696,173.75,62.9443,72.7667,143.93,109.731,114.067,0.00878713,0.098981,20.8826,71.1227,-0.350351,0.0,0.0
699,174.5,62.1076,72.1538,143.645,109.744,112.9,0.00874231,0.0987194,20.8825,71.1227,-0.256331,0.0,0.0
702,175.25,62.1361,72.0383,141.863,109.735,113.7,0.00870963,0.0984296,20.8825,71.1227,-0.320882,0.0,0.0
705,176,62.0505,71.9866,141.528,109.761,113.163,0.00868581,0.0981536,20.8825,71.0826,-0.275932,0.0,0.0
708,176.75,62.3446,71.5211,146.28,109.766,113.876,0.0086592,0.0978294,20.8829,71.0726,-0.332274,0.0,0.0
711,177.5,62.0866,71.2329,141.93,109.76,113.447,0.00863591,0.0975173,20.8834,71.0826,-0.298678,0.0,0.0
714,178.25,62.1094,71.327,141.907,109.771,114.173,0.00862342,0.0971605,20.8838,71.0626,-0.355482,0.0,0.0
717,179,61.6376,70.9137,140.928,109.779,114.263,0.00862481,0.0967136,20.8847,71.0326,-0.361908,0.0,0.0
720,179.75,61.1232,70.8347,143.078,109.802,113.8,0.00865542,0.0962402,20.8853,71.0326,-0.323256,0.0,0.0
723,180.5,61.1984,70.127,143.557,109.791,113.029,0.00868941,0.0957787,20.886,71.0326,-0.262744,0.0,0.0
726,181.25,61.0204,70.2535,144.416,109.79,113.977,0.00871917,0.0953705,20.887,71.0326,-0.338289,0.0,0.0
729,182,60.963,69.9094,142.135,109.803,114.318,0.00873308,0.0949992,20.8876,71.0126,-0.364261,0.0,0.0
732,182.75,60.6347,69.4592,142.963,109.834,113.208,0.00872693,0.0947102,20.8881,71.0226,-0.273508,0.0,0.0
735,183.5,60.514,69.48,140.377,109.817,114.335,0.00870027,0.0944585,20.8885,71.0126,-0.36445,0.0,0.0
738,184.25,60.063,68.7107,143.48,109.815,114.07,0.00865362,0.0942449,20.8887,71.0226,-0.343663,0.0,0.0
741,185,60.3008,68.4232,140.759,109.822,112.72,0.008608,0.0940374,20.8889,71.0226,-0.235407,0.0,0.0
744,185.75,59.8424,68.3852,141.494,109.836,115.007,0.00856568,0.0938001,20.8888,71.0126,-0.415859,0.0,0.0
747,186.5,59.793,68.0244,144.539,109.831,113.909,0.00853096,0.0935073,20.8883,70.9826,-0.329634,0.0,0.0
750,187.25,59.2651,67.9684,142.793,109.839,114.617,0.0085112,0.0931519,20.8883,70.9625,-0.384947,0.0,0.0
753,188,59.9761,68.0953,142.665,109.835,113.993,0.00849679,0.0928927,20.8888,70.8825,-0.335928,0.0,0.0
756,188.75,59.4566,67.3836,142.897,109.848,114.23,0.00848628,0.0924379,20.8895,70.9125,-0.353654,0.0,0.0
759,189.5,59.5287,67.4562,140.245,109.851,113.582,0.00847992,0.0920776,20.89,70.9525,-0.301916,0.0,0.0
762,190.25,59.6501,67.2451,144.081,109.834,113.698,0.00847583,0.0917575,20.8904,70.9525,-0.31259,0.0,0.0
765,191,59.082,67.1179,144.352,109.837,114.224,0.00847286,0.0914467,20.8907,70.9625,-0.354012,0.0,0.0
768,191.75,59.2653,67.0862,143.93,109.852,114.033,0.00848177,0.0911628,20.8913,70.9525,-0.337711,0.0,0.0
771,192.5,58.973,66.5894,141.507,109.877,114.953,0.00850642,0.0909314,20.892,70.9525,-0.408255,0.0,0.0
774,193.25,59.2368,66.6568,142.095,109.84,113.777,0.00854577,0.0907484,20.8925,70.9425,-0.318313,0.0,0.0
777,194,59.0497,66.2189,142.973,109.861,114.494,0.0085978,0.090556,20.8928,70.9225,-0.373349,0.0,0.0
780,194.75,58.6034,66.1442,139.297,109.864,114.443,0.00865053,0.0902652,20.8931,70.9025,-0.3691,0.0,0.0
783,195.5,58.8309,65.6121,140.89,109.869,113.21,0.00868898,0.0899501,20.8933,70.9025,-0.270753,0.0,0.0
786,196.25,58.9134,65.8968,139.251,109.887,114.056,0.0087096,0.0896182,20.8934,70.9125,-0.336598,0.0,0.0
789,197,58.8207,65.4361,143.093,109.86,113.806,0.00871508,0.0893189,20.8935,70.9125,-0.318998,0.0,0.0
792,197.75,58.4253,65.5228,143.643,109.877,113.625,0.00870273,0.0890764,20.8942,70.9225,-0.303262,0.0,0.0
795,198.5,58.7658,65.2634,140.69,109.887,113.237,0.00866414,0.0887707,20.8947,70.9425,-0.271515,0.0,0.0
798,199.25,58.3074,65.1148,143.421,109.89,112.73,0.00860232,0.0884929,20.8951,70.9025,-0.230645,0.0,0.0
801,200,58.1298,65.3304,146.139,109.878,113.485,0.00854289,0.0881883,20.8954,70.9125,-0.292039,0.0,0.0
804,200.75,58.083,64.5757,141.496,109.881,112.785,0.0084405,0.0879233,20.896,70.9125,-0.235825,0.0,0.0
807,201.5,58.1457,64.8254,138.326,109.895,113.667,0.00833223,0.0876365,20.8967,70.8825,-0.305066,0.0,0.0
810,202.25,58.0822,64.7224,145.071,109.893,113.532,0.00823897,0.0872986,20.8972,70.8925,-0.294468,0.0,0.0
813,203,57.5507,64.5069,143.775,109.882,113.16,0.00814643,0.086895,20.8975,70.8925,-0.265701,0.0,0.0
816,203.75,57.9861,64.5217,142.502,109.892,114.478,0.00806511,0.0864809,20.8978,70.9025,-0.369599,0.0,0.0
819,204.5,57.699,63.9978,141.4,109.91,113.622,0.00800001,0.086089,20.8979,70.8725,-0.300324,0.0,0.0
822,205.25,57.416,63.9279,145.599,109.9,113.589,0.00794334,0.0857175,20.8981,70.8725,-0.298474,0.0,0.0
825,206,55.9299,62.2567,139.395,109.907,113.93,0.00789931,0.0854101,20.8982,70.8324,-0.324972,0.0,0.0
828,206.75,55.3444,62.0855,143.122,109.906,114.441,0.00786257,0.085084,20.8983,70.8124,-0.36559,0.0,0.0
831,207.5,55.6828,61.7169,144.072,109.925,113.25,0.00782841,0.0848463,20.8983,70.8124,-0.269314,0.0,0.0
834,208.25,55.445,61.7148,142.673,109.923,114.465,0.00780352,0.0846731,20.8988,70.8124,-0.36601,0.0,0.0
837,209,55.2827,61.6015,142.414,109.914,113.867,0.00775826,0.084506,20.8995,70.8424,-0.31941,0.0,0.0
840,209.75,55.7957,61.5861,141.883,109.91,114.131,0.00771372,0.0843699,20.9004,70.8124,-0.340709,0.0,0.0
843,210.5,54.7126,61.7221,138.932,109.933,113.877,0.0076503,0.0842646,20.901,70.8124,-0.318682,0.0,0.0
846,211.25,55.2545,60.9007,140.364,109.923,114.669,0.00757324,0.0841878,20.9015,70.8124,-0.382089,0.0,0.0
849,212,54.8331,61.1393,142.221,109.905,113.804,0.00746523,0.0842949,20.9018,70.8024,-0.315196,0.0,0.0
852,212.75,55.2641,60.7802,144.42,109.914,113.855,0.00734942,0.0843302,20.9021,70.7924,-0.31845,0.0,0.0
855,213.5,55.198,60.8389,139.819,109.928,114.543,0.00720997,0.0843376,20.9023,70.8124,-0.371753,0.0,0.0
858,214.25,55.0705,60.3517,140.451,109.916,113.703,0.00707747,0.0843022,20.9024,70.7924,-0.306212,0.0,0.0
861,215,54.8517,60.4151,147.638,109.921,113.108,0.00696774,0.0842335,20.9025,70.8024,-0.258365,0.0,0.0
864,215.75,54.732,60.2885,143.514,109.931,114.204,0.00689111,0.08412,20.9025,70.8124,-0.344721,0.0,0.0
867,216.5,54.6552,60.1326,141.095,109.919,114.29,0.00680257,0.083915,20.9028,70.8024,-0.352471,0.0,0.0
870,217.25,54.4119,59.7673,142.042,109.918,114.584,0.00672135,0.0836884,20.9034,70.7824,-0.375824,0.0,0.0
873,218,54.1235,60.0124,143.382,109.912,114.231,0.00664018,0.0834213,20.9045,70.7724,-0.348449,0.0,0.0
876,218.75,54.5891,59.6408,137.368,109.905,113.826,0.0065556,0.0832848,20.9053,70.7524,-0.316882,0.0,0.0
879,219.5,54.5449,59.4348,141.386,109.902,114.108,0.00643729,0.0830699,20.9059,70.7524,-0.339446,0.0,0.0
882,220.25,54.381,59.3965,141.754,109.907,113.711,0.00630751,0.0828288,20.9063,70.7524,-0.30762,0.0,0.0
885,221,54.3511,59.1472,141.247,109.89,113.526,0.00619435,0.0825502,20.9066,70.7323,-0.29424,0.0,0.0
888,221.75,54.257,58.8942,142.426,109.887,113.154,0.0061071,0.0822186,20.9068,70.7323,-0.264816,0.0,0.0
891,222.5,54.5113,59.1662,139.755,109.898,113.566,0.0059884,0.0819071,20.9069,70.7524,-0.296801,0.0,0.0
894,223.25,54.1394,59.335,143.968,109.883,113.785,0.00589424,0.0816543,20.9071,70.7423,-0.315415,0.0,0.0
897,224,53.9334,59.0052,145.652,109.867,114.221,0.00578601,0.0814089,20.9072,70.7323,-0.351294,0.0,0.0
900,224.75,53.971,58.5994,143.443,109.854,114.804,0.00569023,0.0812534,20.9072,70.7323,-0.398452,0.0,0.0
903,225.5,53.9087,58.7568,142.775,109.85,113.999,0.00556763,0.0810353,20.9077,70.7223,-0.335166,0.0,0.0
906,226.25,53.6471,58.4946,145.557,109.849,113.462,0.00546282,0.0807621,20.9083,70.7323,-0.292596,0.0,0.0
909,227,53.8924,58.0469,143.243,109.852,113.636,0.00534863,0.0805142,20.9087,70.7423,-0.306112,0.0,0.0
912,227.75,53.7837,58.4919,141.557,109.8125,113.9,0.00524589,0.0803193,20.909,70.7323,-0.330367,0.0,0.0
915,228.5,53.3687,57.929,146.664,109.812,113.299,0.00512923,0.0801711,20.9092,70.7223,-0.28256,0.0,0.0
918,229.25,53.2497,58.2536,140.146,109.812,113.594,0.00502678,0.0799207,20.9093,70.7123,-0.306091,0.0,0.0
921,230,53.4661,58.5676,141.537,109.794,112.916,0.00492233,0.079624,20.9094,70.7223,-0.253426,0.0,0.0
924,230.75,53.431,58.2446,141.702,109.767,113.343,0.00484618,0.079269,20.9095,70.6823,-0.289794,0.0,0.0
927,231.5,53.2296,57.7744,142.796,109.764,113.894,0.00475508,0.0788563,20.9102,70.6623,-0.333862,0.0,0.0
930,232.25,53.9042,57.6571,144.556,109.764,114.013,0.00466281,0.0782505,20.9117,70.6923,-0.343365,0.0,0.0
933,233,53.2942,57.6538,143.566,109.764,112.75,0.00457725,0.0778088,20.9128,70.6923,-0.242656,0.0,0.0
936,233.75,53.6432,57.7126,142.486,109.722,113.935,0.00449457,0.0773145,20.9136,70.7123,-0.340579,0.0,0.0
939,234.5,53.9618,57.7605,142.837,109.716,114.63,0.00440628,0.0766592,20.9142,70.7023,-0.39601,0.0,0.0
942,235.25,53.3228,57.3434,144.114,109.707,113.98,0.00430881,0.0759823,20.9152,70.7023,-0.34543,0.0,0.0
945,236,53.2098,57.6304,141.602,109.699,114.223,0.00416187,0.075329,20.9162,70.7023,-0.365354,0.0,0.0
948,236.75,53.169,57.1434,139.582,109.683,113.26,0.00401414,0.0747246,20.9173,70.6823,-0.29015,0.0,0.0
951,237.5,53.3584,56.7143,145.136,109.657,114.295,0.00383702,0.0739595,20.9188,70.6723,-0.374543,0.0,0.0
954,238.25,53.0033,57.1274,138.587,109.649,114.194,0.00363469,0.07316,20.9201,70.6423,-0.367122,0.0,0.0
957,239,53.011,56.7532,146.276,109.653,112.909,0.00345598,0.0724741,20.9214,70.6423,-0.26458,0.0,0.0
960,239.75,52.8408,56.5866,142.311,109.623,112.388,0.0032592,0.0717106,20.9224,70.6523,-0.225155,0.0,0.0
963,240.5,52.4552,56.969,140.977,109.606,113.503,0.00307924,0.071012,20.9231,70.6323,-0.315824,0.0,0.0
966,241.25,52.995,56.7907,145.519,109.599,112.81,0.00291396,0.0702599,20.9236,70.6523,-0.261027,0.0,0.0
969,242,52.4507,56.5975,142.574,109.589,113.09,0.00276177,0.0694135,20.924,70.6323,-0.284246,0.0,0.0
972,242.75,53.1215,56.4604,141.229,109.583,113.57,0.00260424,0.0685499,20.9252,70.6623,-0.323075,0.0,0.0
975,243.5,52.8554,56.4598,141.538,109.546,113.11,0.00246429,0.0677161,20.9264,70.6323,-0.289409,0.0,0.0
978,244.25,52.735,56.234,143.359,109.552,113.819,0.00235156,0.0668813,20.9273,70.6323,-0.345451,0.0,0.0
981,245,52.7414,56.3759,140.828,109.54,114.497,0.0022493,0.066094,20.9282,70.6423,-0.400093,0.0,0.0
984,245.75,52.5849,56.7717,142.211,109.524,113.44,0.00216686,0.0653797,20.9292,70.6222,-0.317588,0.0,0.0
987,246.5,52.5526,56.1843,140.251,109.502,112.797,0.00210789,0.0646569,20.93,70.6323,-0.267978,0.0,0.0
990,247.25,52.5502,56.3194,142.573,109.478,112.725,0.00207922,0.0639741,20.931,70.6323,-0.26427,0.0,0.0
993,248,52.6769,55.8103,143.292,109.497,113.217,0.00205957,0.06341,20.9319,70.6122,-0.30199,0.0,0.0
996,248.75,52.2058,56.1002,144.378,109.474,114.306,0.00203851,0.0626957,20.9326,70.6222,-0.39052,0.0,0.0
999,249.5,52.5779,55.6937,141.737,109.45,112.716,0.00201075,0.0620335,20.9337,70.6323,-0.265809,0.0,0.0
1002,250.25,51.7501,55.603,142.557,109.434,113.301,0.00195916,0.0614904,20.9345,70.6222,-0.313926,0.0,0.0
1005,251,52.0966,55.8075,145.11,109.429,112.259,0.00190819,0.0608724,20.9351,70.6323,-0.230795,0.0,0.0
1008,251.75,52.4484,55.2653,142.512,109.406,112.712,0.00181718,0.0602805,20.9358,70.6022,-0.269067,0.0,0.0
1011,252.5,52.2395,55.1459,141.925,109.378,113.458,0.00170945,0.0597142,20.9367,70.6122,-0.331036,0.0,0.0
1014,253.25,52.1952,55.5989,141.199,109.38,112.985,0.00159938,0.0591741,20.9373,70.6222,-0.293178,0.0,0.0
1017,254,51.8176,55.3372,143.384,109.368,113.151,0.00151915,0.0585966,20.9378,70.6122,-0.307427,0.0,0.0
1020,254.75,52.9213,55.7014,143.572,109.341,113.063,0.00142322,0.0580972,20.9387,70.6022,-0.302589,0.0,0.0
1023,255.5,51.9827,55.1071,142.291,109.329,113.668,0.00135151,0.0575316,20.9395,70.6222,-0.351806,0.0,0.0
1026,256.25,51.7742,54.8768,139.322,109.317,113.178,0.00129299,0.0571192,20.94,70.5922,-0.313781,0.0,0.0
1029,257,51.952,55.5025,145.2,109.314,113.244,0.00124766,0.0566067,20.9403,70.5922,-0.319289,0.0,0.0
1032,257.75,51.9015,54.9395,142.295,109.299,112.785,0.00117544,0.0560832,20.9411,70.5722,-0.283886,0.0,0.0
1035,258.5,51.656,55.1273,144.588,109.296,113.325,0.00112278,0.0555999,20.9418,70.5822,-0.327288,0.0,0.0
1038,259.25,51.8979,54.8356,141.964,109.261,113.2,0.00102213,0.0550865,20.9423,70.6022,-0.320174,0.0,0.0
1041,260,51.4703,54.9967,142.447,109.286,113.574,0.000933788,0.0546274,20.9427,70.6122,-0.347954,0.0,0.0
1044,260.75,51.8792,54.9404,145.57,109.281,112.215,0.000863014,0.0542567,20.9429,70.6022,-0.23948,0.0,0.0
1047,261.5,52.4203,55.1436,143.603,109.251,112.822,0.00081853,0.0537448,20.9432,70.6022,-0.290803,0.0,0.0
1050,262.25,51.4961,54.6352,143.719,109.241,113.855,0.000792334,0.0533123,20.9433,70.6122,-0.374003,0.0,0.0
1053,263,51.1748,54.9663,145.61,109.236,113.2,0.000778518,0.0528954,20.9434,70.6022,-0.322264,0.0,0.0
1056,263.75,52.089,54.7402,141.327,109.229,113.376,0.000772935,0.0524927,20.9441,70.6022,-0.336852,0.0,0.0
1059,264.5,51.6184,54.3191,143.173,109.226,113.69,0.000772421,0.052157,20.9446,70.6022,-0.362038,0.0,0.0
1062,265.25,51.7423,54.999,142.827,109.196,113.313,0.000772046,0.0517916,20.945,70.6022,-0.334529,0.0,0.0
1065,266,51.7645,54.759,139.975,109.198,113.136,0.000762882,0.0514246,20.9453,70.5822,-0.320214,0.0,0.0
1068,266.75,51.1079,54.545,144.278,109.197,113.908,0.000744983,0.0510866,20.9457,70.5922,-0.381888,0.0,0.0
1071,267.5,51.6567,54.3129,139.613,109.192,113.252,0.000727152,0.0508101,20.9464,70.6022,-0.329976,0.0,0.0
1074,268.25,51.7745,54.4264,140.744,109.185,113.202,0.000696381,0.0504677,20.947,70.5922,-0.326566,0.0,0.0
1077,269,51.2258,54.2316,142.811,109.193,113.316,0.00066772,0.0501366,20.9473,70.6122,-0.335068,0.0,0.0
1080,269.75,51.2734,54.2916,140.903,109.183,113.85,0.000641549,0.0497556,20.9476,70.5822,-0.378409,0.0,0.0
1083,270.5,51.1209,54.4227,145.983,109.176,113.017,0.000617986,0.0494074,20.9478,70.5922,-0.312546,0.0,0.0
1086,271.25,51.4052,54.095,141.438,109.171,113.518,0.000597073,0.0490716,20.948,70.5822,-0.352979,0.0,0.0
1089,272,51.4922,53.9674,141.466,109.159,112.819,0.000580235,0.048738,20.9481,70.5722,-0.298075,0.0,0.0
1092,272.75,51.4033,53.9771,144.935,109.16,113.185,0.000571695,0.0484145,20.9481,70.5522,-0.327324,0.0,0.0
1095,273.5,51.4042,54.1046,142.972,109.158,113.027,0.000570997,0.04808,20.9482,70.5522,-0.314862,0.0,0.0
1098,274.25,51.6163,54.346,141.412,109.155,112.588,0.000577213,0.0477942,20.9482,70.5121,-0.279943,0.0,0.0
1101,275,51.5872,54.0011,145.666,109.155,113.241,0.000588852,0.0475717,20.9483,70.5422,-0.332132,0.0,0.0
1104,275.75,51.1394,53.7539,145.133,109.14,113.243,0.0005936,0.0474035,20.9483,70.5422,-0.333655,0.0,0.0
1107,276.5,51.1269,53.5775,140.2,109.143,113.173,0.000595467,0.0472407,20.9488,70.5322,-0.327749,0.0,0.0
1110,277.25,51.5544,53.7386,140.28,109.124,112.388,0.000565699,0.0470775,20.9493,70.5422,-0.266464,0.0,0.0
1113,278,51.2823,53.9919,142.229,109.13,113.414,0.000530726,0.0468455,20.9497,70.5522,-0.348136,0.0,0.0
1116,278.75,51.0404,53.6938,141.66,109.122,113.659,0.000462641,0.046613,20.9499,70.5722,-0.368283,0.0,0.0
1119,279.5,51.4164,53.6741,146.858,109.119,113.304,0.000413007,0.0464435,20.9501,70.5722,-0.340263,0.0,0.0
1122,280.25,51.5318,53.3151,147.506,109.106,113.339,0.000344903,0.0462998,20.9503,70.6022,-0.344034,0.0,0.0
1125,281,51.001,53.1461,142.469,109.099,113.625,0.000294013,0.046181,20.9504,70.5522,-0.367456,0.0,0.0
1128,281.75,51.4829,53.1232,138.894,109.092,114.039,0.000258346,0.0460884,20.9505,70.5922,-0.400931,0.0,0.0
1131,282.5,51.2638,53.0221,144.219,109.086,113.141,0.000235701,0.0459807,20.9505,70.5922,-0.329943,0.0,0.0
1134,283.25,51.0544,53.4944,142.372,109.083,112.969,0.000226285,0.0459022,20.9506,70.5722,-0.316454,0.0,0.0
1137,284,51.2191,53.7619,145.537,109.063,113.696,0.000224394,0.045845,20.9506,70.5622,-0.376024,0.0,0.0
1140,284.75,51.0907,53.2981,143.44,109.042,114.044,0.000222518,0.0458234,20.9506,70.5822,-0.405482,0.0,0.0
1143,285.5,51.1183,52.8022,141.889,109.048,113.196,0.000218422,0.0458217,20.9511,70.5822,-0.337463,0.0,0.0
1146,286.25,50.8433,53.6252,141.96,109.015,112.873,0.000208455,0.0458116,20.9516,70.6022,-0.314414,0.0,0.0
1149,287,50.7367,52.7821,145.468,108.993,112.621,0.00019224,0.045779,20.952,70.5922,-0.296024,0.0,0.0
1152,287.75,50.8284,53.2066,141.063,108.979,113.157,0.000178646,0.0456949,20.9523,70.6022,-0.340081,0.0,0.0
1155,288.5,50.5791,53.0918,141.463,108.974,113.139,0.000177437,0.0456519,20.9525,70.6122,-0.339071,0.0,0.0
1158,289.25,50.9464,53.1376,139.856,108.955,114.033,0.000179419,0.0455621,20.9526,70.5722,-0.411802,0.0,0.0
1161,290,51.3049,53.3751,144.779,108.935,112.537,0.000191656,0.0454826,20.9527,70.5522,-0.294099,0.0,0.0
1164,290.75,50.7797,52.8716,143.031,108.924,112.217,0.000201544,0.0454186,20.9528,70.5522,-0.269193,0.0,0.0
1167,291.5,50.7079,52.8025,144.713,108.92,112.937,0.000203158,0.0453519,20.9528,70.5622,-0.327385,0.0,0.0
1170,292.25,50.2133,52.5925,141.506,108.904,113.257,0.000175971,0.0453178,20.9529,70.5322,-0.354289,0.0,0.0
1173,293,51.1288,52.8351,144.721,108.887,112.325,0.000156152,0.0452784,20.9529,70.5322,-0.280999,0.0,0.0
1176,293.75,50.5264,52.9826,144.149,108.876,112.508,0.000123984,0.0452296,20.953,70.5222,-0.296597,0.0,0.0
1179,294.5,50.8203,53.0493,141.803,108.863,113.024,9.9291e-05,0.0452222,20.953,70.5322,-0.339048,0.0,0.0
1182,295.25,50.8753,52.7922,144.002,108.857,112.677,7.87997e-05,0.0452288,20.953,70.5922,-0.311776,0.0,0.0
1185,296,50.6317,52.828,140.327,108.829,112.551,6.0508e-05,0.0452537,20.953,70.5622,-0.304028,0.0,0.0
1188,296.75,50.5606,52.4695,147.049,108.813,112.491,4.78908e-05,0.045257,20.953,70.5722,-0.300515,0.0,0.0
1191,297.5,50.8024,52.9377,140.276,108.818,112.94,2.71578e-05,0.0452341,20.953,70.5722,-0.336085,0.0,0.0
1194,298.25,50.7475,52.4529,143.576,108.805,112.179,7.64421e-06,0.0451973,20.953,70.5822,-0.276034,0.0,0.0
1197,299,50.2179,52.6094,145.641,108.798,113.339,5.85535e-06,0.0451779,20.953,70.5822,-0.369619,0.0,0.0
1200,299.75,50.831,52.5527,144.608,108.77,113.186,3.78864e-06,0.0451768,20.953,70.5622,-0.35975,0.0,0.0
1203,300.5,50.5099,52.6472,143.087,108.761,112.534,2.28201e-06,0.0451193,20.9529,70.5622,-0.308316,0.0,0.0
1206,301.25,51.2121,52.5708,142.029,108.747,113.438,3.72155e-05,0.0450386,20.9527,70.5322,-0.381718,0.0,0.0
1209,302,50.7695,52.6095,147.192,108.748,113.454,7.86972e-05,0.0449544,20.9525,70.5822,-0.383011,0.0,0.0
1212,302.75,50.3046,52.5393,145.572,108.711,112.975,0.000110056,0.044893,20.9524,70.5622,-0.347752,0.0,0.0
1215,303.5,50.7315,52.5248,144.385,108.716,112.544,0.000127944,0.0449888,20.9523,70.5722,-0.312885,0.0,0.0
1218,304.25,50.3274,52.565,141.731,108.722,112.891,0.00012271,0.0450587,20.9522,70.5722,-0.340112,0.0,0.0
1221,305,50.1204,52.7404,143.175,108.708,113.068,0.000112007,0.0450694,20.9521,70.5622,-0.355451,0.0,0.0
1224,305.75,50.7652,52.3469,145.803,108.685,111.822,7.05456e-05,0.0450698,20.9521,70.5922,-0.257164,0.0,0.0
1227,306.5,50.8038,52.0332,143.556,108.67,112.072,3.12282e-06,0.0450427,20.9521,70.5822,-0.278629,0.0,0.0
1230,307.25,50.4301,52.4987,143.314,108.677,112.374,-4.60284e-05,0.0449975,20.9521,70.5822,-0.302397,0.0,0.0
1233,308,50.4359,51.9942,140.805,108.654,113.358,-0.000111972,0.0449446,20.952,70.5822,-0.38316,0.0,0.0
1236,308.75,50.2642,52.2422,141.925,108.631,113.334,-0.000147626,0.0449059,20.9527,70.5722,-0.383104,0.0,0.0
1239,309.5,50.2853,52.3378,141.515,108.619,112.938,-0.000158519,0.0448778,20.9531,70.5522,-0.352427,0.0,0.0
1242,310.25,50.5865,52.1013,145.252,108.611,112.922,-0.000149694,0.0448773,20.9535,70.5722,-0.351836,0.0,0.0
1245,311,50.3668,52.3761,145.059,108.595,113.219,-0.000138294,0.0448696,20.9537,70.5522,-0.376894,0.0,0.0
1248,311.75,49.8019,52.1897,144.379,108.576,112.269,-0.000129173,0.0448513,20.9532,70.5522,-0.302335,0.0,0.0
1251,312.5,50.2645,51.7873,144.205,108.561,112.238,-0.000124758,0.0448781,20.9533,70.5422,-0.301068,0.0,0.0
1254,313.25,50.4996,51.9697,143.001,108.541,111.89,-0.000110912,0.0448835,20.9536,70.5422,-0.274706,0.0,0.0
1257,314,50.4374,51.7999,147.505,108.541,112.846,,0.0448741,,70.5222,-0.351587,0.0,0.0
1260,314.75,49.9478,51.8354,141.642,108.525,113.043,,0.0448546,,70.5422,-0.368776,0.0,0.0
1263,315.5,50.1701,51.9064,142.608,108.5,112.451,,0.0448002,,70.5522,-0.32329,0.0,0.0
1266,316.25,49.4299,51.4092,144.257,108.49,112.46,,0.0447605,,70.5522,-0.324912,0.0,0.0
1269,317,50.2093,51.7186,146.988,108.477,113.156,,,,70.5722,-0.381776,0.0,0.0
1272,317.75,49.7799,52.1291,142.622,108.469,112.704,,,,70.5622,-0.346254,0.0,0.0
1275,318.5,49.8818,51.6632,144.959,108.442,111.855,,,,70.5722,-0.280074,0.0,0.0
1278,319.25,50.1454,51.7145,144.41,108.42,112.664,,,,70.5622,-0.347112,0.0,0.0
1281,320,50.1826,51.1915,142.772,108.418,112.602,,,,70.5322,-0.342308,0.0,0.0
1284,320.75,49.9055,51.7796,144.409,108.396,111.738,,,,70.5322,-0.274549,0.0,0.0
1287,321.5,50.0014,51.52,139.451,108.371,112.357,,,,70.5422,-0.326515,0.0,0.0
1290,322.25,49.6582,51.3189,141.952,108.358,112.618,,,,70.5222,-0.348629,0.0,0.0
1293,323,49.6213,51.4228,141.825,108.355,112.594,,,,70.5222,-0.346865,0.0,0.0
1296,323.75,49.81,51.5825,143.024,108.331,112.939,,,,70.5222,-0.376584,0.0,0.0
1299,324.5,49.3567,51.5005,144.298,108.315,112.4,,,,70.5322,-0.334663,0.0,0.0