File: 01_Data/Lightweight_Gypsum_Wallboard_Unpainted_Paper/STA/N2/10K_min/Lightweight_Gypsum_Wallboard_Unpainted_Paper_STA_N2_10KData_220103_R2.csv
##Temp./Â°C,Time/min,DSC(subtr.2)/(mW/mg),Mass loss(subtr.2)/mg,Sensit./(uV/mW)
49.666,10.01,0.0265438,-0.01448,1.07517
50.366,10.75963,0.05909195,-0.01543349,1.07481
51.066,10.9641,0.08580221,-0.01833189,1.07444
51.766,11.1166,0.10687,-0.01632381,1.07408
52.466,11.24472,0.12346,-0.01590218,1.07371
53.166,11.36048,0.1396,-0.01673998,1.07335
53.866,11.46631,0.15134,-0.01686089,1.07298
54.566,11.56594,0.16247,-0.01588315,1.07262
55.266,11.66095,0.17651,-0.01730856,1.07226
55.966,11.7519,0.18452,-0.01655431,1.07189
56.666,11.8397,0.19351,-0.01819047,1.07153
57.366,11.92566,0.19959,-0.01811092,1.07116
58.066,12.01009,0.20647,-0.01700481,1.0708
58.766,12.09309,0.2104,-0.01789367,1.07044
59.466,12.17505,0.21784,-0.01918091,1.07007
60.166,12.25592,0.22299,-0.01834082,1.06971
60.866,12.33575,0.22633,-0.01823022,1.06934
61.566,12.41443,0.23436,-0.01751671,1.06898
62.266,12.49232,0.23808,-0.01946621,1.06862
62.966,12.5701,0.24255,-0.01962963,1.06825
63.666,12.64741,0.24719,-0.01964369,1.06789
64.366,12.7239,0.25025,-0.01988129,1.06753
65.066,12.80015,0.25244,-0.01963424,1.06716
65.766,12.8766,0.25912,-0.02093804,1.0668
66.466,12.95323,0.26257,-0.02094711,1.06644
67.166,13.02915,0.26627,-0.02054544,1.06607
67.866,13.10436,0.27192,-0.019629,1.06571
68.566,13.1787,0.27392,-0.0196491,1.06535
69.266,13.25336,0.27807,-0.01991819,1.06499
69.966,13.3277,0.28416,-0.02007384,1.06462
70.666,13.40265,0.28605,-0.02112444,1.06426
71.366,13.4772,0.28856,-0.0217399,1.0639
72.066,13.5515,0.29293,-0.02226001,1.06353
72.766,13.6254,0.29924,-0.02220942,1.06317
73.466,13.6991,0.30172,-0.02267111,1.06281
74.166,13.7728,0.30573,-0.02209887,1.06245
74.866,13.84631,0.30864,-0.02230422,1.06209
75.566,13.9198,0.31071,-0.02500002,1.06172
76.266,13.9931,0.31515,-0.0261862,1.06136
76.966,14.0665,0.31562,-0.02632001,1.061
77.666,14.1395,0.31749,-0.02629453,1.06064
78.366,14.21226,0.31941,-0.02633011,1.06028
79.066,14.2851,0.32436,-0.02629956,1.05991
79.766,14.35745,0.32712,-0.0276396,1.05955
80.466,14.4301,0.33035,-0.02862986,1.05919
81.166,14.50265,0.33164,-0.0289623,1.05883
81.866,14.57518,0.33407,-0.0298313,1.05847
82.566,14.6472,0.34119,-0.03027003,1.05811
83.266,14.71899,0.3433,-0.03024436,1.05775
83.966,14.79049,0.34742,-0.03158863,1.05738
84.666,14.862,0.35204,-0.03258025,1.05702
85.366,14.9332,0.35524,-0.03267743,1.05666
86.066,15.0045,0.36079,-0.03422713,1.0563
86.766,15.0753,0.36475,-0.03422108,1.05594
87.466,15.14606,0.36859,-0.03680045,1.05558
88.166,15.21662,0.37435,-0.03684301,1.05522
88.866,15.2871,0.37757,-0.03688354,1.05486
89.566,15.35738,0.383,-0.03687242,1.0545
90.266,15.4279,0.38475,-0.03816858,1.05414
90.966,15.4981,0.38807,-0.03915164,1.05378
91.666,15.56833,0.39064,-0.0394913,1.05342
92.366,15.63824,0.39095,-0.04081786,1.05306
93.066,15.70817,0.39253,-0.04176416,1.0527
93.766,15.7778,0.39089,-0.0421197,1.05234
94.466,15.8471,0.39282,-0.04213336,1.05198
95.166,15.9163,0.39353,-0.04342928,1.05162
95.866,15.9856,0.39285,-0.04342998,1.05126
96.566,16.0548,0.39166,-0.04367821,1.0509
97.266,16.12405,0.39134,-0.04607834,1.05054
97.966,16.19314,0.38737,-0.04738817,1.05018
98.666,16.26247,0.38443,-0.04739,1.04982
99.366,16.33181,0.38472,-0.04738999,1.04946
100.066,16.40098,0.38187,-0.04745608,1.0491
100.766,16.47017,0.38112,-0.04903002,1.04874
101.466,16.53931,0.37934,-0.04995895,1.04838
102.166,16.60836,0.37739,-0.05035,1.04802
102.866,16.67735,0.37321,-0.05029394,1.04766
103.566,16.74612,0.37002,-0.05231192,1.0473
104.266,16.8146,0.37087,-0.05265,1.04694
104.966,16.88342,0.3648,-0.05407006,1.04659
105.666,16.9525,0.36408,-0.05264955,1.04623
106.366,17.02211,0.36201,-0.05265061,1.04587
107.066,17.0909,0.36004,-0.05528251,1.04551
107.766,17.15951,0.35738,-0.05660066,1.04515
108.466,17.22782,0.35373,-0.05627406,1.04479
109.166,17.29656,0.35388,-0.05627,1.04443
109.866,17.36504,0.3495,-0.0563353,1.04408
110.566,17.4339,0.34731,-0.05739582,1.04372
111.266,17.50224,0.346,-0.05758043,1.04336
111.966,17.57054,0.34614,-0.05758,1.043
112.666,17.63905,0.34423,-0.05758086,1.04264
113.366,17.70741,0.34286,-0.05889902,1.04229
114.066,17.77613,0.33902,-0.05791708,1.04193
114.766,17.84465,0.33797,-0.05840881,1.04157
115.466,17.9134,0.33589,-0.06089897,1.04121
116.166,17.98191,0.3358,-0.06102773,1.04085
116.866,18.0504,0.33376,-0.06021999,1.0405
117.566,18.11872,0.33243,-0.06022058,1.04014
118.266,18.1869,0.33256,-0.06152138,1.03978
118.966,18.255,0.33445,-0.06239036,1.03942
119.666,18.3233,0.33441,-0.06321894,1.03907
120.366,18.39157,0.3323,-0.06287551,1.03871
121.066,18.45978,0.33255,-0.06285,1.03835
121.766,18.52754,0.33296,-0.06284997,1.038
122.466,18.59569,0.33034,-0.06322588,1.03764
123.166,18.6637,0.33083,-0.06318992,1.03728
123.866,18.732,0.32774,-0.06350989,1.03692
124.566,18.79999,0.3258,-0.06351,1.03657
125.266,18.86725,0.32279,-0.06350997,1.03621
125.966,18.93506,0.32295,-0.06397428,1.03585
126.666,19.003,0.31864,-0.06415817,1.0355
127.366,19.07176,0.31751,-0.06416,1.03514
128.066,19.13961,0.31195,-0.06415996,1.03478
128.766,19.20776,0.31155,-0.06448584,1.03443
129.466,19.27565,0.3072,-0.06451785,1.03407
130.166,19.34369,0.30512,-0.06548054,1.03372
130.866,19.41186,0.30234,-0.06548,1.03336
131.566,19.47972,0.30369,-0.06547992,1.033
132.266,19.54769,0.30072,-0.06679331,1.03265
132.966,19.61542,0.29811,-0.06679,1.03229
133.666,19.68328,0.29649,-0.06679,1.03193
134.366,19.75098,0.29685,-0.06679,1.03158
135.066,19.81863,0.29567,-0.06678999,1.03122
135.766,19.88629,0.29324,-0.06714768,1.03087
136.466,19.95407,0.29073,-0.06689499,1.03051
137.166,20.0219,0.29129,-0.06681218,1.03016
137.866,20.0896,0.29128,-0.06811843,1.0298
138.566,20.15737,0.29007,-0.06746024,1.02944
139.266,20.22501,0.28778,-0.06775189,1.02909
139.966,20.29278,0.28827,-0.06779779,1.02873
140.666,20.3603,0.28923,-0.06778,1.02838
141.366,20.42776,0.28887,-0.06778,1.02802
142.066,20.4952,0.28833,-0.0677776,1.02767
142.766,20.56204,0.28926,-0.06810681,1.02731
143.466,20.62934,0.28517,-0.06942323,1.02696
144.166,20.6967,0.28607,-0.06886652,1.0266
144.866,20.76468,0.28443,-0.06672204,1.02625
145.566,20.8324,0.28324,-0.06677659,1.02589
146.266,20.90009,0.28533,-0.06680762,1.02554
146.966,20.96741,0.28543,-0.06713006,1.02518
147.666,21.035,0.28219,-0.06818227,1.02483
148.366,21.10278,0.28515,-0.06844002,1.02447
149.066,21.17095,0.28476,-0.06843028,1.02412
149.766,21.23861,0.28499,-0.06844505,1.02376
150.466,21.30604,0.28461,-0.06812054,1.02341
151.166,21.3734,0.28343,-0.06845256,1.02305
151.866,21.44061,0.28437,-0.06879228,1.0227
152.566,21.50787,0.28516,-0.0677782,1.02234
153.266,21.5752,0.28472,-0.06843932,1.02199
153.966,21.64258,0.28712,-0.06964203,1.02164
154.666,21.7098,0.2875,-0.07008989,1.02128
155.366,21.77702,0.28844,-0.06877837,1.02093
156.066,21.8444,0.2889,-0.06877094,1.02057
156.766,21.91171,0.28895,-0.06778677,1.02022
157.466,21.97874,0.29093,-0.06778982,1.01986
158.166,22.04542,0.29101,-0.07053984,1.01951
158.866,22.11234,0.29061,-0.07040999,1.01916
159.566,22.17938,0.28781,-0.07040968,1.0188
160.266,22.24725,0.28883,-0.0691078,1.01845
160.966,22.31468,0.29158,-0.06907053,1.01809
161.666,22.38216,0.2902,-0.06910053,1.01774
162.366,22.44932,0.29034,-0.0691,1.01739
163.066,22.51634,0.29053,-0.06909416,1.01703
163.766,22.58326,0.28843,-0.07140615,1.01668
164.466,22.6507,0.28992,-0.07141,1.01633
165.166,22.718,0.29029,-0.07141003,1.01597
165.866,22.78546,0.29059,-0.0700046,1.01562
166.566,22.8524,0.29117,-0.07008992,1.01526
167.266,22.91968,0.29094,-0.07042187,1.01491
167.966,22.9866,0.29313,-0.07041999,1.01456
168.666,23.05399,0.29426,-0.07046283,1.0142
169.366,23.12115,0.29231,-0.0717269,1.01385
170.066,23.18845,0.29579,-0.07040889,1.0135
170.766,23.25542,0.29557,-0.07070331,1.01314
171.466,23.32235,0.29709,-0.07172994,1.01279
172.166,23.38952,0.29722,-0.07173361,1.01244
172.866,23.45676,0.29874,-0.07175736,1.01208
173.566,23.524,0.29947,-0.07295189,1.01173
174.266,23.59127,0.29967,-0.07304957,1.01138
174.966,23.65825,0.30002,-0.0717276,1.01102
175.666,23.72534,0.30172,-0.07066033,1.01067
176.366,23.7925,0.29958,-0.07041998,1.01032
177.066,23.85965,0.3008,-0.07041917,1.00996
177.766,23.92699,0.30065,-0.0730464,1.00961
178.466,23.9941,0.29988,-0.07239404,1.00926
179.166,24.0612,0.3034,-0.07305003,1.0089
179.866,24.12807,0.30229,-0.07305,1.00855
180.566,24.19514,0.30287,-0.0730495,1.0082
181.266,24.2622,0.30393,-0.07436002,1.00785
181.966,24.32924,0.30416,-0.0730495,1.00749
182.666,24.39622,0.30435,-0.07304999,1.00714
183.366,24.46303,0.30643,-0.07314078,1.00679
184.066,24.53,0.30682,-0.07337998,1.00643
184.766,24.5968,0.30844,-0.07336328,1.00608
185.466,24.66388,0.30601,-0.07338,1.00573
186.166,24.731,0.31001,-0.07338,1.00538
186.866,24.7977,0.31068,-0.07338,1.00502
187.566,24.86443,0.31041,-0.07338,1.00467
188.266,24.93121,0.3108,-0.07337999,1.00432
188.966,24.99827,0.30881,-0.07456657,1.00396
189.666,25.06546,0.30949,-0.07339222,1.00361
190.366,25.13247,0.30916,-0.07469449,1.00326
191.066,25.19957,0.30885,-0.07502238,1.00291
191.766,25.26645,0.30885,-0.0763839,1.00255
192.466,25.33323,0.31064,-0.07633999,1.0022
193.166,25.40024,0.31233,-0.07634,1.00185
193.866,25.467,0.30973,-0.07633999,1.00149
194.566,25.53386,0.31153,-0.07639473,1.00114
195.266,25.60074,0.31243,-0.07568004,1.00079
195.966,25.66764,0.31315,-0.07681902,1.00044
196.666,25.7344,0.31299,-0.07831819,1.00008
197.366,25.80097,0.31188,-0.07829648,0.99973
198.066,25.86767,0.31229,-0.07799003,0.99938
198.766,25.9344,0.3145,-0.07799,0.99903
199.466,26.0012,0.31566,-0.07799,0.99867
200.166,26.06823,0.31396,-0.07799,0.99832
200.866,26.1351,0.31681,-0.07799,0.99797
201.566,26.2018,0.31698,-0.07799012,0.99762
202.266,26.26835,0.318,-0.07898893,0.99726
202.966,26.33506,0.31894,-0.07896998,0.99691
203.666,26.4019,0.31767,-0.07902346,0.99656
204.366,26.46862,0.31958,-0.07962982,0.9962
205.066,26.53534,0.32044,-0.0779817,0.99585
205.766,26.60202,0.32215,-0.07968208,0.9955
206.466,26.6689,0.32251,-0.08128967,0.99515
207.166,26.7356,0.3221,-0.08126999,0.99479
207.866,26.80225,0.32112,-0.08127,0.99444
208.566,26.86901,0.32186,-0.08127049,0.99409
209.266,26.9357,0.32258,-0.08257804,0.99374
209.966,27.0025,0.32356,-0.08144235,0.99338
210.666,27.069,0.32254,-0.08154775,0.99303
211.366,27.1351,0.32463,-0.08186741,0.99268
212.066,27.2016,0.3239,-0.08427657,0.99233
212.766,27.26865,0.32555,-0.08422399,0.99197
213.466,27.3361,0.32326,-0.08290901,0.99162
214.166,27.40318,0.32139,-0.0852215,0.99127
214.866,27.4701,0.3237,-0.08389413,0.99091
215.566,27.53684,0.32471,-0.0839001,0.99056
216.266,27.60384,0.3239,-0.08519332,0.99021
216.966,27.67077,0.32707,-0.08522,0.98986
217.666,27.73773,0.32647,-0.08522023,0.9895
218.366,27.8045,0.32526,-0.08384921,0.98915
219.066,27.8713,0.32672,-0.08557605,0.9888
219.766,27.9382,0.32675,-0.08683028,0.98844
220.466,28.00518,0.32712,-0.08819188,0.98809
221.166,28.07217,0.32823,-0.08949848,0.98774
221.866,28.13924,0.32621,-0.09009619,0.98739
222.566,28.206,0.32765,-0.09081943,0.98703
223.266,28.2729,0.32924,-0.09152628,0.98668
223.966,28.33973,0.32965,-0.09213432,0.98633
224.666,28.4067,0.33126,-0.09282352,0.98597
225.366,28.4736,0.32907,-0.09312005,0.98562
226.066,28.54053,0.32857,-0.09349635,0.98527
226.766,28.60742,0.32991,-0.09443993,0.98491
227.466,28.6744,0.32878,-0.09444,0.98456
228.166,28.74132,0.33354,-0.09443995,0.98421
228.866,28.80828,0.33263,-0.09478181,0.98385
229.566,28.8751,0.33195,-0.09601284,0.9835
230.266,28.94197,0.33138,-0.09740015,0.98315
230.966,29.009,0.33283,-0.09870967,0.98279
231.666,29.0759,0.33312,-0.09880268,0.98244
232.366,29.14273,0.33121,-0.1012,0.98209
233.066,29.2092,0.33284,-0.10004,0.98173
233.766,29.2755,0.33324,-0.10134,0.98138
234.466,29.34188,0.3345,-0.10133,0.98103
235.166,29.4083,0.3368,-0.10364,0.98067
235.866,29.47547,0.3352,-0.10474,0.98032
236.566,29.54294,0.33825,-0.10587,0.97997
237.266,29.61008,0.33931,-0.10628,0.97961
237.966,29.6769,0.33823,-0.10761,0.97926
238.666,29.74333,0.34064,-0.10892,0.9789
239.366,29.81005,0.33851,-0.10892,0.97855
240.066,29.8771,0.34017,-0.11023,0.9782
240.766,29.944,0.34134,-0.11161,0.97784
241.466,30.01088,0.33945,-0.11319,0.97749
242.166,30.07756,0.3397,-0.11586,0.97713
242.866,30.1444,0.34129,-0.11684,0.97678
243.566,30.2112,0.34503,-0.11847,0.97643
244.266,30.27802,0.34546,-0.11979,0.97607
244.966,30.34485,0.34288,-0.1211,0.97572
245.666,30.41163,0.34637,-0.1211,0.97536
246.366,30.4785,0.34489,-0.12241,0.97501
247.066,30.5454,0.34311,-0.12374,0.97465
247.766,30.61243,0.3433,-0.12506,0.9743
248.466,30.67888,0.34285,-0.12665,0.97394
249.166,30.7457,0.34188,-0.12831,0.97359
249.866,30.8124,0.33951,-0.13046,0.97324
250.566,30.87971,0.34051,-0.13195,0.97288
251.266,30.94665,0.34098,-0.13347,0.97253
251.966,31.0136,0.34017,-0.13652,0.97217
252.666,31.08025,0.341,-0.13843,0.97182
253.366,31.1471,0.34203,-0.14021,0.97146
254.066,31.21371,0.34081,-0.14302,0.97111
254.766,31.2805,0.3413,-0.14433,0.97075
255.466,31.34727,0.3428,-0.14472,0.9704
256.166,31.4139,0.34323,-0.14726,0.97004
256.866,31.4807,0.34402,-0.14968,0.96968
257.566,31.5478,0.3451,-0.15234,0.96933
258.266,31.61494,0.34361,-0.15481,0.96897
258.966,31.68205,0.3427,-0.15888,0.96862
259.666,31.74891,0.34118,-0.16158,0.96826
260.366,31.81567,0.34446,-0.16385,0.96791
261.066,31.88245,0.34584,-0.16671,0.96755
261.766,31.94916,0.34701,-0.17133,0.96719
262.466,32.01591,0.34579,-0.17452,0.96684
263.166,32.08272,0.34598,-0.17584,0.96648
263.866,32.1496,0.34675,-0.17846,0.96613
264.566,32.21649,0.34772,-0.18135,0.96577
265.266,32.2832,0.35024,-0.18559,0.96541
265.966,32.35,0.3525,-0.18943,0.96506
266.666,32.41686,0.35285,-0.1925,0.9647
267.366,32.48389,0.34964,-0.19774,0.96434
268.066,32.551,0.35219,-0.20158,0.96399
268.766,32.6179,0.35072,-0.2059,0.96363
269.466,32.68497,0.35525,-0.20915,0.96327
270.166,32.75196,0.3534,-0.21312,0.96292
270.866,32.81912,0.35607,-0.21671,0.96256
271.566,32.88601,0.35744,-0.22072,0.9622
272.266,32.95293,0.35863,-0.22684,0.96184
272.966,33.01979,0.36054,-0.23088,0.96149
273.666,33.08697,0.36528,-0.23695,0.96113
274.366,33.15388,0.36508,-0.24186,0.96077
275.066,33.22081,0.36874,-0.24741,0.96041
275.766,33.28795,0.37143,-0.25487,0.96006
276.466,33.3551,0.37286,-0.25954,0.9597
277.166,33.42222,0.37661,-0.26464,0.95934
277.866,33.48921,0.37884,-0.27023,0.95898
278.566,33.55622,0.37912,-0.27781,0.95862
279.266,33.6233,0.3824,-0.28462,0.95827
279.966,33.6903,0.38842,-0.29112,0.95791
280.666,33.75756,0.39016,-0.29722,0.95755
281.366,33.8248,0.39464,-0.3046,0.95719
282.066,33.89219,0.39585,-0.31109,0.95683
282.766,33.9593,0.39977,-0.31814,0.95647
283.466,34.02668,0.4031,-0.32597,0.95611
284.166,34.09397,0.4072,-0.33344,0.95575
284.866,34.1614,0.40994,-0.34085,0.9554
285.566,34.22872,0.41369,-0.3489,0.95504
286.266,34.29602,0.41663,-0.35793,0.95468
286.966,34.3633,0.42101,-0.36477,0.95432
287.666,34.4306,0.42604,-0.37371,0.95396
288.366,34.4977,0.42735,-0.38186,0.9536
289.066,34.56499,0.43129,-0.39054,0.95324
289.766,34.632,0.4342,-0.40034,0.95288
290.466,34.69941,0.44167,-0.4111,0.95252
291.166,34.76664,0.44623,-0.41941,0.95216
291.866,34.83405,0.4493,-0.43198,0.9518
292.566,34.90136,0.45315,-0.44099,0.95144
293.266,34.96862,0.4581,-0.45237,0.95108
293.966,35.03606,0.46425,-0.46264,0.95071
294.666,35.10333,0.46648,-0.47321,0.95035
295.366,35.1708,0.4702,-0.48428,0.94999
296.066,35.23808,0.47836,-0.49576,0.94963
296.766,35.30553,0.48027,-0.50758,0.94927
297.466,35.37298,0.48529,-0.51872,0.94891
298.166,35.4402,0.48862,-0.53049,0.94855
298.866,35.5077,0.49155,-0.54237,0.94819
299.566,35.57504,0.49722,-0.55348,0.94782
300.266,35.6425,0.50078,-0.56587,0.94746
300.966,35.70982,0.50582,-0.57844,0.9471
301.666,35.77722,0.50693,-0.59272,0.94674
302.366,35.84453,0.51209,-0.60494,0.94637
303.066,35.91148,0.51435,-0.61934,0.94601
303.766,35.9788,0.5201,-0.63351,0.94565
304.466,36.04656,0.52216,-0.64778,0.94529
305.166,36.11453,0.52844,-0.65975,0.94492
305.866,36.1817,0.53194,-0.67672,0.94456
306.566,36.24913,0.53495,-0.69027,0.9442
307.266,36.31653,0.53838,-0.70477,0.94383
307.966,36.38398,0.54427,-0.72003,0.94347
308.666,36.4514,0.54592,-0.73563,0.94311
309.366,36.51873,0.55165,-0.75037,0.94274
310.066,36.58623,0.55581,-0.76615,0.94238
310.766,36.65359,0.55841,-0.783,0.94201
311.466,36.7208,0.56307,-0.79852,0.94165
312.166,36.7882,0.56696,-0.81454,0.94128
312.866,36.85572,0.56996,-0.83138,0.94092
313.566,36.92338,0.57462,-0.84777,0.94055
314.266,36.9908,0.5775,-0.86352,0.94019
314.966,37.0579,0.58084,-0.8818,0.93982
315.666,37.12498,0.58614,-0.8977,0.93946
316.366,37.1922,0.58569,-0.91469,0.93909
317.066,37.2597,0.59326,-0.93227,0.93873
317.766,37.3273,0.59491,-0.95131,0.93836
318.466,37.3947,0.59998,-0.96941,0.938
319.166,37.4619,0.60479,-0.98853,0.93763
319.866,37.52898,0.60639,-1.00741,0.93726
320.566,37.59615,0.61087,-1.02487,0.9369
321.266,37.66344,0.61376,-1.04188,0.93653
321.966,37.73103,0.61769,-1.0613,0.93616
322.666,37.79815,0.62088,-1.08075,0.9358
323.366,37.86578,0.62389,-1.10053,0.93543
324.066,37.93327,0.62876,-1.12089,0.93506
324.766,38.001,0.63361,-1.14119,0.93469
325.466,38.0687,0.64066,-1.16184,0.93432
326.166,38.13615,0.64285,-1.18203,0.93396
326.866,38.20388,0.64496,-1.20272,0.93359
327.566,38.27148,0.65272,-1.22278,0.93322
328.266,38.3392,0.6561,-1.24506,0.93285
328.966,38.40696,0.66258,-1.26654,0.93248
329.666,38.4747,0.66805,-1.28768,0.93211
330.366,38.54248,0.67438,-1.31157,0.93174
331.066,38.61036,0.68029,-1.335,0.93138
331.766,38.67824,0.68556,-1.35645,0.93101
332.466,38.74609,0.69264,-1.37975,0.93064
333.166,38.81366,0.69966,-1.40268,0.93027
333.866,38.8812,0.70614,-1.4271,0.9299
334.566,38.94876,0.71616,-1.45127,0.92953
335.266,39.01635,0.71834,-1.47705,0.92916
335.966,39.08397,0.72567,-1.50128,0.92878
336.666,39.15161,0.73608,-1.52721,0.92841
337.366,39.21949,0.73787,-1.55355,0.92804
338.066,39.2873,0.74929,-1.57964,0.92767
338.766,39.3549,0.75491,-1.60523,0.9273
339.466,39.42257,0.76358,-1.63212,0.92693
340.166,39.4901,0.768,-1.65992,0.92656
340.866,39.5576,0.77443,-1.68651,0.92618
341.566,39.62512,0.78077,-1.7142,0.92581
342.266,39.69279,0.78859,-1.74265,0.92544
342.966,39.76078,0.79287,-1.7712,0.92507
343.666,39.8286,0.79709,-1.80002,0.92469
344.366,39.89632,0.80108,-1.82974,0.92432
345.066,39.964,0.80522,-1.8602,0.92395
345.766,40.03167,0.80772,-1.88961,0.92357
346.466,40.09966,0.81157,-1.92027,0.9232
347.166,40.16758,0.81022,-1.95006,0.92283
347.866,40.2355,0.80886,-1.97698,0.92245
348.566,40.30322,0.80714,-2.00729,0.92208
349.266,40.37077,0.80162,-2.03885,0.9217
349.966,40.4385,0.79671,-2.06664,0.92133
350.666,40.5065,0.78935,-2.09692,0.92095
351.366,40.57452,0.77849,-2.12647,0.92058
352.066,40.6428,0.76744,-2.15534,0.9202
352.766,40.71055,0.75331,-2.18298,0.91983
353.466,40.77858,0.7403,-2.21105,0.91945
354.166,40.8464,0.72534,-2.23731,0.91907
354.866,40.9143,0.70819,-2.26427,0.9187
355.566,40.98213,0.68748,-2.28943,0.91832
356.266,41.0498,0.66478,-2.31606,0.91794
356.966,41.1177,0.64071,-2.34159,0.91757
357.666,41.1856,0.6177,-2.36482,0.91719
358.366,41.2534,0.59535,-2.38787,0.91681
359.066,41.32065,0.5704,-2.40864,0.91643
359.766,41.38824,0.54058,-2.42783,0.91606
360.466,41.45615,0.51604,-2.44635,0.91568
361.166,41.52445,0.4893,-2.46704,0.9153
361.866,41.59236,0.46048,-2.48616,0.91492
362.566,41.6601,0.43353,-2.50316,0.91454
363.266,41.72781,0.40824,-2.52014,0.91416
363.966,41.7956,0.38168,-2.53405,0.91378
364.666,41.86332,0.35548,-2.54828,0.9134
365.366,41.93103,0.32861,-2.56043,0.91302
366.066,41.9987,0.30574,-2.57264,0.91264
366.766,42.06648,0.2819,-2.5838,0.91226
367.466,42.134,0.26067,-2.59246,0.91188
368.166,42.20145,0.23663,-2.60075,0.9115
368.866,42.26878,0.21563,-2.60911,0.91112
369.566,42.3362,0.19642,-2.61956,0.91074
370.266,42.4037,0.17714,-2.62666,0.91035
370.966,42.47117,0.16088,-2.63183,0.90997
371.666,42.53853,0.14225,-2.63602,0.90959
372.366,42.60603,0.13062,-2.64144,0.90921
373.066,42.67371,0.1188,-2.64637,0.90883
373.766,42.74138,0.10541,-2.64948,0.90844
374.466,42.80916,0.09942663,-2.654,0.90806
375.166,42.8769,0.08955304,-2.65746,0.90768
375.866,42.94485,0.08444214,-2.66065,0.90729
376.566,43.01276,0.07559636,-2.66383,0.90691
377.266,43.0807,0.0708788,-2.66695,0.90652
377.966,43.14857,0.06571263,-2.6701,0.90614
378.666,43.2164,0.06268005,-2.67071,0.90575
379.366,43.28441,0.06065681,-2.67261,0.90537
380.066,43.35229,0.05618353,-2.6754,0.90498
380.766,43.42,0.05468614,-2.67842,0.9046
381.466,43.48747,0.05173167,-2.68002,0.90421
382.166,43.55511,0.04939586,-2.68304,0.90383
382.866,43.62317,0.04971405,-2.68582,0.90344
383.566,43.69141,0.04537943,-2.68707,0.90305
384.266,43.7595,0.04471961,-2.6884,0.90266
384.966,43.82737,0.04417887,-2.69094,0.90228
385.666,43.89532,0.04057106,-2.69214,0.90189
386.366,43.96331,0.03999555,-2.69469,0.9015
387.066,44.03134,0.03686602,-2.69687,0.90111
387.766,44.09932,0.03346162,-2.69851,0.90073
388.466,44.16722,0.03232225,-2.69906,0.90034
389.166,44.23513,0.0314234,-2.70235,0.89995
389.866,44.3033,0.02985001,-2.7049,0.89956
390.566,44.37148,0.02972465,-2.70893,0.89917
391.266,44.43991,0.02648401,-2.70892,0.89878
391.966,44.50797,0.02694502,-2.71169,0.89839
392.666,44.57612,0.02451437,-2.71405,0.898
393.366,44.64412,0.02457857,-2.71308,0.89761
394.066,44.7123,0.02215041,-2.71485,0.89722
394.766,44.78066,0.02125279,-2.7184,0.89683
395.466,44.84891,0.02015568,-2.72189,0.89643
396.166,44.91722,0.01918103,-2.72426,0.89604
396.866,44.9856,0.01802454,-2.72563,0.89565
397.566,45.05418,0.0169778,-2.72744,0.89526
398.266,45.12275,0.01795588,-2.72736,0.89487
398.966,45.19124,0.01910243,-2.72871,0.89447
399.666,45.25967,0.01717517,-2.73127,0.89408
400.366,45.3281,0.0131605,-2.73254,0.89369
401.066,45.39645,0.01376336,-2.73507,0.89329
401.766,45.46483,0.009751014,-2.73628,0.8929
402.466,45.53325,0.01123516,-2.73884,0.8925
403.166,45.6015,0.01196276,-2.74027,0.89211
403.866,45.66972,0.009329106,-2.7416,0.89171
404.566,45.73799,0.009213439,-2.74415,0.89132
405.266,45.80645,0.0090905,-2.74677,0.89092
405.966,45.87464,0.01174412,-2.74689,0.89053
406.666,45.94277,0.00794184,-2.74879,0.89013
407.366,46.0111,0.0105192,-2.75095,0.88973
408.066,46.07962,0.00513762,-2.75389,0.88934
408.766,46.1481,0.009915891,-2.75782,0.88894
409.466,46.21631,0.007263034,-2.75904,0.88854
410.166,46.28463,0.00631412,-2.75915,0.88814
410.866,46.35284,0.009259021,-2.76047,0.88774
411.566,46.4211,0.008863876,-2.76338,0.88735
412.266,46.4893,0.007077959,-2.76595,0.88695
412.966,46.5578,0.00572631,-2.76622,0.88655
413.666,46.62628,0.00732969,-2.76744,0.88615
414.366,46.6946,0.00608249,-2.77004,0.88575
415.066,46.76291,0.005319851,-2.77013,0.88535
415.766,46.83099,0.0056412,-2.77144,0.88495
416.466,46.8992,0.006569286,-2.77368,0.88455
417.166,46.96732,0.003758364,-2.77597,0.88415
417.866,47.03562,0.00743665,-2.77945,0.88374
418.566,47.104,0.007647151,-2.78079,0.88334
419.266,47.17257,0.006107373,-2.78212,0.88294
419.966,47.24086,0.006059991,-2.78365,0.88254
420.666,47.30924,0.005850735,-2.78493,0.88214
421.366,47.3776,0.006635645,-2.78642,0.88173
422.066,47.44614,0.00722312,-2.78895,0.88133
422.766,47.5145,0.0070856,-2.79015,0.88093
423.466,47.5828,0.008102854,-2.79151,0.88052
424.166,47.65121,0.00537298,-2.79282,0.88012
424.866,47.71972,0.00279092,-2.79544,0.87971
425.566,47.78816,0.00554797,-2.7968,0.87931
426.266,47.85649,0.004487158,-2.79944,0.8789
426.966,47.9249,0.005328889,-2.79967,0.8785
427.666,47.99353,0.0076115,-2.8009,0.87809
428.366,48.06218,0.006028087,-2.802,0.87768
429.066,48.131,0.00669288,-2.80378,0.87728
429.766,48.19983,0.00630628,-2.80599,0.87687
430.466,48.2685,0.008227563,-2.80727,0.87646
431.166,48.3373,0.009819806,-2.80906,0.87606
431.866,48.406,0.0086682,-2.81125,0.87565
432.566,48.47505,0.01110803,-2.81263,0.87524
433.266,48.54388,0.01258188,-2.81544,0.87483
433.966,48.61261,0.01194935,-2.81685,0.87442
434.666,48.68124,0.009076891,-2.81815,0.87401
435.366,48.75,0.01241268,-2.81883,0.8736
436.066,48.8189,0.01367389,-2.81949,0.87319
436.766,48.88766,0.01846275,-2.82018,0.87278
437.466,48.95645,0.01813996,-2.82295,0.87237
438.166,49.02535,0.01813755,-2.82428,0.87196
438.866,49.09414,0.01878913,-2.82411,0.87155
439.566,49.1629,0.02084023,-2.82745,0.87114
440.266,49.23162,0.02390261,-2.8295,0.87072
440.966,49.30048,0.0189089,-2.83078,0.87031
441.666,49.36934,0.02171538,-2.8308,0.8699
442.366,49.4379,0.01970835,-2.83125,0.86948
443.066,49.5063,0.02009895,-2.83208,0.86907
443.766,49.57492,0.02480889,-2.8334,0.86866
444.466,49.64397,0.02344114,-2.837,0.86824
445.166,49.71321,0.02361147,-2.83829,0.86783
445.866,49.78212,0.0266907,-2.83971,0.86741
446.566,49.85099,0.02537726,-2.84086,0.867
447.266,49.91981,0.02677457,-2.8435,0.86658
447.966,49.98868,0.02790196,-2.84347,0.86617
448.666,50.05761,0.02565832,-2.84425,0.86575
449.366,50.12645,0.02527148,-2.84628,0.86533
450.066,50.1954,0.02646542,-2.84732,0.86491
450.766,50.2641,0.02802107,-2.85025,0.8645
451.466,50.33299,0.02481605,-2.84993,0.86408
452.166,50.40201,0.02657329,-2.85053,0.86366
452.866,50.471,0.03008619,-2.85184,0.86324
453.566,50.53982,0.02954878,-2.85316,0.86282
454.266,50.6085,0.02892558,-2.85447,0.8624
454.966,50.67718,0.02933288,-2.85582,0.86198
455.666,50.74563,0.02670535,-2.85675,0.86156
456.366,50.81428,0.02682356,-2.85667,0.86114
457.066,50.88304,0.02713263,-2.85812,0.86072
457.766,50.95197,0.02947856,-2.86071,0.8603
458.466,51.02082,0.03132984,-2.86204,0.85988
459.166,51.08963,0.03409814,-2.86072,0.85946
459.866,51.1586,0.03276215,-2.86337,0.85903
460.566,51.22725,0.03378612,-2.86463,0.85861
461.266,51.29595,0.03588858,-2.86491,0.85819
461.966,51.3645,0.03163334,-2.86654,0.85776
462.666,51.43325,0.03641982,-2.86765,0.85734
463.366,51.502,0.03908817,-2.86895,0.85692
464.066,51.57052,0.03827109,-2.87026,0.85649
464.766,51.63919,0.03776736,-2.87026,0.85607
465.466,51.7077,0.0400348,-2.8728,0.85564
466.166,51.77659,0.03862773,-2.87433,0.85521
466.866,51.8453,0.03952066,-2.87448,0.85479
467.566,51.91406,0.03860577,-2.87531,0.85436
468.266,51.98272,0.03595453,-2.87401,0.85393
468.966,52.0515,0.03916474,-2.87542,0.85351
469.666,52.12024,0.0408262,-2.87729,0.85308
470.366,52.18909,0.04264274,-2.87872,0.85265
471.066,52.25781,0.04087884,-2.87854,0.85222
471.766,52.3267,0.03980304,-2.87871,0.85179
472.466,52.39547,0.04070631,-2.88002,0.85136
473.166,52.46439,0.04145056,-2.88135,0.85093
473.866,52.53318,0.0442832,-2.88229,0.8505
474.566,52.60193,0.04165213,-2.88398,0.85007
475.266,52.67085,0.0446228,-2.8853,0.84964
475.966,52.7396,0.04080913,-2.88459,0.84921
476.666,52.80839,0.04183143,-2.8853,0.84878
477.366,52.8774,0.04235071,-2.8867,0.84835
478.066,52.94667,0.04612252,-2.88665,0.84792
478.766,53.0158,0.04083168,-2.88791,0.84748
479.466,53.0848,0.04372747,-2.88949,0.84705
480.166,53.1537,0.04347398,-2.89022,0.84662
480.866,53.2228,0.04499431,-2.89056,0.84618
481.566,53.29192,0.04149709,-2.89188,0.84575
482.266,53.36093,0.04684302,-2.89461,0.84531
482.966,53.43,0.04526883,-2.89593,0.84488
483.666,53.49899,0.04497647,-2.89593,0.84444
484.366,53.56805,0.04511315,-2.89757,0.844
485.066,53.6371,0.04522156,-2.89757,0.84357
485.766,53.70621,0.04441597,-2.89693,0.84313
486.466,53.7754,0.04580577,-2.89692,0.84269
487.166,53.8447,0.04703232,-2.89938,0.84226
487.866,53.9139,0.04473505,-2.89967,0.84182
488.566,53.98314,0.04658387,-2.90097,0.84138
489.266,54.0521,0.04919629,-2.90068,0.84094
489.966,54.1213,0.052211,-2.90096,0.8405
490.666,54.19039,0.05259915,-2.9023,0.84006
491.366,54.2595,0.06348061,-2.90361,0.83962
492.066,54.3284,0.06635117,-2.90492,0.83918
492.766,54.3974,0.06857497,-2.90493,0.83874
493.466,54.4666,0.07007376,-2.90493,0.8383
494.166,54.53578,0.06931447,-2.90625,0.83786
494.866,54.6051,0.07219596,-2.90776,0.83741
495.566,54.67411,0.07258372,-2.90758,0.83697
496.266,54.74321,0.07707539,-2.90953,0.83653
496.966,54.81235,0.07678575,-2.90953,0.83609
497.666,54.88142,0.07935994,-2.91088,0.83564
498.366,54.9506,0.08011608,-2.91085,0.8352
499.066,55.0194,0.0816378,-2.91183,0.83475
499.766,55.08846,0.08706486,-2.91183,0.83431
500.466,55.1577,0.08393854,-2.91315,0.83386
501.166,55.22719,0.08464781,-2.91347,0.83342
501.866,55.2965,0.08319556,-2.9148,0.83297
502.566,55.3657,0.08336405,-2.91611,0.83252
503.266,55.4348,0.08576843,-2.91743,0.83208
503.966,55.5041,0.08713273,-2.91842,0.83163
504.666,55.57301,0.08363644,-2.91866,0.83118
505.366,55.6424,0.08907489,-2.91842,0.83073
506.066,55.7117,0.08929544,-2.91842,0.83028
506.766,55.7811,0.09308721,-2.91841,0.82983
507.466,55.85026,0.09084651,-2.91841,0.82938
508.166,55.9194,0.09317891,-2.92106,0.82893
508.866,55.9887,0.09215562,-2.92105,0.82848
509.566,56.05785,0.09051749,-2.92241,0.82803
510.266,56.1271,0.09283121,-2.92105,0.82758
510.966,56.19624,0.09083805,-2.92105,0.82713
511.666,56.26556,0.08459026,-2.92241,0.82668
512.366,56.33504,0.0794817,-2.92368,0.82622
513.066,56.40445,0.07399236,-2.92499,0.82577
513.766,56.47375,0.07089917,-2.92628,0.82532
514.466,56.54302,0.06672261,-2.92628,0.82486
515.166,56.61232,0.06335527,-2.92764,0.82441
515.866,56.6816,0.06052026,-2.92894,0.82395
516.566,56.7507,0.06319066,-2.92894,0.8235
517.266,56.8197,0.05802357,-2.92893,0.82304
517.966,56.88919,0.05558105,-2.93026,0.82259
518.666,56.9586,0.05476096,-2.92893,0.82213
519.366,57.0283,0.05592216,-2.93027,0.82167
520.066,57.09782,0.05471934,-2.93027,0.82122
520.766,57.1675,0.0531804,-2.93159,0.82076
521.466,57.2371,0.05259876,-2.93289,0.8203
522.166,57.3065,0.05266343,-2.93325,0.81984
522.866,57.37602,0.05376931,-2.93322,0.81938
523.566,57.4456,0.05452074,-2.9344,0.81892
524.266,57.51535,0.05172518,-2.93424,0.81846
524.966,57.585,0.05314658,-2.93553,0.818
525.666,57.6546,0.05177947,-2.93685,0.81754
526.366,57.72445,0.04923293,-2.93685,0.81708
527.066,57.79391,0.05032981,-2.93608,0.81662
527.766,57.8631,0.04854968,-2.93684,0.81616
528.466,57.93231,0.04788412,-2.93684,0.81569
529.166,58.00185,0.0493768,-2.93865,0.81523
529.866,58.07156,0.04790154,-2.93912,0.81477
530.566,58.14096,0.04596016,-2.94047,0.8143
531.266,58.2103,0.04466818,-2.94047,0.81384
531.966,58.2797,0.04469875,-2.94178,0.81337
532.666,58.34936,0.04013779,-2.94079,0.81291
533.366,58.41893,0.04406197,-2.94079,0.81244
534.066,58.4883,0.03762074,-2.9421,0.81198
534.766,58.5578,0.03711264,-2.94342,0.81151
535.466,58.6272,0.03483307,-2.94474,0.81104
536.166,58.69693,0.02926523,-2.94474,0.81057
536.866,58.76647,0.02985486,-2.94474,0.81011
537.566,58.83582,0.02735683,-2.94574,0.80964
538.266,58.9051,0.02626612,-2.94574,0.80917
538.966,58.975,0.02237599,-2.94704,0.8087
539.666,59.04526,0.02230437,-2.94676,0.80823
540.366,59.1153,0.01766856,-2.94711,0.80776
541.066,59.1852,0.01647114,-2.94711,0.80729
541.766,59.2547,0.01371985,-2.94836,0.80682
542.466,59.3245,0.01332165,-2.94836,0.80635
543.166,59.394,0.01455088,-2.94855,0.80588
543.866,59.4638,0.0121451,-2.94967,0.8054
544.566,59.53349,0.01001216,-2.9496,0.80493
545.266,59.60325,0.01042058,-2.95099,0.80446
545.966,59.6729,0.01010845,-2.95099,0.80398
546.666,59.7427,0.007358795,-2.95099,0.80351
547.366,59.8123,0.004369463,-2.95099,0.80303
548.066,59.88196,0.004709022,-2.95235,0.80256
548.766,59.95168,0.001684626,-2.95362,0.80208
549.466,60.02177,-0.0009075168,-2.95362,0.80161
550.166,60.092,-0.002204449,-2.95283,0.80113
550.866,60.162,-0.003907789,-2.95398,0.80066
551.566,60.2319,-0.004418872,-2.95394,0.80018
552.266,60.3016,-0.007446928,-2.95527,0.7997
552.966,60.37149,-0.00638858,-2.95527,0.79922
553.666,60.4414,-0.006833869,-2.95659,0.79874
554.366,60.5115,-0.009306313,-2.95656,0.79826
555.066,60.5814,-0.01258476,-2.95791,0.79778
555.766,60.65136,-0.01260771,-2.958,0.79731
556.466,60.7212,-0.01514561,-2.95922,0.79682
557.166,60.7911,-0.01377681,-2.95929,0.79634
557.866,60.8609,-0.01365812,-2.96054,0.79586
558.566,60.93091,-0.01603551,-2.96054,0.79538
559.266,61.0008,-0.01329934,-2.96054,0.7949
559.966,61.07071,-0.01727465,-2.96052,0.79442
560.666,61.1404,-0.0161231,-2.96021,0.79393
561.366,61.2103,-0.01841743,-2.96153,0.79345
562.066,61.28009,-0.01752523,-2.96284,0.79297
562.766,61.35021,-0.01659257,-2.96284,0.79248
563.466,61.42032,-0.01583759,-2.96009,0.792
564.166,61.49045,-0.01766336,-2.9641,0.79151
564.866,61.5603,-0.01805742,-2.9658,0.79102
565.566,61.63,-0.01684756,-2.9658,0.79054
566.266,61.69984,-0.01662116,-2.9658,0.79005
566.966,61.7693,-0.0187748,-2.96546,0.78956
567.666,61.8392,-0.02047198,-2.96613,0.78908
568.366,61.90908,-0.019405,-2.96704,0.78859
569.066,61.9794,-0.02014902,-2.96745,0.7881
569.766,62.04905,-0.01940722,-2.96613,0.78761
570.466,62.1187,-0.02233124,-2.96742,0.78712
571.166,62.18825,-0.01924762,-2.96876,0.78663
571.866,62.258,-0.02023651,-2.96744,0.78614
572.566,62.32807,-0.01791441,-2.96876,0.78565
573.266,62.39826,-0.01820379,-2.96811,0.78516
573.966,62.46824,-0.01839128,-2.96918,0.78467
574.666,62.53804,-0.01790261,-2.97138,0.78418
575.366,62.60761,-0.02012676,-2.97169,0.78368
576.066,62.6777,-0.02162774,-2.97238,0.78319
576.766,62.74802,-0.01492341,-2.97238,0.7827
577.466,62.8185,-0.0167769,-2.97185,0.7822
578.166,62.88844,-0.01672822,-2.97105,0.78171
578.866,62.95822,-0.01105801,-2.97271,0.78121
579.566,63.02814,-0.01453393,-2.97271,0.78072
580.266,63.09825,-0.01383228,-2.97406,0.78022
580.966,63.16835,-0.01482338,-2.97534,0.77972
581.666,63.2381,-0.01450556,-2.97403,0.77923
582.366,63.3079,-0.0126178,-2.97453,0.77873
583.066,63.3777,-0.01316375,-2.97599,0.77823
583.766,63.44746,-0.01107769,-2.97732,0.77774
584.466,63.51738,-0.01124729,-2.97731,0.77724
585.166,63.58729,-0.01070159,-2.97666,0.77674
585.866,63.65739,-0.01202394,-2.97666,0.77624
586.566,63.7274,-0.01219299,-2.97737,0.77574
587.266,63.79744,-0.01260711,-2.97765,0.77524
587.966,63.86761,-0.01109398,-2.9779,0.77474
588.666,63.9375,-0.01142023,-2.97927,0.77424
589.366,64.0073,-0.009907842,-2.97929,0.77373
590.066,64.07741,-0.007642261,-2.97932,0.77323
590.766,64.14771,-0.00946323,-2.9793,0.77273
591.466,64.21811,-0.007579862,-2.9801,0.77223
592.166,64.28761,-0.009546504,-2.98056,0.77172
592.866,64.35764,-0.006090306,-2.98193,0.77122
593.566,64.428,-0.004966161,-2.98193,0.77071
594.266,64.49888,-0.002692072,-2.98218,0.77021
594.966,64.56947,-2.968647e-05,-2.98325,0.7697
595.666,64.6395,-0.00161453,-2.98325,0.7692
596.366,64.7096,0.000993221,-2.98326,0.76869
597.066,64.77973,-0.0002890355,-2.98456,0.76818
597.766,64.85028,0.003474948,-2.98456,0.76768
598.466,64.9208,0.003345605,-2.98692,0.76717
599.166,64.99119,0.009778986,-2.98719,0.76666
599.866,65.06161,0.009229068,-2.98587,0.76615
600.566,65.13205,0.00974834,-2.98587,0.76564
601.266,65.20268,0.01028186,-2.98647,0.76513
601.966,65.27328,0.01307923,-2.98719,0.76462
602.666,65.3438,0.01341148,-2.98888,0.76411
603.366,65.4141,0.01868211,-2.98983,0.7636
604.066,65.4843,0.01779174,-2.9911,0.76309
604.766,65.55434,0.01923162,-2.98982,0.76258
605.466,65.62445,0.0198914,-2.99119,0.76207
606.166,65.69448,0.02291379,-2.99246,0.76155
606.866,65.7645,0.02447626,-2.99355,0.76104
607.566,65.83461,0.02568469,-2.99378,0.76053
608.266,65.9048,0.02963189,-2.99377,0.76001
608.966,65.9748,0.0284382,-2.99386,0.7595
609.666,66.04496,0.02951338,-2.99511,0.75898
610.366,66.1151,0.03080947,-2.99464,0.75847
611.066,66.18551,0.03218797,-2.99508,0.75795
611.766,66.25564,0.03443175,-2.99508,0.75744
612.466,66.3257,0.03494977,-2.99541,0.75692
613.166,66.39565,0.0361464,-2.99742,0.7564
613.866,66.46554,0.03598805,-2.99762,0.75588
614.566,66.5354,0.03811261,-2.99905,0.75537
615.266,66.60545,0.0388671,-2.99902,0.75485
615.966,66.6755,0.03856029,-2.99903,0.75433
616.666,66.74557,0.04198535,-2.9991,0.75381
617.366,66.8159,0.04322938,-2.99847,0.75329
618.066,66.88622,0.04447159,-2.9997,0.75277
618.766,66.9564,0.04802876,-2.99905,0.75225
619.466,67.0265,0.0491737,-2.9977,0.75173
620.166,67.09663,0.04986994,-3.00009,0.7512
620.866,67.16695,0.05220475,-3.00482,0.75068
621.566,67.23735,0.05162621,-3.00284,0.75016
622.266,67.30759,0.05278067,-3.0032,0.74964
622.966,67.378,0.05263253,-3.0032,0.74911
623.666,67.44843,0.05411441,-3.0032,0.74859
624.366,67.51889,0.0555365,-3.00444,0.74806
625.066,67.58927,0.05570218,-3.00452,0.74754
625.766,67.65952,0.0620684,-3.00584,0.74701
626.466,67.72986,0.06241016,-3.00551,0.74649
627.166,67.8001,0.05837801,-3.00683,0.74596
627.866,67.8703,0.06122558,-3.00683,0.74543
628.566,67.94045,0.06275533,-3.00777,0.74491
629.266,68.01065,0.06452642,-3.00814,0.74438
629.966,68.08104,0.06627457,-3.00913,0.74385
630.666,68.1515,0.06728552,-3.0096,0.74332
631.366,68.22206,0.06850137,-3.01043,0.74279
632.066,68.29257,0.07068812,-3.01451,0.74226
632.766,68.363,0.07354,-3.01582,0.74173
633.466,68.43329,0.07356754,-3.01582,0.7412
634.166,68.50364,0.07755306,-3.01582,0.74067
634.866,68.5741,0.07863058,-3.01713,0.74014
635.566,68.64445,0.08258858,-3.01713,0.73961
636.266,68.71485,0.08391644,-3.01713,0.73908
636.966,68.78522,0.08593807,-3.01748,0.73855
637.666,68.85548,0.08876762,-3.01736,0.73801
638.366,68.92586,0.08942611,-3.01845,0.73748
639.066,68.99616,0.09566771,-3.01977,0.73694
639.766,69.06665,0.09877756,-3.02113,0.73641
640.466,69.13707,0.09947189,-3.02109,0.73588
641.166,69.20748,0.10261,-3.02243,0.73534
641.866,69.2779,0.10538,-3.02356,0.7348
642.566,69.34815,0.11035,-3.02377,0.73427
643.266,69.41837,0.11535,-3.02366,0.73373
643.966,69.48858,0.11777,-3.02504,0.73319
644.666,69.55879,0.11996,-3.02635,0.73266
645.366,69.6292,0.1221,-3.02764,0.73212
646.066,69.69945,0.12714,-3.02635,0.73158
646.766,69.76989,0.12492,-3.02798,0.73104
647.466,69.84014,0.12997,-3.02798,0.7305
648.166,69.91048,0.13839,-3.02898,0.72996
648.866,69.98059,0.14118,-3.03161,0.72942
649.566,70.0508,0.14476,-3.03293,0.72888
650.266,70.12125,0.14568,-3.03293,0.72834
650.966,70.19171,0.15171,-3.03228,0.7278
651.666,70.26205,0.15485,-3.03437,0.72726
652.366,70.33242,0.15636,-3.03746,0.72671
653.066,70.40287,0.15849,-3.03918,0.72617
653.766,70.47349,0.16326,-3.03918,0.72563
654.466,70.54395,0.16576,-3.03893,0.72509
655.166,70.61425,0.17011,-3.03918,0.72454
655.866,70.68456,0.17217,-3.04058,0.724
656.566,70.75496,0.17658,-3.04186,0.72345
657.266,70.82571,0.17921,-3.04298,0.72291
657.966,70.89652,0.18245,-3.04525,0.72236
658.666,70.96731,0.18182,-3.04713,0.72181
659.366,71.03782,0.18649,-3.04675,0.72127
660.066,71.1082,0.1906,-3.04812,0.72072
660.766,71.17883,0.19255,-3.04874,0.72017
661.466,71.24951,0.19186,-3.05078,0.71962
662.166,71.3201,0.19206,-3.05279,0.71908
662.866,71.3906,0.19909,-3.05278,0.71853
663.566,71.46106,0.20032,-3.0541,0.71798
664.266,71.53145,0.19917,-3.05652,0.71743
664.966,71.60163,0.20076,-3.05674,0.71688
665.666,71.67198,0.20268,-3.05772,0.71633
666.366,71.74257,0.2052,-3.05802,0.71578
667.066,71.81323,0.20922,-3.06055,0.71522
667.766,71.88372,0.20591,-3.061,0.71467
668.466,71.95403,0.20631,-3.06235,0.71412
669.166,72.02457,0.20654,-3.06433,0.71357
669.866,72.09506,0.20915,-3.06549,0.71301
670.566,72.1653,0.20628,-3.06462,0.71246
671.266,72.23571,0.21062,-3.06598,0.71191
671.966,72.3062,0.20766,-3.06761,0.71135
672.666,72.37697,0.20913,-3.06995,0.7108
673.366,72.44745,0.20821,-3.07119,0.71024
674.066,72.5179,0.20616,-3.07015,0.70969
674.766,72.58796,0.21053,-3.07254,0.70913
675.466,72.65824,0.20922,-3.07244,0.70857
676.166,72.72848,0.21055,-3.07483,0.70802
676.866,72.79892,0.21414,-3.07615,0.70746
677.566,72.8694,0.21057,-3.07744,0.7069
678.266,72.93995,0.21145,-3.08009,0.70634
678.966,73.01023,0.20673,-3.07876,0.70578
679.666,73.08105,0.2094,-3.08009,0.70522
680.366,73.152,0.20769,-3.08061,0.70466
681.066,73.2233,0.20534,-3.08141,0.7041
681.766,73.29391,0.20414,-3.08291,0.70354
682.466,73.36445,0.19962,-3.08355,0.70298
683.166,73.43508,0.20114,-3.08438,0.70242
683.866,73.50579,0.19845,-3.08667,0.70186
684.566,73.57645,0.19373,-3.08798,0.7013
685.266,73.64708,0.18884,-3.0893,0.70073
685.966,73.71762,0.18235,-3.08996,0.70017
686.666,73.78811,0.1805,-3.09161,0.69961
687.366,73.85862,0.17869,-3.09296,0.69904
688.066,73.92922,0.16758,-3.09293,0.69848
688.766,74.0001,0.16138,-3.09393,0.69792
689.466,74.07098,0.15388,-3.09555,0.69735
690.166,74.14165,0.14797,-3.09554,0.69679
690.866,74.21236,0.1423,-3.09557,0.69622
691.566,74.283,0.13041,-3.09697,0.69565
692.266,74.3536,0.12949,-3.09721,0.69509
692.966,74.42411,0.12403,-3.09735,0.69452
693.666,74.49469,0.12255,-3.09777,0.69395
694.366,74.56536,0.11914,-3.10016,0.69338
695.066,74.63605,0.11946,-3.10149,0.69282
695.766,74.70662,0.11937,-3.10152,0.69225
696.466,74.77718,0.11666,-3.10282,0.69168
697.166,74.84784,0.11492,-3.10411,0.69111
697.866,74.91869,0.11661,-3.10412,0.69054
698.566,74.9893,0.11184,-3.10411,0.68997
699.266,75.05988,0.11203,-3.1051,0.6894
699.966,75.1303,0.1089,-3.10677,0.68883
700.666,75.20087,0.10989,-3.10543,0.68826
701.366,75.27115,0.11009,-3.10674,0.68768
702.066,75.3416,0.11087,-3.10672,0.68711
702.766,75.41211,0.10983,-3.10807,0.68654
703.466,75.48259,0.10977,-3.10805,0.68597
704.166,75.55314,0.10865,-3.10806,0.68539
704.866,75.6237,0.11225,-3.10806,0.68482
705.566,75.6947,0.11057,-3.10939,0.68424
706.266,75.76528,0.11238,-3.1107,0.68367
706.966,75.83601,0.10699,-3.11275,0.68309
707.666,75.90647,0.11017,-3.11267,0.68252
708.366,75.97721,0.11052,-3.11282,0.68194
709.066,76.04786,0.10931,-3.11398,0.68137
709.766,76.11855,0.11028,-3.11493,0.68079
710.466,76.1893,0.10947,-3.11524,0.68021
711.166,76.26005,0.11224,-3.11596,0.67964
711.866,76.33097,0.10913,-3.11596,0.67906
712.566,76.40195,0.11153,-3.11596,0.67848
713.266,76.473,0.1126,-3.11691,0.6779
713.966,76.5442,0.11284,-3.11631,0.67732
714.666,76.6153,0.11223,-3.1169,0.67674
715.366,76.68627,0.11259,-3.11794,0.67616
716.066,76.7572,0.11233,-3.11796,0.67558
716.766,76.82834,0.11227,-3.11927,0.675
717.466,76.8995,0.1081,-3.11991,0.67442
718.166,76.97032,0.11097,-3.12122,0.67384
718.866,77.04111,0.11181,-3.11992,0.67326
719.566,77.1119,0.11169,-3.11991,0.67268
720.266,77.18274,0.11446,-3.12123,0.67209
720.966,77.25372,0.11316,-3.12123,0.67151
721.666,77.32478,0.11121,-3.12245,0.67093
722.366,77.39591,0.11289,-3.12385,0.67034
723.066,77.467,0.11594,-3.1234,0.66976
723.766,77.53793,0.11736,-3.12386,0.66918
724.466,77.60899,0.11635,-3.12518,0.66859
725.166,77.68,0.12048,-3.12649,0.66801
725.866,77.75106,0.12111,-3.1255,0.66742
726.566,77.82211,0.12019,-3.12682,0.66683
727.266,77.8929,0.11904,-3.12816,0.66625
727.966,77.96373,0.11677,-3.13044,0.66566
728.666,78.0344,0.11996,-3.13044,0.66507
729.366,78.10465,0.12265,-3.13044,0.66449
730.066,78.17522,0.12115,-3.13044,0.6639
730.766,78.24566,0.12468,-3.13044,0.66331
731.466,78.31655,0.12211,-3.12914,0.66272
732.166,78.38707,0.11977,-3.13042,0.66213
732.866,78.45759,0.1198,-3.13044,0.66155
733.566,78.52792,0.12026,-3.13175,0.66096
734.266,78.59804,0.12044,-3.13175,0.66037
734.966,78.66865,0.12051,-3.13175,0.65978
735.666,78.73943,0.12232,-3.13269,0.65919
736.366,78.8104,0.12366,-3.13406,0.65859
737.066,78.88121,0.12262,-3.1323,0.658
737.766,78.95205,0.12027,-3.13278,0.65741
738.466,79.023,0.11891,-3.13271,0.65682
739.166,79.09397,0.11867,-3.13406,0.65623
739.866,79.16506,0.11872,-3.13406,0.65563
740.566,79.2359,0.11878,-3.13401,0.65504
741.266,79.30695,0.11816,-3.13537,0.65445
741.966,79.37786,0.1164,-3.13537,0.65385
742.666,79.44905,0.1158,-3.13538,0.65326
743.366,79.5201,0.11895,-3.13406,0.65267
744.066,79.59104,0.11608,-3.13439,0.65207
744.766,79.66194,0.11347,-3.13475,0.65148
745.466,79.73294,0.11531,-3.1354,0.65088
746.166,79.80418,0.11241,-3.13662,0.65028
746.866,79.87539,0.11434,-3.13801,0.64969
747.566,79.9465,0.11292,-3.13801,0.64909
748.066,79.99688,0.11652,-3.13801,0.64867