File: 01_Data/Lightweight_Gypsum_Wallboard_Unpainted_Paper/STA/N2/10K_min/Lightweight_Gypsum_Wallboard_Paper_STA_N2_10KData_220203_R4.csv
##Temp./Â°C,Time/min,DSC(subtr.2)/(mW/mg),Mass loss(subtr.2)/mg,Sensit./(uV/mW)
49.678,10.00583,0.02556673,-0.00867,1.07517
50.278,10.72892,0.05938174,-0.008912645,1.07485
50.878,10.91817,0.08187444,-0.01014748,1.07454
51.478,11.05874,0.10177,-0.009820516,1.07423
52.078,11.17655,0.11862,-0.009586053,1.07392
52.678,11.2819,0.13426,-0.008918448,1.0736
53.278,11.37827,0.14481,-0.009561337,1.07329
53.878,11.4681,0.15734,-0.01148038,1.07298
54.478,11.5538,0.16804,-0.01152003,1.07267
55.078,11.6357,0.17956,-0.01131112,1.07235
55.678,11.71486,0.18616,-0.009657076,1.07204
56.278,11.7917,0.19617,-0.01072208,1.07173
56.878,11.86615,0.20245,-0.01086289,1.07142
57.478,11.93908,0.21142,-0.01074143,1.07111
58.078,12.01104,0.21446,-0.01042155,1.07079
58.678,12.0824,0.21979,-0.01008475,1.07048
59.278,12.15237,0.22711,-0.01129942,1.07017
59.878,12.22131,0.23246,-0.01047922,1.06986
60.478,12.28967,0.23438,-0.01055798,1.06955
61.078,12.35701,0.24159,-0.01180176,1.06923
61.678,12.42475,0.24678,-0.01185045,1.06892
62.278,12.49174,0.24858,-0.0118221,1.06861
62.878,12.55883,0.25256,-0.01183612,1.0683
63.478,12.62509,0.25733,-0.0127529,1.06799
64.078,12.69117,0.25954,-0.01403017,1.06768
64.678,12.75717,0.26355,-0.01316636,1.06736
65.278,12.82283,0.26844,-0.01311337,1.06705
65.878,12.8884,0.26976,-0.01440706,1.06674
66.478,12.95365,0.27273,-0.01448987,1.06643
67.078,13.01879,0.27736,-0.01411683,1.06612
67.678,13.08359,0.28106,-0.01448007,1.06581
68.278,13.14812,0.28423,-0.01579408,1.0655
68.878,13.21289,0.28926,-0.01449939,1.06519
69.478,13.27718,0.29247,-0.01578974,1.06488
70.078,13.3414,0.2931,-0.01710995,1.06456
70.678,13.4055,0.30057,-0.01579519,1.06425
71.278,13.4695,0.30281,-0.01712001,1.06394
71.878,13.5332,0.30549,-0.01712,1.06363
72.478,13.59694,0.31006,-0.01827747,1.06332
73.078,13.6604,0.31295,-0.01979078,1.06301
73.678,13.7239,0.31981,-0.01956586,1.0627
74.278,13.7873,0.32131,-0.01975118,1.06239
74.878,13.8505,0.32409,-0.01974991,1.06208
75.478,13.9137,0.32707,-0.02107008,1.06177
76.078,13.97649,0.33033,-0.02176142,1.06146
76.678,14.03916,0.33411,-0.02172,1.06115
77.278,14.10184,0.3358,-0.02172,1.06084
77.878,14.1644,0.34125,-0.02294675,1.06053
78.478,14.2265,0.34179,-0.02301349,1.06022
79.078,14.28806,0.34448,-0.02369229,1.05991
79.678,14.35014,0.34749,-0.02238125,1.0596
80.278,14.4124,0.3504,-0.02369998,1.05929
80.878,14.4756,0.35392,-0.02370105,1.05898
81.478,14.5375,0.35671,-0.02467985,1.05867
82.078,14.5993,0.36048,-0.02502193,1.05836
82.678,14.6611,0.36294,-0.02599809,1.05805
83.278,14.7227,0.36781,-0.02730994,1.05774
83.878,14.78408,0.36894,-0.02731,1.05743
84.478,14.8452,0.37528,-0.02731,1.05712
85.078,14.9063,0.38065,-0.02731178,1.05681
85.678,14.9673,0.38271,-0.02862994,1.0565
86.278,15.0281,0.38563,-0.02859535,1.05619
86.878,15.08867,0.39177,-0.02994005,1.05588
87.478,15.1489,0.39384,-0.03059323,1.05557
88.078,15.20951,0.39662,-0.03053066,1.05526
88.678,15.27,0.40066,-0.03126004,1.05496
89.278,15.33032,0.40132,-0.03159176,1.05465
89.878,15.3906,0.40692,-0.03290209,1.05434
90.478,15.4509,0.40685,-0.03422867,1.05403
91.078,15.51096,0.40699,-0.03422,1.05372
91.678,15.5709,0.40882,-0.03421674,1.05341
92.278,15.63054,0.40999,-0.03554016,1.0531
92.878,15.6902,0.41298,-0.03554,1.05279
93.478,15.74975,0.41064,-0.03554007,1.05248
94.078,15.8094,0.41159,-0.03684748,1.05218
94.678,15.86895,0.41192,-0.03752993,1.05187
95.278,15.9285,0.40885,-0.03846028,1.05156
95.878,15.98795,0.40766,-0.03915072,1.05125
96.478,16.0469,0.40836,-0.03916149,1.05094
97.078,16.10595,0.40668,-0.04048001,1.05063
97.678,16.16549,0.405,-0.04048,1.05033
98.278,16.22495,0.40346,-0.04045805,1.05002
98.878,16.28506,0.40185,-0.0421338,1.04971
99.478,16.34439,0.40066,-0.04213,1.0494
100.078,16.40356,0.39907,-0.04213005,1.04909
100.678,16.46273,0.39677,-0.04263542,1.04878
101.278,16.52165,0.39528,-0.04279016,1.04848
101.878,16.5805,0.39435,-0.04473328,1.04817
102.478,16.63946,0.39031,-0.04607006,1.04786
103.078,16.6984,0.38869,-0.04609828,1.04755
103.678,16.75747,0.38712,-0.04475999,1.04725
104.278,16.81629,0.38446,-0.04470767,1.04694
104.878,16.87521,0.3829,-0.04737966,1.04663
105.478,16.9341,0.38133,-0.04738,1.04632
106.078,16.99299,0.37853,-0.04737996,1.04602
106.678,17.05198,0.37734,-0.0483694,1.04571
107.278,17.11092,0.37463,-0.04871666,1.0454
107.878,17.1692,0.37385,-0.0483707,1.04509
108.478,17.228,0.37132,-0.04904123,1.04479
109.078,17.2867,0.36915,-0.0493623,1.04448
109.678,17.34552,0.36757,-0.04969,1.04417
110.278,17.40456,0.36715,-0.04969,1.04387
110.878,17.46325,0.3641,-0.04963856,1.04356
111.478,17.52199,0.36244,-0.05100004,1.04325
112.078,17.5807,0.36266,-0.05233623,1.04294
112.678,17.63963,0.36139,-0.05232,1.04264
113.278,17.6986,0.35996,-0.0530009,1.04233
113.878,17.75752,0.36142,-0.05201169,1.04202
114.478,17.81626,0.35921,-0.05265003,1.04172
115.078,17.87496,0.35823,-0.05361107,1.04141
115.678,17.93323,0.35713,-0.0539702,1.0411
116.278,17.992,0.35574,-0.05529055,1.0408
116.878,18.05082,0.35697,-0.05429779,1.04049
117.478,18.10947,0.35516,-0.05430382,1.04018
118.078,18.16854,0.35546,-0.05298379,1.03988
118.678,18.22706,0.35608,-0.05429006,1.03957
119.278,18.2856,0.35574,-0.0552768,1.03927
119.878,18.34419,0.35435,-0.05527773,1.03896
120.478,18.40285,0.3545,-0.05560996,1.03865
121.078,18.4613,0.35261,-0.05560996,1.03835
121.678,18.51986,0.35057,-0.05469883,1.03804
122.278,18.57826,0.35143,-0.05561995,1.03773
122.878,18.63675,0.35221,-0.05463324,1.03743
123.478,18.69499,0.34888,-0.055108,1.03712
124.078,18.75336,0.34756,-0.05528002,1.03682
124.678,18.81201,0.34436,-0.0566067,1.03651
125.278,18.87056,0.34353,-0.05660446,1.0362
125.878,18.92914,0.34161,-0.05791009,1.0359
126.478,18.9874,0.33989,-0.05791,1.03559
127.078,19.04539,0.33721,-0.05791,1.03529
127.678,19.1039,0.33646,-0.05791,1.03498
128.278,19.16291,0.33482,-0.05737158,1.03468
128.878,19.22139,0.3344,-0.05726,1.03437
129.478,19.27975,0.33172,-0.05726,1.03407
130.078,19.33793,0.33014,-0.05726,1.03376
130.678,19.3962,0.32885,-0.05798264,1.03345
131.278,19.45467,0.32822,-0.05791999,1.03315
131.878,19.513,0.32662,-0.05792,1.03284
132.478,19.57112,0.32698,-0.05792,1.03254
133.078,19.629,0.32458,-0.05793271,1.03223
133.678,19.6871,0.32453,-0.05922995,1.03193
134.278,19.74532,0.3235,-0.05923001,1.03162
134.878,19.80337,0.32241,-0.05787163,1.03132
135.478,19.8615,0.32447,-0.05790998,1.03101
136.078,19.91921,0.3242,-0.05659947,1.03071
136.678,19.97731,0.32595,-0.05792006,1.0304
137.278,20.0352,0.32158,-0.0592253,1.0301
137.878,20.09337,0.32483,-0.06055083,1.02979
138.478,20.15104,0.32189,-0.06017441,1.02949
139.078,20.20885,0.32148,-0.06055,1.02918
139.678,20.2667,0.32083,-0.06055091,1.02888
140.278,20.3245,0.32268,-0.05924039,1.02857
140.878,20.38254,0.32337,-0.05923997,1.02827
141.478,20.44021,0.3215,-0.05790677,1.02797
142.078,20.49806,0.32092,-0.05792,1.02766
142.678,20.55579,0.32114,-0.05804412,1.02736
143.278,20.61355,0.32137,-0.05791002,1.02705
143.878,20.6712,0.32227,-0.0579209,1.02675
144.478,20.72881,0.32357,-0.06056846,1.02644
145.078,20.78656,0.32267,-0.05986308,1.02614
145.678,20.84446,0.32297,-0.05856977,1.02583
146.278,20.90237,0.32224,-0.05951381,1.02553
146.878,20.96013,0.32445,-0.06088001,1.02523
147.478,21.01782,0.32587,-0.06087587,1.02492
148.078,21.07549,0.32184,-0.06085667,1.02462
148.678,21.13317,0.32341,-0.06086987,1.02431
149.278,21.19087,0.32282,-0.05996418,1.02401
149.878,21.24868,0.32378,-0.05989,1.02371
150.478,21.30636,0.32337,-0.05989,1.0234
151.078,21.36414,0.32454,-0.05989001,1.0231
151.678,21.42191,0.32422,-0.05956928,1.02279
152.278,21.4798,0.32214,-0.05956006,1.02249
152.878,21.5376,0.32376,-0.06087766,1.02219
153.478,21.59551,0.32172,-0.06088,1.02188
154.078,21.65343,0.32555,-0.06088,1.02158
154.678,21.71143,0.32573,-0.06087998,1.02128
155.278,21.76928,0.32668,-0.05954279,1.02097
155.878,21.82712,0.32634,-0.05956,1.02067
156.478,21.88477,0.32709,-0.05956068,1.02036
157.078,21.9426,0.32525,-0.06087908,1.02006
157.678,22.0004,0.32599,-0.06088,1.01976
158.278,22.0581,0.32629,-0.0608455,1.01945
158.878,22.11594,0.32817,-0.06097807,1.01915
159.478,22.17363,0.32857,-0.06088,1.01885
160.078,22.2314,0.32915,-0.06088,1.01854
160.678,22.28922,0.32953,-0.06088,1.01824
161.278,22.3469,0.33125,-0.06088,1.01794
161.878,22.40452,0.33126,-0.06088,1.01763
162.478,22.46208,0.3328,-0.06088,1.01733
163.078,22.51971,0.33244,-0.06088,1.01703
163.678,22.5773,0.33133,-0.06088,1.01672
164.278,22.6348,0.33199,-0.06088005,1.01642
164.878,22.6926,0.33383,-0.06219873,1.01612
165.478,22.75037,0.3314,-0.06180081,1.01581
166.078,22.80796,0.33307,-0.06088001,1.01551
166.678,22.86561,0.33414,-0.06088,1.01521
167.278,22.9232,0.33599,-0.06088,1.0149
167.878,22.9806,0.33506,-0.06085803,1.0146
168.478,23.0382,0.33478,-0.06155753,1.0143
169.078,23.09574,0.33507,-0.06153,1.014
169.678,23.15319,0.337,-0.06153,1.01369
170.278,23.21092,0.3378,-0.06153,1.01339
170.878,23.2684,0.33983,-0.06153,1.01309
171.478,23.32612,0.33799,-0.06254394,1.01278
172.078,23.3836,0.34093,-0.06285013,1.01248
172.678,23.44105,0.34169,-0.06218822,1.01218
173.278,23.49861,0.3428,-0.06219,1.01188
173.878,23.55621,0.34326,-0.06219,1.01157
174.478,23.61375,0.34101,-0.06211658,1.01127
175.078,23.67116,0.34308,-0.0608803,1.01097
175.678,23.72873,0.34282,-0.06219129,1.01066
176.278,23.7862,0.34385,-0.06350864,1.01036
176.878,23.84359,0.34534,-0.06220948,1.01006
177.478,23.90101,0.34701,-0.0622,1.00976
178.078,23.95819,0.34757,-0.0622,1.00945
178.678,24.0155,0.34796,-0.06219912,1.00915
179.278,24.0728,0.34648,-0.06088024,1.00885
179.878,24.13025,0.34861,-0.06088,1.00855
180.478,24.1878,0.34759,-0.06087776,1.00824
181.078,24.24519,0.34829,-0.06218983,1.00794
181.678,24.3025,0.34768,-0.06217721,1.00764
182.278,24.3598,0.34986,-0.06087933,1.00734
182.878,24.4171,0.35026,-0.06087266,1.00703
183.478,24.47437,0.34983,-0.06087284,1.00673
184.078,24.53185,0.35025,-0.06216038,1.00643
184.678,24.58925,0.35404,-0.06318001,1.00613
185.278,24.64665,0.35491,-0.06317996,1.00582
185.878,24.70411,0.35335,-0.06214094,1.00552
186.478,24.76153,0.35176,-0.06066955,1.00522
187.078,24.8188,0.35331,-0.06303768,1.00492
187.678,24.87612,0.35618,-0.06340036,1.00461
188.278,24.93315,0.35541,-0.06472066,1.00431
188.878,24.99024,0.3578,-0.06472,1.00401
189.478,25.04743,0.35674,-0.06472006,1.00371
190.078,25.10468,0.35782,-0.06406233,1.0034
190.678,25.1619,0.35674,-0.06404989,1.0031
191.278,25.2194,0.35684,-0.06088248,1.0028
191.878,25.2768,0.35709,-0.06372907,1.0025
192.478,25.33415,0.35873,-0.06503994,1.00219
193.078,25.3917,0.36171,-0.06504,1.00189
193.678,25.44899,0.36233,-0.06504001,1.00159
194.278,25.50641,0.36132,-0.06402315,1.00129
194.878,25.5639,0.36133,-0.06405096,1.00098
195.478,25.6213,0.36342,-0.06536904,1.00068
196.078,25.67877,0.36381,-0.06536999,1.00038
196.678,25.73612,0.36334,-0.06504777,1.00008
197.278,25.79348,0.36041,-0.06471832,0.99978
197.878,25.85089,0.36439,-0.06472,0.99947
198.478,25.9085,0.36428,-0.06472,0.99917
199.078,25.966,0.36728,-0.06472,0.99887
199.678,26.0234,0.36518,-0.06508524,0.99857
200.278,26.08081,0.3648,-0.06604,0.99826
200.878,26.1383,0.36982,-0.06603999,0.99796
201.478,26.1955,0.3677,-0.06740155,0.99766
202.078,26.25277,0.36825,-0.06735,0.99736
202.678,26.3102,0.36896,-0.06735,0.99706
203.278,26.3675,0.37045,-0.06734999,0.99675
203.878,26.42483,0.37074,-0.06631039,0.99645
204.478,26.48228,0.37092,-0.06866365,0.99615
205.078,26.53953,0.37003,-0.06866,0.99585
205.678,26.597,0.36947,-0.06859038,0.99554
206.278,26.65448,0.37023,-0.06931999,0.99524
206.878,26.7119,0.37027,-0.06903802,0.99494
207.478,26.76949,0.37099,-0.06801007,0.99464
208.078,26.82695,0.37287,-0.0693099,0.99433
208.678,26.88443,0.37261,-0.06932,0.99403
209.278,26.94192,0.37288,-0.06931999,0.99373
209.878,26.99945,0.37035,-0.06998598,0.99343
210.478,27.0569,0.37242,-0.06998,0.99313
211.078,27.1144,0.37089,-0.06997924,0.99282
211.678,27.17178,0.37406,-0.07130027,0.99252
212.278,27.2291,0.37447,-0.0713,0.99222
212.878,27.28637,0.3751,-0.0713,0.99192
213.478,27.34357,0.37805,-0.07130099,0.99161
214.078,27.40085,0.37908,-0.07261909,0.99131
214.678,27.458,0.37952,-0.07261994,0.99101
215.278,27.5149,0.38193,-0.07131376,0.99071
215.878,27.57187,0.38084,-0.0718977,0.9904
216.478,27.62896,0.3836,-0.07360124,0.9901
217.078,27.68621,0.38618,-0.07361,0.9898
217.678,27.7435,0.38501,-0.07361,0.9895
218.278,27.80064,0.38768,-0.07360999,0.98919
218.878,27.8577,0.3872,-0.07394452,0.98889
219.478,27.9148,0.3886,-0.07398678,0.98859
220.078,27.9717,0.38745,-0.07522004,0.98829
220.678,28.0287,0.39078,-0.07623116,0.98798
221.278,28.0855,0.39107,-0.07623,0.98768
221.878,28.1423,0.38999,-0.07622877,0.98738
222.478,28.1992,0.39063,-0.07755,0.98708
223.078,28.256,0.39098,-0.0778794,0.98677
223.678,28.313,0.39395,-0.07788,0.98647
224.278,28.36989,0.39338,-0.07787963,0.98617
224.878,28.4267,0.39551,-0.08050918,0.98587
225.478,28.48337,0.39344,-0.08051,0.98556
226.078,28.5404,0.39322,-0.08051,0.98526
226.678,28.5974,0.39432,-0.08051002,0.98496
227.278,28.65447,0.39374,-0.08184819,0.98466
227.878,28.7115,0.39696,-0.08183,0.98435
228.478,28.7686,0.39503,-0.08183,0.98405
229.078,28.8256,0.39612,-0.08184147,0.98375
229.678,28.88263,0.39712,-0.08079027,0.98344
230.278,28.9397,0.39635,-0.08216002,0.98314
230.878,28.9967,0.39853,-0.08375998,0.98284
231.478,29.05395,0.4006,-0.08478988,0.98254
232.078,29.11095,0.39811,-0.08610361,0.98223
232.678,29.1678,0.39807,-0.08611001,0.98193
233.278,29.2247,0.40055,-0.08662893,0.98163
233.878,29.28166,0.40149,-0.08826757,0.98132
234.478,29.3387,0.4033,-0.08973694,0.98102
235.078,29.3958,0.40309,-0.08973,0.98072
235.678,29.4528,0.40485,-0.08973107,0.98041
236.278,29.5098,0.40405,-0.09105019,0.98011
236.878,29.56707,0.40461,-0.09240031,0.97981
237.478,29.62425,0.40551,-0.09236,0.9795
238.078,29.68122,0.40505,-0.09234815,0.9792
238.678,29.7381,0.40654,-0.09368005,0.9789
239.278,29.795,0.4106,-0.0949933,0.97859
239.878,29.852,0.40923,-0.09531322,0.97829
240.478,29.909,0.40919,-0.09662996,0.97799
241.078,29.96616,0.40944,-0.09796069,0.97768
241.678,30.02311,0.41035,-0.09894226,0.97738
242.278,30.0801,0.40974,-0.10026,0.97708
242.878,30.1371,0.40981,-0.10025,0.97677
243.478,30.19418,0.41219,-0.10058,0.97647
244.078,30.2512,0.40986,-0.1019,0.97617
244.678,30.30821,0.41047,-0.10331,0.97586
245.278,30.3653,0.40838,-0.10464,0.97556
245.878,30.42233,0.40746,-0.10618,0.97526
246.478,30.4794,0.40946,-0.10881,0.97495
247.078,30.5364,0.40821,-0.10914,0.97465
247.678,30.5936,0.40982,-0.1112,0.97434
248.278,30.6507,0.40839,-0.11277,0.97404
248.878,30.70792,0.40947,-0.11461,0.97374
249.478,30.7652,0.40668,-0.11597,0.97343
250.078,30.8223,0.40522,-0.11734,0.97313
250.678,30.8795,0.40596,-0.11802,0.97282
251.278,30.93657,0.40774,-0.11934,0.97252
251.878,30.99369,0.40642,-0.1211,0.97222
252.478,31.05097,0.40978,-0.12319,0.97191
253.078,31.10833,0.40547,-0.12446,0.97161
253.678,31.1658,0.40392,-0.12593,0.9713
254.278,31.2231,0.40555,-0.1276,0.971
254.878,31.28035,0.40336,-0.13094,0.97069
255.478,31.3376,0.40338,-0.13139,0.97039
256.078,31.3948,0.40313,-0.13344,0.97008
256.678,31.45223,0.40332,-0.13513,0.96978
257.278,31.50964,0.40426,-0.13725,0.96948
257.878,31.5672,0.4026,-0.13944,0.96917
258.478,31.62476,0.40385,-0.1425,0.96887
259.078,31.6822,0.40131,-0.14487,0.96856
259.678,31.73965,0.40574,-0.14654,0.96826
260.278,31.7972,0.40233,-0.14931,0.96795
260.878,31.8548,0.40266,-0.15223,0.96765
261.478,31.9123,0.40361,-0.15388,0.96734
262.078,31.9699,0.40636,-0.15683,0.96704
262.678,32.0275,0.40565,-0.15847,0.96673
263.278,32.085,0.40212,-0.16133,0.96643
263.878,32.14242,0.40571,-0.16312,0.96612
264.478,32.19989,0.40566,-0.16585,0.96581
265.078,32.2575,0.40449,-0.16899,0.96551
265.678,32.31521,0.40866,-0.17229,0.9652
266.278,32.37276,0.40889,-0.17576,0.9649
266.878,32.43027,0.4092,-0.18089,0.96459
267.478,32.48786,0.41105,-0.18425,0.96429
268.078,32.5452,0.41282,-0.18722,0.96398
268.678,32.60266,0.41506,-0.18949,0.96367
269.278,32.66012,0.41639,-0.19329,0.96337
269.878,32.71768,0.41908,-0.19755,0.96306
270.478,32.7754,0.42037,-0.20056,0.96276
271.078,32.83299,0.42263,-0.2044,0.96245
271.678,32.89063,0.42321,-0.20909,0.96214
272.278,32.94822,0.42674,-0.21247,0.96184
272.878,33.00574,0.42862,-0.21576,0.96153
273.478,33.06323,0.43054,-0.22101,0.96123
274.078,33.12076,0.43291,-0.22619,0.96092
274.678,33.17823,0.43705,-0.23055,0.96061
275.278,33.23574,0.43762,-0.23476,0.96031
275.878,33.29316,0.43821,-0.23822,0.96
276.478,33.35049,0.44208,-0.24397,0.95969
277.078,33.4077,0.44365,-0.2501,0.95939
277.678,33.46512,0.44699,-0.25379,0.95908
278.278,33.52259,0.44912,-0.25996,0.95877
278.878,33.5803,0.45385,-0.26521,0.95846
279.478,33.6379,0.45592,-0.27054,0.95816
280.078,33.6955,0.4602,-0.27478,0.95785
280.678,33.75297,0.46211,-0.2806,0.95754
281.278,33.81047,0.46242,-0.28716,0.95724
281.878,33.86796,0.46899,-0.2936,0.95693
282.478,33.9255,0.47336,-0.29949,0.95662
283.078,33.98312,0.4751,-0.30657,0.95631
283.678,34.0407,0.47552,-0.31278,0.95601
284.278,34.0982,0.4823,-0.3183,0.9557
284.878,34.1556,0.48386,-0.32554,0.95539
285.478,34.213,0.48707,-0.33237,0.95508
286.078,34.2707,0.49177,-0.3393,0.95477
286.678,34.3284,0.49313,-0.34628,0.95447
287.278,34.3862,0.4957,-0.35434,0.95416
287.878,34.4439,0.49889,-0.36114,0.95385
288.478,34.5017,0.5047,-0.36894,0.95354
289.078,34.5595,0.50776,-0.37585,0.95323
289.678,34.61728,0.51155,-0.38342,0.95292
290.278,34.6751,0.51275,-0.39243,0.95261
290.878,34.73274,0.51702,-0.39996,0.95231
291.478,34.79038,0.51924,-0.40917,0.952
292.078,34.8481,0.5245,-0.41669,0.95169
292.678,34.90586,0.52833,-0.4257,0.95138
293.278,34.96354,0.53132,-0.43478,0.95107
293.878,35.0212,0.53235,-0.44224,0.95076
294.478,35.07889,0.5383,-0.45274,0.95045
295.078,35.13658,0.54096,-0.46094,0.95014
295.678,35.19419,0.54513,-0.47272,0.94983
296.278,35.25183,0.5478,-0.48167,0.94952
296.878,35.3095,0.54913,-0.49179,0.94921
297.478,35.3673,0.5545,-0.50166,0.9489
298.078,35.4251,0.55948,-0.51259,0.94859
298.678,35.48285,0.56243,-0.52317,0.94828
299.278,35.5406,0.56682,-0.53201,0.94797
299.878,35.59835,0.57095,-0.54097,0.94766
300.478,35.6562,0.57112,-0.5536,0.94735
301.078,35.71417,0.57836,-0.56643,0.94704
301.678,35.77212,0.58044,-0.57685,0.94673
302.278,35.83014,0.58371,-0.58771,0.94642
302.878,35.88793,0.58786,-0.5991,0.94611
303.478,35.94576,0.59036,-0.61062,0.9458
304.078,36.00353,0.59453,-0.62174,0.94549
304.678,36.06122,0.596,-0.63476,0.94518
305.278,36.11912,0.59846,-0.64484,0.94486
305.878,36.17705,0.60269,-0.65799,0.94455
306.478,36.2348,0.60435,-0.67011,0.94424
307.078,36.29266,0.608,-0.68481,0.94393
307.678,36.35026,0.61206,-0.69909,0.94362
308.278,36.4081,0.61343,-0.71181,0.94331
308.878,36.46615,0.61952,-0.72389,0.943
309.478,36.52412,0.62225,-0.7365,0.94268
310.078,36.58205,0.62694,-0.74826,0.94237
310.678,36.63975,0.62827,-0.762,0.94206
311.278,36.69748,0.63189,-0.77498,0.94175
311.878,36.7553,0.63406,-0.78947,0.94143
312.478,36.81313,0.63885,-0.80426,0.94112
313.078,36.87083,0.64366,-0.81685,0.94081
313.678,36.9286,0.64481,-0.83231,0.9405
314.278,36.98628,0.64808,-0.84666,0.94018
314.878,37.04417,0.65015,-0.86008,0.93987
315.478,37.10196,0.65343,-0.87431,0.93956
316.078,37.1597,0.66038,-0.88855,0.93924
316.678,37.21732,0.66122,-0.90316,0.93893
317.278,37.27516,0.66349,-0.91849,0.93862
317.878,37.33289,0.66939,-0.93319,0.9383
318.478,37.39062,0.67045,-0.94828,0.93799
319.078,37.44828,0.67492,-0.96368,0.93767
319.678,37.50594,0.67889,-0.9803,0.93736
320.278,37.5637,0.68472,-0.99524,0.93705
320.878,37.6216,0.68723,-1.01133,0.93673
321.478,37.67944,0.69094,-1.02871,0.93642
322.078,37.73729,0.69259,-1.04502,0.9361
322.678,37.79502,0.69729,-1.06107,0.93579
323.278,37.85277,0.69968,-1.07774,0.93547
323.878,37.91048,0.70432,-1.09291,0.93516
324.478,37.96821,0.70724,-1.11048,0.93484
325.078,38.02602,0.71153,-1.12862,0.93453
325.678,38.08385,0.71643,-1.14603,0.93421
326.278,38.14172,0.71754,-1.16256,0.9339
326.878,38.19961,0.72444,-1.18144,0.93358
327.478,38.2575,0.73047,-1.19957,0.93327
328.078,38.3155,0.73299,-1.21808,0.93295
328.678,38.37332,0.73891,-1.23628,0.93263
329.278,38.43091,0.74282,-1.25352,0.93232
329.878,38.4888,0.74694,-1.27212,0.932
330.478,38.54671,0.7534,-1.29235,0.93169
331.078,38.6053,0.75913,-1.31049,0.93137
331.678,38.66301,0.7635,-1.33092,0.93105
332.278,38.7209,0.77139,-1.35103,0.93074
332.878,38.77868,0.77433,-1.36906,0.93042
333.478,38.83664,0.78313,-1.38973,0.9301
334.078,38.89462,0.79012,-1.41055,0.92978
334.678,38.95251,0.79569,-1.43019,0.92947
335.278,39.0105,0.80004,-1.45149,0.92915
335.878,39.06831,0.80756,-1.47398,0.92883
336.478,39.12617,0.81323,-1.49504,0.92851
337.078,39.1839,0.82069,-1.51747,0.9282
337.678,39.2418,0.82905,-1.53968,0.92788
338.278,39.2996,0.83349,-1.56158,0.92756
338.878,39.35758,0.83989,-1.58468,0.92724
339.478,39.41565,0.84662,-1.60731,0.92692
340.078,39.47375,0.85364,-1.63108,0.9266
340.678,39.53158,0.85783,-1.65539,0.92628
341.278,39.58951,0.8652,-1.67848,0.92596
341.878,39.6474,0.87162,-1.70254,0.92565
342.478,39.70532,0.87747,-1.72753,0.92533
343.078,39.76335,0.88335,-1.75002,0.92501
343.678,39.82134,0.88715,-1.77499,0.92469
344.278,39.87965,0.89305,-1.80091,0.92437
344.878,39.93782,0.89638,-1.82484,0.92405
345.478,39.996,0.89678,-1.85074,0.92373
346.078,40.0541,0.90349,-1.87673,0.92341
346.678,40.11222,0.90599,-1.90096,0.92309
347.278,40.17044,0.90324,-1.92736,0.92277
347.878,40.22866,0.90453,-1.95261,0.92245
348.478,40.2868,0.90403,-1.97855,0.92212
349.078,40.34478,0.90156,-2.00475,0.9218
349.678,40.4028,0.89904,-2.02953,0.92148
350.278,40.4608,0.89681,-2.05384,0.92116
350.878,40.5188,0.88977,-2.08135,0.92084
351.478,40.57703,0.88215,-2.10446,0.92052
352.078,40.63518,0.86986,-2.12953,0.92019
352.678,40.69324,0.86314,-2.15461,0.91987
353.278,40.75156,0.85414,-2.17813,0.91955
353.878,40.80962,0.84244,-2.20316,0.91923
354.478,40.8677,0.82467,-2.22598,0.91891
355.078,40.926,0.8082,-2.24863,0.91858
355.678,40.9843,0.79115,-2.27157,0.91826
356.278,41.0428,0.77526,-2.29402,0.91794
356.878,41.10125,0.75695,-2.31413,0.91761
357.478,41.15963,0.73485,-2.3357,0.91729
358.078,41.2179,0.71567,-2.35062,0.91697
358.678,41.27601,0.69157,-2.37453,0.91664
359.278,41.33422,0.67253,-2.39357,0.91632
359.878,41.39244,0.64692,-2.40967,0.91599
360.478,41.45075,0.62756,-2.42646,0.91567
361.078,41.50886,0.60231,-2.44388,0.91535
361.678,41.567,0.57906,-2.45952,0.91502
362.278,41.6252,0.55511,-2.47359,0.9147
362.878,41.68335,0.53268,-2.48798,0.91437
363.478,41.74146,0.51097,-2.50105,0.91405
364.078,41.79975,0.4862,-2.51566,0.91372
364.678,41.8579,0.46203,-2.52778,0.9134
365.278,41.91601,0.44031,-2.53914,0.91307
365.878,41.97404,0.41868,-2.54846,0.91274
366.478,42.03179,0.39691,-2.55746,0.91242
367.078,42.0895,0.37307,-2.56943,0.91209
367.678,42.14747,0.3527,-2.57812,0.91176
368.278,42.2055,0.33518,-2.58623,0.91144
368.878,42.26375,0.31583,-2.59206,0.91111
369.478,42.3219,0.29814,-2.59847,0.91078
370.078,42.37993,0.28128,-2.60494,0.91046
370.678,42.4379,0.26919,-2.60921,0.91013
371.278,42.4958,0.25294,-2.6155,0.9098
371.878,42.55366,0.24052,-2.62056,0.90947
372.478,42.61166,0.22884,-2.62563,0.90915
373.078,42.66984,0.21664,-2.62992,0.90882
373.678,42.72827,0.20962,-2.63398,0.90849
374.278,42.78647,0.19977,-2.6366,0.90816
374.878,42.84458,0.19277,-2.63809,0.90783
375.478,42.9026,0.18721,-2.64197,0.9075
376.078,42.9608,0.17948,-2.64429,0.90718
376.678,43.0191,0.1751,-2.64475,0.90685
377.278,43.07737,0.1705,-2.64738,0.90652
377.878,43.13572,0.1661,-2.64987,0.90619
378.478,43.19381,0.1615,-2.65301,0.90586
379.078,43.25206,0.16141,-2.65511,0.90553
379.678,43.31031,0.15888,-2.657,0.9052
380.278,43.36873,0.15724,-2.6576,0.90487
380.878,43.42696,0.1546,-2.6589,0.90454
381.478,43.48526,0.15493,-2.66125,0.9042
382.078,43.54356,0.15319,-2.66366,0.90387
382.678,43.60188,0.15039,-2.66589,0.90354
383.278,43.66032,0.15088,-2.66603,0.90321
383.878,43.7187,0.15008,-2.66794,0.90288
384.478,43.77705,0.14819,-2.67096,0.90255
385.078,43.83526,0.14576,-2.67229,0.90222
385.678,43.89343,0.14519,-2.67335,0.90188
386.278,43.95175,0.14381,-2.67493,0.90155
386.878,44.01015,0.14376,-2.67681,0.90122
387.478,44.06848,0.14286,-2.67886,0.90089
388.078,44.12677,0.14277,-2.68061,0.90055
388.678,44.185,0.13851,-2.68194,0.90022
389.278,44.24327,0.13959,-2.6837,0.89989
389.878,44.30155,0.14033,-2.68636,0.89955
390.478,44.35973,0.13946,-2.68776,0.89922
391.078,44.4179,0.13788,-2.68907,0.89888
391.678,44.47596,0.13863,-2.69033,0.89855
392.278,44.5343,0.1354,-2.69181,0.89822
392.878,44.59248,0.1337,-2.69367,0.89788
393.478,44.65075,0.13459,-2.69575,0.89755
394.078,44.7091,0.13264,-2.69707,0.89721
394.678,44.76744,0.13209,-2.69876,0.89687
395.278,44.82597,0.13159,-2.70157,0.89654
395.878,44.88428,0.13331,-2.70194,0.8962
396.478,44.9425,0.13236,-2.70277,0.89587
397.078,45.0009,0.12958,-2.70421,0.89553
397.678,45.05912,0.12826,-2.70552,0.89519
398.278,45.11744,0.12931,-2.70951,0.89486
398.878,45.17585,0.12754,-2.71092,0.89452
399.478,45.23425,0.12626,-2.7123,0.89418
400.078,45.29267,0.12367,-2.71232,0.89385
400.678,45.35106,0.12203,-2.71361,0.89351
401.278,45.40938,0.12399,-2.71632,0.89317
401.878,45.46779,0.1235,-2.71871,0.89283
402.478,45.5263,0.12089,-2.71962,0.8925
403.078,45.58489,0.11921,-2.72152,0.89216
403.678,45.64356,0.12019,-2.72286,0.89182
404.278,45.70223,0.11804,-2.7254,0.89148
404.878,45.76093,0.11884,-2.72713,0.89114
405.478,45.8196,0.11588,-2.72845,0.8908
406.078,45.87811,0.11808,-2.72977,0.89046
406.678,45.93672,0.11599,-2.73108,0.89012
407.278,45.99545,0.11515,-2.7324,0.88978
407.878,46.05426,0.1149,-2.73371,0.88944
408.478,46.1132,0.11311,-2.73513,0.8891
409.078,46.17185,0.11573,-2.73644,0.88876
409.678,46.23035,0.11318,-2.73817,0.88842
410.278,46.28917,0.11113,-2.74057,0.88808
410.878,46.3478,0.11167,-2.74194,0.88774
411.478,46.4061,0.11024,-2.74337,0.8874
412.078,46.4651,0.11272,-2.74622,0.88705
412.678,46.52366,0.11325,-2.74751,0.88671
413.278,46.583,0.10964,-2.74886,0.88637
413.878,46.64175,0.11221,-2.75012,0.88603
414.478,46.70044,0.11243,-2.75016,0.88568
415.078,46.75906,0.11168,-2.7528,0.88534
415.678,46.81797,0.11175,-2.75411,0.885
416.278,46.8767,0.1139,-2.75686,0.88465
416.878,46.93523,0.11128,-2.7584,0.88431
417.478,46.9938,0.11194,-2.75971,0.88397
418.078,47.0525,0.11237,-2.76102,0.88362
418.678,47.11118,0.11331,-2.76102,0.88328
419.278,47.1701,0.10851,-2.76217,0.88293
419.878,47.229,0.11035,-2.76469,0.88259
420.478,47.28787,0.11262,-2.76511,0.88224
421.078,47.34681,0.11487,-2.76665,0.8819
421.678,47.40547,0.11116,-2.76769,0.88155
422.278,47.46413,0.11231,-2.77043,0.88121
422.878,47.5227,0.11386,-2.77284,0.88086
423.478,47.58128,0.1127,-2.77423,0.88051
424.078,47.63988,0.11223,-2.77545,0.88017
424.678,47.69863,0.11375,-2.77705,0.87982
425.278,47.75739,0.11309,-2.77831,0.87947
425.878,47.81609,0.11206,-2.77966,0.87913
426.478,47.8748,0.11411,-2.78163,0.87878
427.078,47.93367,0.11169,-2.78437,0.87843
427.678,47.99238,0.11628,-2.78592,0.87808
428.278,48.05084,0.11454,-2.78738,0.87774
428.878,48.1094,0.11647,-2.78866,0.87739
429.478,48.16795,0.11406,-2.78997,0.87704
430.078,48.22708,0.11554,-2.79042,0.87669
430.678,48.2858,0.11499,-2.79097,0.87634
431.278,48.34447,0.11662,-2.79131,0.87599
431.878,48.40317,0.1165,-2.79295,0.87564
432.478,48.46196,0.11604,-2.79393,0.87529
433.078,48.52068,0.1149,-2.79524,0.87494
433.678,48.57911,0.1161,-2.79656,0.87459
434.278,48.63774,0.11797,-2.79809,0.87424
434.878,48.69628,0.11862,-2.80064,0.87389
435.478,48.75504,0.12055,-2.80073,0.87354
436.078,48.81381,0.12175,-2.80201,0.87318
436.678,48.87263,0.12229,-2.80204,0.87283
437.278,48.93158,0.11993,-2.80295,0.87248
437.878,48.991,0.11778,-2.80467,0.87213
438.478,49.0498,0.12141,-2.80599,0.87178
439.078,49.10877,0.12223,-2.80793,0.87142
439.678,49.16753,0.12109,-2.80994,0.87107
440.278,49.2264,0.12397,-2.81186,0.87072
440.878,49.28526,0.12237,-2.81373,0.87036
441.478,49.34422,0.12263,-2.81545,0.87001
442.078,49.40309,0.12499,-2.81543,0.86965
442.678,49.46196,0.12438,-2.81674,0.8693
443.278,49.52075,0.12214,-2.81806,0.86895
443.878,49.57946,0.1253,-2.81806,0.86859
444.478,49.63816,0.12685,-2.8199,0.86824
445.078,49.69695,0.12606,-2.82202,0.86788
445.678,49.75568,0.12694,-2.82201,0.86752
446.278,49.81459,0.1261,-2.82254,0.86717
446.878,49.87344,0.12736,-2.82374,0.86681
447.478,49.93241,0.12755,-2.82562,0.86646
448.078,49.9915,0.12678,-2.82685,0.8661
448.678,50.0505,0.12712,-2.82769,0.86574
449.278,50.10974,0.12713,-2.82991,0.86538
449.878,50.16891,0.12888,-2.83122,0.86503
450.478,50.22798,0.12808,-2.83254,0.86467
451.078,50.28698,0.127,-2.83129,0.86431
451.678,50.3461,0.12839,-2.83288,0.86395
452.278,50.40525,0.12895,-2.83517,0.86359
452.878,50.46433,0.12987,-2.83649,0.86323
453.478,50.5233,0.13085,-2.83532,0.86288
454.078,50.5824,0.13107,-2.83843,0.86252
454.678,50.64132,0.13165,-2.8391,0.86216
455.278,50.70042,0.13312,-2.83911,0.8618
455.878,50.75946,0.13178,-2.84043,0.86144
456.478,50.81864,0.13452,-2.84072,0.86108
457.078,50.87778,0.13167,-2.84236,0.86071
457.678,50.9368,0.13107,-2.84339,0.86035
458.278,50.99588,0.13262,-2.84336,0.85999
458.878,51.05511,0.13316,-2.84371,0.85963
459.478,51.11423,0.13313,-2.84504,0.85927
460.078,51.17348,0.13468,-2.84504,0.85891
460.678,51.23227,0.13095,-2.84636,0.85854
461.278,51.29143,0.13071,-2.84767,0.85818
461.878,51.35068,0.13195,-2.84899,0.85782
462.478,51.40985,0.13179,-2.84899,0.85745
463.078,51.46922,0.13123,-2.84997,0.85709
463.678,51.52835,0.13026,-2.85139,0.85673
464.278,51.58741,0.13028,-2.85282,0.85636
464.878,51.64665,0.13254,-2.85479,0.856
465.478,51.706,0.13392,-2.85403,0.85563
466.078,51.7652,0.13169,-2.85532,0.85527
466.678,51.82458,0.13219,-2.85622,0.8549
467.278,51.88381,0.13367,-2.85784,0.85454
467.878,51.94305,0.13244,-2.85798,0.85417
468.478,52.00247,0.13104,-2.85798,0.85381
469.078,52.06188,0.13237,-2.8588,0.85344
469.678,52.1214,0.13579,-2.85918,0.85307
470.278,52.1806,0.1337,-2.85995,0.85271
470.878,52.23989,0.13182,-2.86127,0.85234
471.478,52.29906,0.13608,-2.86259,0.85197
472.078,52.35835,0.13322,-2.86353,0.8516
472.678,52.41752,0.13126,-2.86489,0.85123
473.278,52.47695,0.13223,-2.86489,0.85087
473.878,52.5362,0.13598,-2.86477,0.8505
474.478,52.59535,0.13538,-2.86457,0.85013
475.078,52.65449,0.13768,-2.86634,0.84976
475.678,52.71354,0.13864,-2.86763,0.84939
476.278,52.77267,0.1381,-2.86895,0.84902
476.878,52.83184,0.1396,-2.86961,0.84865
477.478,52.89108,0.13756,-2.87093,0.84828
478.078,52.9504,0.13923,-2.87092,0.84791
478.678,53.00963,0.14188,-2.87224,0.84754
479.278,53.06881,0.14033,-2.87247,0.84717
479.878,53.128,0.14019,-2.87356,0.84679
480.478,53.18716,0.1428,-2.87486,0.84642
481.078,53.2464,0.14191,-2.87389,0.84605
481.678,53.30565,0.13953,-2.87521,0.84568
482.278,53.365,0.14161,-2.87521,0.8453
482.878,53.42416,0.14003,-2.87653,0.84493
483.478,53.48364,0.14278,-2.87834,0.84456
484.078,53.5431,0.14286,-2.87882,0.84418
484.678,53.6028,0.14196,-2.87981,0.84381
485.278,53.6621,0.14143,-2.88111,0.84344
485.878,53.721,0.14189,-2.88112,0.84306
486.478,53.7804,0.1398,-2.88112,0.84269
487.078,53.83962,0.14106,-2.88014,0.84231
487.678,53.89949,0.14209,-2.88146,0.84194
488.278,53.9588,0.14091,-2.88278,0.84156
488.878,54.01817,0.14295,-2.88278,0.84118
489.478,54.07745,0.14252,-2.88409,0.84081
490.078,54.1368,0.14388,-2.88409,0.84043
490.678,54.1961,0.14038,-2.88375,0.84005
491.278,54.25513,0.14117,-2.88549,0.83968
491.878,54.31448,0.1405,-2.88661,0.8393
492.478,54.37319,0.14091,-2.88529,0.83892
493.078,54.43245,0.14137,-2.88727,0.83854
493.678,54.49196,0.14344,-2.88727,0.83816
494.278,54.5513,0.14365,-2.8876,0.83779
494.878,54.61048,0.142,-2.88925,0.83741
495.478,54.66966,0.14229,-2.88926,0.83703
496.078,54.7287,0.1469,-2.89056,0.83665
496.678,54.7883,0.15072,-2.89187,0.83627
497.278,54.8476,0.15717,-2.89188,0.83589
497.878,54.9069,0.16025,-2.8932,0.83551
498.478,54.96609,0.16605,-2.89418,0.83513
499.078,55.02541,0.16722,-2.89418,0.83474
499.678,55.0844,0.16942,-2.8942,0.83436
500.278,55.1436,0.16888,-2.8955,0.83398
500.878,55.20275,0.17407,-2.89671,0.8336
501.478,55.26204,0.17275,-2.89681,0.83322
502.078,55.3215,0.17347,-2.89797,0.83283
502.678,55.3808,0.17703,-2.89947,0.83245
503.278,55.44,0.17836,-2.89945,0.83207
503.878,55.4991,0.17855,-2.89945,0.83168
504.478,55.5581,0.18313,-2.90076,0.8313
505.078,55.6172,0.18526,-2.90076,0.83092
505.678,55.6762,0.18675,-2.90076,0.83053
506.278,55.73523,0.18872,-2.90213,0.83015
506.878,55.79447,0.18651,-2.90142,0.82976
507.478,55.8537,0.18617,-2.90274,0.82938
508.078,55.91315,0.18802,-2.90274,0.82899
508.678,55.9726,0.1864,-2.90339,0.8286
509.278,56.0321,0.18832,-2.90405,0.82822
509.878,56.0917,0.18768,-2.90537,0.82783
510.478,56.1513,0.18857,-2.90537,0.82744
511.078,56.211,0.18664,-2.90538,0.82706
511.678,56.2705,0.18506,-2.90668,0.82667
512.278,56.3301,0.18509,-2.90801,0.82628
512.878,56.3895,0.18589,-2.908,0.82589
513.478,56.44895,0.18419,-2.908,0.8255
514.078,56.50826,0.18619,-2.90866,0.82511
514.678,56.56762,0.18697,-2.90881,0.82473
515.278,56.62687,0.18803,-2.909,0.82434
515.878,56.6864,0.19098,-2.9103,0.82395
516.478,56.746,0.18916,-2.91031,0.82356
517.078,56.8058,0.19037,-2.91162,0.82317
517.678,56.86555,0.18651,-2.91161,0.82277
518.278,56.9252,0.18871,-2.91292,0.82238
518.878,56.9849,0.18997,-2.91423,0.82199
519.478,57.0444,0.18684,-2.91425,0.8216
520.078,57.104,0.18483,-2.91326,0.82121
520.678,57.1636,0.18021,-2.91321,0.82082
521.278,57.22316,0.17352,-2.91492,0.82042
521.878,57.28255,0.16823,-2.91592,0.82003
522.478,57.342,0.16676,-2.91594,0.81964
523.078,57.40159,0.16357,-2.91589,0.81924
523.678,57.46114,0.16145,-2.91589,0.81885
524.278,57.52114,0.15701,-2.91721,0.81845
524.878,57.5807,0.15708,-2.91832,0.81806
525.478,57.63978,0.15489,-2.91699,0.81766
526.078,57.6995,0.15237,-2.91843,0.81727
526.678,57.75911,0.15292,-2.91973,0.81687
527.278,57.8192,0.15437,-2.91973,0.81648
527.878,57.8791,0.14918,-2.92237,0.81608
528.478,57.9389,0.15132,-2.9214,0.81568
529.078,57.99872,0.14836,-2.92105,0.81529
529.678,58.0586,0.15077,-2.92105,0.81489
530.278,58.1183,0.15092,-2.92105,0.81449
530.878,58.17801,0.14909,-2.92204,0.8141
531.478,58.23771,0.14606,-2.92144,0.8137
532.078,58.29735,0.14784,-2.92171,0.8133
532.678,58.357,0.14851,-2.9225,0.8129
533.278,58.41675,0.14839,-2.92303,0.8125
533.878,58.47645,0.14673,-2.92298,0.8121
534.478,58.53614,0.14743,-2.92435,0.8117
535.078,58.59581,0.1467,-2.92566,0.8113
535.678,58.65565,0.1464,-2.92566,0.8109
536.278,58.7155,0.14403,-2.92668,0.8105
536.878,58.77519,0.14445,-2.92757,0.8101
537.478,58.83491,0.14231,-2.9283,0.8097
538.078,58.89456,0.14087,-2.9283,0.8093
538.678,58.95431,0.14342,-2.92961,0.80889
539.278,59.01404,0.14143,-2.9283,0.80849
539.878,59.0738,0.14001,-2.9283,0.80809
540.478,59.1335,0.13934,-2.92961,0.80769
541.078,59.19324,0.1385,-2.92962,0.80728
541.678,59.253,0.13622,-2.93093,0.80688
542.278,59.3128,0.1354,-2.93093,0.80647
542.878,59.37226,0.13326,-2.93224,0.80607
543.478,59.4319,0.13331,-2.93322,0.80567
544.078,59.49175,0.13054,-2.93323,0.80526
544.678,59.5516,0.12632,-2.93323,0.80485
545.278,59.6115,0.12699,-2.93323,0.80445
545.878,59.67115,0.126,-2.93455,0.80404
546.478,59.7307,0.12617,-2.93423,0.80364
547.078,59.79031,0.12293,-2.93553,0.80323
547.678,59.85004,0.12161,-2.93554,0.80282
548.278,59.90961,0.12225,-2.93685,0.80242
548.878,59.9691,0.12116,-2.93685,0.80201
549.478,60.02874,0.12039,-2.93817,0.8016
550.078,60.0884,0.11672,-2.93817,0.80119
550.678,60.14812,0.11721,-2.93811,0.80078
551.278,60.20776,0.11433,-2.93813,0.80037
551.878,60.26739,0.11373,-2.94122,0.79997
552.478,60.32694,0.11345,-2.93993,0.79956
553.078,60.38672,0.10986,-2.94003,0.79915
553.678,60.44654,0.10578,-2.94003,0.79874
554.278,60.5066,0.10811,-2.94003,0.79832
554.878,60.56632,0.10409,-2.94134,0.79791
555.478,60.6259,0.10598,-2.94134,0.7975
556.078,60.68529,0.10429,-2.94134,0.79709
556.678,60.74507,0.10128,-2.94193,0.79668
557.278,60.805,0.10304,-2.94266,0.79627
557.878,60.86525,0.1013,-2.94266,0.79585
558.478,60.92524,0.10247,-2.94266,0.79544
559.078,60.98506,0.10319,-2.94398,0.79503
559.678,61.04486,0.10071,-2.94529,0.79461
560.278,61.1047,0.10234,-2.94529,0.7942
560.878,61.1644,0.0967914,-2.94529,0.79379
561.478,61.22426,0.09902652,-2.94661,0.79337
562.078,61.28406,0.09617921,-2.94715,0.79296
562.678,61.34395,0.09851959,-2.94726,0.79254
563.278,61.40381,0.0967803,-2.94829,0.79213
563.878,61.46363,0.09529705,-2.94823,0.79171
564.478,61.5235,0.09348247,-2.94957,0.79129
565.078,61.5835,0.09552191,-2.94957,0.79088
565.678,61.6435,0.09232331,-2.9488,0.79046
566.278,61.7036,0.09466528,-2.94957,0.79004
566.878,61.7636,0.09319604,-2.95088,0.78963
567.478,61.8236,0.09457799,-2.95089,0.78921
568.078,61.88354,0.09074291,-2.9522,0.78879
568.678,61.94364,0.09296419,-2.95306,0.78837
569.278,62.0037,0.08990245,-2.95221,0.78795
569.878,62.0639,0.08944065,-2.95287,0.78753
570.478,62.124,0.09034514,-2.95417,0.78711
571.078,62.18401,0.09087889,-2.95417,0.78669
571.678,62.24416,0.09047985,-2.95417,0.78627
572.278,62.30429,0.08671081,-2.95417,0.78585
572.878,62.36446,0.08766491,-2.95417,0.78543
573.478,62.42475,0.09036258,-2.95354,0.78501
574.078,62.48486,0.0882329,-2.95348,0.78459
574.678,62.5452,0.08842049,-2.95582,0.78417
575.278,62.6052,0.08915496,-2.95582,0.78374
575.878,62.66516,0.0905485,-2.95582,0.78332
576.478,62.72518,0.08510914,-2.95713,0.7829
577.078,62.78526,0.08688588,-2.95713,0.78248
577.678,62.8453,0.09023634,-2.95807,0.78205
578.278,62.90512,0.0865183,-2.95843,0.78163
578.878,62.96484,0.09167149,-2.96054,0.7812
579.478,63.02462,0.09047189,-2.95882,0.78078
580.078,63.08439,0.09008733,-2.9601,0.78035
580.678,63.1443,0.08977643,-2.96076,0.77993
581.278,63.20397,0.09205003,-2.96043,0.7795
581.878,63.2638,0.09009454,-2.96049,0.77908
582.478,63.3237,0.09069905,-2.95944,0.77865
583.078,63.3834,0.09175545,-2.96076,0.77822
583.678,63.4432,0.09320667,-2.96175,0.7778
584.278,63.50315,0.09282922,-2.96171,0.77737
584.878,63.5631,0.09296555,-2.96305,0.77694
585.478,63.62302,0.09283391,-2.96307,0.77652
586.078,63.6828,0.09491373,-2.96546,0.77609
586.678,63.7426,0.09313291,-2.96438,0.77566
587.278,63.8024,0.09501381,-2.96438,0.77523
587.878,63.86232,0.096635,-2.96496,0.7748
588.478,63.92207,0.09815868,-2.96471,0.77437
589.078,63.9818,0.09552564,-2.96471,0.77394
589.678,64.04174,0.09771168,-2.96604,0.77351
590.278,64.10162,0.10181,-2.96602,0.77308
590.878,64.16152,0.09783184,-2.96734,0.77265
591.478,64.22136,0.10006,-2.96734,0.77222
592.078,64.28116,0.10433,-2.96825,0.77179
592.678,64.3411,0.0996766,-2.96866,0.77135
593.278,64.4011,0.10181,-2.96866,0.77092
593.878,64.4611,0.10012,-2.96997,0.77049
594.478,64.52116,0.1026,-2.96962,0.77006
595.078,64.581,0.10057,-2.96997,0.76962
595.678,64.64081,0.10314,-2.97096,0.76919
596.278,64.70085,0.10374,-2.97226,0.76875
596.878,64.76094,0.10782,-2.97096,0.76832
597.478,64.82123,0.10535,-2.97096,0.76789
598.078,64.8813,0.1079,-2.97096,0.76745
598.678,64.9413,0.10577,-2.97096,0.76702
599.278,65.00131,0.10552,-2.97096,0.76658
599.878,65.06136,0.10755,-2.97096,0.76614
600.478,65.12151,0.11177,-2.97255,0.76571
601.078,65.18159,0.11094,-2.97371,0.76527
601.678,65.2417,0.1118,-2.97371,0.76483
602.278,65.30187,0.11371,-2.97502,0.7644
602.878,65.3621,0.1125,-2.975,0.76396
603.478,65.4225,0.11737,-2.97634,0.76352
604.078,65.48281,0.11985,-2.97634,0.76308
604.678,65.5432,0.11842,-2.97766,0.76264
605.278,65.60346,0.11631,-2.97766,0.7622
605.878,65.66367,0.11874,-2.97864,0.76177
606.478,65.7239,0.11744,-2.97914,0.76133
607.078,65.78408,0.11967,-2.97864,0.76089
607.678,65.8442,0.1222,-2.97996,0.76045
608.278,65.90442,0.12241,-2.97996,0.76
608.878,65.96461,0.12422,-2.97996,0.75956
609.478,66.02472,0.12468,-2.98128,0.75912
610.078,66.08465,0.12587,-2.98028,0.75868
610.678,66.14466,0.12206,-2.98079,0.75824
611.278,66.2049,0.12298,-2.9816,0.7578
611.878,66.265,0.12412,-2.98292,0.75735
612.478,66.32518,0.12374,-2.98292,0.75691
613.078,66.3852,0.124,-2.98292,0.75647
613.678,66.44558,0.12423,-2.98423,0.75602
614.278,66.50564,0.12942,-2.98554,0.75558
614.878,66.56599,0.12943,-2.98555,0.75514
615.478,66.62612,0.12888,-2.98687,0.75469
616.078,66.68639,0.13243,-2.98757,0.75425
616.678,66.74655,0.13437,-2.98785,0.7538
617.278,66.80667,0.13722,-2.98917,0.75335
617.878,66.8667,0.13873,-2.98917,0.75291
618.478,66.92693,0.13614,-2.98917,0.75246
619.078,66.9873,0.13901,-2.99001,0.75202
619.678,67.04762,0.14055,-2.99048,0.75157
620.278,67.10797,0.14246,-2.99048,0.75112
620.878,67.1681,0.14347,-2.98951,0.75067
621.478,67.22822,0.14316,-2.99048,0.75023
622.078,67.28833,0.14718,-2.99114,0.74978
622.678,67.34841,0.14655,-2.99246,0.74933
623.278,67.40875,0.14949,-2.99246,0.74888
623.878,67.4691,0.15076,-2.9935,0.74843
624.478,67.5295,0.14867,-2.99509,0.74798
625.078,67.58997,0.14883,-2.99507,0.74753
625.678,67.65018,0.15129,-2.99603,0.74708
626.278,67.7106,0.15365,-2.9951,0.74663
626.878,67.77051,0.1527,-2.9951,0.74618
627.478,67.8308,0.15629,-2.99505,0.74573
628.078,67.8912,0.15913,-2.99641,0.74527
628.678,67.9516,0.15921,-2.99666,0.74482
629.278,68.012,0.1585,-2.99904,0.74437
629.878,68.0723,0.16084,-2.99904,0.74392
630.478,68.13275,0.16104,-2.99904,0.74346
631.078,68.1932,0.16114,-3.00036,0.74301
631.678,68.2531,0.16445,-3.00036,0.74256
632.278,68.3135,0.16712,-3.00036,0.7421
632.878,68.37395,0.16909,-3.00168,0.74165
633.478,68.43475,0.16797,-3.00183,0.74119
634.078,68.4953,0.1709,-3.00304,0.74074
634.678,68.55551,0.17218,-3.00337,0.74028
635.278,68.6157,0.17403,-3.00332,0.73983
635.878,68.67591,0.1737,-3.00327,0.73937
636.478,68.7363,0.17605,-3.00459,0.73892
637.078,68.79678,0.17948,-3.00595,0.73846
637.678,68.85724,0.18093,-3.00595,0.738
638.278,68.9173,0.18102,-3.00614,0.73755
638.878,68.97768,0.18014,-3.00694,0.73709
639.478,69.03809,0.18228,-3.00825,0.73663
640.078,69.098,0.18646,-3.00745,0.73617
640.678,69.15868,0.18755,-3.00825,0.73571
641.278,69.21894,0.19451,-3.00956,0.73525
641.878,69.2795,0.19531,-3.01221,0.7348
642.478,69.33969,0.19687,-3.01086,0.73434
643.078,69.3998,0.19962,-3.0122,0.73388
643.678,69.4602,0.2034,-3.01352,0.73342
644.278,69.5206,0.20205,-3.01352,0.73295
644.878,69.58103,0.20859,-3.01483,0.73249
645.478,69.64134,0.21025,-3.01489,0.73203
646.078,69.7016,0.20977,-3.01615,0.73157
646.678,69.76186,0.2122,-3.01746,0.73111
647.278,69.8222,0.21311,-3.01746,0.73065
647.878,69.8827,0.21493,-3.01878,0.73018
648.478,69.94331,0.21839,-3.01755,0.72972
649.078,70.0039,0.21913,-3.01879,0.72926
649.678,70.06469,0.22169,-3.0201,0.7288
650.278,70.12549,0.22461,-3.02141,0.72833
650.878,70.1863,0.22478,-3.02142,0.72787
651.478,70.24701,0.22576,-3.02272,0.7274
652.078,70.30741,0.22918,-3.02536,0.72694
652.678,70.36788,0.23305,-3.02529,0.72647
653.278,70.4284,0.23294,-3.02537,0.72601
653.878,70.48908,0.23512,-3.02668,0.72554
654.478,70.54966,0.23936,-3.02668,0.72508
655.078,70.6104,0.24279,-3.02802,0.72461
655.678,70.67093,0.24295,-3.02734,0.72414
656.278,70.73144,0.24315,-3.02866,0.72368
656.878,70.79194,0.24414,-3.02997,0.72321
657.478,70.85247,0.24709,-3.03096,0.72274
658.078,70.91311,0.24763,-3.03129,0.72227
658.678,70.9738,0.24924,-3.0326,0.7218
659.278,71.03445,0.24739,-3.0335,0.72134
659.878,71.0949,0.25218,-3.03523,0.72087
660.478,71.1554,0.25176,-3.03654,0.7204
661.078,71.21607,0.25107,-3.03684,0.71993
661.678,71.27673,0.25405,-3.03788,0.71946
662.278,71.33763,0.25362,-3.03855,0.71899
662.878,71.398,0.25511,-3.03853,0.71852
663.478,71.4586,0.25574,-3.03853,0.71805
664.078,71.5189,0.2574,-3.0408,0.71758
664.678,71.5795,0.25951,-3.04303,0.7171
665.278,71.6401,0.25435,-3.04433,0.71663
665.878,71.7008,0.25839,-3.04567,0.71616
666.478,71.7615,0.25926,-3.04598,0.71569
667.078,71.82196,0.25677,-3.04607,0.71521
667.678,71.88244,0.25772,-3.04874,0.71474
668.278,71.94287,0.2594,-3.04942,0.71427
668.878,72.00329,0.26235,-3.05136,0.71379
669.478,72.06365,0.25881,-3.05268,0.71332
670.078,72.12382,0.26461,-3.05285,0.71285
670.678,72.1841,0.26145,-3.05267,0.71237
671.278,72.24433,0.265,-3.05399,0.7119
671.878,72.30465,0.25971,-3.05531,0.71142
672.478,72.3652,0.26207,-3.05663,0.71095
673.078,72.42572,0.26397,-3.05531,0.71047
673.678,72.4863,0.2629,-3.05663,0.70999
674.278,72.54666,0.26625,-3.05663,0.70952
674.878,72.60704,0.2641,-3.05794,0.70904
675.478,72.66753,0.26229,-3.05906,0.70856
676.078,72.72795,0.26066,-3.06041,0.70809
676.678,72.7884,0.25897,-3.06076,0.70761
677.278,72.849,0.25695,-3.06253,0.70713
677.878,72.90943,0.25684,-3.06321,0.70665
678.478,72.97012,0.25503,-3.06321,0.70617
679.078,73.03075,0.25605,-3.06623,0.70569
679.678,73.09115,0.25658,-3.06738,0.70521
680.278,73.1516,0.25379,-3.06736,0.70473
680.878,73.212,0.2527,-3.0677,0.70425
681.478,73.27244,0.24952,-3.06869,0.70377
682.078,73.33296,0.24555,-3.07001,0.70329
682.678,73.39341,0.24585,-3.07001,0.70281
683.278,73.45394,0.23759,-3.07132,0.70233
683.878,73.5145,0.2347,-3.07263,0.70185
684.478,73.57499,0.22733,-3.07265,0.70137
685.078,73.6357,0.22671,-3.07396,0.70089
685.678,73.6965,0.22225,-3.07489,0.7004
686.278,73.7574,0.21336,-3.07425,0.69992
686.878,73.81833,0.20892,-3.0756,0.69944
687.478,73.87906,0.20495,-3.07692,0.69895
688.078,73.93966,0.20108,-3.07823,0.69847
688.678,74.00055,0.19654,-3.07933,0.69799
689.278,74.06139,0.19292,-3.07956,0.6975
689.878,74.12226,0.19135,-3.08086,0.69702
690.478,74.18313,0.18609,-3.08027,0.69653
691.078,74.24379,0.18188,-3.08086,0.69605
691.678,74.3045,0.17922,-3.08086,0.69556
692.278,74.36498,0.17708,-3.08086,0.69508
692.878,74.42565,0.17413,-3.08218,0.69459
693.478,74.48657,0.17731,-3.08218,0.6941
694.078,74.5475,0.17649,-3.08218,0.69362
694.678,74.60849,0.17628,-3.08276,0.69313
695.278,74.6691,0.1778,-3.08375,0.69264
695.878,74.7297,0.17389,-3.08605,0.69216
696.478,74.79029,0.17027,-3.08736,0.69167
697.078,74.85095,0.17348,-3.08887,0.69118
697.678,74.91153,0.17638,-3.08941,0.69069
698.278,74.9721,0.17251,-3.09018,0.6902
698.878,75.03264,0.17539,-3.09018,0.68971
699.478,75.0932,0.17566,-3.09018,0.68923
700.078,75.1537,0.17631,-3.08997,0.68874
700.678,75.21415,0.17508,-3.09019,0.68825
701.278,75.27472,0.17532,-3.09019,0.68776
701.878,75.33505,0.17526,-3.0902,0.68727
702.478,75.39555,0.17397,-3.09118,0.68677
703.078,75.45599,0.17073,-3.0925,0.68628
703.678,75.51651,0.17179,-3.0925,0.68579
704.278,75.577,0.17278,-3.0925,0.6853
704.878,75.63745,0.1717,-3.09381,0.68481
705.478,75.69798,0.17086,-3.09513,0.68432
706.078,75.75854,0.17208,-3.09644,0.68382
706.678,75.81917,0.16857,-3.09513,0.68333
707.278,75.8798,0.16875,-3.09644,0.68284
707.878,75.94043,0.17066,-3.09644,0.68234
708.478,76.00109,0.16709,-3.09644,0.68185
709.078,76.06152,0.16622,-3.09776,0.68136
709.678,76.12204,0.16705,-3.09907,0.68086
710.278,76.18264,0.16719,-3.09907,0.68037
710.878,76.24335,0.16474,-3.10039,0.67987
711.478,76.30417,0.16571,-3.10122,0.67938
712.078,76.3647,0.16718,-3.10171,0.67888
712.678,76.42545,0.1669,-3.10171,0.67839
713.278,76.48608,0.16443,-3.10302,0.67789
713.878,76.54652,0.16436,-3.10302,0.67739
714.478,76.60705,0.16294,-3.10302,0.6769
715.078,76.6678,0.161,-3.10434,0.6764
715.678,76.72844,0.15859,-3.10434,0.6759
716.278,76.78931,0.16159,-3.10433,0.67541
716.878,76.8498,0.16106,-3.10375,0.67491
717.478,76.91037,0.16132,-3.10433,0.67441
718.078,76.97097,0.15904,-3.10433,0.67391
718.678,77.03161,0.15974,-3.10432,0.67341
719.278,77.09254,0.15728,-3.10565,0.67292
719.878,77.15338,0.15572,-3.10565,0.67242
720.478,77.2141,0.15797,-3.10828,0.67192
721.078,77.27489,0.15552,-3.10698,0.67142
721.678,77.33547,0.15361,-3.10693,0.67092
722.278,77.3964,0.15528,-3.109,0.67042
722.878,77.45727,0.15366,-3.1096,0.66992
723.478,77.51796,0.1535,-3.1096,0.66942
724.078,77.57896,0.15316,-3.1096,0.66892
724.678,77.63972,0.15137,-3.1096,0.66841
725.278,77.70047,0.15048,-3.10968,0.66791
725.878,77.7611,0.15009,-3.10988,0.66741
726.478,77.82171,0.14733,-3.10957,0.66691
727.078,77.8824,0.14893,-3.11091,0.66641
727.678,77.94292,0.14965,-3.10948,0.6659
728.278,78.0034,0.14868,-3.11256,0.6654
728.878,78.06405,0.14862,-3.11124,0.6649
729.478,78.1246,0.14479,-3.11389,0.66439
730.078,78.18505,0.14911,-3.11388,0.66389
730.678,78.24571,0.14882,-3.11388,0.66339
731.278,78.30631,0.14782,-3.1152,0.66288
731.878,78.36715,0.14662,-3.1152,0.66238
732.478,78.4279,0.14441,-3.1152,0.66187
733.078,78.48865,0.14425,-3.1152,0.66137
733.678,78.54948,0.14287,-3.11579,0.66086
734.278,78.61015,0.13823,-3.11318,0.66036
734.878,78.67084,0.13918,-3.11788,0.65985
735.478,78.7316,0.14065,-3.11862,0.65934
736.078,78.79217,0.13588,-3.1183,0.65884
736.678,78.85295,0.1431,-3.11727,0.65833
737.278,78.914,0.13516,-3.1186,0.65782
737.878,78.97502,0.13497,-3.11993,0.65732
738.478,79.0361,0.13335,-3.1186,0.65681
739.078,79.0972,0.13066,-3.11855,0.6563
739.678,79.15834,0.13133,-3.11991,0.65579
740.278,79.21953,0.13025,-3.1186,0.65529
740.878,79.28066,0.13105,-3.1199,0.65478
741.478,79.34169,0.12754,-3.1186,0.65427
742.078,79.40261,0.12909,-3.11859,0.65376
742.678,79.46367,0.13357,-3.11859,0.65325
743.278,79.52476,0.12925,-3.11989,0.65274
743.878,79.58596,0.12703,-3.1209,0.65223
744.478,79.64726,0.12769,-3.12136,0.65172
745.078,79.70836,0.12777,-3.12222,0.65121
745.678,79.76948,0.12658,-3.12255,0.6507
746.278,79.8305,0.12774,-3.12386,0.65019
746.878,79.89126,0.1251,-3.12386,0.64968
747.478,79.95183,0.12431,-3.12386,0.64917
747.878,79.99223,0.12483,-3.12386,0.64883