File: 01_Data/PlasticC/STA/N2/30K_min/PlasticC_STA_N2_30KData_211027_R1.csv
,Time/min,DSC/mW,Mass loss/mg,Sensit./(uV/mW)
50.0,10.9628,-0.00394683,0.0801025,1.05402
50.5,11.1807,0.076093,0.0830928,1.05403
51,11.325,0.153115,0.0748162,1.05404
51.5,11.4394,0.211034,0.0815384,1.05405
52,11.5337,0.276521,0.0843907,1.05405
52.5,11.617,0.340918,0.0826905,1.05406
53,11.6914,0.396822,0.0839092,1.05406
53.5,11.7603,0.453975,0.0822561,1.05406
54,11.8234,0.498199,0.0854187,1.05406
54.5,11.8825,0.54345,0.0822111,1.05406
55,11.9383,0.594343,0.0837283,1.05406
55.5,11.9911,0.638364,0.0843009,1.05406
56,12.0413,0.682908,0.0887896,1.05405
56.5,12.0901,0.724531,0.0913487,1.05405
57,12.1372,0.759122,0.0907831,1.05404
57.5,12.1823,0.791747,0.0861041,1.05403
58,12.226,0.825461,0.0861546,1.05402
58.5,12.269,0.860459,0.0888341,1.05401
59,12.3101,0.898009,0.0875858,1.054
59.5,12.3504,0.930738,0.083683,1.05399
60,12.3899,0.961351,0.0862145,1.05398
60.5,12.4285,0.997291,0.0876217,1.05396
61,12.4666,1.01726,0.09128,1.05394
61.5,12.5043,1.0489,0.0918477,1.05393
62,12.5407,1.08153,0.0903299,1.05391
62.5,12.5762,1.10016,0.0898157,1.05389
63,12.6118,1.12707,0.0886127,1.05387
63.5,12.6472,1.16017,0.0873973,1.05384
64,12.682,1.17837,0.0848762,1.05382
64.5,12.7162,1.20769,0.0827196,1.0538
65,12.75,1.22039,0.0815005,1.05377
65.5,12.7833,1.248,0.0779667,1.05374
66,12.8161,1.26659,0.0773978,1.05372
66.5,12.8486,1.289,0.0806657,1.05369
67,12.8809,1.31782,0.0825261,1.05366
67.5,12.9127,1.33368,0.0851198,1.05362
68,12.9444,1.36351,0.0894122,1.05359
68.5,12.9757,1.3833,0.0897162,1.05356
69,13.0067,1.41286,0.0893218,1.05352
69.5,13.0375,1.4404,0.0925332,1.05348
70,13.0679,1.46088,0.100183,1.05345
70.5,13.0979,1.49848,0.105644,1.05341
71,13.128,1.51085,0.106325,1.05337
71.5,13.1579,1.52579,0.0913915,1.05332
72,13.1873,1.54157,0.0781974,1.05328
72.5,13.2164,1.56473,0.0849102,1.05324
73,13.2456,1.57484,0.0896955,1.05319
73.5,13.2748,1.58904,0.0912752,1.05315
74,13.3037,1.61298,0.0933071,1.0531
74.5,13.3321,1.63088,0.0948123,1.05305
75,13.3603,1.643,0.0967198,1.053
75.5,13.3884,1.66756,0.0959742,1.05295
76,13.4162,1.68052,0.0927509,1.0529
76.5,13.4441,1.69231,0.0855754,1.05285
77,13.4718,1.70366,0.0821696,1.05279
77.5,13.4991,1.72271,0.0843268,1.05274
78,13.5258,1.73308,0.0866401,1.05268
78.5,13.553,1.755,0.0873483,1.05262
79,13.5806,1.77337,0.0883802,1.05256
79.5,13.6077,1.79198,0.0881901,1.0525
80,13.6342,1.80818,0.0887398,1.05244
80.5,13.6604,1.82887,0.0907209,1.05238
81,13.6867,1.8522,0.0923614,1.05232
81.5,13.7129,1.8694,0.0939338,1.05225
82,13.7389,1.89613,0.0947499,1.05219
82.5,13.7646,1.91761,0.0967972,1.05212
83,13.79,1.91619,0.0981882,1.05205
83.5,13.8154,1.93854,0.0988678,1.05198
84,13.8407,1.93896,0.098024,1.05191
84.5,13.8658,1.94292,0.0975862,1.05184
85,13.8906,1.95603,0.101335,1.05176
85.5,13.9155,1.93922,0.105481,1.05169
86,13.9402,1.94631,0.0981089,1.05161
86.5,13.9649,1.9414,0.0889104,1.05154
87,13.9893,1.94328,0.092225,1.05147
87.5,14.0136,1.93262,0.0965966,1.05139
88,14.0376,1.93138,0.0963827,1.0513
88.5,14.0614,1.94498,0.0954465,1.05123
89,14.085,1.95204,0.0940786,1.05115
89.5,14.1084,1.96322,0.093485,1.05106
90,14.132,1.97044,0.0912527,1.05098
90.5,14.1555,1.97433,0.0895537,1.05089
91,14.1792,1.98986,0.0880887,1.05081
91.5,14.2024,1.99557,0.0866596,1.05072
92,14.2255,2.01451,0.0870745,1.05063
92.5,14.2483,2.03572,0.0882055,1.05054
93,14.2711,2.05654,0.0890517,1.05045
93.5,14.2938,2.07709,0.0911734,1.05036
94,14.3164,2.09009,0.0944029,1.05026
94.5,14.3386,2.11874,0.0960875,1.05017
95,14.3609,2.1392,0.0975369,1.05008
95.5,14.383,2.16253,0.0951659,1.04998
96,14.4053,2.17881,0.0933808,1.04988
96.5,14.4275,2.19872,0.0915226,1.04978
97,14.4494,2.2231,0.0914911,1.04968
97.5,14.4712,2.25384,0.0941132,1.04958
98,14.4929,2.28387,0.0976232,1.04948
98.5,14.5144,2.31116,0.100462,1.04938
99,14.5357,2.34347,0.100887,1.04927
99.5,14.5573,2.3713,0.0988843,1.04917
100,14.5788,2.39346,0.0935186,1.04906
100.5,14.6002,2.42751,0.0900973,1.04895
101,14.6214,2.45036,0.091384,1.04883
101.5,14.6426,2.48938,0.0950464,1.04872
102,14.6636,2.52235,0.0980983,1.04861
102.5,14.6844,2.55313,0.0991918,1.04851
103,14.705,2.58203,0.100512,1.04839
103.5,14.7257,2.62054,0.10091,1.04827
104,14.7463,2.63866,0.100832,1.04817
104.5,14.7669,2.66692,0.100481,1.04805
105,14.7875,2.6892,0.099592,1.04792
105.5,14.8081,2.71218,0.0980854,1.04781
106,14.8283,2.72949,0.0963886,1.04769
106.5,14.8486,2.74872,0.0932286,1.04757
107,14.8688,2.77045,0.0904073,1.04745
107.5,14.8888,2.78057,0.0908049,1.04733
108,14.9087,2.80081,0.0932522,1.0472
108.5,14.9287,2.81452,0.0957671,1.04708
109,14.9487,2.83431,0.0967178,1.04695
109.5,14.9685,2.84153,0.0965922,1.04682
110,14.9884,2.85468,0.0955312,1.04669
110.5,15.0081,2.86677,0.0951211,1.04656
111,15.0278,2.88037,0.0951672,1.04643
111.5,15.0475,2.9041,0.0964139,1.0463
112,15.0669,2.91334,0.098165,1.04617
112.5,15.0865,2.92779,0.0982335,1.04603
113,15.1059,2.92773,0.0965602,1.0459
113.5,15.1253,2.94248,0.0929937,1.04576
114,15.1448,2.95632,0.0924186,1.04563
114.5,15.1641,2.98392,0.0957832,1.04549
115,15.1834,2.99058,0.0991557,1.04535
115.5,15.2026,3.00521,0.10046,1.04521
116,15.2217,3.01748,0.0988523,1.04507
116.5,15.2408,3.03939,0.097656,1.04492
117,15.2599,3.04141,0.0979899,1.04478
117.5,15.2788,3.06595,0.0994271,1.04464
118,15.2977,3.08321,0.100871,1.04449
118.5,15.3167,3.09629,0.100807,1.04434
119,15.3354,3.1107,0.100881,1.0442
119.5,15.3542,3.12879,0.100854,1.04405
120,15.3728,3.13704,0.0991066,1.0439
120.5,15.3914,3.16039,0.0990864,1.04375
121,15.4101,3.17778,0.0983182,1.0436
121.5,15.4285,3.19675,0.0977763,1.04344
122,15.447,3.21081,0.0982892,1.04329
122.5,15.4654,3.2123,0.0982799,1.04313
123,15.4838,3.22586,0.098279,1.04298
123.5,15.5023,3.23788,0.0982559,1.04282
124,15.5206,3.2486,0.0976805,1.04266
124.5,15.5389,3.26745,0.0980946,1.0425
125,15.5571,3.28424,0.0973265,1.04234
125.5,15.5752,3.30246,0.0983144,1.04218
126,15.5933,3.31424,0.0990349,1.04202
126.5,15.6113,3.32783,0.100024,1.04186
127,15.6293,3.34127,0.100617,1.04169
127.5,15.6474,3.35588,0.101352,1.04153
128,15.6653,3.38084,0.10135,1.04136
128.5,15.6833,3.3796,0.10135,1.04119
129,15.7011,3.3903,0.10135,1.04102
129.5,15.7188,3.40705,0.101349,1.04086
130,15.7367,3.42652,0.101459,1.04068
130.5,15.7544,3.4368,0.102792,1.04051
131,15.7721,3.44337,0.102732,1.04034
131.5,15.7898,3.45654,0.104147,1.04017
132,15.8073,3.46131,0.104143,1.03999
132.5,15.8249,3.47367,0.103032,1.03982
133,15.8424,3.48048,0.101516,1.03964
133.5,15.8599,3.48505,0.0976931,1.03946
134,15.8773,3.50638,0.0948405,1.03929
134.5,15.8947,3.52019,0.0967279,1.03911
135,15.9119,3.53463,0.102657,1.03893
135.5,15.9292,3.54262,0.105929,1.03874
136,15.9465,3.55202,0.104585,1.03856
136.5,15.9637,3.56688,0.100413,1.03838
137,15.981,3.57018,0.098005,1.03819
137.5,15.9982,3.57592,0.0962612,1.03801
138,16.0155,3.58863,0.095635,1.03782
138.5,16.0326,3.59387,0.0956358,1.03763
139,16.0496,3.6077,0.09564,1.03745
139.5,16.0666,3.6141,0.09564,1.03726
140,16.0836,3.63257,0.0956529,1.03707
140.5,16.1006,3.64561,0.0967277,1.03687
141,16.1175,3.65727,0.0981133,1.03668
141.5,16.1344,3.67018,0.100503,1.03649
142,16.1513,3.6829,0.102786,1.03629
142.5,16.1681,3.68935,0.101999,1.0361
143,16.1848,3.70035,0.101273,1.0359
143.5,16.2016,3.71325,0.0985334,1.03571
144,16.2183,3.7203,0.0971786,1.03551
144.5,16.235,3.73303,0.0958502,1.03531
145,16.2517,3.74604,0.096308,1.03511
145.5,16.2681,3.75248,0.0971709,1.03491
146,16.2847,3.761,0.0971807,1.03471
146.5,16.3013,3.77091,0.0976303,1.0345
147,16.3179,3.79007,0.0985283,1.0343
147.5,16.3345,3.79922,0.0984398,1.03409
148,16.3512,3.80747,0.0999868,1.03389
148.5,16.3676,3.81999,0.100555,1.03368
149,16.3841,3.8238,0.101466,1.03347
149.5,16.4005,3.83816,0.101426,1.03326
150,16.4169,3.84533,0.101394,1.03305
150.5,16.4333,3.86415,0.100159,1.03284
151,16.4496,3.87569,0.10014,1.03263
151.5,16.4659,3.88438,0.100127,1.03242
152,16.4822,3.89723,0.10129,1.03221
152.5,16.4985,3.90624,0.101457,1.03199
153,16.5148,3.91724,0.10146,1.03178
153.5,16.531,3.92522,0.101459,1.03156
154,16.5472,3.93964,0.101492,1.03134
154.5,16.5634,3.9423,0.102832,1.03113
155,16.5796,3.95553,0.10278,1.03091
155.5,16.5956,3.9632,0.102837,1.03069
156,16.6117,3.97631,0.103816,1.03047
156.5,16.6277,3.98062,0.103916,1.03024
157,16.6438,3.99958,0.105375,1.03002
157.5,16.6598,4.00847,0.1054,1.0298
158,16.6758,4.01857,0.106365,1.02957
158.5,16.6918,4.02585,0.105776,1.02935
159,16.7079,4.03956,0.105409,1.02912
159.5,16.7238,4.04366,0.106057,1.02889
160,16.7397,4.06001,0.108852,1.02867
160.5,16.7555,4.07329,0.11042,1.02844
161,16.7713,4.07121,0.110435,1.02821
161.5,16.7871,4.08564,0.110461,1.02798
162,16.803,4.09566,0.10986,1.02774
162.5,16.8189,4.11217,0.107765,1.02751
163,16.8347,4.12244,0.105727,1.02728
163.5,16.8505,4.13473,0.105416,1.02704
164,16.8663,4.14536,0.104512,1.02681
164.5,16.8821,4.14832,0.103739,1.02657
165,16.8978,4.17061,0.104742,1.02633
165.5,16.9135,4.17561,0.103352,1.02609
166,16.9293,4.17919,0.102442,1.02586
166.5,16.9449,4.19131,0.0999185,1.02562
167,16.9606,4.19876,0.0977191,1.02537
167.5,16.9763,4.20831,0.0962807,1.02513
168,16.992,4.21079,0.0948747,1.02489
168.5,17.0076,4.2201,0.0949817,1.02465
169,17.0232,4.23346,0.0950057,1.0244
169.5,17.0387,4.24711,0.0950894,1.02416
170,17.0542,4.24778,0.096208,1.02391
170.5,17.0697,4.25801,0.0962654,1.02366
171,17.0852,4.2681,0.0988819,1.02342
171.5,17.1007,4.28424,0.100047,1.02317
172,17.1161,4.28629,0.102799,1.02292
172.5,17.1317,4.30372,0.104097,1.02267
173,17.1471,4.31283,0.105169,1.02242
173.5,17.1626,4.33459,0.108013,1.02216
174,17.178,4.34319,0.111341,1.02191
174.5,17.1933,4.34963,0.114428,1.02166
175,17.2087,4.36329,0.113722,1.0214
175.5,17.2239,4.37584,0.11028,1.02115
176,17.2392,4.36773,0.107481,1.02089
176.5,17.2545,4.38436,0.106108,1.02063
177,17.2697,4.39671,0.105458,1.02037
177.5,17.285,4.40206,0.104553,1.02012
178,17.3003,4.40483,0.102007,1.01986
178.5,17.3155,4.42099,0.100317,1.0196
179,17.3307,4.41338,0.0985113,1.01933
179.5,17.3459,4.42773,0.0975208,1.01907
180,17.361,4.43229,0.0974484,1.01881
180.5,17.3762,4.44497,0.0984588,1.01854
181,17.3913,4.45232,0.100708,1.01828
181.5,17.4063,4.45682,0.102654,1.01801
182,17.4214,4.47057,0.104845,1.01775
182.5,17.4364,4.47509,0.106165,1.01748
183,17.4515,4.48686,0.10613,1.01721
183.5,17.4666,4.50148,0.106823,1.01694
184,17.4816,4.50227,0.106274,1.01667
184.5,17.4966,4.51996,0.106167,1.0164
185,17.5116,4.52415,0.10617,1.01613
185.5,17.5265,4.52712,0.106168,1.01586
186,17.5414,4.54526,0.106108,1.01559
186.5,17.5563,4.55254,0.106819,1.01531
187,17.5712,4.5589,0.106813,1.01504
187.5,17.586,4.56395,0.106802,1.01476
188,17.601,4.57639,0.107148,1.01448
188.5,17.6159,4.5803,0.106322,1.01421
189,17.6307,4.58786,0.104595,1.01393
189.5,17.6455,4.59811,0.104473,1.01364
190,17.6603,4.60044,0.103184,1.01336
190.5,17.6751,4.60285,0.102996,1.01308
191,17.6899,4.61674,0.102378,1.01281
191.5,17.7047,4.63112,0.101636,1.01253
192,17.7194,4.63449,0.10168,1.01224
192.5,17.7342,4.64727,0.102458,1.01196
193,17.7489,4.65253,0.103189,1.01168
193.5,17.7636,4.66111,0.103886,1.01139
194,17.7783,4.67601,0.105659,1.0111
194.5,17.7929,4.67195,0.107064,1.01082
195,17.8076,4.69824,0.108974,1.01053
195.5,17.8222,4.7053,0.110294,1.01024
196,17.8369,4.72556,0.111636,1.00995
196.5,17.8516,4.72556,0.112738,1.00966
197,17.8662,4.73632,0.112643,1.00937
197.5,17.8809,4.742,0.112626,1.00908
198,17.8954,4.74376,0.11278,1.00879
198.5,17.91,4.75201,0.109916,1.0085
199,17.9246,4.76555,0.109109,1.0082
199.5,17.9391,4.76721,0.106854,1.00791
200,17.9536,4.77472,0.106418,1.00761
200.5,17.9681,4.78628,0.105549,1.00732
201,17.9827,4.7958,0.105189,1.00702
201.5,17.9972,4.80699,0.103952,1.00672
202,18.0116,4.81511,0.104908,1.00642
202.5,18.0261,4.82547,0.103424,1.00612
203,18.0407,4.82996,0.103068,1.00582
203.5,18.0551,4.8418,0.101698,1.00552
204,18.0695,4.85023,0.10209,1.00522
204.5,18.084,4.85683,0.101357,1.00492
205,18.0984,4.86457,0.101442,1.00462
205.5,18.1128,4.86612,0.101521,1.00431
206,18.1273,4.87421,0.102883,1.00401
206.5,18.1418,4.88089,0.102847,1.0037
207,18.1562,4.88964,0.102879,1.0034
207.5,18.1706,4.89966,0.102881,1.00309
208,18.185,4.91003,0.103085,1.00278
208.5,18.1994,4.92798,0.104186,1.00247
209,18.2138,4.92973,0.104201,1.00216
209.5,18.2281,4.93828,0.1042,1.00185
210,18.2423,4.9386,0.1042,1.00154
210.5,18.2567,4.94631,0.1042,1.00123
211,18.271,4.97059,0.10423,1.00092
211.5,18.2853,4.96829,0.105449,1.00061
212,18.2996,4.98223,0.105588,1.00029
212.5,18.314,4.99595,0.106965,0.999975
213,18.3284,4.99915,0.10694,0.999667
213.5,18.3427,5.00921,0.10694,0.999345
214,18.3569,5.01458,0.10694,0.999029
214.5,18.3712,5.01306,0.10694,0.998717
215,18.3855,5.036,0.10694,0.998395
215.5,18.3997,5.04719,0.10694,0.998075
216,18.4139,5.04661,0.10694,0.997758
216.5,18.428,5.05308,0.106935,0.997438
217,18.4421,5.05699,0.106052,0.997118
217.5,18.4562,5.06535,0.105489,0.996795
218,18.4705,5.07464,0.105502,0.996477
218.5,18.4846,5.08699,0.10551,0.996157
219,18.499,5.09517,0.10551,0.995828
219.5,18.5134,5.09599,0.10551,0.995507
220,18.5276,5.10716,0.10551,0.995178
220.5,18.5418,5.12359,0.10551,0.994857
221,18.556,5.1301,0.10551,0.994528
221.5,18.5701,5.13169,0.10551,0.994206
222,18.5841,5.14522,0.105585,0.993877
222.5,18.5983,5.15425,0.107198,0.99355
223,18.6124,5.1729,0.108488,0.99322
223.5,18.6265,5.17577,0.111658,0.992889
224,18.6407,5.18345,0.113111,0.99256
224.5,18.6548,5.1926,0.113971,0.99223
225,18.6689,5.19292,0.1142,0.9919
225.5,18.683,5.19974,0.11163,0.991567
226,18.6971,5.21227,0.107785,0.991228
226.5,18.7112,5.21962,0.105847,0.9909
227,18.7253,5.21849,0.10336,0.990567
227.5,18.7394,5.22845,0.102518,0.990229
228,18.7534,5.24131,0.101915,0.989897
228.5,18.7675,5.24579,0.103462,0.98956
229,18.7815,5.25492,0.105613,0.989218
229.5,18.7955,5.26494,0.107151,0.988887
230,18.8095,5.26112,0.10747,0.988547
230.5,18.8236,5.27178,0.107225,0.98821
231,18.8377,5.27129,0.105976,0.987869
231.5,18.8517,5.28191,0.10581,0.987529
232,18.8657,5.29421,0.104739,0.98719
232.5,18.8797,5.30716,0.10434,0.986849
233,18.8937,5.3108,0.103092,0.986507
233.5,18.9077,5.31145,0.103099,0.986159
234,18.9217,5.32026,0.1031,0.985819
234.5,18.9357,5.32497,0.1031,0.985477
235,18.9497,5.32935,0.1031,0.985129
235.5,18.9637,5.33911,0.1031,0.984787
236,18.9777,5.34197,0.1031,0.984439
236.5,18.9916,5.35176,0.1031,0.984089
237,19.0056,5.352,0.1031,0.983749
237.5,19.0195,5.36221,0.1031,0.983399
238,19.0335,5.37107,0.1031,0.983049
238.5,19.0473,5.3731,0.103092,0.982699
239,19.0613,5.38455,0.103014,0.982349
239.5,19.0752,5.39089,0.1018,0.981999
240,19.0891,5.38937,0.100918,0.981649
240.5,19.103,5.39275,0.0988625,0.981299
241,19.1169,5.4029,0.0974074,0.980949
241.5,19.1309,5.41349,0.0973284,0.980591
242,19.1448,5.42261,0.0989658,0.980239
242.5,19.1586,5.42202,0.103262,0.979889
243,19.1725,5.43202,0.107942,0.979528
243.5,19.1864,5.43334,0.10972,0.979179
244,19.2003,5.4328,0.109685,0.978818
244.5,19.2142,5.44555,0.110707,0.978469
245,19.2281,5.44168,0.109154,0.978109
245.5,19.2419,5.45892,0.10881,0.977748
246,19.2558,5.46173,0.107445,0.977391
246.5,19.2696,5.4699,0.106313,0.97704
247,19.2835,5.46994,0.106113,0.97668
247.5,19.2973,5.47695,0.104941,0.976319
248,19.3112,5.48907,0.104886,0.97596
248.5,19.325,5.49166,0.104904,0.9756
249,19.3388,5.50077,0.103619,0.975231
249.5,19.3526,5.50416,0.102209,0.974868
250,19.3665,5.5047,0.0997664,0.974509
250.5,19.3803,5.51312,0.0969103,0.97415
251,19.3941,5.52092,0.0948808,0.973781
251.5,19.4079,5.51314,0.100225,0.973419
252,19.4217,5.52444,0.105453,0.973051
252.5,19.4355,5.51891,0.111737,0.97269
253,19.4493,5.52681,0.115576,0.972321
253.5,19.4631,5.53355,0.11364,0.97196
254,19.4769,5.55076,0.111077,0.971589
254.5,19.4907,5.54952,0.108661,0.971218
255,19.5045,5.55151,0.107293,0.970851
255.5,19.5183,5.5602,0.106313,0.970481
256,19.5321,5.56504,0.10534,0.970111
256.5,19.5458,5.57424,0.105424,0.969741
257,19.5596,5.57429,0.10541,0.969371
257.5,19.5733,5.58142,0.105411,0.969001
258,19.587,5.57902,0.104702,0.968631
258.5,19.6007,5.58306,0.104095,0.968259
259,19.6145,5.59266,0.10409,0.967889
259.5,19.6283,5.5909,0.104091,0.967511
260,19.6421,5.60521,0.104119,0.967139
260.5,19.6559,5.61276,0.103694,0.966762
261,19.6696,5.60842,0.102674,0.966391
261.5,19.6833,5.61557,0.101406,0.966011
262,19.697,5.61984,0.101224,0.965639
262.5,19.7107,5.6268,0.100984,0.965261
263,19.7244,5.63064,0.099263,0.964889
263.5,19.7381,5.62959,0.0992626,0.964509
264,19.7519,5.63444,0.0992613,0.964133
264.5,19.7657,5.63978,0.0992767,0.963751
265,19.7794,5.64246,0.100238,0.963371
265.5,19.7931,5.64216,0.102003,0.96299
266,19.8068,5.65386,0.102051,0.96261
266.5,19.8205,5.64952,0.103251,0.96223
267,19.8341,5.65746,0.103568,0.961851
267.5,19.8478,5.6656,0.104608,0.961472
268,19.8615,5.67082,0.104849,0.96109
268.5,19.8752,5.66529,0.10485,0.960709
269,19.8889,5.67519,0.104872,0.96032
269.5,19.9026,5.66884,0.104981,0.959942
270,19.9163,5.68129,0.104889,0.959551
270.5,19.9299,5.68275,0.104867,0.959172
271,19.9436,5.68628,0.10486,0.958789
271.5,19.9572,5.68701,0.10486,0.958402
272,19.9709,5.69388,0.104859,0.958011
272.5,19.9845,5.69493,0.104689,0.957629
273,19.9982,5.70335,0.103505,0.957242
273.5,20.0119,5.70409,0.103433,0.956851
274,20.0256,5.71044,0.10343,0.956469
274.5,20.0392,5.71436,0.10343,0.956079
275,20.0529,5.72029,0.10343,0.955692
275.5,20.0665,5.72431,0.10343,0.955302
276,20.0801,5.72145,0.10343,0.954912
276.5,20.0937,5.72605,0.10343,0.954522
277,20.1073,5.73371,0.103217,0.954132
277.5,20.121,5.7319,0.101824,0.953739
278,20.1346,5.73482,0.101584,0.953341
278.5,20.1483,5.72923,0.10059,0.952952
279,20.1619,5.7321,0.100606,0.952562
279.5,20.1755,5.74349,0.100036,0.952169
280,20.1891,5.74995,0.0992377,0.951772
280.5,20.2028,5.75219,0.0992599,0.951382
281,20.2163,5.74825,0.0992722,0.950981
281.5,20.23,5.75917,0.099318,0.950592
282,20.2436,5.75595,0.100223,0.950192
282.5,20.2573,5.74822,0.0993573,0.949802
283,20.2709,5.75471,0.0992731,0.949402
283.5,20.2845,5.7593,0.0992908,0.949009
284,20.2982,5.76222,0.0984505,0.948612
284.5,20.3118,5.76,0.0979161,0.948212
285,20.3255,5.76564,0.0983413,0.947812
285.5,20.3391,5.75869,0.0992823,0.947412
286,20.3527,5.76381,0.0982297,0.947012
286.5,20.3663,5.77339,0.0988042,0.946622
287,20.3798,5.76591,0.0995012,0.946222
287.5,20.3934,5.76973,0.0997524,0.945822
288,20.407,5.76823,0.0995031,0.945414
288.5,20.4207,5.77336,0.0994865,0.945012
289,20.4343,5.77071,0.0994799,0.944612
289.5,20.4479,5.77258,0.09948,0.944212
290,20.4615,5.77207,0.09948,0.943812
290.5,20.4751,5.77375,0.0994801,0.943413
291,20.4887,5.78672,0.099497,0.943002
291.5,20.5024,5.78775,0.0981321,0.942602
292,20.516,5.78217,0.0965553,0.942194
292.5,20.5296,5.78717,0.096208,0.941792
293,20.5432,5.78477,0.0952185,0.941393
293.5,20.5568,5.78616,0.0953171,0.940982
294,20.5704,5.78262,0.0953096,0.940574
294.5,20.584,5.79539,0.0953629,0.940172
295,20.5977,5.79216,0.0941626,0.939762
295.5,20.6113,5.78659,0.0940111,0.939363
296,20.6249,5.78428,0.094,0.938952
296.5,20.6385,5.79114,0.094,0.938542
297,20.6521,5.78304,0.094,0.938131
297.5,20.6656,5.79125,0.094,0.937724
298,20.6793,5.79198,0.0939991,0.937323
298.5,20.6928,5.80276,0.0937149,0.936913
299,20.7065,5.78965,0.0924659,0.936503
299.5,20.72,5.79859,0.0924592,0.936093
300,20.7336,5.79839,0.0924612,0.935683
300.5,20.7472,5.78812,0.0924336,0.935273
301,20.7608,5.79679,0.0905846,0.934854
301.5,20.7744,5.78562,0.0901064,0.934444
302,20.7879,5.79269,0.0901538,0.934031
302.5,20.8016,5.7894,0.0901157,0.933621
303,20.8151,5.79422,0.0890363,0.933213
303.5,20.8287,5.79721,0.0888499,0.932794
304,20.8423,5.80233,0.08884,0.932381
304.5,20.8559,5.78434,0.08884,0.931973
305,20.8695,5.79248,0.088841,0.931554
305.5,20.8831,5.7904,0.0889122,0.931141
306,20.8967,5.79359,0.0901371,0.930724
306.5,20.9104,5.7913,0.0890504,0.930311
307,20.924,5.79342,0.0887998,0.929894
307.5,20.9376,5.7899,0.0894721,0.929483
308,20.9512,5.80087,0.0902119,0.929061
308.5,20.9647,5.78991,0.090149,0.928644
309,20.9783,5.79544,0.0901462,0.928233
309.5,20.9919,5.79029,0.0896809,0.927811
310,21.0055,5.80106,0.088829,0.927394
310.5,21.0191,5.80251,0.0888463,0.926983
311,21.0327,5.79906,0.0885755,0.926563
311.5,21.0464,5.79857,0.0873182,0.926142
312,21.06,5.79476,0.0873134,0.925721
312.5,21.0736,5.79873,0.0861846,0.925301
313,21.0872,5.80723,0.08577,0.924881
313.5,21.1008,5.80776,0.0857304,0.924464
314,21.1144,5.79748,0.0844047,0.924044
314.5,21.128,5.81286,0.0844636,0.923621
315,21.1416,5.80777,0.0836199,0.923201
315.5,21.1552,5.80571,0.0834665,0.922782
316,21.1687,5.80388,0.0834758,0.922362
316.5,21.1823,5.80421,0.0833754,0.921943
317,21.1959,5.81629,0.084312,0.921514
317.5,21.2095,5.81074,0.0840023,0.921094
318,21.2231,5.81345,0.0838066,0.920672
318.5,21.2367,5.82584,0.0831365,0.920244
319,21.2503,5.82372,0.0824658,0.919824
319.5,21.2639,5.82402,0.0824801,0.919402
320,21.2775,5.83162,0.0824842,0.918974
320.5,21.2911,5.8317,0.0825323,0.918552
321,21.3047,5.83697,0.0819271,0.918124
321.5,21.3183,5.83437,0.0797692,0.917704
322,21.3318,5.83982,0.079753,0.917273
322.5,21.3454,5.84144,0.0774998,0.916852
323,21.359,5.84008,0.0767777,0.916424
323.5,21.3727,5.84087,0.0757535,0.916002
324,21.3863,5.83768,0.0752357,0.915574
324.5,21.3999,5.83314,0.0752444,0.915143
325,21.4135,5.84895,0.074229,0.914722
325.5,21.4271,5.84263,0.073827,0.914294
326,21.4407,5.84598,0.0732301,0.913864
326.5,21.4543,5.85281,0.073694,0.913442
327,21.4679,5.84507,0.0737114,0.913012
327.5,21.4816,5.83799,0.0738317,0.912582
328,21.4952,5.83906,0.0740429,0.912155
328.5,21.5088,5.83273,0.0755589,0.911724
329,21.5225,5.82582,0.074278,0.911294
329.5,21.5361,5.84115,0.0748285,0.910864
330,21.5497,5.83837,0.0734758,0.910433
330.5,21.5633,5.83381,0.0718954,0.910003
331,21.577,5.83975,0.0714634,0.909573
331.5,21.5906,5.83203,0.0701219,0.909144
332,21.6042,5.83883,0.0703386,0.908714
332.5,21.6178,5.84907,0.0681282,0.908285
333,21.6314,5.82879,0.067566,0.907855
333.5,21.6451,5.82149,0.0675701,0.907422
334,21.6587,5.83196,0.06757,0.906992
334.5,21.6724,5.81497,0.0675762,0.906553
335,21.6861,5.81486,0.0675418,0.906123
335.5,21.6997,5.81735,0.0675124,0.905695
336,21.7133,5.81062,0.0663318,0.905262
336.5,21.7269,5.80395,0.0662477,0.904823
337,21.7406,5.79882,0.0647068,0.904395
337.5,21.7542,5.79092,0.063422,0.903962
338,21.7678,5.80146,0.0634478,0.903523
338.5,21.7814,5.79071,0.0620303,0.903095
339,21.7951,5.78394,0.0620795,0.902662
339.5,21.8087,5.78126,0.0620798,0.902225
340,21.8224,5.77885,0.0621208,0.901792
340.5,21.836,5.76832,0.0610994,0.901354
341,21.8497,5.76895,0.0607829,0.900922
341.5,21.8633,5.76154,0.0607805,0.900484
342,21.8769,5.76018,0.0607316,0.900052
342.5,21.8906,5.75008,0.0615626,0.899615
343,21.9042,5.7324,0.0617627,0.899173
343.5,21.9179,5.7408,0.0607243,0.898745
344,21.9315,5.72959,0.0606905,0.898304
344.5,21.9452,5.72165,0.0609758,0.897863
345,21.9589,5.7113,0.0601878,0.897435
345.5,21.9725,5.71047,0.0602316,0.896994
346,21.9862,5.69179,0.06022,0.896553
346.5,21.9999,5.6945,0.0602151,0.896122
347,22.0135,5.68715,0.059867,0.895685
347.5,22.0272,5.67767,0.0588909,0.895244
348,22.0409,5.6746,0.0583449,0.894805
348.5,22.0546,5.65476,0.0574937,0.894363
349,22.0683,5.64496,0.0575893,0.893932
349.5,22.082,5.63317,0.0578684,0.893492
350,22.0957,5.6264,0.0589013,0.893055
350.5,22.1094,5.61598,0.0577451,0.892615
351,22.1231,5.61061,0.0577804,0.892174
351.5,22.1369,5.60304,0.0575236,0.891734
352,22.1506,5.59439,0.0563471,0.891294
352.5,22.1643,5.59606,0.0554192,0.890855
353,22.1779,5.5766,0.0530665,0.890415
353.5,22.1916,5.57852,0.0513511,0.889974
354,22.2053,5.55082,0.050324,0.889534
354.5,22.2191,5.55218,0.0489876,0.889094
355,22.2328,5.5331,0.0471902,0.888654
355.5,22.2465,5.53146,0.0466299,0.888215
356,22.2602,5.51706,0.0446219,0.887775
356.5,22.2739,5.49974,0.0436205,0.887332
357,22.2876,5.49323,0.042307,0.886883
357.5,22.3013,5.48071,0.0402141,0.886443
358,22.315,5.47003,0.0411572,0.886004
358.5,22.3287,5.4694,0.0420855,0.885564
359,22.3424,5.45305,0.041668,0.885125
359.5,22.3562,5.43299,0.0425071,0.884682
360,22.3699,5.41673,0.0425032,0.884235
360.5,22.3836,5.40867,0.0413132,0.883794
361,22.3974,5.39503,0.0396878,0.883354
361.5,22.4112,5.37894,0.0396258,0.882912
362,22.4249,5.37017,0.0394336,0.882464
362.5,22.4387,5.34861,0.0385871,0.882024
363,22.4525,5.32505,0.0386173,0.881582
363.5,22.4663,5.31594,0.0386,0.881134
364,22.48,5.30059,0.0386,0.880694
364.5,22.4938,5.29213,0.0386001,0.880252
365,22.5076,5.27672,0.0385951,0.879804
365.5,22.5213,5.26143,0.0385035,0.879365
366,22.5351,5.24089,0.038144,0.878915
366.5,22.5489,5.22521,0.0366586,0.878474
367,22.5627,5.21561,0.0365066,0.878023
367.5,22.5765,5.19527,0.0356233,0.877584
368,22.5903,5.1872,0.0362776,0.877142
368.5,22.6041,5.1642,0.0349185,0.876694
369,22.6179,5.16074,0.0345955,0.876252
369.5,22.6318,5.146,0.0331003,0.875804
370,22.6456,5.12529,0.0313513,0.875362
370.5,22.6593,5.12071,0.0299936,0.874914
371,22.6731,5.10864,0.0277461,0.874463
371.5,22.6869,5.09276,0.0272006,0.874024
372,22.7007,5.06745,0.0260431,0.873575
372.5,22.7145,5.05276,0.0255674,0.873134
373,22.7284,5.03012,0.0262713,0.872684
373.5,22.7422,5.00892,0.0261774,0.872242
374,22.7559,4.99305,0.027783,0.871794
374.5,22.7698,4.97016,0.0298683,0.871344
375,22.7836,4.95827,0.0324066,0.870904
375.5,22.7975,4.92941,0.0331532,0.870454
376,22.8113,4.91662,0.0349759,0.870005
376.5,22.8252,4.90125,0.0351015,0.869564
377,22.839,4.87857,0.0347358,0.869114
377.5,22.8528,4.86669,0.0329849,0.868665
378,22.8666,4.852,0.0307755,0.868224
378.5,22.8804,4.84034,0.0278515,0.867774
379,22.8943,4.82726,0.0257481,0.867324
379.5,22.9082,4.8082,0.0235066,0.866885
380,22.9221,4.79779,0.0219796,0.866434
380.5,22.936,4.7884,0.0214343,0.865984
381,22.9498,4.78275,0.0199342,0.865534
381.5,22.9637,4.77997,0.0181632,0.865094
382,22.9776,4.7782,0.0124828,0.864644
382.5,22.9914,4.77704,0.00741255,0.864194
383,23.0053,4.75999,0.00211352,0.863744
383.5,23.0192,4.73272,0.00101342,0.863302
384,23.0332,4.71744,0.00809457,0.862854
384.5,23.047,4.70388,0.0165821,0.862404
385,23.0609,4.69429,0.0249033,0.861954
385.5,23.0748,4.68985,0.0277163,0.861504
386,23.0887,4.67613,0.0218525,0.861053
386.5,23.1026,4.67393,0.015024,0.860614
387,23.1165,4.67839,0.00931199,0.860164
387.5,23.1305,4.67206,0.00342195,0.859714
388,23.1444,4.68001,0.000816473,0.859264
388.5,23.1583,4.66954,-9.79275e-05,0.858814
389,23.1722,4.66943,-2.92078e-05,0.858364
389.5,23.1862,4.67289,0.000663575,0.857925
390,23.2001,4.67163,0.00063948,0.857474
390.5,23.2141,4.66882,-0.000772293,0.857024
391,23.228,4.6512,0.00036542,0.856574
391.5,23.242,4.64422,0.00268153,0.856124
392,23.2559,4.64024,0.0070291,0.855674
392.5,23.2699,4.64437,0.00952498,0.855224
393,23.2838,4.64329,0.00961494,0.854774
393.5,23.2978,4.6525,0.00621851,0.854324
394,23.3117,4.66185,0.00126319,0.853882
394.5,23.3257,4.67841,-0.00490283,0.853434
395,23.3396,4.67355,-0.00741797,0.852984
395.5,23.3536,4.69085,-0.00788901,0.852534
396,23.3675,4.69714,-0.00734266,0.852084
396.5,23.3815,4.70959,-0.00777587,0.851634
397,23.3955,4.73083,-0.0106337,0.851184
397.5,23.4095,4.75078,-0.0137226,0.850734
398,23.4234,4.77945,-0.0174823,0.850284
398.5,23.4375,4.81416,-0.0191315,0.849834
399,23.4515,4.83059,-0.0207388,0.849384
399.5,23.4654,4.85326,-0.0228009,0.848934
400,23.4795,4.89017,-0.0232044,0.848484
400.5,23.4935,4.91142,-0.0247839,0.848034
401,23.5076,4.93572,-0.0242348,0.847584
401.5,23.5216,4.97775,-0.0252432,0.847134
402,23.5357,4.99852,-0.0258526,0.846684
402.5,23.5497,5.04665,-0.0268663,0.846233
403,23.5637,5.06912,-0.0281745,0.845794
403.5,23.5777,5.10643,-0.0290092,0.845344
404,23.5918,5.16074,-0.0313725,0.844894
404.5,23.6058,5.21183,-0.033685,0.844444
405,23.6199,5.26112,-0.0369364,0.843994
405.5,23.6339,5.31258,-0.0390029,0.843544
406,23.6479,5.35868,-0.0423515,0.843094
406.5,23.662,5.42435,-0.044013,0.842644
407,23.6761,5.4721,-0.0463724,0.842194
407.5,23.6902,5.54198,-0.0493494,0.841744
408,23.7043,5.60759,-0.0519552,0.841294
408.5,23.7184,5.66081,-0.0536654,0.840844
409,23.7325,5.7334,-0.0548856,0.840394
409.5,23.7466,5.81934,-0.0565931,0.839944
410,23.7607,5.89847,-0.0575165,0.839494
410.5,23.7748,5.97608,-0.0590893,0.839044
411,23.7889,6.06028,-0.0610789,0.838594
411.5,23.803,6.14318,-0.064437,0.838144
412,23.8171,6.22884,-0.0672778,0.837694
412.5,23.8313,6.32802,-0.0690074,0.837244
413,23.8454,6.4154,-0.0699046,0.836794
413.5,23.8595,6.50318,-0.0709982,0.836344
414,23.8737,6.61452,-0.0713881,0.835894
414.5,23.8879,6.72004,-0.071198,0.835444
415,23.9021,6.83323,-0.0720418,0.834994
415.5,23.9162,6.93622,-0.0707763,0.834544
416,23.9303,7.06154,-0.0707628,0.834102
416.5,23.9445,7.20304,-0.0745595,0.833654
417,23.9586,7.34654,-0.0829491,0.833204
417.5,23.9728,7.4827,-0.0928925,0.832754
418,23.9869,7.63644,-0.102778,0.832304
418.5,24.0011,7.79569,-0.106786,0.831854
419,24.0153,7.95093,-0.109,0.831404
419.5,24.0295,8.12239,-0.108295,0.830954
420,24.0438,8.29301,-0.109699,0.830504
420.5,24.058,8.46626,-0.111549,0.830054
421,24.0722,8.63488,-0.112929,0.829604
421.5,24.0865,8.83866,-0.115247,0.829154
422,24.1007,9.03424,-0.118265,0.828704
422.5,24.1149,9.23821,-0.120656,0.828262
423,24.1291,9.44443,-0.124129,0.827814
423.5,24.1433,9.67837,-0.128598,0.827364
424,24.1575,9.92248,-0.135549,0.826914
424.5,24.1717,10.1886,-0.142678,0.826464
425,24.1859,10.4256,-0.14958,0.826014
425.5,24.2002,10.6935,-0.156059,0.825564
426,24.2145,10.966,-0.162891,0.825114
426.5,24.2288,11.2508,-0.170667,0.824672
427,24.2431,11.5435,-0.179732,0.824224
427.5,24.2573,11.8536,-0.189099,0.823774
428,24.2716,12.1714,-0.197585,0.823324
428.5,24.2859,12.4962,-0.206438,0.822874
429,24.3002,12.8313,-0.213241,0.822424
429.5,24.3146,13.1918,-0.219875,0.821973
430,24.329,13.5594,-0.226925,0.821534
430.5,24.3433,13.9422,-0.234762,0.821084
431,24.3577,14.3536,-0.243388,0.820634
431.5,24.3721,14.8097,-0.252691,0.820184
432,24.3864,15.3224,-0.262739,0.819733
432.5,24.4008,15.8508,-0.273668,0.819294
433,24.4152,16.373,-0.284224,0.818844
433.5,24.4295,16.8526,-0.295665,0.818394
434,24.4439,17.3419,-0.307519,0.817945
434.5,24.4584,17.8508,-0.31988,0.817504
435,24.4728,18.3823,-0.333082,0.817054
435.5,24.4871,18.9362,-0.346557,0.816604
436,24.5015,19.4992,-0.360345,0.816153
436.5,24.516,20.1121,-0.372649,0.815714
437,24.5304,20.7258,-0.385405,0.815264
437.5,24.5448,21.3394,-0.398354,0.814815
438,24.5593,21.9784,-0.413162,0.814374
438.5,24.5739,22.6668,-0.429235,0.813924
439,24.5884,23.38,-0.447648,0.813474
439.5,24.6029,24.0599,-0.465457,0.813034
440,24.6173,24.7877,-0.483024,0.812584
440.5,24.6319,25.5717,-0.501569,0.812135
441,24.6464,26.3457,-0.521674,0.811694
441.5,24.6609,27.1077,-0.543009,0.811244
442,24.6754,27.9007,-0.564287,0.810802
442.5,24.6902,28.7646,-0.586547,0.810354
443,24.7047,29.6034,-0.610734,0.809905
443.5,24.7193,30.3986,-0.636675,0.809464
444,24.7339,31.1984,-0.663971,0.809014
444.5,24.7485,31.9987,-0.691635,0.808575
445,24.7631,32.8062,-0.721509,0.808124
445.5,24.7777,33.63,-0.753499,0.807682
446,24.7923,34.4411,-0.786532,0.807234
446.5,24.807,35.2859,-0.821407,0.806792
447,24.8217,36.1161,-0.855461,0.806344
447.5,24.8364,36.9482,-0.88688,0.805902
448,24.8511,37.7727,-0.917757,0.805454
448.5,24.8658,38.5713,-0.948974,0.805012
449,24.8806,39.3684,-0.981794,0.804564
449.5,24.8953,40.1208,-1.01646,0.804125
450,24.91,40.8433,-1.05124,0.803674
450.5,24.9248,41.5754,-1.08725,0.803234
451,24.9395,42.2736,-1.13274,0.802783
451.5,24.9542,42.938,-1.20202,0.802344
452,24.969,43.6682,-1.23973,0.801905
452.5,24.9837,44.3133,-1.26978,0.801455
453,24.9985,44.9147,-1.3086,0.801014
453.5,25.0133,45.4635,-1.35537,0.800572
454,25.0281,45.944,-1.39986,0.800125
454.5,25.0429,46.3823,-1.44691,0.799684
455,25.0577,46.8057,-1.49391,0.799245
455.5,25.0724,47.1843,-1.54139,0.798793
456,25.0872,47.5249,-1.58946,0.798354
456.5,25.102,47.7618,-1.63787,0.797914
457,25.1167,47.9499,-1.68662,0.797472
457.5,25.1314,48.0571,-1.73543,0.797023
458,25.1462,48.1133,-1.78475,0.796584
458.5,25.1609,48.1688,-1.83383,0.796144
459,25.1756,48.1644,-1.88235,0.795705
459.5,25.1904,48.0757,-1.93167,0.795262
460,25.2052,47.8951,-1.97998,0.794813
460.5,25.2199,47.6712,-2.02729,0.794375
461,25.2347,47.3592,-2.0746,0.793935
461.5,25.2494,47.0014,-2.12055,0.793494
462,25.2641,46.5672,-2.16538,0.793054
462.5,25.2788,46.0685,-2.21059,0.792614
463,25.2935,45.5318,-2.25543,0.792175
463.5,25.3081,44.9258,-2.30109,0.791735
464,25.3228,44.2902,-2.34718,0.791295
464.5,25.3374,43.5978,-2.39136,0.790855
465,25.352,42.8363,-2.4337,0.790415
465.5,25.3667,42.0546,-2.47588,0.789975
466,25.3813,41.2342,-2.51719,0.789535
466.5,25.3959,40.3998,-2.55746,0.789095
467,25.4105,39.545,-2.59525,0.788655
467.5,25.425,38.6675,-2.63238,0.788214
468,25.4395,37.7693,-2.66843,0.787774
468.5,25.4541,36.8665,-2.70345,0.787334
469,25.4686,35.9285,-2.74053,0.786893
469.5,25.4832,34.9748,-2.76858,0.786453
470,25.4977,34.0063,-2.79737,0.786022
470.5,25.5123,33.0516,-2.82652,0.785585
471,25.5268,32.0688,-2.85792,0.785145
471.5,25.5413,31.1047,-2.88875,0.784704
472,25.5558,30.1439,-2.91892,0.784263
472.5,25.5703,29.1968,-2.94733,0.783832
473,25.5847,28.2473,-2.97425,0.783395
473.5,25.5992,27.3187,-3.00026,0.782953
474,25.6136,26.3981,-3.02557,0.782522
474.5,25.628,25.4914,-3.05164,0.782085
475,25.6425,24.6011,-3.07759,0.781644
475.5,25.6569,23.7267,-3.10192,0.781212
476,25.6713,22.888,-3.12497,0.780775
476.5,25.6857,22.0413,-3.14731,0.780333
477,25.7001,21.2348,-3.16867,0.779905
477.5,25.7145,20.4358,-3.18862,0.779463
478,25.729,19.6827,-3.20629,0.779032
478.5,25.7435,18.9192,-3.22292,0.778594
479,25.758,18.1769,-3.23978,0.778162
479.5,25.7724,17.4747,-3.25574,0.777724
480,25.7869,16.7852,-3.27303,0.777292
480.5,25.8013,16.1289,-3.2882,0.776853
481,25.8158,15.4895,-3.30314,0.776425
481.5,25.8302,14.8843,-3.31632,0.775983
482,25.8447,14.2778,-3.32866,0.775555
482.5,25.8592,13.7211,-3.3416,0.775122
483,25.8737,13.1965,-3.35422,0.774683
483.5,25.8881,12.6621,-3.36831,0.774255
484,25.9026,12.1554,-3.38022,0.773822
484.5,25.9171,11.6733,-3.39075,0.773383
485,25.9316,11.2158,-3.40104,0.772953
485.5,25.9462,10.7885,-3.41169,0.772525
486,25.9608,10.367,-3.42248,0.772092
486.5,25.9753,9.97146,-3.43475,0.771662
487,25.9899,9.58231,-3.44657,0.771223
487.5,26.0044,9.22372,-3.45683,0.770794
488,26.0189,8.88563,-3.46696,0.770365
488.5,26.0335,8.55894,-3.47822,0.769935
489,26.0481,8.24887,-3.49163,0.769505
489.5,26.0627,7.9247,-3.50645,0.769072
490,26.0773,7.61485,-3.51685,0.768642
490.5,26.0919,7.3222,-3.51811,0.768212
491,26.1065,7.04839,-3.51547,0.767782
491.5,26.1211,6.77438,-3.51321,0.767352
492,26.1358,6.51434,-3.51816,0.766922
492.5,26.1504,6.26284,-3.52732,0.766492
493,26.1651,6.0148,-3.53542,0.766065
493.5,26.1798,5.78672,-3.54319,0.765635
494,26.1945,5.55585,-3.55035,0.765204
494.5,26.2091,5.32014,-3.5572,0.764774
495,26.2238,5.10316,-3.56179,0.764352
495.5,26.2385,4.89589,-3.56649,0.763922
496,26.2533,4.69475,-3.57004,0.763495
496.5,26.268,4.48437,-3.57241,0.763064
497,26.2828,4.28826,-3.5768,0.762633
497.5,26.2975,4.09416,-3.58174,0.762212
498,26.3122,3.91227,-3.58599,0.761784
498.5,26.3269,3.71668,-3.59078,0.761353
499,26.3417,3.54424,-3.59416,0.760932
499.5,26.3564,3.38577,-3.59857,0.760504
500,26.3711,3.20552,-3.60296,0.760082
500.5,26.3858,3.02967,-3.60725,0.759654
501,26.4005,2.87998,-3.61035,0.759232
501.5,26.4153,2.71451,-3.61172,0.758804
502,26.4301,2.56881,-3.61535,0.758382
502.5,26.4448,2.43269,-3.62196,0.757954
503,26.4596,2.28106,-3.63122,0.757532
503.5,26.4744,2.12389,-3.63563,0.757104
504,26.4893,1.98065,-3.63074,0.756682
504.5,26.5041,1.84242,-3.62088,0.756254
505,26.5189,1.72375,-3.6121,0.755834
505.5,26.5337,1.60196,-3.61349,0.755412
506,26.5485,1.47614,-3.62217,0.754993
506.5,26.5633,1.37531,-3.62927,0.754564
507,26.5782,1.26836,-3.63485,0.754141
507.5,26.593,1.165,-3.63951,0.753722
508,26.6079,1.07752,-3.64308,0.753303
508.5,26.6227,0.985775,-3.64526,0.752874
509,26.6376,0.90137,-3.6469,0.752454
509.5,26.6525,0.822645,-3.64831,0.752034
510,26.6673,0.741102,-3.6498,0.751614
510.5,26.6822,0.656488,-3.6498,0.751191
511,26.6971,0.593781,-3.65052,0.750771
511.5,26.712,0.525672,-3.65113,0.750351
512,26.7268,0.471943,-3.65112,0.749931
512.5,26.7417,0.409964,-3.65112,0.749511
513,26.7566,0.366179,-3.65027,0.749094
513.5,26.7715,0.316893,-3.64955,0.748674
514,26.7864,0.280222,-3.6492,0.748254
514.5,26.8013,0.241393,-3.6483,0.747843
515,26.8162,0.211053,-3.64986,0.747423
515.5,26.8311,0.180812,-3.65147,0.747001
516,26.846,0.140504,-3.6533,0.746584
516.5,26.861,0.127063,-3.65453,0.746164
517,26.8759,0.0955581,-3.65463,0.745753
517.5,26.8909,0.0816352,-3.65329,0.745331
518,26.9058,0.0493211,-3.6513,0.744914
518.5,26.9208,0.0313549,-3.64884,0.744503
519,26.9357,0.00828365,-3.64639,0.744081
519.5,26.9507,-0.0131277,-3.6445,0.743673
520,26.9657,-0.0294487,-3.64579,0.743251
520.5,26.9807,-0.0309652,-3.64809,0.742843
521,26.9957,-0.064533,-3.64872,0.742421
521.5,27.0106,-0.0770307,-3.64793,0.742013
522,27.0256,-0.0848921,-3.64564,0.741591
522.5,27.0406,-0.0942928,-3.64254,0.741183
523,27.0556,-0.10928,-3.64117,0.740764
523.5,27.0706,-0.100938,-3.64229,0.740351
524,27.0857,-0.119571,-3.64463,0.739943
524.5,27.1007,-0.136085,-3.64594,0.739524
525,27.1157,-0.150785,-3.64864,0.739111
525.5,27.1308,-0.149063,-3.64871,0.738701
526,27.1458,-0.161779,-3.64678,0.738293
526.5,27.1609,-0.175174,-3.64558,0.737883
527,27.176,-0.168692,-3.64604,0.737464
527.5,27.191,-0.170901,-3.64755,0.737054
528,27.2061,-0.161353,-3.64946,0.736641
528.5,27.2211,-0.175297,-3.65137,0.736231
529,27.2361,-0.197245,-3.65148,0.735821
529.5,27.2512,-0.193808,-3.65137,0.735411
530,27.2662,-0.19353,-3.65108,0.735001
530.5,27.2813,-0.197065,-3.65137,0.734591
531,27.2963,-0.202528,-3.65039,0.734181
531.5,27.3114,-0.218164,-3.65156,0.733774
532,27.3264,-0.225802,-3.65394,0.733373
532.5,27.3415,-0.236704,-3.65601,0.732961
533,27.3566,-0.252234,-3.65827,0.732552
533.5,27.3717,-0.262243,-3.65932,0.732142
534,27.3868,-0.274488,-3.66075,0.731734
534.5,27.4019,-0.288333,-3.66123,0.731332
535,27.417,-0.304744,-3.66106,0.730922
535.5,27.4321,-0.311784,-3.65991,0.730514
536,27.4473,-0.333539,-3.65646,0.730112
536.5,27.4624,-0.335941,-3.6535,0.729701
537,27.4775,-0.35489,-3.65105,0.729302
537.5,27.4927,-0.35473,-3.64876,0.728892
538,27.5078,-0.355283,-3.64766,0.728492
538.5,27.523,-0.364436,-3.64753,0.728082
539,27.5381,-0.375049,-3.64768,0.727682
539.5,27.5532,-0.393414,-3.64913,0.727274
540,27.5684,-0.401818,-3.64955,0.726872
540.5,27.5835,-0.400676,-3.65055,0.726472
541,27.5986,-0.395862,-3.65166,0.726064
541.5,27.6138,-0.412177,-3.65199,0.725662
542,27.629,-0.41384,-3.65259,0.725262
542.5,27.6442,-0.419907,-3.65262,0.724862
543,27.6593,-0.428296,-3.65239,0.724462
543.5,27.6746,-0.435089,-3.6512,0.724051
544,27.6897,-0.429694,-3.65122,0.723652
544.5,27.7049,-0.427592,-3.65015,0.723252
545,27.7201,-0.440132,-3.64991,0.722852
545.5,27.7353,-0.438636,-3.64861,0.722452
546,27.7505,-0.451503,-3.64783,0.722052
546.5,27.7657,-0.462612,-3.64629,0.721652
547,27.7809,-0.461315,-3.64485,0.721252
547.5,27.7961,-0.465886,-3.64442,0.720851
548,27.8113,-0.479042,-3.64481,0.720462
548.5,27.8265,-0.458648,-3.64592,0.720062
549,27.8417,-0.477185,-3.64827,0.719662
549.5,27.857,-0.470642,-3.64963,0.719262
550,27.8722,-0.467471,-3.65244,0.718872
550.5,27.8875,-0.480741,-3.65336,0.718472
551,27.9027,-0.493486,-3.6531,0.718072
551.5,27.9179,-0.480104,-3.65183,0.717682
552,27.9331,-0.493959,-3.64957,0.717282
552.5,27.9484,-0.504057,-3.6477,0.716881
553,27.9636,-0.501907,-3.64758,0.716492
553.5,27.979,-0.501976,-3.64741,0.716091
554,27.9942,-0.505383,-3.64843,0.715702
554.5,28.0095,-0.518442,-3.64834,0.715309
555,28.0248,-0.506202,-3.64821,0.714912
555.5,28.0401,-0.525284,-3.64736,0.714521
556,28.0554,-0.519335,-3.64577,0.714121
556.5,28.0707,-0.524032,-3.64362,0.713732
557,28.086,-0.535364,-3.64271,0.713341
557.5,28.1012,-0.535068,-3.64137,0.712952
558,28.1165,-0.533656,-3.64101,0.712559
558.5,28.1319,-0.538197,-3.64122,0.712161
559,28.1472,-0.531842,-3.64165,0.711772
559.5,28.1625,-0.549871,-3.64328,0.711382
560,28.1779,-0.561327,-3.64253,0.710992
560.5,28.1932,-0.55703,-3.63881,0.710601
561,28.2085,-0.560283,-3.63742,0.710211
561.5,28.2238,-0.563912,-3.63568,0.709822
562,28.2391,-0.562354,-3.63539,0.709432
562.5,28.2544,-0.553123,-3.63691,0.709041
563,28.2698,-0.564701,-3.63982,0.708651
563.5,28.2852,-0.559115,-3.64113,0.708269
564,28.3005,-0.577711,-3.6419,0.707882
564.5,28.316,-0.563827,-3.64026,0.707492
565,28.3314,-0.56303,-3.63771,0.707101
565.5,28.3467,-0.562809,-3.63598,0.706719
566,28.362,-0.567381,-3.63556,0.706332
566.5,28.3772,-0.55788,-3.63801,0.705941
567,28.3924,-0.55132,-3.64258,0.705562
567.5,28.4076,-0.551703,-3.64817,0.705171
568,28.4229,-0.537671,-3.65436,0.704792
568.5,28.4382,-0.530769,-3.6598,0.7044
569,28.4535,-0.530391,-3.66524,0.704022
569.5,28.4689,-0.529324,-3.66899,0.703639
570,28.4843,-0.528204,-3.67048,0.70325
570.5,28.4997,-0.523978,-3.67009,0.702872
571,28.5151,-0.516732,-3.66665,0.702489
571.5,28.5305,-0.51728,-3.66083,0.7021
572,28.5459,-0.512437,-3.65648,0.701722
572.5,28.5613,-0.515732,-3.65453,0.701342
573,28.5767,-0.522709,-3.65391,0.70096
573.5,28.5921,-0.525261,-3.65078,0.700579
574,28.6075,-0.533078,-3.64662,0.700199
574.5,28.6229,-0.546903,-3.63993,0.699819
575,28.6383,-0.549711,-3.63674,0.699439
575.5,28.6537,-0.542084,-3.63793,0.699059
576,28.6692,-0.551262,-3.64212,0.698679
576.5,28.6846,-0.535168,-3.64448,0.698299
577,28.7,-0.551102,-3.64465,0.69792
577.5,28.7154,-0.555616,-3.64465,0.697543
578,28.7309,-0.554025,-3.64465,0.697161
578.5,28.7464,-0.557262,-3.64465,0.69678
579,28.7618,-0.56589,-3.64465,0.696409
579.5,28.7773,-0.562323,-3.64466,0.696031
580,28.7927,-0.568273,-3.64471,0.695651
580.5,28.8082,-0.574452,-3.64479,0.695279
581,28.8236,-0.566112,-3.64374,0.694901
581.5,28.839,-0.575389,-3.64353,0.694529
582,28.8545,-0.593595,-3.64244,0.694151
582.5,28.87,-0.593857,-3.64246,0.693779
583,28.8855,-0.57493,-3.6425,0.693401
583.5,28.9009,-0.588998,-3.64112,0.693029
584,28.9164,-0.587432,-3.64115,0.69266
584.5,28.9318,-0.594169,-3.64114,0.692281
585,28.9473,-0.582168,-3.64231,0.691909
585.5,28.9627,-0.587359,-3.64288,0.691539
586,28.9782,-0.602147,-3.64449,0.691162
586.5,28.9937,-0.596925,-3.64515,0.690791
587,29.0092,-0.609447,-3.64581,0.690421
587.5,29.0246,-0.602613,-3.64711,0.690048
588,29.0401,-0.604127,-3.64785,0.689678
588.5,29.0556,-0.61102,-3.64848,0.689308
589,29.0711,-0.611475,-3.64848,0.688938
589.5,29.0867,-0.617872,-3.64948,0.688568
590,29.1023,-0.611727,-3.64949,0.688198
590.5,29.1178,-0.613605,-3.64952,0.687831
591,29.1333,-0.622736,-3.64781,0.687461
591.5,29.1488,-0.635103,-3.64725,0.6871
592,29.1643,-0.641841,-3.64471,0.686729
592.5,29.1798,-0.65815,-3.64371,0.686358
593,29.1954,-0.652927,-3.64093,0.685991
593.5,29.2109,-0.659589,-3.63904,0.68563
594,29.2265,-0.664038,-3.63583,0.685258
594.5,29.242,-0.669045,-3.63244,0.6849
595,29.2574,-0.68422,-3.6308,0.684528
595.5,29.2729,-0.674871,-3.63043,0.684161
596,29.2884,-0.67823,-3.62954,0.683798
596.5,29.3041,-0.691523,-3.62957,0.68344
597,29.3198,-0.683827,-3.63092,0.683068
597.5,29.3354,-0.686539,-3.6326,0.682709
598,29.351,-0.682699,-3.6343,0.68235
598.5,29.3665,-0.678908,-3.63602,0.681981
599,29.3821,-0.657394,-3.64003,0.681618
599.5,29.3974,-0.666069,-3.64816,0.681259
600,29.4129,-0.677888,-3.6538,0.6809
600.5,29.4285,-0.695083,-3.65033,0.68054
601,29.444,-0.698424,-3.64142,0.680171
601.5,29.4596,-0.704876,-3.63045,0.679811
602,29.4753,-0.706303,-3.62817,0.679451
602.5,29.491,-0.698357,-3.63433,0.679091
603,29.5067,-0.700028,-3.64097,0.678731
603.5,29.5224,-0.708178,-3.64439,0.67838
604,29.538,-0.702576,-3.64716,0.678019
604.5,29.5538,-0.713948,-3.64859,0.677659
605,29.5694,-0.708169,-3.64864,0.677299
605.5,29.585,-0.713326,-3.64702,0.676941
606,29.6006,-0.718883,-3.64556,0.676589
606.5,29.6163,-0.72984,-3.64325,0.676229
607,29.6319,-0.73519,-3.64141,0.675868
607.5,29.6475,-0.746003,-3.6407,0.675519
608,29.6631,-0.726732,-3.64006,0.675159
608.5,29.6787,-0.739286,-3.63981,0.674809
609,29.6943,-0.726959,-3.63983,0.674449
609.5,29.7099,-0.736082,-3.63918,0.674099
610,29.7256,-0.74337,-3.6384,0.673738
610.5,29.7412,-0.750713,-3.63848,0.673389
611,29.7569,-0.730241,-3.63992,0.673039
611.5,29.7726,-0.736473,-3.64167,0.672678
612,29.7882,-0.751476,-3.64583,0.672329
612.5,29.8039,-0.74385,-3.6492,0.671979
613,29.8195,-0.737684,-3.65071,0.671629
613.5,29.8352,-0.742158,-3.65231,0.671279
614,29.8508,-0.748852,-3.65204,0.670929
614.5,29.8664,-0.75309,-3.64951,0.670579
615,29.8821,-0.76078,-3.64464,0.670229
615.5,29.8978,-0.764308,-3.64118,0.669879
616,29.9135,-0.776261,-3.63775,0.669529
616.5,29.9292,-0.779688,-3.63599,0.669179
617,29.9449,-0.793152,-3.63436,0.668829
617.5,29.9605,-0.797844,-3.63202,0.668479
618,29.9762,-0.812607,-3.62955,0.668129
618.5,29.9919,-0.816684,-3.62743,0.66779
619,,,,
619.5,,,,
620,,,,
620.5,,,,
621,,,,
621.5,,,,
622,,,,
622.5,,,,
623,,,,
623.5,,,,
624,,,,
624.5,,,,
625,,,,
625.5,,,,
626,,,,
626.5,,,,
627,,,,
627.5,,,,
628,,,,
628.5,,,,
629,,,,
629.5,,,,
630,,,,
630.5,,,,
631,,,,
631.5,,,,
632,,,,
632.5,,,,
633,,,,
633.5,,,,
634,,,,
634.5,,,,
635,,,,
635.5,,,,
636,,,,
636.5,,,,
637,,,,
637.5,,,,
638,,,,
638.5,,,,
639,,,,
639.5,,,,
640,,,,
640.5,,,,
641,,,,
641.5,,,,
642,,,,
642.5,,,,
643,,,,
643.5,,,,
644,,,,
644.5,,,,
645,,,,
645.5,,,,
646,,,,
646.5,,,,
647,,,,
647.5,,,,
648,,,,
648.5,,,,
649,,,,
649.5,,,,
650,,,,
650.5,,,,
651,,,,
651.5,,,,
652,,,,
652.5,,,,
653,,,,
653.5,,,,
654,,,,
654.5,,,,
655,,,,
655.5,,,,
656,,,,
656.5,,,,
657,,,,
657.5,,,,
658,,,,
658.5,,,,
659,,,,
659.5,,,,
660,,,,
660.5,,,,
661,,,,
661.5,,,,
662,,,,
662.5,,,,
663,,,,
663.5,,,,
664,,,,
664.5,,,,
665,,,,
665.5,,,,
666,,,,
666.5,,,,
667,,,,
667.5,,,,
668,,,,
668.5,,,,
669,,,,
669.5,,,,
670,,,,
670.5,,,,
671,,,,
671.5,,,,
672,,,,
672.5,,,,
673,,,,
673.5,,,,
674,,,,
674.5,,,,
675,,,,
675.5,,,,
676,,,,
676.5,,,,
677,,,,
677.5,,,,
678,,,,
678.5,,,,
679,,,,
679.5,,,,
680,,,,
680.5,,,,
681,,,,
681.5,,,,
682,,,,
682.5,,,,
683,,,,
683.5,,,,
684,,,,
684.5,,,,
685,,,,
685.5,,,,
686,,,,
686.5,,,,
687,,,,
687.5,,,,
688,,,,
688.5,,,,
689,,,,
689.5,,,,
690,,,,
690.5,,,,
691,,,,
691.5,,,,
692,,,,
692.5,,,,
693,,,,
693.5,,,,
694,,,,
694.5,,,,
695,,,,
695.5,,,,
696,,,,
696.5,,,,
697,,,,
697.5,,,,
698,,,,
698.5,,,,
699,,,,
699.5,,,,
700,,,,
700.5,,,,
701,,,,
701.5,,,,
702,,,,
702.5,,,,
703,,,,
703.5,,,,
704,,,,
704.5,,,,
705,,,,
705.5,,,,
706,,,,
706.5,,,,
707,,,,
707.5,,,,
708,,,,
708.5,,,,
709,,,,
709.5,,,,
710,,,,
710.5,,,,
711,,,,
711.5,,,,
712,,,,
712.5,,,,
713,,,,
713.5,,,,
714,,,,
714.5,,,,
715,,,,
715.5,,,,
716,,,,
716.5,,,,
717,,,,
717.5,,,,
718,,,,
718.5,,,,
719,,,,
719.5,,,,
720,,,,
720.5,,,,
721,,,,
721.5,,,,
722,,,,
722.5,,,,
723,,,,
723.5,,,,
724,,,,
724.5,,,,
725,,,,
725.5,,,,
726,,,,
726.5,,,,
727,,,,
727.5,,,,
728,,,,
728.5,,,,
729,,,,
729.5,,,,
730,,,,
730.5,,,,
731,,,,
731.5,,,,
732,,,,
732.5,,,,
733,,,,
733.5,,,,
734,,,,
734.5,,,,
735,,,,
735.5,,,,
736,,,,
736.5,,,,
737,,,,
737.5,,,,
738,,,,
738.5,,,,
739,,,,
739.5,,,,
740,,,,
740.5,,,,
741,,,,
741.5,,,,
742,,,,
742.5,,,,
743,,,,
743.5,,,,
744,,,,
744.5,,,,
745,,,,
745.5,,,,
746,,,,
746.5,,,,
747,,,,
747.5,,,,
748,,,,
748.5,,,,
749,,,,
749.5,,,,
750,,,,