File: 01_Data/PlasticC/STA/N2/30K_min/PlasticC_STA_N2_30KData_211028_R2.csv
Temp/C,Time/min,DSC/mW,Mass loss/mg,Sensit./(uV/mW)
50,10.9602,-0.0314842,0.04793034,1.05402
50.5,11.1753,0.0372409,0.0488706,1.05403
51,11.3195,0.0901051,0.0487679,1.05404
51.5,11.4323,0.147384,0.049933,1.05405
52,11.5254,0.20115,0.0498576,1.05405
52.5,11.6114,0.24457,0.0501191,1.05406
53,11.6848,0.299675,0.0521955,1.05406
53.5,11.7532,0.334142,0.0521053,1.05406
54,11.8165,0.380004,0.0523196,1.05406
54.5,11.8758,0.415231,0.0513368,1.05406
55,11.9304,0.451483,0.05136,1.05406
55.5,11.9836,0.488923,0.0525302,1.05406
56,12.0343,0.52162,0.0522919,1.05405
56.5,12.0821,0.559622,0.0527244,1.05405
57,12.1287,0.582456,0.0522957,1.05404
57.5,12.174,0.607066,0.0534493,1.05403
58,12.2176,0.643045,0.0530021,1.05402
58.5,12.2599,0.663511,0.0544104,1.05401
59,12.3011,0.69934,0.05396904,1.054
59.5,12.3411,0.716573,0.0547075,1.05399
60,12.3805,0.741745,0.0540997,1.05398
60.5,12.4191,0.76475,0.0549146,1.05396
61,12.4569,0.789162,0.0537201,1.05395
61.5,12.4942,0.807189,0.0542249,1.05393
62,12.5305,0.823498,0.0549208,1.05391
62.5,12.566,0.855853,0.0557488,1.05389
63,12.6013,0.876559,0.0535968,1.05387
63.5,12.6363,0.891719,0.0533661,1.05385
64,12.6708,0.907652,0.0539296,1.05382
64.5,12.7047,0.92837,0.05568483,1.0538
65,12.7379,0.943419,0.0557909,1.05377
65.5,12.7709,0.958983,0.0558766,1.05374
66,12.804,0.983378,0.0540347,1.05372
66.5,12.8365,1.00377,0.0545485,1.05369
67,12.8684,1.01982,0.0553989,1.05366
67.5,12.8998,1.04196,0.0547026,1.05362
68,12.9309,1.05499,0.0554036,1.05359
68.5,12.9616,1.06936,0.0558559,1.05356
69,12.9927,1.08241,0.057239,1.05352
69.5,13.0235,1.09845,0.0572143,1.05349
70,13.0541,1.11507,0.0563302,1.05345
70.5,13.0836,1.12829,0.0560726,1.05341
71,13.1137,1.1469,0.0567833,1.05337
71.5,13.1437,1.1568,0.0553591,1.05333
72,13.1733,1.18194,0.05451633,1.05328
72.5,13.2024,1.18977,0.0557462,1.05324
73,13.2317,1.19972,0.0554728,1.0532
73.5,13.2604,1.21364,0.0555262,1.05315
74,13.289,1.21819,0.0569774,1.0531
74.5,13.3175,1.23714,0.0574618,1.05305
75,13.3457,1.25485,0.0565395,1.053
75.5,13.3737,1.25538,0.055939,1.05295
76,13.4017,1.27172,0.0566769,1.0529
76.5,13.4293,1.28206,0.05674986,1.05285
77,13.4567,1.29796,0.0564632,1.05279
77.5,13.4839,1.31481,0.057303,1.05274
78,13.5111,1.32148,0.0571197,1.05268
78.5,13.5381,1.33207,0.0560147,1.05262
79,13.5649,1.3428,0.0559624,1.05256
79.5,13.5918,1.35755,0.0553387,1.0525
80,13.6184,1.37148,0.0553412,1.05244
80.5,13.6448,1.39246,0.0557385,1.05238
81,13.6705,1.40931,0.0556901,1.05232
81.5,13.6963,1.42552,0.0561887,1.05225
82,13.7221,1.4297,0.05732199,1.05219
82.5,13.7485,1.45398,0.05748199,1.05212
83,13.7741,1.447,0.0573555,1.05205
83.5,13.7996,1.46052,0.0574524,1.05198
84,13.8246,1.46865,0.0574917,1.05191
84.5,13.8498,1.45773,0.0574455,1.05184
85,13.8746,1.45395,0.0573121,1.05177
85.5,13.8994,1.44839,0.0575335,1.05169
86,13.9242,1.44097,0.0585178,1.05162
86.5,13.9487,1.42931,0.0583381,1.05154
87,13.973,1.43477,0.0591223,1.05146
87.5,13.9972,1.42873,0.0586645,1.05139
88,14.0212,1.41578,0.05849467,1.05131
88.5,14.0451,1.43007,0.0574999,1.05122
89,14.0687,1.43113,0.0585502,1.05114
89.5,14.0923,1.43212,0.0578864,1.05106
90,14.1158,1.43515,0.0585798,1.05098
90.5,14.1393,1.4424,0.0586693,1.05089
91,14.1625,1.45378,0.06013849,1.0508
91.5,14.1855,1.46358,0.0603572,1.05072
92,14.2085,1.48123,0.0600377,1.05063
92.5,14.2316,1.4924,0.0597719,1.05054
93,14.2543,1.50508,0.0586733,1.05045
93.5,14.277,1.51833,0.0585327,1.05035
94,14.2995,1.54014,0.05888024,1.05026
94.5,14.3219,1.54434,0.0586367,1.05017
95,14.3442,1.56784,0.0591961,1.05007
95.5,14.3663,1.58448,0.05828555,1.04997
96,14.3884,1.60514,0.0584376,1.04988
96.5,14.4104,1.61709,0.05899766,1.04978
97,14.4323,1.64089,0.0593073,1.04968
97.5,14.4541,1.65544,0.0599822,1.04958
98,14.4757,1.67738,0.0585398,1.04947
98.5,14.4973,1.70466,0.057975,1.04937
99,14.5188,1.72902,0.0591783,1.04927
99.5,14.5402,1.75032,0.0592721,1.04916
100,14.5614,1.78396,0.0593959,1.04905
100.5,14.5826,1.80842,0.0588159,1.04895
101,14.6039,1.83597,0.0590551,1.04884
101.5,14.6251,1.86031,0.0592179,1.04873
102,14.6459,1.88549,0.0596758,1.04862
102.5,14.6665,1.91092,0.060979,1.0485
103,14.6873,1.94108,0.059524,1.04839
103.5,14.7081,1.97228,0.0593641,1.04828
104,14.7292,1.98377,0.0593061,1.04816
104.5,14.7499,2.01547,0.0587529,1.04804
105,14.7703,2.03351,0.0595493,1.04793
105.5,14.7907,2.05777,0.0589564,1.04781
106,14.811,2.08252,0.0594692,1.04769
106.5,14.8313,2.09477,0.0605258,1.04757
107,14.8516,2.10337,0.0596729,1.04744
107.5,14.8718,2.11895,0.0596887,1.04732
108,14.8919,2.12903,0.0586175,1.0472
108.5,14.9118,2.14045,0.0594697,1.04707
109,14.9318,2.15738,0.0590593,1.04695
109.5,14.9517,2.16587,0.0596954,1.04682
110,14.9714,2.18004,0.0583691,1.04669
110.5,14.9912,2.192,0.0589116,1.04656
111,15.0109,2.20036,0.0580531,1.04643
111.5,15.0306,2.20666,0.0594819,1.0463
112,15.0501,2.21676,0.05966782,1.04616
112.5,15.0696,2.23635,0.059422,1.04603
113,15.0891,2.23376,0.05946005,1.0459
113.5,15.1084,2.24938,0.05950476,1.04576
114,15.1278,2.26086,0.0598242,1.04562
114.5,15.1471,2.264,0.0593581,1.04548
115,15.1664,2.27507,0.0592325,1.04535
115.5,15.1856,2.28043,0.0589028,1.04521
116,15.2046,2.30111,0.05919635,1.04506
116.5,15.2235,2.31274,0.0580255,1.04492
117,15.2425,2.31789,0.0593205,1.04478
117.5,15.2614,2.33058,0.0592225,1.04463
118,15.2804,2.32581,0.0606929,1.04449
118.5,15.2994,2.34331,0.0606917,1.04434
119,15.3181,2.35939,0.06195,1.04419
119.5,15.3368,2.37006,0.0607732,1.04404
120,15.3555,2.37582,0.0606758,1.0439
120.5,15.3741,2.39034,0.0610402,1.04374
121,15.3927,2.40079,0.06065323,1.04359
121.5,15.4113,2.40129,0.0600214,1.04344
122,15.4298,2.42065,0.0606803,1.04329
122.5,15.4483,2.42844,0.0607109,1.04313
123,15.4666,2.44293,0.0600522,1.04297
123.5,15.4849,2.44651,0.0609461,1.04282
124,15.5031,2.4562,0.0610322,1.04266
124.5,15.5214,2.46748,0.061,1.0425
125,15.5396,2.47285,0.0599886,1.04234
125.5,15.5578,2.47539,0.0609643,1.04218
126,15.576,2.48938,0.06099,1.04202
126.5,15.594,2.49894,0.06099,1.04185
127,15.612,2.50913,0.0610011,1.04169
127.5,15.6299,2.50876,0.0620847,1.04152
128,15.6477,2.51966,0.0613161,1.04136
128.5,15.6656,2.53865,0.0609894,1.04119
129,15.6834,2.53433,0.0621932,1.04102
129.5,15.7011,2.54657,0.0623002,1.04085
130,15.7188,2.554,0.06135765,1.04068
130.5,15.7365,2.57139,0.0608898,1.04051
131,15.7543,2.57933,0.06126544,1.04034
131.5,15.7719,2.57532,0.0608996,1.04017
132,15.7895,2.59203,0.0608901,1.03999
132.5,15.807,2.59935,0.060934,1.03982
133,15.8245,2.60789,0.0615179,1.03964
133.5,15.8419,2.61808,0.0608719,1.03946
134,15.8593,2.62303,0.0611593,1.03928
134.5,15.8767,2.62922,0.0622205,1.0391
135,15.8941,2.63516,0.0618528,1.03892
135.5,15.9114,2.64141,0.0605735,1.03874
136,15.9286,2.65513,0.06177048,1.03856
136.5,15.9459,2.66076,0.0618241,1.03838
137,15.9631,2.66659,0.0609248,1.03819
137.5,15.9802,2.67536,0.0623247,1.03801
138,15.9974,2.67576,0.0623314,1.03782
138.5,16.0145,2.69373,0.0619493,1.03763
139,16.0315,2.69883,0.0631592,1.03744
139.5,16.0485,2.7001,0.0630581,1.03726
140,16.0655,2.70719,0.0619468,1.03706
140.5,16.0824,2.7171,0.0619798,1.03687
141,16.0992,2.7254,0.06195931,1.03668
141.5,16.1161,2.72838,0.0620217,1.03649
142,16.1329,2.74298,0.0619903,1.03629
142.5,16.1496,2.73703,0.06198,1.0361
143,16.1664,2.74717,0.06197791,1.0359
143.5,16.1832,2.76019,0.0631735,1.03571
144,16.1999,2.76229,0.06329,1.03551
144.5,16.2167,2.77482,0.0632788,1.03531
145,16.2333,2.76858,0.0617404,1.03511
145.5,16.25,2.77075,0.0597429,1.03491
146,16.2665,2.7776,0.0551067,1.0347
146.5,16.283,2.78667,0.05349681,1.0345
147,16.2995,2.79953,0.0546535,1.0343
147.5,16.316,2.81308,0.0601873,1.03409
148,16.3324,2.82048,0.0681607,1.03389
148.5,16.3489,2.82584,0.0718268,1.03368
149,16.3653,2.83406,0.0690628,1.03347
149.5,16.3818,2.84709,0.0663832,1.03326
150,16.3982,2.84621,0.0640389,1.03305
150.5,16.4145,2.86177,0.0639741,1.03284
151,16.4309,2.86781,0.0633526,1.03263
151.5,16.4472,2.86816,0.0633672,1.03242
152,16.4635,2.87743,0.06211937,1.03221
152.5,16.4797,2.88145,0.0621096,1.03199
153,16.4959,2.89048,0.0620899,1.03178
153.5,16.5121,2.90149,0.06210068,1.03156
154,16.5284,2.90907,0.0629211,1.03134
154.5,16.5446,2.90766,0.0620609,1.03113
155,16.5607,2.91713,0.06210953,1.03091
155.5,16.5767,2.92688,0.0627565,1.03069
156,16.5928,2.9299,0.0634005,1.03047
156.5,16.6088,2.93478,0.0634,1.03024
157,16.6248,2.94202,0.0634,1.03002
157.5,16.6409,2.94077,0.0634,1.0298
158,16.657,2.95722,0.0634004,1.02957
158.5,16.6731,2.96529,0.06316936,1.02935
159,16.6892,2.97452,0.0619434,1.02912
159.5,16.7052,2.97799,0.06330001,1.02889
160,16.721,2.98234,0.0633998,1.02867
160.5,16.7369,2.98679,0.0634,1.02844
161,16.7527,2.9983,0.0634,1.02821
161.5,16.7686,3.00729,0.0634103,1.02798
162,16.7844,3.00373,0.0632391,1.02774
162.5,16.8003,3.01013,0.0633408,1.02751
163,16.816,3.02279,0.0634093,1.02728
163.5,16.8318,3.0244,0.0634197,1.02704
164,16.8476,3.03551,0.0627623,1.02681
164.5,16.8634,3.0307,0.06207293,1.02657
165,16.8791,3.05098,0.06204653,1.02633
165.5,16.8949,3.05888,0.0634481,1.0261
166,16.9105,3.07139,0.0634001,1.02586
166.5,16.9262,3.06377,0.0634,1.02562
167,16.9418,3.08546,0.0634,1.02538
167.5,16.9574,3.07536,0.0634,1.02513
168,16.973,3.08949,0.0634,1.02489
168.5,16.9887,3.09375,0.0634,1.02465
169,17.0043,3.10729,0.0634,1.0244
169.5,17.0198,3.10552,0.0634,1.02416
170,17.0354,3.11596,0.0633999,1.02391
170.5,17.0508,3.11173,0.0633698,1.02367
171,17.0663,3.12688,0.0632979,1.023422
171.5,17.0818,3.13594,0.06260526,1.023172
172,17.0972,3.13768,0.0634204,1.022922
172.5,17.1127,3.14462,0.0634,1.022672
173,17.1281,3.14453,0.0634,1.02242
173.5,17.1435,3.16058,0.0634,1.02216
174,17.1589,3.15904,0.0633886,1.021912
174.5,17.1743,3.16748,0.0644708,1.02166
175,17.1896,3.18242,0.0647095,1.0214
175.5,17.2049,3.17976,0.06471544,1.02115
176,17.2202,3.19216,0.0636496,1.02089
176.5,17.2355,3.19664,0.063411,1.02063
177,17.2508,3.2041,0.06340998,1.02038
177.5,17.266,3.20504,0.06341,1.02012
178,17.2812,3.21383,0.06341,1.01986
178.5,17.2963,3.22774,0.06341,1.0196
179,17.3115,3.22575,0.06341,1.01933
179.5,17.3267,3.22881,0.0634115,1.01907
180,17.3419,3.24158,0.0643052,1.01881
180.5,17.3572,3.25501,0.0647425,1.01854
181,17.3723,3.2573,0.06403302,1.01828
181.5,17.38752,3.26098,0.0634002,1.01801
182,17.4026,3.26505,0.0633804,1.01775
182.5,17.4177,3.26396,0.0632057,1.01748
183,17.4326,3.27494,0.0620968,1.01721
183.5,17.4477,3.28102,0.0631693,1.01694
184,17.4626,3.28876,0.0635098,1.01667
184.5,17.4775,3.30411,0.0635303,1.0164
185,17.4925,3.29994,0.0640752,1.01613
185.5,17.5075,3.30716,0.0648209,1.01586
186,17.5224,3.32157,0.06483,1.01558
186.5,17.5373,3.32474,0.0648187,1.01531
187,17.5523,3.33334,0.0637745,1.01503
187.5,17.5671,3.33018,0.0631723,1.01476
188,17.5819,3.33742,0.0621808,1.01448
188.5,17.5968,3.3506,0.0622,1.0142
189,17.6117,3.3615,0.0622,1.01393
189.5,17.6266,3.36081,0.0622,1.01365
190,17.6414,3.36857,0.0621818,1.01337
190.5,17.6562,3.37657,0.0631971,1.01309
191,17.6709,3.37946,0.06350964,1.01281
191.5,17.6857,3.38635,0.0635122,1.01252
192,17.7004,3.39396,0.0630231,1.01224
192.5,17.7151,3.39824,0.0621891,1.01196
193,17.7299,3.40502,0.06219002,1.01167
193.5,17.7446,3.40744,0.06219,1.01139
194,17.7593,3.4161,0.06219,1.0111
194.5,17.774,3.42983,0.06219,1.01081
195,17.7887,3.43049,0.06219,1.01053
195.5,17.8033,3.43901,0.06219,1.01024
196,17.818,3.43759,0.06219,1.00995
196.5,17.8326,3.44705,0.0621998,1.00966
197,17.8473,3.45178,0.0622673,1.00937
197.5,17.8619,3.46561,0.0633209,1.00908
198,17.8765,3.47326,0.0645369,1.00878
198.5,17.8911,3.47637,0.0648196,1.00849
199,17.9057,3.48042,0.06483,1.0082
199.5,17.9202,3.49559,0.06483,1.0079
200,17.9347,3.49303,0.0648387,1.00761
200.5,17.9492,3.50018,0.06422875,1.00731
201,17.9637,3.50748,0.0638122,1.00701
201.5,17.9782,3.51678,0.063755,1.00671
202,17.9928,3.51672,0.0634909,1.00642
202.5,18.0073,3.53304,0.0635175,1.00612
203,18.0218,3.53724,0.0646421,1.00582
203.5,18.0363,3.54381,0.0644163,1.00552
204,18.0508,3.54708,0.0634316,1.00521
204.5,18.0652,3.55776,0.0635192,1.00491
205,18.0797,3.56981,0.06352002,1.00461
205.5,18.0942,3.58011,0.06352,1.00431
206,18.1084,3.57893,0.06352,1.004
206.5,18.1229,3.59065,0.06352,1.0037
207,18.1373,3.59173,0.06352,1.00339
207.5,18.1516,3.5911,0.06352,1.00308
208,18.1659,3.60489,0.06352,1.00277
208.5,18.1804,3.60779,0.06352,1.00247
209,18.1947,3.61538,0.06352,1.00216
209.5,18.2091,3.62222,0.06352,1.00185
210,18.2235,3.62313,0.06352,1.00154
210.5,18.2379,3.63668,0.06352,1.00123
211,18.2522,3.63721,0.06352,1.00091
211.5,18.2665,3.65175,0.06352,1.0006
212,18.2808,3.66377,0.06352,1.00029
212.5,18.2952,3.68055,0.06352,0.999973
213,18.3095,3.67714,0.06352,0.999662
213.5,18.3238,3.68244,0.06352,0.999343
214,18.3382,3.69458,0.06352,0.999033
214.5,18.3524,3.6988,0.06352,0.998712
215,18.3665,3.70039,0.06352,0.998393
215.5,18.3809,3.70936,0.06352,0.998073
216,18.3951,3.71836,0.0635292,0.997763
216.5,18.4094,3.7169,0.0637368,0.997443
217,18.4237,3.73058,0.0645875,0.997123
217.5,18.438,3.73059,0.063362,0.996793
218,18.4522,3.73556,0.0631704,0.996473
218.5,18.4664,3.74809,0.06318,0.996152
219,18.4806,3.74258,0.06318,0.995833
219.5,18.4947,3.76328,0.06318,0.995503
220,18.5089,3.76288,0.06318,0.995183
220.5,18.5229,3.77177,0.06318,0.994853
221,18.537,3.77394,0.0631801,0.994533
221.5,18.5512,3.78573,0.0631494,0.994203
222,18.5653,3.79949,0.0635214,0.993873
222.5,18.5794,3.79678,0.06351,0.993543
223,18.5937,3.80151,0.06351,0.993222
223.5,18.608,3.8126,0.0635103,0.992892
224,18.6221,3.81588,0.0634543,0.992562
224.5,18.6362,3.82375,0.0623257,0.992232
225,18.6504,3.82468,0.0622,0.991893
225.5,18.6645,3.8292,0.0622,0.991563
226,18.6787,3.84768,0.0622,0.991233
226.5,18.6928,3.84758,0.0622,0.990903
227,18.7069,3.85237,0.0622,0.990563
227.5,18.721,3.8666,0.0622,0.990233
228,18.735,3.8751,0.0622,0.989893
228.5,18.749,3.8768,0.0622562,0.989563
229,18.763,3.88344,0.063241,0.989223
229.5,18.777,3.88859,0.0631801,0.988883
230,18.791,3.89551,0.06317,0.988543
230.5,18.805,3.9074,0.0631862,0.988203
231,18.8189,3.90485,0.0622297,0.987863
231.5,18.833,3.90814,0.0621573,0.987523
232,18.847,3.92516,0.0621898,0.987183
232.5,18.8611,3.92924,0.06219,0.986843
233,18.8751,3.92418,0.06219,0.986503
233.5,18.8891,3.9388,0.06219,0.986163
234,18.9032,3.94875,0.0621901,0.985813
234.5,18.9172,3.96097,0.0622116,0.985473
235,18.9311,3.95799,0.06180792,0.985133
235.5,18.9451,3.96384,0.06024624,0.984783
236,18.9591,3.96043,0.057691,0.984443
236.5,18.973,3.97147,0.0548199,0.9840928
237,18.9869,3.98883,0.05512518,0.9837428
237.5,19.0008,3.98956,0.0593498,0.983393
238,19.0147,3.99771,0.0640839,0.983053
238.5,19.0286,3.99963,0.0683304,0.9827028
239,19.0426,4.00563,0.068997,0.9823528
239.5,19.0565,4.01793,0.0675981,0.9820028
240,19.0704,4.01463,0.0653814,0.9816528
240.5,19.0844,4.02304,0.0643061,0.981303
241,19.0983,4.02334,0.0643324,0.980943
241.5,19.1122,4.03264,0.0638098,0.9805928
242,19.1261,4.03307,0.0636223,0.980243
242.5,19.14,4.03605,0.0626628,0.979883
243,19.1538,4.03771,0.06164103,0.979533
243.5,19.1677,4.0473,0.06165005,0.979173
244,19.1815,4.05197,0.06165,0.978823
244.5,19.1954,4.05519,0.06165,0.978463
245,19.2092,4.06439,0.06165,0.978113
245.5,19.2231,4.06866,0.06165,0.977753
246,19.237,4.07687,0.06165,0.977393
246.5,19.2508,4.08502,0.06165,0.977033
247,19.2646,4.08991,0.0616497,0.976673
247.5,19.2783,4.09774,0.0616815,0.976313
248,19.2921,4.10839,0.0612087,0.975953
248.5,19.3059,4.12099,0.0603073,0.975593
249,19.3198,4.11873,0.06035,0.975233
249.5,19.3337,4.12329,0.06034,0.974873
250,19.3476,4.12656,0.06034,0.974513
250.5,19.3614,4.13603,0.06034,0.974143
251,19.3752,4.14757,0.06034062,0.973783
251.5,19.389,4.15241,0.0610757,0.973423
252,19.4028,4.161,0.0616871,0.973053
252.5,19.4166,4.15454,0.0616507,0.972683
253,19.4304,4.14748,0.0616402,0.972323
253.5,19.4442,4.16193,0.0612841,0.971953
254,19.458,4.16186,0.06010807,0.971593
254.5,19.4718,4.16928,0.0596318,0.971223
255,19.4855,4.16869,0.0596703,0.970853
255.5,19.4993,4.17256,0.0595656,0.970483
256,19.5131,4.17922,0.0590567,0.970113
256.5,19.5269,4.18948,0.0590303,0.969743
257,19.5407,4.19222,0.05902,0.969373
257.5,19.5544,4.19551,0.05902,0.969003
258,19.5682,4.1939,0.05902,0.968633
258.5,19.5819,4.1931,0.05902,0.968263
259,19.5956,4.20811,0.05902,0.967883
259.5,19.6093,4.21409,0.0590396,0.967513
260,19.623,4.2239,0.0584015,0.967143
260.5,19.6367,4.22524,0.0576796,0.966763
261,19.6504,4.22409,0.0577,0.966393
261.5,19.6642,4.22873,0.0577,0.966013
262,19.6779,4.23498,0.0577,0.965643
262.5,19.6916,4.24331,0.0577,0.965263
263,19.7054,4.25843,0.0577,0.964883
263.5,19.7191,4.25073,0.0577,0.964513
264,19.7328,4.25994,0.0577,0.964133
264.5,19.7466,4.25532,0.0577,0.963753
265,19.7604,4.27497,0.0577,0.963373
265.5,19.7741,4.27375,0.0577,0.962993
266,19.7878,4.27356,0.0577095,0.962613
266.5,19.8015,4.28208,0.05724109,0.962233
267,19.8152,4.28894,0.0563704,0.961853
267.5,19.8288,4.29529,0.05639,0.961473
268,19.8425,4.30367,0.056427,0.961093
268.5,19.8561,4.28598,0.0583173,0.960703
269,19.8698,4.29986,0.0601354,0.960323
269.5,19.8835,4.30192,0.0607589,0.959943
270,19.8971,4.31808,0.0595067,0.959553
270.5,19.9108,4.32149,0.0565165,0.959173
271,19.9245,4.32218,0.0528643,0.958783
271.5,19.9382,4.32719,0.0505046,0.958403
272,19.9518,4.327,0.0505283,0.958013
272.5,19.9655,4.33053,0.0520092,0.957633
273,19.9792,4.3333,0.05210918,0.957243
273.5,19.9929,4.33745,0.05211,0.956853
274,20.0065,4.345,0.05211,0.956463
274.5,20.0201,4.34566,0.05211,0.956073
275,20.0337,4.35056,0.05211,0.955693
275.5,20.0473,4.34701,0.0521097,0.955303
276,20.061,4.351,0.052215,0.954913
276.5,20.0746,4.35745,0.0534182,0.954523
277,20.0883,4.36142,0.0534,0.954133
277.5,20.102,4.35808,0.0534296,0.953733
278,20.1156,4.36799,0.0534303,0.953343
278.5,20.1292,4.36476,0.0533769,0.952953
279,20.1429,4.37538,0.052258,0.952563
279.5,20.1565,4.36879,0.0521506,0.952163
280,20.1702,4.37458,0.0514219,0.951773
280.5,20.1838,4.36497,0.0507697,0.951383
281,20.1975,4.37438,0.05079,0.950983
281.5,20.2111,4.38958,0.05079,0.950593
282,20.2247,4.3826,0.05079,0.950193
282.5,20.2383,4.40057,0.05079,0.949803
283,20.252,4.39783,0.05079,0.9494032
283.5,20.2656,4.39224,0.0507902,0.949003
284,20.2793,4.39267,0.05073885,0.948613
284.5,20.2929,4.40675,0.0512998,0.9482132
285,20.3066,4.40782,0.0518246,0.9478132
285.5,20.3202,4.40576,0.05213823,0.9474132
286,20.3339,4.4143,0.05138374,0.9470132
286.5,20.3475,4.40704,0.0508091,0.9466132
287,20.3611,4.41162,0.0508,0.9462132
287.5,20.3747,4.42043,0.0508,0.9458132
288,20.3883,4.41432,0.0508,0.9454132
288.5,20.402,4.41482,0.050819,0.9450132
289,20.4156,4.41176,0.0502637,0.9446132
289.5,20.4293,4.41388,0.049095,0.9442132
290,20.4429,4.41593,0.0481785,0.943813
290.5,20.4565,4.42693,0.0481599,0.943403
291,20.4701,4.42891,0.048209,0.9430032
291.5,20.4837,4.43266,0.0470611,0.942603
292,20.4974,4.43581,0.0468504,0.942193
292.5,20.511,4.43059,0.04684,0.941793
293,20.5246,4.42863,0.04684,0.941383
293.5,20.5382,4.42352,0.0468598,0.940983
294,20.5518,4.43797,0.0461158,0.940573
294.5,20.5654,4.42513,0.0468468,0.940173
295,20.579,4.43667,0.0468198,0.939763
295.5,20.5925,4.43344,0.0468497,0.939353
296,20.6062,4.43771,0.04685,0.938953
296.5,20.6198,4.44181,0.0468488,0.938543
297,20.6334,4.44402,0.0461836,0.938133
297.5,20.647,4.44435,0.0455288,0.937723
298,20.6606,4.45636,0.04553,0.937313
298.5,20.6742,4.45152,0.04553,0.936913
299,20.6878,4.44158,0.0455484,0.936503
299.5,20.7015,4.44829,0.0446931,0.936093
300,20.715,4.45291,0.0442197,0.935683
300.5,20.7286,4.45371,0.0442194,0.935263
301,20.7423,4.45157,0.04367095,0.934853
301.5,20.7558,4.45375,0.04288,0.934443
302,20.7694,4.4523,0.0428904,0.934033
302.5,20.783,4.4522,0.0426712,0.933623
303,20.7967,4.46536,0.0415289,0.933213
303.5,20.8103,4.46171,0.0415799,0.932793
304,20.8239,4.46149,0.04158,0.932383
304.5,20.8375,4.45158,0.04158,0.931973
305,20.8511,4.46646,0.04159,0.931553
305.5,20.8648,4.46156,0.0413097,0.931143
306,20.8783,4.46664,0.0401684,0.930723
306.5,20.8919,4.46026,0.0400566,0.930313
307,20.9055,4.46058,0.03897264,0.929893
307.5,20.9191,4.46398,0.0389506,0.929483
308,20.9327,4.46266,0.0389737,0.929063
308.5,20.9463,4.46621,0.0376466,0.928643
309,20.9599,4.46822,0.0375483,0.928233
309.5,20.9735,4.46501,0.0384343,0.927813
310,20.9871,4.47557,0.0389361,0.927393
310.5,21.0007,4.47232,0.0373748,0.926974
311,21.0143,4.47887,0.0374099,0.926563
311.5,21.0279,4.47711,0.0369606,0.926143
312,21.0415,4.48409,0.0360804,0.925723
312.5,21.0552,4.48077,0.0361,0.925303
313,21.0688,4.47497,0.0361,0.924883
313.5,21.0824,4.47426,0.0361,0.924463
314,21.0961,4.48293,0.0361,0.924043
314.5,21.1097,4.48194,0.0361,0.923623
315,21.1233,4.4832,0.0360905,0.923203
315.5,21.1369,4.47976,0.0358118,0.922783
316,21.1505,4.48147,0.0347386,0.922363
316.5,21.1641,4.48212,0.0347799,0.921934
317,21.1777,4.48285,0.0347702,0.921513
317.5,21.1912,4.47992,0.0346067,0.921093
318,21.2048,4.49319,0.0335035,0.920673
318.5,21.2184,4.49619,0.03345996,0.920243
319,21.232,4.49857,0.0334598,0.919823
319.5,21.2456,4.50226,0.033218,0.919403
320,21.2592,4.49635,0.0321626,0.918973
320.5,21.2728,4.50078,0.0321492,0.918553
321,21.2864,4.50033,0.0315237,0.918123
321.5,21.2999,4.50542,0.030829,0.917703
322,21.3135,4.50888,0.03082469,0.917273
322.5,21.3271,4.49869,0.02927549,0.916853
323,21.3408,4.51267,0.0292831,0.916423
323.5,21.3544,4.50358,0.0282097,0.916003
324,21.368,4.51213,0.0278796,0.915573
324.5,21.3816,4.50797,0.02787,0.915143
325,21.3952,4.50823,0.0278236,0.914723
325.5,21.4088,4.50675,0.026727,0.914294
326,21.4223,4.50835,0.02655015,0.913863
326.5,21.4359,4.5117,0.02655,0.913443
327,21.4496,4.51197,0.0265405,0.913013
327.5,21.4632,4.51542,0.0263012,0.912583
328,21.4768,4.49918,0.0251891,0.912154
328.5,21.4905,4.51258,0.0252199,0.911723
329,21.5041,4.51319,0.0248925,0.911293
329.5,21.5177,4.49542,0.0238783,0.910863
330,21.5313,4.50305,0.02390967,0.910433
330.5,21.5449,4.4997,0.0235039,0.910003
331,21.5585,4.49852,0.0223578,0.909573
331.5,21.5721,4.48825,0.0224008,0.909143
332,21.5857,4.50032,0.0214906,0.908713
332.5,21.5993,4.48551,0.0211019,0.908284
333,21.6129,4.48927,0.02215378,0.907854
333.5,21.6266,4.4845,0.0223699,0.907423
334,21.6402,4.48159,0.0213805,0.906993
334.5,21.6538,4.48417,0.0207515,0.906553
335,21.6674,4.48154,0.0195225,0.906123
335.5,21.681,4.48751,0.0183122,0.905694
336,21.6946,4.46656,0.0183302,0.905263
336.5,21.7082,4.47185,0.0183483,0.904823
337,21.7217,4.46939,0.017453,0.904394
337.5,21.7352,4.46623,0.0170297,0.903963
338,21.7488,4.45102,0.01703885,0.903523
338.5,21.7625,4.44585,0.0159764,0.903094
339,21.7761,4.44738,0.01549993,0.902663
339.5,21.7898,4.44894,0.01548,0.902224
340,21.8036,4.42823,0.0155001,0.901793
340.5,21.8173,4.43493,0.0147516,0.901354
341,21.831,4.43128,0.0141494,0.900923
341.5,21.8447,4.42548,0.01416,0.900484
342,21.8584,4.42233,0.01416,0.900053
342.5,21.872,4.41325,0.0141705,0.899614
343,21.8856,4.41253,0.01317236,0.899173
343.5,21.8993,4.3968,0.0126613,0.898744
344,21.913,4.3964,0.0111307,0.898304
344.5,21.9266,4.39829,0.009745167,0.897863
345,21.9403,4.38374,0.009083638,0.897434
345.5,21.9539,4.37023,0.008459099,0.896994
346,21.9676,4.3721,0.008458874,0.896553
346.5,21.9812,4.3554,0.008030503,0.896123
347,21.9949,4.35497,0.006966716,0.895684
347.5,22.0085,4.34662,0.008256761,0.895244
348,22.0222,4.34007,0.007476037,0.894803
348.5,22.0359,4.32294,0.006949621,0.894363
349,22.0496,4.31095,0.006263352,0.893933
349.5,22.0633,4.30791,0.005369539,0.893494
350,22.0771,4.29478,0.005389968,0.893054
350.5,22.0908,4.29566,0.005439828,0.892614
351,22.1045,4.2858,0.00421969,0.892174
351.5,22.1182,4.27474,0.004070477,0.891734
352,22.1319,4.26851,0.003857868,0.891294
352.5,22.1456,4.25594,0.002772981,0.890854
353,22.1593,4.25145,0.002749989,0.890414
353.5,22.173,4.2352,0.00275,0.889974
354,22.1867,4.23153,0.002749995,0.889534
354.5,22.2004,4.22141,0.0027492,0.889094
355,22.2141,4.20269,0.00235034,0.888654
355.5,22.2279,4.19299,0.001430571,0.888214
356,22.2416,4.18425,0.001458605,0.887774
356.5,22.25528,4.17607,0.000486833,0.887333
357,22.269,4.1676,-7.25E-05,0.886893
357.5,22.28275,4.1496,-0.001075471,0.886443
358,22.2965,4.1375,-0.002626495,0.886004
358.5,22.3103,4.13186,-0.00326845,0.885564
359,22.324,4.12015,-0.004090429,0.885124
359.5,22.3377,4.10386,-0.004417054,0.884683
360,22.3514,4.09665,-0.005511972,0.884233
360.5,22.3652,4.09019,-0.005491115,0.883794
361,22.3789,4.07509,-0.005563733,0.883354
361.5,22.3926,4.05415,-0.005589921,0.882913
362,22.4063,4.03541,-0.005480704,0.882464
362.5,22.42,4.0306,-0.0054812,0.882024
363,22.4337,4.02285,-0.006194807,0.881583
363.5,22.4475,4.00174,-0.006891703,0.881134
364,22.4612,3.98038,-0.007359206,0.880694
364.5,22.475,3.96935,-0.00822959,0.880253
365,22.4888,3.96278,-0.008191301,0.879804
365.5,22.5027,3.9435,-0.00928338,0.879364
366,22.5164,3.94261,-0.009729871,0.878914
366.5,22.5302,3.91552,-0.0104865,0.878474
367,22.544,3.91321,-0.0113308,0.878023
367.5,22.5578,3.89037,-0.011677,0.877584
368,22.5716,3.87004,-0.0127519,0.877143
368.5,22.5854,3.86095,-0.0127304,0.876694
369,22.5992,3.84964,-0.0129817,0.876253
369.5,22.6129,3.82968,-0.0138612,0.875804
370,22.6267,3.81023,-0.0126663,0.875363
370.5,22.6405,3.79377,-0.0134632,0.874914
371,22.6543,3.77792,-0.0142233,0.874473
371.5,22.6681,3.76647,-0.0152609,0.8740236
372,22.6819,3.75658,-0.015981,0.873574
372.5,22.6957,3.74082,-0.0165685,0.873134
373,22.7095,3.72211,-0.0173398,0.872684
373.5,22.7233,3.70803,-0.0174347,0.872244
374,22.7372,3.68408,-0.0186133,0.8717936
374.5,22.751,3.68355,-0.0186993,0.871344
375,22.7648,3.66141,-0.0200292,0.870904
375.5,22.7787,3.63871,-0.02018,0.8704536
376,22.7925,3.63683,-0.0207146,0.870003
376.5,22.8064,3.60835,-0.0217125,0.869564
377,22.8202,3.5986,-0.0220591,0.8691136
377.5,22.8341,3.57947,-0.023268,0.868663
378,22.8479,3.57327,-0.0232592,0.868224
378.5,22.8617,3.56186,-0.0233613,0.8677736
379,22.8755,3.54205,-0.0246101,0.867324
379.5,22.8893,3.52549,-0.0244901,0.866884
380,22.9031,3.51832,-0.026223,0.8664336
380.5,22.917,3.50467,-0.0276559,0.8659836
381,22.9309,3.48754,-0.0291625,0.865534
381.5,22.9448,3.48177,-0.0296754,0.865094
382,22.9587,3.47162,-0.0309524,0.8646436
382.5,22.9726,3.44738,-0.0320454,0.8641936
383,22.9865,3.44828,-0.03267642,0.863744
383.5,23.0004,3.43121,-0.0342436,0.863304
384,23.0143,3.4203,-0.0342467,0.8628536
384.5,23.0281,3.42135,-0.0353223,0.8624036
385,23.042,3.40418,-0.0355298,0.8619536
385.5,23.0559,3.39211,-0.0355905,0.861504
386,23.0699,3.38522,-0.0358824,0.861064
386.5,23.0838,3.38471,-0.0357118,0.8606136
387,23.0977,3.37295,-0.0365865,0.8601636
387.5,23.1116,3.36657,-0.0373115,0.8597136
388,23.1255,3.36805,-0.0377951,0.8592636
388.5,23.1394,3.36229,-0.038821,0.8588136
389,23.1534,3.36667,-0.0399268,0.858364
389.5,23.1673,3.35588,-0.04050329,0.857924
390,23.1813,3.35671,-0.0423808,0.8574736
390.5,23.1952,3.35649,-0.0436591,0.8570236
391,23.2091,3.3507,-0.0454701,0.8565736
391.5,23.223,3.34722,-0.0461624,0.8561236
392,23.237,3.3655,-0.0474961,0.8556736
392.5,23.2509,3.3723,-0.0495094,0.8552236
393,23.2648,3.37891,-0.0508781,0.8547736
393.5,23.2787,3.38997,-0.0521018,0.854324
394,23.2927,3.40456,-0.0537052,0.853884
394.5,23.3067,3.41346,-0.0548897,0.8534336
395,23.3206,3.42423,-0.0548083,0.8529836
395.5,23.3346,3.44037,-0.0559315,0.8525336
396,23.3486,3.45519,-0.0570683,0.8520836
396.5,23.3625,3.48112,-0.0579489,0.8516336
397,23.3765,3.49078,-0.0598226,0.8511836
397.5,23.3904,3.51258,-0.0613552,0.8507336
398,23.4044,3.52518,-0.0633328,0.8502836
398.5,23.4184,3.5464,-0.0647023,0.8498336
399,23.4324,3.57844,-0.0657949,0.8493836
399.5,23.4464,3.59893,-0.0664702,0.8489336
400,23.4604,3.61693,-0.067836,0.8484836
400.5,23.4744,3.64695,-0.0687954,0.8480336
401,23.4885,3.67383,-0.0704691,0.8475836
401.5,23.5025,3.71385,-0.0729352,0.847134
402,23.5166,3.73379,-0.075026,0.846694
402.5,23.5306,3.78481,-0.0774033,0.8462436
403,23.5446,3.8221,-0.0791619,0.8457936
403.5,23.5586,3.86265,-0.0806641,0.8453436
404,23.5727,3.90197,-0.0819433,0.8448936
404.5,23.5867,3.95959,-0.0835565,0.8444436
405,23.6007,4.00164,-0.0854993,0.8439936
405.5,23.6148,4.05815,-0.0860442,0.8435436
406,23.6289,4.10024,-0.0872569,0.8430936
406.5,23.6429,4.17561,-0.088372,0.8426436
407,23.657,4.2312,-0.0898366,0.8421936
407.5,23.6711,4.30411,-0.0916761,0.8417436
408,23.6852,4.39069,-0.0936496,0.8412936
408.5,23.6994,4.4801,-0.0959935,0.8408436
409,23.7134,4.53342,-0.0977478,0.8403936
409.5,23.7275,4.60232,-0.0996913,0.8399436
410,23.7416,4.67847,-0.10169,0.8394936
410.5,23.7557,4.74422,-0.103888,0.8390436
411,23.7698,4.82297,-0.106128,0.8385936
411.5,23.784,4.90913,-0.108187,0.8381436
412,23.7981,4.99072,-0.11101,0.8376936
412.5,23.8122,5.08732,-0.113142,0.8372436
413,23.8264,5.19611,-0.115421,0.8367936
413.5,23.8405,5.30783,-0.117873,0.8363436
414,23.8545,5.40391,-0.120456,0.8358936
414.5,23.8687,5.52008,-0.123374,0.8354436
415,23.8829,5.63564,-0.125702,0.834994
415.5,23.8971,5.74066,-0.129251,0.834554
416,23.9113,5.85387,-0.133184,0.8341036
416.5,23.9256,5.99292,-0.137607,0.8336536
417,23.9398,6.124397,-0.141965,0.8332036
417.5,23.9538,6.2551,-0.145421,0.8327536
418,23.9679,6.40347,-0.148174,0.8323036
418.5,23.982,6.55433,-0.150891,0.8318536
419,23.996,6.70767,-0.15415,0.8314036
419.5,24.0102,6.86404,-0.157841,0.8309536
420,24.0244,7.03856,-0.162162,0.8305036
420.5,24.0388,7.19627,-0.166528,0.8300536
421,24.0531,7.40367,-0.170617,0.8296036
421.5,24.0675,7.63127,-0.17473,0.8291536
422,24.0818,7.84337,-0.178841,0.828704
422.5,24.0959,8.03687,-0.182814,0.828264
423,24.11,8.24326,-0.188008,0.8278136
423.5,24.1241,8.4555,-0.193181,0.8273636
424,24.1383,8.70871,-0.198232,0.8269136
424.5,24.1526,8.94292,-0.20374,0.8264636
425,24.167,9.19451,-0.209279,0.8260136
425.5,24.1814,9.46862,-0.213936,0.8255636
426,24.1958,9.74729,-0.219407,0.825114
426.5,24.21,10.0419,-0.225429,0.824674
427,24.2243,10.3405,-0.231751,0.8242236
427.5,24.2386,10.6424,-0.238466,0.8237736
428,24.2529,10.9589,-0.245362,0.8233236
428.5,24.2673,11.2898,-0.252447,0.8228736
429,24.2816,11.6036,-0.258903,0.822424
429.5,24.296,11.9651,-0.266588,0.821984
430,24.3103,12.3187,-0.274837,0.8215336
430.5,24.3246,12.7293,-0.283055,0.8210836
431,24.3389,13.1774,-0.291265,0.8206336
431.5,24.3532,13.6602,-0.298877,0.820184
432,24.3676,14.1005,-0.307921,0.819744
432.5,24.3819,14.555,-0.318383,0.8192936
433,24.3962,15.0327,-0.33011,0.8188436
433.5,24.4106,15.5148,-0.342518,0.8183936
434,24.425,16.0785,-0.354696,0.817943
434.5,24.4394,16.6329,-0.366662,0.817504
435,24.4538,17.2017,-0.378783,0.8170536
435.5,24.4682,17.7858,-0.391858,0.816604
436,24.4826,18.3909,-0.405681,0.816163
436.5,24.497,19.046,-0.420241,0.8157136
437,24.5115,19.6891,-0.435501,0.8152636
437.5,24.5259,20.3192,-0.451367,0.814814
438,24.5404,20.9457,-0.468489,0.814374
438.5,24.555,21.5647,-0.487292,0.8139236
439,24.5694,22.2156,-0.507299,0.813474
439.5,24.5839,22.8818,-0.528433,0.813034
440,24.5984,23.5448,-0.549383,0.8125836
440.5,24.613,24.2516,-0.570025,0.812133
441,24.6275,24.9973,-0.590439,0.811694
441.5,24.642,25.7889,-0.610824,0.811244
442,24.6566,26.5255,-0.632124,0.810804
442.5,24.6712,27.2782,-0.654331,0.8103536
443,24.6857,28.0033,-0.677766,0.809904
443.5,24.7003,28.763,-0.702303,0.809464
444,24.7149,29.5693,-0.728229,0.809014
444.5,24.7295,30.4236,-0.755434,0.808574
445,24.7442,31.2519,-0.783569,0.808124
445.5,24.7588,32.0688,-0.811505,0.807684
446,24.7734,32.8289,-0.840903,0.807234
446.5,24.7881,33.5807,-0.871044,0.806793
447,24.8028,34.3799,-0.901964,0.806344
447.5,24.8174,35.1768,-0.932937,0.805903
448,24.8321,35.9495,-0.964215,0.805454
448.5,24.8468,36.762,-0.997997,0.805014
449,24.8616,37.5542,-1.0343,0.804564
449.5,24.8763,38.3434,-1.06779,0.804124
450,24.891,39.1215,-1.10799,0.803674
450.5,24.9057,39.8537,-1.14717,0.803234
451,24.9204,40.5819,-1.19657,0.802783
451.5,24.9352,41.2531,-1.25603,0.802344
452,24.9499,41.9349,-1.28939,0.801904
452.5,24.9646,42.5651,-1.32676,0.801454
453,24.9794,43.1491,-1.36968,0.801014
453.5,24.9941,43.7532,-1.41496,0.800574
454,25.0089,44.269,-1.45917,0.800124
454.5,25.0238,44.7606,-1.50407,0.799684
455,25.0386,45.2107,-1.54959,0.799244
455.5,25.0533,45.5607,-1.59608,0.798793
456,25.068,45.8841,-1.64249,0.798354
456.5,25.0828,46.1832,-1.68791,0.797914
457,25.0976,46.4571,-1.73458,0.797473
457.5,25.1124,46.6803,-1.78155,0.797023
458,25.1272,46.8309,-1.82951,0.796584
458.5,25.142,46.9066,-1.87762,0.796144
459,25.1567,46.9647,-1.92571,0.795704
459.5,25.1714,46.9694,-1.97342,0.795263
460,25.1861,46.8451,-2.02078,0.794813
460.5,25.2009,46.7191,-2.06847,0.794374
461,25.2156,46.4727,-2.11665,0.793934
461.5,25.2304,46.1808,-2.16474,0.793494
462,25.2451,45.8658,-2.2122,0.793054
462.5,25.2599,45.4367,-2.2593,0.792614
463,25.2746,44.9367,-2.3052,0.792174
463.5,25.2893,44.4101,-2.35069,0.791734
464,25.3041,43.8628,-2.39555,0.791294
464.5,25.3188,43.27,-2.43934,0.790854
465,25.3334,42.6193,-2.48254,0.790414
465.5,25.3481,41.9106,-2.52464,0.789974
466,25.3627,41.1669,-2.56632,0.789534
466.5,25.3773,40.3878,-2.60697,0.789094
467,25.3919,39.5723,-2.64717,0.788654
467.5,25.4065,38.7415,-2.68664,0.788214
468,25.421,37.8683,-2.72516,0.787774
468.5,25.4356,36.9721,-2.76341,0.787334
469,25.4501,36.0183,-2.80006,0.786893
469.5,25.4647,35.0586,-2.83555,0.786453
470,25.4793,34.0756,-2.87071,0.786023
470.5,25.494,33.0771,-2.90487,0.785584
471,25.5085,32.0937,-2.93336,0.785144
471.5,25.5231,31.1144,-2.96293,0.784704
472,25.5376,30.1148,-2.99269,0.784263
472.5,25.5521,29.1355,-3.02301,0.783833
473,25.5666,28.151,-3.0516,0.783394
473.5,25.5811,27.1979,-3.07906,0.782953
474,25.5956,26.2562,-3.10535,0.782523
474.5,25.61,25.3278,-3.1305,0.782084
475,25.6244,24.4039,-3.15514,0.781643
475.5,25.6389,23.4928,-3.1793,0.781213
476,25.6533,22.6103,-3.2024,0.780774
476.5,25.6678,21.7416,-3.22478,0.780333
477,25.6823,20.8907,-3.24618,0.779904
477.5,25.6968,20.0624,-3.26689,0.779463
478,25.7113,19.2684,-3.28697,0.779033
478.5,25.7257,18.4989,-3.30594,0.778594
479,25.7401,17.7558,-3.32375,0.778163
479.5,25.7546,17.0148,-3.34084,0.777724
480,25.7691,16.3151,-3.35699,0.777293
480.5,25.7835,15.6529,-3.37298,0.776853
481,25.798,14.9943,-3.38961,0.776424
481.5,25.8125,14.3436,-3.40577,0.775983
482,25.827,13.7478,-3.42053,0.775554
482.5,25.8415,13.1718,-3.434426,0.775123
483,25.856,12.6119,-3.44777,0.774683
483.5,25.8705,12.0818,-3.46168,0.774254
484,25.885,11.5698,-3.47731,0.773823
484.5,25.8994,11.0706,-3.49184,0.773383
485,25.9139,10.6116,-3.50328,0.772953
485.5,25.9284,10.1451,-3.50849,0.772524
486,25.943,9.71363,-3.51195,0.772093
486.5,25.9576,9.29651,-3.51888,0.771663
487,25.9722,8.88701,-3.52839,0.771223
487.5,25.9867,8.51161,-3.54087,0.770793
488,26.0013,8.14123,-3.55262,0.770364
488.5,26.0159,7.80731,-3.56276,0.769934
489,26.0305,7.4703,-3.57182,0.769503
489.5,26.0451,7.1522,-3.58123,0.769073
490,26.0598,6.84439,-3.58937,0.768643
490.5,26.0744,6.54781,-3.597,0.768213
491,26.089,6.25716,-3.6041,0.767783
491.5,26.1036,5.98914,-3.61013,0.767353
492,26.1182,5.72407,-3.61718,0.766923
492.5,26.1328,5.45877,-3.62401,0.766493
493,26.1475,5.21334,-3.63076,0.766064
493.5,26.1622,4.97485,-3.63733,0.765634
494,26.1768,4.74028,-3.64492,0.765203
494.5,26.1915,4.50982,-3.65059,0.764773
495,26.2062,4.2878,-3.6562,0.764353
495.5,26.2208,4.08319,-3.66151,0.763923
496,26.2356,3.8585,-3.66682,0.763493
496.5,26.2503,3.66116,-3.67189,0.763063
497,26.2651,3.46483,-3.67672,0.762633
497.5,26.2799,3.27061,-3.68145,0.762213
498,26.2946,3.07213,-3.68479,0.761783
498.5,26.3094,2.87675,-3.68898,0.761353
499,26.3241,2.70682,-3.69308,0.760933
499.5,26.3389,2.5281,-3.6968,0.760503
500,26.3536,2.34376,-3.7002,0.760083
500.5,26.3685,2.18352,-3.70391,0.759653
501,26.3833,2.02499,-3.70695,0.759223
501.5,26.398,1.86015,-3.70954,0.758803
502,26.4128,1.70199,-3.71246,0.758373
502.5,26.4276,1.55126,-3.71552,0.757953
503,26.4424,1.41774,-3.71903,0.757533
503.5,26.4572,1.2565,-3.72142,0.757103
504,26.472,1.11855,-3.72416,0.756683
504.5,26.4869,0.983071,-3.72596,0.756253
505,26.5017,0.850913,-3.72796,0.755833
505.5,26.5166,0.731811,-3.72973,0.755413
506,26.5315,0.603532,-3.73115,0.754984
506.5,26.5463,0.49556,-3.73283,0.754563
507,26.5611,0.389674,-3.73381,0.754143
507.5,26.5759,0.284323,-3.73472,0.753723
508,26.5908,0.189599,-3.73642,0.753303
508.5,26.6056,0.09768201,-3.73762,0.752874
509,26.6205,0.001729948,-3.73831,0.752453
509.5,26.6354,-0.0803147,-3.73973,0.752033
510,26.6503,-0.154416,-3.73996,0.751613
510.5,26.6652,-0.222332,-3.74018,0.751193
511,26.6801,-0.294071,-3.7414,0.750773
511.5,26.695,-0.355618,-3.74138,0.750353
512,26.7099,-0.405661,-3.74203,0.749933
512.5,26.7247,-0.469958,-3.74272,0.749513
513,26.7396,-0.524136,-3.7433,0.749093
513.5,26.7545,-0.576134,-3.74423,0.748673
514,26.7695,-0.620978,-3.74432,0.748253
514.5,26.7843,-0.645152,-3.74549,0.747834
515,26.7992,-0.682162,-3.74554,0.747423
515.5,26.8141,-0.713572,-3.74619,0.747003
516,26.829,-0.741145,-3.74708,0.746583
516.5,26.8439,-0.770952,-3.74822,0.746163
517,26.8589,-0.794287,-3.74827,0.745753
517.5,26.8738,-0.816683,-3.747,0.745333
518,26.8887,-0.837841,-3.74686,0.744913
518.5,26.9037,-0.879181,-3.74656,0.744503
519,26.9187,-0.876131,-3.74553,0.744083
519.5,26.9337,-0.903912,-3.74554,0.743663
520,26.9486,-0.905839,-3.74558,0.743253
520.5,26.9636,-0.918801,-3.74602,0.742833
521,26.9786,-0.931624,-3.74827,0.742423
521.5,26.9935,-0.936762,-3.75409,0.742003
522,27.0085,-0.952399,-3.75647,0.741593
522.5,27.0235,-0.979993,-3.75592,0.741183
523,27.0385,-0.99516,-3.75078,0.740763
523.5,27.0535,-1.00626,-3.74233,0.740353
524,27.0685,-1.01101,-3.73663,0.739943
524.5,27.0835,-1.0197,-3.73691,0.739523
525,27.0985,-1.02612,-3.74165,0.739113
525.5,27.1135,-1.02845,-3.74468,0.738703
526,27.1286,-1.03466,-3.7465,0.738293
526.5,27.1436,-1.05489,-3.74789,0.737873
527,27.1586,-1.04726,-3.74774,0.737463
527.5,27.1737,-1.05204,-3.74775,0.737053
528,27.1887,-1.05166,-3.74721,0.736643
528.5,27.2038,-1.06864,-3.74598,0.736233
529,27.2187,-1.08461,-3.74544,0.735823
529.5,27.2338,-1.09415,-3.74544,0.735413
530,27.2488,-1.09012,-3.74545,0.735003
530.5,27.2639,-1.09489,-3.74545,0.734593
531,27.279,-1.10264,-3.74545,0.734183
531.5,27.2942,-1.10766,-3.74545,0.733773
532,27.3092,-1.10689,-3.74566,0.733363
532.5,27.3241,-1.11851,-3.74642,0.732963
533,27.3392,-1.12126,-3.74678,0.732553
533.5,27.3543,-1.14202,-3.74676,0.732143
534,27.3695,-1.16583,-3.74482,0.731733
534.5,27.3846,-1.17832,-3.74128,0.731333
535,27.3999,-1.18734,-3.74073,0.730923
535.5,27.4149,-1.19886,-3.7426,0.730513
536,27.43,-1.21346,-3.7481,0.730113
536.5,27.4451,-1.22714,-3.75369,0.729703
537,27.4602,-1.25048,-3.75423,0.729303
537.5,27.4753,-1.26091,-3.75285,0.728893
538,27.4904,-1.26725,-3.75098,0.728493
538.5,27.5056,-1.29367,-3.74981,0.728083
539,27.5207,-1.29224,-3.74914,0.727683
539.5,27.5359,-1.30571,-3.74916,0.727273
540,27.5511,-1.29988,-3.74917,0.7268732
540.5,27.5662,-1.32774,-3.74917,0.726473
541,27.5813,-1.3222,-3.74906,0.726063
541.5,27.5964,-1.33575,-3.74854,0.7256632
542,27.6116,-1.33572,-3.74854,0.7252632
542.5,27.6267,-1.33754,-3.7485,0.724863
543,27.6419,-1.33717,-3.74976,0.724453
543.5,27.6571,-1.35409,-3.74984,0.7240532
544,27.6723,-1.3495,-3.74989,0.7236532
544.5,27.6873,-1.35561,-3.74914,0.7232532
545,27.7024,-1.36231,-3.74836,0.7228532
545.5,27.7175,-1.34795,-3.74841,0.7224532
546,27.7327,-1.37788,-3.74841,0.7220532
546.5,27.7479,-1.37542,-3.74843,0.7216532
547,27.7633,-1.40092,-3.74735,0.7212532
547.5,27.7787,-1.39682,-3.74709,0.7208532
548,27.794,-1.39822,-3.74709,0.720453
548.5,27.8092,-1.40055,-3.74709,0.720063
549,27.8245,-1.41377,-3.74709,0.7196632
549.5,27.8397,-1.4255,-3.74709,0.7192632
550,27.8548,-1.43074,-3.74709,0.718863
550.5,27.8701,-1.43357,-3.74709,0.718473
551,27.8854,-1.43887,-3.74708,0.7180732
551.5,27.9007,-1.43501,-3.7469,0.717673
552,27.9159,-1.44734,-3.74582,0.717283
552.5,27.9312,-1.45346,-3.74619,0.716883
553,27.9465,-1.47694,-3.7471,0.716493
553.5,27.9617,-1.46513,-3.7471,0.716093
554,27.977,-1.45728,-3.7471,0.715703
554.5,27.9922,-1.48324,-3.7471,0.715303
555,28.0075,-1.47616,-3.7471,0.714913
555.5,28.0228,-1.49354,-3.7471,0.714523
556,28.0381,-1.47293,-3.7471,0.714123
556.5,28.0534,-1.48883,-3.74709,0.713733
557,28.0687,-1.49024,-3.74701,0.713343
557.5,28.0841,-1.49163,-3.74588,0.712953
558,28.0994,-1.50436,-3.74579,0.712553
558.5,28.1146,-1.50296,-3.74578,0.712163
559,28.1299,-1.52268,-3.74578,0.711773
559.5,28.1452,-1.50738,-3.74578,0.711383
560,28.1605,-1.52223,-3.74579,0.710993
560.5,28.1758,-1.51714,-3.74576,0.710603
561,28.1911,-1.51125,-3.74682,0.710213
561.5,28.2064,-1.51685,-3.7471,0.709823
562,28.2216,-1.52842,-3.74605,0.709433
562.5,28.237,-1.52511,-3.74611,0.709043
563,28.2523,-1.52257,-3.74611,0.708653
563.5,28.2676,-1.50279,-3.74611,0.708263
564,28.283,-1.5238,-3.74611,0.707883
564.5,28.2983,-1.54135,-3.74606,0.707493
565,28.3137,-1.54144,-3.74744,0.707103
565.5,28.329,-1.55199,-3.74742,0.706723
566,28.3445,-1.54642,-3.74741,0.706333
566.5,28.3599,-1.56695,-3.74679,0.705943
567,28.3752,-1.56548,-3.74612,0.705563
567.5,28.3906,-1.58528,-3.74611,0.705173
568,28.406,-1.58722,-3.74611,0.704793
568.5,28.4213,-1.59425,-3.74523,0.704403
569,28.4367,-1.60519,-3.7448,0.704023
569.5,28.4521,-1.61026,-3.74479,0.703633
570,28.4675,-1.61839,-3.74479,0.703253
570.5,28.4829,-1.61472,-3.74483,0.702873
571,28.4983,-1.63246,-3.7469,0.702483
571.5,28.5136,-1.64074,-3.74745,0.702103
572,28.5289,-1.63743,-3.74742,0.701723
572.5,28.5443,-1.64439,-3.74742,0.701343
573,28.5597,-1.625,-3.74742,0.700963
573.5,28.575,-1.63567,-3.74742,0.700573
574,28.5906,-1.65067,-3.74742,0.700193
574.5,28.6061,-1.64763,-3.74742,0.699813
575,28.6215,-1.6429,-3.74741,0.699433
575.5,28.637,-1.65218,-3.7474,0.699053
576,28.6524,-1.64989,-3.74706,0.698673
576.5,28.6678,-1.65427,-3.74709,0.698293
577,28.6832,-1.64872,-3.74709,0.697923
577.5,28.6987,-1.65812,-3.7471,0.697543
578,28.7141,-1.66212,-3.74684,0.697163
578.5,28.7295,-1.66568,-3.74641,0.696783
579,28.7449,-1.674,-3.74643,0.696403
579.5,28.7604,-1.68135,-3.74628,0.696033
580,28.7759,-1.68752,-3.7461,0.695653
580.5,28.7914,-1.68688,-3.7461,0.695283
581,28.8069,-1.67874,-3.7461,0.694903
581.5,28.8224,-1.67791,-3.7461,0.694523
582,28.8378,-1.69307,-3.7461,0.694153
582.5,28.8533,-1.69206,-3.7461,0.693773
583,28.8687,-1.68439,-3.7461,0.693403
583.5,28.8842,-1.69076,-3.7461,0.693033
584,28.8996,-1.69427,-3.7461,0.692653
584.5,28.9151,-1.69467,-3.74585,0.692283
585,28.9306,-1.70648,-3.74468,0.691913
585.5,28.9462,-1.7138,-3.74478,0.691533
586,28.9617,-1.72163,-3.74478,0.691163
586.5,28.9772,-1.71067,-3.74478,0.690793
587,28.9927,-1.70395,-3.74477,0.690423
587.5,29.0082,-1.71787,-3.74402,0.690053
588,29.0237,-1.72143,-3.74492,0.689683
588.5,29.0391,-1.72744,-3.7451,0.689313
589,29.0547,-1.7295,-3.74512,0.688943
589.5,29.0702,-1.72568,-3.74512,0.688573
590,29.0857,-1.72936,-3.74512,0.688203
590.5,29.1013,-1.7243,-3.74511,0.687833
591,29.1169,-1.72904,-3.7458,0.687463
591.5,29.1324,-1.73517,-3.74643,0.687093
592,29.1479,-1.74044,-3.74643,0.686733
592.5,29.1634,-1.73436,-3.74643,0.686363
593,29.179,-1.73011,-3.74643,0.685993
593.5,29.1945,-1.74369,-3.74643,0.685623
594,29.2101,-1.72767,-3.74643,0.685263
594.5,29.2256,-1.74511,-3.74642,0.684893
595,29.2412,-1.73492,-3.74564,0.684533
595.5,29.2567,-1.74324,-3.74513,0.684163
596,29.2723,-1.73906,-3.74512,0.683803
596.5,29.2878,-1.74029,-3.74512,0.683433
597,29.3034,-1.748,-3.74512,0.683073
597.5,29.319,-1.7515,-3.74512,0.682713
598,29.3346,-1.75293,-3.74512,0.682343
598.5,29.3502,-1.75111,-3.74523,0.681983
599,29.3657,-1.74607,-3.74641,0.681623
599.5,29.3813,-1.75062,-3.74642,0.681253
600,29.3968,-1.75759,-3.7464,0.680893
600.5,29.4125,-1.75775,-3.7453,0.680533
601,29.4282,-1.75856,-3.74401,0.680173
601.5,29.4438,-1.76127,-3.7437,0.679813
602,29.4594,-1.75182,-3.74369,0.679453
602.5,29.475,-1.75375,-3.74369,0.679093
603,29.4906,-1.76164,-3.74371,0.678733
603.5,29.5062,-1.76106,-3.74369,0.678373
604,29.5218,-1.7575,-3.74496,0.678013
604.5,29.5374,-1.75875,-3.74501,0.677663
605,29.553,-1.75896,-3.74501,0.677303
605.5,29.5688,-1.75573,-3.74515,0.676943
606,29.5844,-1.75831,-3.74636,0.676583
606.5,29.6,-1.76198,-3.74562,0.676233
607,29.6157,-1.75758,-3.74498,0.675873
607.5,29.6313,-1.75448,-3.74499,0.675513
608,29.6469,-1.74854,-3.745,0.675163
608.5,29.6626,-1.74236,-3.74442,0.674803
609,29.6783,-1.73794,-3.74368,0.674453
609.5,29.6939,-1.73718,-3.74369,0.674093
610,29.7097,-1.74699,-3.74364,0.6737428
610.5,29.7253,-1.74992,-3.74491,0.673393
611,29.7411,-1.7433,-3.74491,0.673033
611.5,29.7567,-1.7436,-3.74599,0.6726828
612,29.7724,-1.73658,-3.74616,0.6723328
612.5,29.7881,-1.73795,-3.74633,0.671983
613,29.8037,-1.74536,-3.74523,0.671623
613.5,29.8193,-1.75272,-3.74501,0.6712728
614,29.835,-1.75801,-3.74501,0.6709228
614.5,29.8506,-1.75366,-3.74501,0.6705728
615,29.8663,-1.75985,-3.74501,0.6702228
615.5,29.882,-1.75863,-3.74501,0.6698728
616,29.8976,-1.76441,-3.74517,0.6695228
616.5,29.9134,-1.76179,-3.74633,0.669173
617,29.9291,-1.77433,-3.74644,0.668833
617.5,29.9448,-1.7677,-3.74774,0.6684828
618,29.9606,-1.76435,-3.75073,0.6681328
618.5,29.9763,-1.75353,-3.75492,0.6677828
619,29.992,-1.76219,-3.75782,0.667433
619.5,,,,
620,,,,
620.5,,,,
621,,,,
621.5,,,,
622,,,,
622.5,,,,
623,,,,
623.5,,,,
624,,,,
624.5,,,,
625,,,,
625.5,,,,
626,,,,
626.5,,,,
627,,,,
627.5,,,,
628,,,,
628.5,,,,
629,,,,
629.5,,,,
630,,,,
630.5,,,,
631,,,,
631.5,,,,
632,,,,
632.5,,,,
633,,,,
633.5,,,,
634,,,,
634.5,,,,
635,,,,
635.5,,,,
636,,,,
636.5,,,,
637,,,,
637.5,,,,
638,,,,
638.5,,,,
639,,,,
639.5,,,,
640,,,,
640.5,,,,
641,,,,
641.5,,,,
642,,,,
642.5,,,,
643,,,,
643.5,,,,
644,,,,
644.5,,,,
645,,,,
645.5,,,,
646,,,,
646.5,,,,
647,,,,
647.5,,,,
648,,,,
648.5,,,,
649,,,,
649.5,,,,
650,,,,
650.5,,,,
651,,,,
651.5,,,,
652,,,,
652.5,,,,
653,,,,
653.5,,,,
654,,,,
654.5,,,,
655,,,,
655.5,,,,
656,,,,
656.5,,,,
657,,,,
657.5,,,,
658,,,,
658.5,,,,
659,,,,
659.5,,,,
660,,,,
660.5,,,,
661,,,,
661.5,,,,
662,,,,
662.5,,,,
663,,,,
663.5,,,,
664,,,,
664.5,,,,
665,,,,
665.5,,,,
666,,,,
666.5,,,,
667,,,,
667.5,,,,
668,,,,
668.5,,,,
669,,,,
669.5,,,,
670,,,,
670.5,,,,
671,,,,
671.5,,,,
672,,,,
672.5,,,,
673,,,,
673.5,,,,
674,,,,
674.5,,,,
675,,,,
675.5,,,,
676,,,,
676.5,,,,
677,,,,
677.5,,,,
678,,,,
678.5,,,,
679,,,,
679.5,,,,
680,,,,
680.5,,,,
681,,,,
681.5,,,,
682,,,,
682.5,,,,
683,,,,
683.5,,,,
684,,,,
684.5,,,,
685,,,,
685.5,,,,
686,,,,
686.5,,,,
687,,,,
687.5,,,,
688,,,,
688.5,,,,
689,,,,
689.5,,,,
690,,,,
690.5,,,,
691,,,,
691.5,,,,
692,,,,
692.5,,,,
693,,,,
693.5,,,,
694,,,,
694.5,,,,
695,,,,
695.5,,,,
696,,,,
696.5,,,,
697,,,,
697.5,,,,
698,,,,
698.5,,,,
699,,,,
699.5,,,,
700,,,,
700.5,,,,
701,,,,
701.5,,,,
702,,,,
702.5,,,,
703,,,,
703.5,,,,
704,,,,
704.5,,,,
705,,,,
705.5,,,,
706,,,,
706.5,,,,
707,,,,
707.5,,,,
708,,,,
708.5,,,,
709,,,,
709.5,,,,
710,,,,
710.5,,,,
711,,,,
711.5,,,,
712,,,,
712.5,,,,
713,,,,
713.5,,,,
714,,,,
714.5,,,,
715,,,,
715.5,,,,
716,,,,
716.5,,,,
717,,,,
717.5,,,,
718,,,,
718.5,,,,
719,,,,
719.5,,,,
720,,,,
720.5,,,,
721,,,,
721.5,,,,
722,,,,
722.5,,,,
723,,,,
723.5,,,,
724,,,,
724.5,,,,
725,,,,
725.5,,,,
726,,,,
726.5,,,,
727,,,,
727.5,,,,
728,,,,
728.5,,,,
729,,,,
729.5,,,,
730,,,,
730.5,,,,
731,,,,
731.5,,,,
732,,,,
732.5,,,,
733,,,,
733.5,,,,
734,,,,
734.5,,,,
735,,,,
735.5,,,,
736,,,,
736.5,,,,
737,,,,
737.5,,,,
738,,,,
738.5,,,,
739,,,,
739.5,,,,
740,,,,
740.5,,,,
741,,,,
741.5,,,,
742,,,,
742.5,,,,
743,,,,
743.5,,,,
744,,,,
744.5,,,,
745,,,,
745.5,,,,
746,,,,
746.5,,,,
747,,,,
747.5,,,,
748,,,,
748.5,,,,
749,,,,
749.5,,,,
750,,,,