File: 01_Data/PlasticC/STA/N2/30K_min/PlasticC_STA_N2_30KData_211028_R3.csv
Temp/C,Time/min,DSC/mW,Mass loss/mg,Sensit./(uV/mW)
50,10.9429,0.0682081,-0.0173493,1.05402
50.5,11.1654,0.140884,-0.0159001,1.05403
51,11.3137,0.186791,-0.017601,1.05404
51.5,11.429,0.230916,-0.0157034,1.05405
52,11.5255,0.289172,-0.0171095,1.05405
52.5,11.6099,0.329369,-0.0167245,1.05406
53,11.6845,0.360442,-0.0159542,1.05406
53.5,11.7535,0.406435,-0.0178636,1.05406
54,11.817,0.44237,-0.0171691,1.05406
54.5,11.8762,0.469583,-0.0185369,1.05406
55,11.9323,0.500519,-0.0176532,1.05406
55.5,11.9846,0.529346,-0.01753559,1.05406
56,12.035,0.56864,-0.0179885,1.05405
56.5,12.0838,0.593298,-0.0166799,1.05405
57,12.1312,0.619347,-0.0155216,1.05404
57.5,12.1756,0.634036,-0.015939,1.054029
58,12.2196,0.665752,-0.0172763,1.05403
58.5,12.2626,0.687109,-0.0164596,1.05401
59,12.3041,0.710838,-0.0162504,1.054
59.5,12.3443,0.724657,-0.0156208,1.05399
60,12.3836,0.753234,-0.0156059,1.05398
60.5,12.4223,0.778949,-0.017753,1.05396
61,12.46,0.78475,-0.0177461,1.053945
61.5,12.4972,0.801871,-0.0194131,1.05393
62,12.534,0.827705,-0.0194187,1.05391
62.5,12.5696,0.843767,-0.0172547,1.05389
63,12.6037,0.859344,-0.0156419,1.05387
63.5,12.638,0.875494,-0.0151945,1.05385
64,12.6732,0.899028,-0.0159968,1.05382
64.5,12.7082,0.904804,-0.0192052,1.0538
65,12.7423,0.934309,-0.02692458,1.05377
65.5,12.7755,0.94749,-0.0130901,1.05375
66,12.8082,0.958149,-0.0118915,1.05371
66.5,12.8407,0.97471,-0.0175269,1.05368
67,12.8728,0.989688,-0.0188963,1.05365
67.5,12.9045,1.01446,-0.0191656,1.05363
68,12.9359,1.02766,-0.01829222,1.0536
68.5,12.967,1.04012,-0.0165833,1.05355
69,12.9979,1.04832,-0.0161731,1.05353
69.5,13.0286,1.06672,-0.0164301,1.053485
70,13.059,1.08466,-0.0173308,1.05344
70.5,13.0891,1.09418,-0.0167023,1.0534
71,13.1188,1.10484,-0.0166432,1.05336
71.5,13.1485,1.11621,-0.0166417,1.05333
72,13.1781,1.12603,-0.01586081,1.05329
72.5,13.2075,1.14367,-0.0159334,1.05325
73,13.2366,1.15598,-0.01589824,1.05319
73.5,13.2656,1.16827,-0.0163941,1.05315
74,13.2943,1.18028,-0.0166287,1.05311
74.5,13.3226,1.19116,-0.0164988,1.053055
75,13.351,1.20605,-0.0158451,1.053005
75.5,13.3792,1.21248,-0.0174139,1.052955
76,13.4073,1.22261,-0.0174291,1.05291
76.5,13.435,1.23478,-0.0170438,1.05285
77,13.4625,1.24377,-0.0169618,1.05279
77.5,13.4897,1.25218,-0.0173895,1.05273
78,13.5169,1.2654,-0.0166785,1.05268
78.5,13.5439,1.28007,-0.0167538,1.052625
79,13.5704,1.28891,-0.0171774,1.05257
79.5,13.5968,1.30183,-0.0171164,1.052505
80,13.6234,1.31683,-0.0159893,1.05244
80.5,13.6505,1.32485,-0.0169982,1.05239
81,13.6767,1.34235,-0.0172343,1.05231
81.5,13.7026,1.35855,-0.0174151,1.05226
82,13.7284,1.36803,-0.0167555,1.05218
82.5,13.7542,1.38275,-0.0158965,1.05212
83,13.7798,1.38733,-0.0160664,1.05205
83.5,13.8051,1.3928,-0.016116,1.05199
84,13.8298,1.39555,-0.017248,1.05191
84.5,13.8546,1.38854,-0.0173977,1.05184
85,13.8796,1.37409,-0.0157671,1.05176
85.5,13.9049,1.37274,-0.0157133,1.0517
86,13.9299,1.3667,-0.0160579,1.05162
86.5,13.9544,1.35322,-0.0163234,1.05154
87,13.9789,1.35274,-0.0171471,1.05146
87.5,14.0031,1.34521,-0.0169452,1.05139
88,14.0272,1.34274,-0.0165172,1.05131
88.5,14.051,1.34227,-0.0179681,1.051225
89,14.0746,1.34754,-0.0180218,1.05114
89.5,14.0982,1.34652,-0.0176286,1.05106
90,14.1218,1.34796,-0.0172307,1.05097
90.5,14.1454,1.35082,-0.0178619,1.05089
91,14.1686,1.36751,-0.0177473,1.05081
91.5,14.1918,1.37584,-0.017814,1.05072
92,14.2147,1.38675,-0.0176778,1.05063
92.5,14.2377,1.39826,-0.01626724,1.05054
93,14.2605,1.40873,-0.0161534,1.05045
93.5,14.2832,1.42146,-0.017169,1.05035
94,14.3058,1.43299,-0.0154437,1.05026
94.5,14.328,1.44019,-0.0157609,1.05017
95,14.3503,1.46449,-0.0159379,1.05007
95.5,14.3725,1.47348,-0.0165553,1.04997
96,14.3948,1.49091,-0.0171808,1.04988
96.5,14.4168,1.51386,-0.0174958,1.04978
97,14.4387,1.53402,-0.0174702,1.04968
97.5,14.4605,1.55344,-0.0169857,1.04958
98,14.4822,1.57674,-0.0159251,1.04947
98.5,14.5037,1.59785,-0.0161247,1.04937
99,14.5252,1.61469,-0.0160323,1.04927
99.5,14.5465,1.63766,-0.0165256,1.04916
100,14.568,1.66696,-0.0170706,1.04905
100.5,14.5892,1.68845,-0.0169153,1.04895
101,14.6104,1.71202,-0.0158028,1.04884
101.5,14.6315,1.74589,-0.0167652,1.04873
102,14.6524,1.76991,-0.015713,1.04862
102.5,14.6732,1.78755,-0.0161364,1.048505
103,14.6939,1.81321,-0.0159642,1.04839
103.5,14.7147,1.82875,-0.0155677,1.04828
104,14.7353,1.85807,-0.01690732,1.04816
104.5,14.7559,1.87979,-0.0155075,1.048045
105,14.7765,1.90386,-0.0158125,1.04793
105.5,14.7969,1.91644,-0.0157732,1.04781
106,14.8173,1.93306,-0.0155652,1.04769
106.5,14.8376,1.93914,-0.0168831,1.04757
107,14.8579,1.96043,-0.0171406,1.047445
107.5,14.8781,1.97621,-0.0173559,1.04732
108,14.8983,1.98489,-0.0185059,1.0472
108.5,14.9183,1.9946,-0.0173806,1.04708
109,14.9383,2.00618,-0.0181426,1.04694
109.5,14.9581,2.0291,-0.0170794,1.04682
110,14.9778,2.03665,-0.0155754,1.04669
110.5,14.9975,2.05149,-0.0147573,1.04656
111,15.0173,2.06256,-0.0151497,1.04643
111.5,15.037,2.07959,-0.0151992,1.0463
112,15.0565,2.09165,-0.0151991,1.04616
112.5,15.0761,2.09392,-0.0154223,1.04604
113,15.0956,2.11145,-0.0165105,1.04589
113.5,15.115,2.12799,-0.0153723,1.04576
114,15.1343,2.14331,-0.01655059,1.04562
114.5,15.1536,2.14901,-0.0152412,1.045485
115,15.1727,2.15326,-0.01648323,1.04535
115.5,15.1918,2.15895,-0.01644552,1.04521
116,15.211,2.16534,-0.016081,1.045065
116.5,15.23,2.18172,-0.0143203,1.04492
117,15.249,2.18474,-0.0101071,1.04477
117.5,15.2681,2.18623,-0.00969062,1.04463
118,15.2871,2.1884,-0.0155303,1.04448
118.5,15.3059,2.20075,-0.0199441,1.04434
119,15.3247,2.20572,-0.0199535,1.044195
119.5,15.3434,2.21614,-0.0176564,1.044045
120,15.362,2.21952,-0.0170002,1.043895
120.5,15.3806,2.23991,-0.0165398,1.043745
121,15.3992,2.23327,-0.0153494,1.04359
121.5,15.4178,2.24008,-0.0163466,1.04345
122,15.4363,2.24741,-0.0148858,1.04329
122.5,15.4548,2.25405,-0.015558,1.04313
123,15.4731,2.2626,-0.0161829,1.04297
123.5,15.4914,2.27767,-0.01640445,1.042814
124,15.5097,2.27549,-0.016314,1.04266
124.5,15.5279,2.28889,-0.017563,1.04251
125,15.5461,2.29213,-0.0164075,1.04235
125.5,15.5643,2.30707,-0.017315,1.04218
126,15.5824,2.3027,-0.0176922,1.04201
126.5,15.6004,2.31877,-0.0164425,1.04186
127,15.6184,2.32073,-0.0164503,1.04169
127.5,15.6364,2.32535,-0.0164502,1.04152
128,15.6543,2.33963,-0.01707078,1.04136
128.5,15.6721,2.33945,-0.0174701,1.0412
129,15.6899,2.34825,-0.0172926,1.04103
129.5,15.7076,2.35541,-0.0177767,1.04085
130,15.7253,2.36506,-0.016334,1.04069
130.5,15.743,2.38012,-0.0142366,1.04052
131,15.7606,2.38506,-0.0109151,1.04034
131.5,15.7784,2.3921,-0.008331694,1.04016
132,15.796,2.39274,-0.0116546,1.04
132.5,15.8135,2.39274,-0.0171095,1.03982
133,15.831,2.4019,-0.0212395,1.03964
133.5,15.8484,2.40456,-0.0208342,1.03946
134,15.8658,2.41151,-0.0194174,1.039285
134.5,15.8832,2.42747,-0.0177993,1.03911
135,15.9007,2.42657,-0.01737712,1.038925
135.5,15.9179,2.43213,-0.0170123,1.03874
136,15.9352,2.44602,-0.0160684,1.03856
136.5,15.9524,2.45038,-0.0171251,1.03838
137,15.9696,2.45649,-0.017429,1.03819
137.5,15.9868,2.46038,-0.017441,1.03801
138,16.0039,2.46673,-0.0174839,1.03782
138.5,16.021,2.47646,-0.0167115,1.03763
139,16.038,2.48191,-0.016796,1.03745
139.5,16.055,2.48253,-0.0169543,1.03726
140,16.072,2.49099,-0.0161099,1.03707
140.5,16.0889,2.50169,-0.0160953,1.03687
141,16.1059,2.49636,-0.0148871,1.03668
141.5,16.1228,2.51252,-0.0159042,1.03649
142,16.1397,2.5128,-0.0158171,1.036295
142.5,16.1565,2.51637,-0.0157392,1.0361
143,16.1733,2.52698,-0.0158917,1.0359
143.5,16.1901,2.52986,-0.01584219,1.03571
144,16.2068,2.53808,-0.0168789,1.03551
144.5,16.2235,2.54294,-0.0172066,1.03531
145,16.2401,2.53832,-0.0172101,1.03511
145.5,16.2567,2.54607,-0.01721,1.03491
146,16.2733,2.56804,-0.0172117,1.03471
146.5,16.2899,2.56638,-0.0170655,1.0345
147,16.3064,2.56991,-0.0168518,1.0343
147.5,16.3228,2.57679,-0.0172246,1.034095
148,16.3393,2.58183,-0.0172455,1.03389
148.5,16.3558,2.58769,-0.01569449,1.03368
149,16.3722,2.59204,-0.0164018,1.03348
149.5,16.3886,2.5974,-0.01714404,1.03326
150,16.4051,2.60085,-0.017102,1.03306
150.5,16.4214,2.61694,-0.0162323,1.03285
151,16.4378,2.62253,-0.0168417,1.03263
151.5,16.4541,2.63264,-0.01710654,1.03242
152,16.4704,2.62944,-0.0171101,1.03221
152.5,16.4866,2.6358,-0.0171098,1.032
153,16.5029,2.64257,-0.0171527,1.03178
153.5,16.5192,2.6486,-0.0158398,1.03156
154,16.5354,2.64888,-0.0157893,1.031345
154.5,16.5515,2.6604,-0.0157901,1.03113
155,16.5677,2.67005,-0.0158177,1.03091
155.5,16.5838,2.67049,-0.0148992,1.03069
156,16.5998,2.67556,-0.016043,1.03047
156.5,16.6159,2.6843,-0.0162087,1.03025
157,16.632,2.69451,-0.0162219,1.03002
157.5,16.648,2.69586,-0.0170063,1.0298
158,16.664,2.70155,-0.0172072,1.029575
158.5,16.6801,2.69908,-0.0172183,1.02935
159,16.6958,2.71368,-0.0172041,1.02913
159.5,16.7117,2.72857,-0.0167622,1.02889
160,16.7275,2.72504,-0.0159055,1.02866
160.5,16.7435,2.72832,-0.0159,1.02844
161,16.7594,2.7345,-0.0158999,1.02821
161.5,16.7754,2.73243,-0.0159151,1.02797
162,16.7913,2.74171,-0.0170748,1.02774
162.5,16.8072,2.74933,-0.0171894,1.02752
163,16.8229,2.75602,-0.0172078,1.02728
163.5,16.8387,2.75714,-0.0167356,1.027045
164,16.8545,2.76379,-0.0159775,1.02681
164.5,16.8702,2.77293,-0.0171804,1.02658
165,16.886,2.76865,-0.01721022,1.026335
165.5,16.9018,2.78125,-0.0172102,1.02609
166,16.9176,2.78089,-0.0172859,1.02585
166.5,16.9332,2.78118,-0.015891,1.02561
167,16.9489,2.79826,-0.01715606,1.02537
167.5,16.9646,2.79688,-0.0172103,1.02513
168,16.9802,2.79902,-0.01721,1.02489
168.5,16.9958,2.80506,-0.0172114,1.02465
169,17.0115,2.81135,-0.0171648,1.024405
169.5,17.027,2.81263,-0.0181325,1.02416
170,17.0425,2.81594,-0.0183673,1.02392
170.5,17.0581,2.8314,-0.0171939,1.023665
171,17.0735,2.8309,-0.0172199,1.02341
171.5,17.0891,2.83252,-0.01722,1.02317
172,17.1045,2.83705,-0.01721999,1.02293
172.5,17.1199,2.83818,-0.0172107,1.02267
173,17.1354,2.84619,-0.0176879,1.02241
173.5,17.1508,2.84449,-0.0186035,1.022165
174,17.1662,2.8531,-0.0175907,1.02192
174.5,17.1816,2.85997,-0.0172119,1.02166
175,17.197,2.86308,-0.01721,1.0214
175.5,17.2123,2.86602,-0.01721,1.02114
176,17.2277,2.87025,-0.01721,1.02089
176.5,17.2429,2.87466,-0.0172096,1.020635
177,17.2582,2.87263,-0.0171646,1.02038
177.5,17.2734,2.88394,-0.0178074,1.02011
178,17.2886,2.88748,-0.0185906,1.01985
178.5,17.3039,2.88637,-0.01781236,1.01959
179,17.3191,2.89159,-0.01721562,1.019335
179.5,17.3342,2.89039,-0.01722,1.01908
180,17.3494,2.90824,-0.01722,1.01881
180.5,17.3645,2.90731,-0.01722,1.01854
181,17.3797,2.90947,-0.0172303,1.01828
181.5,17.3948,2.90604,-0.0172396,1.018015
182,17.4099,2.92627,-0.0183182,1.01775
182.5,17.4249,2.92653,-0.0185265,1.01748
183,17.44,2.92975,-0.0185301,1.01722
183.5,17.455,2.92163,-0.01853,1.01695
184,17.47,2.93188,-0.0185169,1.01668
184.5,17.485,2.92949,-0.0180756,1.01641
185,17.5,2.94099,-0.0171975,1.01613
185.5,17.5151,2.9431,-0.0172007,1.01586
186,17.5301,2.93911,-0.0177239,1.01559
186.5,17.5451,2.94083,-0.0186459,1.01531
187,17.5601,2.95954,-0.0186323,1.015035
187.5,17.5749,2.95466,-0.0172765,1.01476
188,17.5897,2.97032,-0.0173191,1.01448
188.5,17.6046,2.96071,-0.01732,1.01421
189,17.6194,2.97242,-0.01732,1.01393
189.5,17.6342,2.97075,-0.01732,1.01365
190,17.649,2.97656,-0.01732,1.01337
190.5,17.6639,2.98467,-0.0173218,1.01309
191,17.6787,2.98552,-0.0180637,1.01281
191.5,17.6934,2.99194,-0.0186601,1.012525
192,17.7082,2.99669,-0.0186509,1.01224
192.5,17.7229,2.99684,-0.01864,1.01196
193,17.7376,3.00202,-0.01864,1.01168
193.5,17.7522,3.01288,-0.01864,1.01139
194,17.7669,3.00958,-0.01864,1.0111
194.5,17.7815,3.01248,-0.01864,1.010815
195,17.7962,3.02106,-0.01864,1.01053
195.5,17.8109,3.0241,-0.01864,1.01024
196,17.8255,3.0315,-0.01864,1.00995
196.5,17.8402,3.03444,-0.01864,1.00966
197,17.8549,3.03577,-0.0186398,1.00937
197.5,17.8695,3.04155,-0.0186704,1.00908
198,17.8841,3.04534,-0.0178027,1.008785
198.5,17.8987,3.04733,-0.0187442,1.00849
199,17.9133,3.0504,-0.0186318,1.0082
199.5,17.9278,3.06177,-0.0186399,1.0079
200,17.9424,3.06416,-0.0186399,1.00761
200.5,17.9569,3.06684,-0.0186539,1.00731
201,17.9713,3.06698,-0.019673,1.007015
201.5,17.9858,3.0762,-0.019385,1.00672
202,18.0003,3.07981,-0.0186464,1.00642
202.5,18.0148,3.08094,-0.0186399,1.00612
203,18.0293,3.09176,-0.01864,1.00582
203.5,18.0438,3.08546,-0.01864,1.00552
204,18.0582,3.09502,-0.0186408,1.00522
204.5,18.0727,3.10269,-0.0189188,1.00491
205,18.0872,3.10998,-0.0199677,1.00461
205.5,18.1017,3.11232,-0.01996,1.00431
206,18.1162,3.11217,-0.019977,1.004
206.5,18.1308,3.12505,-0.01922173,1.0037
207,18.1451,3.12744,-0.01862895,1.00339
207.5,18.1596,3.1285,-0.0186926,1.003085
208,18.174,3.13074,-0.01988226,1.00278
208.5,18.1883,3.14168,-0.0199291,1.00247
209,18.2027,3.14536,-0.01994898,1.00216
209.5,18.217,3.14229,-0.01995,1.00185
210,18.2313,3.15213,-0.01995,1.00154
210.5,18.2457,3.15138,-0.01995,1.00123
211,18.26,3.15871,-0.01995,1.00092
211.5,18.2744,3.16091,-0.01995,1.000605
212,18.2887,3.16364,-0.01995,1.00029
212.5,18.3031,3.17576,-0.019967,0.999981
213,18.3174,3.17597,-0.0192168,0.999659
213.5,18.3316,3.17961,-0.0186188,0.999351
214,18.3459,3.1877,-0.0186299,0.999029
214.5,18.3602,3.1881,-0.01863,0.998715
215,18.3745,3.19352,-0.01863,0.998395
215.5,18.3887,3.20023,-0.01863,0.998081
216,18.403,3.19986,-0.0186392,0.997761
216.5,18.4172,3.20182,-0.0187169,0.997441
217,18.4314,3.21246,-0.01977389,0.997121
217.5,18.4456,3.21932,-0.0199465,0.996795
218,18.4599,3.2214,-0.0199501,0.996475
218.5,18.4741,3.23529,-0.01995,0.996149
219,18.4883,3.23726,-0.0199543,0.99583
219.5,18.5025,3.23975,-0.0200653,0.995505
220,18.5167,3.23276,-0.0202679,0.99518
220.5,18.5308,3.24344,-0.02028,0.994855
221,18.545,3.24729,-0.02028,0.99453
221.5,18.5591,3.24685,-0.020281,0.994206
222,18.5733,3.26144,-0.0202815,0.993875
222.5,18.5874,3.25898,-0.0177835,0.993544
223,18.6016,3.26553,-0.01567247,0.99322
223.5,18.6158,3.27093,-0.015057,0.99289
224,18.6299,3.27583,-0.0154558,0.99256
224.5,18.644,3.27214,-0.0190691,0.99223
225,18.6581,3.26985,-0.0220936,0.991894
225.5,18.6722,3.27476,-0.0247903,0.991566
226,18.6862,3.28149,-0.0255022,0.991236
226.5,18.7004,3.28418,-0.02411799,0.990894
227,18.7145,3.29334,-0.0232859,0.990566
227.5,18.7286,3.28553,-0.0226114,0.99023
228,18.7427,3.29361,-0.0225897,0.989896
228.5,18.7568,3.30075,-0.0226081,0.989554
229,18.7708,3.29819,-0.0218534,0.98922
229.5,18.7849,3.30697,-0.0212567,0.988886
230,18.7989,3.30504,-0.0209539,0.988545
230.5,18.8129,3.30935,-0.0199633,0.988204
231,18.827,3.30851,-0.0199498,0.987864
231.5,18.841,3.30922,-0.01995,0.987524
232,18.855,3.31248,-0.0199514,0.987185
232.5,18.8691,3.31474,-0.0206708,0.986845
233,18.8831,3.31945,-0.0213222,0.986505
233.5,18.897,3.32115,-0.0215709,0.986166
234,18.911,3.32718,-0.0226127,0.985815
234.5,18.925,3.3283,-0.0225941,0.985475
235,18.9389,3.32613,-0.02283099,0.985124
235.5,18.9529,3.32143,-0.023282,0.984785
236,18.9669,3.34136,-0.0232526,0.984435
236.5,18.9808,3.33737,-0.02325002,0.984095
237,18.9948,3.33976,-0.02325,0.983745
237.5,19.0088,3.33717,-0.02325,0.983395
238,19.0227,3.34577,-0.02325,0.983045
238.5,19.0367,3.34187,-0.02325,0.982706
239,19.0507,3.35211,-0.02325,0.982355
239.5,19.0646,3.34871,-0.02325,0.982005
240,19.0785,3.35349,-0.0232514,0.981644
240.5,19.0924,3.35505,-0.0230959,0.981295
241,19.1063,3.34942,-0.0218804,0.980945
241.5,19.1203,3.35952,-0.0216015,0.980595
242,19.1342,3.36129,-0.0205982,0.980246
242.5,19.1481,3.35809,-0.02061,0.979885
243,19.162,3.36894,-0.0206004,0.979535
243.5,19.1759,3.37369,-0.0210727,0.979175
244,19.1897,3.36604,-0.0232269,0.978825
244.5,19.2036,3.36216,-0.0232364,0.978465
245,19.2175,3.36532,-0.0232502,0.978104
245.5,19.2313,3.3798,-0.02325,0.977756
246,19.2451,3.37045,-0.02325,0.977395
246.5,19.259,3.38153,-0.02325,0.977035
247,19.2728,3.38055,-0.0232489,0.976675
247.5,19.2867,3.3772,-0.023254,0.976315
248,19.3005,3.37717,-0.0235772,0.975955
248.5,19.3144,3.38135,-0.0236011,0.975595
249,19.3281,3.38011,-0.0246185,0.975235
249.5,19.342,3.38247,-0.0245816,0.974876
250,19.3557,3.39114,-0.0245982,0.97451
250.5,19.3696,3.38624,-0.0255893,0.974144
251,19.3834,3.39459,-0.025893,0.973786
251.5,19.3972,3.39039,-0.0258798,0.973414
252,19.4111,3.39821,-0.02588,0.973056
252.5,19.4249,3.40087,-0.02588,0.972684
253,19.4387,3.40684,-0.0258819,0.972326
253.5,19.4526,3.40101,-0.0257146,0.971954
254,19.4664,3.40151,-0.0245107,0.971584
254.5,19.4802,3.39998,-0.0245882,0.97122
255,19.494,3.40102,-0.0245777,0.970856
255.5,19.5077,3.40621,-0.0246878,0.970486
256,19.5215,3.40345,-0.0257128,0.970116
256.5,19.5353,3.40626,-0.0258763,0.969745
257,19.54902,3.4072,-0.0258798,0.969376
257.5,19.5628,3.41414,-0.02588,0.969006
258,19.5765,3.4151,-0.02588,0.96863
258.5,19.5903,3.40357,-0.02588,0.96826
259,19.604,3.41077,-0.02588,0.967885
259.5,19.6178,3.41159,-0.02588,0.967515
260,19.6316,3.41231,-0.02588,0.96714
260.5,19.6454,3.40667,-0.02588,0.966765
261,19.6591,3.40219,-0.0258792,0.96639
261.5,19.6728,3.40498,-0.0258606,0.966015
262,19.6865,3.40672,-0.0271841,0.96564
262.5,19.7002,3.4179,-0.027191,0.965265
263,19.7139,3.40715,-0.02718886,0.964885
263.5,19.7277,3.42139,-0.0272119,0.96451
264,19.7414,3.40544,-0.0282838,0.96413
264.5,19.7552,3.41626,-0.0285094,0.963749
265,19.7689,3.41171,-0.02851,0.963375
265.5,19.7826,3.41036,-0.02851,0.962995
266,19.7963,3.40713,-0.02851,0.962615
266.5,19.81,3.41556,-0.02851,0.962235
267,19.8237,3.4135,-0.02851,0.961849
267.5,19.8374,3.41565,-0.02851,0.961469
268,19.8511,3.41315,-0.02851,0.961091
268.5,19.8648,3.41962,-0.02851,0.960705
269,19.8785,3.42052,-0.02851,0.960319
269.5,19.8922,3.4196,-0.02851,0.959941
270,19.9059,3.41882,-0.0285111,0.959555
270.5,19.9196,3.42427,-0.0284477,0.959169
271,19.9332,3.4242,-0.030007,0.958785
271.5,19.9469,3.41804,-0.0308372,0.9584
272,19.9606,3.42276,-0.03082,0.958015
272.5,19.9743,3.4276,-0.0308166,0.957631
273,19.988,3.41658,-0.0312636,0.957239
273.5,20.0017,3.42001,-0.03215224,0.956855
274,20.0153,3.42236,-0.03213,0.956465
274.5,20.029,3.42388,-0.03213,0.956081
275,20.0426,3.41256,-0.03213,0.95569
275.5,20.0563,3.42198,-0.03213,0.9553
276,20.0699,3.42492,-0.03213,0.95491
276.5,20.0837,3.4234,-0.03213,0.95452
277,20.0973,3.41388,-0.03213,0.95413
277.5,20.1109,3.40963,-0.0321301,0.953741
278,20.1245,3.41101,-0.0321377,0.953345
278.5,20.1381,3.401636,-0.03221852,0.952949
279,20.1517,3.40458,-0.0324875,0.95256
279.5,20.1653,3.40916,-0.0324609,0.95217
280,20.179,3.42313,-0.0324599,0.951769
280.5,20.1927,3.41452,-0.0324637,0.95138
281,20.2063,3.4112,-0.0330738,0.950985
281.5,20.22,3.40427,-0.0338953,0.95059
282,20.2337,3.39939,-0.0338901,0.950195
282.5,20.2473,3.4037,-0.0338866,0.9498
283,20.261,3.38415,-0.0343131,0.9494
283.5,20.2746,3.39734,-0.035216,0.94901
284,20.2882,3.38904,-0.03519995,0.94861
284.5,20.3019,3.38992,-0.0352,0.94821
285,20.3154,3.38175,-0.0352,0.94781
285.5,20.329,3.37014,-0.0352,0.947421
286,20.3426,3.36455,-0.0352055,0.94702
286.5,20.3562,3.36297,-0.0352854,0.94662
287,20.3698,3.34844,-0.0364046,0.94622
287.5,20.3835,3.34371,-0.0365205,0.94582
288,20.3972,3.34133,-0.0365207,0.94542
288.5,20.4107,3.33564,-0.0366646,0.94502
289,20.4245,3.34512,-0.0377786,0.94461
289.5,20.4381,3.35668,-0.0378402,0.94421
290,20.4517,3.35924,-0.03784,0.94381
290.5,20.4653,3.3778,-0.0378478,0.94341
291,20.4789,3.38836,-0.0380799,0.943
291.5,20.4926,3.40211,-0.0391335,0.9426
292,20.5061,3.40624,-0.0391511,0.9422
292.5,20.5197,3.42577,-0.03915,0.94179
293,20.5332,3.44273,-0.03915,0.94139
293.5,20.5468,3.44725,-0.0391499,0.94098
294,20.5604,3.45845,-0.0391427,0.940581
294.5,20.574,3.46807,-0.0398975,0.94017
295,20.5876,3.48835,-0.0404665,0.939759
295.5,20.6014,3.49067,-0.0404701,0.93936
296,20.615,3.49473,-0.04047025,0.93895
296.5,20.6286,3.49653,-0.040439,0.93854
297,20.6422,3.51229,-0.0413964,0.938135
297.5,20.6558,3.50702,-0.0417757,0.937731
298,20.6694,3.51535,-0.04179,0.937321
298.5,20.683,3.52206,-0.04179,0.93691
299,20.6967,3.51834,-0.0418019,0.9365
299.5,20.7103,3.52087,-0.0420738,0.93609
300,20.7239,3.5268,-0.04314,0.93568
300.5,20.7375,3.52247,-0.0430859,0.935271
301,20.7512,3.52486,-0.04388451,0.934861
301.5,20.7648,3.52879,-0.0444314,0.934445
302,20.7784,3.5339,-0.0444201,0.934029
302.5,20.792,3.53612,-0.0444281,0.933619
303,20.8056,3.52853,-0.04465885,0.93321
303.5,20.8192,3.51977,-0.0457122,0.932795
304,20.8328,3.52229,-0.0457299,0.932379
304.5,20.8463,3.52516,-0.0457285,0.93197
305,20.86,3.51696,-0.0457622,0.931555
305.5,20.8735,3.52178,-0.04568,0.931139
306,20.8871,3.51103,-0.0468097,0.930725
306.5,20.9007,3.51709,-0.0467071,0.930309
307,20.9143,3.51679,-0.0467605,0.929895
307.5,20.9279,3.51074,-0.0486722,0.92948
308,20.9415,3.50497,-0.0485725,0.929065
308.5,20.9551,3.5056,-0.0485486,0.928651
309,20.9686,3.50245,-0.0494808,0.928229
309.5,20.9822,3.50065,-0.0498857,0.927809
310,20.9958,3.49435,-0.0499011,0.927395
310.5,21.0093,3.49584,-0.0498152,0.926981
311,21.0229,3.50534,-0.049199,0.92656
311.5,21.0366,3.49453,-0.0502921,0.926139
312,21.0503,3.48885,-0.0502297,0.925719
312.5,21.0638,3.49418,-0.05023,0.925305
313,21.0774,3.48087,-0.05023,0.924885
313.5,21.091,3.47926,-0.05023,0.924465
314,21.1046,3.47398,-0.0502094,0.924045
314.5,21.1181,3.48532,-0.05111999,0.923625
315,21.1318,3.47672,-0.0517943,0.923199
315.5,21.1454,3.47218,-0.0522533,0.92278
316,21.159,3.47492,-0.0533167,0.92236
316.5,21.1726,3.46501,-0.0533096,0.921941
317,21.1863,3.46249,-0.0539091,0.921515
317.5,21.1999,3.4617,-0.0546216,0.921095
318,21.2135,3.45734,-0.054617,0.92067
318.5,21.2271,3.44532,-0.0553309,0.920251
319,21.2407,3.44832,-0.0559362,0.919825
319.5,21.2543,3.43913,-0.05594,0.9194
320,21.2679,3.43371,-0.0559206,0.918975
320.5,21.2815,3.44001,-0.05676901,0.918549
321,21.2951,3.44049,-0.0572442,0.91813
321.5,21.3087,3.43035,-0.0571613,0.917705
322,21.3224,3.42792,-0.05804941,0.91728
322.5,21.336,3.42572,-0.0587531,0.91685
323,21.3496,3.42105,-0.0599296,0.916425
323.5,21.3631,3.41324,-0.0598797,0.916
324,21.3768,3.41491,-0.05988,0.915575
324.5,21.3903,3.41358,-0.059862,0.91515
325,21.4039,3.40266,-0.0606035,0.91472
325.5,21.4175,3.38901,-0.0612069,0.914295
326,21.4311,3.39478,-0.0611967,0.913865
326.5,21.4447,3.38413,-0.0613754,0.91344
327,21.4583,3.3751,-0.0624631,0.91301
327.5,21.4719,3.37637,-0.06251017,0.91258
328,21.4855,3.37174,-0.06251,0.912156
328.5,21.4991,3.36007,-0.0624993,0.911725
329,21.5127,3.35929,-0.063538,0.911295
329.5,21.5263,3.3479,-0.0640565,0.910865
330,21.54,3.35016,-0.0647002,0.910434
330.5,21.5536,3.34119,-0.065465,0.910004
331,21.5672,3.33083,-0.0654651,0.909574
331.5,21.5809,3.32857,-0.065877,0.909144
332,21.5945,3.31902,-0.06680675,0.908715
332.5,21.6081,3.31505,-0.06678996,0.908286
333,21.6217,3.30241,-0.0667797,0.907856
333.5,21.6353,3.30242,-0.0673043,0.90742
334,21.6489,3.28854,-0.0681196,0.90699
334.5,21.6626,3.273,-0.0681,0.906554
335,21.6763,3.26525,-0.0680826,0.906124
335.5,21.6899,3.2527,-0.0687383,0.905696
336,21.7035,3.24629,-0.0695594,0.90526
336.5,21.7171,3.24233,-0.069511,0.904824
337,21.7308,3.2342,-0.0702728,0.904396
337.5,21.7444,3.22582,-0.0708652,0.90396
338,21.7581,3.21301,-0.0709011,0.903524
338.5,21.7717,3.20667,-0.0705333,0.903096
339,21.7854,3.19866,-0.0707799,0.90266
339.5,21.799,3.17807,-0.0708613,0.902226
340,21.8127,3.18176,-0.0711219,0.90179
340.5,21.8263,3.16547,-0.0723803,0.901355
341,21.84,3.14448,-0.0723872,0.90092
341.5,21.8537,3.1398,-0.0734108,0.900485
342,21.8673,3.12935,-0.0738069,0.90005
342.5,21.881,3.11642,-0.0738099,0.899616
343,21.8946,3.1109,-0.0737909,0.899174
343.5,21.9083,3.09392,-0.0746985,0.89874
344,21.922,3.08047,-0.075215,0.898305
344.5,21.9356,3.07156,-0.0758122,0.897864
345,21.9493,3.05867,-0.0768225,0.897436
345.5,21.9629,3.05074,-0.0770024,0.896995
346,21.9766,3.02571,-0.078139,0.896554
346.5,21.9903,3.03039,-0.0781025,0.89612
347,22.0039,3.01751,-0.0784189,0.895686
347.5,22.0176,3.00862,-0.0793611,0.895245
348,22.0312,2.9846,-0.0802243,0.894805
348.5,22.0449,2.97552,-0.0807291,0.894364
349,22.0586,2.95688,-0.0809339,0.89393
349.5,22.0722,2.94878,-0.0820019,0.89349
350,22.0859,2.93918,-0.0820191,0.893056
350.5,22.0996,2.92449,-0.0820834,0.892616
351,22.1133,2.91183,-0.0819983,0.892175
351.5,22.127,2.89717,-0.0820944,0.891735
352,22.1408,2.88403,-0.0825742,0.891295
352.5,22.1544,2.85482,-0.0838185,0.890855
353,22.1682,2.85266,-0.0838315,0.890415
353.5,22.1819,2.8246,-0.0850652,0.889975
354,22.1956,2.81328,-0.0853068,0.889535
354.5,22.2093,2.81118,-0.08590564,0.889095
355,22.223,2.7896,-0.0867908,0.888655
355.5,22.2367,2.7847,-0.08671166,0.888216
356,22.2504,2.75719,-0.08785337,0.887776
356.5,22.2641,2.74429,-0.0880649,0.88733
357,22.2778,2.7236,-0.08807,0.886884
357.5,22.2915,2.71191,-0.08807,0.886445
358,22.3053,2.68965,-0.0880542,0.886005
358.5,22.3191,2.67704,-0.0889789,0.885565
359,22.3328,2.66335,-0.0893974,0.885126
359.5,22.3465,2.64999,-0.090031,0.88468
360,22.3603,2.628,-0.0909252,0.884235
360.5,22.374,2.61598,-0.0913165,0.883795
361,22.3878,2.59581,-0.092478,0.883356
361.5,22.4015,2.58301,-0.0924913,0.882904
362,22.4153,2.56472,-0.093747,0.882465
362.5,22.429,2.54921,-0.09397334,0.882025
363,22.4428,2.54025,-0.095038,0.88158
363.5,22.4567,2.51752,-0.0969672,0.881135
364,22.4705,2.50507,-0.0969681,0.880695
364.5,22.4842,2.48391,-0.0981603,0.880244
365,22.498,2.46209,-0.0982644,0.879805
365.5,22.5118,2.44693,-0.0982701,0.879366
366,22.5256,2.4207,-0.0982582,0.878915
366.5,22.5393,2.40327,-0.0991951,0.878475
367,22.5531,2.39024,-0.099688,0.878024
367.5,22.5669,2.37626,-0.101032,0.877585
368,22.5806,2.35796,-0.101695,0.877134
368.5,22.5944,2.33609,-0.103592,0.876695
369,22.6082,2.31576,-0.103512,0.87625
369.5,22.622,2.30188,-0.104436,0.875805
370,22.63581,2.28938,-0.104836,0.875354
370.5,22.6496,2.27004,-0.10485,0.874915
371,22.6635,2.24496,-0.10485,0.874464
371.5,22.6773,2.23472,-0.104851,0.874025
372,22.6911,2.21252,-0.105015,0.873575
372.5,22.7049,2.20315,-0.106124,0.873135
373,22.7187,2.17999,-0.106165,0.872685
373.5,22.7325,2.16831,-0.107202,0.87224
374,22.7464,2.14506,-0.108744,0.871795
374.5,22.7602,2.12884,-0.109726,0.871345
375,22.774,2.11382,-0.110549,0.870905
375.5,22.7879,2.08892,-0.111014,0.870455
376,22.8018,2.07895,-0.112119,0.870005
376.5,22.8156,2.04475,-0.112151,0.869565
377,22.8295,2.03925,-0.113441,0.869115
377.5,22.8433,2.02381,-0.113618,0.868665
378,22.8572,2.0094,-0.113579,0.868225
378.5,22.8711,1.99147,-0.114862,0.867775
379,22.8848,1.97457,-0.115054,0.867325
379.5,22.8985,1.97003,-0.115592,0.86688
380,22.9124,1.9489,-0.116842,0.866435
380.5,22.9262,1.93036,-0.117511,0.865985
381,22.9401,1.92872,-0.118563,0.865535
381.5,22.954,1.90394,-0.119433,0.865096
382,22.968,1.89897,-0.120188,0.864645
382.5,22.9819,1.86753,-0.120736,0.864195
383,22.9958,1.87221,-0.121749,0.863745
383.5,23.0097,1.85244,-0.122866,0.863294
384,23.0235,1.83445,-0.12337,0.862855
384.5,23.0374,1.83002,-0.124712,0.862405
385,23.0513,1.8234,-0.124973,0.861955
385.5,23.0652,1.80957,-0.12663,0.861505
386,23.0791,1.80315,-0.127299,0.861055
386.5,23.093,1.79013,-0.128445,0.860615
387,23.1069,1.79484,-0.128437,0.860165
387.5,23.1208,1.78505,-0.1292,0.859715
388,23.1347,1.7692,-0.129829,0.859265
388.5,23.1487,1.77018,-0.13086,0.858815
389,23.1626,1.76465,-0.131664,0.858365
389.5,23.1765,1.77141,-0.133484,0.857915
390,23.1905,1.76495,-0.135632,0.857475
390.5,23.2044,1.77224,-0.137345,0.857025
391,23.2183,1.7697,-0.139129,0.856575
391.5,23.2322,1.76463,-0.13933,0.856125
392,23.2462,1.76722,-0.140394,0.855675
392.5,23.2602,1.77625,-0.140398,0.855225
393,23.2741,1.77531,-0.1413,0.854775
393.5,23.28813,1.78138,-0.142222,0.854325
394,23.3021,1.78718,-0.144084,0.853875
394.5,23.316,1.80646,-0.145338,0.85343
395,23.3299,1.81714,-0.14681,0.852985
395.5,23.3439,1.83014,-0.148703,0.852535
396,23.358,1.84809,-0.151284,0.852085
396.5,23.3719,1.85676,-0.152945,0.851635
397,23.3859,1.87719,-0.15328,0.851185
397.5,23.4,1.90819,-0.154333,0.850735
398,23.414,1.92734,-0.154306,0.850285
398.5,23.428,1.9535,-0.156189,0.849835
399,23.442,1.96919,-0.158156,0.849385
399.5,23.456,2.00703,-0.159881,0.848935
400,23.47,2.02794,-0.161647,0.848485
400.5,23.484,2.05197,-0.162713,0.848035
401,23.498,2.07793,-0.163647,0.847585
401.5,23.512,2.09992,-0.164668,0.847135
402,23.5261,2.12675,-0.165382,0.846685
402.5,23.5402,2.15602,-0.167722,0.846235
403,23.5543,2.19433,-0.169404,0.845785
403.5,23.5684,2.22515,-0.171734,0.84534
404,23.5824,2.25829,-0.173329,0.844895
404.5,23.5965,2.30824,-0.174218,0.844445
405,23.6106,2.34597,-0.175593,0.843995
405.5,23.6246,2.40252,-0.176053,0.843545
406,23.6387,2.45685,-0.177798,0.843095
406.5,23.6528,2.50731,-0.17991,0.842645
407,23.6669,2.56776,-0.181557,0.842195
407.5,23.6811,2.62158,-0.183645,0.841745
408,23.6952,2.70998,-0.185441,0.841295
408.5,23.7092,2.77427,-0.187982,0.840845
409,23.7233,2.88123,-0.190914,0.840395
409.5,23.7374,2.94995,-0.193747,0.839945
410,23.7515,3.02746,-0.197456,0.839495
410.5,23.7656,3.10242,-0.200166,0.839045
411,23.7798,3.16921,-0.20307,0.838595
411.5,23.7939,3.25948,-0.205842,0.838145
412,23.808,3.34365,-0.208542,0.837695
412.5,23.8222,3.43687,-0.210393,0.837245
413,23.8363,3.52312,-0.212272,0.836795
413.5,23.8504,3.63253,-0.214683,0.836345
414,23.8646,3.74155,-0.216771,0.835895
414.5,23.8788,3.85676,-0.2191631,0.835445
415,23.893,3.98848,-0.221957,0.834995
415.5,23.9072,4.10429,-0.225258,0.834545
416,23.9214,4.22131,-0.229228,0.834095
416.5,23.9355,4.33205,-0.232102,0.83365
417,23.9497,4.46081,-0.235295,0.833205
417.5,23.9638,4.61558,-0.238137,0.832755
418,23.978,4.7584,-0.241348,0.832305
418.5,23.9922,4.9161,-0.245257,0.831855
419,24.0064,5.07171,-0.248582,0.831405
419.5,24.0206,5.25444,-0.25247,0.830955
420,24.0348,5.42928,-0.256761,0.830505
420.5,24.049,5.60333,-0.261193,0.830055
421,24.0633,5.78211,-0.265632,0.829605
421.5,24.0775,5.97445,-0.269873,0.829155
422,24.0917,6.17606,-0.274441,0.828705
422.5,24.1059,6.38517,-0.279194,0.828255
423,24.12013,6.59978,-0.283888,0.827815
423.5,24.1343,6.81337,-0.288762,0.827365
424,24.1486,7.04511,-0.293951,0.826915
424.5,24.1628,7.29692,-0.299171,0.826465
425,24.1771,7.56215,-0.304481,0.826015
425.5,24.1914,7.82634,-0.310137,0.825565
426,24.2057,8.11088,-0.315893,0.825115
426.5,24.22,8.40064,-0.321726,0.824665
427,24.2343,8.71712,-0.327646,0.824225
427.5,24.2486,9.02667,-0.333838,0.823775
428,24.263,9.34368,-0.340504,0.823325
428.5,24.2773,9.68083,-0.347308,0.822875
429,24.2916,10.0288,-0.355329,0.822425
429.5,24.3059,10.3891,-0.363568,0.821975
430,24.3202,10.7684,-0.372033,0.821535
430.5,24.3346,11.2022,-0.380794,0.821085
431,24.3489,11.6313,-0.389806,0.820635
431.5,24.3633,12.0542,-0.398781,0.820185
432,24.3777,12.5988,-0.408237,0.819735
432.5,24.3921,13.1688,-0.418443,0.819295
433,24.4065,13.7224,-0.429556,0.818845
433.5,24.4209,14.2351,-0.44179,0.818395
434,24.4353,14.7287,-0.455488,0.817945
434.5,24.4497,15.247,-0.470344,0.817505
435,24.4641,15.7562,-0.48564,0.817055
435.5,24.4785,16.2783,-0.500536,0.816605
436,24.4929,16.849,-0.515383,0.816155
436.5,24.5074,17.5097,-0.530307,0.815715
437,24.5219,18.1718,-0.545284,0.815265
437.5,24.5364,18.7849,-0.560306,0.814815
438,24.5509,19.4127,-0.57694,0.814375
438.5,24.5653,20.1236,-0.593854,0.813925
439,24.5798,20.8943,-0.612685,0.813475
439.5,24.5943,21.6605,-0.633135,0.813036
440,24.6089,22.356,-0.655635,0.812585
440.5,24.6234,23.1037,-0.67801,0.812135
441,24.6379,23.8422,-0.700759,0.811695
441.5,24.6525,24.5114,-0.724256,0.811245
442,24.6671,25.2413,-0.748726,0.810794
442.5,24.6817,26.0682,-0.77324,0.810355
443,24.6963,26.8593,-0.796752,0.809905
443.5,24.7109,27.6355,-0.822197,0.809465
444,24.7256,28.4164,-0.848431,0.809015
444.5,24.7402,29.1903,-0.876126,0.808576
445,24.7549,29.9366,-0.906519,0.808125
445.5,24.7696,30.7059,-0.9378431,0.80768
446,24.7842,31.4538,-0.969612,0.807235
446.5,24.7989,32.2379,-1.00201,0.806784
447,24.8136,33.0486,-1.03429,0.806345
447.5,24.8283,33.8054,-1.06656,0.805894
448,24.843,34.6137,-1.09893,0.805455
448.5,24.8578,35.3927,-1.13152,0.80501
449,24.8726,36.1863,-1.16683,0.804565
449.5,24.8873,36.943,-1.2048,0.804126
450,24.902,37.6745,-1.24276,0.803675
450.5,24.9167,38.3691,-1.29331,0.803235
451,24.9315,39.061,-1.35455,0.802784
451.5,24.9462,39.7379,-1.38669,0.802345
452,24.961,40.3872,-1.42208,0.801906
452.5,24.9757,40.9713,-1.46373,0.801455
453,24.9905,41.5341,-1.50978,0.801015
453.5,25.0053,42.055,-1.55466,0.80057
454,25.02,42.5368,-1.60067,0.800125
454.5,25.0348,42.9627,-1.64689,0.799685
455,25.0496,43.3384,-1.69414,0.79924
455.5,25.0644,43.6791,-1.74121,0.798795
456,25.0792,43.9429,-1.78831,0.798355
456.5,25.094,44.1848,-1.83667,0.797915
457,25.1087,44.416,-1.88488,0.79747
457.5,25.1236,44.5433,-1.93365,0.797025
458,25.1383,44.5803,-1.98282,0.796585
458.5,25.1531,44.5579,-2.03184,0.796145
459,25.1677,44.4662,-2.07941,0.795706
459.5,25.1825,44.3363,-2.12846,0.79526
460,25.1972,44.1176,-2.17717,0.794814
460.5,25.2119,43.84,-2.22579,0.794375
461,25.2267,43.507,-2.27358,0.793935
461.5,25.2415,43.1282,-2.32127,0.793495
462,25.2562,42.6735,-2.36806,0.793055
462.5,25.2709,42.1927,-2.41421,0.792616
463,25.2855,41.6499,-2.45988,0.792176
463.5,25.3002,41.0713,-2.50484,0.791736
464,25.3149,40.4133,-2.54915,0.791296
464.5,25.3296,39.7143,-2.59279,0.79085
465,25.3442,38.9687,-2.63519,0.79041
465.5,25.3588,38.2261,-2.67679,0.78997
466,25.3735,37.3959,-2.71781,0.789536
466.5,25.3881,36.5846,-2.75815,0.789096
467,25.4027,35.7199,-2.79822,0.788656
467.5,25.4173,34.8497,-2.83688,0.788216
468,25.4319,33.931,-2.87403,0.787775
468.5,25.4464,32.9967,-2.9097,0.787335
469,25.461,32.0573,-2.94561,0.786895
469.5,25.4755,31.1046,-2.98106,0.786454
470,25.49,30.1567,-3.01619,0.78602
470.5,25.5045,29.186,-3.04865,0.785586
471,25.519,28.217,-3.07434,0.785146
471.5,25.5335,27.2604,-3.10171,0.784705
472,25.5479,26.2962,-3.12971,0.784264
472.5,25.5624,25.3374,-3.15852,0.78383
473,25.5769,24.3889,-3.18704,0.783396
473.5,25.5913,23.4546,-3.21483,0.782954
474,25.6058,22.5232,-3.24149,0.78252
474.5,25.6203,21.6278,-3.26649,0.782086
475,25.6347,20.7414,-3.28929,0.781645
475.5,25.6491,19.8653,-3.3115,0.78121
476,25.6636,19.008,-3.3324,0.780776
476.5,25.678,18.1847,-3.35304,0.780334
477,25.6924,17.3707,-3.37369,0.779906
477.5,25.7069,16.5771,-3.39395,0.779464
478,25.7213,15.8137,-3.41274,0.77903
478.5,25.7356,15.0686,-3.43161,0.778595
479,25.75,14.3455,-3.44947,0.77816
479.5,25.7645,13.6518,-3.46679,0.777725
480,25.7789,12.9888,-3.48286,0.77729
480.5,25.7935,12.3456,-3.4983,0.776854
481,25.8081,11.7109,-3.51278,0.776426
481.5,25.8227,11.1204,-3.52653,0.775984
482,25.8371,10.5576,-3.54,0.775556
482.5,25.8516,10.0068,-3.55294,0.77512
483,25.8661,9.46816,-3.56679,0.774684
483.5,25.8806,8.96408,-3.57949,0.774256
484,25.895,8.48452,-3.59214,0.77382
484.5,25.9096,8.0171,-3.60438,0.773384
485,25.9242,7.59347,-3.61589,0.772954
485.5,25.9387,7.16417,-3.62567,0.772526
486,25.9532,6.75793,-3.63511,0.77209
486.5,25.9678,6.36904,-3.64496,0.77166
487,25.9824,6.00302,-3.65452,0.771224
487.5,25.997,5.6436,-3.66467,0.770795
488,26.0115,5.29077,-3.67413,0.770366
488.5,26.026,4.98243,-3.68281,0.769936
489,26.0406,4.65375,-3.69108,0.769506
489.5,26.0552,4.37223,-3.69899,0.76907
490,26.0698,4.06336,-3.70656,0.76864
490.5,26.0845,3.78601,-3.71402,0.76821
491,26.0991,3.50267,-3.72174,0.76778
491.5,26.1137,3.25437,-3.72971,0.76735
492,26.1284,3.00061,-3.73748,0.76692
492.5,26.143,2.75243,-3.74417,0.76649
493,26.1577,2.51006,-3.75001,0.766066
493.5,26.1725,2.26915,-3.75539,0.765635
494,26.1872,2.04597,-3.76082,0.765205
494.5,26.2019,1.82802,-3.76649,0.764774
495,26.2166,1.61374,-3.77223,0.76435
495.5,26.2313,1.39036,-3.77803,0.76392
496,26.246,1.19318,-3.78367,0.763496
496.5,26.2608,0.993642,-3.78889,0.763065
497,26.2755,0.799257,-3.79353,0.76264
497.5,26.2902,0.613587,-3.79731,0.76221
498,26.3051,0.41612,-3.80115,0.761785
498.5,26.3198,0.229942,-3.80498,0.761354
499,26.3346,0.0439416,-3.80878,0.76093
499.5,26.3494,-0.126445,-3.81252,0.760505
500,26.3642,-0.291567,-3.81605,0.76008
500.5,26.379,-0.467773,-3.81939,0.759655
501,26.3939,-0.63475,-3.82202,0.75923
501.5,26.4087,-0.788046,-3.825,0.758805
502,26.4235,-0.941256,-3.8278,0.75838
502.5,26.4384,-1.09285,-3.83052,0.757955
503,26.4531,-1.2348,-3.83256,0.75753
503.5,26.4679,-1.3822,-3.83456,0.757105
504,26.4827,-1.50221,-3.83517,0.75668
504.5,26.4975,-1.64526,-3.83625,0.756261
505,26.5123,-1.77425,-3.83803,0.755835
505.5,26.5272,-1.89326,-3.839,0.75541
506,26.542,-2.00671,-3.84069,0.754991
506.5,26.5568,-2.11344,-3.84275,0.754565
507,26.5717,-2.22043,-3.84528,0.754145
507.5,26.5866,-2.32115,-3.84694,0.75372
508,26.6014,-2.41616,-3.84841,0.7533
508.5,26.6163,-2.50688,-3.84894,0.752881
509,26.6311,-2.58447,-3.85066,0.752455
509.5,26.6459,-2.66832,-3.85138,0.752035
510,26.6608,-2.73894,-3.8525,0.751615
510.5,26.6756,-2.80333,-3.85409,0.751195
511,26.6905,-2.86578,-3.8543,0.750769
511.5,26.7055,-2.9204,-3.85561,0.750349
512,26.7204,-2.98831,-3.85568,0.749935
512.5,26.7353,-3.04258,-3.85568,0.749515
513,26.7502,-3.08244,-3.85568,0.749095
513.5,26.7651,-3.11783,-3.85568,0.748675
514,26.78,-3.17235,-3.85569,0.748255
514.5,26.7949,-3.21152,-3.85578,0.747841
515,26.8098,-3.24978,-3.85688,0.74742
515.5,26.8248,-3.28403,-3.85696,0.746999
516,26.8397,-3.31547,-3.85795,0.746585
516.5,26.8546,-3.33722,-3.8583,0.746171
517,26.8696,-3.36154,-3.85831,0.745751
517.5,26.8845,-3.38355,-3.85831,0.745329
518,26.8995,-3.4075,-3.85831,0.744915
518.5,26.9144,-3.42825,-3.85831,0.7445
519,26.9294,-3.45246,-3.8589,0.744085
519.5,26.9444,-3.46262,-3.85963,0.743671
520,26.9595,-3.47699,-3.85962,0.743249
520.5,26.9745,-3.50663,-3.85962,0.742841
521,26.9895,-3.51273,-3.85962,0.742419
521.5,27.0045,-3.53968,-3.85962,0.742011
522,27.0195,-3.55858,-3.85962,0.741595
522.5,27.0345,-3.56434,-3.85962,0.74118
523,27.0495,-3.58005,-3.85962,0.740765
523.5,27.0645,-3.5797,-3.85962,0.740349
524,27.0795,-3.59405,-3.85961,0.73994
524.5,27.0945,-3.61197,-3.85953,0.739531
525,27.1096,-3.62284,-3.85928,0.739115
525.5,27.1246,-3.63148,-3.8593,0.738699
526,27.1397,-3.64007,-3.8593,0.73829
526.5,27.1547,-3.66171,-3.8593,0.737881
527,27.1698,-3.65986,-3.8593,0.737471
527.5,27.1848,-3.67531,-3.8593,0.737055
528,27.1998,-3.68921,-3.8593,0.736645
528.5,27.2148,-3.69169,-3.8593,0.736229
529,27.2299,-3.71109,-3.8593,0.735819
529.5,27.245,-3.71375,-3.8593,0.735409
530,27.26,-3.72225,-3.8593,0.734999
530.5,27.2751,-3.7433,-3.8593,0.734595
531,27.2902,-3.74011,-3.8593,0.734185
531.5,27.3052,-3.75143,-3.85926,0.733781
532,27.3202,-3.76355,-3.86063,0.73337
532.5,27.3353,-3.76381,-3.86062,0.73296
533,27.3503,-3.78367,-3.86062,0.73255
533.5,27.3655,-3.78825,-3.86062,0.732139
534,27.3806,-3.79671,-3.86062,0.731741
534.5,27.3957,-3.79519,-3.86062,0.73133
535,27.4109,-3.80611,-3.86062,0.730919
535.5,27.426,-3.81616,-3.86058,0.730521
536,27.4411,-3.83172,-3.86027,0.73011
536.5,27.4562,-3.84345,-3.86065,0.729705
537,27.4713,-3.85172,-3.86061,0.7293
537.5,27.4865,-3.86673,-3.86063,0.728889
538,27.5017,-3.88378,-3.86081,0.72849
538.5,27.5169,-3.90196,-3.86268,0.728085
539,27.532,-3.91251,-3.86259,0.72768
539.5,27.5472,-3.91826,-3.86259,0.72728
540,27.5623,-3.93153,-3.86259,0.72687
540.5,27.5774,-3.95249,-3.86259,0.72647
541,27.5925,-3.95899,-3.86259,0.72607
541.5,27.6077,-3.96762,-3.86258,0.72566
542,27.6229,-3.97788,-3.86246,0.72526
542.5,27.6381,-3.99318,-3.86134,0.72486
543,27.6533,-3.98883,-3.86128,0.72446
543.5,27.6685,-4.00164,-3.86127,0.72406
544,27.6837,-4.00747,-3.86127,0.723661
544.5,27.69882,-4.02324,-3.86127,0.72325
545,27.714,-4.03302,-3.86127,0.72285
545.5,27.7292,-4.04474,-3.86127,0.72245
546,27.7444,-4.04847,-3.86127,0.72205
546.5,27.7597,-4.04366,-3.86127,0.72165
547,27.7749,-4.07304,-3.86127,0.72126
547.5,27.7902,-4.07657,-3.86127,0.72086
548,27.8054,-4.08908,-3.86127,0.72046
548.5,27.8206,-4.11065,-3.86127,0.72006
549,27.8358,-4.11042,-3.86127,0.71966
549.5,27.8509,-4.12139,-3.86127,0.719259
550,27.8662,-4.12776,-3.86127,0.71887
550.5,27.8814,-4.13961,-3.86128,0.71847
551,27.8966,-4.1627,-3.86118,0.71807
551.5,27.9119,-4.15632,-3.86244,0.71768
552,27.9273,-4.16723,-3.86292,0.71728
552.5,27.9425,-4.17159,-3.86329,0.716891
553,27.9579,-4.18331,-3.86325,0.71649
553.5,27.9732,-4.19565,-3.86325,0.716101
554,27.9885,-4.21077,-3.86325,0.7157
554.5,28.0037,-4.20761,-3.86325,0.71531
555,28.019,-4.21625,-3.86325,0.71491
555.5,28.0343,-4.2245,-3.86325,0.71452
556,28.0495,-4.23409,-3.86325,0.714131
556.5,28.0648,-4.23947,-3.8632,0.713729
557,28.0801,-4.24745,-3.86399,0.71334
557.5,28.0954,-4.24594,-3.8646,0.71295
558,28.1107,-4.25226,-3.86457,0.712561
558.5,28.126,-4.26406,-3.86457,0.712165
559,28.1413,-4.26932,-3.86457,0.711769
559.5,28.1565,-4.27128,-3.86458,0.711379
560,28.1718,-4.29797,-3.86394,0.71099
560.5,28.1871,-4.29686,-3.86322,0.7106
561,28.2023,-4.30269,-3.86324,0.71021
561.5,28.2175,-4.30764,-3.86325,0.709819
562,28.2326,-4.30395,-3.86325,0.709429
562.5,28.248,-4.31574,-3.86325,0.709045
563,28.2634,-4.33611,-3.86325,0.708655
563.5,28.2789,-4.34985,-3.86325,0.708271
564,28.2944,-4.33943,-3.86325,0.70788
564.5,28.3099,-4.35451,-3.86326,0.707489
565,28.3252,-4.34426,-3.86349,0.707105
565.5,28.3406,-4.35551,-3.8639,0.706721
566,28.356,-4.3626,-3.8639,0.706329
566.5,28.3713,-4.3703,-3.8639,0.705945
567,28.3867,-4.36785,-3.8639,0.70556
567.5,28.402,-4.38036,-3.8639,0.705175
568,28.4174,-4.38271,-3.8639,0.70479
568.5,28.4326,-4.39443,-3.8639,0.704405
569,28.448,-4.39734,-3.8639,0.704019
569.5,28.4634,-4.40519,-3.86389,0.703635
570,28.4788,-4.40026,-3.86388,0.703249
570.5,28.4942,-4.4268,-3.86278,0.702871
571,28.5096,-4.42261,-3.86259,0.702485
571.5,28.525,-4.43669,-3.86238,0.702105
572,28.5404,-4.44178,-3.86127,0.701719
572.5,28.5557,-4.45621,-3.86127,0.70134
573,28.5712,-4.43814,-3.86127,0.700961
573.5,28.5866,-4.45754,-3.86127,0.700581
574,28.602,-4.46695,-3.86127,0.700195
574.5,28.6173,-4.4685,-3.86127,0.699815
575,28.6327,-4.46996,-3.86125,0.699435
575.5,28.6481,-4.48359,-3.86263,0.699055
576,28.6636,-4.49104,-3.86258,0.698675
576.5,28.679,-4.50294,-3.86258,0.698301
577,28.6945,-4.49014,-3.86258,0.69792
577.5,28.7099,-4.48994,-3.86257,0.69754
578,28.7254,-4.50476,-3.86208,0.697159
578.5,28.7408,-4.5034,-3.86128,0.696785
579,28.7563,-4.51246,-3.86127,0.696411
579.5,28.7718,-4.50875,-3.86127,0.69603
580,28.7872,-4.50717,-3.86127,0.695655
580.5,28.8026,-4.51322,-3.86127,0.69528
581,28.8181,-4.52689,-3.86127,0.694899
581.5,28.8336,-4.53177,-3.86129,0.694525
582,28.8491,-4.52905,-3.86263,0.69415
582.5,28.8646,-4.5339,-3.86258,0.693775
583,28.88,-4.5367,-3.86258,0.693405
583.5,28.8955,-4.55844,-3.86258,0.69303
584,28.9109,-4.55451,-3.86258,0.692655
584.5,28.9264,-4.55569,-3.86258,0.69228
585,28.9419,-4.55683,-3.86258,0.69191
585.5,28.9574,-4.57125,-3.86258,0.691534
586,28.9729,-4.56618,-3.86258,0.691165
586.5,28.9883,-4.57644,-3.86258,0.690796
587,29.0038,-4.58304,-3.86258,0.69042
587.5,29.0194,-4.58981,-3.86258,0.69005
588,29.0349,-4.59489,-3.86258,0.68968
588.5,29.0505,-4.6137,-3.86258,0.68931
589,29.066,-4.61074,-3.86258,0.68894
589.5,29.0815,-4.6145,-3.86258,0.68857
590,29.097,-4.60646,-3.86258,0.6882
590.5,29.1125,-4.62026,-3.86258,0.687836
591,29.128,-4.62629,-3.86258,0.687466
591.5,29.1435,-4.62221,-3.86258,0.687094
592,29.159,-4.62807,-3.86258,0.686724
592.5,29.1746,-4.64912,-3.86258,0.68636
593,29.1901,-4.63194,-3.86258,0.685996
593.5,29.2056,-4.64568,-3.86259,0.685624
594,29.2212,-4.64654,-3.86275,0.68526
594.5,29.2368,-4.65803,-3.86413,0.684895
595,29.2523,-4.65778,-3.86522,0.68453
595.5,29.2678,-4.64217,-3.86522,0.684165
596,29.2833,-4.66698,-3.86522,0.6838
596.5,29.2988,-4.67735,-3.86522,0.683434
597,29.3143,-4.68147,-3.86522,0.683076
597.5,29.3299,-4.67863,-3.8652,0.682704
598,29.3455,-4.68172,-3.86406,0.682345
598.5,29.361,-4.67886,-3.86392,0.681986
599,29.3766,-4.69312,-3.8639,0.68162
599.5,29.3921,-4.69837,-3.8639,0.681254
600,29.4078,-4.69997,-3.8639,0.680895
600.5,29.4233,-4.69726,-3.8639,0.680535
601,29.4389,-4.70432,-3.8639,0.680175
601.5,29.4545,-4.7293,-3.8639,0.679815
602,29.4701,-4.72174,-3.8639,0.679455
602.5,29.4857,-4.72231,-3.86389,0.679095
603,29.5012,-4.72751,-3.86381,0.678735
603.5,29.5168,-4.74969,-3.86392,0.678375
604,29.5324,-4.74897,-3.86391,0.678015
604.5,29.548,-4.74969,-3.8639,0.677654
605,29.5636,-4.75562,-3.86355,0.6773
605.5,29.5791,-4.74929,-3.86254,0.676945
606,29.5948,-4.77504,-3.86259,0.676585
606.5,29.6104,-4.7669,-3.86258,0.676224
607,29.6261,-4.77176,-3.86258,0.675875
607.5,29.6417,-4.77494,-3.86258,0.675515
608,29.6574,-4.77947,-3.86257,0.675166
608.5,29.6729,-4.78965,-3.86294,0.674805
609,29.6885,-4.79286,-3.86358,0.674455
609.5,29.7041,-4.79089,-3.86357,0.674095
610,29.7198,-4.78892,-3.86357,0.673745
610.5,29.7355,-4.79921,-3.86357,0.673384
611,29.7512,-4.80573,-3.86357,0.673035
611.5,29.7669,-4.81375,-3.86357,0.672685
612,29.7825,-4.82246,-3.86414,0.672335
612.5,29.7981,-4.82386,-3.8649,0.671975
613,29.8138,-4.83014,-3.86489,0.671625
613.5,29.8295,-4.83197,-3.86489,0.671275
614,29.8452,-4.83857,-3.86489,0.670925
614.5,29.8609,-4.82793,-3.86489,0.670575
615,29.8766,-4.84971,-3.86489,0.670225
615.5,29.8923,-4.85533,-3.86491,0.669875
616,29.908,-4.85258,-3.8645,0.669525
616.5,29.9236,-4.86374,-3.86421,0.669175
617,29.9394,-4.86768,-3.86396,0.668825
617.5,29.9551,-4.86785,-3.86326,0.668474
618,29.9708,-4.86497,-3.86324,0.668135
618.5,29.9865,-4.85769,-3.86324,0.667785
619,,,,
619.5,,,,
620,,,,
620.5,,,,
621,,,,
621.5,,,,
622,,,,
622.5,,,,
623,,,,
623.5,,,,
624,,,,
624.5,,,,
625,,,,
625.5,,,,
626,,,,
626.5,,,,
627,,,,
627.5,,,,
628,,,,
628.5,,,,
629,,,,
629.5,,,,
630,,,,
630.5,,,,
631,,,,
631.5,,,,
632,,,,
632.5,,,,
633,,,,
633.5,,,,
634,,,,
634.5,,,,
635,,,,
635.5,,,,
636,,,,
636.5,,,,
637,,,,
637.5,,,,
638,,,,
638.5,,,,
639,,,,
639.5,,,,
640,,,,
640.5,,,,
641,,,,
641.5,,,,
642,,,,
642.5,,,,
643,,,,
643.5,,,,
644,,,,
644.5,,,,
645,,,,
645.5,,,,
646,,,,
646.5,,,,
647,,,,
647.5,,,,
648,,,,
648.5,,,,
649,,,,
649.5,,,,
650,,,,
650.5,,,,
651,,,,
651.5,,,,
652,,,,
652.5,,,,
653,,,,
653.5,,,,
654,,,,
654.5,,,,
655,,,,
655.5,,,,
656,,,,
656.5,,,,
657,,,,
657.5,,,,
658,,,,
658.5,,,,
659,,,,
659.5,,,,
660,,,,
660.5,,,,
661,,,,
661.5,,,,
662,,,,
662.5,,,,
663,,,,
663.5,,,,
664,,,,
664.5,,,,
665,,,,
665.5,,,,
666,,,,
666.5,,,,
667,,,,
667.5,,,,
668,,,,
668.5,,,,
669,,,,
669.5,,,,
670,,,,
670.5,,,,
671,,,,
671.5,,,,
672,,,,
672.5,,,,
673,,,,
673.5,,,,
674,,,,
674.5,,,,
675,,,,
675.5,,,,
676,,,,
676.5,,,,
677,,,,
677.5,,,,
678,,,,
678.5,,,,
679,,,,
679.5,,,,
680,,,,
680.5,,,,
681,,,,
681.5,,,,
682,,,,
682.5,,,,
683,,,,
683.5,,,,
684,,,,
684.5,,,,
685,,,,
685.5,,,,
686,,,,
686.5,,,,
687,,,,
687.5,,,,
688,,,,
688.5,,,,
689,,,,
689.5,,,,
690,,,,
690.5,,,,
691,,,,
691.5,,,,
692,,,,
692.5,,,,
693,,,,
693.5,,,,
694,,,,
694.5,,,,
695,,,,
695.5,,,,
696,,,,
696.5,,,,
697,,,,
697.5,,,,
698,,,,
698.5,,,,
699,,,,
699.5,,,,
700,,,,
700.5,,,,
701,,,,
701.5,,,,
702,,,,
702.5,,,,
703,,,,
703.5,,,,
704,,,,
704.5,,,,
705,,,,
705.5,,,,
706,,,,
706.5,,,,
707,,,,
707.5,,,,
708,,,,
708.5,,,,
709,,,,
709.5,,,,
710,,,,
710.5,,,,
711,,,,
711.5,,,,
712,,,,
712.5,,,,
713,,,,
713.5,,,,
714,,,,
714.5,,,,
715,,,,
715.5,,,,
716,,,,
716.5,,,,
717,,,,
717.5,,,,
718,,,,
718.5,,,,
719,,,,
719.5,,,,
720,,,,
720.5,,,,
721,,,,
721.5,,,,
722,,,,
722.5,,,,
723,,,,
723.5,,,,
724,,,,
724.5,,,,
725,,,,
725.5,,,,
726,,,,
726.5,,,,
727,,,,
727.5,,,,
728,,,,
728.5,,,,
729,,,,
729.5,,,,
730,,,,
730.5,,,,
731,,,,
731.5,,,,
732,,,,
732.5,,,,
733,,,,
733.5,,,,
734,,,,
734.5,,,,
735,,,,
735.5,,,,
736,,,,
736.5,,,,
737,,,,
737.5,,,,
738,,,,
738.5,,,,
739,,,,
739.5,,,,
740,,,,
740.5,,,,
741,,,,
741.5,,,,
742,,,,
742.5,,,,
743,,,,
743.5,,,,
744,,,,
744.5,,,,
745,,,,
745.5,,,,
746,,,,
746.5,,,,
747,,,,
747.5,,,,
748,,,,
748.5,,,,
749,,,,
749.5,,,,
750,,,,