File: 01_Data/Polyurethane_Foam/FTIR/ATR/Polyurethane_Foam_ATR_210608_R2.tst
4497.79,-0.00527
4493.93,-0.00522
4490.07,-0.00495
4486.22,-0.00466
4482.36,-0.00508
4478.5,-0.00494
4474.64,-0.00483
4470.79,-0.00476
4466.93,-0.00492
4463.07,-0.00467
4459.21,-0.00465
4455.36,-0.00453
4451.5,-0.00457
4447.64,-0.00458
4443.79,-0.00446
4439.93,-0.00408
4436.07,-0.00415
4432.21,-0.00428
4428.36,-0.00420
4424.5,-0.00411
4420.64,-0.00403
4416.78,-0.00378
4412.93,-0.00368
4409.07,-0.00392
4405.21,-0.00386
4401.35,-0.00382
4397.5,-0.00382
4393.64,-0.00379
4389.78,-0.00378
4385.92,-0.00391
4382.07,-0.00371
4378.21,-0.00356
4374.35,-0.00369
4370.49,-0.00380
4366.64,-0.00358
4362.78,-0.00325
4358.92,-0.00340
4355.06,-0.00345
4351.21,-0.00331
4347.35,-0.00320
4343.49,-0.00313
4339.63,-0.00291
4335.78,-0.00285
4331.92,-0.00288
4328.06,-0.00287
4324.2,-0.00296
4320.35,-0.00311
4316.49,-0.00289
4312.63,-0.00300
4308.77,-0.00314
4304.92,-0.00324
4301.06,-0.00327
4297.2,-0.00324
4293.34,-0.00333
4289.49,-0.00310
4285.63,-0.00331
4281.77,-0.00331
4277.91,-0.00332
4274.06,-0.00334
4270.2,-0.00313
4266.34,-0.00314
4262.48,-0.00328
4258.63,-0.00349
4254.77,-0.00326
4250.91,-0.00333
4247.06,-0.00343
4243.2,-0.00340
4239.34,-0.00341
4235.48,-0.00334
4231.63,-0.00338
4227.77,-0.00340
4223.91,-0.00331
4220.05,-0.00329
4216.2,-0.00342
4212.34,-0.00327
4208.48,-0.00327
4204.62,-0.00319
4200.77,-0.00316
4196.91,-0.00334
4193.05,-0.00308
4189.19,-0.00311
4185.34,-0.00335
4181.48,-0.00340
4177.62,-0.00330
4173.76,-0.00304
4169.91,-0.00308
4166.05,-0.00299
4162.19,-0.00304
4158.33,-0.00304
4154.48,-0.00295
4150.62,-0.00308
4146.76,-0.00299
4142.9,-0.00281
4139.05,-0.00276
4135.19,-0.00277
4131.33,-0.00285
4127.47,-0.00288
4123.62,-0.00280
4119.76,-0.00267
4115.9,-0.00280
4112.04,-0.00294
4108.19,-0.00267
4104.33,-0.00234
4100.47,-0.00258
4096.61,-0.00262
4092.76,-0.00271
4088.9,-0.00235
4085.04,-0.00232
4081.18,-0.00218
4077.33,-0.00223
4073.47,-0.00213
4069.61,-0.00237
4065.75,-0.00236
4061.9,-0.00210
4058.04,-0.00211
4054.18,-0.00216
4050.33,-0.00216
4046.47,-0.00173
4042.61,-0.00170
4038.75,-0.00222
4034.9,-0.00206
4031.04,-0.00196
4027.18,-0.00162
4023.32,-0.00161
4019.47,-0.00152
4015.61,-0.00157
4011.75,-0.00163
4007.89,-0.00146
4004.04,-0.00176
4000.18,-0.00194
3996.32,-0.00152
3992.46,-0.00113
3988.61,-0.00152
3984.75,-0.00150
3980.89,-0.00134
3977.03,-0.00090
3973.18,-0.00079
3969.32,-0.00139
3965.46,-0.00148
3961.6,-0.00066
3957.75,-0.00089
3953.89,-0.00095
3950.03,0.00048
3946.17,0.00018
3942.32,-0.00016
3938.46,-0.00118
3934.6,-0.00010
3930.74,0.00099
3926.89,0.00030
3923.03,0.00090
3919.17,0.00081
3915.31,-0.00029
3911.46,-0.00159
3907.6,0.00001
3903.74,0.00456
3899.88,0.00324
3896.03,0.00052
3892.17,0.00169
3888.31,0.00051
3884.45,0.00258
3880.6,0.00121
3876.74,-0.00017
3872.88,0.00250
3869.02,0.00310
3865.17,0.00374
3861.31,0.00196
3857.45,0.00221
3853.59,0.00575
3849.74,0.00147
3845.88,0.00051
3842.02,0.00347
3838.17,0.00521
3834.31,0.00210
3830.45,0.00099
3826.59,0.00181
3822.74,0.00327
3818.88,0.00356
3815.02,0.00076
3811.16,-0.00076
3807.31,0.00086
3803.45,0.00269
3799.59,0.00315
3795.73,0.00007
3791.88,-0.00168
3788.02,-0.00071
3784.16,0.00020
3780.3,0.00003
3776.45,-0.00108
3772.59,-0.00039
3768.73,0.00139
3764.87,0.00073
3761.02,0.00119
3757.16,0.00293
3753.3,0.00552
3749.44,0.00833
3745.59,0.00649
3741.73,0.00451
3737.87,0.00608
3734.01,0.00539
3730.16,0.00206
3726.3,0.00354
3722.44,0.00239
3718.58,0.00072
3714.73,0.00194
3710.87,0.00400
3707.01,0.00040
3703.15,0.00024
3699.3,-0.00025
3695.44,0.00035
3691.58,0.00352
3687.72,0.00275
3683.87,0.00018
3680.01,0.00191
3676.15,0.00500
3672.29,0.00485
3668.44,0.00289
3664.58,0.00022
3660.72,0.00051
3656.86,0.00232
3653.01,0.00373
3649.15,0.00925
3645.29,0.00369
3641.44,0.00226
3637.58,0.00190
3633.72,0.00323
3629.86,0.00600
3626.01,0.00404
3622.15,0.00454
3618.29,0.00762
3614.43,0.00712
3610.58,0.00676
3606.72,0.00527
3602.86,0.00474
3599,0.00637
3595.15,0.00609
3591.29,0.00549
3587.43,0.00833
3583.57,0.00570
3579.72,0.00513
3575.86,0.00500
3572,0.00547
3568.14,0.00983
3564.29,0.00852
3560.43,0.00623
3556.57,0.00547
3552.71,0.00663
3548.86,0.00706
3545,0.00863
3541.14,0.00575
3537.28,0.00609
3533.43,0.00627
3529.57,0.00820
3525.71,0.00943
3521.85,0.00804
3518,0.00650
3514.14,0.00638
3510.28,0.00756
3506.42,0.00758
3502.57,0.00893
3498.71,0.00718
3494.85,0.00664
3490.99,0.00657
3487.14,0.00707
3483.28,0.00741
3479.42,0.00678
3475.56,0.00632
3471.71,0.00621
3467.85,0.00647
3463.99,0.00687
3460.13,0.00715
3456.28,0.00672
3452.42,0.00643
3448.56,0.00740
3444.7,0.00743
3440.85,0.00682
3436.99,0.00637
3433.13,0.00647
3429.28,0.00667
3425.42,0.00703
3421.56,0.00824
3417.7,0.00778
3413.85,0.00794
3409.99,0.00822
3406.13,0.00863
3402.27,0.00925
3398.42,0.01024
3394.56,0.01113
3390.7,0.01170
3386.84,0.01247
3382.99,0.01359
3379.13,0.01433
3375.27,0.01509
3371.41,0.01609
3367.56,0.01746
3363.7,0.01839
3359.84,0.01907
3355.98,0.01969
3352.13,0.02009
3348.27,0.02086
3344.41,0.02192
3340.55,0.02294
3336.7,0.02418
3332.84,0.02475
3328.98,0.02571
3325.12,0.02668
3321.27,0.02738
3317.41,0.02828
3313.55,0.02946
3309.69,0.03066
3305.84,0.03115
3301.98,0.03168
3298.12,0.03215
3294.26,0.03252
3290.41,0.03271
3286.55,0.03240
3282.69,0.03237
3278.83,0.03197
3274.98,0.03165
3271.12,0.03070
3267.26,0.02991
3263.4,0.02897
3259.55,0.02777
3255.69,0.02678
3251.83,0.02534
3247.97,0.02412
3244.12,0.02296
3240.26,0.02157
3236.4,0.02048
3232.55,0.01940
3228.69,0.01844
3224.83,0.01740
3220.97,0.01684
3217.12,0.01632
3213.26,0.01573
3209.4,0.01511
3205.54,0.01463
3201.69,0.01437
3197.83,0.01416
3193.97,0.01338
3190.11,0.01278
3186.26,0.01257
3182.4,0.01220
3178.54,0.01183
3174.68,0.01114
3170.83,0.01076
3166.97,0.01040
3163.11,0.01012
3159.25,0.00990
3155.4,0.00989
3151.54,0.00977
3147.68,0.00956
3143.82,0.00954
3139.97,0.00947
3136.11,0.00943
3132.25,0.00940
3128.39,0.00934
3124.54,0.00932
3120.68,0.00930
3116.82,0.00915
3112.96,0.00882
3109.11,0.00870
3105.25,0.00868
3101.39,0.00901
3097.53,0.00893
3093.68,0.00897
3089.82,0.00898
3085.96,0.00915
3082.1,0.00957
3078.25,0.00956
3074.39,0.00940
3070.53,0.00954
3066.67,0.00973
3062.82,0.00952
3058.96,0.00935
3055.1,0.00945
3051.24,0.00939
3047.39,0.00947
3043.53,0.00946
3039.67,0.00953
3035.82,0.00991
3031.96,0.01037
3028.1,0.01000
3024.24,0.00991
3020.39,0.00977
3016.53,0.00998
3012.67,0.01102
3008.81,0.01196
3004.96,0.01370
3001.1,0.01657
2997.24,0.02118
2993.38,0.02762
2989.53,0.03557
2985.67,0.04460
2981.81,0.05407
2977.95,0.06364
2974.1,0.07198
2970.24,0.07514
2966.38,0.06825
2962.52,0.05504
2958.67,0.04462
2954.81,0.04017
2950.95,0.03974
2947.09,0.04240
2943.24,0.04786
2939.38,0.05594
2935.52,0.06429
2931.66,0.06914
2927.81,0.06939
2923.95,0.06788
2920.09,0.06649
2916.23,0.06625
2912.38,0.06739
2908.52,0.06942
2904.66,0.07205
2900.8,0.07441
2896.95,0.07575
2893.09,0.07620
2889.23,0.07636
2885.37,0.07726
2881.52,0.07957
2877.66,0.08319
2873.8,0.08696
2869.94,0.08923
2866.09,0.08878
2862.23,0.08546
2858.37,0.07954
2854.51,0.07154
2850.66,0.06222
2846.8,0.05245
2842.94,0.04336
2839.08,0.03560
2835.23,0.02944
2831.37,0.02504
2827.51,0.02198
2823.66,0.01991
2819.8,0.01854
2815.94,0.01768
2812.08,0.01696
2808.23,0.01650
2804.37,0.01614
2800.51,0.01594
2796.65,0.01557
2792.8,0.01525
2788.94,0.01479
2785.08,0.01429
2781.22,0.01395
2777.37,0.01344
2773.51,0.01305
2769.65,0.01262
2765.79,0.01209
2761.94,0.01166
2758.08,0.01133
2754.22,0.01093
2750.36,0.01067
2746.51,0.01043
2742.65,0.01012
2738.79,0.00981
2734.93,0.00953
2731.08,0.00929
2727.22,0.00898
2723.36,0.00862
2719.5,0.00825
2715.65,0.00788
2711.79,0.00762
2707.93,0.00736
2704.07,0.00720
2700.22,0.00704
2696.36,0.00685
2692.5,0.00661
2688.64,0.00648
2684.79,0.00639
2680.93,0.00625
2677.07,0.00632
2673.21,0.00627
2669.36,0.00616
2665.5,0.00608
2661.64,0.00591
2657.78,0.00572
2653.93,0.00553
2650.07,0.00540
2646.21,0.00511
2642.35,0.00495
2638.5,0.00485
2634.64,0.00454
2630.78,0.00436
2626.93,0.00435
2623.07,0.00419
2619.21,0.00388
2615.35,0.00381
2611.5,0.00378
2607.64,0.00372
2603.78,0.00368
2599.92,0.00371
2596.07,0.00382
2592.21,0.00386
2588.35,0.00374
2584.49,0.00367
2580.64,0.00363
2576.78,0.00341
2572.92,0.00327
2569.06,0.00308
2565.21,0.00291
2561.35,0.00274
2557.49,0.00257
2553.63,0.00259
2549.78,0.00251
2545.92,0.00255
2542.06,0.00252
2538.2,0.00268
2534.35,0.00265
2530.49,0.00250
2526.63,0.00247
2522.77,0.00244
2518.92,0.00249
2515.06,0.00244
2511.2,0.00237
2507.34,0.00256
2503.49,0.00258
2499.63,0.00245
2495.77,0.00245
2491.91,0.00248
2488.06,0.00255
2484.2,0.00246
2480.34,0.00247
2476.48,0.00249
2472.63,0.00255
2468.77,0.00263
2464.91,0.00246
2461.05,0.00246
2457.2,0.00236
2453.34,0.00225
2449.48,0.00229
2445.62,0.00227
2441.77,0.00218
2437.91,0.00239
2434.05,0.00251
2430.2,0.00249
2426.34,0.00237
2422.48,0.00239
2418.62,0.00234
2414.77,0.00237
2410.91,0.00242
2407.05,0.00256
2403.19,0.00259
2399.34,0.00267
2395.48,0.00268
2391.62,0.00275
2387.76,0.00301
2383.91,0.00342
2380.05,0.00346
2376.19,0.00276
2372.33,0.00106
2368.48,-0.00194
2364.62,-0.00371
2360.76,-0.00411
2356.9,-0.00312
2353.05,-0.00028
2349.19,0.00178
2345.33,-0.00029
2341.47,-0.00212
2337.62,-0.00176
2333.76,-0.00123
2329.9,-0.00026
2326.04,0.00091
2322.19,0.00225
2318.33,0.00285
2314.47,0.00341
2310.61,0.00425
2306.76,0.00426
2302.9,0.00409
2299.04,0.00423
2295.18,0.00422
2291.33,0.00436
2287.47,0.00455
2283.61,0.00462
2279.75,0.00462
2275.9,0.00486
2272.04,0.00470
2268.18,0.00456
2264.32,0.00424
2260.47,0.00397
2256.61,0.00363
2252.75,0.00356
2248.89,0.00347
2245.04,0.00362
2241.18,0.00321
2237.32,0.00269
2233.46,0.00317
2229.61,0.00285
2225.75,0.00262
2221.89,0.00268
2218.04,0.00252
2214.18,0.00219
2210.32,0.00182
2206.46,0.00188
2202.61,0.00190
2198.75,0.00169
2194.89,0.00151
2191.03,0.00165
2187.18,0.00124
2183.32,0.00075
2179.46,0.00092
2175.6,0.00089
2171.75,0.00066
2167.89,0.00071
2164.03,0.00038
2160.17,0.00001
2156.32,0.00063
2152.46,0.00128
2148.6,0.00186
2144.74,0.00159
2140.89,0.00166
2137.03,0.00207
2133.17,0.00223
2129.31,0.00210
2125.46,0.00211
2121.6,0.00210
2117.74,0.00214
2113.88,0.00215
2110.03,0.00187
2106.17,0.00221
2102.31,0.00241
2098.45,0.00252
2094.6,0.00270
2090.74,0.00309
2086.88,0.00309
2083.02,0.00290
2079.17,0.00297
2075.31,0.00296
2071.45,0.00299
2067.59,0.00349
2063.74,0.00371
2059.88,0.00331
2056.02,0.00335
2052.16,0.00349
2048.31,0.00328
2044.45,0.00348
2040.59,0.00389
2036.73,0.00350
2032.88,0.00345
2029.02,0.00330
2025.16,0.00383
2021.31,0.00409
2017.45,0.00442
2013.59,0.00396
2009.73,0.00432
2005.88,0.00433
2002.02,0.00405
1998.16,0.00389
1994.3,0.00462
1990.45,0.00525
1986.59,0.00458
1982.73,0.00449
1978.87,0.00421
1975.02,0.00412
1971.16,0.00434
1967.3,0.00497
1963.44,0.00440
1959.59,0.00435
1955.73,0.00496
1951.87,0.00483
1948.01,0.00502
1944.16,0.00617
1940.3,0.00532
1936.44,0.00483
1932.58,0.00490
1928.73,0.00477
1924.87,0.00609
1921.01,0.00673
1917.15,0.00602
1913.3,0.00531
1909.44,0.00625
1905.58,0.00531
1901.72,0.00504
1897.87,0.00545
1894.01,0.00577
1890.15,0.00601
1886.29,0.00571
1882.44,0.00527
1878.58,0.00504
1874.72,0.00514
1870.86,0.00729
1867.01,0.00778
1863.15,0.00576
1859.29,0.00587
1855.43,0.00533
1851.58,0.00550
1847.72,0.00760
1843.86,0.00879
1840,0.00660
1836.15,0.00652
1832.29,0.00694
1828.43,0.00802
1824.57,0.00772
1820.72,0.00662
1816.86,0.00667
1813,0.00759
1809.15,0.00825
1805.29,0.00796
1801.43,0.00990
1797.57,0.01032
1793.72,0.01158
1789.86,0.01024
1786,0.00950
1782.14,0.01059
1778.29,0.01098
1774.43,0.01232
1770.57,0.01369
1766.71,0.01210
1762.86,0.01310
1759,0.01532
1755.14,0.01726
1751.28,0.02341
1747.43,0.03356
1743.57,0.04089
1739.71,0.05290
1735.85,0.06493
1732,0.08124
1728.14,0.08227
1724.28,0.08189
1720.42,0.08126
1716.57,0.08353
1712.71,0.07673
1708.85,0.07320
1704.99,0.07172
1701.14,0.06949
1697.28,0.06598
1693.42,0.05814
1689.56,0.05753
1685.71,0.05810
1681.85,0.05724
1677.99,0.05469
1674.13,0.05545
1670.28,0.05745
1666.42,0.05662
1662.56,0.05994
1658.7,0.06300
1654.85,0.06871
1650.99,0.08055
1647.13,0.09140
1643.27,0.09987
1639.42,0.10302
1635.56,0.08920
1631.7,0.07150
1627.84,0.06322
1623.99,0.06206
1620.13,0.06378
1616.27,0.06826
1612.42,0.07219
1608.56,0.08135
1604.7,0.09038
1600.84,0.09576
1596.99,0.09530
1593.13,0.09037
1589.27,0.08265
1585.41,0.07335
1581.56,0.06510
1577.7,0.06317
1573.84,0.06732
1569.98,0.07869
1566.13,0.09564
1562.27,0.10837
1558.41,0.13366
1554.55,0.14749
1550.7,0.15461
1546.84,0.16163
1542.98,0.17392
1539.12,0.18037
1535.27,0.18006
1531.41,0.17788
1527.55,0.17309
1523.69,0.16373
1519.84,0.14448
1515.98,0.13229
1512.12,0.12768
1508.26,0.13106
1504.41,0.12109
1500.55,0.11602
1496.69,0.10594
1492.83,0.09813
1488.98,0.09681
1485.12,0.09184
1481.26,0.09551
1477.4,0.10369
1473.55,0.11018
1469.69,0.10233
1465.83,0.10201
1461.97,0.10518
1458.12,0.11498
1454.26,0.12349
1450.4,0.12294
1446.54,0.11720
1442.69,0.10415
1438.83,0.09126
1434.97,0.07385
1431.11,0.06580
1427.26,0.06299
1423.4,0.06555
1419.54,0.07256
1415.69,0.07837
1411.83,0.07944
1407.97,0.07789
1404.11,0.07465
1400.26,0.07234
1396.4,0.07254
1392.54,0.07083
1388.68,0.07448
1384.83,0.08392
1380.97,0.10037
1377.11,0.12660
1373.25,0.14263
1369.4,0.12383
1365.54,0.09276
1361.68,0.07014
1357.82,0.06088
1353.97,0.06225
1350.11,0.06769
1346.25,0.07370
1342.39,0.07806
1338.54,0.07877
1334.68,0.07233
1330.82,0.06968
1326.96,0.06943
1323.11,0.07194
1319.25,0.07681
1315.39,0.08119
1311.53,0.08542
1307.68,0.08945
1303.82,0.09446
1299.96,0.10013
1296.1,0.10342
1292.25,0.10055
1288.39,0.09512
1284.53,0.09189
1280.67,0.09234
1276.82,0.09378
1272.96,0.09573
1269.1,0.09787
1265.24,0.10030
1261.39,0.10224
1257.53,0.10291
1253.67,0.10491
1249.81,0.11003
1245.96,0.11876
1242.1,0.13089
1238.24,0.14523
1234.38,0.16034
1230.53,0.17439
1226.67,0.18414
1222.81,0.18514
1218.95,0.17689
1215.1,0.16328
1211.24,0.14913
1207.38,0.13813
1203.53,0.13041
1199.67,0.12205
1195.81,0.11240
1191.95,0.10641
1188.1,0.10532
1184.24,0.10537
1180.38,0.10600
1176.52,0.11011
1172.67,0.11803
1168.81,0.12840
1164.95,0.14022
1161.09,0.15167
1157.24,0.16243
1153.38,0.17223
1149.52,0.18163
1145.66,0.19156
1141.81,0.20381
1137.95,0.21872
1134.09,0.23569
1130.23,0.25342
1126.38,0.27347
1122.52,0.29842
1118.66,0.32703
1114.8,0.35626
1110.95,0.38385
1107.09,0.40771
1103.23,0.42637
1099.37,0.43982
1095.52,0.44775
1091.66,0.45066
1087.8,0.44895
1083.94,0.44234
1080.09,0.43068
1076.23,0.41307
1072.37,0.39167
1068.51,0.36881
1064.66,0.34527
1060.8,0.32112
1056.94,0.29614
1053.08,0.26916
1049.23,0.24136
1045.37,0.21469
1041.51,0.19287
1037.65,0.17566
1033.8,0.16149
1029.94,0.15091
1026.08,0.14702
1022.22,0.15081
1018.37,0.15696
1014.51,0.16027
1010.65,0.15829
1006.8,0.15469
1002.94,0.15050
999.08,0.14002
995.223,0.12220
991.365,0.10461
987.508,0.09151
983.65,0.08387
979.793,0.07969
975.935,0.07785
972.078,0.07785
968.221,0.07735
964.363,0.07455
960.506,0.07103
956.648,0.06713
952.791,0.06470
948.933,0.06639
945.076,0.07437
941.218,0.08515
937.361,0.09509
933.503,0.10210
929.646,0.10662
925.789,0.10816
921.931,0.10490
918.074,0.09793
914.216,0.09249
910.359,0.09009
906.501,0.08773
902.644,0.08121
898.786,0.07368
894.929,0.06909
891.072,0.06785
887.214,0.06942
883.357,0.07173
879.499,0.07363
875.642,0.07544
871.784,0.07798
867.927,0.07888
864.069,0.07729
860.212,0.07487
856.354,0.07190
852.497,0.07037
848.64,0.06881
844.782,0.06789
840.925,0.06941
837.067,0.07156
833.21,0.07487
829.352,0.07996
825.495,0.08721
821.637,0.09431
817.78,0.09865
813.922,0.09747
810.065,0.09340
806.208,0.08698
802.35,0.08076
798.493,0.07609
794.635,0.07135
790.778,0.06875
786.92,0.06807
783.063,0.06850
779.205,0.07048
775.348,0.07453
771.49,0.07989
767.633,0.08187
763.776,0.07916
759.918,0.07777
756.061,0.07662
752.203,0.07502
748.346,0.07112
744.488,0.06739
740.631,0.06410
736.773,0.06337
732.916,0.06325
729.058,0.06420
725.201,0.06608
721.344,0.06838
717.486,0.07193
713.629,0.07599
709.771,0.07824
705.914,0.07823
702.056,0.07809
698.199,0.07964
694.341,0.08213
690.484,0.08468
686.627,0.08748
682.769,0.08956
678.912,0.09157
675.054,0.09403
671.197,0.09557
667.339,0.09638
663.482,0.09689
659.624,0.09626
655.767,0.09412
651.909,0.09203
648.052,0.09034
644.195,0.08941
640.337,0.08877
636.48,0.08788
632.622,0.08622
628.765,0.08426
624.907,0.08412
621.05,0.08386
617.192,0.08381
613.335,0.08431
609.477,0.08242
605.62,0.08082
601.763,0.08672
599.834,0.08953