File: 01_Data/Polyurethane_Foam/FTIR/ATR/Polyurethane_Foam_ATR_210608_R5.tst
4497.79,-0.00564
4493.93,-0.00551
4490.07,-0.00537
4486.22,-0.00536
4482.36,-0.00567
4478.5,-0.00539
4474.64,-0.00541
4470.79,-0.00533
4466.93,-0.00570
4463.07,-0.00547
4459.21,-0.00539
4455.36,-0.00530
4451.5,-0.00512
4447.64,-0.00539
4443.79,-0.00511
4439.93,-0.00470
4436.07,-0.00482
4432.21,-0.00534
4428.36,-0.00512
4424.5,-0.00463
4420.64,-0.00477
4416.78,-0.00458
4412.93,-0.00440
4409.07,-0.00423
4405.21,-0.00423
4401.35,-0.00443
4397.5,-0.00442
4393.64,-0.00455
4389.78,-0.00432
4385.92,-0.00435
4382.07,-0.00431
4378.21,-0.00411
4374.35,-0.00425
4370.49,-0.00441
4366.64,-0.00429
4362.78,-0.00398
4358.92,-0.00399
4355.06,-0.00396
4351.21,-0.00377
4347.35,-0.00370
4343.49,-0.00365
4339.63,-0.00351
4335.78,-0.00376
4331.92,-0.00360
4328.06,-0.00346
4324.2,-0.00364
4320.35,-0.00335
4316.49,-0.00338
4312.63,-0.00355
4308.77,-0.00349
4304.92,-0.00358
4301.06,-0.00396
4297.2,-0.00396
4293.34,-0.00379
4289.49,-0.00361
4285.63,-0.00391
4281.77,-0.00396
4277.91,-0.00396
4274.06,-0.00393
4270.2,-0.00373
4266.34,-0.00373
4262.48,-0.00364
4258.63,-0.00381
4254.77,-0.00389
4250.91,-0.00403
4247.06,-0.00415
4243.2,-0.00400
4239.34,-0.00371
4235.48,-0.00383
4231.63,-0.00395
4227.77,-0.00374
4223.91,-0.00365
4220.05,-0.00367
4216.2,-0.00386
4212.34,-0.00369
4208.48,-0.00379
4204.62,-0.00377
4200.77,-0.00371
4196.91,-0.00369
4193.05,-0.00356
4189.19,-0.00372
4185.34,-0.00389
4181.48,-0.00379
4177.62,-0.00386
4173.76,-0.00360
4169.91,-0.00354
4166.05,-0.00350
4162.19,-0.00344
4158.33,-0.00348
4154.48,-0.00354
4150.62,-0.00360
4146.76,-0.00341
4142.9,-0.00328
4139.05,-0.00321
4135.19,-0.00315
4131.33,-0.00337
4127.47,-0.00342
4123.62,-0.00339
4119.76,-0.00342
4115.9,-0.00321
4112.04,-0.00329
4108.19,-0.00309
4104.33,-0.00301
4100.47,-0.00312
4096.61,-0.00296
4092.76,-0.00296
4088.9,-0.00275
4085.04,-0.00262
4081.18,-0.00261
4077.33,-0.00275
4073.47,-0.00278
4069.61,-0.00285
4065.75,-0.00286
4061.9,-0.00246
4058.04,-0.00244
4054.18,-0.00252
4050.33,-0.00264
4046.47,-0.00225
4042.61,-0.00219
4038.75,-0.00251
4034.9,-0.00233
4031.04,-0.00231
4027.18,-0.00224
4023.32,-0.00213
4019.47,-0.00195
4015.61,-0.00204
4011.75,-0.00199
4007.89,-0.00199
4004.04,-0.00229
4000.18,-0.00228
3996.32,-0.00185
3992.46,-0.00152
3988.61,-0.00194
3984.75,-0.00204
3980.89,-0.00182
3977.03,-0.00138
3973.18,-0.00118
3969.32,-0.00186
3965.46,-0.00202
3961.6,-0.00116
3957.75,-0.00142
3953.89,-0.00150
3950.03,-0.00003
3946.17,-0.00030
3942.32,-0.00054
3938.46,-0.00168
3934.6,-0.00052
3930.74,0.00074
3926.89,-0.00013
3923.03,0.00038
3919.17,0.00032
3915.31,-0.00087
3911.46,-0.00213
3907.6,-0.00034
3903.74,0.00425
3899.88,0.00270
3896.03,0.00020
3892.17,0.00129
3888.31,0.00018
3884.45,0.00215
3880.6,0.00088
3876.74,-0.00045
3872.88,0.00210
3869.02,0.00257
3865.17,0.00331
3861.31,0.00134
3857.45,0.00166
3853.59,0.00468
3849.74,0.00098
3845.88,0.00009
3842.02,0.00306
3838.17,0.00468
3834.31,0.00146
3830.45,0.00045
3826.59,0.00127
3822.74,0.00235
3818.88,0.00296
3815.02,0.00025
3811.16,-0.00118
3807.31,0.00041
3803.45,0.00201
3799.59,0.00256
3795.73,-0.00007
3791.88,-0.00167
3788.02,-0.00084
3784.16,-0.00027
3780.3,-0.00046
3776.45,-0.00155
3772.59,-0.00090
3768.73,0.00092
3764.87,0.00054
3761.02,0.00104
3757.16,0.00250
3753.3,0.00422
3749.44,0.00710
3745.59,0.00577
3741.73,0.00394
3737.87,0.00535
3734.01,0.00501
3730.16,0.00151
3726.3,0.00292
3722.44,0.00231
3718.58,0.00035
3714.73,0.00121
3710.87,0.00318
3707.01,-0.00000
3703.15,-0.00010
3699.3,-0.00058
3695.44,0.00000
3691.58,0.00283
3687.72,0.00209
3683.87,-0.00005
3680.01,0.00156
3676.15,0.00502
3672.29,0.00474
3668.44,0.00238
3664.58,-0.00003
3660.72,0.00033
3656.86,0.00199
3653.01,0.00327
3649.15,0.00845
3645.29,0.00327
3641.44,0.00216
3637.58,0.00197
3633.72,0.00319
3629.86,0.00584
3626.01,0.00401
3622.15,0.00433
3618.29,0.00749
3614.43,0.00747
3610.58,0.00716
3606.72,0.00549
3602.86,0.00518
3599,0.00683
3595.15,0.00666
3591.29,0.00626
3587.43,0.00899
3583.57,0.00630
3579.72,0.00582
3575.86,0.00571
3572,0.00605
3568.14,0.01026
3564.29,0.00953
3560.43,0.00721
3556.57,0.00639
3552.71,0.00763
3548.86,0.00822
3545,0.00965
3541.14,0.00684
3537.28,0.00732
3533.43,0.00762
3529.57,0.00939
3525.71,0.01077
3521.85,0.00922
3518,0.00765
3514.14,0.00768
3510.28,0.00897
3506.42,0.00880
3502.57,0.01018
3498.71,0.00846
3494.85,0.00809
3490.99,0.00805
3487.14,0.00853
3483.28,0.00879
3479.42,0.00829
3475.56,0.00778
3471.71,0.00766
3467.85,0.00792
3463.99,0.00846
3460.13,0.00868
3456.28,0.00825
3452.42,0.00790
3448.56,0.00902
3444.7,0.00919
3440.85,0.00849
3436.99,0.00793
3433.13,0.00820
3429.28,0.00834
3425.42,0.00880
3421.56,0.00985
3417.7,0.00938
3413.85,0.00957
3409.99,0.00992
3406.13,0.01018
3402.27,0.01085
3398.42,0.01183
3394.56,0.01284
3390.7,0.01341
3386.84,0.01401
3382.99,0.01510
3379.13,0.01586
3375.27,0.01658
3371.41,0.01746
3367.56,0.01884
3363.7,0.01975
3359.84,0.02042
3355.98,0.02103
3352.13,0.02149
3348.27,0.02221
3344.41,0.02317
3340.55,0.02413
3336.7,0.02533
3332.84,0.02582
3328.98,0.02672
3325.12,0.02773
3321.27,0.02838
3317.41,0.02933
3313.55,0.03055
3309.69,0.03157
3305.84,0.03191
3301.98,0.03245
3298.12,0.03305
3294.26,0.03340
3290.41,0.03350
3286.55,0.03327
3282.69,0.03316
3278.83,0.03275
3274.98,0.03242
3271.12,0.03155
3267.26,0.03076
3263.4,0.02986
3259.55,0.02867
3255.69,0.02775
3251.83,0.02618
3247.97,0.02500
3244.12,0.02391
3240.26,0.02254
3236.4,0.02148
3232.55,0.02047
3228.69,0.01952
3224.83,0.01853
3220.97,0.01803
3217.12,0.01737
3213.26,0.01682
3209.4,0.01627
3205.54,0.01583
3201.69,0.01558
3197.83,0.01523
3193.97,0.01451
3190.11,0.01398
3186.26,0.01374
3182.4,0.01336
3178.54,0.01298
3174.68,0.01231
3170.83,0.01183
3166.97,0.01158
3163.11,0.01121
3159.25,0.01091
3155.4,0.01080
3151.54,0.01076
3147.68,0.01063
3143.82,0.01038
3139.97,0.01035
3136.11,0.01034
3132.25,0.01022
3128.39,0.01014
3124.54,0.01009
3120.68,0.01007
3116.82,0.00984
3112.96,0.00956
3109.11,0.00951
3105.25,0.00952
3101.39,0.00977
3097.53,0.00972
3093.68,0.00974
3089.82,0.00983
3085.96,0.00999
3082.1,0.01044
3078.25,0.01044
3074.39,0.01014
3070.53,0.01023
3066.67,0.01051
3062.82,0.01028
3058.96,0.01017
3055.1,0.01027
3051.24,0.01020
3047.39,0.01026
3043.53,0.01012
3039.67,0.01010
3035.82,0.01052
3031.96,0.01095
3028.1,0.01059
3024.24,0.01056
3020.39,0.01041
3016.53,0.01058
3012.67,0.01156
3008.81,0.01241
3004.96,0.01419
3001.1,0.01715
2997.24,0.02165
2993.38,0.02812
2989.53,0.03589
2985.67,0.04478
2981.81,0.05417
2977.95,0.06354
2974.1,0.07175
2970.24,0.07456
2966.38,0.06746
2962.52,0.05449
2958.67,0.04431
2954.81,0.04005
2950.95,0.03972
2947.09,0.04239
2943.24,0.04789
2939.38,0.05575
2935.52,0.06377
2931.66,0.06854
2927.81,0.06869
2923.95,0.06711
2920.09,0.06598
2916.23,0.06595
2912.38,0.06708
2908.52,0.06911
2904.66,0.07157
2900.8,0.07381
2896.95,0.07509
2893.09,0.07555
2889.23,0.07569
2885.37,0.07657
2881.52,0.07893
2877.66,0.08262
2873.8,0.08623
2869.94,0.08837
2866.09,0.08779
2862.23,0.08432
2858.37,0.07834
2854.51,0.07034
2850.66,0.06114
2846.8,0.05157
2842.94,0.04264
2839.08,0.03511
2835.23,0.02917
2831.37,0.02492
2827.51,0.02199
2823.66,0.01998
2819.8,0.01860
2815.94,0.01769
2812.08,0.01701
2808.23,0.01655
2804.37,0.01618
2800.51,0.01590
2796.65,0.01559
2792.8,0.01522
2788.94,0.01480
2785.08,0.01429
2781.22,0.01392
2777.37,0.01348
2773.51,0.01308
2769.65,0.01258
2765.79,0.01207
2761.94,0.01169
2758.08,0.01131
2754.22,0.01092
2750.36,0.01064
2746.51,0.01039
2742.65,0.01011
2738.79,0.00984
2734.93,0.00957
2731.08,0.00933
2727.22,0.00899
2723.36,0.00862
2719.5,0.00824
2715.65,0.00795
2711.79,0.00761
2707.93,0.00735
2704.07,0.00713
2700.22,0.00701
2696.36,0.00679
2692.5,0.00655
2688.64,0.00644
2684.79,0.00636
2680.93,0.00630
2677.07,0.00627
2673.21,0.00622
2669.36,0.00618
2665.5,0.00608
2661.64,0.00589
2657.78,0.00562
2653.93,0.00548
2650.07,0.00537
2646.21,0.00510
2642.35,0.00493
2638.5,0.00480
2634.64,0.00455
2630.78,0.00441
2626.93,0.00426
2623.07,0.00405
2619.21,0.00383
2615.35,0.00385
2611.5,0.00376
2607.64,0.00363
2603.78,0.00366
2599.92,0.00361
2596.07,0.00366
2592.21,0.00369
2588.35,0.00366
2584.49,0.00359
2580.64,0.00344
2576.78,0.00331
2572.92,0.00312
2569.06,0.00287
2565.21,0.00277
2561.35,0.00260
2557.49,0.00254
2553.63,0.00251
2549.78,0.00243
2545.92,0.00249
2542.06,0.00255
2538.2,0.00250
2534.35,0.00240
2530.49,0.00239
2526.63,0.00232
2522.77,0.00225
2518.92,0.00227
2515.06,0.00226
2511.2,0.00230
2507.34,0.00233
2503.49,0.00249
2499.63,0.00232
2495.77,0.00227
2491.91,0.00239
2488.06,0.00240
2484.2,0.00230
2480.34,0.00228
2476.48,0.00233
2472.63,0.00251
2468.77,0.00258
2464.91,0.00244
2461.05,0.00238
2457.2,0.00221
2453.34,0.00212
2449.48,0.00211
2445.62,0.00204
2441.77,0.00208
2437.91,0.00221
2434.05,0.00226
2430.2,0.00222
2426.34,0.00212
2422.48,0.00218
2418.62,0.00222
2414.77,0.00225
2410.91,0.00227
2407.05,0.00233
2403.19,0.00241
2399.34,0.00244
2395.48,0.00238
2391.62,0.00241
2387.76,0.00275
2383.91,0.00314
2380.05,0.00311
2376.19,0.00219
2372.33,0.00035
2368.48,-0.00229
2364.62,-0.00435
2360.76,-0.00463
2356.9,-0.00400
2353.05,-0.00106
2349.19,0.00117
2345.33,-0.00070
2341.47,-0.00263
2337.62,-0.00258
2333.76,-0.00186
2329.9,-0.00046
2326.04,0.00065
2322.19,0.00197
2318.33,0.00261
2314.47,0.00307
2310.61,0.00383
2306.76,0.00399
2302.9,0.00376
2299.04,0.00379
2295.18,0.00397
2291.33,0.00400
2287.47,0.00422
2283.61,0.00433
2279.75,0.00425
2275.9,0.00446
2272.04,0.00429
2268.18,0.00419
2264.32,0.00386
2260.47,0.00348
2256.61,0.00319
2252.75,0.00324
2248.89,0.00315
2245.04,0.00306
2241.18,0.00289
2237.32,0.00262
2233.46,0.00267
2229.61,0.00249
2225.75,0.00213
2221.89,0.00199
2218.04,0.00206
2214.18,0.00197
2210.32,0.00153
2206.46,0.00157
2202.61,0.00170
2198.75,0.00123
2194.89,0.00060
2191.03,0.00069
2187.18,0.00098
2183.32,0.00036
2179.46,0.00044
2175.6,0.00044
2171.75,0.00016
2167.89,-0.00000
2164.03,-0.00018
2160.17,-0.00062
2156.32,-0.00017
2152.46,0.00105
2148.6,0.00119
2144.74,0.00132
2140.89,0.00169
2137.03,0.00187
2133.17,0.00168
2129.31,0.00181
2125.46,0.00191
2121.6,0.00171
2117.74,0.00191
2113.88,0.00203
2110.03,0.00186
2106.17,0.00178
2102.31,0.00199
2098.45,0.00214
2094.6,0.00241
2090.74,0.00278
2086.88,0.00275
2083.02,0.00276
2079.17,0.00279
2075.31,0.00262
2071.45,0.00269
2067.59,0.00328
2063.74,0.00364
2059.88,0.00310
2056.02,0.00295
2052.16,0.00298
2048.31,0.00256
2044.45,0.00312
2040.59,0.00378
2036.73,0.00303
2032.88,0.00286
2029.02,0.00276
2025.16,0.00353
2021.31,0.00325
2017.45,0.00408
2013.59,0.00339
2009.73,0.00372
2005.88,0.00364
2002.02,0.00342
1998.16,0.00346
1994.3,0.00437
1990.45,0.00516
1986.59,0.00419
1982.73,0.00388
1978.87,0.00357
1975.02,0.00323
1971.16,0.00372
1967.3,0.00501
1963.44,0.00406
1959.59,0.00425
1955.73,0.00456
1951.87,0.00439
1948.01,0.00475
1944.16,0.00579
1940.3,0.00502
1936.44,0.00454
1932.58,0.00450
1928.73,0.00432
1924.87,0.00561
1921.01,0.00632
1917.15,0.00552
1913.3,0.00499
1909.44,0.00595
1905.58,0.00506
1901.72,0.00487
1897.87,0.00517
1894.01,0.00542
1890.15,0.00581
1886.29,0.00541
1882.44,0.00494
1878.58,0.00485
1874.72,0.00489
1870.86,0.00706
1867.01,0.00768
1863.15,0.00557
1859.29,0.00558
1855.43,0.00509
1851.58,0.00528
1847.72,0.00737
1843.86,0.00853
1840,0.00641
1836.15,0.00638
1832.29,0.00688
1828.43,0.00793
1824.57,0.00762
1820.72,0.00655
1816.86,0.00651
1813,0.00752
1809.15,0.00826
1805.29,0.00804
1801.43,0.01015
1797.57,0.01059
1793.72,0.01185
1789.86,0.01074
1786,0.00999
1782.14,0.01119
1778.29,0.01159
1774.43,0.01287
1770.57,0.01437
1766.71,0.01295
1762.86,0.01403
1759,0.01644
1755.14,0.01865
1751.28,0.02515
1747.43,0.03550
1743.57,0.04274
1739.71,0.05486
1735.85,0.06686
1732,0.08306
1728.14,0.08422
1724.28,0.08414
1720.42,0.08369
1716.57,0.08636
1712.71,0.07935
1708.85,0.07592
1704.99,0.07451
1701.14,0.07231
1697.28,0.06895
1693.42,0.06117
1689.56,0.06055
1685.71,0.06107
1681.85,0.06038
1677.99,0.05794
1674.13,0.05893
1670.28,0.06110
1666.42,0.06054
1662.56,0.06390
1658.7,0.06720
1654.85,0.07308
1650.99,0.08488
1647.13,0.09471
1643.27,0.10178
1639.42,0.10354
1635.56,0.08918
1631.7,0.07228
1627.84,0.06492
1623.99,0.06427
1620.13,0.06604
1616.27,0.07042
1612.42,0.07423
1608.56,0.08298
1604.7,0.09146
1600.84,0.09650
1596.99,0.09596
1593.13,0.09111
1589.27,0.08350
1585.41,0.07429
1581.56,0.06604
1577.7,0.06409
1573.84,0.06837
1569.98,0.07969
1566.13,0.09676
1562.27,0.10949
1558.41,0.13445
1554.55,0.14890
1550.7,0.15687
1546.84,0.16466
1542.98,0.17699
1539.12,0.18338
1535.27,0.18370
1531.41,0.18134
1527.55,0.17650
1523.69,0.16713
1519.84,0.14783
1515.98,0.13561
1512.12,0.13102
1508.26,0.13411
1504.41,0.12371
1500.55,0.11880
1496.69,0.10842
1492.83,0.10053
1488.98,0.09884
1485.12,0.09378
1481.26,0.09745
1477.4,0.10571
1473.55,0.11227
1469.69,0.10443
1465.83,0.10406
1461.97,0.10713
1458.12,0.11658
1454.26,0.12500
1450.4,0.12455
1446.54,0.11862
1442.69,0.10551
1438.83,0.09257
1434.97,0.07531
1431.11,0.06734
1427.26,0.06449
1423.4,0.06722
1419.54,0.07420
1415.69,0.08001
1411.83,0.08116
1407.97,0.07959
1404.11,0.07645
1400.26,0.07440
1396.4,0.07468
1392.54,0.07297
1388.68,0.07676
1384.83,0.08644
1380.97,0.10307
1377.11,0.12925
1373.25,0.14476
1369.4,0.12593
1365.54,0.09478
1361.68,0.07202
1357.82,0.06284
1353.97,0.06416
1350.11,0.06948
1346.25,0.07536
1342.39,0.07965
1338.54,0.08024
1334.68,0.07384
1330.82,0.07123
1326.96,0.07108
1323.11,0.07353
1319.25,0.07836
1315.39,0.08273
1311.53,0.08694
1307.68,0.09101
1303.82,0.09607
1299.96,0.10175
1296.1,0.10510
1292.25,0.10218
1288.39,0.09679
1284.53,0.09355
1280.67,0.09390
1276.82,0.09523
1272.96,0.09733
1269.1,0.09965
1265.24,0.10220
1261.39,0.10453
1257.53,0.10553
1253.67,0.10768
1249.81,0.11288
1245.96,0.12171
1242.1,0.13388
1238.24,0.14802
1234.38,0.16301
1230.53,0.17666
1226.67,0.18601
1222.81,0.18698
1218.95,0.17873
1215.1,0.16531
1211.24,0.15149
1207.38,0.14066
1203.53,0.13300
1199.67,0.12471
1195.81,0.11518
1191.95,0.10940
1188.1,0.10837
1184.24,0.10828
1180.38,0.10904
1176.52,0.11301
1172.67,0.12059
1168.81,0.13070
1164.95,0.14217
1161.09,0.15351
1157.24,0.16412
1153.38,0.17415
1149.52,0.18364
1145.66,0.19368
1141.81,0.20591
1137.95,0.22097
1134.09,0.23808
1130.23,0.25603
1126.38,0.27634
1122.52,0.30126
1118.66,0.33014
1114.8,0.35967
1110.95,0.38742
1107.09,0.41132
1103.23,0.43022
1099.37,0.44359
1095.52,0.45245
1091.66,0.45574
1087.8,0.45439
1083.94,0.44887
1080.09,0.43766
1076.23,0.42039
1072.37,0.39882
1068.51,0.37557
1064.66,0.35149
1060.8,0.32702
1056.94,0.30155
1053.08,0.27415
1049.23,0.24604
1045.37,0.21950
1041.51,0.19729
1037.65,0.17971
1033.8,0.16510
1029.94,0.15400
1026.08,0.15007
1022.22,0.15350
1018.37,0.15981
1014.51,0.16292
1010.65,0.16069
1006.8,0.15677
1002.94,0.15226
999.08,0.14173
995.223,0.12373
991.365,0.10592
987.508,0.09265
983.65,0.08488
979.793,0.08062
975.935,0.07881
972.078,0.07864
968.221,0.07788
964.363,0.07521
960.506,0.07148
956.648,0.06769
952.791,0.06523
948.933,0.06718
945.076,0.07521
941.218,0.08615
937.361,0.09616
933.503,0.10345
929.646,0.10797
925.789,0.10934
921.931,0.10616
918.074,0.09898
914.216,0.09332
910.359,0.09083
906.501,0.08811
902.644,0.08121
898.786,0.07450
894.929,0.06997
891.072,0.06876
887.214,0.06996
883.357,0.07197
879.499,0.07391
875.642,0.07606
871.784,0.07828
867.927,0.07898
864.069,0.07774
860.212,0.07534
856.354,0.07267
852.497,0.07068
848.64,0.06921
844.782,0.06912
840.925,0.07032
837.067,0.07295
833.21,0.07674
829.352,0.08173
825.495,0.08867
821.637,0.09601
817.78,0.10043
813.922,0.09920
810.065,0.09488
806.208,0.08895
802.35,0.08342
798.493,0.07837
794.635,0.07370
790.778,0.07093
786.92,0.06975
783.063,0.07058
779.205,0.07269
775.348,0.07652
771.49,0.08176
767.633,0.08330
763.776,0.08222
759.918,0.07978
756.061,0.07797
752.203,0.07601
748.346,0.07239
744.488,0.06950
740.631,0.06684
736.773,0.06453
732.916,0.06404
729.058,0.06544
725.201,0.06752
721.344,0.07004
717.486,0.07326
713.629,0.07772
709.771,0.08011
705.914,0.08006
702.056,0.08000
698.199,0.08189
694.341,0.08430
690.484,0.08636
686.627,0.08863
682.769,0.09119
678.912,0.09402
675.054,0.09606
671.197,0.09754
667.339,0.09855
663.482,0.09915
659.624,0.09851
655.767,0.09651
651.909,0.09448
648.052,0.09321
644.195,0.09234
640.337,0.09154
636.48,0.09062
632.622,0.08929
628.765,0.08752
624.907,0.08631
621.05,0.08282
617.192,0.08414
613.335,0.08555
609.477,0.08489
605.62,0.08243
601.763,0.08661
599.834,0.08983