File: 01_Data/Polyurethane_Foam/FTIR/ATR/Polyurethane_Foam_ATR_210608_R3.tst
4497.79,-0.00556
4493.93,-0.00535
4490.07,-0.00521
4486.22,-0.00499
4482.36,-0.00526
4478.5,-0.00497
4474.64,-0.00521
4470.79,-0.00517
4466.93,-0.00511
4463.07,-0.00501
4459.21,-0.00498
4455.36,-0.00472
4451.5,-0.00473
4447.64,-0.00497
4443.79,-0.00461
4439.93,-0.00437
4436.07,-0.00462
4432.21,-0.00481
4428.36,-0.00451
4424.5,-0.00436
4420.64,-0.00450
4416.78,-0.00434
4412.93,-0.00403
4409.07,-0.00410
4405.21,-0.00422
4401.35,-0.00413
4397.5,-0.00393
4393.64,-0.00393
4389.78,-0.00388
4385.92,-0.00409
4382.07,-0.00406
4378.21,-0.00391
4374.35,-0.00409
4370.49,-0.00413
4366.64,-0.00391
4362.78,-0.00367
4358.92,-0.00362
4355.06,-0.00348
4351.21,-0.00345
4347.35,-0.00348
4343.49,-0.00345
4339.63,-0.00341
4335.78,-0.00322
4331.92,-0.00323
4328.06,-0.00330
4324.2,-0.00324
4320.35,-0.00307
4316.49,-0.00326
4312.63,-0.00340
4308.77,-0.00350
4304.92,-0.00345
4301.06,-0.00353
4297.2,-0.00354
4293.34,-0.00351
4289.49,-0.00338
4285.63,-0.00363
4281.77,-0.00361
4277.91,-0.00370
4274.06,-0.00364
4270.2,-0.00349
4266.34,-0.00358
4262.48,-0.00352
4258.63,-0.00356
4254.77,-0.00357
4250.91,-0.00369
4247.06,-0.00386
4243.2,-0.00361
4239.34,-0.00345
4235.48,-0.00360
4231.63,-0.00365
4227.77,-0.00352
4223.91,-0.00351
4220.05,-0.00352
4216.2,-0.00365
4212.34,-0.00361
4208.48,-0.00351
4204.62,-0.00348
4200.77,-0.00352
4196.91,-0.00355
4193.05,-0.00335
4189.19,-0.00345
4185.34,-0.00349
4181.48,-0.00344
4177.62,-0.00338
4173.76,-0.00327
4169.91,-0.00321
4166.05,-0.00321
4162.19,-0.00317
4158.33,-0.00329
4154.48,-0.00332
4150.62,-0.00335
4146.76,-0.00334
4142.9,-0.00319
4139.05,-0.00302
4135.19,-0.00307
4131.33,-0.00326
4127.47,-0.00329
4123.62,-0.00317
4119.76,-0.00307
4115.9,-0.00312
4112.04,-0.00307
4108.19,-0.00288
4104.33,-0.00254
4100.47,-0.00290
4096.61,-0.00289
4092.76,-0.00294
4088.9,-0.00262
4085.04,-0.00242
4081.18,-0.00229
4077.33,-0.00255
4073.47,-0.00247
4069.61,-0.00247
4065.75,-0.00263
4061.9,-0.00228
4058.04,-0.00239
4054.18,-0.00248
4050.33,-0.00241
4046.47,-0.00208
4042.61,-0.00198
4038.75,-0.00224
4034.9,-0.00218
4031.04,-0.00206
4027.18,-0.00203
4023.32,-0.00203
4019.47,-0.00190
4015.61,-0.00187
4011.75,-0.00176
4007.89,-0.00161
4004.04,-0.00188
4000.18,-0.00201
3996.32,-0.00170
3992.46,-0.00145
3988.61,-0.00162
3984.75,-0.00182
3980.89,-0.00159
3977.03,-0.00116
3973.18,-0.00094
3969.32,-0.00155
3965.46,-0.00190
3961.6,-0.00092
3957.75,-0.00097
3953.89,-0.00109
3950.03,0.00019
3946.17,-0.00014
3942.32,-0.00034
3938.46,-0.00149
3934.6,-0.00026
3930.74,0.00084
3926.89,-0.00004
3923.03,0.00041
3919.17,0.00047
3915.31,-0.00070
3911.46,-0.00197
3907.6,-0.00037
3903.74,0.00420
3899.88,0.00286
3896.03,0.00044
3892.17,0.00164
3888.31,0.00034
3884.45,0.00216
3880.6,0.00087
3876.74,-0.00036
3872.88,0.00243
3869.02,0.00312
3865.17,0.00416
3861.31,0.00196
3857.45,0.00202
3853.59,0.00511
3849.74,0.00142
3845.88,0.00060
3842.02,0.00324
3838.17,0.00472
3834.31,0.00166
3830.45,0.00065
3826.59,0.00159
3822.74,0.00269
3818.88,0.00324
3815.02,0.00063
3811.16,-0.00087
3807.31,0.00049
3803.45,0.00209
3799.59,0.00253
3795.73,-0.00017
3791.88,-0.00168
3788.02,-0.00086
3784.16,-0.00003
3780.3,-0.00031
3776.45,-0.00132
3772.59,-0.00057
3768.73,0.00124
3764.87,0.00047
3761.02,0.00095
3757.16,0.00253
3753.3,0.00478
3749.44,0.00720
3745.59,0.00510
3741.73,0.00379
3737.87,0.00547
3734.01,0.00558
3730.16,0.00174
3726.3,0.00317
3722.44,0.00243
3718.58,0.00018
3714.73,0.00094
3710.87,0.00305
3707.01,0.00005
3703.15,-0.00010
3699.3,-0.00055
3695.44,0.00015
3691.58,0.00308
3687.72,0.00221
3683.87,-0.00000
3680.01,0.00151
3676.15,0.00467
3672.29,0.00433
3668.44,0.00248
3664.58,-0.00001
3660.72,0.00028
3656.86,0.00191
3653.01,0.00310
3649.15,0.00863
3645.29,0.00384
3641.44,0.00208
3637.58,0.00148
3633.72,0.00311
3629.86,0.00591
3626.01,0.00388
3622.15,0.00425
3618.29,0.00721
3614.43,0.00688
3610.58,0.00645
3606.72,0.00487
3602.86,0.00462
3599,0.00627
3595.15,0.00589
3591.29,0.00540
3587.43,0.00840
3583.57,0.00564
3579.72,0.00504
3575.86,0.00488
3572,0.00544
3568.14,0.00963
3564.29,0.00835
3560.43,0.00599
3556.57,0.00526
3552.71,0.00640
3548.86,0.00708
3545,0.00837
3541.14,0.00556
3537.28,0.00585
3533.43,0.00606
3529.57,0.00794
3525.71,0.00928
3521.85,0.00765
3518,0.00622
3514.14,0.00602
3510.28,0.00746
3506.42,0.00746
3502.57,0.00872
3498.71,0.00697
3494.85,0.00634
3490.99,0.00617
3487.14,0.00664
3483.28,0.00702
3479.42,0.00651
3475.56,0.00605
3471.71,0.00593
3467.85,0.00629
3463.99,0.00679
3460.13,0.00696
3456.28,0.00651
3452.42,0.00626
3448.56,0.00735
3444.7,0.00741
3440.85,0.00667
3436.99,0.00621
3433.13,0.00647
3429.28,0.00667
3425.42,0.00708
3421.56,0.00811
3417.7,0.00753
3413.85,0.00766
3409.99,0.00806
3406.13,0.00851
3402.27,0.00919
3398.42,0.01011
3394.56,0.01103
3390.7,0.01166
3386.84,0.01239
3382.99,0.01341
3379.13,0.01426
3375.27,0.01502
3371.41,0.01601
3367.56,0.01734
3363.7,0.01819
3359.84,0.01892
3355.98,0.01945
3352.13,0.02009
3348.27,0.02077
3344.41,0.02175
3340.55,0.02276
3336.7,0.02403
3332.84,0.02460
3328.98,0.02548
3325.12,0.02656
3321.27,0.02737
3317.41,0.02836
3313.55,0.02958
3309.69,0.03068
3305.84,0.03123
3301.98,0.03174
3298.12,0.03230
3294.26,0.03260
3290.41,0.03301
3286.55,0.03285
3282.69,0.03264
3278.83,0.03213
3274.98,0.03191
3271.12,0.03100
3267.26,0.03008
3263.4,0.02919
3259.55,0.02815
3255.69,0.02707
3251.83,0.02552
3247.97,0.02440
3244.12,0.02313
3240.26,0.02162
3236.4,0.02047
3232.55,0.01947
3228.69,0.01844
3224.83,0.01731
3220.97,0.01688
3217.12,0.01624
3213.26,0.01557
3209.4,0.01506
3205.54,0.01463
3201.69,0.01438
3197.83,0.01407
3193.97,0.01338
3190.11,0.01288
3186.26,0.01250
3182.4,0.01199
3178.54,0.01176
3174.68,0.01115
3170.83,0.01076
3166.97,0.01039
3163.11,0.01002
3159.25,0.00989
3155.4,0.00991
3151.54,0.00970
3147.68,0.00947
3143.82,0.00942
3139.97,0.00940
3136.11,0.00939
3132.25,0.00932
3128.39,0.00921
3124.54,0.00926
3120.68,0.00923
3116.82,0.00905
3112.96,0.00882
3109.11,0.00874
3105.25,0.00868
3101.39,0.00895
3097.53,0.00888
3093.68,0.00881
3089.82,0.00897
3085.96,0.00917
3082.1,0.00957
3078.25,0.00958
3074.39,0.00941
3070.53,0.00940
3066.67,0.00970
3062.82,0.00961
3058.96,0.00953
3055.1,0.00956
3051.24,0.00930
3047.39,0.00934
3043.53,0.00931
3039.67,0.00940
3035.82,0.00982
3031.96,0.01024
3028.1,0.00994
3024.24,0.00990
3020.39,0.00971
3016.53,0.00992
3012.67,0.01089
3008.81,0.01184
3004.96,0.01364
3001.1,0.01658
2997.24,0.02114
2993.38,0.02758
2989.53,0.03541
2985.67,0.04445
2981.81,0.05400
2977.95,0.06352
2974.1,0.07192
2970.24,0.07513
2966.38,0.06830
2962.52,0.05499
2958.67,0.04456
2954.81,0.04004
2950.95,0.03967
2947.09,0.04229
2943.24,0.04782
2939.38,0.05589
2935.52,0.06408
2931.66,0.06887
2927.81,0.06917
2923.95,0.06755
2920.09,0.06621
2916.23,0.06604
2912.38,0.06725
2908.52,0.06934
2904.66,0.07190
2900.8,0.07421
2896.95,0.07556
2893.09,0.07599
2889.23,0.07633
2885.37,0.07718
2881.52,0.07949
2877.66,0.08311
2873.8,0.08683
2869.94,0.08910
2866.09,0.08875
2862.23,0.08545
2858.37,0.07961
2854.51,0.07157
2850.66,0.06220
2846.8,0.05249
2842.94,0.04335
2839.08,0.03561
2835.23,0.02950
2831.37,0.02505
2827.51,0.02194
2823.66,0.01989
2819.8,0.01849
2815.94,0.01764
2812.08,0.01693
2808.23,0.01645
2804.37,0.01611
2800.51,0.01594
2796.65,0.01563
2792.8,0.01523
2788.94,0.01478
2785.08,0.01432
2781.22,0.01390
2777.37,0.01337
2773.51,0.01293
2769.65,0.01252
2765.79,0.01203
2761.94,0.01165
2758.08,0.01130
2754.22,0.01091
2750.36,0.01060
2746.51,0.01034
2742.65,0.01004
2738.79,0.00976
2734.93,0.00956
2731.08,0.00925
2727.22,0.00893
2723.36,0.00857
2719.5,0.00821
2715.65,0.00785
2711.79,0.00754
2707.93,0.00729
2704.07,0.00708
2700.22,0.00694
2696.36,0.00674
2692.5,0.00645
2688.64,0.00638
2684.79,0.00631
2680.93,0.00617
2677.07,0.00616
2673.21,0.00611
2669.36,0.00605
2665.5,0.00597
2661.64,0.00576
2657.78,0.00554
2653.93,0.00543
2650.07,0.00529
2646.21,0.00498
2642.35,0.00481
2638.5,0.00476
2634.64,0.00446
2630.78,0.00430
2626.93,0.00421
2623.07,0.00395
2619.21,0.00375
2615.35,0.00366
2611.5,0.00360
2607.64,0.00349
2603.78,0.00353
2599.92,0.00358
2596.07,0.00364
2592.21,0.00368
2588.35,0.00361
2584.49,0.00355
2580.64,0.00338
2576.78,0.00316
2572.92,0.00300
2569.06,0.00283
2565.21,0.00271
2561.35,0.00259
2557.49,0.00250
2553.63,0.00242
2549.78,0.00239
2545.92,0.00233
2542.06,0.00237
2538.2,0.00238
2534.35,0.00239
2530.49,0.00224
2526.63,0.00222
2522.77,0.00233
2518.92,0.00231
2515.06,0.00214
2511.2,0.00214
2507.34,0.00235
2503.49,0.00243
2499.63,0.00220
2495.77,0.00223
2491.91,0.00230
2488.06,0.00220
2484.2,0.00214
2480.34,0.00221
2476.48,0.00234
2472.63,0.00241
2468.77,0.00233
2464.91,0.00230
2461.05,0.00226
2457.2,0.00215
2453.34,0.00209
2449.48,0.00200
2445.62,0.00199
2441.77,0.00195
2437.91,0.00205
2434.05,0.00227
2430.2,0.00225
2426.34,0.00209
2422.48,0.00217
2418.62,0.00217
2414.77,0.00209
2410.91,0.00222
2407.05,0.00230
2403.19,0.00241
2399.34,0.00248
2395.48,0.00243
2391.62,0.00250
2387.76,0.00277
2383.91,0.00313
2380.05,0.00315
2376.19,0.00237
2372.33,0.00054
2368.48,-0.00260
2364.62,-0.00480
2360.76,-0.00522
2356.9,-0.00447
2353.05,-0.00101
2349.19,0.00122
2345.33,-0.00080
2341.47,-0.00283
2337.62,-0.00274
2333.76,-0.00180
2329.9,-0.00040
2326.04,0.00036
2322.19,0.00176
2318.33,0.00249
2314.47,0.00304
2310.61,0.00387
2306.76,0.00405
2302.9,0.00388
2299.04,0.00387
2295.18,0.00395
2291.33,0.00404
2287.47,0.00435
2283.61,0.00453
2279.75,0.00442
2275.9,0.00462
2272.04,0.00451
2268.18,0.00423
2264.32,0.00388
2260.47,0.00371
2256.61,0.00351
2252.75,0.00319
2248.89,0.00300
2245.04,0.00311
2241.18,0.00277
2237.32,0.00252
2233.46,0.00260
2229.61,0.00237
2225.75,0.00252
2221.89,0.00224
2218.04,0.00188
2214.18,0.00180
2210.32,0.00164
2206.46,0.00143
2202.61,0.00158
2198.75,0.00138
2194.89,0.00095
2191.03,0.00076
2187.18,0.00063
2183.32,0.00038
2179.46,0.00018
2175.6,0.00041
2171.75,0.00023
2167.89,-0.00009
2164.03,-0.00052
2160.17,-0.00048
2156.32,0.00003
2152.46,0.00093
2148.6,0.00123
2144.74,0.00134
2140.89,0.00139
2137.03,0.00153
2133.17,0.00175
2129.31,0.00180
2125.46,0.00175
2121.6,0.00171
2117.74,0.00178
2113.88,0.00185
2110.03,0.00171
2106.17,0.00183
2102.31,0.00196
2098.45,0.00213
2094.6,0.00243
2090.74,0.00285
2086.88,0.00273
2083.02,0.00258
2079.17,0.00287
2075.31,0.00264
2071.45,0.00250
2067.59,0.00310
2063.74,0.00330
2059.88,0.00301
2056.02,0.00276
2052.16,0.00278
2048.31,0.00270
2044.45,0.00332
2040.59,0.00341
2036.73,0.00271
2032.88,0.00259
2029.02,0.00253
2025.16,0.00304
2021.31,0.00300
2017.45,0.00377
2013.59,0.00347
2009.73,0.00353
2005.88,0.00330
2002.02,0.00334
1998.16,0.00367
1994.3,0.00405
1990.45,0.00490
1986.59,0.00392
1982.73,0.00386
1978.87,0.00377
1975.02,0.00347
1971.16,0.00371
1967.3,0.00461
1963.44,0.00392
1959.59,0.00406
1955.73,0.00451
1951.87,0.00449
1948.01,0.00454
1944.16,0.00534
1940.3,0.00483
1936.44,0.00437
1932.58,0.00447
1928.73,0.00432
1924.87,0.00554
1921.01,0.00627
1917.15,0.00552
1913.3,0.00487
1909.44,0.00580
1905.58,0.00484
1901.72,0.00477
1897.87,0.00516
1894.01,0.00551
1890.15,0.00576
1886.29,0.00539
1882.44,0.00508
1878.58,0.00488
1874.72,0.00510
1870.86,0.00717
1867.01,0.00757
1863.15,0.00544
1859.29,0.00558
1855.43,0.00511
1851.58,0.00531
1847.72,0.00745
1843.86,0.00858
1840,0.00631
1836.15,0.00619
1832.29,0.00668
1828.43,0.00781
1824.57,0.00754
1820.72,0.00632
1816.86,0.00633
1813,0.00742
1809.15,0.00807
1805.29,0.00778
1801.43,0.00972
1797.57,0.01020
1793.72,0.01144
1789.86,0.01007
1786,0.00927
1782.14,0.01035
1778.29,0.01076
1774.43,0.01200
1770.57,0.01352
1766.71,0.01198
1762.86,0.01299
1759,0.01517
1755.14,0.01721
1751.28,0.02351
1747.43,0.03388
1743.57,0.04108
1739.71,0.05313
1735.85,0.06508
1732,0.08127
1728.14,0.08229
1724.28,0.08190
1720.42,0.08130
1716.57,0.08349
1712.71,0.07654
1708.85,0.07306
1704.99,0.07148
1701.14,0.06928
1697.28,0.06598
1693.42,0.05839
1689.56,0.05782
1685.71,0.05843
1681.85,0.05771
1677.99,0.05531
1674.13,0.05616
1670.28,0.05819
1666.42,0.05755
1662.56,0.06088
1658.7,0.06408
1654.85,0.07004
1650.99,0.08226
1647.13,0.09310
1643.27,0.10251
1639.42,0.10628
1635.56,0.09251
1631.7,0.07431
1627.84,0.06536
1623.99,0.06364
1620.13,0.06500
1616.27,0.06931
1612.42,0.07336
1608.56,0.08260
1604.7,0.09158
1600.84,0.09695
1596.99,0.09650
1593.13,0.09162
1589.27,0.08391
1585.41,0.07464
1581.56,0.06624
1577.7,0.06418
1573.84,0.06864
1569.98,0.08027
1566.13,0.09757
1562.27,0.11048
1558.41,0.13555
1554.55,0.14968
1550.7,0.15711
1546.84,0.16390
1542.98,0.17603
1539.12,0.18193
1535.27,0.18202
1531.41,0.17956
1527.55,0.17480
1523.69,0.16518
1519.84,0.14585
1515.98,0.13376
1512.12,0.12908
1508.26,0.13218
1504.41,0.12207
1500.55,0.11700
1496.69,0.10685
1492.83,0.09888
1488.98,0.09730
1485.12,0.09230
1481.26,0.09590
1477.4,0.10413
1473.55,0.11073
1469.69,0.10297
1465.83,0.10261
1461.97,0.10584
1458.12,0.11544
1454.26,0.12414
1450.4,0.12380
1446.54,0.11793
1442.69,0.10484
1438.83,0.09181
1434.97,0.07416
1431.11,0.06607
1427.26,0.06323
1423.4,0.06585
1419.54,0.07282
1415.69,0.07874
1411.83,0.07982
1407.97,0.07825
1404.11,0.07509
1400.26,0.07287
1396.4,0.07309
1392.54,0.07128
1388.68,0.07495
1384.83,0.08456
1380.97,0.10110
1377.11,0.12742
1373.25,0.14369
1369.4,0.12497
1365.54,0.09344
1361.68,0.07051
1357.82,0.06124
1353.97,0.06269
1350.11,0.06819
1346.25,0.07422
1342.39,0.07863
1338.54,0.07920
1334.68,0.07272
1330.82,0.07005
1326.96,0.06987
1323.11,0.07238
1319.25,0.07727
1315.39,0.08165
1311.53,0.08596
1307.68,0.09018
1303.82,0.09522
1299.96,0.10089
1296.1,0.10424
1292.25,0.10129
1288.39,0.09583
1284.53,0.09253
1280.67,0.09296
1276.82,0.09437
1272.96,0.09634
1269.1,0.09854
1265.24,0.10101
1261.39,0.10306
1257.53,0.10386
1253.67,0.10586
1249.81,0.11102
1245.96,0.11981
1242.1,0.13209
1238.24,0.14650
1234.38,0.16178
1230.53,0.17591
1226.67,0.18561
1222.81,0.18663
1218.95,0.17812
1215.1,0.16429
1211.24,0.15012
1207.38,0.13905
1203.53,0.13124
1199.67,0.12282
1195.81,0.11296
1191.95,0.10703
1188.1,0.10597
1184.24,0.10601
1180.38,0.10690
1176.52,0.11126
1172.67,0.11931
1168.81,0.12977
1164.95,0.14167
1161.09,0.15328
1157.24,0.16423
1153.38,0.17436
1149.52,0.18391
1145.66,0.19416
1141.81,0.20628
1137.95,0.22126
1134.09,0.23849
1130.23,0.25653
1126.38,0.27664
1122.52,0.30149
1118.66,0.33049
1114.8,0.36022
1110.95,0.38807
1107.09,0.41234
1103.23,0.43187
1099.37,0.44550
1095.52,0.45331
1091.66,0.45625
1087.8,0.45445
1083.94,0.44780
1080.09,0.43584
1076.23,0.41810
1072.37,0.39611
1068.51,0.37286
1064.66,0.34912
1060.8,0.32471
1056.94,0.29935
1053.08,0.27174
1049.23,0.24329
1045.37,0.21650
1041.51,0.19430
1037.65,0.17705
1033.8,0.16253
1029.94,0.15172
1026.08,0.14796
1022.22,0.15183
1018.37,0.15818
1014.51,0.16133
1010.65,0.15929
1006.8,0.15556
1002.94,0.15136
999.08,0.14097
995.223,0.12284
991.365,0.10470
987.508,0.09165
983.65,0.08380
979.793,0.07968
975.935,0.07793
972.078,0.07772
968.221,0.07728
964.363,0.07462
960.506,0.07093
956.648,0.06691
952.791,0.06449
948.933,0.06614
945.076,0.07410
941.218,0.08534
937.361,0.09554
933.503,0.10252
929.646,0.10686
925.789,0.10841
921.931,0.10523
918.074,0.09827
914.216,0.09235
910.359,0.09010
906.501,0.08791
902.644,0.08159
898.786,0.07402
894.929,0.06918
891.072,0.06817
887.214,0.06937
883.357,0.07164
879.499,0.07332
875.642,0.07549
871.784,0.07759
867.927,0.07855
864.069,0.07722
860.212,0.07458
856.354,0.07195
852.497,0.07003
848.64,0.06852
844.782,0.06818
840.925,0.06927
837.067,0.07170
833.21,0.07490
829.352,0.07969
825.495,0.08679
821.637,0.09439
817.78,0.09870
813.922,0.09794
810.065,0.09357
806.208,0.08753
802.35,0.08124
798.493,0.07582
794.635,0.07141
790.778,0.06899
786.92,0.06774
783.063,0.06796
779.205,0.06956
775.348,0.07353
771.49,0.07856
767.633,0.08103
763.776,0.07934
759.918,0.07818
756.061,0.07647
752.203,0.07357
748.346,0.07002
744.488,0.06678
740.631,0.06411
736.773,0.06187
732.916,0.06187
729.058,0.06321
725.201,0.06513
721.344,0.06771
717.486,0.07097
713.629,0.07558
709.771,0.07796
705.914,0.07781
702.056,0.07784
698.199,0.07971
694.341,0.08204
690.484,0.08457
686.627,0.08712
682.769,0.08929
678.912,0.09178
675.054,0.09429
671.197,0.09578
667.339,0.09646
663.482,0.09690
659.624,0.09605
655.767,0.09386
651.909,0.09224
648.052,0.09054
644.195,0.08924
640.337,0.08881
636.48,0.08747
632.622,0.08586
628.765,0.08341
624.907,0.08132
621.05,0.07862
617.192,0.07695
613.335,0.07816
609.477,0.07275
605.62,0.07857
601.763,0.08303
599.834,0.08548