File: 01_Data/Polyurethane_Foam/FTIR/ATR/Polyurethane_Foam_ATR_210608_R1.tst
4497.79,-0.00554
4493.93,-0.00562
4490.07,-0.00548
4486.22,-0.00526
4482.36,-0.00542
4478.5,-0.00507
4474.64,-0.00519
4470.79,-0.00526
4466.93,-0.00520
4463.07,-0.00517
4459.21,-0.00516
4455.36,-0.00509
4451.5,-0.00487
4447.64,-0.00512
4443.79,-0.00496
4439.93,-0.00452
4436.07,-0.00467
4432.21,-0.00508
4428.36,-0.00462
4424.5,-0.00436
4420.64,-0.00463
4416.78,-0.00450
4412.93,-0.00419
4409.07,-0.00414
4405.21,-0.00420
4401.35,-0.00416
4397.5,-0.00423
4393.64,-0.00433
4389.78,-0.00430
4385.92,-0.00428
4382.07,-0.00409
4378.21,-0.00394
4374.35,-0.00407
4370.49,-0.00420
4366.64,-0.00399
4362.78,-0.00377
4358.92,-0.00371
4355.06,-0.00365
4351.21,-0.00375
4347.35,-0.00365
4343.49,-0.00358
4339.63,-0.00333
4335.78,-0.00330
4331.92,-0.00331
4328.06,-0.00323
4324.2,-0.00325
4320.35,-0.00316
4316.49,-0.00326
4312.63,-0.00367
4308.77,-0.00372
4304.92,-0.00364
4301.06,-0.00365
4297.2,-0.00368
4293.34,-0.00371
4289.49,-0.00389
4285.63,-0.00386
4281.77,-0.00385
4277.91,-0.00379
4274.06,-0.00360
4270.2,-0.00365
4266.34,-0.00382
4262.48,-0.00383
4258.63,-0.00398
4254.77,-0.00381
4250.91,-0.00385
4247.06,-0.00396
4243.2,-0.00385
4239.34,-0.00391
4235.48,-0.00394
4231.63,-0.00381
4227.77,-0.00390
4223.91,-0.00374
4220.05,-0.00370
4216.2,-0.00391
4212.34,-0.00385
4208.48,-0.00378
4204.62,-0.00380
4200.77,-0.00377
4196.91,-0.00392
4193.05,-0.00371
4189.19,-0.00353
4185.34,-0.00378
4181.48,-0.00373
4177.62,-0.00375
4173.76,-0.00360
4169.91,-0.00355
4166.05,-0.00340
4162.19,-0.00355
4158.33,-0.00341
4154.48,-0.00335
4150.62,-0.00336
4146.76,-0.00348
4142.9,-0.00351
4139.05,-0.00318
4135.19,-0.00327
4131.33,-0.00341
4127.47,-0.00359
4123.62,-0.00353
4119.76,-0.00330
4115.9,-0.00313
4112.04,-0.00325
4108.19,-0.00312
4104.33,-0.00293
4100.47,-0.00319
4096.61,-0.00313
4092.76,-0.00304
4088.9,-0.00270
4085.04,-0.00268
4081.18,-0.00258
4077.33,-0.00253
4073.47,-0.00254
4069.61,-0.00278
4065.75,-0.00276
4061.9,-0.00247
4058.04,-0.00255
4054.18,-0.00273
4050.33,-0.00265
4046.47,-0.00222
4042.61,-0.00227
4038.75,-0.00258
4034.9,-0.00242
4031.04,-0.00247
4027.18,-0.00237
4023.32,-0.00208
4019.47,-0.00216
4015.61,-0.00219
4011.75,-0.00210
4007.89,-0.00180
4004.04,-0.00219
4000.18,-0.00241
3996.32,-0.00196
3992.46,-0.00143
3988.61,-0.00190
3984.75,-0.00220
3980.89,-0.00195
3977.03,-0.00126
3973.18,-0.00103
3969.32,-0.00164
3965.46,-0.00194
3961.6,-0.00107
3957.75,-0.00135
3953.89,-0.00147
3950.03,-0.00019
3946.17,-0.00033
3942.32,-0.00062
3938.46,-0.00174
3934.6,-0.00072
3930.74,0.00040
3926.89,-0.00044
3923.03,0.00023
3919.17,0.00021
3915.31,-0.00097
3911.46,-0.00227
3907.6,-0.00070
3903.74,0.00368
3899.88,0.00243
3896.03,0.00017
3892.17,0.00116
3888.31,0.00022
3884.45,0.00191
3880.6,0.00059
3876.74,-0.00060
3872.88,0.00197
3869.02,0.00247
3865.17,0.00339
3861.31,0.00143
3857.45,0.00155
3853.59,0.00481
3849.74,0.00118
3845.88,0.00021
3842.02,0.00300
3838.17,0.00480
3834.31,0.00155
3830.45,0.00024
3826.59,0.00107
3822.74,0.00263
3818.88,0.00298
3815.02,0.00000
3811.16,-0.00142
3807.31,0.00021
3803.45,0.00211
3799.59,0.00236
3795.73,-0.00029
3791.88,-0.00195
3788.02,-0.00110
3784.16,-0.00042
3780.3,-0.00050
3776.45,-0.00145
3772.59,-0.00078
3768.73,0.00103
3764.87,0.00039
3761.02,0.00080
3757.16,0.00213
3753.3,0.00469
3749.44,0.00733
3745.59,0.00552
3741.73,0.00368
3737.87,0.00485
3734.01,0.00459
3730.16,0.00137
3726.3,0.00299
3722.44,0.00214
3718.58,0.00006
3714.73,0.00099
3710.87,0.00297
3707.01,-0.00020
3703.15,-0.00051
3699.3,-0.00078
3695.44,-0.00013
3691.58,0.00288
3687.72,0.00222
3683.87,-0.00022
3680.01,0.00119
3676.15,0.00446
3672.29,0.00445
3668.44,0.00229
3664.58,-0.00035
3660.72,-0.00008
3656.86,0.00162
3653.01,0.00270
3649.15,0.00848
3645.29,0.00335
3641.44,0.00161
3637.58,0.00133
3633.72,0.00276
3629.86,0.00590
3626.01,0.00359
3622.15,0.00368
3618.29,0.00676
3614.43,0.00653
3610.58,0.00621
3606.72,0.00460
3602.86,0.00425
3599,0.00584
3595.15,0.00543
3591.29,0.00495
3587.43,0.00775
3583.57,0.00506
3579.72,0.00445
3575.86,0.00442
3572,0.00485
3568.14,0.00886
3564.29,0.00772
3560.43,0.00552
3556.57,0.00482
3552.71,0.00599
3548.86,0.00645
3545,0.00773
3541.14,0.00494
3537.28,0.00533
3533.43,0.00554
3529.57,0.00743
3525.71,0.00849
3521.85,0.00695
3518,0.00552
3514.14,0.00546
3510.28,0.00671
3506.42,0.00663
3502.57,0.00796
3498.71,0.00614
3494.85,0.00556
3490.99,0.00553
3487.14,0.00605
3483.28,0.00641
3479.42,0.00581
3475.56,0.00534
3471.71,0.00524
3467.85,0.00550
3463.99,0.00588
3460.13,0.00610
3456.28,0.00573
3452.42,0.00547
3448.56,0.00638
3444.7,0.00638
3440.85,0.00577
3436.99,0.00539
3433.13,0.00555
3429.28,0.00573
3425.42,0.00608
3421.56,0.00729
3417.7,0.00665
3413.85,0.00673
3409.99,0.00709
3406.13,0.00750
3402.27,0.00822
3398.42,0.00912
3394.56,0.01009
3390.7,0.01066
3386.84,0.01146
3382.99,0.01251
3379.13,0.01320
3375.27,0.01413
3371.41,0.01521
3367.56,0.01637
3363.7,0.01715
3359.84,0.01788
3355.98,0.01864
3352.13,0.01908
3348.27,0.01976
3344.41,0.02079
3340.55,0.02192
3336.7,0.02311
3332.84,0.02365
3328.98,0.02452
3325.12,0.02566
3321.27,0.02636
3317.41,0.02723
3313.55,0.02850
3309.69,0.02961
3305.84,0.03010
3301.98,0.03075
3298.12,0.03127
3294.26,0.03143
3290.41,0.03180
3286.55,0.03157
3282.69,0.03134
3278.83,0.03103
3274.98,0.03071
3271.12,0.02978
3267.26,0.02898
3263.4,0.02807
3259.55,0.02684
3255.69,0.02582
3251.83,0.02431
3247.97,0.02326
3244.12,0.02203
3240.26,0.02062
3236.4,0.01937
3232.55,0.01846
3228.69,0.01749
3224.83,0.01632
3220.97,0.01582
3217.12,0.01526
3213.26,0.01469
3209.4,0.01413
3205.54,0.01379
3201.69,0.01353
3197.83,0.01313
3193.97,0.01249
3190.11,0.01199
3186.26,0.01161
3182.4,0.01121
3178.54,0.01102
3174.68,0.01041
3170.83,0.01001
3166.97,0.00963
3163.11,0.00926
3159.25,0.00912
3155.4,0.00914
3151.54,0.00903
3147.68,0.00886
3143.82,0.00869
3139.97,0.00870
3136.11,0.00866
3132.25,0.00862
3128.39,0.00854
3124.54,0.00856
3120.68,0.00860
3116.82,0.00838
3112.96,0.00806
3109.11,0.00798
3105.25,0.00800
3101.39,0.00825
3097.53,0.00821
3093.68,0.00828
3089.82,0.00832
3085.96,0.00840
3082.1,0.00878
3078.25,0.00896
3074.39,0.00876
3070.53,0.00880
3066.67,0.00909
3062.82,0.00891
3058.96,0.00877
3055.1,0.00887
3051.24,0.00878
3047.39,0.00886
3043.53,0.00874
3039.67,0.00883
3035.82,0.00925
3031.96,0.00974
3028.1,0.00947
3024.24,0.00935
3020.39,0.00919
3016.53,0.00937
3012.67,0.01041
3008.81,0.01139
3004.96,0.01313
3001.1,0.01614
2997.24,0.02068
2993.38,0.02711
2989.53,0.03502
2985.67,0.04406
2981.81,0.05370
2977.95,0.06329
2974.1,0.07175
2970.24,0.07500
2966.38,0.06817
2962.52,0.05501
2958.67,0.04445
2954.81,0.03983
2950.95,0.03945
2947.09,0.04205
2943.24,0.04759
2939.38,0.05575
2935.52,0.06416
2931.66,0.06908
2927.81,0.06940
2923.95,0.06785
2920.09,0.06649
2916.23,0.06623
2912.38,0.06737
2908.52,0.06937
2904.66,0.07196
2900.8,0.07430
2896.95,0.07563
2893.09,0.07604
2889.23,0.07611
2885.37,0.07704
2881.52,0.07946
2877.66,0.08308
2873.8,0.08681
2869.94,0.08910
2866.09,0.08870
2862.23,0.08542
2858.37,0.07953
2854.51,0.07156
2850.66,0.06221
2846.8,0.05232
2842.94,0.04309
2839.08,0.03523
2835.23,0.02904
2831.37,0.02462
2827.51,0.02158
2823.66,0.01948
2819.8,0.01813
2815.94,0.01721
2812.08,0.01658
2808.23,0.01607
2804.37,0.01570
2800.51,0.01544
2796.65,0.01511
2792.8,0.01472
2788.94,0.01434
2785.08,0.01391
2781.22,0.01349
2777.37,0.01302
2773.51,0.01255
2769.65,0.01203
2765.79,0.01165
2761.94,0.01127
2758.08,0.01090
2754.22,0.01049
2750.36,0.01016
2746.51,0.00990
2742.65,0.00958
2738.79,0.00938
2734.93,0.00911
2731.08,0.00882
2727.22,0.00857
2723.36,0.00824
2719.5,0.00785
2715.65,0.00741
2711.79,0.00711
2707.93,0.00687
2704.07,0.00674
2700.22,0.00661
2696.36,0.00640
2692.5,0.00612
2688.64,0.00598
2684.79,0.00590
2680.93,0.00582
2677.07,0.00581
2673.21,0.00573
2669.36,0.00568
2665.5,0.00561
2661.64,0.00545
2657.78,0.00525
2653.93,0.00500
2650.07,0.00483
2646.21,0.00458
2642.35,0.00443
2638.5,0.00432
2634.64,0.00413
2630.78,0.00397
2626.93,0.00379
2623.07,0.00362
2619.21,0.00338
2615.35,0.00338
2611.5,0.00323
2607.64,0.00325
2603.78,0.00333
2599.92,0.00335
2596.07,0.00331
2592.21,0.00331
2588.35,0.00321
2584.49,0.00315
2580.64,0.00311
2576.78,0.00295
2572.92,0.00272
2569.06,0.00255
2565.21,0.00241
2561.35,0.00217
2557.49,0.00212
2553.63,0.00217
2549.78,0.00208
2545.92,0.00206
2542.06,0.00211
2538.2,0.00213
2534.35,0.00215
2530.49,0.00203
2526.63,0.00198
2522.77,0.00200
2518.92,0.00205
2515.06,0.00199
2511.2,0.00194
2507.34,0.00205
2503.49,0.00206
2499.63,0.00195
2495.77,0.00197
2491.91,0.00202
2488.06,0.00208
2484.2,0.00198
2480.34,0.00187
2476.48,0.00200
2472.63,0.00207
2468.77,0.00209
2464.91,0.00193
2461.05,0.00193
2457.2,0.00183
2453.34,0.00175
2449.48,0.00174
2445.62,0.00169
2441.77,0.00164
2437.91,0.00173
2434.05,0.00187
2430.2,0.00204
2426.34,0.00188
2422.48,0.00184
2418.62,0.00184
2414.77,0.00191
2410.91,0.00193
2407.05,0.00199
2403.19,0.00209
2399.34,0.00221
2395.48,0.00220
2391.62,0.00225
2387.76,0.00242
2383.91,0.00289
2380.05,0.00290
2376.19,0.00184
2372.33,0.00001
2368.48,-0.00275
2364.62,-0.00443
2360.76,-0.00517
2356.9,-0.00415
2353.05,-0.00109
2349.19,0.00090
2345.33,-0.00091
2341.47,-0.00281
2337.62,-0.00300
2333.76,-0.00214
2329.9,-0.00086
2326.04,0.00003
2322.19,0.00136
2318.33,0.00208
2314.47,0.00268
2310.61,0.00338
2306.76,0.00367
2302.9,0.00367
2299.04,0.00355
2295.18,0.00366
2291.33,0.00384
2287.47,0.00406
2283.61,0.00423
2279.75,0.00424
2275.9,0.00437
2272.04,0.00432
2268.18,0.00407
2264.32,0.00371
2260.47,0.00357
2256.61,0.00324
2252.75,0.00311
2248.89,0.00299
2245.04,0.00288
2241.18,0.00263
2237.32,0.00236
2233.46,0.00218
2229.61,0.00213
2225.75,0.00206
2221.89,0.00186
2218.04,0.00171
2214.18,0.00141
2210.32,0.00145
2206.46,0.00159
2202.61,0.00130
2198.75,0.00105
2194.89,0.00086
2191.03,0.00060
2187.18,0.00045
2183.32,-0.00012
2179.46,0.00002
2175.6,-0.00001
2171.75,-0.00054
2167.89,-0.00061
2164.03,-0.00098
2160.17,-0.00131
2156.32,-0.00027
2152.46,0.00056
2148.6,0.00086
2144.74,0.00081
2140.89,0.00106
2137.03,0.00122
2133.17,0.00130
2129.31,0.00144
2125.46,0.00137
2121.6,0.00133
2117.74,0.00143
2113.88,0.00148
2110.03,0.00136
2106.17,0.00152
2102.31,0.00147
2098.45,0.00161
2094.6,0.00205
2090.74,0.00240
2086.88,0.00231
2083.02,0.00216
2079.17,0.00237
2075.31,0.00230
2071.45,0.00234
2067.59,0.00293
2063.74,0.00310
2059.88,0.00276
2056.02,0.00272
2052.16,0.00254
2048.31,0.00208
2044.45,0.00249
2040.59,0.00292
2036.73,0.00272
2032.88,0.00263
2029.02,0.00273
2025.16,0.00289
2021.31,0.00293
2017.45,0.00356
2013.59,0.00299
2009.73,0.00296
2005.88,0.00310
2002.02,0.00318
1998.16,0.00325
1994.3,0.00390
1990.45,0.00450
1986.59,0.00360
1982.73,0.00321
1978.87,0.00290
1975.02,0.00295
1971.16,0.00351
1967.3,0.00430
1963.44,0.00336
1959.59,0.00352
1955.73,0.00403
1951.87,0.00381
1948.01,0.00411
1944.16,0.00531
1940.3,0.00464
1936.44,0.00418
1932.58,0.00412
1928.73,0.00386
1924.87,0.00520
1921.01,0.00601
1917.15,0.00523
1913.3,0.00474
1909.44,0.00577
1905.58,0.00480
1901.72,0.00444
1897.87,0.00481
1894.01,0.00528
1890.15,0.00556
1886.29,0.00518
1882.44,0.00484
1878.58,0.00474
1874.72,0.00482
1870.86,0.00690
1867.01,0.00719
1863.15,0.00538
1859.29,0.00528
1855.43,0.00479
1851.58,0.00503
1847.72,0.00704
1843.86,0.00820
1840,0.00607
1836.15,0.00596
1832.29,0.00652
1828.43,0.00753
1824.57,0.00725
1820.72,0.00610
1816.86,0.00617
1813,0.00720
1809.15,0.00782
1805.29,0.00755
1801.43,0.00948
1797.57,0.00983
1793.72,0.01113
1789.86,0.00986
1786,0.00901
1782.14,0.01009
1778.29,0.01049
1774.43,0.01181
1770.57,0.01306
1766.71,0.01160
1762.86,0.01265
1759,0.01484
1755.14,0.01676
1751.28,0.02303
1747.43,0.03307
1743.57,0.04052
1739.71,0.05265
1735.85,0.06451
1732,0.08071
1728.14,0.08157
1724.28,0.08114
1720.42,0.08050
1716.57,0.08290
1712.71,0.07588
1708.85,0.07241
1704.99,0.07086
1701.14,0.06840
1697.28,0.06485
1693.42,0.05719
1689.56,0.05649
1685.71,0.05726
1681.85,0.05626
1677.99,0.05371
1674.13,0.05444
1670.28,0.05638
1666.42,0.05568
1662.56,0.05884
1658.7,0.06184
1654.85,0.06754
1650.99,0.07937
1647.13,0.09024
1643.27,0.09930
1639.42,0.10264
1635.56,0.08878
1631.7,0.07096
1627.84,0.06248
1623.99,0.06116
1620.13,0.06280
1616.27,0.06730
1612.42,0.07133
1608.56,0.08044
1604.7,0.08941
1600.84,0.09486
1596.99,0.09439
1593.13,0.08952
1589.27,0.08194
1585.41,0.07281
1581.56,0.06467
1577.7,0.06273
1573.84,0.06692
1569.98,0.07840
1566.13,0.09534
1562.27,0.10801
1558.41,0.13311
1554.55,0.14698
1550.7,0.15384
1546.84,0.16074
1542.98,0.17244
1539.12,0.17853
1535.27,0.17852
1531.41,0.17627
1527.55,0.17154
1523.69,0.16241
1519.84,0.14313
1515.98,0.13094
1512.12,0.12634
1508.26,0.12960
1504.41,0.11993
1500.55,0.11481
1496.69,0.10487
1492.83,0.09708
1488.98,0.09563
1485.12,0.09079
1481.26,0.09446
1477.4,0.10260
1473.55,0.10906
1469.69,0.10144
1465.83,0.10114
1461.97,0.10425
1458.12,0.11393
1454.26,0.12252
1450.4,0.12205
1446.54,0.11630
1442.69,0.10331
1438.83,0.09028
1434.97,0.07276
1431.11,0.06466
1427.26,0.06193
1423.4,0.06452
1419.54,0.07138
1415.69,0.07722
1411.83,0.07837
1407.97,0.07678
1404.11,0.07360
1400.26,0.07131
1396.4,0.07140
1392.54,0.06977
1388.68,0.07344
1384.83,0.08289
1380.97,0.09945
1377.11,0.12568
1373.25,0.14167
1369.4,0.12290
1365.54,0.09174
1361.68,0.06918
1357.82,0.05990
1353.97,0.06125
1350.11,0.06680
1346.25,0.07274
1342.39,0.07704
1338.54,0.07773
1334.68,0.07124
1330.82,0.06866
1326.96,0.06843
1323.11,0.07092
1319.25,0.07581
1315.39,0.08021
1311.53,0.08444
1307.68,0.08853
1303.82,0.09356
1299.96,0.09921
1296.1,0.10244
1292.25,0.09950
1288.39,0.09402
1284.53,0.09085
1280.67,0.09130
1276.82,0.09258
1272.96,0.09457
1269.1,0.09693
1265.24,0.09957
1261.39,0.10175
1257.53,0.10236
1253.67,0.10403
1249.81,0.10896
1245.96,0.11764
1242.1,0.12970
1238.24,0.14403
1234.38,0.15917
1230.53,0.17310
1226.67,0.18270
1222.81,0.18356
1218.95,0.17520
1215.1,0.16167
1211.24,0.14780
1207.38,0.13694
1203.53,0.12921
1199.67,0.12080
1195.81,0.11112
1191.95,0.10526
1188.1,0.10414
1184.24,0.10418
1180.38,0.10511
1176.52,0.10930
1172.67,0.11717
1168.81,0.12751
1164.95,0.13917
1161.09,0.15043
1157.24,0.16126
1153.38,0.17126
1149.52,0.18064
1145.66,0.19063
1141.81,0.20272
1137.95,0.21764
1134.09,0.23450
1130.23,0.25208
1126.38,0.27187
1122.52,0.29659
1118.66,0.32506
1114.8,0.35453
1110.95,0.38182
1107.09,0.40580
1103.23,0.42462
1099.37,0.43812
1095.52,0.44610
1091.66,0.44871
1087.8,0.44692
1083.94,0.44071
1080.09,0.42891
1076.23,0.41116
1072.37,0.38968
1068.51,0.36674
1064.66,0.34327
1060.8,0.31932
1056.94,0.29412
1053.08,0.26697
1049.23,0.23911
1045.37,0.21269
1041.51,0.19093
1037.65,0.17376
1033.8,0.15955
1029.94,0.14901
1026.08,0.14537
1022.22,0.14898
1018.37,0.15545
1014.51,0.15867
1010.65,0.15657
1006.8,0.15295
1002.94,0.14869
999.08,0.13852
995.223,0.12065
991.365,0.10303
987.508,0.08995
983.65,0.08226
979.793,0.07829
975.935,0.07653
972.078,0.07634
968.221,0.07573
964.363,0.07320
960.506,0.06962
956.648,0.06583
952.791,0.06350
948.933,0.06530
945.076,0.07302
941.218,0.08404
937.361,0.09398
933.503,0.10090
929.646,0.10528
925.789,0.10665
921.931,0.10340
918.074,0.09657
914.216,0.09098
910.359,0.08864
906.501,0.08627
902.644,0.07997
898.786,0.07255
894.929,0.06797
891.072,0.06707
887.214,0.06832
883.357,0.07046
879.499,0.07216
875.642,0.07445
871.784,0.07686
867.927,0.07762
864.069,0.07586
860.212,0.07368
856.354,0.07109
852.497,0.06895
848.64,0.06754
844.782,0.06746
840.925,0.06849
837.067,0.07051
833.21,0.07409
829.352,0.07923
825.495,0.08623
821.637,0.09343
817.78,0.09812
813.922,0.09713
810.065,0.09272
806.208,0.08652
802.35,0.08045
798.493,0.07568
794.635,0.07114
790.778,0.06811
786.92,0.06683
783.063,0.06712
779.205,0.06863
775.348,0.07334
771.49,0.07819
767.633,0.07935
763.776,0.07820
759.918,0.07655
756.061,0.07490
752.203,0.07269
748.346,0.06931
744.488,0.06631
740.631,0.06270
736.773,0.06091
732.916,0.06121
729.058,0.06229
725.201,0.06360
721.344,0.06622
717.486,0.06984
713.629,0.07381
709.771,0.07643
705.914,0.07636
702.056,0.07634
698.199,0.07812
694.341,0.08072
690.484,0.08290
686.627,0.08524
682.769,0.08748
678.912,0.08974
675.054,0.09208
671.197,0.09363
667.339,0.09514
663.482,0.09565
659.624,0.09426
655.767,0.09195
651.909,0.09017
648.052,0.08836
644.195,0.08732
640.337,0.08682
636.48,0.08572
632.622,0.08397
628.765,0.08192
624.907,0.08040
621.05,0.07651
617.192,0.07890
613.335,0.08017
609.477,0.07660
605.62,0.07628
601.763,0.08142
599.834,0.08330