File: 01_Data/House_Wrap/MCC/House_Wrap_MCC_30K_min_220210_R2.txt
Sample ID:	C:\MCC\MCC Cal\Test\Tyvek_Wrap_MCC_30K_min_220210_R2.txt
Sample Weight (mg):	4.69
Heating Rate (C/s):	0.5
Combustor Temp (C):	900
N2 Flow Rate (cc/min):	80
O2 Flow Rate (cc/min):	20
Calibration File:	C:\MCC\MCC Cal\Coeff1 JN10440_30_210304.txt.txt
T Correction Coefficients:	0	1.024463	0
Time Shift (s):	14
*
Time (s)	Temperature (C)	N2 flow rate (cc/min)	O2 flow rate (cc/min)	Flow Rate (cc/min)	Oxygen (%)	HRR (W/g)	Heating rate (C/s)
0.000	113.337	80.006	19.994	103.670	19.961	0.457	0.006
2.000	113.312	80.007	19.996	103.629	19.956	0.797	0.007
4.000	113.307	80.008	19.995	103.580	19.954	0.949	-0.002
6.000	113.329	80.008	19.994	103.680	19.950	1.202	0.016
8.000	113.244	80.006	19.995	103.703	19.950	1.204	-0.033
10.000	113.311	80.007	19.995	103.652	19.947	1.388	0.028
12.000	113.319	80.008	19.994	103.678	19.946	1.450	0.011
14.000	113.350	80.008	19.994	103.678	19.941	1.790	0.001
16.000	113.335	80.009	19.995	103.686	19.941	1.825	0.019
18.000	113.393	80.008	19.994	103.711	19.936	2.141	0.010
20.000	113.440	80.010	19.994	103.740	19.937	2.085	-0.001
22.000	113.557	80.009	19.995	103.727	19.935	2.248	0.076
24.000	113.614	80.009	19.994	103.701	19.938	2.045	0.011
26.000	113.694	80.008	19.993	103.687	19.942	1.775	0.061
28.000	113.860	80.006	19.992	103.790	19.937	2.072	0.066
30.000	113.944	80.007	19.993	103.732	19.937	2.069	0.070
32.000	114.095	80.008	19.995	103.718	19.940	1.923	0.041
34.000	114.238	80.007	19.995	103.868	19.931	2.484	0.109
36.000	114.420	80.007	19.994	103.832	19.932	2.418	0.077
38.001	114.673	80.007	19.994	103.838	19.928	2.706	0.088
40.001	114.922	80.007	19.993	103.826	19.931	2.532	0.146
42.000	115.164	80.008	19.995	103.845	19.931	2.533	0.161
44.000	115.460	80.007	19.994	103.824	19.932	2.423	0.116
46.000	115.807	80.008	19.994	103.807	19.931	2.500	0.158
48.000	116.056	80.008	19.994	103.826	19.933	2.345	0.129
50.000	116.408	80.006	19.994	103.826	19.933	2.369	0.200
52.000	116.787	80.007	19.993	103.815	19.932	2.445	0.197
54.000	117.117	80.008	19.994	103.795	19.935	2.239	0.191
56.000	117.483	80.006	19.994	103.808	19.934	2.337	0.185
58.000	117.873	80.007	19.992	103.842	19.937	2.099	0.190
60.001	118.236	80.008	19.996	103.828	19.931	2.478	0.169
62.000	118.677	80.007	19.992	103.829	19.936	2.173	0.215
64.000	119.077	80.006	19.994	103.837	19.934	2.316	0.229
66.000	119.432	80.006	19.993	103.834	19.929	2.647	0.242
68.000	119.873	80.009	19.993	103.834	19.930	2.550	0.222
70.001	120.258	80.009	19.994	103.833	19.931	2.529	0.223
72.000	120.751	80.008	19.993	103.863	19.928	2.702	0.220
74.000	121.186	80.008	19.993	103.874	19.930	2.548	0.224
76.000	121.712	80.009	19.994	103.877	19.927	2.814	0.250
78.000	122.221	80.008	19.992	103.866	19.925	2.922	0.267
80.000	122.725	80.010	19.994	103.851	19.925	2.941	0.231
82.000	123.259	80.008	19.994	103.867	19.928	2.702	0.278
84.000	123.838	80.007	19.995	103.877	19.924	2.987	0.305
86.001	124.380	80.010	19.993	103.884	19.923	3.038	0.289
88.000	124.955	80.007	19.994	103.897	19.925	2.915	0.291
90.000	125.543	80.009	19.994	103.907	19.925	2.894	0.292
92.000	126.176	80.009	19.994	103.900	19.920	3.250	0.330
94.001	126.830	80.009	19.994	103.902	19.923	3.070	0.336
96.000	127.445	80.009	19.993	103.906	19.925	2.943	0.332
98.000	128.134	80.010	19.994	103.900	19.922	3.102	0.346
100.000	128.796	80.008	19.994	103.910	19.921	3.217	0.308
102.000	129.530	80.010	19.994	103.904	19.922	3.146	0.359
104.000	130.239	80.009	19.994	103.897	19.921	3.231	0.383
106.000	130.963	80.008	19.995	103.900	19.920	3.243	0.362
108.000	131.785	80.007	19.997	103.899	19.920	3.303	0.410
110.000	132.539	80.007	19.995	103.924	19.920	3.286	0.406
112.000	133.318	80.007	19.994	103.921	19.920	3.241	0.363
114.000	134.156	80.007	19.995	103.907	19.917	3.477	0.421
116.000	134.956	80.008	19.993	103.922	19.922	3.129	0.404
118.000	135.788	80.007	19.994	103.924	19.923	3.062	0.397
120.000	136.583	80.006	19.994	103.912	19.919	3.337	0.394
122.000	137.418	80.008	19.994	103.909	19.921	3.195	0.407
124.000	138.303	80.008	19.993	103.910	19.925	2.945	0.443
126.000	139.167	80.008	19.994	103.929	19.924	3.010	0.449
128.000	140.002	80.007	19.993	103.920	19.924	3.025	0.444
130.000	140.906	80.007	19.993	103.905	19.923	3.064	0.466
132.000	141.783	80.007	19.994	103.905	19.923	3.048	0.419
134.000	142.664	80.008	19.994	103.918	19.925	2.915	0.433
136.000	143.649	80.008	19.993	103.921	19.929	2.644	0.497
138.000	144.500	80.007	19.992	103.920	19.926	2.871	0.439
140.000	145.451	80.007	19.993	103.914	19.925	2.949	0.451
142.000	146.392	80.007	19.994	103.914	19.923	3.035	0.491
144.000	147.328	80.008	19.993	103.924	19.923	3.080	0.474
146.000	148.213	80.007	19.994	103.911	19.924	2.994	0.453
148.000	149.160	80.008	19.993	103.909	19.921	3.191	0.467
150.000	150.127	80.009	19.993	103.916	19.920	3.263	0.482
152.000	151.076	80.008	19.994	103.929	19.921	3.172	0.422
154.000	152.034	80.011	19.993	103.937	19.921	3.204	0.458
156.000	152.961	80.009	19.993	103.915	19.922	3.121	0.491
158.000	153.951	80.007	19.992	103.912	19.923	3.063	0.473
160.000	154.849	80.008	19.993	103.905	19.927	2.776	0.452
162.000	155.819	80.008	19.993	103.906	19.925	2.932	0.485
164.000	156.776	80.005	19.992	103.902	19.925	2.896	0.478
166.000	157.766	80.008	19.994	103.903	19.926	2.880	0.505
168.000	158.777	80.008	19.994	103.913	19.928	2.736	0.490
170.000	159.737	80.007	19.993	103.911	19.924	3.004	0.462
172.000	160.702	80.008	19.994	103.902	19.926	2.858	0.467
174.000	161.721	80.009	19.995	103.904	19.929	2.684	0.492
176.000	162.721	80.009	19.995	103.903	19.928	2.714	0.478
178.000	163.732	80.009	19.993	103.900	19.933	2.405	0.534
180.000	164.768	80.010	19.994	103.901	19.933	2.369	0.537
182.000	165.732	80.010	19.994	103.903	19.931	2.505	0.492
184.000	166.774	80.009	19.993	103.899	19.932	2.426	0.540
186.000	167.734	80.007	19.995	103.901	19.931	2.528	0.514
188.000	168.742	80.007	19.993	103.904	19.933	2.345	0.508
190.000	169.768	80.007	19.994	103.905	19.932	2.473	0.519
192.000	170.785	80.007	19.995	103.878	19.933	2.354	0.532
194.000	171.758	80.007	19.994	103.880	19.933	2.362	0.521
196.000	172.771	80.006	19.994	103.897	19.931	2.505	0.458
198.000	173.808	80.007	19.994	103.904	19.937	2.068	0.513
200.000	174.807	80.006	19.995	103.906	19.934	2.304	0.491
202.000	175.796	80.007	19.994	103.900	19.939	1.986	0.499
204.000	176.828	80.006	19.995	103.898	19.938	2.037	0.491
206.000	177.857	80.006	19.994	103.895	19.937	2.109	0.500
208.000	178.835	80.006	19.995	103.894	19.938	2.019	0.495
210.001	179.864	80.006	19.995	103.875	19.937	2.085	0.508
212.000	180.842	80.009	19.994	103.864	19.938	2.028	0.492
214.000	181.850	80.007	19.993	103.872	19.937	2.066	0.483
216.000	182.898	80.007	19.992	103.867	19.936	2.190	0.513
218.000	183.854	80.007	19.995	103.876	19.940	1.876	0.454
220.000	184.881	80.007	19.994	103.895	19.938	2.058	0.508
222.000	185.898	80.008	19.994	103.868	19.941	1.847	0.526
224.000	186.917	80.006	19.994	103.888	19.937	2.073	0.508
226.000	187.931	80.006	19.993	103.888	19.942	1.749	0.510
228.000	188.909	80.007	19.994	103.867	19.941	1.823	0.469
230.000	189.863	80.006	19.995	103.863	19.940	1.859	0.460
232.000	190.940	80.009	19.995	103.853	19.936	2.177	0.536
234.000	191.892	80.009	19.993	103.873	19.937	2.075	0.497
236.000	192.903	80.010	19.994	103.872	19.936	2.132	0.498
238.000	193.926	80.009	19.993	103.846	19.937	2.100	0.506
240.000	194.920	80.009	19.994	103.859	19.942	1.763	0.504
242.000	195.951	80.008	19.995	103.858	19.943	1.673	0.512
244.000	196.931	80.009	19.994	103.859	19.942	1.719	0.508
246.000	197.888	80.009	19.993	103.872	19.939	1.948	0.500
248.000	198.917	80.008	19.993	103.867	19.943	1.655	0.520
250.000	199.878	80.009	19.994	103.867	19.942	1.763	0.472
252.000	200.915	80.008	19.993	103.863	19.942	1.772	0.516
254.000	201.923	80.009	19.994	103.857	19.942	1.745	0.512
256.000	202.887	80.010	19.992	103.857	19.941	1.810	0.497
258.000	203.881	80.009	19.993	103.850	19.942	1.732	0.496
260.000	204.864	80.010	19.993	103.876	19.942	1.739	0.468
262.000	205.858	80.010	19.993	103.855	19.941	1.815	0.485
264.000	206.843	80.008	19.994	103.865	19.945	1.556	0.494
266.000	207.843	80.010	19.993	103.842	19.944	1.580	0.472
268.000	208.831	80.006	19.994	103.857	19.943	1.692	0.505
270.000	209.799	80.007	19.994	103.844	19.943	1.687	0.493
272.000	210.791	80.007	19.996	103.842	19.944	1.616	0.507
274.000	211.768	80.008	19.994	103.845	19.944	1.609	0.510
276.000	212.735	80.006	19.994	103.843	19.945	1.535	0.498
278.000	213.752	80.007	19.995	103.848	19.945	1.522	0.492
280.000	214.717	80.008	19.995	103.853	19.942	1.755	0.499
282.000	215.713	80.007	19.995	103.850	19.944	1.586	0.513
284.000	216.673	80.007	19.994	103.854	19.942	1.728	0.499
286.000	217.670	80.007	19.994	103.844	19.943	1.666	0.501
288.000	218.619	80.006	19.994	103.851	19.944	1.626	0.445
290.000	219.633	80.008	19.994	103.850	19.944	1.637	0.511
292.000	220.619	80.007	19.994	103.851	19.942	1.762	0.470
294.000	221.561	80.007	19.995	103.841	19.943	1.673	0.474
296.000	222.570	80.007	19.996	103.841	19.945	1.573	0.537
298.000	223.529	80.007	19.995	103.837	19.945	1.524	0.471
300.000	224.464	80.006	19.996	103.837	19.943	1.662	0.465
302.000	225.504	80.007	19.994	103.848	19.945	1.565	0.506
304.000	226.482	80.006	19.995	103.857	19.948	1.369	0.523
306.000	227.496	80.006	19.994	103.862	19.947	1.431	0.499
308.000	228.459	80.008	19.994	103.841	19.947	1.376	0.507
310.000	229.469	80.008	19.994	103.846	19.950	1.224	0.492
312.000	230.493	80.008	19.994	103.855	19.948	1.353	0.524
314.000	231.464	80.009	19.994	103.844	19.949	1.294	0.497
316.000	232.447	80.009	19.992	103.847	19.947	1.408	0.470
318.000	233.451	80.008	19.994	103.829	19.947	1.404	0.503
320.000	234.476	80.009	19.994	103.827	19.947	1.404	0.442
322.000	235.467	80.010	19.993	103.832	19.946	1.489	0.509
324.000	236.489	80.008	19.994	103.836	19.947	1.406	0.456
326.000	237.426	80.008	19.994	103.827	19.947	1.378	0.505
328.000	238.467	80.009	19.993	103.826	19.948	1.346	0.509
330.000	239.440	80.008	19.994	103.832	19.949	1.294	0.511
332.000	240.440	80.009	19.994	103.829	19.948	1.357	0.520
334.000	241.415	80.009	19.993	103.827	19.946	1.507	0.488
336.000	242.442	80.009	19.994	103.831	19.946	1.480	0.504
338.000	243.415	80.010	19.993	103.851	19.943	1.715	0.530
340.000	244.419	80.010	19.992	103.826	19.947	1.410	0.513
342.000	245.436	80.011	19.993	103.822	19.947	1.372	0.545
344.000	246.406	80.010	19.993	103.841	19.945	1.533	0.489
346.000	247.383	80.010	19.993	103.845	19.946	1.453	0.506
348.000	248.453	80.008	19.994	103.823	19.946	1.493	0.532
350.000	249.445	80.009	19.993	103.835	19.946	1.487	0.529
352.000	250.415	80.007	19.994	103.854	19.944	1.635	0.452
354.000	251.463	80.007	19.995	103.827	19.950	1.208	0.498
356.000	252.472	80.007	19.995	103.823	19.950	1.217	0.495
358.000	253.469	80.007	19.992	103.823	19.949	1.237	0.509
360.000	254.500	80.008	19.995	103.836	19.950	1.196	0.511
362.000	255.525	80.007	19.994	103.827	19.951	1.118	0.529
364.000	256.504	80.008	19.995	103.853	19.950	1.177	0.512
366.000	257.513	80.007	19.996	103.828	19.948	1.338	0.490
368.000	258.555	80.008	19.994	103.817	19.949	1.293	0.541
370.000	259.581	80.007	19.993	103.794	19.949	1.273	0.543
372.000	260.595	80.007	19.993	103.799	19.946	1.463	0.522
374.000	261.570	80.008	19.994	103.838	19.953	0.992	0.484
376.000	262.570	80.008	19.993	103.827	19.953	0.965	0.488
378.000	263.582	80.008	19.994	103.834	19.951	1.113	0.519
380.000	264.604	80.007	19.995	103.831	19.951	1.128	0.503
382.000	265.581	80.006	19.995	103.803	19.952	1.092	0.471
384.000	266.521	80.007	19.995	103.819	19.951	1.096	0.490
386.000	267.552	80.006	19.995	103.827	19.950	1.201	0.496
388.000	268.552	80.007	19.994	103.813	19.950	1.179	0.514
390.000	269.582	80.007	19.995	103.812	19.950	1.226	0.518
392.000	270.608	80.007	19.996	103.821	19.951	1.115	0.526
394.000	271.619	80.007	19.994	103.805	19.950	1.167	0.515
396.000	272.614	80.010	19.993	103.810	19.947	1.419	0.480
398.000	273.613	80.008	19.993	103.805	19.948	1.323	0.487
400.000	274.603	80.009	19.993	103.812	19.948	1.342	0.467
402.000	275.570	80.009	19.994	103.820	19.947	1.374	0.517
404.000	276.562	80.009	19.995	103.814	19.947	1.387	0.470
406.000	277.606	80.009	19.994	103.807	19.948	1.337	0.540
408.000	278.547	80.009	19.994	103.808	19.949	1.234	0.490
410.000	279.546	80.008	19.994	103.823	19.949	1.236	0.489
412.000	280.544	80.009	19.992	103.823	19.949	1.239	0.488
414.000	281.546	80.009	19.995	103.817	19.951	1.133	0.502
416.000	282.524	80.009	19.994	103.802	19.954	0.923	0.506
418.000	283.520	80.008	19.993	103.789	19.948	1.332	0.484
420.000	284.505	80.012	19.994	103.813	19.948	1.340	0.492
422.000	285.540	80.010	19.995	103.803	19.948	1.338	0.513
424.000	286.559	80.009	19.995	103.803	19.948	1.304	0.510
426.000	287.585	80.010	19.994	103.816	19.948	1.307	0.524
428.000	288.561	80.010	19.993	103.799	19.948	1.334	0.485
430.000	289.566	80.008	19.993	103.804	19.949	1.245	0.496
432.001	290.557	80.009	19.993	103.807	19.949	1.285	0.491
434.000	291.577	80.007	19.994	103.812	19.952	1.092	0.521
436.000	292.577	80.007	19.993	103.807	19.949	1.298	0.476
438.000	293.605	80.007	19.995	103.816	19.952	1.094	0.528
440.000	294.588	80.008	19.992	103.809	19.951	1.137	0.504
442.000	295.605	80.008	19.993	103.808	19.953	0.989	0.520
444.000	296.622	80.008	19.993	103.791	19.950	1.167	0.515
446.000	297.649	80.007	19.994	103.793	19.953	1.007	0.536
448.000	298.647	80.008	19.994	103.791	19.952	1.054	0.499
450.000	299.675	80.008	19.994	103.814	19.953	1.022	0.493
452.000	300.676	80.008	19.994	103.805	19.955	0.870	0.540
454.000	301.671	80.006	19.994	103.801	19.954	0.938	0.486
456.000	302.666	80.007	19.994	103.804	19.956	0.812	0.533
458.000	303.688	80.006	19.993	103.805	19.954	0.938	0.511
460.000	304.745	80.007	19.993	103.794	19.952	1.063	0.527
462.000	305.695	80.005	19.994	103.793	19.956	0.817	0.510
464.000	306.770	80.007	19.994	103.795	19.951	1.130	0.523
466.000	307.756	80.007	19.993	103.788	19.953	0.988	0.518
468.000	308.771	80.006	19.995	103.803	19.955	0.859	0.521
470.000	309.797	80.008	19.994	103.787	19.954	0.895	0.532
472.000	310.821	80.008	19.993	103.808	19.957	0.721	0.508
474.000	311.811	80.008	19.993	103.816	19.958	0.639	0.513
476.000	312.887	80.011	19.993	103.820	19.956	0.762	0.537
478.000	313.916	80.009	19.994	103.799	19.959	0.600	0.511
480.000	314.927	80.009	19.996	103.820	19.959	0.543	0.502
482.000	315.922	80.008	19.995	103.814	19.959	0.581	0.479
484.000	317.007	80.008	19.995	103.805	19.959	0.547	0.562
486.000	317.988	80.008	19.996	103.789	19.958	0.617	0.487
488.000	319.057	80.008	19.994	103.794	19.958	0.621	0.527
490.000	320.070	80.007	19.994	103.788	19.956	0.789	0.521
492.000	321.069	80.009	19.993	103.784	19.955	0.836	0.541
494.000	322.084	80.009	19.992	103.782	19.957	0.710	0.522
496.000	323.129	80.009	19.993	103.784	19.954	0.938	0.506
498.000	324.135	80.010	19.993	103.798	19.955	0.846	0.521
500.000	325.184	80.011	19.992	103.807	19.959	0.590	0.529
502.000	326.159	80.009	19.993	103.803	19.960	0.492	0.483
504.000	327.196	80.009	19.993	103.808	19.956	0.800	0.491
506.000	328.250	80.010	19.994	103.793	19.958	0.668	0.548
508.000	329.239	80.007	19.994	103.803	19.954	0.904	0.502
510.000	330.249	80.008	19.993	103.789	19.960	0.516	0.508
512.000	331.276	80.007	19.994	103.787	19.958	0.672	0.479
514.000	332.276	80.006	19.994	103.788	19.954	0.946	0.514
516.000	333.312	80.006	19.993	103.778	19.958	0.677	0.508
518.000	334.354	80.005	19.994	103.785	19.957	0.727	0.509
520.000	335.395	80.006	19.993	103.764	19.957	0.702	0.500
522.000	336.379	80.007	19.993	103.784	19.961	0.460	0.485
524.000	337.397	80.008	19.992	103.803	19.960	0.477	0.506
526.000	338.425	80.007	19.992	103.816	19.961	0.418	0.502
528.000	339.437	80.007	19.993	103.815	19.960	0.498	0.520
530.000	340.463	80.007	19.993	103.810	19.957	0.711	0.511
532.000	341.478	80.009	19.992	103.788	19.957	0.721	0.488
534.000	342.492	80.008	19.994	103.780	19.959	0.556	0.480
536.000	343.542	80.008	19.993	103.787	19.960	0.501	0.493
538.000	344.564	80.005	19.994	103.788	19.962	0.369	0.484
540.000	345.583	80.007	19.996	103.789	19.959	0.605	0.522
542.000	346.544	80.006	19.993	103.800	19.956	0.772	0.500
544.000	347.566	80.007	19.995	103.780	19.957	0.721	0.516
546.000	348.628	80.007	19.995	103.784	19.957	0.690	0.539
548.000	349.642	80.009	19.994	103.786	19.958	0.628	0.520
550.000	350.657	80.007	19.992	103.787	19.957	0.692	0.520
552.000	351.633	80.007	19.995	103.782	19.956	0.774	0.504
554.000	352.678	80.007	19.994	103.787	19.956	0.791	0.491
556.000	353.701	80.008	19.995	103.783	19.959	0.602	0.532
558.000	354.731	80.009	19.993	103.784	19.959	0.554	0.524
560.000	355.712	80.008	19.993	103.789	19.960	0.532	0.510
562.000	356.698	80.009	19.993	103.779	19.958	0.637	0.477
564.000	357.763	80.008	19.995	103.783	19.954	0.897	0.519
566.000	358.748	80.009	19.992	103.786	19.952	1.040	0.502
568.000	359.749	80.006	19.994	103.786	19.953	1.008	0.496
570.000	360.770	80.006	19.994	103.786	19.951	1.107	0.525
572.000	361.790	80.006	19.994	103.783	19.955	0.883	0.503
574.000	362.804	80.006	19.995	103.784	19.954	0.897	0.519
576.000	363.761	80.007	19.995	103.782	19.950	1.173	0.487
578.000	364.770	80.009	19.993	103.785	19.952	1.078	0.477
580.000	365.793	80.008	19.994	103.783	19.952	1.093	0.475
582.000	366.796	80.011	19.995	103.781	19.954	0.887	0.471
584.000	367.797	80.010	19.995	103.786	19.957	0.683	0.501
586.000	368.788	80.009	19.993	103.780	19.953	1.016	0.514
588.000	369.846	80.009	19.993	103.783	19.956	0.787	0.528
590.000	370.817	80.007	19.994	103.784	19.953	1.020	0.488
592.000	371.873	80.008	19.994	103.788	19.950	1.230	0.527
594.000	372.857	80.007	19.994	103.788	19.950	1.199	0.512
596.000	373.917	80.008	19.993	103.780	19.949	1.277	0.519
598.000	374.930	80.007	19.994	103.774	19.949	1.239	0.498
600.000	375.996	80.008	19.994	103.770	19.948	1.320	0.507
602.000	377.007	80.009	19.993	103.782	19.949	1.235	0.503
604.000	378.022	80.008	19.992	103.782	19.949	1.280	0.520
606.000	379.051	80.006	19.994	103.779	19.949	1.290	0.515
608.000	380.065	80.008	19.994	103.773	19.950	1.184	0.558
610.000	381.066	80.007	19.995	103.779	19.946	1.447	0.497
612.000	382.066	80.008	19.994	103.763	19.947	1.375	0.491
614.000	383.096	80.006	19.993	103.761	19.946	1.473	0.506
616.000	384.092	80.006	19.994	103.774	19.945	1.534	0.491
618.000	385.125	80.007	19.993	103.778	19.944	1.638	0.518
620.000	386.162	80.008	19.994	103.779	19.945	1.536	0.492
622.000	387.186	80.008	19.992	103.783	19.943	1.689	0.531
624.000	388.232	80.008	19.992	103.774	19.942	1.757	0.541
626.000	389.261	80.007	19.993	103.763	19.942	1.784	0.510
628.000	390.277	80.006	19.994	103.766	19.941	1.804	0.524
630.000	391.307	80.008	19.994	103.771	19.942	1.765	0.529
632.000	392.323	80.007	19.993	103.757	19.939	1.952	0.515
634.000	393.365	80.009	19.993	103.760	19.937	2.111	0.530
636.000	394.431	80.009	19.994	103.764	19.936	2.171	0.534
638.000	395.440	80.009	19.994	103.773	19.936	2.188	0.498
640.000	396.451	80.009	19.993	103.782	19.938	2.054	0.532
642.000	397.481	80.008	19.994	103.785	19.935	2.203	0.514
644.000	398.486	80.008	19.993	103.772	19.937	2.095	0.523
646.000	399.490	80.008	19.994	103.779	19.933	2.392	0.490
648.000	400.505	80.006	19.994	103.780	19.934	2.322	0.507
650.000	401.484	80.008	19.993	103.770	19.931	2.523	0.509
652.000	402.563	80.007	19.994	103.755	19.931	2.496	0.517
654.000	403.549	80.008	19.994	103.744	19.926	2.882	0.532
656.000	404.562	80.011	19.994	103.736	19.922	3.133	0.502
658.000	405.607	80.009	19.994	103.753	19.922	3.105	0.496
660.001	406.604	80.009	19.995	103.749	19.921	3.203	0.505
662.000	407.597	80.010	19.993	103.755	19.922	3.162	0.470
664.000	408.598	80.008	19.994	103.769	19.918	3.406	0.505
666.000	409.649	80.010	19.993	103.750	19.916	3.572	0.526
668.000	410.623	80.008	19.995	103.745	19.917	3.502	0.502
670.000	411.631	80.006	19.996	103.753	19.913	3.776	0.516
672.000	412.649	80.007	19.994	103.745	19.909	4.037	0.520
674.000	413.624	80.007	19.995	103.757	19.904	4.387	0.475
676.000	414.639	80.007	19.994	103.750	19.899	4.697	0.483
678.000	415.666	80.009	19.994	103.746	19.898	4.765	0.518
680.000	416.650	80.008	19.994	103.752	19.892	5.217	0.503
682.001	417.732	80.008	19.994	103.749	19.885	5.688	0.546
684.000	418.693	80.007	19.994	103.747	19.883	5.799	0.525
686.000	419.680	80.010	19.992	103.751	19.876	6.274	0.472
688.000	420.731	80.007	19.993	103.747	19.867	6.897	0.495
690.000	421.734	80.009	19.994	103.752	19.869	6.797	0.525
692.000	422.743	80.007	19.994	103.749	19.856	7.653	0.493
694.000	423.717	80.006	19.994	103.742	19.853	7.872	0.479
696.000	424.796	80.007	19.993	103.746	19.845	8.464	0.526
698.000	425.743	80.007	19.995	103.748	19.841	8.738	0.481
700.000	426.775	80.006	19.994	103.750	19.833	9.258	0.488
702.000	427.773	80.007	19.994	103.754	19.826	9.767	0.505
704.000	428.835	80.007	19.993	103.744	19.817	10.400	0.524
706.000	429.821	80.007	19.994	103.748	19.806	11.112	0.478
708.000	430.827	80.008	19.994	103.750	19.798	11.683	0.495
710.000	431.832	80.006	19.993	103.749	19.791	12.189	0.512
712.000	432.895	80.007	19.991	103.750	19.780	12.909	0.509
714.000	433.922	80.008	19.993	103.734	19.770	13.627	0.515
716.000	434.967	80.010	19.994	103.724	19.756	14.548	0.517
718.000	435.968	80.009	19.993	103.750	19.740	15.661	0.527
720.000	436.944	80.008	19.993	103.752	19.718	17.214	0.473
722.000	438.027	80.009	19.994	103.731	19.693	18.925	0.502
724.000	439.048	80.007	19.993	103.730	19.674	20.227	0.510
726.000	440.073	80.009	19.992	103.714	19.659	21.285	0.495
728.001	441.130	80.006	19.996	103.704	19.643	22.403	0.499
730.000	442.124	80.008	19.994	103.698	19.628	23.417	0.529
732.000	443.176	80.010	19.995	103.710	19.606	24.921	0.511
734.000	444.166	80.009	19.994	103.729	19.584	26.452	0.519
736.000	445.218	80.010	19.996	103.726	19.557	28.301	0.500
738.000	446.226	80.010	19.993	103.716	19.530	30.157	0.519
740.000	447.233	80.011	19.993	103.733	19.499	32.326	0.475
742.000	448.276	80.010	19.994	103.711	19.466	34.562	0.510
744.000	449.267	80.011	19.993	103.708	19.431	36.996	0.470
746.000	450.271	80.011	19.994	103.703	19.396	39.395	0.479
748.000	451.264	80.010	19.993	103.703	19.356	42.133	0.490
750.000	452.296	80.009	19.995	103.696	19.312	45.192	0.504
752.000	453.332	80.007	19.993	103.686	19.259	48.868	0.501
754.000	454.378	80.007	19.995	103.699	19.205	52.598	0.538
756.000	455.387	80.007	19.995	103.691	19.138	57.202	0.511
758.000	456.377	80.008	19.994	103.682	19.068	62.027	0.505
760.000	457.372	80.007	19.994	103.674	18.990	67.367	0.512
762.000	458.411	80.007	19.995	103.669	18.904	73.292	0.527
764.000	459.469	80.006	19.994	103.671	18.801	80.411	0.537
766.000	460.428	80.006	19.995	103.666	18.696	87.626	0.487
768.000	461.400	80.007	19.994	103.652	18.577	95.755	0.500
770.000	462.466	80.008	19.994	103.638	18.456	104.064	0.509
772.000	463.437	80.009	19.993	103.606	18.325	113.149	0.487
774.000	464.487	80.008	19.993	103.611	18.178	123.222	0.515
776.001	465.483	80.008	19.992	103.607	18.040	132.706	0.511
778.000	466.502	80.007	19.993	103.574	17.895	142.629	0.502
780.000	467.503	80.007	19.995	103.523	17.739	153.392	0.522
782.000	468.523	80.006	19.993	103.555	17.576	164.561	0.468
784.000	469.582	80.007	19.994	103.555	17.399	176.556	0.513
786.000	470.596	80.008	19.993	103.515	17.220	188.800	0.514
788.000	471.603	80.007	19.993	103.472	17.017	202.707	0.524
790.000	472.587	80.008	19.992	103.459	16.792	217.956	0.482
792.000	473.648	80.009	19.994	103.459	16.576	232.476	0.539
794.000	474.684	80.009	19.995	103.369	16.341	248.523	0.529
796.000	475.676	80.008	19.994	103.307	16.073	266.855	0.511
798.000	476.690	80.009	19.992	103.280	15.785	286.596	0.527
800.000	477.725	80.009	19.994	103.240	15.497	306.130	0.540
802.000	478.743	80.009	19.993	103.108	15.206	325.773	0.523
804.000	479.736	80.009	19.993	103.030	14.894	346.678	0.487
806.001	480.742	80.008	19.994	103.023	14.549	369.814	0.521
808.000	481.728	80.009	19.994	103.009	14.176	394.979	0.514
810.000	482.772	80.009	19.993	102.988	13.780	421.922	0.483
812.000	483.773	80.009	19.994	102.910	13.371	449.674	0.527
814.000	484.763	80.010	19.993	102.783	12.959	477.362	0.494
816.000	485.770	80.010	19.993	102.660	12.552	504.758	0.487
818.000	486.754	80.010	19.993	102.558	12.141	532.261	0.478
820.000	487.767	80.009	19.994	102.515	11.732	559.803	0.511
822.000	488.756	80.011	19.994	102.498	11.336	586.533	0.472
824.000	489.752	80.008	19.993	102.436	10.955	612.284	0.508
826.000	490.757	80.009	19.994	102.351	10.613	635.974	0.488
828.000	491.722	80.010	19.995	102.273	10.298	657.201	0.494
830.000	492.752	80.007	19.994	102.204	10.037	674.375	0.485
832.000	493.754	80.009	19.993	102.173	9.823	687.701	0.512
834.000	494.772	80.006	19.995	102.136	9.618	701.297	0.498
836.000	495.801	80.008	19.995	102.159	9.467	713.746	0.509
838.000	496.770	80.007	19.994	102.206	9.402	719.720	0.475
840.000	497.792	80.008	19.996	102.116	9.486	715.576	0.524
842.000	498.834	80.007	19.995	102.004	9.767	697.374	0.505
844.000	499.811	80.008	19.993	101.835	10.160	671.276	0.489
846.000	500.932	80.008	19.993	102.002	10.675	636.599	0.565
848.000	501.928	80.006	19.995	102.296	11.275	595.847	0.502
850.000	502.972	80.006	19.994	102.526	11.928	552.055	0.503
852.000	503.995	80.007	19.993	102.704	12.642	503.864	0.519
854.000	505.002	80.006	19.995	102.834	13.406	452.168	0.536
856.000	506.069	80.007	19.995	102.944	14.207	397.627	0.518
858.000	507.141	80.005	19.994	103.000	15.017	342.032	0.532
860.000	508.193	80.006	19.995	103.126	15.813	287.248	0.561
862.000	509.231	80.006	19.996	103.314	16.551	236.255	0.524
864.000	510.318	80.006	19.995	103.495	17.227	189.505	0.558
866.000	511.319	80.007	19.994	103.685	17.816	148.734	0.516
868.000	512.368	80.006	19.994	103.818	18.308	114.675	0.530
870.000	513.405	80.008	19.994	103.910	18.722	86.053	0.524
872.000	514.507	80.008	19.994	103.956	19.045	63.693	0.552
874.000	515.537	80.008	19.993	103.966	19.300	46.089	0.487
876.000	516.563	80.008	19.993	103.935	19.491	32.921	0.534
878.000	517.622	80.010	19.993	103.906	19.626	23.574	0.499
880.000	518.679	80.008	19.996	103.884	19.724	16.782	0.558
882.000	519.655	80.009	19.994	103.859	19.792	12.087	0.520
884.000	520.739	80.009	19.994	103.830	19.836	9.075	0.502
886.000	521.724	80.007	19.994	103.799	19.872	6.560	0.510
888.000	522.810	80.008	19.993	103.783	19.894	5.053	0.544
890.000	523.811	80.007	19.993	103.771	19.906	4.206	0.538
892.000	524.792	80.008	19.993	103.764	19.917	3.491	0.493
894.000	525.853	80.010	19.994	103.764	19.927	2.755	0.544
896.000	526.797	80.007	19.993	103.763	19.932	2.411	0.477
898.000	527.878	80.009	19.992	103.749	19.942	1.755	0.536
900.000	528.877	80.011	19.993	103.760	19.946	1.458	0.493
902.000	529.989	80.010	19.993	103.754	19.947	1.429	0.493
904.000	530.843	80.009	19.994	103.740	19.933	2.388	0.505
906.000	531.904	80.009	19.993	103.738	19.937	2.081	0.420
908.000	532.926	80.008	19.992	103.737	19.939	1.985	0.545
910.000	534.171	80.008	19.993	103.722	19.945	1.524	0.471
912.000	535.152	80.005	19.994	103.712	19.948	1.357	0.562
914.000	536.337	80.007	19.993	103.713	19.945	1.527	0.527
916.000	537.045	80.005	19.995	103.712	19.947	1.431	0.734
918.000	537.949	80.009	19.993	103.713	19.948	1.332	0.144
920.000	539.011	80.007	19.994	103.710	19.951	1.137	0.683
922.000	539.862	80.008	19.994	103.703	19.952	1.083	0.434
924.000	541.131	80.008	19.995	103.678	19.950	1.163	0.351
926.000	542.328	80.007	19.995	103.650	19.952	1.024	0.583
928.000	543.247	80.008	19.994	103.573	19.948	1.308	0.616
930.000	544.230	80.007	19.993	103.509	19.953	1.010	0.530
932.001	545.305	80.007	19.993	103.458	19.949	1.254	0.502
934.000	546.292	80.007	19.994	103.551	19.948	1.333	0.516
936.000	547.397	80.009	19.994	103.649	19.951	1.112	0.470
938.001	548.306	80.007	19.994	103.694	19.951	1.095	0.519
940.000	549.378	80.008	19.994	103.730	19.950	1.191	0.511
942.000	550.390	80.006	19.994	103.741	19.951	1.135	0.520
944.000	551.430	80.006	19.995	103.746	19.952	1.055	0.503
946.000	552.453	80.006	19.994	103.732	19.950	1.208	0.505
948.000	553.458	80.007	19.995	103.751	19.953	0.987	0.537
950.000	554.455	80.006	19.995	103.744	19.953	1.014	0.512
952.000	555.541	80.008	19.996	103.744	19.950	1.189	0.518
954.000	556.518	80.007	19.995	103.739	19.954	0.944	0.521
956.000	557.564	80.008	19.996	103.741	19.956	0.804	0.518
958.000	558.595	80.009	19.992	103.745	19.957	0.701	0.482
960.000	559.551	80.009	19.995	103.749	19.954	0.904	0.528
962.000	560.538	80.010	19.994	103.750	19.954	0.887	0.526
964.000	561.596	80.008	19.994	103.746	19.955	0.836	0.488
966.000	562.606	80.008	19.995	103.746	19.956	0.772	0.511
968.000	563.677	80.007	19.994	103.729	19.953	1.006	0.532
970.001	564.615	80.008	19.994	103.745	19.953	0.996	0.510
972.000	565.647	80.008	19.993	103.747	19.953	0.998	0.491
974.000	566.651	80.008	19.994	103.747	19.955	0.828	0.483
976.000	567.701	80.008	19.994	103.744	19.952	1.038	0.522
978.000	568.682	80.008	19.994	103.749	19.952	1.044	0.514
980.000	569.742	80.008	19.994	103.733	19.949	1.238	0.492
982.000	570.746	80.010	19.992	103.731	19.954	0.900	0.486
984.000	571.764	80.009	19.994	103.723	19.950	1.218	0.527
986.000	572.759	80.009	19.994	103.716	19.955	0.881	0.506
988.000	573.847	80.009	19.992	103.716	19.953	0.960	0.538
990.000	574.852	80.008	19.994	103.723	19.954	0.930	0.512
992.000	575.882	80.009	19.995	103.721	19.954	0.913	0.521
994.000	576.910	80.009	19.993	103.721	19.952	1.034	0.473
996.000	577.948	80.007	19.993	103.728	19.956	0.775	0.533
998.000	579.009	80.007	19.993	103.710	19.950	1.178	0.539
1000.000	580.027	80.008	19.993	103.725	19.952	1.076	0.524
1002.000	581.080	80.008	19.994	103.729	19.950	1.198	0.523
1004.000	582.101	80.009	19.993	103.706	19.948	1.337	0.526
1006.000	583.096	80.008	19.994	103.706	19.950	1.222	0.482
1008.000	584.128	80.007	19.995	103.704	19.950	1.180	0.482
1010.000	585.158	80.008	19.994	103.706	19.949	1.250	0.523
1012.000	586.176	80.010	19.993	103.714	19.948	1.322	0.505
1014.000	587.182	80.008	19.993	103.715	19.949	1.295	0.502
1016.000	588.231	80.007	19.994	103.740	19.950	1.167	0.512
1018.000	589.211	80.007	19.993	103.745	19.952	1.040	0.470
1020.000	590.289	80.007	19.994	103.743	19.956	0.769	0.506
1022.000	591.350	80.007	19.994	103.770	19.952	1.058	0.524
1024.001	592.357	80.007	19.993	103.763	19.956	0.817	0.505
1026.001	593.427	80.008	19.994	103.734	19.954	0.932	0.530
1028.000	594.457	80.007	19.994	103.727	19.955	0.841	0.498
1030.000	595.542	80.008	19.994	103.714	19.951	1.106	0.473
1032.001	596.595	80.008	19.994	103.653	19.955	0.864	0.524
1034.000	597.668	80.009	19.994	103.756	19.955	0.841	0.529
1036.001	598.680	80.009	19.994	103.766	19.955	0.868	0.538
1038.001	599.737	80.009	19.994	103.725	19.958	0.654	0.513
1040.000	600.779	80.009	19.995	103.743	19.957	0.728	0.542
1042.000	601.829	80.009	19.995	103.745	19.955	0.875	0.526
1044.000	602.911	80.008	19.994	103.748	19.955	0.853	0.548
1046.000	603.954	80.007	19.996	103.739	19.956	0.769	0.557
1048.000	604.981	80.008	19.995	103.730	19.954	0.887	0.527
1050.001	606.014	80.008	19.994	103.718	19.953	0.960	0.526
1052.001	607.063	80.009	19.993	103.707	19.953	0.974	0.543
1054.000	608.106	80.008	19.993	103.722	19.954	0.947	0.514
1056.000	609.152	80.009	19.993	103.731	19.950	1.178	0.512
1058.000	610.175	80.010	19.994	103.733	19.952	1.081	0.519
1060.000	611.202	80.010	19.995	103.729	19.950	1.227	0.514
1062.000	612.252	80.011	19.993	103.743	19.949	1.254	0.527
1064.000	613.274	80.012	19.994	103.739	19.952	1.078	0.531
1066.000	614.302	80.011	19.993	103.738	19.952	1.055	0.529
1068.001	615.318	80.009	19.993	103.723	19.950	1.227	0.502
1070.000	616.314	80.009	19.993	103.712	19.951	1.115	0.508
1072.000	617.345	80.006	19.994	103.721	19.949	1.270	0.530
1074.000	618.382	80.008	19.995	103.730	19.949	1.238	0.523
1076.000	619.396	80.007	19.994	103.723	19.951	1.095	0.536
1078.000	620.427	80.008	19.992	103.713	19.948	1.331	0.491
1080.000	621.425	80.009	19.996	103.724	19.950	1.187	0.477
1082.001	622.471	80.008	19.993	103.709	19.951	1.150	0.506
1084.000	623.479	80.008	19.995	103.732	19.950	1.193	0.529
1086.000	624.514	80.008	19.994	103.719	19.950	1.174	0.521
1088.001	625.521	80.009	19.993	103.725	19.953	0.993	0.529
1090.000	626.554	80.008	19.993	103.740	19.951	1.127	0.532
1092.000	627.577	80.009	19.993	103.741	19.951	1.153	0.529
1094.000	628.620	80.007	19.994	103.732	19.948	1.363	0.503
1096.000	629.619	80.007	19.994	103.731	19.949	1.242	0.516
1098.000	630.666	80.009	19.993	103.735	19.948	1.348	0.501
1100.001	631.708	80.008	19.995	103.712	19.950	1.206	0.525
1102.000	632.740	80.008	19.993	103.728	19.949	1.246	0.517
1104.000	633.723	80.008	19.994	103.727	19.945	1.560	0.515
1106.000	634.760	80.009	19.995	103.728	19.950	1.168	0.525
1108.000	635.852	80.007	19.995	103.745	19.951	1.131	0.511
1110.001	636.871	80.008	19.994	103.736	19.946	1.499	0.515
1112.000	637.883	80.008	19.994	103.734	19.948	1.342	0.497
1114.000	638.929	80.009	19.995	103.714	19.950	1.225	0.529
1116.000	639.993	80.009	19.995	103.723	19.948	1.307	0.529
1118.000	641.001	80.009	19.995	103.739	19.948	1.356	0.511
1120.000	642.028	80.011	19.994	103.726	19.948	1.333	0.517
1122.000	643.036	80.010	19.993	103.727	19.953	0.985	0.500
1124.000	644.068	80.009	19.994	103.743	19.948	1.325	0.507
1126.000	645.097	80.009	19.994	103.745	19.948	1.352	0.511
1128.000	646.148	80.008	19.993	103.745	19.948	1.322	0.499
1130.000	647.163	80.008	19.993	103.745	19.949	1.282	0.502
1132.001	648.191	80.008	19.995	103.740	19.946	1.473	0.532
1134.000	649.282	80.008	19.994	103.718	19.950	1.169	0.532
1136.000	650.325	80.008	19.994	103.735	19.948	1.329	0.558
1138.000	651.320	80.009	19.994	103.743	19.948	1.344	0.501
1140.000	652.396	80.010	19.996	103.758	19.948	1.316	0.532
1142.000	653.359	80.009	19.996	103.743	19.951	1.135	0.504
1144.000	654.422	80.011	19.994	103.746	19.948	1.301	0.508
1146.000	655.463	80.010	19.994	103.732	19.947	1.378	0.527
1148.000	656.489	80.010	19.994	103.719	19.947	1.416	0.510
1150.001	657.529	80.009	19.994	103.742	19.947	1.382	0.524
1152.000	658.585	80.007	19.995	103.744	19.947	1.375	0.535
1154.000	659.568	80.008	19.995	103.750	19.948	1.316	0.522
1156.000	660.578	80.008	19.994	103.748	19.947	1.424	0.534
1158.001	661.632	80.008	19.994	103.742	19.946	1.452	0.496
1160.000	662.638	80.007	19.993	103.733	19.946	1.499	0.495
1162.001	663.678	80.008	19.994	103.736	19.946	1.481	0.510
1164.000	664.656	80.007	19.994	103.739	19.951	1.127	0.491
1166.000	665.635	80.008	19.993	103.722	19.945	1.566	0.505
1168.000	666.651	80.008	19.994	103.728	19.949	1.274	0.517
1170.000	667.635	80.008	19.993	103.731	19.950	1.193	0.476
1172.001	668.647	80.009	19.994	103.738	19.946	1.478	0.510
1174.000	669.613	80.008	19.994	103.749	19.951	1.100	0.493
1176.000	670.655	80.009	19.994	103.743	19.950	1.223	0.516
1178.000	671.700	80.008	19.994	103.730	19.952	1.051	0.499
1180.000	672.715	80.008	19.994	103.731	19.951	1.152	0.507
1182.001	673.636	80.009	19.993	103.723	19.947	1.374	0.540
1184.001	674.628	80.008	19.993	103.729	19.946	1.441	0.424
1186.001	675.803	80.009	19.992	103.729	19.948	1.321	0.552
1188.000	676.813	80.007	19.993	103.730	19.948	1.350	0.483
1190.000	677.805	80.008	19.992	103.741	19.947	1.399	0.559
1192.001	678.774	80.010	19.993	103.740	19.948	1.325	0.504
1194.000	679.763	80.010	19.994	103.722	19.948	1.318	0.484
1196.000	680.747	80.009	19.993	103.734	19.948	1.348	0.517
1198.001	681.738	80.010	19.993	103.727	19.947	1.376	0.449
1200.000	682.724	80.009	19.995	103.745	19.948	1.312	0.491
1202.000	683.741	80.010	19.994	103.739	19.948	1.341	0.511
1204.000	684.699	80.010	19.995	103.741	19.947	1.395	0.493
1206.000	685.710	80.009	19.994	103.726	19.950	1.208	0.495
1208.000	686.715	80.009	19.993	103.725	19.947	1.378	0.501
1210.000	687.736	80.009	19.994	103.741	19.948	1.327	0.501
1212.000	688.738	80.009	19.994	103.733	19.950	1.170	0.464
1214.000	689.728	80.009	19.993	103.746	19.950	1.201	0.498
1216.001	690.757	80.009	19.993	103.716	19.949	1.286	0.510
1218.000	691.733	80.009	19.993	103.742	19.949	1.242	0.494
1220.001	692.756	80.010	19.993	103.735	19.949	1.265	0.499
1222.000	693.748	80.009	19.993	103.729	19.949	1.244	0.506
1224.000	694.735	80.011	19.994	103.731	19.945	1.516	0.481
1226.000	695.775	80.010	19.994	103.724	19.949	1.259	0.482
1228.000	696.791	80.009	19.994	103.740	19.949	1.252	0.514
1230.000	697.763	80.009	19.994	103.742	19.948	1.342	0.489
1232.001	698.802	80.007	19.995	103.726	19.946	1.486	0.494
1234.000	699.815	80.007	19.994	103.719	19.944	1.578	0.507
1236.000	700.823	80.008	19.995	103.740	19.945	1.536	0.520
1238.000	701.837	80.007	19.994	103.751	19.948	1.367	0.486
1240.001	702.822	80.008	19.993	103.731	19.944	1.611	0.476
1242.000	703.847	80.008	19.993	103.727	19.945	1.560	0.491
1244.000	704.857	80.008	19.993	103.724	19.943	1.654	0.517
1246.000	705.854	80.008	19.993	103.688	19.940	1.858	0.501
1248.000	706.880	80.008	19.995	103.698	19.946	1.505	0.507
1250.000	707.873	80.008	19.993	103.743	19.942	1.772	0.485
1252.000	708.900	80.009	19.994	103.743	19.945	1.513	0.519
1254.000	709.898	80.009	19.993	103.749	19.945	1.571	0.513
1256.000	710.940	80.008	19.994	103.728	19.943	1.652	0.520
1258.000	711.959	80.008	19.994	103.726	19.944	1.584	0.521
1260.001	712.946	80.009	19.994	103.732	19.945	1.545	0.506
1262.000	713.999	80.007	19.994	103.738	19.943	1.664	0.501
1264.000	715.028	80.007	19.995	103.734	19.945	1.571	0.534
1266.000	716.073	80.009	19.994	103.732	19.944	1.600	0.537
1268.001	717.123	80.008	19.993	103.721	19.943	1.681	0.508
1270.000	718.112	80.008	19.993	103.722	19.941	1.787	0.527
1272.000	719.165	80.010	19.993	103.746	19.945	1.526	0.543
1274.001	720.181	80.009	19.993	103.740	19.946	1.498	0.530
1276.000	721.191	80.010	19.993	103.746	19.946	1.443	0.505
1278.001	722.186	80.009	19.993	103.746	19.949	1.248	0.488
1280.000	723.270	80.010	19.993	103.738	19.947	1.371	0.470
1282.000	724.242	80.009	19.993	103.741	19.946	1.460	0.469
1284.001	725.254	80.008	19.993	103.737	19.948	1.327	0.507
1286.000	726.308	80.008	19.992	103.749	19.946	1.443	0.543
1288.000	727.330	80.009	19.994	103.734	19.944	1.592	0.508
1290.000	728.352	80.009	19.994	103.735	19.944	1.641	0.519
1292.000	729.372	80.008	19.996	103.735	19.944	1.622	0.529
1294.000	730.355	80.008	19.995	103.742	19.944	1.618	0.519
1296.000	731.364	80.008	19.995	103.743	19.949	1.270	0.544
1298.000	732.377	80.010	19.995	103.758	19.945	1.511	0.486
1300.000	733.395	80.010	19.995	103.741	19.941	1.830	0.487
1302.001	734.395	80.008	19.994	103.710	19.945	1.539	0.485
1304.000	735.403	80.010	19.993	103.709	19.944	1.639	0.515
1306.000	736.422	80.009	19.992	103.704	19.944	1.638	0.520
1308.000	737.405	80.010	19.994	103.707	19.946	1.501	0.488
1310.000	738.459	80.010	19.993	103.721	19.944	1.598	0.517
1312.000	739.438	80.007	19.994	103.728	19.945	1.533	0.483
1314.000	740.478	80.008	19.995	103.720	19.945	1.521	0.536
1316.000	741.485	80.006	19.994	103.773	19.947	1.412	0.492
1318.001	742.501	80.007	19.995	103.754	19.943	1.664	0.495
1320.001	743.554	80.008	19.994	103.734	19.941	1.824	0.509
1322.001	744.532	80.008	19.995	103.743	19.941	1.843	0.498
1323.500	745.291	80.008	19.996	103.726	19.942	1.720	0.499