File: 01_Data/MDF/FTIR/IS/MDF_IS_REFLECT_MEAS_210623_R1.dpt
5996.41,0.61663
5992.55,0.62021
5988.69,0.62484
5984.84,0.61890
5980.98,0.61991
5977.12,0.61962
5973.27,0.61324
5969.41,0.61016
5965.55,0.61412
5961.69,0.61842
5957.84,0.61312
5953.98,0.61831
5950.12,0.61074
5946.26,0.60384
5942.41,0.61791
5938.55,0.61389
5934.69,0.61218
5930.83,0.61359
5926.98,0.61821
5923.12,0.61928
5919.26,0.61295
5915.4,0.60522
5911.55,0.60576
5907.69,0.60537
5903.83,0.60747
5899.97,0.60168
5896.12,0.59408
5892.26,0.60201
5888.4,0.60558
5884.54,0.60596
5880.69,0.60815
5876.83,0.60524
5872.97,0.60341
5869.11,0.60583
5865.26,0.60391
5861.4,0.60406
5857.54,0.60778
5853.68,0.60602
5849.83,0.60931
5845.97,0.61273
5842.11,0.60590
5838.25,0.60582
5834.4,0.61126
5830.54,0.60199
5826.68,0.59856
5822.82,0.60066
5818.97,0.59996
5815.11,0.60013
5811.25,0.60156
5807.39,0.59762
5803.54,0.59793
5799.68,0.60084
5795.82,0.59487
5791.96,0.59028
5788.11,0.59586
5784.25,0.59564
5780.39,0.59473
5776.53,0.59876
5772.68,0.59793
5768.82,0.59477
5764.96,0.59523
5761.11,0.60402
5757.25,0.60724
5753.39,0.60502
5749.53,0.60083
5745.68,0.60767
5741.82,0.61261
5737.96,0.60597
5734.1,0.60804
5730.25,0.60989
5726.39,0.61436
5722.53,0.61570
5718.67,0.61576
5714.82,0.60541
5710.96,0.60897
5707.1,0.60927
5703.24,0.60661
5699.39,0.60423
5695.53,0.60613
5691.67,0.60236
5687.81,0.60308
5683.96,0.60624
5680.1,0.60561
5676.24,0.61131
5672.38,0.60696
5668.53,0.60152
5664.67,0.60484
5660.81,0.60007
5656.95,0.60222
5653.1,0.60544
5649.24,0.60214
5645.38,0.60574
5641.52,0.60456
5637.67,0.60613
5633.81,0.61341
5629.95,0.60740
5626.09,0.61135
5622.24,0.60938
5618.38,0.61290
5614.52,0.61175
5610.66,0.60748
5606.81,0.61040
5602.95,0.61757
5599.09,0.61077
5595.23,0.60578
5591.38,0.60939
5587.52,0.61105
5583.66,0.60934
5579.8,0.61483
5575.95,0.61375
5572.09,0.61883
5568.23,0.62318
5564.38,0.61259
5560.52,0.61268
5556.66,0.62214
5552.8,0.61782
5548.95,0.60837
5545.09,0.60848
5541.23,0.61365
5537.37,0.62497
5533.52,0.62005
5529.66,0.61303
5525.8,0.61197
5521.94,0.61081
5518.09,0.62002
5514.23,0.61588
5510.37,0.61091
5506.51,0.61204
5502.66,0.61728
5498.8,0.61867
5494.94,0.61504
5491.08,0.61252
5487.23,0.61781
5483.37,0.62071
5479.51,0.62827
5475.65,0.61195
5471.8,0.62967
5467.94,0.62166
5464.08,0.62421
5460.22,0.62177
5456.37,0.62663
5452.51,0.63609
5448.65,0.63303
5444.79,0.63413
5440.94,0.63319
5437.08,0.64154
5433.22,0.64031
5429.36,0.63043
5425.51,0.64294
5421.65,0.64427
5417.79,0.64269
5413.93,0.62519
5410.08,0.63284
5406.22,0.63824
5402.36,0.62541
5398.5,0.63770
5394.65,0.63041
5390.79,0.64696
5386.93,0.63780
5383.07,0.63776
5379.22,0.64212
5375.36,0.63260
5371.5,0.64044
5367.65,0.63800
5363.79,0.63698
5359.93,0.64793
5356.07,0.63854
5352.22,0.62804
5348.36,0.64107
5344.5,0.62301
5340.64,0.64456
5336.79,0.63133
5332.93,0.63376
5329.07,0.63098
5325.21,0.64012
5321.36,0.63550
5317.5,0.62644
5313.64,0.62920
5309.78,0.62690
5305.93,0.62318
5302.07,0.62262
5298.21,0.61419
5294.35,0.61864
5290.5,0.60560
5286.64,0.61077
5282.78,0.60006
5278.92,0.59209
5275.07,0.59113
5271.21,0.58331
5267.35,0.57494
5263.49,0.55231
5259.64,0.56051
5255.78,0.54792
5251.92,0.55887
5248.06,0.53495
5244.21,0.53422
5240.35,0.53773
5236.49,0.53187
5232.63,0.52000
5228.78,0.52476
5224.92,0.50971
5221.06,0.51863
5217.2,0.51713
5213.35,0.51761
5209.49,0.51711
5205.63,0.50656
5201.77,0.51361
5197.92,0.50769
5194.06,0.51447
5190.2,0.51562
5186.34,0.51087
5182.49,0.51071
5178.63,0.51393
5174.77,0.52051
5170.91,0.52125
5167.06,0.52572
5163.2,0.51924
5159.34,0.52536
5155.49,0.52259
5151.63,0.52824
5147.77,0.53745
5143.91,0.53435
5140.06,0.53283
5136.2,0.53863
5132.34,0.53892
5128.48,0.54277
5124.63,0.54452
5120.77,0.54129
5116.91,0.54354
5113.05,0.54425
5109.2,0.54791
5105.34,0.55382
5101.48,0.54993
5097.62,0.54697
5093.77,0.55035
5089.91,0.55268
5086.05,0.55826
5082.19,0.55587
5078.34,0.55607
5074.48,0.56003
5070.62,0.55863
5066.76,0.56073
5062.91,0.56234
5059.05,0.55898
5055.19,0.55958
5051.33,0.56513
5047.48,0.56674
5043.62,0.56784
5039.76,0.56717
5035.9,0.56820
5032.05,0.56725
5028.19,0.56736
5024.33,0.57183
5020.47,0.56640
5016.62,0.56403
5012.76,0.56250
5008.9,0.56351
5005.04,0.56602
5001.19,0.56305
4997.33,0.55685
4993.47,0.55798
4989.61,0.55640
4985.76,0.55601
4981.9,0.55283
4978.04,0.55113
4974.18,0.54627
4970.33,0.54367
4966.47,0.54146
4962.61,0.53677
4958.76,0.53267
4954.9,0.52888
4951.04,0.52157
4947.18,0.51860
4943.33,0.51551
4939.47,0.51180
4935.61,0.50568
4931.75,0.50252
4927.9,0.50060
4924.04,0.49625
4920.18,0.48809
4916.32,0.48186
4912.47,0.47951
4908.61,0.47667
4904.75,0.47450
4900.89,0.46831
4897.04,0.46381
4893.18,0.46193
4889.32,0.46080
4885.46,0.45809
4881.61,0.45313
4877.75,0.44946
4873.89,0.44593
4870.03,0.44258
4866.18,0.44187
4862.32,0.43697
4858.46,0.43346
4854.6,0.43178
4850.75,0.42946
4846.89,0.42582
4843.03,0.42410
4839.17,0.42393
4835.32,0.42006
4831.46,0.41725
4827.6,0.41627
4823.74,0.41272
4819.89,0.41029
4816.03,0.40992
4812.17,0.40913
4808.31,0.40795
4804.46,0.40729
4800.6,0.40561
4796.74,0.40549
4792.88,0.40578
4789.03,0.40532
4785.17,0.40452
4781.31,0.40204
4777.45,0.40022
4773.6,0.39937
4769.74,0.39845
4765.88,0.39988
4762.02,0.39766
4758.17,0.39556
4754.31,0.39437
4750.45,0.39673
4746.6,0.39823
4742.74,0.39724
4738.88,0.39716
4735.02,0.39876
4731.17,0.39837
4727.31,0.39888
4723.45,0.39811
4719.59,0.39848
4715.74,0.39762
4711.88,0.40007
4708.02,0.40093
4704.16,0.40112
4700.31,0.40271
4696.45,0.40359
4692.59,0.40386
4688.73,0.40444
4684.88,0.40545
4681.02,0.40647
4677.16,0.40587
4673.3,0.40372
4669.45,0.40613
4665.59,0.40898
4661.73,0.41088
4657.87,0.41188
4654.02,0.41378
4650.16,0.41406
4646.3,0.41514
4642.44,0.41748
4638.59,0.41745
4634.73,0.41925
4630.87,0.42296
4627.01,0.42327
4623.16,0.42498
4619.3,0.42535
4615.44,0.42794
4611.58,0.42953
4607.73,0.43085
4603.87,0.43272
4600.01,0.43665
4596.15,0.43505
4592.3,0.43851
4588.44,0.44010
4584.58,0.44077
4580.72,0.44358
4576.87,0.44333
4573.01,0.44377
4569.15,0.44676
4565.29,0.44814
4561.44,0.44927
4557.58,0.45084
4553.72,0.45383
4549.87,0.45330
4546.01,0.45257
4542.15,0.45325
4538.29,0.45346
4534.44,0.45491
4530.58,0.45879
4526.72,0.45728
4522.86,0.45581
4519.01,0.45552
4515.15,0.45514
4511.29,0.45526
4507.43,0.45528
4503.58,0.45330
4499.72,0.45328
4495.86,0.45034
4492,0.44833
4488.15,0.44674
4484.29,0.44249
4480.43,0.43892
4476.57,0.43451
4472.72,0.42975
4468.86,0.42279
4465,0.41790
4461.14,0.41134
4457.29,0.40681
4453.43,0.40325
4449.57,0.39848
4445.71,0.39113
4441.86,0.38629
4438,0.38333
4434.14,0.37801
4430.28,0.37292
4426.43,0.36795
4422.57,0.36467
4418.71,0.36019
4414.85,0.35714
4411,0.35561
4407.14,0.35133
4403.28,0.35009
4399.42,0.34995
4395.57,0.35129
4391.71,0.35120
4387.85,0.35108
4383.99,0.35279
4380.14,0.35464
4376.28,0.35523
4372.42,0.35798
4368.56,0.35872
4364.71,0.36057
4360.85,0.36257
4356.99,0.35971
4353.14,0.36000
4349.28,0.35984
4345.42,0.35785
4341.56,0.35642
4337.71,0.35566
4333.85,0.35368
4329.99,0.35257
4326.13,0.34865
4322.28,0.34744
4318.42,0.34816
4314.56,0.34767
4310.7,0.34545
4306.85,0.34384
4302.99,0.34376
4299.13,0.34299
4295.27,0.34182
4291.42,0.33978
4287.56,0.33909
4283.7,0.33970
4279.84,0.33907
4275.99,0.33767
4272.13,0.33809
4268.27,0.33890
4264.41,0.33867
4260.56,0.33981
4256.7,0.34026
4252.84,0.34044
4248.98,0.34203
4245.13,0.34296
4241.27,0.34332
4237.41,0.34291
4233.55,0.34501
4229.7,0.34631
4225.84,0.34650
4221.98,0.34732
4218.12,0.34780
4214.27,0.34813
4210.41,0.34877
4206.55,0.34905
4202.69,0.34916
4198.84,0.34985
4194.98,0.35027
4191.12,0.35175
4187.26,0.35145
4183.41,0.35089
4179.55,0.35131
4175.69,0.35273
4171.83,0.35324
4167.98,0.35478
4164.12,0.35552
4160.26,0.35550
4156.4,0.35516
4152.55,0.35454
4148.69,0.35411
4144.83,0.35249
4140.98,0.35086
4137.12,0.34912
4133.26,0.34823
4129.4,0.34734
4125.55,0.34477
4121.69,0.34214
4117.83,0.33944
4113.97,0.33717
4110.12,0.33349
4106.26,0.33075
4102.4,0.32685
4098.54,0.32297
4094.69,0.31939
4090.83,0.31506
4086.97,0.31257
4083.11,0.30988
4079.26,0.30594
4075.4,0.30236
4071.54,0.29853
4067.68,0.29490
4063.83,0.29273
4059.97,0.28872
4056.11,0.28535
4052.25,0.28150
4048.4,0.27775
4044.54,0.27537
4040.68,0.27285
4036.82,0.27040
4032.97,0.26834
4029.11,0.26787
4025.25,0.26618
4021.39,0.26570
4017.54,0.26669
4013.68,0.26589
4009.82,0.26634
4005.96,0.26545
4002.11,0.26518
3998.25,0.26849
3994.39,0.27015
3990.53,0.27040
3986.68,0.27223
3982.82,0.27158
3978.96,0.27370
3975.1,0.27391
3971.25,0.27567
3967.39,0.27737
3963.53,0.27701
3959.67,0.27882
3955.82,0.28089
3951.96,0.28253
3948.1,0.28306
3944.25,0.28593
3940.39,0.28789
3936.53,0.29150
3932.67,0.28861
3928.82,0.29692
3924.96,0.29320
3921.1,0.30048
3917.24,0.29579
3913.39,0.30350
3909.53,0.30738
3905.67,0.30369
3901.81,0.30782
3897.96,0.31058
3894.1,0.31292
3890.24,0.31223
3886.38,0.31209
3882.53,0.31930
3878.67,0.32124
3874.81,0.31856
3870.95,0.31551
3867.1,0.33114
3863.24,0.31882
3859.38,0.33846
3855.52,0.31924
3851.67,0.32229
3847.81,0.34377
3843.95,0.33393
3840.09,0.33391
3836.24,0.34014
3832.38,0.34068
3828.52,0.34319
3824.66,0.34996
3820.81,0.33205
3816.95,0.34090
3813.09,0.34813
3809.23,0.34125
3805.38,0.34941
3801.52,0.33072
3797.66,0.34584
3793.8,0.34386
3789.95,0.34205
3786.09,0.33846
3782.23,0.34485
3778.37,0.33717
3774.52,0.34642
3770.66,0.33351
3766.8,0.34026
3762.94,0.34688
3759.09,0.33481
3755.23,0.35367
3751.37,0.32623
3747.51,0.35276
3743.66,0.32493
3739.8,0.34714
3735.94,0.31971
3732.09,0.32498
3728.23,0.33032
3724.37,0.31812
3720.51,0.31614
3716.66,0.32250
3712.8,0.30279
3708.94,0.30215
3705.08,0.30418
3701.23,0.28574
3697.37,0.28851
3693.51,0.28500
3689.65,0.26107
3685.8,0.26646
3681.94,0.25535
3678.08,0.24126
3674.22,0.22943
3670.37,0.20973
3666.51,0.20606
3662.65,0.19213
3658.79,0.18178
3654.94,0.17474
3651.08,0.16005
3647.22,0.14864
3643.36,0.14690
3639.51,0.13687
3635.65,0.13061
3631.79,0.12693
3627.93,0.11222
3624.08,0.11598
3620.22,0.10526
3616.36,0.10482
3612.5,0.09841
3608.65,0.09151
3604.79,0.08895
3600.93,0.08343
3597.07,0.07936
3593.22,0.07615
3589.36,0.07318
3585.5,0.06972
3581.64,0.06648
3577.79,0.06303
3573.93,0.06093
3570.07,0.05873
3566.21,0.05422
3562.36,0.05426
3558.5,0.05134
3554.64,0.04952
3550.78,0.04850
3546.93,0.04617
3543.07,0.04470
3539.21,0.04356
3535.36,0.04218
3531.5,0.04203
3527.64,0.04074
3523.78,0.03979
3519.93,0.03936
3516.07,0.03835
3512.21,0.03744
3508.35,0.03671
3504.5,0.03529
3500.64,0.03498
3496.78,0.03434
3492.92,0.03387
3489.07,0.03384
3485.21,0.03312
3481.35,0.03278
3477.49,0.03254
3473.64,0.03184
3469.78,0.03202
3465.92,0.03149
3462.06,0.03105
3458.21,0.03100
3454.35,0.03045
3450.49,0.03019
3446.63,0.02978
3442.78,0.02985
3438.92,0.02985
3435.06,0.03033
3431.2,0.03009
3427.35,0.02966
3423.49,0.02932
3419.63,0.02962
3415.77,0.03051
3411.92,0.03025
3408.06,0.02979
3404.2,0.03026
3400.34,0.03044
3396.49,0.03067
3392.63,0.03095
3388.77,0.03072
3384.91,0.03011
3381.06,0.02992
3377.2,0.02983
3373.34,0.03033
3369.48,0.03034
3365.63,0.03041
3361.77,0.03025
3357.91,0.03108
3354.05,0.03085
3350.2,0.03074
3346.34,0.03069
3342.48,0.03126
3338.63,0.03151
3334.77,0.03236
3330.91,0.03258
3327.05,0.03317
3323.2,0.03364
3319.34,0.03310
3315.48,0.03427
3311.62,0.03452
3307.77,0.03451
3303.91,0.03490
3300.05,0.03653
3296.19,0.03595
3292.34,0.03542
3288.48,0.03621
3284.62,0.03690
3280.76,0.03723
3276.91,0.03812
3273.05,0.03861
3269.19,0.04007
3265.33,0.04094
3261.48,0.04148
3257.62,0.04291
3253.76,0.04330
3249.9,0.04386
3246.05,0.04447
3242.19,0.04599
3238.33,0.04663
3234.47,0.04772
3230.62,0.04853
3226.76,0.04970
3222.9,0.05036
3219.04,0.05230
3215.19,0.05313
3211.33,0.05413
3207.47,0.05497
3203.61,0.05543
3199.76,0.05604
3195.9,0.05769
3192.04,0.05927
3188.18,0.06008
3184.33,0.06116
3180.47,0.06261
3176.61,0.06400
3172.75,0.06568
3168.9,0.06646
3165.04,0.06781
3161.18,0.06900
3157.32,0.07035
3153.47,0.07140
3149.61,0.07319
3145.75,0.07389
3141.89,0.07471
3138.04,0.07543
3134.18,0.07654
3130.32,0.07775
3126.47,0.07943
3122.61,0.08077
3118.75,0.08205
3114.89,0.08301
3111.04,0.08331
3107.18,0.08444
3103.32,0.08619
3099.46,0.08701
3095.61,0.08802
3091.75,0.08863
3087.89,0.08915
3084.03,0.09028
3080.18,0.09154
3076.32,0.09251
3072.46,0.09350
3068.6,0.09421
3064.75,0.09399
3060.89,0.09455
3057.03,0.09518
3053.17,0.09602
3049.32,0.09644
3045.46,0.09736
3041.6,0.09767
3037.74,0.09753
3033.89,0.09785
3030.03,0.09691
3026.17,0.09623
3022.31,0.09619
3018.46,0.09524
3014.6,0.09399
3010.74,0.09227
3006.88,0.09012
3003.03,0.08868
2999.17,0.08758
2995.31,0.08632
2991.45,0.08471
2987.6,0.08227
2983.74,0.07966
2979.88,0.07598
2976.02,0.07227
2972.17,0.06816
2968.31,0.06556
2964.45,0.06330
2960.59,0.06126
2956.74,0.05938
2952.88,0.05738
2949.02,0.05581
2945.16,0.05356
2941.31,0.05186
2937.45,0.05175
2933.59,0.05160
2929.74,0.05085
2925.88,0.05049
2922.02,0.04989
2918.16,0.04872
2914.31,0.04831
2910.45,0.04959
2906.59,0.05075
2902.73,0.05080
2898.88,0.05163
2895.02,0.05204
2891.16,0.05386
2887.3,0.05509
2883.45,0.05592
2879.59,0.05629
2875.73,0.05689
2871.87,0.05807
2868.02,0.05923
2864.16,0.05984
2860.3,0.06084
2856.44,0.06182
2852.59,0.06133
2848.73,0.06191
2844.87,0.06654
2841.01,0.07162
2837.16,0.07494
2833.3,0.07952
2829.44,0.08338
2825.58,0.08729
2821.73,0.09073
2817.87,0.09436
2814.01,0.09754
2810.15,0.10027
2806.3,0.10232
2802.44,0.10410
2798.58,0.10633
2794.72,0.10772
2790.87,0.10890
2787.01,0.10953
2783.15,0.11072
2779.29,0.11183
2775.44,0.11195
2771.58,0.11296
2767.72,0.11385
2763.86,0.11435
2760.01,0.11511
2756.15,0.11541
2752.29,0.11567
2748.43,0.11589
2744.58,0.11548
2740.72,0.11539
2736.86,0.11576
2733.01,0.11618
2729.15,0.11684
2725.29,0.11810
2721.43,0.11927
2717.58,0.11998
2713.72,0.12117
2709.86,0.12235
2706,0.12362
2702.15,0.12496
2698.29,0.12606
2694.43,0.12761
2690.57,0.12894
2686.72,0.12965
2682.86,0.13095
2679,0.13204
2675.14,0.13279
2671.29,0.13349
2667.43,0.13446
2663.57,0.13530
2659.71,0.13570
2655.86,0.13628
2652,0.13628
2648.14,0.13714
2644.28,0.13774
2640.43,0.13903
2636.57,0.14044
2632.71,0.14170
2628.85,0.14224
2625,0.14283
2621.14,0.14418
2617.28,0.14512
2613.42,0.14601
2609.57,0.14707
2605.71,0.14745
2601.85,0.14789
2597.99,0.14843
2594.14,0.14899
2590.28,0.14936
2586.42,0.14979
2582.56,0.15063
2578.71,0.15146
2574.85,0.15229
2570.99,0.15262
2567.13,0.15208
2563.28,0.15203
2559.42,0.15274
2555.56,0.15278
2551.7,0.15328
2547.85,0.15357
2543.99,0.15379
2540.13,0.15404
2536.27,0.15468
2532.42,0.15597
2528.56,0.15664
2524.7,0.15752
2520.85,0.15864
2516.99,0.15944
2513.13,0.15959
2509.27,0.16049
2505.42,0.16271
2501.56,0.16457
2497.7,0.16560
2493.84,0.16670
2489.99,0.16747
2486.13,0.16879
2482.27,0.17036
2478.41,0.17145
2474.56,0.17226
2470.7,0.17311
2466.84,0.17403
2462.98,0.17470
2459.13,0.17555
2455.27,0.17674
2451.41,0.17773
2447.55,0.17883
2443.7,0.18053
2439.84,0.18201
2435.98,0.18304
2432.12,0.18453
2428.27,0.18587
2424.41,0.18761
2420.55,0.18914
2416.69,0.19104
2412.84,0.19268
2408.98,0.19401
2405.12,0.19564
2401.26,0.19671
2397.41,0.19780
2393.55,0.19885
2389.69,0.19983
2385.83,0.19937
2381.98,0.19809
2378.12,0.19672
2374.26,0.19577
2370.4,0.19605
2366.55,0.19494
2362.69,0.19521
2358.83,0.19804
2354.97,0.19657
2351.12,0.19503
2347.26,0.19542
2343.4,0.19625
2339.54,0.19713
2335.69,0.19787
2331.83,0.19863
2327.97,0.19915
2324.12,0.20012
2320.26,0.20184
2316.4,0.20290
2312.54,0.20258
2308.69,0.20223
2304.83,0.20092
2300.97,0.19889
2297.11,0.19760
2293.26,0.19558
2289.4,0.19356
2285.54,0.19158
2281.68,0.19024
2277.83,0.18922
2273.97,0.18977
2270.11,0.19129
2266.25,0.19279
2262.4,0.19404
2258.54,0.19531
2254.68,0.19613
2250.82,0.19668
2246.97,0.19821
2243.11,0.19995
2239.25,0.20212
2235.39,0.20326
2231.54,0.20437
2227.68,0.20572
2223.82,0.20738
2219.96,0.20841
2216.11,0.20922
2212.25,0.21020
2208.39,0.20995
2204.53,0.21005
2200.68,0.20971
2196.82,0.20891
2192.96,0.20769
2189.1,0.20603
2185.25,0.20333
2181.39,0.20127
2177.53,0.19869
2173.67,0.19602
2169.82,0.19377
2165.96,0.19179
2162.1,0.18967
2158.24,0.18755
2154.39,0.18615
2150.53,0.18534
2146.67,0.18429
2142.81,0.18338
2138.96,0.18239
2135.1,0.18147
2131.24,0.18192
2127.38,0.18263
2123.53,0.18298
2119.67,0.18381
2115.81,0.18462
2111.96,0.18542
2108.1,0.18635
2104.24,0.18706
2100.38,0.18814
2096.53,0.18903
2092.67,0.19028
2088.81,0.19048
2084.95,0.19041
2081.1,0.19042
2077.24,0.19000
2073.38,0.18924
2069.52,0.18911
2065.67,0.18814
2061.81,0.18844
2057.95,0.18828
2054.09,0.18833
2050.24,0.18847
2046.38,0.18964
2042.52,0.19051
2038.66,0.19173
2034.81,0.19293
2030.95,0.19444
2027.09,0.19611
2023.23,0.19792
2019.38,0.20014
2015.52,0.20214
2011.66,0.20369
2007.8,0.20466
2003.95,0.20580
2000.09,0.20686
1996.23,0.20859
1992.37,0.20798
1988.52,0.21123
1984.66,0.21140
1980.8,0.21135
1976.94,0.21097
1973.09,0.21061
1969.23,0.21140
1965.37,0.21053
1961.51,0.20926
1957.66,0.20877
1953.8,0.20824
1949.94,0.20942
1946.08,0.21191
1942.23,0.21029
1938.37,0.21351
1934.51,0.21283
1930.65,0.21386
1926.8,0.21642
1922.94,0.21596
1919.08,0.21731
1915.23,0.21812
1911.37,0.21623
1907.51,0.21578
1903.65,0.21488
1899.8,0.21450
1895.94,0.21431
1892.08,0.21750
1888.22,0.21517
1884.37,0.21532
1880.51,0.21425
1876.65,0.21412
1872.79,0.21831
1868.94,0.21287
1865.08,0.21616
1861.22,0.21056
1857.36,0.20896
1853.51,0.20742
1849.65,0.20725
1845.79,0.20481
1841.93,0.20356
1838.08,0.19831
1834.22,0.19709
1830.36,0.19030
1826.5,0.19111
1822.65,0.18384
1818.79,0.17709
1814.93,0.17419
1811.07,0.16655
1807.22,0.16258
1803.36,0.15689
1799.5,0.14963
1795.64,0.14688
1791.79,0.13440
1787.93,0.13174
1784.07,0.12134
1780.21,0.11225
1776.36,0.10738
1772.5,0.09349
1768.64,0.08349
1764.78,0.07308
1760.93,0.06196
1757.07,0.05500
1753.21,0.05220
1749.35,0.04792
1745.5,0.04691
1741.64,0.04535
1737.78,0.04742
1733.92,0.04438
1730.07,0.04755
1726.21,0.04852
1722.35,0.05119
1718.5,0.05261
1714.64,0.05813
1710.78,0.06003
1706.92,0.06148
1703.07,0.06831
1699.21,0.06887
1695.35,0.06751
1691.49,0.06859
1687.64,0.06962
1683.78,0.06432
1679.92,0.06724
1676.06,0.06219
1672.21,0.06292
1668.35,0.05866
1664.49,0.05904
1660.63,0.05737
1656.78,0.05918
1652.92,0.05439
1649.06,0.06321
1645.2,0.05750
1641.35,0.05950
1637.49,0.05715
1633.63,0.05690
1629.77,0.05636
1625.92,0.05611
1622.06,0.05377
1618.2,0.05191
1614.34,0.04996
1610.49,0.04781
1606.63,0.04625
1602.77,0.04461
1598.91,0.04409
1595.06,0.04306
1591.2,0.04425
1587.34,0.04777
1583.48,0.05309
1579.63,0.06081
1575.77,0.06418
1571.91,0.07360
1568.05,0.07426
1564.2,0.07905
1560.34,0.07249
1556.48,0.07308
1552.62,0.06971
1548.77,0.06664
1544.91,0.06651
1541.05,0.06237
1537.19,0.06316
1533.34,0.05599
1529.48,0.05585
1525.62,0.05147
1521.76,0.04563
1517.91,0.04364
1514.05,0.04063
1510.19,0.04098
1506.34,0.03742
1502.48,0.04351
1498.62,0.04330
1494.76,0.04752
1490.91,0.04742
1487.05,0.04853
1483.19,0.04777
1479.33,0.04582
1475.48,0.04275
1471.62,0.03702
1467.76,0.03556
1463.9,0.03327
1460.05,0.03444
1456.19,0.03329
1452.33,0.03477
1448.47,0.03427
1444.62,0.03510
1440.76,0.03492
1436.9,0.03256
1433.04,0.03265
1429.19,0.03126
1425.33,0.03184
1421.47,0.03402
1417.61,0.03517
1413.76,0.03655
1409.9,0.03654
1406.04,0.03651
1402.18,0.03753
1398.33,0.03731
1394.47,0.03611
1390.61,0.03566
1386.75,0.03246
1382.9,0.03053
1379.04,0.02990
1375.18,0.03000
1371.32,0.03050
1367.47,0.03139
1363.61,0.03167
1359.75,0.03263
1355.89,0.03290
1352.04,0.03270
1348.18,0.03231
1344.32,0.03261
1340.46,0.03173
1336.61,0.03064
1332.75,0.03002
1328.89,0.03049
1325.03,0.03063
1321.18,0.03100
1317.32,0.03239
1313.46,0.03277
1309.61,0.03350
1305.75,0.03420
1301.89,0.03456
1298.03,0.03465
1294.18,0.03410
1290.32,0.03290
1286.46,0.03182
1282.6,0.03057
1278.75,0.03016
1274.89,0.02956
1271.03,0.02898
1267.17,0.02880
1263.32,0.02869
1259.46,0.02877
1255.6,0.02852
1251.74,0.02772
1247.89,0.02740
1244.03,0.02753
1240.17,0.02788
1236.31,0.02873
1232.46,0.02900
1228.6,0.02985
1224.74,0.03058
1220.88,0.03119
1217.03,0.03142
1213.17,0.03320
1209.31,0.03362
1205.45,0.03304
1201.6,0.03244
1197.74,0.03279
1193.88,0.03382
1190.02,0.03189
1186.17,0.03070
1182.31,0.02971
1178.45,0.02720
1174.59,0.02593
1170.74,0.02423
1166.88,0.02365
1163.02,0.02476
1159.16,0.02690
1155.31,0.02688
1151.45,0.02613
1147.59,0.02511
1143.73,0.02404
1139.88,0.02354
1136.02,0.02231
1132.16,0.02160
1128.3,0.02112
1124.45,0.02269
1120.59,0.02233
1116.73,0.02406
1112.88,0.02470
1109.02,0.02582
1105.16,0.02691
1101.3,0.02680
1097.45,0.02647
1093.59,0.02618
1089.73,0.02667
1085.87,0.02682
1082.02,0.02644
1078.16,0.02743
1074.3,0.02830
1070.44,0.02995
1066.59,0.03214
1062.73,0.03490
1058.87,0.03958
1055.01,0.04061
1051.16,0.04019
1047.3,0.04048
1043.44,0.04099
1039.58,0.04264
1035.73,0.04501
1031.87,0.04662
1028.01,0.04811
1024.15,0.04986
1020.3,0.04990
1016.44,0.04971
1012.58,0.04997
1008.72,0.05084
1004.87,0.05122
1001.01,0.05189
997.151,0.05176
993.294,0.05388
989.437,0.05505
985.579,0.05713
981.722,0.05880
977.864,0.06243
974.007,0.06435
970.149,0.06639
966.292,0.06741
962.434,0.06959
958.577,0.07294
954.719,0.07699
950.862,0.07988
947.005,0.08009
943.147,0.08093
939.29,0.08160
935.432,0.08009
931.575,0.08015
927.717,0.08128
923.86,0.07988
920.002,0.07907
916.145,0.07697
912.287,0.07592
908.43,0.07333
904.573,0.07098
900.715,0.06790
896.858,0.06689
893,0.06847
889.143,0.07314
885.285,0.07524
881.428,0.07703
877.57,0.07729
873.713,0.07660
869.856,0.07738
865.998,0.08037
862.141,0.07956
858.283,0.07764
854.426,0.07789
850.568,0.07841
846.711,0.07675
842.853,0.07570
838.996,0.07382
835.138,0.07221
831.281,0.07333
827.424,0.07419
823.566,0.07154
819.709,0.07090
815.851,0.07080
811.994,0.07081
808.136,0.07179
804.279,0.07160
800.421,0.07154
796.564,0.07247
792.706,0.07156
788.849,0.07002
784.992,0.06957
781.134,0.07065
777.277,0.06909
773.419,0.06679
769.562,0.06336
765.704,0.06276
761.847,0.06291
757.989,0.06171
754.132,0.05955
750.274,0.05829
746.417,0.05671
742.56,0.05650
738.702,0.05662
734.845,0.05433
730.987,0.05198
727.13,0.05144
723.272,0.04908
719.415,0.04668
715.557,0.04625
711.7,0.04518
707.843,0.04458
703.985,0.04483
700.128,0.04596
696.27,0.04681
692.413,0.04727
688.555,0.04617
684.698,0.04430
680.84,0.04166
676.983,0.03826
673.125,0.03527
669.268,0.03679
665.411,0.03923
661.553,0.03932
657.696,0.03956
653.838,0.03913
649.981,0.03787
646.123,0.04041
642.266,0.03927
638.408,0.03628
634.551,0.03528
630.693,0.03469
626.836,0.03374
622.979,0.03439
619.121,0.03598
615.264,0.03981
611.406,0.03990
607.549,0.03744
603.691,0.03889
599.834,0.04083
595.976,0.04374
592.119,0.04184
588.261,0.04101
584.404,0.04225
580.547,0.04224
576.689,0.04025
572.832,0.04010
568.974,0.04010
565.117,0.03825
561.259,0.04089
557.402,0.04117
553.544,0.03981
549.687,0.03875
545.83,0.03963
541.972,0.03922
538.115,0.03836
534.257,0.03839
530.4,0.04060
526.542,0.04026
522.685,0.03903
518.827,0.03864
514.97,0.04140
511.112,0.04228
507.255,0.04108
503.398,0.04378
499.54,0.04767
495.683,0.04909
491.825,0.04602
487.968,0.04698
484.11,0.04320
480.253,0.04175
476.395,0.04472
472.538,0.04099
468.68,0.03794
464.823,0.04086
460.966,0.04706
457.108,0.03599
453.251,0.04084
449.393,0.04820
445.536,0.04706
441.678,0.04896
437.821,0.04289
433.963,0.03758
430.106,0.03957
426.248,0.04645
422.391,0.04852
418.534,0.04572
414.676,0.03289
410.819,0.02924
406.961,0.03374
403.104,0.04448
399.246,0.07216