File: 01_Data/MDF/FTIR/IS/MDF_IS_REFLECT_MEAS_210623_R4.dpt
5996.41,0.57913
5992.55,0.58681
5988.69,0.57743
5984.84,0.57892
5980.98,0.58029
5977.12,0.57037
5973.27,0.57350
5969.41,0.57796
5965.55,0.57807
5961.69,0.58826
5957.84,0.57354
5953.98,0.57316
5950.12,0.57332
5946.26,0.57200
5942.41,0.57876
5938.55,0.58235
5934.69,0.58025
5930.83,0.56823
5926.98,0.57248
5923.12,0.58294
5919.26,0.57522
5915.4,0.56000
5911.55,0.56887
5907.69,0.56959
5903.83,0.56971
5899.97,0.56611
5896.12,0.56687
5892.26,0.57672
5888.4,0.56982
5884.54,0.56716
5880.69,0.57350
5876.83,0.57363
5872.97,0.56680
5869.11,0.56816
5865.26,0.57184
5861.4,0.57866
5857.54,0.57555
5853.68,0.56819
5849.83,0.57520
5845.97,0.57787
5842.11,0.57484
5838.25,0.56762
5834.4,0.56190
5830.54,0.56334
5826.68,0.57028
5822.82,0.57007
5818.97,0.56397
5815.11,0.55846
5811.25,0.56278
5807.39,0.56294
5803.54,0.56411
5799.68,0.56313
5795.82,0.55606
5791.96,0.56175
5788.11,0.56581
5784.25,0.55940
5780.39,0.55642
5776.53,0.55895
5772.68,0.56499
5768.82,0.56547
5764.96,0.57071
5761.11,0.56988
5757.25,0.56463
5753.39,0.56497
5749.53,0.56939
5745.68,0.57526
5741.82,0.58174
5737.96,0.57477
5734.1,0.56684
5730.25,0.57048
5726.39,0.57568
5722.53,0.58288
5718.67,0.57981
5714.82,0.57552
5710.96,0.57573
5707.1,0.57004
5703.24,0.56187
5699.39,0.57029
5695.53,0.57214
5691.67,0.56178
5687.81,0.55875
5683.96,0.56777
5680.1,0.56572
5676.24,0.56927
5672.38,0.57050
5668.53,0.56880
5664.67,0.57472
5660.81,0.56688
5656.95,0.56036
5653.1,0.56201
5649.24,0.56164
5645.38,0.56382
5641.52,0.56463
5637.67,0.57031
5633.81,0.57086
5629.95,0.56735
5626.09,0.56869
5622.24,0.56563
5618.38,0.56986
5614.52,0.56705
5610.66,0.56220
5606.81,0.56727
5602.95,0.57574
5599.09,0.56830
5595.23,0.56530
5591.38,0.57109
5587.52,0.57234
5583.66,0.56965
5579.8,0.57496
5575.95,0.57239
5572.09,0.57835
5568.23,0.57990
5564.38,0.57333
5560.52,0.57926
5556.66,0.58503
5552.8,0.57614
5548.95,0.56727
5545.09,0.56969
5541.23,0.57877
5537.37,0.58900
5533.52,0.57692
5529.66,0.57143
5525.8,0.57039
5521.94,0.57195
5518.09,0.57585
5514.23,0.57355
5510.37,0.56718
5506.51,0.57126
5502.66,0.57279
5498.8,0.57603
5494.94,0.57238
5491.08,0.56841
5487.23,0.57683
5483.37,0.57986
5479.51,0.58066
5475.65,0.57616
5471.8,0.57832
5467.94,0.58105
5464.08,0.57692
5460.22,0.58284
5456.37,0.58977
5452.51,0.59179
5448.65,0.59009
5444.79,0.58756
5440.94,0.59390
5437.08,0.59004
5433.22,0.59191
5429.36,0.59067
5425.51,0.59496
5421.65,0.60218
5417.79,0.59342
5413.93,0.57917
5410.08,0.58642
5406.22,0.59039
5402.36,0.58674
5398.5,0.59354
5394.65,0.59482
5390.79,0.59824
5386.93,0.59019
5383.07,0.58722
5379.22,0.58821
5375.36,0.59018
5371.5,0.59571
5367.65,0.59515
5363.79,0.59344
5359.93,0.59776
5356.07,0.58692
5352.22,0.57835
5348.36,0.58165
5344.5,0.57826
5340.64,0.57723
5336.79,0.57353
5332.93,0.57461
5329.07,0.57546
5325.21,0.58124
5321.36,0.57338
5317.5,0.56685
5313.64,0.56845
5309.78,0.56275
5305.93,0.55925
5302.07,0.55708
5298.21,0.54925
5294.35,0.54697
5290.5,0.53596
5286.64,0.52756
5282.78,0.51694
5278.92,0.50895
5275.07,0.50316
5271.21,0.49360
5267.35,0.47888
5263.49,0.46259
5259.64,0.45923
5255.78,0.45681
5251.92,0.44584
5248.06,0.43410
5244.21,0.43316
5240.35,0.42983
5236.49,0.42268
5232.63,0.41346
5228.78,0.40677
5224.92,0.40130
5221.06,0.40432
5217.2,0.40545
5213.35,0.39979
5209.49,0.39839
5205.63,0.39521
5201.77,0.39501
5197.92,0.39338
5194.06,0.39525
5190.2,0.40010
5186.34,0.39744
5182.49,0.39649
5178.63,0.39927
5174.77,0.40092
5170.91,0.40182
5167.06,0.40606
5163.2,0.40473
5159.34,0.40568
5155.49,0.40608
5151.63,0.40986
5147.77,0.41947
5143.91,0.42152
5140.06,0.42129
5136.2,0.42384
5132.34,0.42515
5128.48,0.43058
5124.63,0.43427
5120.77,0.43272
5116.91,0.43324
5113.05,0.43605
5109.2,0.44091
5105.34,0.44667
5101.48,0.44377
5097.62,0.44252
5093.77,0.44937
5089.91,0.45303
5086.05,0.45629
5082.19,0.45673
5078.34,0.45600
5074.48,0.46013
5070.62,0.46404
5066.76,0.46819
5062.91,0.46994
5059.05,0.46339
5055.19,0.46647
5051.33,0.47449
5047.48,0.47374
5043.62,0.47733
5039.76,0.47692
5035.9,0.48160
5032.05,0.47928
5028.19,0.47924
5024.33,0.48628
5020.47,0.48472
5016.62,0.48632
5012.76,0.48635
5008.9,0.48623
5005.04,0.48923
5001.19,0.49036
4997.33,0.48770
4993.47,0.48741
4989.61,0.48917
4985.76,0.49140
4981.9,0.48929
4978.04,0.48684
4974.18,0.48395
4970.33,0.48332
4966.47,0.48334
4962.61,0.48253
4958.76,0.48091
4954.9,0.48094
4951.04,0.47687
4947.18,0.47490
4943.33,0.47101
4939.47,0.46657
4935.61,0.46649
4931.75,0.46267
4927.9,0.45935
4924.04,0.45843
4920.18,0.45122
4916.32,0.44709
4912.47,0.44622
4908.61,0.44420
4904.75,0.44185
4900.89,0.43639
4897.04,0.43153
4893.18,0.43028
4889.32,0.42917
4885.46,0.42586
4881.61,0.42068
4877.75,0.41838
4873.89,0.41779
4870.03,0.41215
4866.18,0.41046
4862.32,0.40922
4858.46,0.40559
4854.6,0.40357
4850.75,0.40436
4846.89,0.40312
4843.03,0.40107
4839.17,0.39611
4835.32,0.39402
4831.46,0.39084
4827.6,0.38938
4823.74,0.38785
4819.89,0.38459
4816.03,0.38556
4812.17,0.38480
4808.31,0.38230
4804.46,0.38303
4800.6,0.38056
4796.74,0.37936
4792.88,0.37889
4789.03,0.38134
4785.17,0.37932
4781.31,0.37613
4777.45,0.37396
4773.6,0.37396
4769.74,0.37328
4765.88,0.37452
4762.02,0.36989
4758.17,0.36746
4754.31,0.36700
4750.45,0.36965
4746.6,0.37020
4742.74,0.36810
4738.88,0.36881
4735.02,0.37166
4731.17,0.37197
4727.31,0.37418
4723.45,0.37319
4719.59,0.37287
4715.74,0.37330
4711.88,0.37593
4708.02,0.37498
4704.16,0.37589
4700.31,0.37943
4696.45,0.38051
4692.59,0.37947
4688.73,0.38034
4684.88,0.37991
4681.02,0.38184
4677.16,0.38224
4673.3,0.38155
4669.45,0.38102
4665.59,0.38116
4661.73,0.38350
4657.87,0.38400
4654.02,0.38519
4650.16,0.38748
4646.3,0.38878
4642.44,0.39151
4638.59,0.39160
4634.73,0.39082
4630.87,0.39519
4627.01,0.39617
4623.16,0.39717
4619.3,0.39683
4615.44,0.40073
4611.58,0.40072
4607.73,0.40268
4603.87,0.40504
4600.01,0.40661
4596.15,0.40805
4592.3,0.41171
4588.44,0.41169
4584.58,0.41333
4580.72,0.41518
4576.87,0.41459
4573.01,0.41682
4569.15,0.41888
4565.29,0.42001
4561.44,0.42143
4557.58,0.42129
4553.72,0.42255
4549.87,0.42312
4546.01,0.42495
4542.15,0.42520
4538.29,0.42657
4534.44,0.42680
4530.58,0.43035
4526.72,0.42752
4522.86,0.42750
4519.01,0.42803
4515.15,0.42677
4511.29,0.42702
4507.43,0.42564
4503.58,0.42561
4499.72,0.42535
4495.86,0.42411
4492,0.42247
4488.15,0.41915
4484.29,0.41341
4480.43,0.40920
4476.57,0.40591
4472.72,0.40291
4468.86,0.39890
4465,0.39272
4461.14,0.38644
4457.29,0.38106
4453.43,0.37726
4449.57,0.37187
4445.71,0.36707
4441.86,0.36333
4438,0.35851
4434.14,0.35393
4430.28,0.35201
4426.43,0.34681
4422.57,0.34251
4418.71,0.33881
4414.85,0.33412
4411,0.33200
4407.14,0.33038
4403.28,0.33025
4399.42,0.32865
4395.57,0.32741
4391.71,0.32841
4387.85,0.32870
4383.99,0.33155
4380.14,0.33322
4376.28,0.33360
4372.42,0.33685
4368.56,0.33890
4364.71,0.33915
4360.85,0.34003
4356.99,0.33902
4353.14,0.33807
4349.28,0.33731
4345.42,0.33449
4341.56,0.33336
4337.71,0.33221
4333.85,0.33050
4329.99,0.32898
4326.13,0.32640
4322.28,0.32265
4318.42,0.32261
4314.56,0.32340
4310.7,0.32548
4306.85,0.32388
4302.99,0.32119
4299.13,0.32023
4295.27,0.31865
4291.42,0.31930
4287.56,0.31866
4283.7,0.31683
4279.84,0.31652
4275.99,0.31499
4272.13,0.31530
4268.27,0.31706
4264.41,0.31790
4260.56,0.31812
4256.7,0.31764
4252.84,0.31679
4248.98,0.31840
4245.13,0.32029
4241.27,0.32114
4237.41,0.32089
4233.55,0.32187
4229.7,0.32196
4225.84,0.32181
4221.98,0.32195
4218.12,0.32109
4214.27,0.32141
4210.41,0.32337
4206.55,0.32378
4202.69,0.32391
4198.84,0.32431
4194.98,0.32414
4191.12,0.32469
4187.26,0.32359
4183.41,0.32365
4179.55,0.32380
4175.69,0.32532
4171.83,0.32781
4167.98,0.32921
4164.12,0.32877
4160.26,0.32869
4156.4,0.32732
4152.55,0.32637
4148.69,0.32511
4144.83,0.32342
4140.98,0.32095
4137.12,0.31921
4133.26,0.31894
4129.4,0.31771
4125.55,0.31479
4121.69,0.31246
4117.83,0.31102
4113.97,0.30817
4110.12,0.30532
4106.26,0.30225
4102.4,0.29944
4098.54,0.29557
4094.69,0.29358
4090.83,0.28947
4086.97,0.28671
4083.11,0.28421
4079.26,0.27946
4075.4,0.27698
4071.54,0.27437
4067.68,0.26997
4063.83,0.26635
4059.97,0.26361
4056.11,0.26136
4052.25,0.25782
4048.4,0.25440
4044.54,0.25190
4040.68,0.25060
4036.82,0.24778
4032.97,0.24594
4029.11,0.24540
4025.25,0.24340
4021.39,0.24307
4017.54,0.24320
4013.68,0.24308
4009.82,0.24402
4005.96,0.24446
4002.11,0.24454
3998.25,0.24481
3994.39,0.24626
3990.53,0.24817
3986.68,0.24883
3982.82,0.24815
3978.96,0.24955
3975.1,0.24999
3971.25,0.25003
3967.39,0.25133
3963.53,0.25258
3959.67,0.25457
3955.82,0.25554
3951.96,0.25614
3948.1,0.25739
3944.25,0.25906
3940.39,0.26019
3936.53,0.26203
3932.67,0.26533
3928.82,0.26862
3924.96,0.26917
3921.1,0.26840
3917.24,0.27087
3913.39,0.27310
3909.53,0.27230
3905.67,0.27313
3901.81,0.27616
3897.96,0.27754
3894.1,0.27900
3890.24,0.28015
3886.38,0.28077
3882.53,0.28353
3878.67,0.28348
3874.81,0.28297
3870.95,0.28522
3867.1,0.28724
3863.24,0.28853
3859.38,0.28924
3855.52,0.28738
3851.67,0.29239
3847.81,0.29509
3843.95,0.29481
3840.09,0.29681
3836.24,0.29941
3832.38,0.29915
3828.52,0.29921
3824.66,0.29896
3820.81,0.29841
3816.95,0.29839
3813.09,0.29932
3809.23,0.29771
3805.38,0.29653
3801.52,0.29777
3797.66,0.29872
3793.8,0.29912
3789.95,0.29853
3786.09,0.29725
3782.23,0.29726
3778.37,0.29670
3774.52,0.29471
3770.66,0.29316
3766.8,0.29127
3762.94,0.28858
3759.09,0.28755
3755.23,0.28489
3751.37,0.28171
3747.51,0.27776
3743.66,0.27525
3739.8,0.27430
3735.94,0.27173
3732.09,0.26818
3728.23,0.26572
3724.37,0.26319
3720.51,0.25981
3716.66,0.25738
3712.8,0.25164
3708.94,0.24420
3705.08,0.23916
3701.23,0.23270
3697.37,0.22566
3693.51,0.21713
3689.65,0.20678
3685.8,0.19641
3681.94,0.18775
3678.08,0.17829
3674.22,0.16394
3670.37,0.15287
3666.51,0.14215
3662.65,0.13311
3658.79,0.12338
3654.94,0.11387
3651.08,0.10716
3647.22,0.09969
3643.36,0.09488
3639.51,0.08947
3635.65,0.08440
3631.79,0.07964
3627.93,0.07671
3624.08,0.07406
3620.22,0.07104
3616.36,0.06793
3612.5,0.06528
3608.65,0.06233
3604.79,0.06021
3600.93,0.05782
3597.07,0.05513
3593.22,0.05403
3589.36,0.05253
3585.5,0.05078
3581.64,0.04939
3577.79,0.04781
3573.93,0.04579
3570.07,0.04448
3566.21,0.04352
3562.36,0.04240
3558.5,0.04085
3554.64,0.03947
3550.78,0.03946
3546.93,0.03957
3543.07,0.03841
3539.21,0.03758
3535.36,0.03658
3531.5,0.03528
3527.64,0.03561
3523.78,0.03423
3519.93,0.03356
3516.07,0.03335
3512.21,0.03337
3508.35,0.03260
3504.5,0.03211
3500.64,0.03270
3496.78,0.03279
3492.92,0.03218
3489.07,0.03099
3485.21,0.03106
3481.35,0.03098
3477.49,0.03012
3473.64,0.02951
3469.78,0.02974
3465.92,0.02984
3462.06,0.02936
3458.21,0.02912
3454.35,0.02877
3450.49,0.02891
3446.63,0.02915
3442.78,0.02916
3438.92,0.02790
3435.06,0.02831
3431.2,0.02926
3427.35,0.02857
3423.49,0.02791
3419.63,0.02841
3415.77,0.02745
3411.92,0.02728
3408.06,0.02794
3404.2,0.02774
3400.34,0.02696
3396.49,0.02819
3392.63,0.02910
3388.77,0.02895
3384.91,0.02936
3381.06,0.03008
3377.2,0.02950
3373.34,0.02903
3369.48,0.02837
3365.63,0.02847
3361.77,0.02903
3357.91,0.02863
3354.05,0.02923
3350.2,0.02934
3346.34,0.02915
3342.48,0.02995
3338.63,0.03039
3334.77,0.03023
3330.91,0.02995
3327.05,0.03076
3323.2,0.03191
3319.34,0.03215
3315.48,0.03228
3311.62,0.03251
3307.77,0.03289
3303.91,0.03310
3300.05,0.03358
3296.19,0.03346
3292.34,0.03367
3288.48,0.03308
3284.62,0.03355
3280.76,0.03447
3276.91,0.03496
3273.05,0.03529
3269.19,0.03573
3265.33,0.03639
3261.48,0.03786
3257.62,0.03833
3253.76,0.03841
3249.9,0.03926
3246.05,0.03907
3242.19,0.04003
3238.33,0.04044
3234.47,0.04068
3230.62,0.04208
3226.76,0.04281
3222.9,0.04323
3219.04,0.04354
3215.19,0.04423
3211.33,0.04552
3207.47,0.04606
3203.61,0.04631
3199.76,0.04684
3195.9,0.04769
3192.04,0.04887
3188.18,0.04932
3184.33,0.05009
3180.47,0.05027
3176.61,0.05118
3172.75,0.05263
3168.9,0.05298
3165.04,0.05360
3161.18,0.05420
3157.32,0.05553
3153.47,0.05713
3149.61,0.05793
3145.75,0.05876
3141.89,0.05884
3138.04,0.05910
3134.18,0.05993
3130.32,0.06150
3126.47,0.06260
3122.61,0.06362
3118.75,0.06381
3114.89,0.06496
3111.04,0.06646
3107.18,0.06684
3103.32,0.06744
3099.46,0.06898
3095.61,0.06983
3091.75,0.07029
3087.89,0.07086
3084.03,0.07128
3080.18,0.07228
3076.32,0.07361
3072.46,0.07375
3068.6,0.07438
3064.75,0.07558
3060.89,0.07627
3057.03,0.07719
3053.17,0.07780
3049.32,0.07847
3045.46,0.07934
3041.6,0.07961
3037.74,0.07980
3033.89,0.08004
3030.03,0.07959
3026.17,0.08006
3022.31,0.08073
3018.46,0.08005
3014.6,0.07965
3010.74,0.07857
3006.88,0.07736
3003.03,0.07680
2999.17,0.07628
2995.31,0.07538
2991.45,0.07459
2987.6,0.07262
2983.74,0.07022
2979.88,0.06836
2976.02,0.06562
2972.17,0.06252
2968.31,0.05981
2964.45,0.05814
2960.59,0.05755
2956.74,0.05626
2952.88,0.05466
2949.02,0.05222
2945.16,0.05065
2941.31,0.04955
2937.45,0.04974
2933.59,0.04909
2929.74,0.04853
2925.88,0.04820
2922.02,0.04736
2918.16,0.04671
2914.31,0.04793
2910.45,0.04838
2906.59,0.04877
2902.73,0.04969
2898.88,0.05029
2895.02,0.05115
2891.16,0.05206
2887.3,0.05317
2883.45,0.05471
2879.59,0.05438
2875.73,0.05555
2871.87,0.05590
2868.02,0.05628
2864.16,0.05687
2860.3,0.05766
2856.44,0.05776
2852.59,0.05821
2848.73,0.05967
2844.87,0.06325
2841.01,0.06657
2837.16,0.07079
2833.3,0.07438
2829.44,0.07736
2825.58,0.08041
2821.73,0.08341
2817.87,0.08592
2814.01,0.08895
2810.15,0.09112
2806.3,0.09214
2802.44,0.09401
2798.58,0.09557
2794.72,0.09685
2790.87,0.09842
2787.01,0.09891
2783.15,0.09960
2779.29,0.09997
2775.44,0.10076
2771.58,0.10128
2767.72,0.10209
2763.86,0.10255
2760.01,0.10315
2756.15,0.10368
2752.29,0.10357
2748.43,0.10333
2744.58,0.10371
2740.72,0.10426
2736.86,0.10451
2733.01,0.10466
2729.15,0.10526
2725.29,0.10621
2721.43,0.10676
2717.58,0.10763
2713.72,0.10900
2709.86,0.11028
2706,0.11122
2702.15,0.11260
2698.29,0.11397
2694.43,0.11512
2690.57,0.11629
2686.72,0.11754
2682.86,0.11854
2679,0.11914
2675.14,0.12002
2671.29,0.12094
2667.43,0.12184
2663.57,0.12236
2659.71,0.12280
2655.86,0.12333
2652,0.12423
2648.14,0.12477
2644.28,0.12552
2640.43,0.12575
2636.57,0.12678
2632.71,0.12759
2628.85,0.12831
2625,0.12993
2621.14,0.13122
2617.28,0.13139
2613.42,0.13246
2609.57,0.13318
2605.71,0.13407
2601.85,0.13448
2597.99,0.13486
2594.14,0.13507
2590.28,0.13545
2586.42,0.13633
2582.56,0.13665
2578.71,0.13729
2574.85,0.13824
2570.99,0.13796
2567.13,0.13799
2563.28,0.13859
2559.42,0.13877
2555.56,0.13948
2551.7,0.13988
2547.85,0.13984
2543.99,0.13951
2540.13,0.13998
2536.27,0.14061
2532.42,0.14112
2528.56,0.14151
2524.7,0.14185
2520.85,0.14237
2516.99,0.14295
2513.13,0.14403
2509.27,0.14550
2505.42,0.14699
2501.56,0.14798
2497.7,0.14935
2493.84,0.15128
2489.99,0.15269
2486.13,0.15405
2482.27,0.15503
2478.41,0.15625
2474.56,0.15713
2470.7,0.15822
2466.84,0.15929
2462.98,0.16023
2459.13,0.16033
2455.27,0.16148
2451.41,0.16275
2447.55,0.16371
2443.7,0.16502
2439.84,0.16580
2435.98,0.16715
2432.12,0.16817
2428.27,0.16976
2424.41,0.17122
2420.55,0.17228
2416.69,0.17331
2412.84,0.17492
2408.98,0.17613
2405.12,0.17711
2401.26,0.17879
2397.41,0.17946
2393.55,0.17975
2389.69,0.17990
2385.83,0.17978
2381.98,0.17882
2378.12,0.17816
2374.26,0.17748
2370.4,0.17634
2366.55,0.17694
2362.69,0.17814
2358.83,0.17744
2354.97,0.17447
2351.12,0.17438
2347.26,0.17287
2343.4,0.17289
2339.54,0.17495
2335.69,0.17531
2331.83,0.17649
2327.97,0.17768
2324.12,0.17964
2320.26,0.18085
2316.4,0.18127
2312.54,0.18048
2308.69,0.17982
2304.83,0.17957
2300.97,0.17858
2297.11,0.17709
2293.26,0.17534
2289.4,0.17385
2285.54,0.17206
2281.68,0.17079
2277.83,0.17008
2273.97,0.17055
2270.11,0.17126
2266.25,0.17240
2262.4,0.17341
2258.54,0.17370
2254.68,0.17395
2250.82,0.17465
2246.97,0.17557
2243.11,0.17650
2239.25,0.17721
2235.39,0.17758
2231.54,0.17821
2227.68,0.17898
2223.82,0.17957
2219.96,0.18010
2216.11,0.18060
2212.25,0.18099
2208.39,0.18089
2204.53,0.18071
2200.68,0.17989
2196.82,0.17864
2192.96,0.17698
2189.1,0.17549
2185.25,0.17382
2181.39,0.17190
2177.53,0.16990
2173.67,0.16795
2169.82,0.16557
2165.96,0.16402
2162.1,0.16244
2158.24,0.16094
2154.39,0.15973
2150.53,0.15853
2146.67,0.15784
2142.81,0.15741
2138.96,0.15664
2135.1,0.15609
2131.24,0.15608
2127.38,0.15698
2123.53,0.15752
2119.67,0.15737
2115.81,0.15770
2111.96,0.15819
2108.1,0.15868
2104.24,0.15964
2100.38,0.16025
2096.53,0.16055
2092.67,0.16109
2088.81,0.16143
2084.95,0.16186
2081.1,0.16190
2077.24,0.16177
2073.38,0.16131
2069.52,0.16101
2065.67,0.16106
2061.81,0.16083
2057.95,0.16062
2054.09,0.16092
2050.24,0.16175
2046.38,0.16239
2042.52,0.16290
2038.66,0.16361
2034.81,0.16447
2030.95,0.16571
2027.09,0.16683
2023.23,0.16884
2019.38,0.17049
2015.52,0.17209
2011.66,0.17313
2007.8,0.17468
2003.95,0.17565
2000.09,0.17630
1996.23,0.17758
1992.37,0.17977
1988.52,0.18023
1984.66,0.18028
1980.8,0.18094
1976.94,0.18081
1973.09,0.18058
1969.23,0.18127
1965.37,0.18124
1961.51,0.18022
1957.66,0.17968
1953.8,0.17963
1949.94,0.17988
1946.08,0.18227
1942.23,0.18449
1938.37,0.18348
1934.51,0.18418
1930.65,0.18476
1926.8,0.18587
1922.94,0.18808
1919.08,0.18841
1915.23,0.18773
1911.37,0.18779
1907.51,0.18746
1903.65,0.18621
1899.8,0.18648
1895.94,0.18738
1892.08,0.18822
1888.22,0.18824
1884.37,0.18686
1880.51,0.18613
1876.65,0.18582
1872.79,0.18692
1868.94,0.19042
1865.08,0.18626
1861.22,0.18345
1857.36,0.18194
1853.51,0.18024
1849.65,0.17911
1845.79,0.17998
1841.93,0.17627
1838.08,0.17220
1834.22,0.16947
1830.36,0.16918
1826.5,0.16535
1822.65,0.16002
1818.79,0.15541
1814.93,0.15155
1811.07,0.14811
1807.22,0.14232
1803.36,0.13799
1799.5,0.13335
1795.64,0.12848
1791.79,0.12390
1787.93,0.11558
1784.07,0.10991
1780.21,0.10403
1776.36,0.09787
1772.5,0.09137
1768.64,0.07900
1764.78,0.06985
1760.93,0.06242
1757.07,0.05517
1753.21,0.05013
1749.35,0.04786
1745.5,0.04433
1741.64,0.04265
1737.78,0.04252
1733.92,0.04445
1730.07,0.04365
1726.21,0.04344
1722.35,0.04503
1718.5,0.04972
1714.64,0.05316
1710.78,0.05223
1706.92,0.05424
1703.07,0.05679
1699.21,0.06029
1695.35,0.05786
1691.49,0.05472
1687.64,0.05587
1683.78,0.05748
1679.92,0.05263
1676.06,0.05060
1672.21,0.05032
1668.35,0.04892
1664.49,0.04579
1660.63,0.04482
1656.78,0.04526
1652.92,0.04909
1649.06,0.04718
1645.2,0.04682
1641.35,0.04557
1637.49,0.04752
1633.63,0.04649
1629.77,0.04480
1625.92,0.04509
1622.06,0.04486
1618.2,0.04488
1614.34,0.04369
1610.49,0.04190
1606.63,0.04131
1602.77,0.04081
1598.91,0.04050
1595.06,0.04020
1591.2,0.04163
1587.34,0.04513
1583.48,0.04887
1579.63,0.05338
1575.77,0.05897
1571.91,0.06121
1568.05,0.06359
1564.2,0.06335
1560.34,0.06630
1556.48,0.06381
1552.62,0.05824
1548.77,0.05572
1544.91,0.05691
1541.05,0.06089
1537.19,0.05391
1533.34,0.05142
1529.48,0.04961
1525.62,0.04820
1521.76,0.04602
1517.91,0.04157
1514.05,0.03859
1510.19,0.03913
1506.34,0.04154
1502.48,0.04013
1498.62,0.04285
1494.76,0.04456
1490.91,0.04655
1487.05,0.04683
1483.19,0.04436
1479.33,0.04227
1475.48,0.04033
1471.62,0.03653
1467.76,0.03400
1463.9,0.03357
1460.05,0.03378
1456.19,0.03550
1452.33,0.03471
1448.47,0.03519
1444.62,0.03516
1440.76,0.03465
1436.9,0.03498
1433.04,0.03325
1429.19,0.03306
1425.33,0.03376
1421.47,0.03405
1417.61,0.03536
1413.76,0.03599
1409.9,0.03627
1406.04,0.03660
1402.18,0.03686
1398.33,0.03722
1394.47,0.03669
1390.61,0.03440
1386.75,0.03305
1382.9,0.03148
1379.04,0.03102
1375.18,0.03137
1371.32,0.03127
1367.47,0.03166
1363.61,0.03304
1359.75,0.03398
1355.89,0.03409
1352.04,0.03448
1348.18,0.03442
1344.32,0.03362
1340.46,0.03360
1336.61,0.03278
1332.75,0.03215
1328.89,0.03206
1325.03,0.03217
1321.18,0.03244
1317.32,0.03267
1313.46,0.03336
1309.61,0.03448
1305.75,0.03562
1301.89,0.03570
1298.03,0.03549
1294.18,0.03526
1290.32,0.03432
1286.46,0.03295
1282.6,0.03179
1278.75,0.03100
1274.89,0.03022
1271.03,0.03040
1267.17,0.03004
1263.32,0.02960
1259.46,0.02934
1255.6,0.02972
1251.74,0.02904
1247.89,0.02916
1244.03,0.02964
1240.17,0.03014
1236.31,0.03083
1232.46,0.03133
1228.6,0.03240
1224.74,0.03221
1220.88,0.03320
1217.03,0.03426
1213.17,0.03389
1209.31,0.03416
1205.45,0.03400
1201.6,0.03383
1197.74,0.03404
1193.88,0.03424
1190.02,0.03311
1186.17,0.03114
1182.31,0.02918
1178.45,0.02838
1174.59,0.02652
1170.74,0.02538
1166.88,0.02475
1163.02,0.02559
1159.16,0.02716
1155.31,0.02695
1151.45,0.02688
1147.59,0.02567
1143.73,0.02485
1139.88,0.02389
1136.02,0.02213
1132.16,0.02242
1128.3,0.02248
1124.45,0.02419
1120.59,0.02573
1116.73,0.02515
1112.88,0.02523
1109.02,0.02655
1105.16,0.02662
1101.3,0.02704
1097.45,0.02760
1093.59,0.02717
1089.73,0.02808
1085.87,0.02826
1082.02,0.02731
1078.16,0.02788
1074.3,0.02942
1070.44,0.03246
1066.59,0.03458
1062.73,0.03565
1058.87,0.03844
1055.01,0.04066
1051.16,0.04227
1047.3,0.04146
1043.44,0.04036
1039.58,0.04279
1035.73,0.04442
1031.87,0.04683
1028.01,0.04859
1024.15,0.04866
1020.3,0.04919
1016.44,0.05015
1012.58,0.04967
1008.72,0.04978
1004.87,0.05054
1001.01,0.05031
997.151,0.05056
993.294,0.05239
989.437,0.05403
985.579,0.05573
981.722,0.05825
977.864,0.06044
974.007,0.06225
970.149,0.06370
966.292,0.06503
962.434,0.06625
958.577,0.06841
954.719,0.06976
950.862,0.07147
947.005,0.07344
943.147,0.07431
939.29,0.07532
935.432,0.07490
931.575,0.07319
927.717,0.07261
923.86,0.07182
920.002,0.07064
916.145,0.06964
912.287,0.06859
908.43,0.06739
904.573,0.06412
900.715,0.06206
896.858,0.06348
893,0.06502
889.143,0.06701
885.285,0.06777
881.428,0.06655
877.57,0.06717
873.713,0.06708
869.856,0.06739
865.998,0.06819
862.141,0.06810
858.283,0.06903
854.426,0.06847
850.568,0.06514
846.711,0.06521
842.853,0.06444
838.996,0.06228
835.138,0.06249
831.281,0.06127
827.424,0.06057
823.566,0.05997
819.709,0.05938
815.851,0.05900
811.994,0.05837
808.136,0.05934
804.279,0.05841
800.421,0.05791
796.564,0.05738
792.706,0.05704
788.849,0.05735
784.992,0.05785
781.134,0.05536
777.277,0.05413
773.419,0.05197
769.562,0.05228
765.704,0.05058
761.847,0.04959
757.989,0.04820
754.132,0.04768
750.274,0.04663
746.417,0.04645
742.56,0.04506
738.702,0.04509
734.845,0.04443
730.987,0.04480
727.13,0.04364
723.272,0.04257
719.415,0.04317
715.557,0.04120
711.7,0.04143
707.843,0.04189
703.985,0.04158
700.128,0.04155
696.27,0.03987
692.413,0.04013
688.555,0.03834
684.698,0.03724
680.84,0.03664
676.983,0.03568
673.125,0.03585
669.268,0.03691
665.411,0.03764
661.553,0.03764
657.696,0.03711
653.838,0.03754
649.981,0.03803
646.123,0.03604
642.266,0.03651
638.408,0.03540
634.551,0.03404
630.693,0.03470
626.836,0.03556
622.979,0.03575
619.121,0.03705
615.264,0.03755
611.406,0.03755
607.549,0.03720
603.691,0.03713
599.834,0.03881
595.976,0.03845
592.119,0.03915
588.261,0.03734
584.404,0.03592
580.547,0.03932
576.689,0.03836
572.832,0.03742
568.974,0.03813
565.117,0.03913
561.259,0.04067
557.402,0.04245
553.544,0.04169
549.687,0.03956
545.83,0.04028
541.972,0.04047
538.115,0.04161
534.257,0.04149
530.4,0.03709
526.542,0.04123
522.685,0.04364
518.827,0.03998
514.97,0.03927
511.112,0.04419
507.255,0.04345
503.398,0.03812
499.54,0.04149
495.683,0.04468
491.825,0.04068
487.968,0.03815
484.11,0.03749
480.253,0.04374
476.395,0.05031
472.538,0.05038
468.68,0.04161
464.823,0.04329
460.966,0.04826
457.108,0.05229
453.251,0.05244
449.393,0.04827
445.536,0.04365
441.678,0.04670
437.821,0.04527
433.963,0.04282
430.106,0.03400
426.248,0.03467
422.391,0.05830
418.534,0.06001
414.676,0.05153
410.819,0.05746
406.961,0.04278
403.104,0.03139
399.246,0.03195