File: 01_Data/MDF/FTIR/IS/MDF_IS_REFLECT_MEAS_210623_R2.dpt
5996.41,0.59289
5992.55,0.59611
5988.69,0.59766
5984.84,0.59347
5980.98,0.59167
5977.12,0.58398
5973.27,0.58246
5969.41,0.58891
5965.55,0.58560
5961.69,0.58462
5957.84,0.59042
5953.98,0.58406
5950.12,0.58390
5946.26,0.58430
5942.41,0.59141
5938.55,0.59342
5934.69,0.59165
5930.83,0.58590
5926.98,0.59128
5923.12,0.58965
5919.26,0.58270
5915.4,0.57436
5911.55,0.57685
5907.69,0.57785
5903.83,0.58589
5899.97,0.57637
5896.12,0.57094
5892.26,0.57552
5888.4,0.57703
5884.54,0.57744
5880.69,0.57663
5876.83,0.57633
5872.97,0.57462
5869.11,0.58259
5865.26,0.58372
5861.4,0.58297
5857.54,0.57322
5853.68,0.57438
5849.83,0.58698
5845.97,0.58945
5842.11,0.57816
5838.25,0.57235
5834.4,0.57272
5830.54,0.57036
5826.68,0.57230
5822.82,0.57105
5818.97,0.57236
5815.11,0.57073
5811.25,0.56610
5807.39,0.56700
5803.54,0.56921
5799.68,0.56637
5795.82,0.56303
5791.96,0.56715
5788.11,0.57340
5784.25,0.57346
5780.39,0.57547
5776.53,0.57336
5772.68,0.57233
5768.82,0.56754
5764.96,0.56904
5761.11,0.57407
5757.25,0.57842
5753.39,0.57590
5749.53,0.57828
5745.68,0.58269
5741.82,0.59222
5737.96,0.58224
5734.1,0.57654
5730.25,0.57376
5726.39,0.58435
5722.53,0.58425
5718.67,0.58102
5714.82,0.57711
5710.96,0.57797
5707.1,0.57728
5703.24,0.58067
5699.39,0.57474
5695.53,0.57068
5691.67,0.57178
5687.81,0.57674
5683.96,0.57563
5680.1,0.57420
5676.24,0.57903
5672.38,0.57311
5668.53,0.57932
5664.67,0.58511
5660.81,0.57961
5656.95,0.57405
5653.1,0.57818
5649.24,0.57284
5645.38,0.57266
5641.52,0.57616
5637.67,0.57834
5633.81,0.57770
5629.95,0.57620
5626.09,0.58202
5622.24,0.58140
5618.38,0.58081
5614.52,0.57861
5610.66,0.57135
5606.81,0.57641
5602.95,0.58349
5599.09,0.58036
5595.23,0.57956
5591.38,0.58288
5587.52,0.58403
5583.66,0.57983
5579.8,0.58169
5575.95,0.58000
5572.09,0.58727
5568.23,0.59309
5564.38,0.58635
5560.52,0.58386
5556.66,0.58559
5552.8,0.58297
5548.95,0.57879
5545.09,0.58378
5541.23,0.58760
5537.37,0.59560
5533.52,0.59005
5529.66,0.58161
5525.8,0.58040
5521.94,0.58526
5518.09,0.58915
5514.23,0.58396
5510.37,0.57976
5506.51,0.58586
5502.66,0.59044
5498.8,0.58922
5494.94,0.58143
5491.08,0.57878
5487.23,0.58657
5483.37,0.58728
5479.51,0.58937
5475.65,0.58591
5471.8,0.58871
5467.94,0.59375
5464.08,0.58793
5460.22,0.59346
5456.37,0.59757
5452.51,0.60134
5448.65,0.59800
5444.79,0.59635
5440.94,0.60511
5437.08,0.59981
5433.22,0.59951
5429.36,0.60382
5425.51,0.60536
5421.65,0.60998
5417.79,0.60579
5413.93,0.59700
5410.08,0.59806
5406.22,0.60137
5402.36,0.59721
5398.5,0.60288
5394.65,0.60929
5390.79,0.60870
5386.93,0.61021
5383.07,0.60399
5379.22,0.60155
5375.36,0.60385
5371.5,0.60752
5367.65,0.60564
5363.79,0.60710
5359.93,0.60923
5356.07,0.60017
5352.22,0.59457
5348.36,0.59658
5344.5,0.59911
5340.64,0.59477
5336.79,0.59129
5332.93,0.59330
5329.07,0.59816
5325.21,0.60001
5321.36,0.59166
5317.5,0.58878
5313.64,0.59020
5309.78,0.58536
5305.93,0.58486
5302.07,0.58185
5298.21,0.57313
5294.35,0.57012
5290.5,0.56308
5286.64,0.55817
5282.78,0.54939
5278.92,0.54407
5275.07,0.54112
5271.21,0.53218
5267.35,0.52285
5263.49,0.51053
5259.64,0.50353
5255.78,0.50116
5251.92,0.49159
5248.06,0.48208
5244.21,0.47889
5240.35,0.47661
5236.49,0.47260
5232.63,0.46674
5228.78,0.46028
5224.92,0.45706
5221.06,0.45633
5217.2,0.45545
5213.35,0.45023
5209.49,0.45293
5205.63,0.45118
5201.77,0.45125
5197.92,0.45022
5194.06,0.44864
5190.2,0.45024
5186.34,0.44661
5182.49,0.45085
5178.63,0.45360
5174.77,0.45568
5170.91,0.46013
5167.06,0.46224
5163.2,0.46122
5159.34,0.46436
5155.49,0.46340
5151.63,0.46453
5147.77,0.47065
5143.91,0.47261
5140.06,0.47494
5136.2,0.47906
5132.34,0.47988
5128.48,0.48519
5124.63,0.48869
5120.77,0.48496
5116.91,0.48553
5113.05,0.48578
5109.2,0.49036
5105.34,0.49418
5101.48,0.49286
5097.62,0.49199
5093.77,0.49571
5089.91,0.50053
5086.05,0.50378
5082.19,0.50052
5078.34,0.50436
5074.48,0.50935
5070.62,0.50833
5066.76,0.51050
5062.91,0.51345
5059.05,0.50965
5055.19,0.50884
5051.33,0.51550
5047.48,0.51789
5043.62,0.51790
5039.76,0.51623
5035.9,0.51908
5032.05,0.52017
5028.19,0.52194
5024.33,0.52300
5020.47,0.51894
5016.62,0.51885
5012.76,0.51865
5008.9,0.51778
5005.04,0.52088
5001.19,0.51927
4997.33,0.51431
4993.47,0.51545
4989.61,0.51826
4985.76,0.51580
4981.9,0.50969
4978.04,0.51156
4974.18,0.50974
4970.33,0.50647
4966.47,0.50394
4962.61,0.50089
4958.76,0.49722
4954.9,0.49266
4951.04,0.49155
4947.18,0.48585
4943.33,0.48251
4939.47,0.47969
4935.61,0.47439
4931.75,0.46979
4927.9,0.46753
4924.04,0.46525
4920.18,0.45627
4916.32,0.45322
4912.47,0.45168
4908.61,0.44710
4904.75,0.44687
4900.89,0.44459
4897.04,0.43879
4893.18,0.43377
4889.32,0.42926
4885.46,0.42789
4881.61,0.42521
4877.75,0.41990
4873.89,0.41793
4870.03,0.41529
4866.18,0.41390
4862.32,0.41160
4858.46,0.41020
4854.6,0.40471
4850.75,0.40681
4846.89,0.40576
4843.03,0.40244
4839.17,0.39734
4835.32,0.39400
4831.46,0.39248
4827.6,0.39103
4823.74,0.38719
4819.89,0.38480
4816.03,0.38446
4812.17,0.38426
4808.31,0.38345
4804.46,0.38354
4800.6,0.38235
4796.74,0.38033
4792.88,0.37938
4789.03,0.37985
4785.17,0.37748
4781.31,0.37774
4777.45,0.37400
4773.6,0.37200
4769.74,0.37035
4765.88,0.37242
4762.02,0.37019
4758.17,0.36955
4754.31,0.37027
4750.45,0.37201
4746.6,0.37204
4742.74,0.37077
4738.88,0.37158
4735.02,0.37415
4731.17,0.37296
4727.31,0.37451
4723.45,0.37314
4719.59,0.37445
4715.74,0.37389
4711.88,0.37360
4708.02,0.37434
4704.16,0.37616
4700.31,0.37501
4696.45,0.37649
4692.59,0.37959
4688.73,0.37983
4684.88,0.37775
4681.02,0.38080
4677.16,0.38104
4673.3,0.38180
4669.45,0.38185
4665.59,0.38046
4661.73,0.38326
4657.87,0.38646
4654.02,0.38781
4650.16,0.38811
4646.3,0.38928
4642.44,0.39292
4638.59,0.39316
4634.73,0.39278
4630.87,0.39516
4627.01,0.39543
4623.16,0.39735
4619.3,0.39841
4615.44,0.39967
4611.58,0.40194
4607.73,0.40351
4603.87,0.40642
4600.01,0.40791
4596.15,0.40931
4592.3,0.41281
4588.44,0.41198
4584.58,0.41370
4580.72,0.41597
4576.87,0.41632
4573.01,0.41749
4569.15,0.41935
4565.29,0.41930
4561.44,0.41983
4557.58,0.42116
4553.72,0.42492
4549.87,0.42477
4546.01,0.42486
4542.15,0.42464
4538.29,0.42646
4534.44,0.42784
4530.58,0.42931
4526.72,0.42808
4522.86,0.42918
4519.01,0.42761
4515.15,0.42667
4511.29,0.42680
4507.43,0.42697
4503.58,0.42545
4499.72,0.42526
4495.86,0.42198
4492,0.41862
4488.15,0.41844
4484.29,0.41418
4480.43,0.41024
4476.57,0.40648
4472.72,0.40249
4468.86,0.39764
4465,0.39255
4461.14,0.38610
4457.29,0.38053
4453.43,0.37749
4449.57,0.37269
4445.71,0.36618
4441.86,0.36108
4438,0.35811
4434.14,0.35315
4430.28,0.34892
4426.43,0.34467
4422.57,0.34159
4418.71,0.33643
4414.85,0.33308
4411,0.33236
4407.14,0.32906
4403.28,0.32724
4399.42,0.32851
4395.57,0.32823
4391.71,0.32747
4387.85,0.32894
4383.99,0.32994
4380.14,0.33027
4376.28,0.33155
4372.42,0.33320
4368.56,0.33479
4364.71,0.33669
4360.85,0.33897
4356.99,0.33692
4353.14,0.33738
4349.28,0.33612
4345.42,0.33215
4341.56,0.33177
4337.71,0.33073
4333.85,0.32924
4329.99,0.32771
4326.13,0.32569
4322.28,0.32331
4318.42,0.32358
4314.56,0.32382
4310.7,0.32320
4306.85,0.32179
4302.99,0.32028
4299.13,0.31892
4295.27,0.31849
4291.42,0.31633
4287.56,0.31501
4283.7,0.31530
4279.84,0.31496
4275.99,0.31354
4272.13,0.31471
4268.27,0.31579
4264.41,0.31451
4260.56,0.31579
4256.7,0.31614
4252.84,0.31725
4248.98,0.31831
4245.13,0.31913
4241.27,0.31937
4237.41,0.31925
4233.55,0.32120
4229.7,0.32136
4225.84,0.32184
4221.98,0.32154
4218.12,0.32203
4214.27,0.32279
4210.41,0.32359
4206.55,0.32426
4202.69,0.32510
4198.84,0.32529
4194.98,0.32413
4191.12,0.32497
4187.26,0.32484
4183.41,0.32468
4179.55,0.32646
4175.69,0.32670
4171.83,0.32843
4167.98,0.33003
4164.12,0.33158
4160.26,0.33105
4156.4,0.33007
4152.55,0.32872
4148.69,0.32742
4144.83,0.32711
4140.98,0.32480
4137.12,0.32368
4133.26,0.32151
4129.4,0.32049
4125.55,0.31842
4121.69,0.31618
4117.83,0.31412
4113.97,0.31195
4110.12,0.30843
4106.26,0.30521
4102.4,0.30235
4098.54,0.29962
4094.69,0.29550
4090.83,0.29095
4086.97,0.28839
4083.11,0.28662
4079.26,0.28344
4075.4,0.27934
4071.54,0.27670
4067.68,0.27345
4063.83,0.26907
4059.97,0.26628
4056.11,0.26337
4052.25,0.26027
4048.4,0.25779
4044.54,0.25531
4040.68,0.25351
4036.82,0.25119
4032.97,0.24926
4029.11,0.24788
4025.25,0.24646
4021.39,0.24587
4017.54,0.24494
4013.68,0.24614
4009.82,0.24680
4005.96,0.24637
4002.11,0.24733
3998.25,0.24914
3994.39,0.25003
3990.53,0.25037
3986.68,0.25130
3982.82,0.25138
3978.96,0.25196
3975.1,0.25242
3971.25,0.25291
3967.39,0.25386
3963.53,0.25473
3959.67,0.25610
3955.82,0.25802
3951.96,0.25923
3948.1,0.26019
3944.25,0.26145
3940.39,0.26402
3936.53,0.26605
3932.67,0.26744
3928.82,0.26937
3924.96,0.27123
3921.1,0.27249
3917.24,0.27362
3913.39,0.27627
3909.53,0.27730
3905.67,0.27782
3901.81,0.27907
3897.96,0.28120
3894.1,0.28348
3890.24,0.28560
3886.38,0.28750
3882.53,0.28731
3878.67,0.28684
3874.81,0.28858
3870.95,0.29134
3867.1,0.29149
3863.24,0.29328
3859.38,0.29307
3855.52,0.29421
3851.67,0.29816
3847.81,0.30050
3843.95,0.30297
3840.09,0.30273
3836.24,0.30534
3832.38,0.30625
3828.52,0.30655
3824.66,0.30609
3820.81,0.30600
3816.95,0.30647
3813.09,0.30732
3809.23,0.30788
3805.38,0.30711
3801.52,0.30772
3797.66,0.30695
3793.8,0.30804
3789.95,0.30911
3786.09,0.30858
3782.23,0.30829
3778.37,0.30883
3774.52,0.30661
3770.66,0.30674
3766.8,0.30575
3762.94,0.30273
3759.09,0.30154
3755.23,0.29995
3751.37,0.29927
3747.51,0.29598
3743.66,0.29403
3739.8,0.29111
3735.94,0.29037
3732.09,0.28654
3728.23,0.28345
3724.37,0.28057
3720.51,0.27809
3716.66,0.27601
3712.8,0.27308
3708.94,0.26594
3705.08,0.25978
3701.23,0.25329
3697.37,0.24686
3693.51,0.24096
3689.65,0.23367
3685.8,0.22170
3681.94,0.21322
3678.08,0.20425
3674.22,0.19155
3670.37,0.18059
3666.51,0.16758
3662.65,0.15913
3658.79,0.14995
3654.94,0.14052
3651.08,0.13438
3647.22,0.12472
3643.36,0.11784
3639.51,0.11134
3635.65,0.10608
3631.79,0.10169
3627.93,0.09597
3624.08,0.09178
3620.22,0.08974
3616.36,0.08549
3612.5,0.08131
3608.65,0.07808
3604.79,0.07600
3600.93,0.07283
3597.07,0.07023
3593.22,0.06721
3589.36,0.06494
3585.5,0.06340
3581.64,0.06081
3577.79,0.05849
3573.93,0.05605
3570.07,0.05423
3566.21,0.05312
3562.36,0.05165
3558.5,0.04997
3554.64,0.04894
3550.78,0.04761
3546.93,0.04608
3543.07,0.04559
3539.21,0.04537
3535.36,0.04437
3531.5,0.04362
3527.64,0.04255
3523.78,0.04159
3519.93,0.04119
3516.07,0.04028
3512.21,0.03973
3508.35,0.03983
3504.5,0.03955
3500.64,0.03892
3496.78,0.03818
3492.92,0.03863
3489.07,0.03862
3485.21,0.03779
3481.35,0.03773
3477.49,0.03705
3473.64,0.03645
3469.78,0.03518
3465.92,0.03553
3462.06,0.03556
3458.21,0.03530
3454.35,0.03521
3450.49,0.03435
3446.63,0.03482
3442.78,0.03372
3438.92,0.03340
3435.06,0.03401
3431.2,0.03344
3427.35,0.03346
3423.49,0.03337
3419.63,0.03388
3415.77,0.03293
3411.92,0.03273
3408.06,0.03348
3404.2,0.03367
3400.34,0.03362
3396.49,0.03407
3392.63,0.03441
3388.77,0.03445
3384.91,0.03476
3381.06,0.03430
3377.2,0.03407
3373.34,0.03473
3369.48,0.03490
3365.63,0.03542
3361.77,0.03496
3357.91,0.03445
3354.05,0.03467
3350.2,0.03545
3346.34,0.03565
3342.48,0.03515
3338.63,0.03523
3334.77,0.03589
3330.91,0.03584
3327.05,0.03641
3323.2,0.03655
3319.34,0.03833
3315.48,0.03802
3311.62,0.03819
3307.77,0.03845
3303.91,0.03866
3300.05,0.03913
3296.19,0.03940
3292.34,0.03965
3288.48,0.03968
3284.62,0.04039
3280.76,0.04053
3276.91,0.04069
3273.05,0.04108
3269.19,0.04166
3265.33,0.04275
3261.48,0.04355
3257.62,0.04431
3253.76,0.04513
3249.9,0.04534
3246.05,0.04675
3242.19,0.04711
3238.33,0.04760
3234.47,0.04753
3230.62,0.04844
3226.76,0.04959
3222.9,0.05121
3219.04,0.05099
3215.19,0.05128
3211.33,0.05289
3207.47,0.05445
3203.61,0.05508
3199.76,0.05563
3195.9,0.05671
3192.04,0.05780
3188.18,0.05820
3184.33,0.05861
3180.47,0.05949
3176.61,0.06063
3172.75,0.06215
3168.9,0.06360
3165.04,0.06385
3161.18,0.06459
3157.32,0.06541
3153.47,0.06619
3149.61,0.06740
3145.75,0.06828
3141.89,0.06916
3138.04,0.06967
3134.18,0.07078
3130.32,0.07181
3126.47,0.07287
3122.61,0.07401
3118.75,0.07415
3114.89,0.07523
3111.04,0.07659
3107.18,0.07756
3103.32,0.07833
3099.46,0.07892
3095.61,0.07990
3091.75,0.08042
3087.89,0.08144
3084.03,0.08250
3080.18,0.08294
3076.32,0.08341
3072.46,0.08397
3068.6,0.08452
3064.75,0.08515
3060.89,0.08591
3057.03,0.08654
3053.17,0.08702
3049.32,0.08736
3045.46,0.08746
3041.6,0.08815
3037.74,0.08830
3033.89,0.08889
3030.03,0.08838
3026.17,0.08760
3022.31,0.08765
3018.46,0.08736
3014.6,0.08618
3010.74,0.08458
3006.88,0.08321
3003.03,0.08241
2999.17,0.08098
2995.31,0.07981
2991.45,0.07882
2987.6,0.07717
2983.74,0.07460
2979.88,0.07133
2976.02,0.06868
2972.17,0.06578
2968.31,0.06277
2964.45,0.06092
2960.59,0.05909
2956.74,0.05810
2952.88,0.05739
2949.02,0.05535
2945.16,0.05368
2941.31,0.05244
2937.45,0.05142
2933.59,0.05069
2929.74,0.05028
2925.88,0.04938
2922.02,0.04894
2918.16,0.04913
2914.31,0.04985
2910.45,0.05097
2906.59,0.05210
2902.73,0.05296
2898.88,0.05289
2895.02,0.05389
2891.16,0.05531
2887.3,0.05551
2883.45,0.05564
2879.59,0.05650
2875.73,0.05660
2871.87,0.05694
2868.02,0.05784
2864.16,0.05914
2860.3,0.05982
2856.44,0.06003
2852.59,0.06032
2848.73,0.06225
2844.87,0.06602
2841.01,0.06982
2837.16,0.07277
2833.3,0.07696
2829.44,0.08044
2825.58,0.08322
2821.73,0.08630
2817.87,0.08874
2814.01,0.09169
2810.15,0.09416
2806.3,0.09547
2802.44,0.09722
2798.58,0.09801
2794.72,0.09914
2790.87,0.10079
2787.01,0.10191
2783.15,0.10236
2779.29,0.10356
2775.44,0.10443
2771.58,0.10440
2767.72,0.10437
2763.86,0.10526
2760.01,0.10576
2756.15,0.10595
2752.29,0.10613
2748.43,0.10610
2744.58,0.10661
2740.72,0.10706
2736.86,0.10755
2733.01,0.10747
2729.15,0.10757
2725.29,0.10859
2721.43,0.10997
2717.58,0.11021
2713.72,0.11101
2709.86,0.11259
2706,0.11332
2702.15,0.11481
2698.29,0.11589
2694.43,0.11611
2690.57,0.11720
2686.72,0.11854
2682.86,0.11907
2679,0.11961
2675.14,0.12130
2671.29,0.12235
2667.43,0.12257
2663.57,0.12255
2659.71,0.12303
2655.86,0.12336
2652,0.12415
2648.14,0.12484
2644.28,0.12536
2640.43,0.12637
2636.57,0.12696
2632.71,0.12768
2628.85,0.12790
2625,0.12883
2621.14,0.12972
2617.28,0.13051
2613.42,0.13127
2609.57,0.13197
2605.71,0.13268
2601.85,0.13340
2597.99,0.13340
2594.14,0.13369
2590.28,0.13446
2586.42,0.13496
2582.56,0.13518
2578.71,0.13506
2574.85,0.13554
2570.99,0.13585
2567.13,0.13555
2563.28,0.13618
2559.42,0.13635
2555.56,0.13660
2551.7,0.13651
2547.85,0.13585
2543.99,0.13598
2540.13,0.13705
2536.27,0.13693
2532.42,0.13643
2528.56,0.13652
2524.7,0.13623
2520.85,0.13697
2516.99,0.13761
2513.13,0.13758
2509.27,0.13907
2505.42,0.14138
2501.56,0.14337
2497.7,0.14534
2493.84,0.14722
2489.99,0.14888
2486.13,0.15103
2482.27,0.15260
2478.41,0.15333
2474.56,0.15424
2470.7,0.15576
2466.84,0.15647
2462.98,0.15727
2459.13,0.15803
2455.27,0.15888
2451.41,0.16011
2447.55,0.16134
2443.7,0.16187
2439.84,0.16341
2435.98,0.16501
2432.12,0.16615
2428.27,0.16706
2424.41,0.16821
2420.55,0.16981
2416.69,0.17141
2412.84,0.17307
2408.98,0.17431
2405.12,0.17511
2401.26,0.17607
2397.41,0.17765
2393.55,0.17883
2389.69,0.17896
2385.83,0.17849
2381.98,0.17709
2378.12,0.17659
2374.26,0.17596
2370.4,0.17498
2366.55,0.17707
2362.69,0.17664
2358.83,0.17349
2354.97,0.17347
2351.12,0.17391
2347.26,0.17463
2343.4,0.17433
2339.54,0.17438
2335.69,0.17583
2331.83,0.17794
2327.97,0.18045
2324.12,0.18144
2320.26,0.18136
2316.4,0.18061
2312.54,0.18035
2308.69,0.18014
2304.83,0.17927
2300.97,0.17760
2297.11,0.17604
2293.26,0.17447
2289.4,0.17276
2285.54,0.17088
2281.68,0.16957
2277.83,0.16898
2273.97,0.16919
2270.11,0.17035
2266.25,0.17162
2262.4,0.17257
2258.54,0.17340
2254.68,0.17386
2250.82,0.17485
2246.97,0.17563
2243.11,0.17610
2239.25,0.17773
2235.39,0.17898
2231.54,0.18021
2227.68,0.18101
2223.82,0.18208
2219.96,0.18274
2216.11,0.18349
2212.25,0.18414
2208.39,0.18410
2204.53,0.18330
2200.68,0.18280
2196.82,0.18230
2192.96,0.18092
2189.1,0.17967
2185.25,0.17778
2181.39,0.17519
2177.53,0.17320
2173.67,0.17165
2169.82,0.16923
2165.96,0.16662
2162.1,0.16513
2158.24,0.16414
2154.39,0.16227
2150.53,0.16110
2146.67,0.15990
2142.81,0.15876
2138.96,0.15885
2135.1,0.15859
2131.24,0.15846
2127.38,0.15905
2123.53,0.15930
2119.67,0.15993
2115.81,0.16072
2111.96,0.16137
2108.1,0.16234
2104.24,0.16312
2100.38,0.16353
2096.53,0.16414
2092.67,0.16472
2088.81,0.16540
2084.95,0.16543
2081.1,0.16544
2077.24,0.16526
2073.38,0.16463
2069.52,0.16398
2065.67,0.16414
2061.81,0.16399
2057.95,0.16343
2054.09,0.16365
2050.24,0.16389
2046.38,0.16461
2042.52,0.16550
2038.66,0.16582
2034.81,0.16687
2030.95,0.16826
2027.09,0.16971
2023.23,0.17154
2019.38,0.17289
2015.52,0.17496
2011.66,0.17615
2007.8,0.17702
2003.95,0.17783
2000.09,0.17843
1996.23,0.17972
1992.37,0.18163
1988.52,0.18171
1984.66,0.18211
1980.8,0.18297
1976.94,0.18278
1973.09,0.18184
1969.23,0.18192
1965.37,0.18191
1961.51,0.18124
1957.66,0.18103
1953.8,0.18054
1949.94,0.18032
1946.08,0.18118
1942.23,0.18292
1938.37,0.18338
1934.51,0.18465
1930.65,0.18531
1926.8,0.18632
1922.94,0.18798
1919.08,0.18781
1915.23,0.18680
1911.37,0.18653
1907.51,0.18604
1903.65,0.18567
1899.8,0.18550
1895.94,0.18573
1892.08,0.18591
1888.22,0.18640
1884.37,0.18533
1880.51,0.18494
1876.65,0.18469
1872.79,0.18475
1868.94,0.18660
1865.08,0.18388
1861.22,0.18173
1857.36,0.18027
1853.51,0.17870
1849.65,0.17738
1845.79,0.17628
1841.93,0.17284
1838.08,0.16942
1834.22,0.16607
1830.36,0.16449
1826.5,0.16014
1822.65,0.15553
1818.79,0.15055
1814.93,0.14590
1811.07,0.14131
1807.22,0.13517
1803.36,0.12940
1799.5,0.12302
1795.64,0.11746
1791.79,0.11353
1787.93,0.10726
1784.07,0.10220
1780.21,0.09663
1776.36,0.08963
1772.5,0.08266
1768.64,0.07168
1764.78,0.06295
1760.93,0.05615
1757.07,0.04974
1753.21,0.04602
1749.35,0.04416
1745.5,0.04127
1741.64,0.04015
1737.78,0.03994
1733.92,0.04107
1730.07,0.04130
1726.21,0.04218
1722.35,0.04422
1718.5,0.04731
1714.64,0.04992
1710.78,0.05052
1706.92,0.05335
1703.07,0.05564
1699.21,0.05729
1695.35,0.05599
1691.49,0.05453
1687.64,0.05429
1683.78,0.05523
1679.92,0.05283
1676.06,0.05230
1672.21,0.05147
1668.35,0.04868
1664.49,0.04710
1660.63,0.04759
1656.78,0.04707
1652.92,0.04898
1649.06,0.04776
1645.2,0.04707
1641.35,0.04661
1637.49,0.04740
1633.63,0.04690
1629.77,0.04605
1625.92,0.04577
1622.06,0.04461
1618.2,0.04449
1614.34,0.04282
1610.49,0.04177
1606.63,0.04075
1602.77,0.03987
1598.91,0.03944
1595.06,0.04005
1591.2,0.04096
1587.34,0.04355
1583.48,0.04757
1579.63,0.05162
1575.77,0.05734
1571.91,0.06044
1568.05,0.06317
1564.2,0.06337
1560.34,0.06586
1556.48,0.06221
1552.62,0.05879
1548.77,0.05695
1544.91,0.05560
1541.05,0.05661
1537.19,0.05342
1533.34,0.05179
1529.48,0.04970
1525.62,0.04857
1521.76,0.04563
1517.91,0.04146
1514.05,0.03853
1510.19,0.03956
1506.34,0.04268
1502.48,0.04120
1498.62,0.04306
1494.76,0.04436
1490.91,0.04558
1487.05,0.04562
1483.19,0.04422
1479.33,0.04318
1475.48,0.04150
1471.62,0.03866
1467.76,0.03728
1463.9,0.03685
1460.05,0.03683
1456.19,0.03755
1452.33,0.03663
1448.47,0.03760
1444.62,0.03744
1440.76,0.03699
1436.9,0.03739
1433.04,0.03620
1429.19,0.03601
1425.33,0.03611
1421.47,0.03655
1417.61,0.03724
1413.76,0.03720
1409.9,0.03838
1406.04,0.03901
1402.18,0.03824
1398.33,0.03745
1394.47,0.03700
1390.61,0.03673
1386.75,0.03593
1382.9,0.03480
1379.04,0.03456
1375.18,0.03465
1371.32,0.03511
1367.47,0.03607
1363.61,0.03713
1359.75,0.03806
1355.89,0.03843
1352.04,0.03849
1348.18,0.03833
1344.32,0.03794
1340.46,0.03728
1336.61,0.03710
1332.75,0.03679
1328.89,0.03623
1325.03,0.03620
1321.18,0.03631
1317.32,0.03671
1313.46,0.03712
1309.61,0.03737
1305.75,0.03853
1301.89,0.03943
1298.03,0.03914
1294.18,0.03882
1290.32,0.03717
1286.46,0.03579
1282.6,0.03534
1278.75,0.03424
1274.89,0.03351
1271.03,0.03288
1267.17,0.03230
1263.32,0.03261
1259.46,0.03247
1255.6,0.03222
1251.74,0.03181
1247.89,0.03154
1244.03,0.03173
1240.17,0.03224
1236.31,0.03197
1232.46,0.03295
1228.6,0.03384
1224.74,0.03431
1220.88,0.03466
1217.03,0.03546
1213.17,0.03553
1209.31,0.03538
1205.45,0.03560
1201.6,0.03535
1197.74,0.03473
1193.88,0.03415
1190.02,0.03335
1186.17,0.03213
1182.31,0.03073
1178.45,0.02883
1174.59,0.02725
1170.74,0.02668
1166.88,0.02668
1163.02,0.02825
1159.16,0.02954
1155.31,0.02960
1151.45,0.02886
1147.59,0.02788
1143.73,0.02670
1139.88,0.02514
1136.02,0.02374
1132.16,0.02369
1128.3,0.02427
1124.45,0.02569
1120.59,0.02667
1116.73,0.02620
1112.88,0.02675
1109.02,0.02755
1105.16,0.02837
1101.3,0.02876
1097.45,0.02877
1093.59,0.02865
1089.73,0.02995
1085.87,0.03044
1082.02,0.02858
1078.16,0.02899
1074.3,0.03122
1070.44,0.03148
1066.59,0.03366
1062.73,0.03633
1058.87,0.04001
1055.01,0.04131
1051.16,0.04143
1047.3,0.04186
1043.44,0.04235
1039.58,0.04192
1035.73,0.04425
1031.87,0.04629
1028.01,0.04793
1024.15,0.04857
1020.3,0.04856
1016.44,0.04847
1012.58,0.04914
1008.72,0.05014
1004.87,0.04860
1001.01,0.04791
997.151,0.04907
993.294,0.05026
989.437,0.05092
985.579,0.05203
981.722,0.05537
977.864,0.05640
974.007,0.05835
970.149,0.06012
966.292,0.06081
962.434,0.06152
958.577,0.06428
954.719,0.06737
950.862,0.06720
947.005,0.06870
943.147,0.07031
939.29,0.07023
935.432,0.07009
931.575,0.07050
927.717,0.06960
923.86,0.06908
920.002,0.06661
916.145,0.06541
912.287,0.06546
908.43,0.06342
904.573,0.06199
900.715,0.06106
896.858,0.05930
893,0.06065
889.143,0.06250
885.285,0.06203
881.428,0.06067
877.57,0.06107
873.713,0.06191
869.856,0.06458
865.998,0.06722
862.141,0.06729
858.283,0.06745
854.426,0.06630
850.568,0.06552
846.711,0.06529
842.853,0.06303
838.996,0.06223
835.138,0.06138
831.281,0.06114
827.424,0.06071
823.566,0.05904
819.709,0.05831
815.851,0.05949
811.994,0.05952
808.136,0.05998
804.279,0.05921
800.421,0.05874
796.564,0.05967
792.706,0.05945
788.849,0.05889
784.992,0.05757
781.134,0.05572
777.277,0.05539
773.419,0.05517
769.562,0.05263
765.704,0.05195
761.847,0.05176
757.989,0.05229
754.132,0.05099
750.274,0.04840
746.417,0.04812
742.56,0.04732
738.702,0.04690
734.845,0.04711
730.987,0.04445
727.13,0.04332
723.272,0.04274
719.415,0.04165
715.557,0.03950
711.7,0.03874
707.843,0.03933
703.985,0.03987
700.128,0.04004
696.27,0.03902
692.413,0.03899
688.555,0.03856
684.698,0.03810
680.84,0.03691
676.983,0.03580
673.125,0.03495
669.268,0.03359
665.411,0.03414
661.553,0.03567
657.696,0.03672
653.838,0.03559
649.981,0.03547
646.123,0.03599
642.266,0.03425
638.408,0.03413
634.551,0.03351
630.693,0.03154
626.836,0.03303
622.979,0.03373
619.121,0.03212
615.264,0.03307
611.406,0.03532
607.549,0.03617
603.691,0.03558
599.834,0.03720
595.976,0.03873
592.119,0.03715
588.261,0.03575
584.404,0.03732
580.547,0.03806
576.689,0.03753
572.832,0.03588
568.974,0.03578
565.117,0.03718
561.259,0.03740
557.402,0.03777
553.544,0.03646
549.687,0.04061
545.83,0.04167
541.972,0.03813
538.115,0.03697
534.257,0.03715
530.4,0.03852
526.542,0.03537
522.685,0.03656
518.827,0.03614
514.97,0.03577
511.112,0.03964
507.255,0.03561
503.398,0.03497
499.54,0.04194
495.683,0.04032
491.825,0.03787
487.968,0.03753
484.11,0.03487
480.253,0.03535
476.395,0.03905
472.538,0.03979
468.68,0.03637
464.823,0.03740
460.966,0.03425
457.108,0.03827
453.251,0.04708
449.393,0.04718
445.536,0.03740
441.678,0.04050
437.821,0.03794
433.963,0.03855
430.106,0.04405
426.248,0.04297
422.391,0.03853
418.534,0.01915
414.676,0.03164
410.819,0.03719
406.961,0.03244
403.104,0.03666
399.246,0.05678