File: 01_Data/MDF/FTIR/IS/MDF_IS_REFLECT_MEAS_210623_R3.dpt
5996.41,0.59414
5992.55,0.59883
5988.69,0.59519
5984.84,0.59669
5980.98,0.59032
5977.12,0.59158
5973.27,0.58746
5969.41,0.58388
5965.55,0.58273
5961.69,0.58880
5957.84,0.58794
5953.98,0.58488
5950.12,0.59263
5946.26,0.58380
5942.41,0.58721
5938.55,0.58768
5934.69,0.58799
5930.83,0.58912
5926.98,0.59201
5923.12,0.58976
5919.26,0.58557
5915.4,0.58454
5911.55,0.58138
5907.69,0.57880
5903.83,0.58411
5899.97,0.57508
5896.12,0.57550
5892.26,0.58074
5888.4,0.58547
5884.54,0.58162
5880.69,0.58253
5876.83,0.57747
5872.97,0.57735
5869.11,0.58274
5865.26,0.58013
5861.4,0.58669
5857.54,0.58438
5853.68,0.57454
5849.83,0.58079
5845.97,0.58706
5842.11,0.58868
5838.25,0.58031
5834.4,0.57867
5830.54,0.57754
5826.68,0.58066
5822.82,0.58380
5818.97,0.57962
5815.11,0.57401
5811.25,0.57648
5807.39,0.57458
5803.54,0.57822
5799.68,0.57870
5795.82,0.57456
5791.96,0.56923
5788.11,0.56902
5784.25,0.57452
5780.39,0.57590
5776.53,0.58022
5772.68,0.58203
5768.82,0.57699
5764.96,0.57550
5761.11,0.58157
5757.25,0.57950
5753.39,0.57887
5749.53,0.58152
5745.68,0.58581
5741.82,0.59170
5737.96,0.58763
5734.1,0.57934
5730.25,0.58909
5726.39,0.58777
5722.53,0.59100
5718.67,0.58927
5714.82,0.58040
5710.96,0.58366
5707.1,0.58586
5703.24,0.58249
5699.39,0.58415
5695.53,0.58393
5691.67,0.58523
5687.81,0.58444
5683.96,0.58217
5680.1,0.57849
5676.24,0.58457
5672.38,0.58093
5668.53,0.57826
5664.67,0.58174
5660.81,0.57953
5656.95,0.58019
5653.1,0.58466
5649.24,0.58070
5645.38,0.58023
5641.52,0.57513
5637.67,0.58025
5633.81,0.58703
5629.95,0.58988
5626.09,0.58920
5622.24,0.58748
5618.38,0.58857
5614.52,0.58624
5610.66,0.58195
5606.81,0.58517
5602.95,0.59434
5599.09,0.58447
5595.23,0.58085
5591.38,0.59502
5587.52,0.59849
5583.66,0.58758
5579.8,0.59645
5575.95,0.59510
5572.09,0.59987
5568.23,0.59892
5564.38,0.58930
5560.52,0.59614
5556.66,0.60443
5552.8,0.59408
5548.95,0.58782
5545.09,0.59009
5541.23,0.59391
5537.37,0.60565
5533.52,0.59802
5529.66,0.59100
5525.8,0.59312
5521.94,0.59336
5518.09,0.60046
5514.23,0.59387
5510.37,0.59258
5506.51,0.59516
5502.66,0.59795
5498.8,0.59823
5494.94,0.59240
5491.08,0.58862
5487.23,0.59468
5483.37,0.59612
5479.51,0.59719
5475.65,0.59622
5471.8,0.59850
5467.94,0.60282
5464.08,0.59891
5460.22,0.60259
5456.37,0.60470
5452.51,0.60823
5448.65,0.61402
5444.79,0.60936
5440.94,0.61102
5437.08,0.61029
5433.22,0.61341
5429.36,0.61309
5425.51,0.61750
5421.65,0.62056
5417.79,0.61449
5413.93,0.60616
5410.08,0.61187
5406.22,0.61429
5402.36,0.60869
5398.5,0.61536
5394.65,0.62317
5390.79,0.62119
5386.93,0.61567
5383.07,0.61387
5379.22,0.61462
5375.36,0.61494
5371.5,0.61675
5367.65,0.61867
5363.79,0.61899
5359.93,0.62244
5356.07,0.61647
5352.22,0.60928
5348.36,0.60865
5344.5,0.61059
5340.64,0.61276
5336.79,0.61100
5332.93,0.60882
5329.07,0.61129
5325.21,0.61650
5321.36,0.60955
5317.5,0.60333
5313.64,0.60694
5309.78,0.60401
5305.93,0.60253
5302.07,0.60124
5298.21,0.59424
5294.35,0.59374
5290.5,0.58679
5286.64,0.58339
5282.78,0.57454
5278.92,0.57313
5275.07,0.57073
5271.21,0.56433
5267.35,0.55006
5263.49,0.53972
5259.64,0.53868
5255.78,0.53783
5251.92,0.52844
5248.06,0.51577
5244.21,0.51767
5240.35,0.51356
5236.49,0.50676
5232.63,0.50046
5228.78,0.49866
5224.92,0.49697
5221.06,0.49355
5217.2,0.49743
5213.35,0.49399
5209.49,0.49453
5205.63,0.49156
5201.77,0.49285
5197.92,0.49452
5194.06,0.49654
5190.2,0.49788
5186.34,0.49426
5182.49,0.49357
5178.63,0.49667
5174.77,0.49705
5170.91,0.50035
5167.06,0.50380
5163.2,0.50233
5159.34,0.50617
5155.49,0.50527
5151.63,0.50748
5147.77,0.51596
5143.91,0.51604
5140.06,0.51769
5136.2,0.52154
5132.34,0.51882
5128.48,0.52320
5124.63,0.52535
5120.77,0.52018
5116.91,0.52346
5113.05,0.52548
5109.2,0.52802
5105.34,0.53259
5101.48,0.53168
5097.62,0.52782
5093.77,0.52719
5089.91,0.53102
5086.05,0.53703
5082.19,0.53516
5078.34,0.53518
5074.48,0.53935
5070.62,0.54159
5066.76,0.54552
5062.91,0.54707
5059.05,0.54117
5055.19,0.54304
5051.33,0.54721
5047.48,0.54601
5043.62,0.54901
5039.76,0.54816
5035.9,0.54912
5032.05,0.54457
5028.19,0.54432
5024.33,0.55173
5020.47,0.54763
5016.62,0.54588
5012.76,0.54658
5008.9,0.54658
5005.04,0.54772
5001.19,0.54492
4997.33,0.53890
4993.47,0.53735
4989.61,0.53686
4985.76,0.53761
4981.9,0.53613
4978.04,0.53078
4974.18,0.52607
4970.33,0.52296
4966.47,0.52438
4962.61,0.52085
4958.76,0.51570
4954.9,0.51115
4951.04,0.50443
4947.18,0.50200
4943.33,0.49794
4939.47,0.49476
4935.61,0.49062
4931.75,0.48507
4927.9,0.47993
4924.04,0.47735
4920.18,0.47047
4916.32,0.46328
4912.47,0.46306
4908.61,0.46132
4904.75,0.45820
4900.89,0.45576
4897.04,0.45026
4893.18,0.44768
4889.32,0.44415
4885.46,0.44028
4881.61,0.43638
4877.75,0.43410
4873.89,0.43267
4870.03,0.42739
4866.18,0.42782
4862.32,0.42598
4858.46,0.42107
4854.6,0.41710
4850.75,0.41693
4846.89,0.41446
4843.03,0.41187
4839.17,0.40917
4835.32,0.40678
4831.46,0.40447
4827.6,0.40313
4823.74,0.40069
4819.89,0.39904
4816.03,0.39653
4812.17,0.39468
4808.31,0.39599
4804.46,0.39474
4800.6,0.39261
4796.74,0.39285
4792.88,0.38950
4789.03,0.39062
4785.17,0.39034
4781.31,0.39079
4777.45,0.38701
4773.6,0.38691
4769.74,0.38435
4765.88,0.38649
4762.02,0.38398
4758.17,0.38239
4754.31,0.37994
4750.45,0.38277
4746.6,0.38334
4742.74,0.38257
4738.88,0.38335
4735.02,0.38523
4731.17,0.38573
4727.31,0.38802
4723.45,0.38406
4719.59,0.38544
4715.74,0.38680
4711.88,0.38751
4708.02,0.38718
4704.16,0.38826
4700.31,0.38961
4696.45,0.39206
4692.59,0.39263
4688.73,0.39242
4684.88,0.39023
4681.02,0.39318
4677.16,0.39557
4673.3,0.39460
4669.45,0.39522
4665.59,0.39493
4661.73,0.39637
4657.87,0.39959
4654.02,0.40106
4650.16,0.39952
4646.3,0.39904
4642.44,0.40421
4638.59,0.40608
4634.73,0.40727
4630.87,0.40850
4627.01,0.40806
4623.16,0.40937
4619.3,0.41211
4615.44,0.41374
4611.58,0.41533
4607.73,0.41709
4603.87,0.41879
4600.01,0.42196
4596.15,0.42225
4592.3,0.42630
4588.44,0.42706
4584.58,0.42596
4580.72,0.42795
4576.87,0.42846
4573.01,0.42992
4569.15,0.43495
4565.29,0.43297
4561.44,0.43443
4557.58,0.43730
4553.72,0.44081
4549.87,0.44082
4546.01,0.44044
4542.15,0.44021
4538.29,0.43940
4534.44,0.44221
4530.58,0.44507
4526.72,0.44353
4522.86,0.44196
4519.01,0.44162
4515.15,0.44337
4511.29,0.44143
4507.43,0.44189
4503.58,0.44174
4499.72,0.44187
4495.86,0.43827
4492,0.43477
4488.15,0.43386
4484.29,0.43035
4480.43,0.42538
4476.57,0.42080
4472.72,0.41664
4468.86,0.41233
4465,0.40758
4461.14,0.40179
4457.29,0.39415
4453.43,0.38966
4449.57,0.38541
4445.71,0.37917
4441.86,0.37531
4438,0.37229
4434.14,0.36461
4430.28,0.36065
4426.43,0.35740
4422.57,0.35354
4418.71,0.34941
4414.85,0.34715
4411,0.34518
4407.14,0.34000
4403.28,0.33962
4399.42,0.33929
4395.57,0.33956
4391.71,0.33971
4387.85,0.34128
4383.99,0.34343
4380.14,0.34398
4376.28,0.34381
4372.42,0.34552
4368.56,0.34658
4364.71,0.34804
4360.85,0.35162
4356.99,0.35068
4353.14,0.34915
4349.28,0.34636
4345.42,0.34560
4341.56,0.34450
4337.71,0.34342
4333.85,0.34234
4329.99,0.34155
4326.13,0.33922
4322.28,0.33680
4318.42,0.33666
4314.56,0.33559
4310.7,0.33448
4306.85,0.33363
4302.99,0.33424
4299.13,0.33347
4295.27,0.33140
4291.42,0.33013
4287.56,0.32987
4283.7,0.32926
4279.84,0.32730
4275.99,0.32748
4272.13,0.32858
4268.27,0.32911
4264.41,0.32939
4260.56,0.32968
4256.7,0.32999
4252.84,0.32884
4248.98,0.33048
4245.13,0.33258
4241.27,0.33344
4237.41,0.33274
4233.55,0.33460
4229.7,0.33531
4225.84,0.33651
4221.98,0.33581
4218.12,0.33685
4214.27,0.33767
4210.41,0.33797
4206.55,0.33811
4202.69,0.33884
4198.84,0.33930
4194.98,0.33875
4191.12,0.33983
4187.26,0.34121
4183.41,0.34044
4179.55,0.34084
4175.69,0.34150
4171.83,0.34420
4167.98,0.34535
4164.12,0.34608
4160.26,0.34587
4156.4,0.34639
4152.55,0.34549
4148.69,0.34413
4144.83,0.34341
4140.98,0.34082
4137.12,0.34039
4133.26,0.33816
4129.4,0.33575
4125.55,0.33404
4121.69,0.33202
4117.83,0.33001
4113.97,0.32822
4110.12,0.32563
4106.26,0.32171
4102.4,0.31931
4098.54,0.31562
4094.69,0.31211
4090.83,0.30800
4086.97,0.30561
4083.11,0.30291
4079.26,0.29883
4075.4,0.29467
4071.54,0.29136
4067.68,0.28766
4063.83,0.28399
4059.97,0.28080
4056.11,0.27819
4052.25,0.27401
4048.4,0.27124
4044.54,0.26903
4040.68,0.26740
4036.82,0.26487
4032.97,0.26157
4029.11,0.26066
4025.25,0.26028
4021.39,0.25946
4017.54,0.25891
4013.68,0.25976
4009.82,0.25977
4005.96,0.25996
4002.11,0.26106
3998.25,0.26226
3994.39,0.26361
3990.53,0.26470
3986.68,0.26500
3982.82,0.26499
3978.96,0.26581
3975.1,0.26705
3971.25,0.26809
3967.39,0.27026
3963.53,0.27159
3959.67,0.27242
3955.82,0.27341
3951.96,0.27452
3948.1,0.27637
3944.25,0.27827
3940.39,0.28101
3936.53,0.28269
3932.67,0.28473
3928.82,0.28652
3924.96,0.28776
3921.1,0.28890
3917.24,0.29185
3913.39,0.29428
3909.53,0.29561
3905.67,0.29716
3901.81,0.29838
3897.96,0.30004
3894.1,0.30064
3890.24,0.30269
3886.38,0.30579
3882.53,0.30628
3878.67,0.30561
3874.81,0.30722
3870.95,0.31206
3867.1,0.31313
3863.24,0.31607
3859.38,0.31632
3855.52,0.31577
3851.67,0.31709
3847.81,0.32040
3843.95,0.32341
3840.09,0.32559
3836.24,0.32867
3832.38,0.32960
3828.52,0.32921
3824.66,0.32906
3820.81,0.33037
3816.95,0.33108
3813.09,0.33113
3809.23,0.33126
3805.38,0.33062
3801.52,0.33174
3797.66,0.33076
3793.8,0.33177
3789.95,0.33348
3786.09,0.33384
3782.23,0.33254
3778.37,0.33254
3774.52,0.33110
3770.66,0.33150
3766.8,0.33079
3762.94,0.32952
3759.09,0.32967
3755.23,0.32682
3751.37,0.32638
3747.51,0.32371
3743.66,0.32232
3739.8,0.31959
3735.94,0.31841
3732.09,0.31436
3728.23,0.31211
3724.37,0.30936
3720.51,0.30709
3716.66,0.30556
3712.8,0.30268
3708.94,0.29487
3705.08,0.28917
3701.23,0.28295
3697.37,0.27635
3693.51,0.27060
3689.65,0.26390
3685.8,0.25298
3681.94,0.24448
3678.08,0.23464
3674.22,0.22117
3670.37,0.20853
3666.51,0.19513
3662.65,0.18624
3658.79,0.17620
3654.94,0.16553
3651.08,0.15824
3647.22,0.14708
3643.36,0.13980
3639.51,0.13334
3635.65,0.12625
3631.79,0.12122
3627.93,0.11512
3624.08,0.10833
3620.22,0.10509
3616.36,0.09889
3612.5,0.09469
3608.65,0.09103
3604.79,0.08648
3600.93,0.08263
3597.07,0.07934
3593.22,0.07578
3589.36,0.07174
3585.5,0.06757
3581.64,0.06510
3577.79,0.06386
3573.93,0.06115
3570.07,0.05897
3566.21,0.05683
3562.36,0.05385
3558.5,0.05200
3554.64,0.05047
3550.78,0.04850
3546.93,0.04666
3543.07,0.04597
3539.21,0.04427
3535.36,0.04331
3531.5,0.04278
3527.64,0.04105
3523.78,0.04074
3519.93,0.03917
3516.07,0.03803
3512.21,0.03845
3508.35,0.03832
3504.5,0.03692
3500.64,0.03651
3496.78,0.03564
3492.92,0.03461
3489.07,0.03457
3485.21,0.03397
3481.35,0.03366
3477.49,0.03290
3473.64,0.03309
3469.78,0.03213
3465.92,0.03134
3462.06,0.03164
3458.21,0.03164
3454.35,0.03124
3450.49,0.03166
3446.63,0.03149
3442.78,0.03198
3438.92,0.03151
3435.06,0.03066
3431.2,0.03085
3427.35,0.03061
3423.49,0.03109
3419.63,0.03112
3415.77,0.03159
3411.92,0.03088
3408.06,0.03127
3404.2,0.03216
3400.34,0.03067
3396.49,0.03011
3392.63,0.03142
3388.77,0.03188
3384.91,0.03176
3381.06,0.03199
3377.2,0.03188
3373.34,0.03150
3369.48,0.03120
3365.63,0.03214
3361.77,0.03259
3357.91,0.03195
3354.05,0.03122
3350.2,0.03137
3346.34,0.03159
3342.48,0.03260
3338.63,0.03328
3334.77,0.03304
3330.91,0.03378
3327.05,0.03365
3323.2,0.03362
3319.34,0.03482
3315.48,0.03543
3311.62,0.03562
3307.77,0.03597
3303.91,0.03652
3300.05,0.03625
3296.19,0.03613
3292.34,0.03730
3288.48,0.03724
3284.62,0.03783
3280.76,0.03843
3276.91,0.03896
3273.05,0.04063
3269.19,0.04110
3265.33,0.04153
3261.48,0.04239
3257.62,0.04282
3253.76,0.04354
3249.9,0.04461
3246.05,0.04534
3242.19,0.04673
3238.33,0.04770
3234.47,0.04904
3230.62,0.04919
3226.76,0.05058
3222.9,0.05121
3219.04,0.05180
3215.19,0.05303
3211.33,0.05405
3207.47,0.05593
3203.61,0.05672
3199.76,0.05782
3195.9,0.05884
3192.04,0.05978
3188.18,0.06054
3184.33,0.06181
3180.47,0.06226
3176.61,0.06332
3172.75,0.06493
3168.9,0.06576
3165.04,0.06671
3161.18,0.06877
3157.32,0.07050
3153.47,0.07156
3149.61,0.07222
3145.75,0.07201
3141.89,0.07399
3138.04,0.07502
3134.18,0.07599
3130.32,0.07814
3126.47,0.07868
3122.61,0.07888
3118.75,0.08063
3114.89,0.08190
3111.04,0.08267
3107.18,0.08326
3103.32,0.08489
3099.46,0.08610
3095.61,0.08735
3091.75,0.08803
3087.89,0.08905
3084.03,0.08987
3080.18,0.09049
3076.32,0.09113
3072.46,0.09169
3068.6,0.09188
3064.75,0.09318
3060.89,0.09415
3057.03,0.09469
3053.17,0.09554
3049.32,0.09597
3045.46,0.09591
3041.6,0.09661
3037.74,0.09683
3033.89,0.09619
3030.03,0.09554
3026.17,0.09642
3022.31,0.09542
3018.46,0.09494
3014.6,0.09361
3010.74,0.09200
3006.88,0.08985
3003.03,0.08873
2999.17,0.08731
2995.31,0.08566
2991.45,0.08412
2987.6,0.08235
2983.74,0.07983
2979.88,0.07636
2976.02,0.07241
2972.17,0.06871
2968.31,0.06541
2964.45,0.06330
2960.59,0.06163
2956.74,0.05991
2952.88,0.05800
2949.02,0.05626
2945.16,0.05469
2941.31,0.05349
2937.45,0.05258
2933.59,0.05232
2929.74,0.05170
2925.88,0.05106
2922.02,0.05063
2918.16,0.05039
2914.31,0.05101
2910.45,0.05158
2906.59,0.05293
2902.73,0.05318
2898.88,0.05341
2895.02,0.05460
2891.16,0.05497
2887.3,0.05610
2883.45,0.05734
2879.59,0.05827
2875.73,0.05886
2871.87,0.05962
2868.02,0.06074
2864.16,0.06196
2860.3,0.06258
2856.44,0.06217
2852.59,0.06229
2848.73,0.06295
2844.87,0.06738
2841.01,0.07219
2837.16,0.07576
2833.3,0.07977
2829.44,0.08429
2825.58,0.08831
2821.73,0.09237
2817.87,0.09547
2814.01,0.09833
2810.15,0.10005
2806.3,0.10251
2802.44,0.10460
2798.58,0.10647
2794.72,0.10813
2790.87,0.10886
2787.01,0.11024
2783.15,0.11067
2779.29,0.11172
2775.44,0.11253
2771.58,0.11296
2767.72,0.11352
2763.86,0.11365
2760.01,0.11433
2756.15,0.11502
2752.29,0.11498
2748.43,0.11479
2744.58,0.11522
2740.72,0.11588
2736.86,0.11593
2733.01,0.11635
2729.15,0.11667
2725.29,0.11819
2721.43,0.11859
2717.58,0.11901
2713.72,0.12050
2709.86,0.12169
2706,0.12282
2702.15,0.12465
2698.29,0.12615
2694.43,0.12698
2690.57,0.12834
2686.72,0.12959
2682.86,0.13083
2679,0.13163
2675.14,0.13282
2671.29,0.13335
2667.43,0.13402
2663.57,0.13438
2659.71,0.13433
2655.86,0.13504
2652,0.13606
2648.14,0.13704
2644.28,0.13729
2640.43,0.13805
2636.57,0.13868
2632.71,0.13947
2628.85,0.14073
2625,0.14243
2621.14,0.14327
2617.28,0.14362
2613.42,0.14454
2609.57,0.14492
2605.71,0.14595
2601.85,0.14668
2597.99,0.14736
2594.14,0.14797
2590.28,0.14813
2586.42,0.14902
2582.56,0.14933
2578.71,0.15000
2574.85,0.15080
2570.99,0.15091
2567.13,0.15105
2563.28,0.15104
2559.42,0.15151
2555.56,0.15168
2551.7,0.15199
2547.85,0.15257
2543.99,0.15315
2540.13,0.15328
2536.27,0.15368
2532.42,0.15436
2528.56,0.15463
2524.7,0.15538
2520.85,0.15644
2516.99,0.15672
2513.13,0.15789
2509.27,0.15919
2505.42,0.16078
2501.56,0.16229
2497.7,0.16301
2493.84,0.16467
2489.99,0.16591
2486.13,0.16732
2482.27,0.16843
2478.41,0.16938
2474.56,0.17009
2470.7,0.17131
2466.84,0.17221
2462.98,0.17302
2459.13,0.17385
2455.27,0.17521
2451.41,0.17633
2447.55,0.17748
2443.7,0.17867
2439.84,0.17965
2435.98,0.18039
2432.12,0.18190
2428.27,0.18381
2424.41,0.18535
2420.55,0.18617
2416.69,0.18753
2412.84,0.18972
2408.98,0.19188
2405.12,0.19283
2401.26,0.19403
2397.41,0.19534
2393.55,0.19644
2389.69,0.19670
2385.83,0.19653
2381.98,0.19610
2378.12,0.19491
2374.26,0.19391
2370.4,0.19531
2366.55,0.19431
2362.69,0.19291
2358.83,0.19234
2354.97,0.19145
2351.12,0.19185
2347.26,0.19288
2343.4,0.19200
2339.54,0.19329
2335.69,0.19551
2331.83,0.19573
2327.97,0.19556
2324.12,0.19726
2320.26,0.19889
2316.4,0.19968
2312.54,0.19915
2308.69,0.19919
2304.83,0.19813
2300.97,0.19579
2297.11,0.19375
2293.26,0.19189
2289.4,0.18981
2285.54,0.18745
2281.68,0.18599
2277.83,0.18507
2273.97,0.18595
2270.11,0.18729
2266.25,0.18810
2262.4,0.18945
2258.54,0.19080
2254.68,0.19181
2250.82,0.19316
2246.97,0.19456
2243.11,0.19600
2239.25,0.19809
2235.39,0.19941
2231.54,0.20102
2227.68,0.20213
2223.82,0.20354
2219.96,0.20458
2216.11,0.20549
2212.25,0.20591
2208.39,0.20642
2204.53,0.20600
2200.68,0.20539
2196.82,0.20500
2192.96,0.20412
2189.1,0.20233
2185.25,0.20012
2181.39,0.19789
2177.53,0.19512
2173.67,0.19301
2169.82,0.19036
2165.96,0.18833
2162.1,0.18658
2158.24,0.18514
2154.39,0.18293
2150.53,0.18179
2146.67,0.18140
2142.81,0.18074
2138.96,0.18038
2135.1,0.17978
2131.24,0.17980
2127.38,0.18020
2123.53,0.18082
2119.67,0.18120
2115.81,0.18228
2111.96,0.18283
2108.1,0.18355
2104.24,0.18480
2100.38,0.18561
2096.53,0.18675
2092.67,0.18758
2088.81,0.18749
2084.95,0.18801
2081.1,0.18825
2077.24,0.18726
2073.38,0.18694
2069.52,0.18669
2065.67,0.18631
2061.81,0.18575
2057.95,0.18580
2054.09,0.18605
2050.24,0.18692
2046.38,0.18732
2042.52,0.18812
2038.66,0.18892
2034.81,0.18957
2030.95,0.19100
2027.09,0.19281
2023.23,0.19496
2019.38,0.19679
2015.52,0.19869
2011.66,0.20019
2007.8,0.20182
2003.95,0.20281
2000.09,0.20386
1996.23,0.20494
1992.37,0.20646
1988.52,0.20740
1984.66,0.20708
1980.8,0.20728
1976.94,0.20755
1973.09,0.20704
1969.23,0.20686
1965.37,0.20666
1961.51,0.20602
1957.66,0.20514
1953.8,0.20486
1949.94,0.20531
1946.08,0.20682
1942.23,0.20844
1938.37,0.20795
1934.51,0.20943
1930.65,0.20981
1926.8,0.21063
1922.94,0.21280
1919.08,0.21295
1915.23,0.21176
1911.37,0.21085
1907.51,0.21076
1903.65,0.21007
1899.8,0.20958
1895.94,0.21032
1892.08,0.21090
1888.22,0.21142
1884.37,0.21030
1880.51,0.20963
1876.65,0.20923
1872.79,0.20998
1868.94,0.21225
1865.08,0.20867
1861.22,0.20623
1857.36,0.20456
1853.51,0.20240
1849.65,0.20076
1845.79,0.20130
1841.93,0.19707
1838.08,0.19221
1834.22,0.18924
1830.36,0.18870
1826.5,0.18400
1822.65,0.17855
1818.79,0.17341
1814.93,0.16874
1811.07,0.16392
1807.22,0.15725
1803.36,0.15224
1799.5,0.14654
1795.64,0.14116
1791.79,0.13555
1787.93,0.12619
1784.07,0.11940
1780.21,0.11184
1776.36,0.10373
1772.5,0.09604
1768.64,0.08233
1764.78,0.07183
1760.93,0.06394
1757.07,0.05705
1753.21,0.05256
1749.35,0.05002
1745.5,0.04737
1741.64,0.04581
1737.78,0.04558
1733.92,0.04793
1730.07,0.04851
1726.21,0.04969
1722.35,0.05111
1718.5,0.05518
1714.64,0.05800
1710.78,0.05856
1706.92,0.06224
1703.07,0.06545
1699.21,0.06853
1695.35,0.06781
1691.49,0.06576
1687.64,0.06620
1683.78,0.06790
1679.92,0.06340
1676.06,0.06205
1672.21,0.06040
1668.35,0.05966
1664.49,0.05764
1660.63,0.05659
1656.78,0.05762
1652.92,0.05987
1649.06,0.05809
1645.2,0.05813
1641.35,0.05645
1637.49,0.05824
1633.63,0.05781
1629.77,0.05597
1625.92,0.05546
1622.06,0.05398
1618.2,0.05202
1614.34,0.04936
1610.49,0.04787
1606.63,0.04660
1602.77,0.04598
1598.91,0.04459
1595.06,0.04392
1591.2,0.04527
1587.34,0.04883
1583.48,0.05394
1579.63,0.05908
1575.77,0.06641
1571.91,0.07031
1568.05,0.07353
1564.2,0.07329
1560.34,0.07519
1556.48,0.07168
1552.62,0.06722
1548.77,0.06437
1544.91,0.06347
1541.05,0.06430
1537.19,0.05957
1533.34,0.05699
1529.48,0.05393
1525.62,0.05136
1521.76,0.04835
1517.91,0.04353
1514.05,0.04051
1510.19,0.04056
1506.34,0.04311
1502.48,0.04183
1498.62,0.04386
1494.76,0.04647
1490.91,0.04909
1487.05,0.05014
1483.19,0.04812
1479.33,0.04514
1475.48,0.04249
1471.62,0.03866
1467.76,0.03528
1463.9,0.03434
1460.05,0.03507
1456.19,0.03713
1452.33,0.03573
1448.47,0.03610
1444.62,0.03627
1440.76,0.03593
1436.9,0.03518
1433.04,0.03369
1429.19,0.03273
1425.33,0.03355
1421.47,0.03490
1417.61,0.03640
1413.76,0.03655
1409.9,0.03780
1406.04,0.03788
1402.18,0.03789
1398.33,0.03812
1394.47,0.03797
1390.61,0.03643
1386.75,0.03413
1382.9,0.03208
1379.04,0.03119
1375.18,0.03110
1371.32,0.03211
1367.47,0.03265
1363.61,0.03359
1359.75,0.03421
1355.89,0.03413
1352.04,0.03439
1348.18,0.03467
1344.32,0.03335
1340.46,0.03307
1336.61,0.03274
1332.75,0.03245
1328.89,0.03294
1325.03,0.03297
1321.18,0.03300
1317.32,0.03301
1313.46,0.03413
1309.61,0.03526
1305.75,0.03614
1301.89,0.03645
1298.03,0.03648
1294.18,0.03585
1290.32,0.03519
1286.46,0.03317
1282.6,0.03247
1278.75,0.03182
1274.89,0.03136
1271.03,0.03166
1267.17,0.03102
1263.32,0.03033
1259.46,0.03012
1255.6,0.02994
1251.74,0.02976
1247.89,0.02904
1244.03,0.02917
1240.17,0.02964
1236.31,0.03072
1232.46,0.03139
1228.6,0.03292
1224.74,0.03365
1220.88,0.03407
1217.03,0.03484
1213.17,0.03487
1209.31,0.03518
1205.45,0.03503
1201.6,0.03532
1197.74,0.03551
1193.88,0.03490
1190.02,0.03332
1186.17,0.03187
1182.31,0.03065
1178.45,0.02835
1174.59,0.02631
1170.74,0.02551
1166.88,0.02513
1163.02,0.02631
1159.16,0.02785
1155.31,0.02907
1151.45,0.02876
1147.59,0.02861
1143.73,0.02683
1139.88,0.02496
1136.02,0.02343
1132.16,0.02217
1128.3,0.02270
1124.45,0.02388
1120.59,0.02534
1116.73,0.02608
1112.88,0.02733
1109.02,0.02745
1105.16,0.02893
1101.3,0.03001
1097.45,0.03014
1093.59,0.02887
1089.73,0.02816
1085.87,0.02889
1082.02,0.02987
1078.16,0.03165
1074.3,0.03178
1070.44,0.03231
1066.59,0.03419
1062.73,0.03763
1058.87,0.04162
1055.01,0.04415
1051.16,0.04546
1047.3,0.04574
1043.44,0.04427
1039.58,0.04521
1035.73,0.04810
1031.87,0.04977
1028.01,0.05115
1024.15,0.05302
1020.3,0.05278
1016.44,0.05331
1012.58,0.05325
1008.72,0.05342
1004.87,0.05335
1001.01,0.05397
997.151,0.05547
993.294,0.05599
989.437,0.05734
985.579,0.05913
981.722,0.06232
977.864,0.06512
974.007,0.06685
970.149,0.06952
966.292,0.07057
962.434,0.07355
958.577,0.07684
954.719,0.07871
950.862,0.08103
947.005,0.08255
943.147,0.08359
939.29,0.08339
935.432,0.08365
931.575,0.08381
927.717,0.08246
923.86,0.08112
920.002,0.07911
916.145,0.07815
912.287,0.07630
908.43,0.07520
904.573,0.07254
900.715,0.07032
896.858,0.07010
893,0.07123
889.143,0.07525
885.285,0.07761
881.428,0.07907
877.57,0.07826
873.713,0.07766
869.856,0.07886
865.998,0.08025
862.141,0.08076
858.283,0.08124
854.426,0.07917
850.568,0.07855
846.711,0.07887
842.853,0.07831
838.996,0.07749
835.138,0.07672
831.281,0.07557
827.424,0.07453
823.566,0.07367
819.709,0.07411
815.851,0.07281
811.994,0.07259
808.136,0.07211
804.279,0.07199
800.421,0.07227
796.564,0.07143
792.706,0.07178
788.849,0.07248
784.992,0.07110
781.134,0.06985
777.277,0.06810
773.419,0.06852
769.562,0.06679
765.704,0.06396
761.847,0.06295
757.989,0.06272
754.132,0.05947
750.274,0.05971
746.417,0.05739
742.56,0.05515
738.702,0.05702
734.845,0.05619
730.987,0.05338
727.13,0.05216
723.272,0.04985
719.415,0.04828
715.557,0.05000
711.7,0.04816
707.843,0.04514
703.985,0.04586
700.128,0.04621
696.27,0.04609
692.413,0.04558
688.555,0.04596
684.698,0.04478
680.84,0.04410
676.983,0.04165
673.125,0.03993
669.268,0.04038
665.411,0.03891
661.553,0.04075
657.696,0.04212
653.838,0.04133
649.981,0.04240
646.123,0.04310
642.266,0.04202
638.408,0.03938
634.551,0.03738
630.693,0.03738
626.836,0.03747
622.979,0.03901
619.121,0.03936
615.264,0.03857
611.406,0.03804
607.549,0.03981
603.691,0.04163
599.834,0.03996
595.976,0.03870
592.119,0.03940
588.261,0.04191
584.404,0.04175
580.547,0.04099
576.689,0.04021
572.832,0.03920
568.974,0.03972
565.117,0.04188
561.259,0.04300
557.402,0.04672
553.544,0.04496
549.687,0.04378
545.83,0.04457
541.972,0.04344
538.115,0.04253
534.257,0.04085
530.4,0.04020
526.542,0.03795
522.685,0.03918
518.827,0.04221
514.97,0.04268
511.112,0.04248
507.255,0.04318
503.398,0.04570
499.54,0.04489
495.683,0.04415
491.825,0.04861
487.968,0.04653
484.11,0.03805
480.253,0.04310
476.395,0.04640
472.538,0.04361
468.68,0.04552
464.823,0.05420
460.966,0.05502
457.108,0.04526
453.251,0.03827
449.393,0.04063
445.536,0.04257
441.678,0.03583
437.821,0.03748
433.963,0.04684
430.106,0.04214
426.248,0.04740
422.391,0.04770
418.534,0.04700
414.676,0.06069
410.819,0.06277
406.961,0.05366
403.104,0.04125
399.246,0.01513