File: 01_Data/MDF/FTIR/IS/MDF_IS_REFLECT_MEAS_210623_R5.dpt
5996.41,0.57977
5992.55,0.58563
5988.69,0.58543
5984.84,0.58165
5980.98,0.58218
5977.12,0.57663
5973.27,0.57105
5969.41,0.56841
5965.55,0.56914
5961.69,0.57100
5957.84,0.57126
5953.98,0.57121
5950.12,0.57591
5946.26,0.56927
5942.41,0.57705
5938.55,0.57529
5934.69,0.56754
5930.83,0.57325
5926.98,0.57476
5923.12,0.57453
5919.26,0.57278
5915.4,0.56532
5911.55,0.56407
5907.69,0.56762
5903.83,0.56936
5899.97,0.56262
5896.12,0.56024
5892.26,0.56298
5888.4,0.56641
5884.54,0.56500
5880.69,0.56391
5876.83,0.56454
5872.97,0.56314
5869.11,0.56601
5865.26,0.56391
5861.4,0.56665
5857.54,0.56441
5853.68,0.55673
5849.83,0.55963
5845.97,0.56952
5842.11,0.56447
5838.25,0.56025
5834.4,0.55791
5830.54,0.55998
5826.68,0.56379
5822.82,0.56214
5818.97,0.55673
5815.11,0.55062
5811.25,0.55701
5807.39,0.55778
5803.54,0.55492
5799.68,0.56382
5795.82,0.56015
5791.96,0.55237
5788.11,0.55382
5784.25,0.55689
5780.39,0.55160
5776.53,0.55533
5772.68,0.56512
5768.82,0.56050
5764.96,0.55775
5761.11,0.55726
5757.25,0.56258
5753.39,0.56312
5749.53,0.56422
5745.68,0.56925
5741.82,0.57290
5737.96,0.56745
5734.1,0.56032
5730.25,0.56764
5726.39,0.56541
5722.53,0.56811
5718.67,0.56774
5714.82,0.56860
5710.96,0.57001
5707.1,0.57030
5703.24,0.56061
5699.39,0.56349
5695.53,0.56081
5691.67,0.55941
5687.81,0.56428
5683.96,0.56780
5680.1,0.56330
5676.24,0.56711
5672.38,0.56545
5668.53,0.56576
5664.67,0.56555
5660.81,0.56200
5656.95,0.55769
5653.1,0.56272
5649.24,0.55802
5645.38,0.56188
5641.52,0.56300
5637.67,0.56491
5633.81,0.56886
5629.95,0.56686
5626.09,0.57052
5622.24,0.57041
5618.38,0.56586
5614.52,0.56659
5610.66,0.56102
5606.81,0.56367
5602.95,0.57385
5599.09,0.56771
5595.23,0.56865
5591.38,0.57342
5587.52,0.57257
5583.66,0.56742
5579.8,0.57252
5575.95,0.56742
5572.09,0.57271
5568.23,0.57665
5564.38,0.57279
5560.52,0.57755
5556.66,0.58025
5552.8,0.58003
5548.95,0.57415
5545.09,0.57160
5541.23,0.57560
5537.37,0.58935
5533.52,0.58150
5529.66,0.57485
5525.8,0.56894
5521.94,0.57419
5518.09,0.58371
5514.23,0.57923
5510.37,0.57188
5506.51,0.57557
5502.66,0.57561
5498.8,0.57953
5494.94,0.57613
5491.08,0.57467
5487.23,0.58051
5483.37,0.58028
5479.51,0.58032
5475.65,0.58038
5471.8,0.58204
5467.94,0.58439
5464.08,0.57822
5460.22,0.58092
5456.37,0.58894
5452.51,0.59319
5448.65,0.59561
5444.79,0.59112
5440.94,0.59560
5437.08,0.59272
5433.22,0.59453
5429.36,0.59638
5425.51,0.59563
5421.65,0.60085
5417.79,0.59261
5413.93,0.58524
5410.08,0.59077
5406.22,0.59372
5402.36,0.59201
5398.5,0.59928
5394.65,0.60481
5390.79,0.60516
5386.93,0.60060
5383.07,0.60011
5379.22,0.60103
5375.36,0.59739
5371.5,0.59974
5367.65,0.59905
5363.79,0.59940
5359.93,0.60208
5356.07,0.59440
5352.22,0.58848
5348.36,0.59232
5344.5,0.59231
5340.64,0.59215
5336.79,0.59316
5332.93,0.59224
5329.07,0.59813
5325.21,0.60267
5321.36,0.59285
5317.5,0.59039
5313.64,0.59224
5309.78,0.58870
5305.93,0.58553
5302.07,0.58564
5298.21,0.58256
5294.35,0.57780
5290.5,0.57156
5286.64,0.56978
5282.78,0.56294
5278.92,0.55635
5275.07,0.55576
5271.21,0.54973
5267.35,0.53613
5263.49,0.52543
5259.64,0.52381
5255.78,0.52098
5251.92,0.51385
5248.06,0.50578
5244.21,0.50295
5240.35,0.49995
5236.49,0.49520
5232.63,0.48941
5228.78,0.48585
5224.92,0.48650
5221.06,0.48561
5217.2,0.48747
5213.35,0.48531
5209.49,0.48675
5205.63,0.48446
5201.77,0.47991
5197.92,0.48031
5194.06,0.48404
5190.2,0.48566
5186.34,0.48478
5182.49,0.48406
5178.63,0.48425
5174.77,0.48474
5170.91,0.48787
5167.06,0.49124
5163.2,0.49358
5159.34,0.49521
5155.49,0.48989
5151.63,0.49155
5147.77,0.50061
5143.91,0.50089
5140.06,0.50341
5136.2,0.50780
5132.34,0.50740
5128.48,0.51115
5124.63,0.51318
5120.77,0.50748
5116.91,0.50824
5113.05,0.51196
5109.2,0.51916
5105.34,0.52217
5101.48,0.52018
5097.62,0.51679
5093.77,0.51821
5089.91,0.52084
5086.05,0.52450
5082.19,0.52481
5078.34,0.52423
5074.48,0.53104
5070.62,0.52939
5066.76,0.53018
5062.91,0.53027
5059.05,0.52604
5055.19,0.52970
5051.33,0.53544
5047.48,0.53603
5043.62,0.53522
5039.76,0.53151
5035.9,0.53803
5032.05,0.53655
5028.19,0.53462
5024.33,0.53868
5020.47,0.53449
5016.62,0.53218
5012.76,0.52901
5008.9,0.52979
5005.04,0.53080
5001.19,0.52929
4997.33,0.52384
4993.47,0.52291
4989.61,0.52469
4985.76,0.52182
4981.9,0.51781
4978.04,0.51537
4974.18,0.50998
4970.33,0.50833
4966.47,0.50623
4962.61,0.50171
4958.76,0.49749
4954.9,0.49439
4951.04,0.48839
4947.18,0.48492
4943.33,0.48115
4939.47,0.47753
4935.61,0.47292
4931.75,0.46522
4927.9,0.46023
4924.04,0.45707
4920.18,0.45165
4916.32,0.44694
4912.47,0.44426
4908.61,0.44180
4904.75,0.43977
4900.89,0.43723
4897.04,0.43256
4893.18,0.42948
4889.32,0.42545
4885.46,0.42326
4881.61,0.41872
4877.75,0.41369
4873.89,0.41231
4870.03,0.41036
4866.18,0.40898
4862.32,0.40534
4858.46,0.40182
4854.6,0.39878
4850.75,0.39845
4846.89,0.39705
4843.03,0.39324
4839.17,0.39203
4835.32,0.39093
4831.46,0.38750
4827.6,0.38323
4823.74,0.38108
4819.89,0.37885
4816.03,0.37814
4812.17,0.37658
4808.31,0.37712
4804.46,0.37453
4800.6,0.37300
4796.74,0.37441
4792.88,0.37237
4789.03,0.37443
4785.17,0.37315
4781.31,0.37065
4777.45,0.36911
4773.6,0.36692
4769.74,0.36579
4765.88,0.36827
4762.02,0.36633
4758.17,0.36443
4754.31,0.36335
4750.45,0.36594
4746.6,0.36469
4742.74,0.36431
4738.88,0.36694
4735.02,0.36808
4731.17,0.36821
4727.31,0.36934
4723.45,0.36726
4719.59,0.36836
4715.74,0.36833
4711.88,0.37090
4708.02,0.37061
4704.16,0.37053
4700.31,0.37121
4696.45,0.37454
4692.59,0.37477
4688.73,0.37532
4684.88,0.37432
4681.02,0.37650
4677.16,0.37765
4673.3,0.37733
4669.45,0.37549
4665.59,0.37798
4661.73,0.38026
4657.87,0.38181
4654.02,0.38358
4650.16,0.38503
4646.3,0.38449
4642.44,0.38740
4638.59,0.38985
4634.73,0.38860
4630.87,0.39153
4627.01,0.39151
4623.16,0.39126
4619.3,0.39307
4615.44,0.39719
4611.58,0.39911
4607.73,0.40028
4603.87,0.40238
4600.01,0.40455
4596.15,0.40650
4592.3,0.40908
4588.44,0.40938
4584.58,0.40920
4580.72,0.41146
4576.87,0.41193
4573.01,0.41316
4569.15,0.41531
4565.29,0.41588
4561.44,0.41742
4557.58,0.41906
4553.72,0.42027
4549.87,0.42147
4546.01,0.42210
4542.15,0.42438
4538.29,0.42566
4534.44,0.42462
4530.58,0.42868
4526.72,0.42657
4522.86,0.42471
4519.01,0.42441
4515.15,0.42432
4511.29,0.42396
4507.43,0.42441
4503.58,0.42408
4499.72,0.42356
4495.86,0.41935
4492,0.41727
4488.15,0.41587
4484.29,0.41214
4480.43,0.40780
4476.57,0.40443
4472.72,0.40011
4468.86,0.39633
4465,0.38853
4461.14,0.38188
4457.29,0.37827
4453.43,0.37327
4449.57,0.36818
4445.71,0.36256
4441.86,0.35843
4438,0.35434
4434.14,0.34955
4430.28,0.34647
4426.43,0.34134
4422.57,0.33731
4418.71,0.33305
4414.85,0.33092
4411,0.32682
4407.14,0.32515
4403.28,0.32338
4399.42,0.32213
4395.57,0.32218
4391.71,0.32295
4387.85,0.32309
4383.99,0.32431
4380.14,0.32659
4376.28,0.32709
4372.42,0.33034
4368.56,0.33344
4364.71,0.33414
4360.85,0.33334
4356.99,0.33277
4353.14,0.33368
4349.28,0.33139
4345.42,0.32889
4341.56,0.32703
4337.71,0.32563
4333.85,0.32528
4329.99,0.32528
4326.13,0.32243
4322.28,0.32064
4318.42,0.32058
4314.56,0.32049
4310.7,0.31928
4306.85,0.31795
4302.99,0.31764
4299.13,0.31644
4295.27,0.31415
4291.42,0.31439
4287.56,0.31425
4283.7,0.31382
4279.84,0.31253
4275.99,0.31136
4272.13,0.31157
4268.27,0.31326
4264.41,0.31297
4260.56,0.31180
4256.7,0.31377
4252.84,0.31411
4248.98,0.31534
4245.13,0.31618
4241.27,0.31711
4237.41,0.31777
4233.55,0.31966
4229.7,0.31867
4225.84,0.31880
4221.98,0.31998
4218.12,0.32045
4214.27,0.32124
4210.41,0.32231
4206.55,0.32269
4202.69,0.32262
4198.84,0.32378
4194.98,0.32394
4191.12,0.32373
4187.26,0.32351
4183.41,0.32476
4179.55,0.32647
4175.69,0.32573
4171.83,0.32756
4167.98,0.32848
4164.12,0.32871
4160.26,0.32936
4156.4,0.32862
4152.55,0.32879
4148.69,0.32824
4144.83,0.32657
4140.98,0.32504
4137.12,0.32354
4133.26,0.32187
4129.4,0.32060
4125.55,0.31898
4121.69,0.31497
4117.83,0.31320
4113.97,0.31176
4110.12,0.30846
4106.26,0.30491
4102.4,0.30203
4098.54,0.29892
4094.69,0.29582
4090.83,0.29205
4086.97,0.28950
4083.11,0.28543
4079.26,0.28181
4075.4,0.28050
4071.54,0.27704
4067.68,0.27301
4063.83,0.26879
4059.97,0.26544
4056.11,0.26315
4052.25,0.25891
4048.4,0.25701
4044.54,0.25529
4040.68,0.25201
4036.82,0.24951
4032.97,0.24848
4029.11,0.24635
4025.25,0.24615
4021.39,0.24592
4017.54,0.24530
4013.68,0.24514
4009.82,0.24551
4005.96,0.24577
4002.11,0.24513
3998.25,0.24724
3994.39,0.24981
3990.53,0.25001
3986.68,0.24942
3982.82,0.25067
3978.96,0.25167
3975.1,0.25230
3971.25,0.25381
3967.39,0.25532
3963.53,0.25611
3959.67,0.25757
3955.82,0.25878
3951.96,0.26076
3948.1,0.26245
3944.25,0.26281
3940.39,0.26490
3936.53,0.26697
3932.67,0.27002
3928.82,0.27109
3924.96,0.27271
3921.1,0.27405
3917.24,0.27665
3913.39,0.27830
3909.53,0.27905
3905.67,0.28065
3901.81,0.28266
3897.96,0.28369
3894.1,0.28486
3890.24,0.28659
3886.38,0.28881
3882.53,0.29048
3878.67,0.29036
3874.81,0.29242
3870.95,0.29508
3867.1,0.29523
3863.24,0.29854
3859.38,0.30013
3855.52,0.30109
3851.67,0.30365
3847.81,0.30517
3843.95,0.30574
3840.09,0.30564
3836.24,0.30863
3832.38,0.31254
3828.52,0.31342
3824.66,0.31257
3820.81,0.31282
3816.95,0.31255
3813.09,0.31291
3809.23,0.31394
3805.38,0.31350
3801.52,0.31491
3797.66,0.31411
3793.8,0.31530
3789.95,0.31669
3786.09,0.31731
3782.23,0.31687
3778.37,0.31707
3774.52,0.31585
3770.66,0.31614
3766.8,0.31478
3762.94,0.31309
3759.09,0.31361
3755.23,0.31106
3751.37,0.31079
3747.51,0.30777
3743.66,0.30545
3739.8,0.30392
3735.94,0.30360
3732.09,0.29885
3728.23,0.29676
3724.37,0.29492
3720.51,0.29210
3716.66,0.29001
3712.8,0.28723
3708.94,0.28026
3705.08,0.27457
3701.23,0.26954
3697.37,0.26362
3693.51,0.25831
3689.65,0.25172
3685.8,0.24113
3681.94,0.23322
3678.08,0.22461
3674.22,0.21041
3670.37,0.19751
3666.51,0.18537
3662.65,0.17697
3658.79,0.16697
3654.94,0.15738
3651.08,0.14985
3647.22,0.13972
3643.36,0.13343
3639.51,0.12738
3635.65,0.12074
3631.79,0.11505
3627.93,0.10930
3624.08,0.10359
3620.22,0.09937
3616.36,0.09490
3612.5,0.09266
3608.65,0.08788
3604.79,0.08341
3600.93,0.07999
3597.07,0.07614
3593.22,0.07261
3589.36,0.07013
3585.5,0.06793
3581.64,0.06456
3577.79,0.06221
3573.93,0.05955
3570.07,0.05786
3566.21,0.05609
3562.36,0.05445
3558.5,0.05202
3554.64,0.04943
3550.78,0.04762
3546.93,0.04720
3543.07,0.04599
3539.21,0.04458
3535.36,0.04387
3531.5,0.04339
3527.64,0.04232
3523.78,0.04056
3519.93,0.04013
3516.07,0.04048
3512.21,0.03939
3508.35,0.03847
3504.5,0.03869
3500.64,0.03927
3496.78,0.03759
3492.92,0.03747
3489.07,0.03722
3485.21,0.03586
3481.35,0.03591
3477.49,0.03568
3473.64,0.03549
3469.78,0.03478
3465.92,0.03448
3462.06,0.03463
3458.21,0.03393
3454.35,0.03355
3450.49,0.03360
3446.63,0.03400
3442.78,0.03378
3438.92,0.03395
3435.06,0.03267
3431.2,0.03320
3427.35,0.03349
3423.49,0.03319
3419.63,0.03345
3415.77,0.03373
3411.92,0.03240
3408.06,0.03303
3404.2,0.03296
3400.34,0.03410
3396.49,0.03418
3392.63,0.03353
3388.77,0.03317
3384.91,0.03357
3381.06,0.03392
3377.2,0.03388
3373.34,0.03378
3369.48,0.03410
3365.63,0.03471
3361.77,0.03457
3357.91,0.03400
3354.05,0.03433
3350.2,0.03394
3346.34,0.03407
3342.48,0.03433
3338.63,0.03389
3334.77,0.03463
3330.91,0.03543
3327.05,0.03677
3323.2,0.03664
3319.34,0.03593
3315.48,0.03675
3311.62,0.03739
3307.77,0.03726
3303.91,0.03729
3300.05,0.03828
3296.19,0.03866
3292.34,0.03883
3288.48,0.03908
3284.62,0.03901
3280.76,0.04033
3276.91,0.04122
3273.05,0.04154
3269.19,0.04212
3265.33,0.04281
3261.48,0.04385
3257.62,0.04435
3253.76,0.04525
3249.9,0.04597
3246.05,0.04693
3242.19,0.04739
3238.33,0.04739
3234.47,0.04794
3230.62,0.04940
3226.76,0.05077
3222.9,0.05138
3219.04,0.05230
3215.19,0.05327
3211.33,0.05425
3207.47,0.05410
3203.61,0.05587
3199.76,0.05751
3195.9,0.05870
3192.04,0.05981
3188.18,0.05985
3184.33,0.06085
3180.47,0.06244
3176.61,0.06382
3172.75,0.06483
3168.9,0.06541
3165.04,0.06646
3161.18,0.06723
3157.32,0.06804
3153.47,0.06876
3149.61,0.07047
3145.75,0.07106
3141.89,0.07191
3138.04,0.07280
3134.18,0.07381
3130.32,0.07513
3126.47,0.07675
3122.61,0.07761
3118.75,0.07792
3114.89,0.07892
3111.04,0.08009
3107.18,0.08140
3103.32,0.08285
3099.46,0.08285
3095.61,0.08404
3091.75,0.08498
3087.89,0.08561
3084.03,0.08637
3080.18,0.08740
3076.32,0.08740
3072.46,0.08789
3068.6,0.08907
3064.75,0.08975
3060.89,0.09029
3057.03,0.09115
3053.17,0.09123
3049.32,0.09154
3045.46,0.09183
3041.6,0.09233
3037.74,0.09235
3033.89,0.09214
3030.03,0.09149
3026.17,0.09133
3022.31,0.09069
3018.46,0.09000
3014.6,0.08958
3010.74,0.08874
3006.88,0.08691
3003.03,0.08449
2999.17,0.08324
2995.31,0.08210
2991.45,0.08096
2987.6,0.07941
2983.74,0.07664
2979.88,0.07311
2976.02,0.07053
2972.17,0.06689
2968.31,0.06347
2964.45,0.06167
2960.59,0.06042
2956.74,0.05917
2952.88,0.05747
2949.02,0.05571
2945.16,0.05358
2941.31,0.05219
2937.45,0.05220
2933.59,0.05196
2929.74,0.05147
2925.88,0.05057
2922.02,0.05046
2918.16,0.05044
2914.31,0.05034
2910.45,0.05096
2906.59,0.05228
2902.73,0.05278
2898.88,0.05336
2895.02,0.05422
2891.16,0.05500
2887.3,0.05524
2883.45,0.05588
2879.59,0.05619
2875.73,0.05748
2871.87,0.05858
2868.02,0.05977
2864.16,0.05964
2860.3,0.06020
2856.44,0.06067
2852.59,0.06191
2848.73,0.06302
2844.87,0.06629
2841.01,0.07029
2837.16,0.07329
2833.3,0.07680
2829.44,0.08057
2825.58,0.08439
2821.73,0.08746
2817.87,0.09033
2814.01,0.09322
2810.15,0.09553
2806.3,0.09720
2802.44,0.09901
2798.58,0.10044
2794.72,0.10146
2790.87,0.10293
2787.01,0.10432
2783.15,0.10503
2779.29,0.10529
2775.44,0.10614
2771.58,0.10583
2767.72,0.10657
2763.86,0.10774
2760.01,0.10861
2756.15,0.10900
2752.29,0.10916
2748.43,0.10886
2744.58,0.10878
2740.72,0.10875
2736.86,0.10904
2733.01,0.10913
2729.15,0.11009
2725.29,0.11108
2721.43,0.11137
2717.58,0.11207
2713.72,0.11332
2709.86,0.11489
2706,0.11594
2702.15,0.11711
2698.29,0.11832
2694.43,0.11958
2690.57,0.12007
2686.72,0.12099
2682.86,0.12194
2679,0.12325
2675.14,0.12414
2671.29,0.12410
2667.43,0.12466
2663.57,0.12538
2659.71,0.12594
2655.86,0.12655
2652,0.12697
2648.14,0.12758
2644.28,0.12823
2640.43,0.12854
2636.57,0.12969
2632.71,0.13067
2628.85,0.13099
2625,0.13247
2621.14,0.13299
2617.28,0.13425
2613.42,0.13490
2609.57,0.13538
2605.71,0.13599
2601.85,0.13602
2597.99,0.13668
2594.14,0.13781
2590.28,0.13862
2586.42,0.13848
2582.56,0.13878
2578.71,0.13917
2574.85,0.13955
2570.99,0.13986
2567.13,0.13982
2563.28,0.14033
2559.42,0.14033
2555.56,0.14019
2551.7,0.13998
2547.85,0.14058
2543.99,0.14099
2540.13,0.14114
2536.27,0.14133
2532.42,0.14182
2528.56,0.14218
2524.7,0.14270
2520.85,0.14301
2516.99,0.14348
2513.13,0.14427
2509.27,0.14536
2505.42,0.14733
2501.56,0.14963
2497.7,0.15093
2493.84,0.15190
2489.99,0.15370
2486.13,0.15472
2482.27,0.15593
2478.41,0.15689
2474.56,0.15795
2470.7,0.15927
2466.84,0.15994
2462.98,0.16098
2459.13,0.16169
2455.27,0.16221
2451.41,0.16369
2447.55,0.16514
2443.7,0.16581
2439.84,0.16734
2435.98,0.16868
2432.12,0.16940
2428.27,0.17054
2424.41,0.17239
2420.55,0.17338
2416.69,0.17486
2412.84,0.17681
2408.98,0.17775
2405.12,0.17855
2401.26,0.18001
2397.41,0.18185
2393.55,0.18259
2389.69,0.18310
2385.83,0.18307
2381.98,0.18240
2378.12,0.18127
2374.26,0.18033
2370.4,0.18044
2366.55,0.18076
2362.69,0.17892
2358.83,0.17914
2354.97,0.18032
2351.12,0.17841
2347.26,0.17772
2343.4,0.17713
2339.54,0.17863
2335.69,0.17912
2331.83,0.18051
2327.97,0.18212
2324.12,0.18356
2320.26,0.18460
2316.4,0.18581
2312.54,0.18642
2308.69,0.18633
2304.83,0.18564
2300.97,0.18401
2297.11,0.18187
2293.26,0.17963
2289.4,0.17793
2285.54,0.17678
2281.68,0.17548
2277.83,0.17436
2273.97,0.17491
2270.11,0.17598
2266.25,0.17723
2262.4,0.17787
2258.54,0.17829
2254.68,0.17959
2250.82,0.18067
2246.97,0.18153
2243.11,0.18252
2239.25,0.18375
2235.39,0.18554
2231.54,0.18650
2227.68,0.18746
2223.82,0.18861
2219.96,0.18961
2216.11,0.19062
2212.25,0.19148
2208.39,0.19213
2204.53,0.19149
2200.68,0.19099
2196.82,0.19018
2192.96,0.18868
2189.1,0.18729
2185.25,0.18550
2181.39,0.18324
2177.53,0.18070
2173.67,0.17805
2169.82,0.17598
2165.96,0.17398
2162.1,0.17247
2158.24,0.17072
2154.39,0.16959
2150.53,0.16815
2146.67,0.16756
2142.81,0.16707
2138.96,0.16661
2135.1,0.16556
2131.24,0.16587
2127.38,0.16666
2123.53,0.16709
2119.67,0.16743
2115.81,0.16852
2111.96,0.16921
2108.1,0.16971
2104.24,0.17061
2100.38,0.17156
2096.53,0.17221
2092.67,0.17287
2088.81,0.17366
2084.95,0.17399
2081.1,0.17382
2077.24,0.17367
2073.38,0.17288
2069.52,0.17224
2065.67,0.17230
2061.81,0.17210
2057.95,0.17190
2054.09,0.17181
2050.24,0.17237
2046.38,0.17289
2042.52,0.17354
2038.66,0.17422
2034.81,0.17493
2030.95,0.17665
2027.09,0.17809
2023.23,0.17971
2019.38,0.18220
2015.52,0.18375
2011.66,0.18520
2007.8,0.18683
2003.95,0.18747
2000.09,0.18841
1996.23,0.18917
1992.37,0.19070
1988.52,0.19145
1984.66,0.19155
1980.8,0.19178
1976.94,0.19195
1973.09,0.19107
1969.23,0.19084
1965.37,0.19069
1961.51,0.18960
1957.66,0.18973
1953.8,0.18955
1949.94,0.18942
1946.08,0.19051
1942.23,0.19270
1938.37,0.19241
1934.51,0.19331
1930.65,0.19419
1926.8,0.19496
1922.94,0.19672
1919.08,0.19687
1915.23,0.19573
1911.37,0.19540
1907.51,0.19484
1903.65,0.19414
1899.8,0.19406
1895.94,0.19485
1892.08,0.19509
1888.22,0.19503
1884.37,0.19410
1880.51,0.19399
1876.65,0.19357
1872.79,0.19390
1868.94,0.19659
1865.08,0.19250
1861.22,0.19008
1857.36,0.18821
1853.51,0.18608
1849.65,0.18469
1845.79,0.18473
1841.93,0.18101
1838.08,0.17750
1834.22,0.17440
1830.36,0.17287
1826.5,0.16847
1822.65,0.16273
1818.79,0.15732
1814.93,0.15311
1811.07,0.14942
1807.22,0.14279
1803.36,0.13740
1799.5,0.13209
1795.64,0.12612
1791.79,0.12164
1787.93,0.11401
1784.07,0.10841
1780.21,0.10139
1776.36,0.09391
1772.5,0.08726
1768.64,0.07497
1764.78,0.06591
1760.93,0.05955
1757.07,0.05283
1753.21,0.04872
1749.35,0.04680
1745.5,0.04399
1741.64,0.04312
1737.78,0.04337
1733.92,0.04505
1730.07,0.04545
1726.21,0.04576
1722.35,0.04814
1718.5,0.05299
1714.64,0.05511
1710.78,0.05506
1706.92,0.05770
1703.07,0.06034
1699.21,0.06219
1695.35,0.06027
1691.49,0.05963
1687.64,0.06105
1683.78,0.06258
1679.92,0.05872
1676.06,0.05727
1672.21,0.05596
1668.35,0.05499
1664.49,0.05311
1660.63,0.05239
1656.78,0.05264
1652.92,0.05631
1649.06,0.05438
1645.2,0.05401
1641.35,0.05251
1637.49,0.05422
1633.63,0.05312
1629.77,0.05145
1625.92,0.05130
1622.06,0.04975
1618.2,0.04893
1614.34,0.04725
1610.49,0.04482
1606.63,0.04382
1602.77,0.04356
1598.91,0.04273
1595.06,0.04232
1591.2,0.04412
1587.34,0.04658
1583.48,0.05065
1579.63,0.05558
1575.77,0.06119
1571.91,0.06332
1568.05,0.06692
1564.2,0.06793
1560.34,0.07007
1556.48,0.06596
1552.62,0.06203
1548.77,0.06005
1544.91,0.05876
1541.05,0.06008
1537.19,0.05666
1533.34,0.05573
1529.48,0.05329
1525.62,0.05033
1521.76,0.04744
1517.91,0.04282
1514.05,0.04010
1510.19,0.04052
1506.34,0.04237
1502.48,0.04125
1498.62,0.04325
1494.76,0.04490
1490.91,0.04682
1487.05,0.04714
1483.19,0.04509
1479.33,0.04347
1475.48,0.04208
1471.62,0.03886
1467.76,0.03587
1463.9,0.03558
1460.05,0.03642
1456.19,0.03788
1452.33,0.03665
1448.47,0.03739
1444.62,0.03755
1440.76,0.03719
1436.9,0.03681
1433.04,0.03577
1429.19,0.03529
1425.33,0.03527
1421.47,0.03636
1417.61,0.03753
1413.76,0.03702
1409.9,0.03806
1406.04,0.03870
1402.18,0.03863
1398.33,0.03832
1394.47,0.03807
1390.61,0.03697
1386.75,0.03502
1382.9,0.03336
1379.04,0.03270
1375.18,0.03329
1371.32,0.03392
1367.47,0.03454
1363.61,0.03591
1359.75,0.03632
1355.89,0.03647
1352.04,0.03681
1348.18,0.03614
1344.32,0.03544
1340.46,0.03549
1336.61,0.03448
1332.75,0.03372
1328.89,0.03430
1325.03,0.03456
1321.18,0.03499
1317.32,0.03535
1313.46,0.03533
1309.61,0.03660
1305.75,0.03759
1301.89,0.03703
1298.03,0.03690
1294.18,0.03713
1290.32,0.03582
1286.46,0.03440
1282.6,0.03379
1278.75,0.03326
1274.89,0.03235
1271.03,0.03223
1267.17,0.03193
1263.32,0.03072
1259.46,0.03036
1255.6,0.03109
1251.74,0.03131
1247.89,0.03089
1244.03,0.03084
1240.17,0.03085
1236.31,0.03100
1232.46,0.03187
1228.6,0.03290
1224.74,0.03352
1220.88,0.03459
1217.03,0.03458
1213.17,0.03493
1209.31,0.03490
1205.45,0.03459
1201.6,0.03453
1197.74,0.03419
1193.88,0.03373
1190.02,0.03318
1186.17,0.03200
1182.31,0.03068
1178.45,0.02844
1174.59,0.02735
1170.74,0.02627
1166.88,0.02661
1163.02,0.02770
1159.16,0.02896
1155.31,0.02948
1151.45,0.02903
1147.59,0.02762
1143.73,0.02685
1139.88,0.02569
1136.02,0.02430
1132.16,0.02352
1128.3,0.02406
1124.45,0.02450
1120.59,0.02565
1116.73,0.02742
1112.88,0.02794
1109.02,0.02925
1105.16,0.02920
1101.3,0.03072
1097.45,0.03010
1093.59,0.02958
1089.73,0.02917
1085.87,0.02832
1082.02,0.02886
1078.16,0.02938
1074.3,0.03104
1070.44,0.03261
1066.59,0.03511
1062.73,0.03869
1058.87,0.04325
1055.01,0.04511
1051.16,0.04579
1047.3,0.04561
1043.44,0.04532
1039.58,0.04612
1035.73,0.04946
1031.87,0.05081
1028.01,0.05196
1024.15,0.05194
1020.3,0.05260
1016.44,0.05246
1012.58,0.05264
1008.72,0.05267
1004.87,0.05299
1001.01,0.05263
997.151,0.05295
993.294,0.05456
989.437,0.05504
985.579,0.05631
981.722,0.05930
977.864,0.06255
974.007,0.06292
970.149,0.06244
966.292,0.06534
962.434,0.06758
958.577,0.07064
954.719,0.07255
950.862,0.07356
947.005,0.07503
943.147,0.07601
939.29,0.07630
935.432,0.07543
931.575,0.07585
927.717,0.07465
923.86,0.07269
920.002,0.07139
916.145,0.07076
912.287,0.07005
908.43,0.06845
904.573,0.06693
900.715,0.06519
896.858,0.06481
893,0.06742
889.143,0.06983
885.285,0.06802
881.428,0.06682
877.57,0.06764
873.713,0.06847
869.856,0.06911
865.998,0.07100
862.141,0.07313
858.283,0.07209
854.426,0.07145
850.568,0.07124
846.711,0.07105
842.853,0.06897
838.996,0.06917
835.138,0.06687
831.281,0.06572
827.424,0.06489
823.566,0.06615
819.709,0.06529
815.851,0.06414
811.994,0.06453
808.136,0.06388
804.279,0.06391
800.421,0.06422
796.564,0.06553
792.706,0.06465
788.849,0.06304
784.992,0.06301
781.134,0.06243
777.277,0.06121
773.419,0.05976
769.562,0.05922
765.704,0.05746
761.847,0.05578
757.989,0.05355
754.132,0.05381
750.274,0.05359
746.417,0.05331
742.56,0.05216
738.702,0.05190
734.845,0.05032
730.987,0.04864
727.13,0.04554
723.272,0.04538
719.415,0.04518
715.557,0.04328
711.7,0.04233
707.843,0.04260
703.985,0.04260
700.128,0.04252
696.27,0.04296
692.413,0.04267
688.555,0.04232
684.698,0.04225
680.84,0.04025
676.983,0.03788
673.125,0.03730
669.268,0.03913
665.411,0.04015
661.553,0.04128
657.696,0.03860
653.838,0.03661
649.981,0.03600
646.123,0.03699
642.266,0.03777
638.408,0.03904
634.551,0.03723
630.693,0.03519
626.836,0.03755
622.979,0.03691
619.121,0.03553
615.264,0.03744
611.406,0.03820
607.549,0.03815
603.691,0.04039
599.834,0.03890
595.976,0.03930
592.119,0.04137
588.261,0.03886
584.404,0.03970
580.547,0.04343
576.689,0.04480
572.832,0.04180
568.974,0.04094
565.117,0.04154
561.259,0.04103
557.402,0.04050
553.544,0.04392
549.687,0.04362
545.83,0.04205
541.972,0.04137
538.115,0.03933
534.257,0.04346
530.4,0.04367
526.542,0.04379
522.685,0.04174
518.827,0.04051
514.97,0.03726
511.112,0.04048
507.255,0.04282
503.398,0.04284
499.54,0.04299
495.683,0.04076
491.825,0.04022
487.968,0.04064
484.11,0.04111
480.253,0.03938
476.395,0.04084
472.538,0.04763
468.68,0.04158
464.823,0.03465
460.966,0.03422
457.108,0.03653
453.251,0.04173
449.393,0.04769
445.536,0.04398
441.678,0.04068
437.821,0.03916
433.963,0.04378
430.106,0.04424
426.248,0.04129
422.391,0.03583
418.534,0.04122
414.676,0.03463
410.819,0.03538
406.961,0.04371
403.104,0.05955
399.246,0.04566