File: 01_Data/Lightweight_Gypsum_Wallboard_Gypsum_Core/MCC/Lightweight_Gypsum_Wallboard_Gypsum_Core_MCC_30K_min_211130_R3.txt
Sample ID:	C:\MCC\MCC Cal\Test\LW_GypBoard_Gypsum_Core_MCC_30K_min_211130_R3.txt
Sample Weight (mg):	4.91
Heating Rate (C/s):	0.5
Combustor Temp (C):	900
N2 Flow Rate (cc/min):	80
O2 Flow Rate (cc/min):	20
Calibration File:	C:\MCC\MCC Cal\Coeff1 JN10440_30_210304.txt.txt
T Correction Coefficients:	0	1.024463	0
Time Shift (s):	14
*
Time (s)	Temperature (C)	N2 flow rate (cc/min)	O2 flow rate (cc/min)	Flow Rate (cc/min)	Oxygen (%)	HRR (W/g)	Heating rate (C/s)
0.000	109.036	80.006	19.994	103.108	19.946	-0.083	-0.025
2.000	109.083	80.006	19.994	103.106	19.942	0.164	0.032
4.000	109.056	80.004	19.994	103.103	19.941	0.235	-0.027
6.000	109.016	80.007	19.995	103.105	19.943	0.079	-0.013
8.001	109.019	80.007	19.994	103.105	19.944	0.023	-0.022
10.001	109.015	80.006	19.995	103.103	19.941	0.261	-0.009
12.000	109.004	80.007	19.995	103.115	19.940	0.299	-0.006
14.000	109.004	80.007	19.995	103.117	19.939	0.372	-0.022
16.000	108.994	80.008	19.995	103.117	19.944	0.052	-0.022
18.000	109.000	80.008	19.994	103.134	19.942	0.194	0.009
20.000	109.038	80.007	19.994	103.145	19.940	0.302	0.027
22.001	109.057	80.008	19.995	103.168	19.938	0.466	0.016
24.000	109.108	80.008	19.995	103.185	19.928	1.118	0.033
26.001	109.163	80.008	19.995	103.221	19.929	1.059	0.049
28.000	109.273	80.007	19.993	103.251	19.921	1.552	0.076
30.000	109.377	80.007	19.995	103.269	19.918	1.752	0.086
32.000	109.526	80.007	19.994	103.284	19.915	1.971	0.036
34.000	109.741	80.008	19.996	103.287	19.914	2.013	0.103
36.000	109.943	80.007	19.996	103.285	19.910	2.299	0.106
38.000	110.191	80.006	19.995	103.287	19.913	2.080	0.134
40.000	110.450	80.007	19.995	103.290	19.911	2.224	0.133
42.000	110.692	80.008	19.994	103.288	19.912	2.138	0.127
44.001	111.026	80.008	19.994	103.288	19.909	2.347	0.144
46.000	111.324	80.009	19.995	103.291	19.910	2.250	0.149
48.000	111.692	80.009	19.994	103.306	19.911	2.239	0.182
50.001	112.103	80.009	19.993	103.322	19.909	2.349	0.214
52.000	112.493	80.009	19.993	103.316	19.910	2.273	0.187
54.001	112.916	80.007	19.994	103.321	19.904	2.677	0.221
56.000	113.368	80.007	19.995	103.331	19.907	2.470	0.227
58.001	113.829	80.007	19.994	103.333	19.904	2.668	0.237
60.000	114.333	80.007	19.994	103.332	19.903	2.742	0.281
62.000	114.835	80.007	19.995	103.338	19.904	2.677	0.256
64.000	115.339	80.006	19.994	103.342	19.900	2.960	0.254
66.001	115.896	80.006	19.995	103.349	19.901	2.861	0.265
68.001	116.440	80.007	19.993	103.352	19.899	2.991	0.285
70.001	117.065	80.006	19.995	103.358	19.899	3.011	0.316
72.001	117.638	80.006	19.994	103.354	19.898	3.085	0.307
74.000	118.285	80.006	19.994	103.345	19.895	3.268	0.349
76.001	118.926	80.006	19.994	103.352	19.896	3.221	0.339
78.000	119.550	80.009	19.993	103.354	19.893	3.413	0.351
80.000	120.235	80.008	19.995	103.357	19.894	3.310	0.337
82.001	120.952	80.007	19.994	103.363	19.893	3.369	0.379
84.000	121.661	80.006	19.994	103.363	19.895	3.238	0.364
86.000	122.368	80.009	19.994	103.359	19.894	3.308	0.352
88.001	123.128	80.007	19.994	103.367	19.896	3.191	0.398
90.000	123.895	80.008	19.994	103.371	19.896	3.171	0.392
92.001	124.616	80.005	19.993	103.370	19.897	3.151	0.350
94.000	125.414	80.007	19.994	103.370	19.899	3.022	0.383
96.001	126.241	80.005	19.995	103.380	19.899	3.007	0.394
98.001	127.041	80.008	19.994	103.369	19.899	3.032	0.424
100.001	127.863	80.008	19.995	103.360	19.898	3.034	0.407
102.000	128.727	80.009	19.995	103.368	19.899	3.005	0.419
104.001	129.577	80.010	19.995	103.367	19.902	2.787	0.423
106.000	130.428	80.007	19.996	103.369	19.900	2.915	0.424
108.001	131.287	80.008	19.996	103.366	19.901	2.894	0.412
110.001	132.163	80.008	19.995	103.368	19.897	3.108	0.475
112.001	133.024	80.008	19.994	103.369	19.896	3.168	0.419
114.001	133.966	80.006	19.994	103.369	19.898	3.036	0.447
116.001	134.850	80.007	19.994	103.371	19.899	3.022	0.434
118.000	135.738	80.008	19.995	103.372	19.895	3.234	0.446
120.000	136.652	80.009	19.994	103.375	19.897	3.103	0.456
122.000	137.604	80.009	19.995	103.372	19.897	3.135	0.485
124.000	138.507	80.007	19.994	103.371	19.897	3.106	0.437
126.001	139.475	80.007	19.993	103.371	19.895	3.240	0.477
128.000	140.422	80.010	19.994	103.371	19.900	2.928	0.463
130.000	141.359	80.008	19.995	103.371	19.894	3.330	0.471
132.000	142.368	80.007	19.994	103.370	19.894	3.322	0.508
134.000	143.312	80.008	19.995	103.378	19.902	2.802	0.464
136.000	144.288	80.008	19.994	103.370	19.898	3.070	0.481
138.000	145.276	80.006	19.993	103.371	19.896	3.196	0.521
140.000	146.196	80.007	19.994	103.371	19.895	3.258	0.478
142.000	147.222	80.006	19.995	103.370	19.896	3.198	0.504
144.000	148.205	80.007	19.994	103.369	19.898	3.038	0.508
146.000	149.212	80.008	19.994	103.368	19.899	2.996	0.496
148.000	150.209	80.007	19.995	103.367	19.898	3.079	0.452
150.000	151.193	80.007	19.995	103.369	19.896	3.180	0.484
152.000	152.217	80.007	19.993	103.367	19.901	2.880	0.495
154.001	153.200	80.005	19.993	103.360	19.903	2.734	0.467
156.000	154.157	80.007	19.994	103.358	19.899	3.012	0.486
158.000	155.193	80.007	19.994	103.360	19.901	2.893	0.503
160.000	156.201	80.008	19.994	103.366	19.898	3.078	0.509
162.000	157.204	80.007	19.993	103.355	19.899	3.015	0.497
164.000	158.229	80.007	19.993	103.336	19.902	2.788	0.484
166.000	159.254	80.007	19.993	103.352	19.903	2.704	0.526
168.000	160.229	80.007	19.995	103.343	19.905	2.589	0.494
170.000	161.253	80.007	19.995	103.339	19.899	3.031	0.474
172.000	162.243	80.007	19.994	103.346	19.904	2.698	0.521
174.000	163.240	80.006	19.994	103.336	19.905	2.576	0.492
176.000	164.270	80.007	19.994	103.338	19.903	2.733	0.542
178.000	165.265	80.009	19.993	103.347	19.906	2.522	0.497
180.000	166.323	80.008	19.994	103.339	19.901	2.894	0.504
182.000	167.324	80.009	19.994	103.337	19.902	2.788	0.513
184.000	168.324	80.009	19.994	103.341	19.903	2.721	0.498
186.000	169.331	80.010	19.993	103.341	19.905	2.579	0.508
188.000	170.334	80.008	19.993	103.338	19.904	2.676	0.504
190.000	171.327	80.009	19.995	103.334	19.905	2.583	0.500
192.000	172.392	80.009	19.994	103.335	19.903	2.749	0.533
194.000	173.380	80.008	19.994	103.333	19.903	2.714	0.497
196.000	174.359	80.008	19.995	103.331	19.907	2.442	0.536
198.000	175.383	80.006	19.995	103.327	19.904	2.642	0.493
200.000	176.390	80.007	19.995	103.329	19.908	2.384	0.494
202.001	177.378	80.007	19.994	103.334	19.905	2.588	0.527
204.000	178.372	80.009	19.994	103.332	19.908	2.395	0.485
206.000	179.418	80.008	19.994	103.330	19.908	2.429	0.508
208.000	180.376	80.010	19.995	103.328	19.907	2.480	0.458
210.000	181.423	80.010	19.994	103.326	19.910	2.302	0.508
212.000	182.427	80.009	19.994	103.323	19.911	2.242	0.515
214.000	183.397	80.010	19.995	103.325	19.912	2.167	0.456
216.000	184.379	80.010	19.995	103.321	19.907	2.444	0.496
218.000	185.395	80.009	19.996	103.327	19.907	2.467	0.488
220.000	186.411	80.006	19.995	103.327	19.912	2.157	0.496
222.000	187.483	80.007	19.996	103.327	19.910	2.282	0.548
224.000	188.431	80.008	19.994	103.325	19.910	2.274	0.496
226.000	189.440	80.006	19.996	103.326	19.910	2.293	0.487
228.000	190.454	80.008	19.996	103.324	19.909	2.323	0.499
230.000	191.396	80.006	19.995	103.312	19.910	2.301	0.450
232.000	192.399	80.006	19.996	103.307	19.909	2.316	0.506
234.000	193.438	80.008	19.995	103.308	19.907	2.455	0.504
236.000	194.420	80.007	19.996	103.314	19.911	2.222	0.503
238.000	195.406	80.006	19.994	103.320	19.912	2.156	0.468
240.000	196.385	80.008	19.996	103.309	19.910	2.285	0.497
242.001	197.368	80.008	19.994	103.304	19.914	1.986	0.496
244.001	198.362	80.008	19.994	103.311	19.914	2.026	0.502
246.000	199.375	80.007	19.993	103.314	19.912	2.156	0.490
248.000	200.373	80.008	19.995	103.312	19.914	2.042	0.530
250.000	201.366	80.007	19.994	103.315	19.913	2.073	0.507
252.000	202.369	80.008	19.994	103.302	19.916	1.896	0.503
254.000	203.359	80.007	19.995	103.317	19.915	1.955	0.490
256.000	204.341	80.007	19.995	103.322	19.914	2.021	0.482
258.000	205.313	80.008	19.995	103.310	19.914	2.004	0.502
260.000	206.316	80.007	19.995	103.313	19.916	1.891	0.497
262.000	207.374	80.008	19.994	103.316	19.914	2.036	0.493
264.000	208.327	80.008	19.994	103.299	19.916	1.851	0.498
266.000	209.333	80.007	19.994	103.310	19.913	2.049	0.512
268.000	210.309	80.010	19.994	103.319	19.913	2.108	0.514
270.001	211.358	80.010	19.993	103.311	19.916	1.901	0.485
272.000	212.271	80.008	19.994	103.310	19.913	2.058	0.463
274.000	213.297	80.008	19.995	103.297	19.911	2.209	0.500
276.000	214.321	80.009	19.993	103.297	19.916	1.858	0.500
278.000	215.278	80.008	19.993	103.294	19.917	1.810	0.480
280.000	216.265	80.008	19.995	103.292	19.912	2.114	0.481
282.000	217.268	80.009	19.995	103.303	19.917	1.797	0.500
284.000	218.250	80.010	19.995	103.304	19.915	1.943	0.497
286.000	219.236	80.010	19.995	103.299	19.918	1.723	0.507
288.001	220.197	80.009	19.994	103.303	19.915	1.923	0.486
290.000	221.234	80.009	19.994	103.307	19.918	1.723	0.523
292.000	222.220	80.008	19.994	103.300	19.919	1.678	0.484
294.000	223.232	80.010	19.995	103.297	19.918	1.723	0.509
296.000	224.194	80.009	19.996	103.292	19.922	1.471	0.474
298.000	225.172	80.010	19.995	103.311	19.918	1.750	0.489
300.000	226.220	80.009	19.995	103.294	19.917	1.833	0.513
302.000	227.175	80.007	19.995	103.298	19.918	1.719	0.491
304.000	228.160	80.008	19.996	103.301	19.921	1.572	0.484
306.000	229.232	80.008	19.995	103.298	19.916	1.874	0.514
308.000	230.210	80.007	19.995	103.299	19.918	1.781	0.484
310.000	231.243	80.006	19.995	103.298	19.918	1.773	0.517
312.000	232.220	80.007	19.995	103.296	19.919	1.716	0.492
314.000	233.230	80.008	19.996	103.297	19.916	1.910	0.526
316.000	234.196	80.005	19.996	103.298	19.917	1.802	0.492
318.000	235.236	80.007	19.995	103.295	19.917	1.795	0.491
320.000	236.216	80.007	19.995	103.293	19.920	1.646	0.508
322.000	237.232	80.007	19.996	103.297	19.921	1.559	0.536
324.000	238.170	80.008	19.995	103.295	19.926	1.208	0.474
326.000	239.214	80.007	19.995	103.295	19.919	1.709	0.495
328.000	240.138	80.007	19.995	103.296	19.920	1.640	0.493
330.000	241.145	80.006	19.995	103.294	19.920	1.633	0.478
332.000	242.182	80.006	19.994	103.294	19.921	1.566	0.505
334.000	243.204	80.007	19.995	103.296	19.921	1.545	0.492
336.000	244.154	80.008	19.993	103.295	19.917	1.813	0.484
338.000	245.170	80.006	19.995	103.292	19.919	1.669	0.499
340.000	246.156	80.008	19.994	103.292	19.922	1.480	0.495
342.000	247.191	80.008	19.994	103.293	19.921	1.581	0.475
344.000	248.155	80.007	19.994	103.293	19.920	1.593	0.465
346.000	249.224	80.008	19.994	103.289	19.922	1.516	0.524
348.001	250.207	80.010	19.995	103.288	19.920	1.611	0.499
350.000	251.206	80.009	19.994	103.289	19.918	1.728	0.478
352.000	252.203	80.010	19.994	103.285	19.919	1.671	0.499
354.000	253.245	80.009	19.994	103.289	19.919	1.678	0.527
356.000	254.216	80.010	19.995	103.290	19.917	1.797	0.485
358.000	255.207	80.009	19.995	103.288	19.921	1.577	0.470
360.000	256.231	80.009	19.994	103.284	19.917	1.791	0.498
362.000	257.230	80.009	19.995	103.288	19.920	1.624	0.507
364.000	258.229	80.008	19.995	103.285	19.920	1.611	0.533
366.000	259.241	80.009	19.994	103.287	19.921	1.584	0.497
368.000	260.260	80.009	19.994	103.282	19.922	1.457	0.496
370.000	261.247	80.010	19.994	103.287	19.921	1.573	0.505
372.000	262.217	80.011	19.993	103.285	19.925	1.312	0.493
374.001	263.225	80.012	19.994	103.281	19.919	1.654	0.499
376.000	264.258	80.010	19.994	103.279	19.919	1.669	0.494
378.000	265.287	80.009	19.995	103.288	19.922	1.505	0.505
380.000	266.292	80.009	19.994	103.291	19.923	1.440	0.477
382.000	267.272	80.009	19.995	103.278	19.923	1.451	0.465
384.000	268.251	80.005	19.995	103.284	19.925	1.302	0.475
386.000	269.243	80.007	19.996	103.272	19.926	1.246	0.467
388.000	270.319	80.008	19.995	103.282	19.919	1.701	0.538
390.000	271.315	80.007	19.996	103.282	19.925	1.296	0.519
392.000	272.392	80.007	19.995	103.281	19.922	1.512	0.501
394.000	273.381	80.007	19.994	103.279	19.921	1.525	0.494
396.000	274.383	80.007	19.994	103.281	19.924	1.348	0.482
398.000	275.401	80.008	19.995	103.268	19.924	1.377	0.494
400.000	276.354	80.008	19.995	103.279	19.925	1.323	0.492
402.000	277.340	80.007	19.994	103.281	19.920	1.597	0.479
404.000	278.361	80.007	19.995	103.287	19.924	1.332	0.501
406.001	279.356	80.007	19.995	103.276	19.923	1.453	0.510
408.000	280.348	80.008	19.994	103.270	19.922	1.500	0.511
410.001	281.361	80.006	19.995	103.263	19.928	1.085	0.515
412.000	282.392	80.007	19.995	103.271	19.924	1.345	0.498
414.000	283.352	80.009	19.996	103.286	19.925	1.269	0.496
416.000	284.401	80.006	19.996	103.286	19.922	1.496	0.524
418.000	285.381	80.008	19.996	103.273	19.924	1.330	0.490
420.000	286.366	80.007	19.995	103.274	19.927	1.192	0.486
422.000	287.419	80.006	19.996	103.272	19.927	1.145	0.518
424.000	288.404	80.008	19.995	103.267	19.927	1.188	0.485
426.000	289.404	80.010	19.994	103.271	19.926	1.247	0.491
428.000	290.413	80.008	19.994	103.279	19.930	0.988	0.494
430.000	291.442	80.008	19.994	103.276	19.926	1.247	0.514
432.000	292.423	80.009	19.993	103.258	19.925	1.303	0.498
434.000	293.418	80.009	19.994	103.265	19.928	1.087	0.506
436.000	294.436	80.007	19.994	103.270	19.927	1.154	0.510
438.000	295.440	80.009	19.994	103.283	19.928	1.103	0.488
440.000	296.478	80.008	19.994	103.274	19.928	1.100	0.511
442.000	297.499	80.008	19.994	103.279	19.931	0.918	0.509
444.000	298.491	80.009	19.994	103.273	19.931	0.911	0.492
446.001	299.467	80.007	19.994	103.271	19.930	0.945	0.480
448.000	300.502	80.009	19.994	103.273	19.927	1.145	0.523
450.000	301.502	80.008	19.994	103.263	19.936	0.590	0.484
452.000	302.525	80.008	19.994	103.265	19.931	0.924	0.517
454.000	303.529	80.009	19.995	103.273	19.934	0.670	0.493
456.000	304.497	80.010	19.994	103.276	19.931	0.871	0.453
458.000	305.534	80.009	19.994	103.266	19.937	0.502	0.492
460.000	306.530	80.008	19.993	103.284	19.930	0.932	0.491
462.000	307.562	80.010	19.993	103.282	19.936	0.585	0.508
464.000	308.566	80.011	19.994	103.279	19.936	0.574	0.506
466.000	309.555	80.008	19.994	103.267	19.930	0.945	0.458
468.000	310.584	80.007	19.994	103.268	19.933	0.760	0.520
470.000	311.572	80.008	19.995	103.268	19.934	0.675	0.487
472.000	312.611	80.009	19.995	103.267	19.930	0.977	0.546
474.000	313.628	80.008	19.993	103.271	19.933	0.740	0.484
476.000	314.638	80.008	19.996	103.281	19.935	0.644	0.493
478.000	315.687	80.008	19.994	103.275	19.934	0.697	0.530
480.000	316.635	80.008	19.995	103.275	19.930	0.931	0.484
482.000	317.718	80.007	19.995	103.263	19.932	0.826	0.502
484.000	318.632	80.008	19.994	103.278	19.935	0.632	0.489
486.000	319.637	80.008	19.994	103.272	19.927	1.137	0.520
488.000	320.637	80.007	19.995	103.262	19.930	0.977	0.526
490.000	321.732	80.008	19.995	103.275	19.929	1.060	0.580
492.000	322.515	80.007	19.994	103.267	19.936	0.598	0.419
494.000	323.666	80.008	19.994	103.260	19.935	0.657	0.548
496.000	324.517	80.007	19.994	103.257	19.934	0.682	0.467
498.000	325.652	80.007	19.996	103.255	19.935	0.653	0.416
500.000	326.560	80.008	19.995	103.253	19.934	0.704	0.482
502.001	327.734	80.007	19.994	103.256	19.930	0.974	0.291
504.000	328.816	80.008	19.994	103.260	19.930	0.954	0.526
506.000	329.876	80.008	19.995	103.256	19.934	0.704	0.569
508.000	330.800	80.006	19.994	103.258	19.935	0.637	0.500
510.000	331.867	80.007	19.997	103.257	19.930	0.936	0.465
512.000	332.857	80.008	19.995	103.256	19.935	0.635	0.531
514.000	333.861	80.008	19.996	103.259	19.934	0.679	0.515
516.000	334.892	80.007	19.995	103.263	19.935	0.610	0.527
518.000	335.895	80.007	19.995	103.254	19.936	0.594	0.510
520.000	336.895	80.008	19.995	103.255	19.931	0.873	0.508
522.000	337.943	80.009	19.994	103.260	19.937	0.491	0.530
524.000	338.938	80.007	19.993	103.261	19.935	0.648	0.480
526.000	339.937	80.009	19.994	103.257	19.939	0.401	0.506
528.000	340.997	80.008	19.993	103.257	19.931	0.882	0.555
530.000	342.010	80.009	19.995	103.257	19.938	0.432	0.550
532.000	342.984	80.009	19.994	103.258	19.937	0.495	0.506
534.000	343.993	80.010	19.994	103.256	19.937	0.509	0.525
536.000	345.012	80.010	19.993	103.254	19.931	0.909	0.530
538.000	345.988	80.009	19.993	103.252	19.934	0.732	0.511
540.000	347.006	80.008	19.995	103.253	19.933	0.765	0.512
542.000	348.029	80.009	19.993	103.257	19.936	0.599	0.491
544.000	349.067	80.008	19.993	103.251	19.937	0.531	0.540
546.000	350.038	80.009	19.994	103.252	19.935	0.619	0.518
548.000	351.039	80.008	19.995	103.252	19.937	0.479	0.483
550.000	352.053	80.007	19.993	103.252	19.929	1.022	0.502
552.000	353.079	80.008	19.995	103.253	19.937	0.515	0.508
554.000	354.103	80.007	19.995	103.253	19.935	0.603	0.502
556.000	355.146	80.008	19.994	103.254	19.938	0.436	0.513
558.000	356.134	80.006	19.994	103.252	19.936	0.598	0.531
560.000	357.127	80.007	19.993	103.252	19.938	0.448	0.491
562.000	358.159	80.008	19.994	103.251	19.937	0.473	0.505
564.000	359.166	80.008	19.993	103.252	19.929	1.046	0.494
566.000	360.191	80.008	19.993	103.252	19.935	0.605	0.537
568.000	361.173	80.008	19.993	103.254	19.935	0.630	0.502
570.000	362.187	80.007	19.994	103.254	19.940	0.333	0.481
572.000	363.222	80.007	19.994	103.254	19.940	0.299	0.540
574.000	364.213	80.007	19.994	103.254	19.938	0.416	0.511
576.000	365.228	80.006	19.994	103.255	19.937	0.493	0.497
578.000	366.266	80.007	19.994	103.247	19.939	0.365	0.498
580.000	367.270	80.007	19.995	103.240	19.937	0.477	0.526
582.000	368.257	80.006	19.994	103.255	19.943	0.083	0.492
584.000	369.274	80.007	19.995	103.251	19.941	0.236	0.509
586.000	370.294	80.006	19.995	103.255	19.943	0.086	0.515
588.000	371.315	80.006	19.994	103.256	19.938	0.459	0.488
590.000	372.326	80.007	19.994	103.253	19.938	0.421	0.534
592.000	373.350	80.008	19.994	103.254	19.943	0.135	0.523
594.001	374.344	80.008	19.994	103.256	19.939	0.364	0.490
596.000	375.361	80.010	19.995	103.257	19.940	0.333	0.508
598.000	376.396	80.009	19.995	103.254	19.939	0.356	0.520
600.000	377.379	80.010	19.996	103.250	19.940	0.317	0.504
602.000	378.399	80.008	19.994	103.252	19.945	-0.011	0.486
604.000	379.387	80.007	19.995	103.248	19.939	0.376	0.496
606.000	380.432	80.008	19.996	103.246	19.939	0.382	0.495
608.000	381.434	80.008	19.996	103.247	19.943	0.128	0.512
610.000	382.435	80.007	19.994	103.246	19.939	0.403	0.523
612.000	383.451	80.009	19.995	103.247	19.941	0.221	0.522
614.000	384.500	80.007	19.994	103.251	19.948	-0.189	0.553
616.000	385.498	80.008	19.995	103.242	19.943	0.139	0.517
618.000	386.440	80.010	19.994	103.247	19.942	0.169	0.480
620.001	387.459	80.010	19.993	103.239	19.941	0.223	0.509
622.000	388.501	80.009	19.994	103.246	19.941	0.212	0.500
624.000	389.498	80.009	19.992	103.249	19.937	0.499	0.500
626.000	390.505	80.008	19.993	103.247	19.945	0.002	0.518
628.000	391.568	80.010	19.994	103.248	19.943	0.115	0.554
630.000	392.566	80.008	19.995	103.250	19.938	0.426	0.522
632.000	393.606	80.006	19.993	103.249	19.940	0.288	0.514
634.000	394.620	80.008	19.994	103.242	19.942	0.151	0.511
636.000	395.640	80.007	19.994	103.252	19.943	0.077	0.532
638.000	396.636	80.007	19.993	103.244	19.943	0.124	0.487
640.001	397.675	80.007	19.995	103.242	19.940	0.283	0.506
642.000	398.690	80.008	19.994	103.233	19.942	0.167	0.520
644.000	399.736	80.007	19.994	103.242	19.944	0.038	0.516
646.000	400.714	80.007	19.995	103.244	19.943	0.135	0.516
648.000	401.717	80.009	19.995	103.234	19.945	-0.038	0.522
650.000	402.753	80.007	19.994	103.239	19.941	0.270	0.515
652.000	403.753	80.008	19.993	103.241	19.948	-0.218	0.502
654.000	404.762	80.007	19.992	103.246	19.947	-0.176	0.496
656.000	405.771	80.008	19.993	103.250	19.947	-0.140	0.508
658.000	406.805	80.007	19.993	103.243	19.949	-0.272	0.510
660.000	407.796	80.007	19.994	103.248	19.952	-0.488	0.537
662.000	408.821	80.007	19.993	103.245	19.943	0.133	0.502
664.000	409.844	80.007	19.994	103.251	19.946	-0.108	0.494
666.000	410.872	80.006	19.995	103.237	19.945	-0.022	0.518
668.000	411.929	80.006	19.995	103.244	19.946	-0.067	0.514
670.000	412.916	80.006	19.995	103.243	19.944	0.050	0.486
672.000	413.910	80.008	19.995	103.231	19.951	-0.437	0.520
674.000	414.880	80.008	19.996	103.227	19.950	-0.347	0.477
676.000	415.866	80.009	19.995	103.241	19.955	-0.700	0.464
678.000	416.873	80.009	19.995	103.242	19.953	-0.549	0.526
680.000	417.900	80.009	19.995	103.237	19.947	-0.162	0.505
682.001	418.904	80.009	19.994	103.234	19.948	-0.193	0.481
684.000	419.917	80.009	19.994	103.238	19.949	-0.256	0.513
686.000	420.936	80.009	19.995	103.228	19.952	-0.453	0.513
688.000	421.976	80.008	19.995	103.235	19.947	-0.184	0.516
690.000	422.958	80.007	19.996	103.235	19.953	-0.554	0.516
692.000	423.931	80.008	19.996	103.233	19.946	-0.099	0.474
694.000	424.989	80.009	19.994	103.229	19.952	-0.502	0.507
696.000	425.989	80.009	19.995	103.235	19.955	-0.659	0.520
698.000	427.010	80.006	19.995	103.229	19.953	-0.536	0.508
700.000	428.001	80.010	19.997	103.237	19.950	-0.331	0.504
702.000	429.041	80.008	19.996	103.238	19.944	0.016	0.481
704.000	430.085	80.009	19.995	103.233	19.944	0.049	0.491
706.000	431.122	80.008	19.994	103.233	19.949	-0.295	0.524
708.000	432.115	80.009	19.995	103.231	19.951	-0.432	0.491
710.000	433.166	80.008	19.995	103.232	19.953	-0.538	0.524
712.000	434.169	80.008	19.994	103.230	19.948	-0.238	0.525
714.000	435.210	80.008	19.994	103.236	19.954	-0.605	0.508
716.000	436.196	80.005	19.994	103.236	19.954	-0.612	0.526
718.000	437.251	80.007	19.994	103.240	19.954	-0.632	0.533
720.000	438.231	80.006	19.994	103.229	19.956	-0.727	0.506
722.000	439.264	80.006	19.993	103.233	19.952	-0.450	0.497
724.000	440.271	80.006	19.994	103.239	19.951	-0.399	0.511
726.001	441.285	80.006	19.994	103.239	19.949	-0.290	0.494
728.001	442.282	80.007	19.994	103.229	19.955	-0.700	0.533
730.000	443.270	80.007	19.995	103.231	19.951	-0.398	0.522
732.000	444.287	80.008	19.995	103.224	19.956	-0.768	0.519
734.000	445.313	80.007	19.994	103.224	19.958	-0.842	0.488
736.000	446.292	80.007	19.994	103.229	19.949	-0.293	0.507
738.000	447.337	80.006	19.994	103.229	19.956	-0.741	0.552
740.001	448.283	80.008	19.994	103.220	19.955	-0.650	0.495
742.000	449.339	80.006	19.994	103.226	19.958	-0.878	0.505
744.000	450.337	80.006	19.994	103.224	19.953	-0.556	0.496
746.000	451.333	80.007	19.994	103.221	19.955	-0.664	0.488
748.000	452.321	80.006	19.995	103.232	19.958	-0.848	0.514
750.000	453.318	80.007	19.995	103.235	19.953	-0.569	0.478
752.000	454.345	80.007	19.995	103.227	19.957	-0.801	0.496
754.000	455.380	80.009	19.994	103.245	19.955	-0.680	0.522
756.000	456.367	80.009	19.995	103.229	19.961	-1.060	0.510
758.000	457.387	80.008	19.995	103.234	19.958	-0.905	0.515
760.000	458.354	80.010	19.995	103.228	19.958	-0.876	0.508
762.000	459.379	80.008	19.995	103.224	19.958	-0.876	0.534
764.000	460.388	80.008	19.995	103.219	19.961	-1.087	0.481
766.000	461.429	80.008	19.994	103.228	19.961	-1.087	0.501
768.000	462.419	80.009	19.995	103.221	19.958	-0.873	0.486
770.000	463.460	80.007	19.995	103.219	19.959	-0.950	0.498
772.000	464.439	80.008	19.994	103.233	19.958	-0.907	0.497
774.001	465.465	80.008	19.995	103.236	19.958	-0.871	0.508
776.000	466.473	80.008	19.995	103.223	19.955	-0.682	0.525
778.001	467.480	80.009	19.995	103.241	19.955	-0.646	0.520
780.000	468.470	80.010	19.994	103.229	19.959	-0.966	0.524
782.000	469.526	80.010	19.994	103.217	19.958	-0.887	0.525
784.000	470.538	80.011	19.994	103.222	19.957	-0.817	0.505
786.000	471.526	80.010	19.994	103.233	19.961	-1.056	0.501
788.000	472.545	80.010	19.995	103.242	19.961	-1.042	0.507
790.000	473.581	80.008	19.994	103.227	19.958	-0.898	0.496
792.000	474.624	80.007	19.994	103.223	19.958	-0.848	0.517
794.000	475.631	80.007	19.996	103.224	19.958	-0.883	0.474
796.000	476.619	80.007	19.995	103.218	19.962	-1.135	0.476
798.000	477.624	80.007	19.995	103.235	19.956	-0.775	0.485
800.000	478.670	80.006	19.996	103.225	19.958	-0.891	0.485
802.000	479.655	80.007	19.995	103.236	19.961	-1.085	0.464
804.000	480.710	80.008	19.994	103.235	19.960	-0.989	0.530
806.000	481.734	80.007	19.994	103.214	19.959	-0.923	0.520
808.000	482.731	80.007	19.994	103.221	19.959	-0.932	0.523
810.000	483.692	80.008	19.994	103.218	19.958	-0.858	0.486
812.000	484.661	80.008	19.994	103.215	19.960	-1.025	0.491
814.000	485.631	80.008	19.995	103.213	19.964	-1.297	0.475
816.000	486.617	80.009	19.994	103.216	19.961	-1.083	0.469
818.000	487.570	80.007	19.996	103.216	19.963	-1.202	0.466
820.000	488.538	80.007	19.994	103.216	19.958	-0.855	0.495
822.000	489.416	80.008	19.994	103.218	19.966	-1.423	0.463
824.000	490.440	80.007	19.995	103.213	19.959	-0.937	0.479
826.000	491.378	80.006	19.995	103.215	19.963	-1.225	0.453
828.000	492.290	80.006	19.995	103.218	19.965	-1.324	0.458
830.000	493.249	80.008	19.994	103.228	19.959	-0.955	0.464
832.000	494.232	80.008	19.996	103.236	19.962	-1.135	0.496
834.000	495.209	80.008	19.994	103.226	19.963	-1.184	0.480
836.000	496.216	80.009	19.994	103.226	19.962	-1.117	0.503
838.000	497.205	80.009	19.995	103.225	19.961	-1.101	0.482
840.001	498.229	80.009	19.995	103.225	19.964	-1.256	0.528
842.001	499.228	80.011	19.993	103.233	19.966	-1.416	0.492
844.001	500.218	80.010	19.995	103.242	19.958	-0.846	0.492
846.000	501.248	80.008	19.995	103.242	19.963	-1.218	0.508
848.000	502.313	80.008	19.993	103.225	19.955	-0.707	0.529
850.000	503.360	80.009	19.995	103.229	19.958	-0.901	0.506
852.000	504.367	80.007	19.994	103.226	19.961	-1.099	0.523
854.000	505.389	80.009	19.993	103.236	19.961	-1.071	0.498
856.000	506.483	80.007	19.995	103.232	19.965	-1.304	0.538
858.000	507.470	80.007	19.994	103.230	19.963	-1.188	0.505
860.000	508.560	80.009	19.996	103.219	19.961	-1.083	0.542
862.000	509.628	80.008	19.995	103.224	19.965	-1.308	0.522
864.000	510.664	80.010	19.995	103.212	19.964	-1.258	0.492
866.000	511.778	80.011	19.995	103.224	19.959	-0.952	0.549
868.000	512.843	80.010	19.995	103.225	19.962	-1.143	0.528
870.000	513.876	80.009	19.995	103.227	19.962	-1.161	0.524
872.000	514.946	80.009	19.994	103.223	19.962	-1.157	0.525
874.000	515.991	80.007	19.995	103.221	19.965	-1.308	0.492
876.000	517.081	80.008	19.995	103.219	19.964	-1.238	0.560
878.000	518.133	80.007	19.995	103.225	19.960	-0.999	0.532
880.001	519.163	80.007	19.995	103.226	19.963	-1.213	0.520
882.000	520.285	80.007	19.995	103.224	19.963	-1.184	0.548
884.000	521.352	80.006	19.995	103.215	19.963	-1.173	0.541
886.000	522.412	80.006	19.996	103.215	19.963	-1.209	0.521
888.000	523.448	80.007	19.996	103.218	19.962	-1.168	0.552
890.000	524.498	80.007	19.996	103.222	19.964	-1.263	0.513
892.000	525.559	80.007	19.996	103.214	19.963	-1.218	0.536
894.001	526.575	80.007	19.995	103.214	19.962	-1.107	0.535
896.000	527.656	80.008	19.996	103.225	19.966	-1.429	0.549
898.000	528.680	80.007	19.995	103.219	19.965	-1.339	0.509
900.000	529.726	80.008	19.994	103.231	19.969	-1.605	0.543
902.001	530.734	80.007	19.995	103.224	19.965	-1.312	0.533
904.000	531.799	80.007	19.994	103.229	19.963	-1.189	0.514
906.000	532.822	80.006	19.994	103.224	19.966	-1.400	0.521
908.000	533.847	80.006	19.995	103.222	19.964	-1.252	0.540
910.000	534.938	80.007	19.994	103.220	19.965	-1.303	0.534
912.000	535.975	80.006	19.994	103.217	19.963	-1.204	0.526
914.000	537.005	80.006	19.994	103.225	19.962	-1.128	0.528
916.000	538.010	80.006	19.994	103.224	19.964	-1.279	0.508
918.000	539.066	80.006	19.994	103.220	19.967	-1.475	0.519
920.000	540.122	80.008	19.994	103.226	19.965	-1.317	0.513
922.001	541.089	80.008	19.994	103.219	19.966	-1.405	0.482
924.000	542.144	80.010	19.994	103.218	19.963	-1.234	0.539
926.000	543.185	80.008	19.994	103.216	19.963	-1.229	0.546
928.000	544.226	80.008	19.994	103.214	19.965	-1.331	0.520
930.000	545.231	80.008	19.994	103.218	19.965	-1.315	0.518
932.000	546.260	80.008	19.993	103.216	19.967	-1.477	0.534
934.000	547.265	80.009	19.994	103.219	19.965	-1.301	0.524
936.000	548.294	80.009	19.994	103.238	19.968	-1.509	0.489
938.000	549.296	80.009	19.994	103.222	19.965	-1.355	0.509
940.000	550.342	80.008	19.994	103.228	19.966	-1.387	0.516
942.000	551.380	80.008	19.995	103.222	19.970	-1.646	0.538
944.000	552.389	80.010	19.994	103.215	19.965	-1.340	0.515
946.000	553.397	80.009	19.994	103.221	19.965	-1.326	0.491
948.000	554.469	80.012	19.995	103.213	19.965	-1.319	0.518
950.000	555.477	80.011	19.994	103.216	19.966	-1.376	0.534
952.000	556.492	80.009	19.994	103.211	19.965	-1.362	0.508
954.000	557.526	80.009	19.995	103.211	19.963	-1.193	0.534
956.001	558.575	80.008	19.995	103.224	19.964	-1.263	0.540
958.000	559.554	80.008	19.995	103.232	19.969	-1.590	0.501
960.000	560.605	80.007	19.995	103.217	19.966	-1.385	0.521
962.000	561.618	80.007	19.996	103.219	19.970	-1.693	0.538
964.000	562.626	80.007	19.996	103.219	19.969	-1.614	0.498
966.000	563.627	80.008	19.996	103.218	19.968	-1.545	0.503
968.000	564.654	80.007	19.995	103.217	19.968	-1.544	0.504
970.000	565.649	80.008	19.995	103.217	19.971	-1.695	0.509
972.000	566.664	80.008	19.994	103.217	19.968	-1.517	0.484
974.000	567.683	80.007	19.995	103.217	19.970	-1.635	0.490
976.000	568.700	80.006	19.995	103.218	19.968	-1.531	0.511
978.000	569.712	80.008	19.996	103.220	19.971	-1.731	0.490
980.000	570.766	80.006	19.995	103.217	19.966	-1.410	0.522
982.000	571.760	80.006	19.995	103.218	19.968	-1.520	0.491
984.000	572.783	80.006	19.996	103.217	19.967	-1.473	0.522
986.000	573.791	80.006	19.996	103.218	19.972	-1.806	0.521
988.000	574.874	80.006	19.995	103.217	19.969	-1.619	0.534
990.000	575.908	80.005	19.995	103.216	19.967	-1.464	0.515
992.000	576.930	80.005	19.996	103.215	19.972	-1.810	0.508
994.000	577.921	80.009	19.995	103.218	19.971	-1.747	0.503
996.000	578.946	80.007	19.994	103.212	19.971	-1.745	0.527
998.000	579.979	80.008	19.995	103.214	19.973	-1.851	0.508
1000.000	580.960	80.009	19.994	103.213	19.972	-1.770	0.512
1002.000	581.981	80.009	19.995	103.216	19.973	-1.862	0.535
1004.000	583.023	80.010	19.995	103.213	19.974	-1.925	0.497
1006.000	584.004	80.008	19.994	103.211	19.972	-1.803	0.513
1008.000	584.977	80.009	19.994	103.213	19.974	-1.914	0.499
1010.000	586.014	80.009	19.995	103.216	19.972	-1.792	0.497
1012.000	587.062	80.007	19.995	103.215	19.977	-2.101	0.526
1014.000	588.032	80.009	19.996	103.218	19.970	-1.650	0.503
1016.000	589.061	80.009	19.995	103.215	19.975	-1.961	0.505
1018.001	590.041	80.009	19.995	103.216	19.973	-1.830	0.527
1020.000	591.029	80.009	19.995	103.213	19.973	-1.851	0.484
1022.000	592.049	80.010	19.994	103.219	19.977	-2.089	0.484
1024.000	593.041	80.010	19.994	103.216	19.975	-2.010	0.529
1026.001	594.074	80.011	19.994	103.219	19.974	-1.912	0.506
1028.000	595.065	80.011	19.995	103.216	19.970	-1.689	0.521
1030.000	596.111	80.008	19.994	103.223	19.977	-2.127	0.528
1032.001	597.099	80.010	19.994	103.220	19.975	-1.992	0.519
1034.001	598.095	80.009	19.995	103.219	19.973	-1.830	0.506
1036.001	599.128	80.010	19.994	103.215	19.973	-1.853	0.542
1038.000	600.121	80.008	19.994	103.218	19.975	-1.974	0.512
1040.000	601.131	80.007	19.994	103.216	19.976	-2.026	0.493
1042.000	602.125	80.008	19.995	103.217	19.976	-2.076	0.513
1044.000	603.147	80.008	19.995	103.216	19.973	-1.878	0.514
1046.000	604.154	80.006	19.995	103.222	19.973	-1.869	0.516
1048.000	605.139	80.006	19.995	103.218	19.974	-1.894	0.524
1050.000	606.160	80.007	19.995	103.219	19.973	-1.875	0.503
1052.000	607.179	80.006	19.995	103.219	19.978	-2.170	0.480
1054.000	608.187	80.007	19.995	103.217	19.978	-2.166	0.515
1056.001	609.184	80.008	19.996	103.216	19.976	-2.062	0.488
1058.000	610.180	80.007	19.995	103.214	19.978	-2.198	0.482
1060.001	611.163	80.006	19.994	103.215	19.973	-1.828	0.505
1062.001	612.201	80.007	19.996	103.215	19.974	-1.914	0.484
1064.001	613.188	80.007	19.994	103.212	19.974	-1.896	0.492
1066.001	614.228	80.007	19.995	103.216	19.975	-1.970	0.495
1068.000	615.251	80.006	19.994	103.216	19.973	-1.866	0.496
1070.000	616.211	80.006	19.995	103.214	19.976	-2.078	0.498
1072.000	617.188	80.007	19.996	103.214	19.975	-1.965	0.473
1074.001	618.169	80.005	19.996	103.221	19.976	-2.057	0.484
1076.000	619.118	80.006	19.996	103.224	19.975	-2.013	0.483
1078.000	620.137	80.007	19.997	103.224	19.975	-1.961	0.493
1080.000	621.084	80.006	19.996	103.216	19.976	-2.082	0.462
1082.001	622.052	80.009	19.996	103.225	19.975	-2.018	0.461
1084.000	623.079	80.009	19.996	103.226	19.974	-1.913	0.487
1086.000	624.081	80.010	19.995	103.217	19.973	-1.885	0.490
1088.000	625.033	80.008	19.995	103.216	19.979	-2.248	0.467
1090.001	626.021	80.026	19.999	103.221	19.975	-2.014	0.490
1092.001	627.011	80.034	20.004	103.263	19.980	-2.319	0.508
1094.001	627.988	80.044	20.010	103.277	19.979	-2.256	0.515
1096.001	628.988	80.045	20.011	103.266	19.979	-2.224	0.467
1098.000	629.972	80.044	20.008	103.273	19.976	-2.037	0.499
1100.001	630.940	80.029	20.004	103.264	19.977	-2.125	0.497
1102.000	632.020	80.027	20.001	103.227	19.979	-2.220	0.522
1104.000	633.000	80.006	19.996	103.231	19.976	-2.086	0.498
1106.001	633.977	80.009	19.995	103.219	19.977	-2.116	0.508
1108.000	635.000	80.010	19.994	103.223	19.978	-2.211	0.512
1110.001	636.000	80.009	19.994	103.232	19.976	-2.028	0.522
1112.000	636.962	80.009	19.993	103.232	19.973	-1.878	0.493
1114.001	637.967	80.009	19.995	103.235	19.977	-2.112	0.519
1116.000	638.983	80.009	19.994	103.234	19.977	-2.098	0.542
1118.001	639.907	80.009	19.995	103.234	19.974	-1.956	0.487
1120.000	640.925	80.007	19.995	103.233	19.976	-2.080	0.474
1122.000	641.905	80.007	19.994	103.232	19.976	-2.060	0.508
1124.000	642.918	80.006	19.994	103.223	19.979	-2.229	0.512
1126.000	643.880	80.009	19.993	103.227	19.976	-2.082	0.504
1128.001	644.788	80.006	19.995	103.223	19.976	-2.037	0.447
1130.000	645.801	80.007	19.994	103.230	19.978	-2.163	0.494
1132.000	646.753	80.008	19.996	103.238	19.976	-2.078	0.475
1134.001	647.755	80.006	19.995	103.234	19.978	-2.192	0.505
1136.001	648.712	80.007	19.994	103.233	19.979	-2.269	0.469
1138.000	649.687	80.009	19.996	103.242	19.978	-2.190	0.520
1140.001	650.664	80.007	19.995	103.237	19.977	-2.116	0.479
1142.000	651.635	80.007	19.995	103.220	19.978	-2.201	0.468
1144.000	652.631	80.007	19.995	103.227	19.975	-2.012	0.480
1146.000	653.613	80.007	19.995	103.238	19.979	-2.255	0.498
1148.000	654.584	80.007	19.996	103.231	19.977	-2.093	0.500
1150.001	655.625	80.005	19.996	103.233	19.976	-2.080	0.503
1152.001	656.651	80.006	19.996	103.242	19.971	-1.748	0.497
1154.001	657.694	80.006	19.995	103.252	19.976	-2.027	0.516
1156.000	658.749	80.005	19.996	103.245	19.975	-2.014	0.535
1158.001	659.825	80.006	19.995	103.247	19.976	-2.034	0.531
1160.000	660.937	80.007	19.995	103.249	19.976	-2.050	0.565
1162.000	662.074	80.008	19.995	103.255	19.976	-2.023	0.573
1164.001	663.122	80.007	19.995	103.254	19.974	-1.897	0.507
1166.001	664.248	80.008	19.996	103.253	19.974	-1.895	0.576
1168.000	665.388	80.007	19.995	103.253	19.976	-2.068	0.581
1170.000	666.495	80.008	19.995	103.253	19.981	-2.413	0.567
1172.000	667.612	80.008	19.995	103.251	19.978	-2.201	0.563
1174.000	668.693	80.008	19.995	103.250	19.976	-2.032	0.532
1176.001	669.806	80.005	19.995	103.251	19.980	-2.322	0.536
1178.000	670.915	80.007	19.995	103.250	19.978	-2.197	0.564
1180.000	672.033	80.007	19.995	103.248	19.980	-2.295	0.546
1182.000	673.146	80.008	19.994	103.252	19.979	-2.242	0.575
1184.000	674.309	80.008	19.994	103.242	19.980	-2.287	0.573
1186.000	675.444	80.009	19.995	103.252	19.979	-2.226	0.597
1188.000	676.541	80.010	19.994	103.253	19.978	-2.185	0.567
1190.001	677.675	80.011	19.993	103.248	19.981	-2.408	0.579
1192.000	678.744	80.010	19.993	103.246	19.975	-2.003	0.568
1194.000	679.884	80.006	19.995	103.246	19.979	-2.266	0.544
1196.001	680.938	80.009	19.996	103.246	19.979	-2.239	0.549
1198.001	682.023	80.010	19.994	103.248	19.979	-2.224	0.530
1200.000	683.124	80.009	19.995	103.246	19.980	-2.287	0.546
1202.001	684.200	80.008	19.995	103.242	19.975	-2.021	0.520
1204.000	685.292	80.009	19.995	103.225	19.977	-2.128	0.554
1206.001	686.312	80.009	19.995	103.248	19.980	-2.294	0.493
1208.000	687.454	80.009	19.994	103.249	19.977	-2.125	0.540
1210.001	688.438	80.009	19.995	103.249	19.977	-2.089	0.487
1212.000	689.526	80.009	19.995	103.238	19.976	-2.030	0.545
1214.000	690.573	80.008	19.994	103.227	19.979	-2.255	0.535
1216.001	691.541	80.006	19.994	103.231	19.980	-2.290	0.502
1218.000	692.542	80.009	19.995	103.250	19.979	-2.245	0.483
1220.000	693.556	80.008	19.994	103.238	19.978	-2.192	0.499
1222.000	694.581	80.008	19.994	103.237	19.982	-2.481	0.515
1224.000	695.537	80.010	19.994	103.236	19.978	-2.174	0.467
1226.000	696.485	80.005	19.995	103.237	19.982	-2.427	0.480
1228.000	697.513	80.007	19.995	103.222	19.978	-2.181	0.522
1230.001	698.449	80.008	19.994	103.230	19.979	-2.245	0.452
1232.000	699.372	80.007	19.995	103.234	19.983	-2.499	0.472
1234.000	700.368	80.007	19.995	103.226	19.983	-2.499	0.509
1236.001	701.332	80.007	19.995	103.225	19.980	-2.298	0.492
1238.000	702.321	80.005	19.995	103.232	19.981	-2.413	0.448
1240.000	703.260	80.007	19.996	103.230	19.980	-2.325	0.465
1242.000	704.262	80.007	19.995	103.221	19.980	-2.285	0.512
1244.000	705.190	80.006	19.996	103.236	19.982	-2.472	0.471
1246.000	706.139	80.008	19.996	103.218	19.980	-2.344	0.463
1248.001	707.157	80.008	19.995	103.217	19.983	-2.517	0.494
1250.001	708.035	80.009	19.995	103.224	19.985	-2.619	0.492
1252.000	709.043	80.011	19.994	103.215	19.981	-2.382	0.523
1254.000	710.034	80.011	19.994	103.218	19.983	-2.510	0.490
1256.000	711.014	80.011	19.996	103.226	19.978	-2.173	0.509
1258.000	712.036	80.009	19.995	103.223	19.982	-2.425	0.484
1260.000	713.034	80.009	19.996	103.220	19.983	-2.484	0.508
1262.000	714.068	80.008	19.995	103.213	19.980	-2.290	0.531
1264.000	715.110	80.008	19.996	103.217	19.981	-2.414	0.528
1266.001	716.111	80.010	19.997	103.215	19.980	-2.348	0.530
1268.000	717.122	80.009	19.997	103.217	19.982	-2.461	0.479
1270.000	718.166	80.008	19.996	103.211	19.981	-2.385	0.538
1272.000	719.147	80.009	19.996	103.209	19.983	-2.483	0.497
1274.000	720.146	80.011	19.995	103.209	19.982	-2.436	0.492
1276.000	721.161	80.011	19.994	103.209	19.982	-2.459	0.513
1278.000	722.156	80.010	19.994	103.211	19.984	-2.574	0.533
1280.001	723.142	80.009	19.994	103.208	19.986	-2.724	0.466
1282.000	724.093	80.010	19.995	103.210	19.985	-2.650	0.474
1284.000	725.053	80.008	19.994	103.209	19.987	-2.785	0.493
1286.000	726.048	80.007	19.995	103.213	19.986	-2.722	0.472
1288.000	727.011	80.008	19.995	103.215	19.988	-2.825	0.490
1290.000	728.020	80.008	19.995	103.215	19.986	-2.709	0.486
1292.001	728.998	80.008	19.994	103.216	19.987	-2.776	0.448
1294.000	730.052	80.009	19.995	103.215	19.986	-2.695	0.489
1296.000	731.050	80.007	19.995	103.217	19.985	-2.619	0.498
1298.000	732.078	80.008	19.995	103.214	19.986	-2.733	0.523
1300.001	733.055	80.007	19.994	103.211	19.985	-2.672	0.463
1302.001	734.104	80.008	19.995	103.214	19.984	-2.611	0.486
1304.000	735.093	80.007	19.993	103.215	19.986	-2.717	0.500
1306.000	736.149	80.008	19.994	103.213	19.991	-3.008	0.548
1308.000	737.161	80.007	19.994	103.213	19.986	-2.736	0.512
1310.001	738.197	80.008	19.994	103.219	19.986	-2.690	0.523
1312.000	739.248	80.007	19.993	103.217	19.984	-2.592	0.535
1314.001	740.279	80.008	19.994	103.221	19.987	-2.776	0.530
1316.000	741.333	80.009	19.994	103.216	19.989	-2.914	0.551
1318.000	742.387	80.009	19.994	103.215	19.989	-2.940	0.529
1320.000	743.474	80.009	19.995	103.213	19.987	-2.795	0.549
1322.001	744.484	80.007	19.994	103.211	19.987	-2.801	0.521
1323.000	745.036	80.008	19.995	103.212	19.985	-2.643	0.530