File: 01_Data/Lightweight_Gypsum_Wallboard_Gypsum_Core/MCC/Lightweight_Gypsum_Wallboard_Core_MCC_30K_min_211129_R1.txt
Sample ID:	C:\MCC\MCC Cal\Test\LW_GypBoard_Gypsum_Core_MCC_30K_min_211129_R1.txt
Sample Weight (mg):	4.8
Heating Rate (C/s):	0.5
Combustor Temp (C):	900
N2 Flow Rate (cc/min):	80
O2 Flow Rate (cc/min):	20
Calibration File:	C:\MCC\MCC Cal\Coeff1 JN10440_30_210304.txt.txt
T Correction Coefficients:	0	1.024463	0
Time Shift (s):	14
*
Time (s)	Temperature (C)	N2 flow rate (cc/min)	O2 flow rate (cc/min)	Flow Rate (cc/min)	Oxygen (%)	HRR (W/g)	Heating rate (C/s)
0.000	108.874	80.006	19.994	103.100	20.119	-0.273	0.005
2.000	108.851	80.007	19.994	103.099	20.114	0.048	-0.004
4.000	108.833	80.007	19.994	103.099	20.117	-0.146	-0.004
6.000	108.866	80.007	19.994	103.104	20.113	0.129	0.004
8.000	108.862	80.006	19.993	103.110	20.116	-0.065	-0.014
10.000	108.864	80.007	19.994	103.138	20.111	0.244	0.006
12.000	108.859	80.007	19.994	103.178	20.104	0.712	0.031
14.000	108.944	80.005	19.993	103.216	20.100	0.993	0.053
16.000	109.015	80.006	19.994	103.247	20.098	1.155	0.062
18.000	109.173	80.004	19.994	103.254	20.093	1.456	0.049
20.000	109.261	80.007	19.994	103.257	20.087	1.853	0.035
22.000	109.466	80.004	19.994	103.280	20.085	1.991	0.083
24.000	109.659	80.005	19.995	103.292	20.083	2.164	0.076
26.000	109.908	80.008	19.994	103.291	20.081	2.273	0.106
28.000	110.213	80.007	19.995	103.290	20.081	2.268	0.121
30.000	110.566	80.007	19.994	103.288	20.080	2.356	0.191
32.000	110.817	80.005	19.994	103.293	20.079	2.375	0.115
34.000	111.178	80.006	19.995	103.292	20.080	2.353	0.165
36.000	111.606	80.007	19.994	103.288	20.084	2.074	0.204
38.000	111.983	80.005	19.995	103.289	20.083	2.111	0.202
40.000	112.419	80.006	19.993	103.286	20.080	2.325	0.207
42.001	112.892	80.007	19.994	103.288	20.078	2.442	0.248
44.000	113.324	80.007	19.993	103.293	20.083	2.158	0.236
46.000	113.846	80.006	19.995	103.293	20.080	2.309	0.266
48.000	114.297	80.005	19.993	103.293	20.081	2.278	0.229
50.000	114.784	80.007	19.994	103.305	20.079	2.401	0.265
52.000	115.329	80.007	19.993	103.313	20.079	2.405	0.275
54.000	115.861	80.004	19.994	103.327	20.079	2.389	0.285
56.000	116.411	80.009	19.996	103.319	20.077	2.518	0.274
58.000	117.002	80.008	19.994	103.318	20.078	2.474	0.284
60.000	117.597	80.005	19.995	103.326	20.077	2.570	0.296
62.000	118.176	80.005	19.994	103.331	20.073	2.786	0.294
64.000	118.812	80.004	19.995	103.342	20.076	2.618	0.302
66.000	119.439	80.005	19.995	103.335	20.076	2.643	0.308
68.000	120.111	80.005	19.995	103.338	20.078	2.474	0.358
70.000	120.783	80.005	19.994	103.355	20.075	2.698	0.332
72.001	121.511	80.004	19.995	103.347	20.077	2.572	0.361
74.000	122.221	80.005	19.994	103.344	20.078	2.467	0.349
76.000	122.929	80.006	19.994	103.370	20.076	2.628	0.359
78.000	123.690	80.005	19.993	103.366	20.079	2.426	0.381
80.000	124.467	80.005	19.995	103.362	20.075	2.660	0.385
82.000	125.256	80.008	19.994	103.366	20.075	2.646	0.384
84.001	126.022	80.007	19.995	103.371	20.078	2.509	0.396
86.000	126.799	80.006	19.994	103.371	20.076	2.628	0.378
88.000	127.665	80.007	19.994	103.362	20.076	2.592	0.405
90.000	128.522	80.005	19.994	103.359	20.076	2.592	0.405
92.000	129.325	80.006	19.994	103.348	20.077	2.537	0.409
94.000	130.198	80.003	19.994	103.367	20.074	2.772	0.428
96.000	131.064	80.005	19.995	103.365	20.072	2.855	0.403
98.000	131.941	80.005	19.994	103.372	20.077	2.539	0.450
100.000	132.837	80.004	19.994	103.341	20.074	2.735	0.461
102.000	133.751	80.005	19.995	103.361	20.075	2.654	0.462
104.000	134.665	80.006	19.994	103.370	20.077	2.519	0.473
106.000	135.540	80.007	19.994	103.367	20.080	2.347	0.444
108.001	136.474	80.008	19.993	103.367	20.076	2.580	0.463
110.000	137.383	80.008	19.994	103.369	20.080	2.330	0.440
112.000	138.338	80.008	19.994	103.372	20.079	2.404	0.446
114.000	139.266	80.007	19.994	103.371	20.078	2.447	0.473
116.000	140.274	80.007	19.994	103.368	20.077	2.569	0.473
118.000	141.229	80.007	19.994	103.361	20.077	2.563	0.449
120.001	142.206	80.006	19.994	103.371	20.080	2.367	0.518
122.000	143.164	80.004	19.995	103.371	20.075	2.690	0.483
124.000	144.138	80.005	19.994	103.366	20.079	2.422	0.484
126.000	145.148	80.005	19.994	103.367	20.080	2.317	0.475
128.000	146.136	80.006	19.994	103.368	20.079	2.380	0.479
130.000	147.079	80.009	19.995	103.369	20.080	2.357	0.464
132.000	148.079	80.006	19.994	103.366	20.081	2.269	0.504
134.000	149.102	80.005	19.994	103.358	20.079	2.437	0.520
136.000	150.064	80.007	19.995	103.358	20.080	2.335	0.464
138.000	151.046	80.008	19.993	103.355	20.079	2.387	0.510
140.000	152.067	80.009	19.994	103.346	20.083	2.112	0.509
142.000	153.097	80.006	19.994	103.342	20.081	2.291	0.508
144.000	154.101	80.006	19.994	103.332	20.084	2.058	0.507
146.000	155.062	80.006	19.993	103.330	20.080	2.337	0.488
148.000	156.044	80.005	19.995	103.333	20.087	1.896	0.543
150.000	157.031	80.006	19.994	103.334	20.083	2.123	0.440
152.000	158.033	80.006	19.995	103.332	20.084	2.046	0.493
154.000	159.074	80.004	19.996	103.333	20.090	1.690	0.504
156.000	160.078	80.005	19.995	103.284	20.100	0.984	0.489
158.000	161.027	80.004	19.996	103.079	20.116	-0.088	0.454
160.000	161.805	80.004	19.995	102.993	20.131	-1.080	0.388
162.000	162.554	80.006	19.996	102.973	20.138	-1.580	0.338
164.000	163.185	80.003	19.995	102.972	20.146	-2.060	0.296
166.000	163.743	80.006	19.995	102.952	20.148	-2.212	0.262
168.000	164.170	80.007	19.995	102.946	20.153	-2.536	0.246
170.001	164.515	80.008	19.994	102.944	20.159	-2.981	0.164
172.000	164.818	80.006	19.993	102.945	20.159	-2.966	0.139
174.000	165.017	80.006	19.995	102.941	20.161	-3.091	0.111
176.000	165.156	80.003	19.994	102.940	20.159	-2.948	0.058
178.000	165.261	80.004	19.994	102.941	20.161	-3.104	0.044
180.000	165.333	80.004	19.994	102.942	20.163	-3.231	0.027
182.000	165.261	80.005	19.994	102.942	20.164	-3.262	-0.030
184.000	165.214	80.004	19.994	102.941	20.166	-3.398	-0.006
186.000	165.074	80.006	19.994	102.939	20.165	-3.369	-0.074
188.000	164.944	80.006	19.994	102.932	20.169	-3.597	-0.060
190.000	164.750	80.007	19.993	102.940	20.166	-3.433	-0.094
192.000	164.563	80.006	19.994	102.941	20.166	-3.428	-0.079
194.000	164.309	80.007	19.993	102.943	20.169	-3.626	-0.114
196.000	164.012	80.006	19.993	102.940	20.167	-3.483	-0.157
198.000	163.679	80.007	19.994	102.931	20.167	-3.494	-0.179
200.000	163.382	80.008	19.994	102.940	20.168	-3.565	-0.179
202.000	163.054	80.007	19.994	102.940	20.170	-3.694	-0.168
204.000	162.645	80.005	19.993	102.935	20.166	-3.407	-0.203
206.000	162.240	80.006	19.994	102.928	20.167	-3.516	-0.193
208.000	161.865	80.008	19.994	102.932	20.167	-3.485	-0.190
210.000	161.406	80.005	19.994	102.934	20.169	-3.639	-0.242
212.000	160.912	80.006	19.994	102.933	20.170	-3.667	-0.292
214.000	160.504	80.006	19.995	102.934	20.171	-3.746	-0.225
216.000	160.089	80.005	19.994	102.939	20.169	-3.652	-0.206
218.000	159.608	80.008	19.995	102.939	20.170	-3.717	-0.218
220.000	159.116	80.007	19.994	102.940	20.171	-3.740	-0.243
222.000	158.622	80.010	19.996	102.941	20.171	-3.733	-0.231
224.000	158.111	80.005	19.995	102.937	20.170	-3.712	-0.249
226.000	157.655	80.005	19.995	102.942	20.169	-3.618	-0.215
228.000	157.135	80.007	19.995	102.943	20.168	-3.588	-0.227
230.000	156.603	80.005	19.995	102.938	20.171	-3.748	-0.255
232.000	156.118	80.007	19.995	102.942	20.171	-3.737	-0.232
234.000	155.593	80.007	19.995	102.948	20.171	-3.772	-0.248
236.000	155.120	80.006	19.995	102.957	20.169	-3.592	-0.235
238.000	154.609	80.005	19.995	102.949	20.170	-3.704	-0.276
240.000	154.085	80.005	19.996	102.948	20.168	-3.581	-0.261
242.000	153.582	80.005	19.995	102.959	20.169	-3.645	-0.244
244.000	153.033	80.004	19.995	102.947	20.170	-3.672	-0.271
246.000	152.518	80.005	19.995	102.951	20.170	-3.692	-0.254
248.000	152.037	80.005	19.995	102.950	20.171	-3.747	-0.246
250.000	151.508	80.005	19.995	102.944	20.172	-3.804	-0.245
252.000	150.977	80.005	19.996	102.946	20.169	-3.633	-0.256
254.000	150.451	80.005	19.995	102.965	20.165	-3.378	-0.259
256.000	149.945	80.005	19.994	102.970	20.166	-3.445	-0.243
258.000	149.481	80.005	19.994	102.972	20.169	-3.607	-0.234
260.000	148.931	80.007	19.994	102.969	20.167	-3.473	-0.262
262.001	148.421	80.006	19.994	102.960	20.165	-3.359	-0.249
264.000	147.885	80.004	19.994	102.974	20.168	-3.543	-0.263
266.000	147.408	80.005	19.995	102.973	20.166	-3.438	-0.243
268.000	146.892	80.005	19.993	102.962	20.166	-3.456	-0.265
270.000	146.386	80.005	19.994	102.974	20.167	-3.515	-0.226
272.001	145.940	80.008	19.994	102.978	20.170	-3.715	-0.243
274.000	145.462	80.008	19.994	102.977	20.172	-3.855	-0.276
276.000	144.956	80.007	19.996	102.977	20.166	-3.449	-0.248
278.000	144.523	80.006	19.994	102.967	20.171	-3.778	-0.214
280.000	144.011	80.005	19.993	102.965	20.158	-2.918	-0.252
282.000	143.564	80.006	19.994	102.996	20.126	-0.761	-0.249
284.000	143.206	80.007	19.995	103.545	20.080	2.335	-0.157
286.000	143.079	80.007	19.994	103.981	20.040	5.025	-0.024
288.000	143.245	80.007	19.994	104.027	20.015	6.776	0.093
290.000	143.706	80.007	19.995	104.001	20.005	7.443	0.233
292.000	144.401	80.007	19.994	103.959	19.997	7.983	0.370
294.000	145.274	80.007	19.993	103.923	19.993	8.197	0.471
296.000	146.345	80.007	19.994	103.913	19.995	8.104	0.558
298.000	147.625	80.008	19.993	103.901	19.994	8.132	0.643
300.000	148.997	80.008	19.993	103.880	19.996	8.001	0.705
302.000	150.553	80.008	19.993	103.867	19.995	8.105	0.759
304.000	152.281	80.008	19.994	103.840	19.996	8.009	0.861
306.000	154.054	80.009	19.993	103.840	20.004	7.464	0.896
308.000	155.981	80.006	19.994	103.835	20.005	7.406	0.967
310.000	157.990	80.006	19.994	103.784	20.009	7.110	0.996
312.000	160.087	80.006	19.995	103.774	20.014	6.764	1.074
314.000	162.332	80.004	19.995	103.762	20.019	6.443	1.139
316.000	164.531	80.006	19.995	103.739	20.021	6.313	1.121
318.000	166.827	80.004	19.994	103.705	20.025	6.037	1.154
320.000	169.184	80.005	19.994	103.690	20.029	5.777	1.166
322.000	171.587	80.005	19.994	103.658	20.035	5.406	1.181
324.000	174.017	80.005	19.994	103.645	20.041	4.960	1.192
326.000	176.374	80.006	19.994	103.617	20.044	4.752	1.180
328.000	178.764	80.005	19.994	103.604	20.044	4.742	1.213
330.000	181.279	80.006	19.995	103.601	20.051	4.274	1.224
332.000	183.691	80.005	19.994	103.573	20.054	4.124	1.213
334.000	186.183	80.007	19.994	103.564	20.059	3.732	1.251
336.000	188.662	80.006	19.995	103.555	20.060	3.700	1.255
338.000	191.074	80.007	19.995	103.540	20.063	3.514	1.227
340.000	193.485	80.005	19.995	103.524	20.065	3.381	1.199
342.000	195.879	80.005	19.996	103.524	20.068	3.163	1.188
344.000	198.302	80.005	19.995	103.522	20.074	2.722	1.197
346.000	200.721	80.005	19.995	103.508	20.076	2.637	1.223
348.000	203.059	80.004	19.995	103.488	20.076	2.614	1.149
350.000	205.431	80.006	19.994	103.483	20.078	2.465	1.167
352.000	207.781	80.005	19.994	103.478	20.080	2.359	1.176
354.000	210.022	80.006	19.995	103.460	20.077	2.550	1.128
356.000	212.330	80.007	19.995	103.439	20.081	2.298	1.135
358.000	214.604	80.006	19.994	103.424	20.083	2.121	1.159
360.000	216.826	80.009	19.994	103.418	20.084	2.063	1.103
362.000	218.979	80.007	19.994	103.415	20.088	1.820	1.056
364.001	221.159	80.006	19.994	103.422	20.088	1.786	1.081
366.000	223.306	80.006	19.994	103.419	20.090	1.648	1.085
368.000	225.397	80.006	19.994	103.416	20.095	1.347	1.063
370.000	227.479	80.006	19.994	103.408	20.095	1.324	1.042
372.000	229.551	80.005	19.993	103.406	20.094	1.387	1.033
374.000	231.619	80.006	19.994	103.408	20.098	1.119	1.026
376.000	233.602	80.007	19.995	103.399	20.096	1.272	0.994
378.000	235.621	80.009	19.994	103.398	20.098	1.134	0.989
380.000	237.580	80.009	19.994	103.404	20.097	1.182	0.979
382.000	239.518	80.006	19.994	103.398	20.099	1.054	0.980
384.000	241.435	80.007	19.993	103.378	20.098	1.117	0.951
386.000	243.350	80.007	19.995	103.378	20.100	0.966	0.961
388.000	245.268	80.010	19.994	103.376	20.100	1.017	0.963
390.000	247.138	80.006	19.994	103.372	20.101	0.947	0.920
392.000	248.997	80.007	19.994	103.370	20.100	0.977	0.936
394.000	250.864	80.004	19.994	103.328	20.101	0.949	0.922
396.000	252.714	80.005	19.994	103.399	20.106	0.626	0.892
398.000	254.530	80.005	19.995	103.396	20.103	0.797	0.914
400.000	256.373	80.005	19.993	103.352	20.106	0.581	0.934
402.000	258.127	80.005	19.994	103.348	20.107	0.519	0.890
404.000	259.893	80.005	19.995	103.338	20.108	0.458	0.858
406.000	261.606	80.006	19.994	103.329	20.104	0.731	0.867
408.000	263.350	80.005	19.995	103.340	20.109	0.362	0.872
410.000	265.064	80.007	19.995	103.329	20.111	0.268	0.866
412.000	266.702	80.007	19.994	103.329	20.112	0.179	0.832
414.000	268.389	80.005	19.995	103.329	20.113	0.100	0.830
416.000	270.067	80.005	19.995	103.324	20.111	0.234	0.824
418.000	271.708	80.006	19.995	103.325	20.114	0.037	0.826
420.000	273.308	80.004	19.995	103.319	20.113	0.102	0.793
422.000	274.885	80.005	19.994	103.314	20.114	0.039	0.793
424.000	276.490	80.004	19.995	103.321	20.115	-0.031	0.784
426.000	278.047	80.003	19.995	103.328	20.114	0.024	0.796
428.000	279.622	80.005	19.995	103.287	20.116	-0.065	0.781
430.000	281.141	80.003	19.995	103.298	20.117	-0.127	0.770
432.000	282.703	80.005	19.995	103.358	20.120	-0.347	0.775
434.000	284.215	80.005	19.996	103.315	20.121	-0.415	0.769
436.000	285.730	80.005	19.995	103.305	20.121	-0.384	0.771
438.000	287.227	80.006	19.996	103.299	20.120	-0.317	0.768
440.000	288.714	80.008	19.994	103.299	20.121	-0.435	0.697
442.000	290.222	80.006	19.994	103.298	20.123	-0.576	0.748
444.000	291.679	80.006	19.995	103.293	20.124	-0.642	0.736
446.000	293.099	80.008	19.994	103.300	20.125	-0.709	0.720
448.000	294.565	80.006	19.994	103.296	20.127	-0.830	0.708
450.000	295.965	80.005	19.994	103.297	20.127	-0.795	0.720
452.000	297.376	80.004	19.993	103.295	20.125	-0.672	0.741
454.000	298.700	80.007	19.994	103.293	20.125	-0.664	0.679
456.000	300.090	80.007	19.995	103.292	20.124	-0.620	0.679
458.000	301.440	80.006	19.994	103.288	20.128	-0.885	0.683
460.000	302.761	80.008	19.994	103.267	20.130	-0.989	0.664
462.000	304.085	80.008	19.995	103.264	20.128	-0.904	0.650
464.000	305.371	80.009	19.994	103.266	20.132	-1.140	0.652
466.000	306.658	80.008	19.995	103.268	20.130	-1.011	0.642
468.000	307.896	80.007	19.994	103.258	20.131	-1.090	0.649
470.000	309.120	80.006	19.995	103.255	20.129	-0.974	0.633
472.000	310.382	80.005	19.993	103.258	20.133	-1.195	0.623
474.000	311.610	80.005	19.994	103.263	20.133	-1.238	0.620
476.000	312.859	80.005	19.994	103.257	20.136	-1.411	0.608
478.000	314.077	80.005	19.994	103.251	20.134	-1.252	0.618
480.000	315.211	80.004	19.994	103.253	20.137	-1.470	0.599
482.000	316.374	80.006	19.994	103.252	20.136	-1.400	0.579
484.000	317.511	80.006	19.995	103.251	20.137	-1.481	0.552
486.000	318.674	80.008	19.994	103.252	20.138	-1.581	0.588
488.000	319.762	80.005	19.994	103.250	20.139	-1.629	0.567
490.000	320.869	80.005	19.994	103.251	20.140	-1.686	0.561
492.000	321.993	80.005	19.995	103.248	20.138	-1.566	0.555
494.000	323.111	80.005	19.996	103.248	20.140	-1.673	0.587
496.001	324.160	80.004	19.995	103.241	20.138	-1.549	0.539
498.000	325.234	80.005	19.995	103.244	20.139	-1.612	0.545
500.000	326.290	80.006	19.995	103.248	20.142	-1.811	0.513
502.000	327.401	80.005	19.995	103.244	20.141	-1.782	0.550
504.000	328.454	80.004	19.994	103.245	20.142	-1.819	0.539
506.000	329.479	80.005	19.994	103.246	20.138	-1.555	0.527
508.000	330.521	80.004	19.995	103.238	20.140	-1.693	0.530
510.000	331.590	80.006	19.994	103.259	20.138	-1.538	0.530
512.000	332.599	80.005	19.994	103.261	20.144	-1.947	0.525
514.000	333.654	80.007	19.994	103.245	20.143	-1.884	0.503
516.000	334.726	80.004	19.995	103.247	20.144	-1.931	0.541
518.000	335.706	80.008	19.994	103.225	20.145	-1.993	0.535
520.000	336.708	80.007	19.995	103.219	20.149	-2.262	0.488
522.000	337.681	80.006	19.995	103.222	20.146	-2.100	0.447
524.000	338.693	80.004	19.995	103.215	20.149	-2.283	0.485
526.000	339.688	80.005	19.996	103.221	20.150	-2.342	0.511
528.000	340.642	80.005	19.996	103.224	20.149	-2.290	0.446
530.000	341.663	80.004	19.995	103.219	20.148	-2.226	0.506
532.000	342.645	80.006	19.995	103.211	20.148	-2.233	0.506
534.000	343.594	80.006	19.995	103.217	20.147	-2.171	0.485
536.000	344.522	80.007	19.994	103.219	20.146	-2.071	0.460
538.000	345.564	80.007	19.994	103.216	20.150	-2.347	0.492
540.000	346.489	80.010	19.995	103.216	20.150	-2.390	0.484
542.000	347.467	80.005	19.994	103.228	20.148	-2.211	0.443
544.000	348.394	80.010	19.993	103.243	20.145	-2.052	0.459
546.000	349.386	80.009	19.994	103.239	20.148	-2.211	0.492
548.000	350.393	80.006	19.994	103.214	20.147	-2.148	0.485
550.000	351.346	80.006	19.993	103.220	20.143	-1.916	0.485
552.000	352.315	80.006	19.995	103.231	20.148	-2.226	0.495
554.000	353.316	80.005	19.994	103.225	20.150	-2.340	0.503
556.000	354.233	80.005	19.994	103.227	20.146	-2.084	0.454
558.000	355.200	80.006	19.994	103.215	20.150	-2.366	0.488
560.000	356.174	80.005	19.995	103.220	20.147	-2.158	0.482
562.000	357.131	80.006	19.994	103.239	20.145	-2.047	0.494
564.000	358.111	80.005	19.994	103.229	20.148	-2.196	0.489
566.000	359.074	80.006	19.994	103.219	20.146	-2.073	0.493
568.000	360.063	80.006	19.994	103.222	20.146	-2.078	0.483
570.000	361.027	80.007	19.994	103.229	20.148	-2.239	0.484
572.000	362.026	80.005	19.993	103.238	20.149	-2.318	0.475
574.000	362.968	80.003	19.995	103.228	20.150	-2.377	0.493
576.000	363.941	80.006	19.993	103.229	20.152	-2.460	0.501
578.000	364.920	80.006	19.994	103.231	20.148	-2.195	0.491
580.000	365.877	80.004	19.993	103.241	20.152	-2.486	0.489
582.000	366.883	80.006	19.994	103.237	20.152	-2.489	0.483
584.000	367.919	80.006	19.995	103.222	20.150	-2.364	0.519
586.000	368.865	80.005	19.996	103.219	20.152	-2.506	0.490
588.000	369.880	80.004	19.994	103.227	20.152	-2.513	0.503
590.000	370.959	80.005	19.995	103.241	20.149	-2.324	0.510
592.000	371.963	80.005	19.995	103.227	20.154	-2.642	0.492
594.000	372.986	80.007	19.995	103.217	20.151	-2.447	0.543
596.000	374.025	80.006	19.995	103.221	20.155	-2.676	0.509
598.000	375.077	80.007	19.994	103.214	20.153	-2.567	0.512
600.000	376.090	80.008	19.995	103.232	20.151	-2.447	0.537
602.000	377.087	80.007	19.994	103.223	20.155	-2.679	0.510
604.000	378.139	80.005	19.994	103.240	20.157	-2.832	0.504
606.000	379.173	80.007	19.995	103.227	20.153	-2.537	0.506
608.000	380.228	80.007	19.994	103.229	20.154	-2.652	0.503
610.000	381.256	80.006	19.995	103.218	20.152	-2.493	0.508
612.000	382.258	80.007	19.995	103.220	20.155	-2.718	0.500
614.000	383.316	80.006	19.995	103.215	20.156	-2.731	0.500
616.000	384.339	80.006	19.996	103.218	20.160	-3.022	0.499
618.000	385.397	80.005	19.995	103.221	20.159	-2.954	0.558
620.000	386.388	80.007	19.995	103.231	20.159	-2.934	0.503
622.000	387.424	80.007	19.995	103.219	20.162	-3.177	0.484
624.000	388.437	80.007	19.995	103.214	20.161	-3.067	0.518
626.000	389.494	80.011	19.994	103.218	20.163	-3.233	0.536
628.000	390.502	80.009	19.994	103.215	20.162	-3.188	0.534
630.000	391.556	80.009	19.994	103.214	20.161	-3.112	0.528
632.001	392.582	80.006	19.994	103.214	20.159	-2.954	0.518
634.000	393.603	80.006	19.994	103.219	20.157	-2.856	0.488
636.000	394.675	80.005	19.993	103.218	20.160	-3.044	0.510
638.000	395.684	80.005	19.993	103.225	20.164	-3.295	0.522
640.000	396.688	80.004	19.993	103.218	20.160	-3.037	0.481
642.000	397.692	80.006	19.994	103.218	20.164	-3.266	0.481
644.000	398.720	80.004	19.995	103.218	20.162	-3.144	0.499
646.000	399.732	80.006	19.994	103.216	20.163	-3.212	0.526
648.000	400.680	80.006	19.994	103.216	20.161	-3.063	0.476
650.000	401.704	80.006	19.994	103.215	20.166	-3.435	0.540
652.000	402.705	80.007	19.995	103.228	20.163	-3.258	0.518
654.000	403.716	80.004	19.994	103.216	20.165	-3.395	0.493
656.000	404.747	80.005	19.995	103.212	20.165	-3.384	0.508
658.000	405.732	80.008	19.994	103.212	20.167	-3.481	0.506
660.000	406.771	80.004	19.994	103.211	20.163	-3.245	0.517
662.000	407.750	80.004	19.994	103.216	20.164	-3.317	0.515
664.000	408.824	80.006	19.995	103.215	20.166	-3.418	0.517
666.000	409.841	80.006	19.994	103.224	20.165	-3.378	0.503
668.000	410.859	80.005	19.994	103.216	20.168	-3.588	0.523
670.000	411.954	80.008	19.994	103.213	20.166	-3.420	0.518
672.000	412.971	80.006	19.995	103.214	20.168	-3.577	0.503
674.000	413.984	80.007	19.994	103.213	20.170	-3.704	0.498
676.000	414.973	80.006	19.994	103.208	20.169	-3.621	0.472
678.000	416.021	80.006	19.994	103.214	20.168	-3.536	0.528
680.000	417.125	80.006	19.995	103.212	20.169	-3.616	0.547
682.000	418.163	80.006	19.994	103.213	20.169	-3.636	0.516
684.000	419.239	80.004	19.995	103.216	20.168	-3.585	0.533
686.000	420.323	80.004	19.994	103.213	20.168	-3.554	0.557
688.000	421.448	80.007	19.995	103.216	20.161	-3.130	0.576
690.000	422.512	80.005	19.995	103.216	20.162	-3.187	0.529
692.000	423.574	80.006	19.994	103.225	20.164	-3.275	0.551
694.000	424.678	80.006	19.994	103.218	20.163	-3.243	0.543
696.000	425.824	80.007	19.994	103.222	20.167	-3.500	0.553
698.000	426.881	80.004	19.995	103.241	20.164	-3.292	0.545
700.000	427.933	80.005	19.993	103.221	20.166	-3.413	0.517
702.000	429.054	80.006	19.994	103.230	20.168	-3.594	0.571
704.000	430.167	80.008	19.994	103.214	20.164	-3.321	0.572
706.000	431.232	80.007	19.994	103.216	20.167	-3.494	0.537
708.000	432.339	80.007	19.994	103.225	20.166	-3.417	0.554
710.000	433.478	80.005	19.995	103.222	20.168	-3.555	0.529
712.000	434.585	80.005	19.995	103.214	20.170	-3.730	0.567
714.000	435.690	80.004	19.996	103.210	20.162	-3.147	0.526
716.000	436.772	80.005	19.996	103.212	20.178	-4.252	0.537
718.000	437.847	80.004	19.995	103.213	20.176	-4.134	0.568
720.000	438.973	80.004	19.995	103.210	20.172	-3.822	0.498
722.000	440.124	80.006	19.995	103.210	20.170	-3.718	0.561
724.000	441.242	80.006	19.995	103.213	20.175	-4.047	0.467
726.000	442.098	80.005	19.996	103.212	20.171	-3.759	0.364
728.000	443.234	80.008	19.994	103.220	20.173	-3.932	0.230
730.000	444.452	80.005	19.993	103.211	20.171	-3.733	0.570
732.000	446.052	80.006	19.994	103.188	20.171	-3.740	1.180
734.000	446.879	80.004	19.994	103.205	20.172	-3.813	0.194
736.000	447.653	80.006	19.995	103.204	20.172	-3.827	0.484
738.000	448.723	80.006	19.994	103.194	20.176	-4.081	0.506
740.000	449.765	80.007	19.994	103.199	20.174	-3.940	0.478
742.000	450.817	80.005	19.994	103.187	20.176	-4.072	0.490
744.000	451.812	80.006	19.994	103.201	20.175	-4.065	0.529
746.000	452.820	80.006	19.994	103.194	20.174	-3.964	0.546
748.000	453.794	80.006	19.994	103.181	20.176	-4.078	0.513
750.000	454.811	80.004	19.995	103.183	20.179	-4.314	0.533
752.000	455.762	80.004	19.995	103.206	20.177	-4.185	0.505
754.000	456.787	80.005	19.995	103.191	20.178	-4.247	0.471
756.000	457.740	80.006	19.993	103.212	20.178	-4.207	0.503
758.000	458.696	80.006	19.994	103.204	20.179	-4.310	0.490
760.000	459.637	80.006	19.992	103.193	20.180	-4.362	0.456
762.000	460.622	80.006	19.994	103.209	20.182	-4.499	0.510
764.000	461.639	80.007	19.995	103.192	20.181	-4.428	0.529
766.000	462.561	80.007	19.995	103.194	20.184	-4.653	0.462
768.000	463.549	80.006	19.995	103.203	20.183	-4.540	0.521
770.000	464.406	80.003	19.994	103.202	20.183	-4.579	0.453
772.000	465.381	80.005	19.994	103.208	20.180	-4.378	0.479
774.000	466.276	80.004	19.995	103.205	20.182	-4.529	0.440
776.000	467.273	80.006	19.995	103.202	20.182	-4.532	0.501
778.000	468.257	80.007	19.995	103.192	20.181	-4.428	0.477
780.000	469.168	80.005	19.995	103.196	20.182	-4.529	0.469
782.000	470.107	80.004	19.995	103.192	20.180	-4.347	0.458
784.000	471.057	80.008	19.994	103.189	20.181	-4.413	0.482
786.000	472.012	80.007	19.994	103.199	20.181	-4.406	0.453
788.000	472.994	80.008	19.993	103.204	20.179	-4.308	0.489
790.000	473.959	80.007	19.994	103.195	20.183	-4.541	0.486
792.000	474.922	80.006	19.995	103.204	20.184	-4.635	0.485
794.000	475.917	80.003	19.995	103.200	20.181	-4.450	0.476
796.000	476.844	80.004	19.996	103.200	20.183	-4.577	0.495
798.000	477.795	80.005	19.996	103.198	20.183	-4.555	0.469
800.000	478.779	80.004	19.996	103.197	20.186	-4.747	0.465
802.000	479.740	80.005	19.995	103.206	20.184	-4.666	0.483
804.000	480.746	80.004	19.995	103.201	20.185	-4.717	0.478
806.000	481.792	80.005	19.995	103.198	20.186	-4.774	0.529
808.000	482.759	80.005	19.995	103.194	20.184	-4.636	0.492
810.000	483.741	80.004	19.995	103.198	20.180	-4.386	0.494
812.000	484.782	80.006	19.994	103.196	20.182	-4.533	0.525
814.000	485.777	80.005	19.995	103.201	20.185	-4.682	0.508
816.000	486.813	80.004	19.994	103.179	20.185	-4.728	0.508
818.000	487.828	80.005	19.994	103.181	20.182	-4.502	0.523
820.000	488.861	80.002	19.994	103.196	20.186	-4.744	0.514
822.000	489.855	80.004	19.995	103.194	20.184	-4.609	0.492
824.000	490.900	80.004	19.993	103.205	20.185	-4.688	0.481
826.000	491.918	80.002	19.995	103.190	20.188	-4.921	0.515
828.000	492.934	80.003	19.994	103.198	20.185	-4.701	0.514
830.000	494.001	80.004	19.994	103.212	20.183	-4.592	0.506
832.000	495.063	80.004	19.994	103.192	20.187	-4.836	0.543
834.000	496.074	80.003	19.995	103.203	20.189	-4.967	0.540
836.000	497.063	80.005	19.995	103.201	20.186	-4.764	0.487
838.000	498.092	80.004	19.994	103.205	20.187	-4.858	0.500
840.000	499.118	80.004	19.994	103.195	20.188	-4.935	0.519
842.000	500.158	80.004	19.994	103.202	20.187	-4.837	0.543
844.000	501.168	80.007	19.993	103.205	20.191	-5.093	0.499
846.001	502.164	80.005	19.993	103.199	20.186	-4.789	0.501
848.000	503.192	80.008	19.994	103.194	20.188	-4.909	0.478
850.000	504.251	80.007	19.994	103.205	20.190	-5.038	0.560
852.000	505.245	80.006	19.993	103.199	20.191	-5.121	0.516
854.000	506.250	80.004	19.995	103.181	20.186	-4.762	0.493
856.000	507.261	80.005	19.994	103.182	20.188	-4.921	0.510
858.000	508.304	80.006	19.994	103.190	20.189	-4.981	0.514
860.000	509.299	80.006	19.993	103.197	20.190	-5.060	0.490
862.000	510.335	80.006	19.994	103.203	20.192	-5.170	0.547
864.000	511.329	80.005	19.994	103.204	20.191	-5.102	0.528
866.000	512.355	80.008	19.995	103.209	20.192	-5.189	0.516
868.000	513.340	80.007	19.995	103.199	20.193	-5.274	0.518
870.001	514.390	80.008	19.995	103.187	20.195	-5.342	0.528
872.000	515.382	80.006	19.994	103.181	20.190	-5.040	0.492
874.000	516.450	80.004	19.995	103.178	20.193	-5.215	0.534
876.000	517.421	80.004	19.994	103.189	20.195	-5.375	0.525
878.000	518.431	80.003	19.994	103.178	20.195	-5.405	0.493
880.000	519.452	80.003	19.994	103.183	20.192	-5.152	0.525
882.000	520.463	80.005	19.994	103.192	20.190	-5.025	0.511
884.000	521.449	80.003	19.994	103.191	20.193	-5.217	0.474
886.000	522.468	80.004	19.995	103.191	20.193	-5.255	0.512
888.000	523.462	80.005	19.995	103.185	20.191	-5.087	0.461
890.000	524.472	80.005	19.995	103.181	20.191	-5.089	0.519
892.000	525.434	80.004	19.995	103.177	20.195	-5.367	0.486
894.000	526.407	80.005	19.994	103.185	20.189	-4.956	0.495
896.000	527.354	80.005	19.994	103.177	20.191	-5.109	0.472
898.000	528.336	80.004	19.994	103.178	20.193	-5.244	0.472
900.000	529.293	80.003	19.995	103.184	20.190	-5.063	0.488
902.000	530.224	80.004	19.995	103.179	20.190	-5.066	0.467
904.000	531.229	80.003	19.995	103.179	20.189	-4.977	0.477
906.000	532.194	80.005	19.995	103.176	20.193	-5.213	0.476
908.000	533.152	80.003	19.994	103.179	20.192	-5.186	0.472
910.000	534.091	80.006	19.995	103.176	20.192	-5.145	0.487
912.000	535.083	80.005	19.994	103.179	20.193	-5.272	0.479
914.000	536.064	80.004	19.995	103.197	20.194	-5.318	0.483
916.000	537.039	80.004	19.993	103.189	20.195	-5.392	0.452
918.000	538.031	80.007	19.994	103.196	20.198	-5.575	0.480
920.000	539.040	80.007	19.994	103.196	20.199	-5.621	0.498
922.000	540.067	80.006	19.994	103.186	20.194	-5.314	0.504
924.000	541.031	80.005	19.994	103.191	20.199	-5.652	0.491
926.000	541.993	80.007	19.994	103.188	20.198	-5.563	0.483
928.000	543.041	80.005	19.995	103.200	20.201	-5.768	0.521
930.000	544.022	80.008	19.995	103.189	20.199	-5.632	0.488
932.000	545.049	80.006	19.995	103.189	20.195	-5.374	0.497
934.000	546.044	80.007	19.995	103.187	20.196	-5.449	0.516
936.000	547.013	80.007	19.993	103.191	20.198	-5.582	0.504
938.000	548.032	80.006	19.994	103.189	20.198	-5.549	0.477
940.000	549.071	80.006	19.994	103.201	20.197	-5.495	0.518
942.000	550.090	80.007	19.993	103.202	20.199	-5.615	0.518
944.000	551.081	80.010	19.994	103.190	20.196	-5.418	0.507
946.000	552.087	80.008	19.993	103.187	20.194	-5.285	0.518
948.000	553.109	80.008	19.993	103.188	20.198	-5.551	0.538
950.000	554.142	80.008	19.995	103.182	20.198	-5.563	0.522
952.000	555.127	80.005	19.994	103.193	20.196	-5.471	0.506
954.000	556.158	80.004	19.995	103.192	20.200	-5.701	0.524
956.000	557.126	80.004	19.994	103.192	20.200	-5.711	0.478
958.000	558.091	80.005	19.995	103.193	20.199	-5.664	0.491
960.000	559.127	80.004	19.994	103.192	20.200	-5.687	0.512
962.000	560.150	80.005	19.995	103.188	20.200	-5.703	0.538
964.000	561.107	80.005	19.995	103.186	20.197	-5.507	0.471
966.000	562.120	80.006	19.994	103.186	20.199	-5.634	0.497
968.000	563.131	80.006	19.996	103.179	20.202	-5.854	0.492
970.000	564.115	80.006	19.994	103.191	20.201	-5.757	0.508
972.000	565.102	80.006	19.994	103.185	20.197	-5.486	0.468
974.000	566.112	80.006	19.995	103.175	20.197	-5.496	0.509
976.000	567.136	80.006	19.995	103.184	20.197	-5.497	0.519
978.000	568.105	80.005	19.995	103.203	20.199	-5.657	0.488
980.000	569.104	80.002	19.995	103.197	20.201	-5.773	0.479
982.000	570.125	80.001	19.994	103.181	20.201	-5.778	0.501
984.000	571.118	80.004	19.996	103.183	20.199	-5.670	0.490
986.000	572.090	80.003	19.995	103.183	20.200	-5.741	0.500
988.000	573.114	80.003	19.996	103.181	20.202	-5.860	0.491
990.000	574.199	80.005	19.995	103.185	20.200	-5.724	0.542
992.000	575.205	80.006	19.995	103.175	20.197	-5.493	0.510
994.000	576.226	80.005	19.994	103.193	20.201	-5.747	0.503
996.000	577.277	80.007	19.994	103.182	20.201	-5.787	0.491
998.000	578.278	80.007	19.996	103.185	20.202	-5.858	0.516
1000.000	579.295	80.006	19.994	103.190	20.207	-6.149	0.507
1002.000	580.303	80.006	19.993	103.184	20.207	-6.152	0.533
1004.000	581.327	80.005	19.993	103.196	20.206	-6.127	0.489
1006.000	582.328	80.005	19.994	103.202	20.203	-5.921	0.499
1008.000	583.382	80.005	19.994	103.193	20.204	-5.947	0.521
1010.000	584.403	80.005	19.995	103.183	20.204	-5.997	0.490
1012.000	585.429	80.005	19.995	103.188	20.202	-5.839	0.544
1014.000	586.472	80.006	19.994	103.192	20.202	-5.879	0.517
1016.000	587.481	80.006	19.994	103.182	20.204	-5.950	0.489
1018.000	588.489	80.006	19.994	103.186	20.204	-5.994	0.507
1020.000	589.503	80.005	19.994	103.209	20.200	-5.716	0.525
1022.000	590.556	80.008	19.994	103.193	20.200	-5.709	0.521
1024.001	591.527	80.008	19.994	103.181	20.203	-5.937	0.482
1026.000	592.564	80.007	19.994	103.188	20.201	-5.799	0.493
1028.000	593.606	80.008	19.993	103.178	20.202	-5.856	0.521
1030.001	594.658	80.006	19.994	103.178	20.203	-5.910	0.548
1032.000	595.682	80.006	19.993	103.177	20.200	-5.707	0.532
1034.000	596.736	80.006	19.994	103.188	20.202	-5.816	0.516
1036.000	597.704	80.005	19.994	103.185	20.201	-5.770	0.491
1038.000	598.777	80.005	19.994	103.189	20.204	-5.978	0.532
1040.000	599.743	80.005	19.994	103.198	20.202	-5.829	0.465
1042.000	600.809	80.005	19.995	103.204	20.206	-6.142	0.516
1044.000	601.824	80.005	19.994	103.184	20.203	-5.944	0.502
1046.000	602.886	80.005	19.994	103.192	20.205	-6.079	0.530
1048.001	603.933	80.004	19.994	103.192	20.207	-6.181	0.505
1050.000	604.991	80.005	19.994	103.189	20.206	-6.129	0.533
1052.000	606.019	80.005	19.994	103.192	20.207	-6.209	0.520
1054.000	607.052	80.005	19.994	103.189	20.205	-6.053	0.505
1056.000	608.152	80.007	19.994	103.208	20.205	-6.047	0.564
1058.000	609.138	80.006	19.995	103.200	20.205	-6.048	0.513
1060.000	610.197	80.006	19.994	103.195	20.205	-6.060	0.503
1062.001	611.229	80.004	19.994	103.195	20.207	-6.148	0.503
1064.001	612.276	80.005	19.995	103.189	20.206	-6.097	0.510
1066.000	613.276	80.006	19.994	103.180	20.206	-6.114	0.507
1068.000	614.297	80.004	19.996	103.179	20.206	-6.139	0.504
1070.000	615.329	80.005	19.995	103.180	20.207	-6.169	0.512
1072.001	616.372	80.004	19.995	103.187	20.208	-6.243	0.528
1074.000	617.380	80.005	19.995	103.213	20.206	-6.091	0.513
1076.001	618.378	80.006	19.995	103.189	20.204	-5.951	0.521
1078.000	619.367	80.005	19.996	103.189	20.207	-6.158	0.495
1080.000	620.431	80.006	19.995	103.191	20.202	-5.817	0.538
1082.000	621.410	80.005	19.995	103.187	20.205	-6.072	0.493
1084.000	622.439	80.006	19.995	103.193	20.206	-6.090	0.503
1086.000	623.429	80.005	19.994	103.199	20.204	-5.998	0.496
1088.000	624.417	80.006	19.994	103.182	20.207	-6.166	0.498
1090.000	625.404	80.005	19.994	103.197	20.206	-6.141	0.494
1092.001	626.377	80.005	19.993	103.192	20.206	-6.118	0.516
1094.001	627.388	80.006	19.994	103.187	20.206	-6.106	0.494
1096.000	628.411	80.006	19.994	103.188	20.205	-6.038	0.537
1098.000	629.433	80.006	19.994	103.186	20.206	-6.082	0.514
1100.000	630.430	80.006	19.994	103.199	20.208	-6.278	0.520
1102.000	631.448	80.008	19.994	103.204	20.208	-6.274	0.525
1104.001	632.488	80.008	19.993	103.196	20.210	-6.352	0.509
1106.001	633.494	80.008	19.994	103.204	20.206	-6.106	0.488
1108.000	634.502	80.008	19.994	103.202	20.207	-6.206	0.517
1110.000	635.532	80.006	19.994	103.198	20.210	-6.366	0.497
1112.001	636.579	80.008	19.993	103.203	20.210	-6.382	0.530
1114.001	637.599	80.005	19.994	103.194	20.211	-6.424	0.554
1116.000	638.609	80.006	19.994	103.191	20.207	-6.149	0.527
1118.000	639.669	80.003	19.994	103.210	20.209	-6.300	0.527
1120.000	640.684	80.004	19.993	103.208	20.210	-6.385	0.523
1122.000	641.681	80.005	19.994	103.207	20.209	-6.328	0.496
1124.000	642.758	80.006	19.993	103.195	20.211	-6.475	0.522
1126.000	643.746	80.006	19.994	103.202	20.212	-6.487	0.497
1128.000	644.766	80.007	19.993	103.208	20.211	-6.457	0.500
1130.000	645.676	80.006	19.994	103.206	20.212	-6.547	0.470
1132.001	646.826	80.005	19.994	103.197	20.210	-6.356	0.485
1134.000	647.832	80.026	19.997	103.202	20.210	-6.410	0.496
1136.000	648.800	80.004	19.995	103.209	20.213	-6.607	0.489
1138.001	649.874	80.005	19.995	103.190	20.211	-6.476	0.521
1140.000	650.895	80.004	19.994	103.181	20.212	-6.531	0.511
1142.000	651.879	80.004	19.996	103.180	20.211	-6.477	0.492
1144.001	652.888	80.002	19.995	103.195	20.212	-6.494	0.514
1146.000	653.922	80.004	19.995	103.199	20.212	-6.530	0.522
1148.000	654.931	80.003	19.993	103.190	20.214	-6.655	0.516
1150.000	655.946	80.004	19.994	103.185	20.211	-6.425	0.525
1152.001	656.919	80.004	19.994	103.205	20.212	-6.489	0.468
1154.000	657.909	80.005	19.995	103.218	20.215	-6.707	0.479
1156.001	658.920	80.005	19.994	103.212	20.214	-6.673	0.493
1158.001	659.939	80.007	19.995	103.196	20.212	-6.522	0.504
1160.001	660.910	80.006	19.993	103.206	20.210	-6.410	0.501
1162.000	661.877	80.008	19.995	103.207	20.214	-6.623	0.456
1164.000	662.902	80.006	19.995	103.204	20.211	-6.427	0.453
1166.000	663.889	80.005	19.996	103.203	20.211	-6.425	0.511
1168.000	664.880	80.005	19.997	103.195	20.210	-6.353	0.486
1170.000	665.875	80.005	19.995	103.202	20.213	-6.587	0.505
1172.001	666.832	80.006	19.994	103.210	20.214	-6.659	0.486
1174.000	667.829	80.006	19.995	103.201	20.212	-6.502	0.492
1176.001	668.817	80.005	19.995	103.203	20.216	-6.773	0.503
1178.000	669.817	80.007	19.994	103.202	20.216	-6.799	0.469
1180.000	670.771	80.006	19.993	103.200	20.215	-6.710	0.489
1182.000	671.786	80.008	19.993	103.201	20.213	-6.551	0.450
1184.000	672.772	80.009	19.994	103.196	20.212	-6.523	0.492
1186.000	673.767	80.008	19.995	103.194	20.215	-6.718	0.479
1188.000	674.806	80.007	19.994	103.198	20.215	-6.730	0.490
1190.000	675.815	80.006	19.995	103.207	20.215	-6.737	0.534
1192.000	676.795	80.006	19.994	103.181	20.217	-6.872	0.513
1194.000	677.773	80.005	19.995	103.196	20.214	-6.639	0.487
1196.000	678.813	80.005	19.993	103.202	20.213	-6.550	0.517
1198.000	679.831	80.003	19.994	103.204	20.213	-6.611	0.550
1200.000	680.844	80.004	19.994	103.215	20.215	-6.707	0.517
1202.000	681.886	80.005	19.995	103.213	20.209	-6.322	0.534
1204.000	682.902	80.005	19.994	103.201	20.212	-6.492	0.526
1206.000	683.927	80.004	19.994	103.198	20.211	-6.418	0.502
1208.000	684.907	80.005	19.993	103.196	20.214	-6.643	0.506
1210.000	685.960	80.006	19.994	103.198	20.217	-6.868	0.512
1212.000	686.963	80.006	19.994	103.202	20.214	-6.628	0.494
1214.000	688.001	80.006	19.994	103.200	20.213	-6.604	0.506
1216.000	689.045	80.006	19.994	103.213	20.216	-6.812	0.573
1218.000	689.997	80.006	19.993	103.209	20.216	-6.775	0.493
1220.001	691.039	80.005	19.993	103.209	20.215	-6.720	0.531
1222.001	692.047	80.006	19.994	103.204	20.217	-6.867	0.528
1224.000	693.054	80.005	19.995	103.204	20.213	-6.591	0.514
1226.000	694.084	80.004	19.994	103.196	20.217	-6.875	0.506
1228.000	695.088	80.006	19.995	103.194	20.220	-7.036	0.503
1230.000	696.109	80.004	19.996	103.202	20.217	-6.868	0.510
1232.000	697.140	80.003	19.994	103.202	20.215	-6.735	0.547
1234.000	698.160	80.006	19.995	103.203	20.215	-6.700	0.507
1236.001	699.201	80.004	19.995	103.207	20.212	-6.545	0.538
1238.000	700.212	80.007	19.993	103.206	20.211	-6.449	0.514
1240.001	701.320	80.006	19.994	103.213	20.213	-6.605	0.533
1242.000	702.433	80.006	19.995	103.213	20.213	-6.579	0.536
1244.000	703.537	80.006	19.995	103.199	20.214	-6.637	0.531
1246.000	704.632	80.007	19.995	103.208	20.214	-6.673	0.549
1248.001	705.741	80.006	19.994	103.212	20.218	-6.952	0.571
1250.001	706.830	80.005	19.995	103.194	20.214	-6.676	0.564
1252.000	707.934	80.005	19.996	103.183	20.217	-6.861	0.545
1254.001	709.032	80.005	19.995	103.201	20.217	-6.881	0.564
1256.000	710.118	80.005	19.996	103.180	20.216	-6.781	0.545
1258.001	711.240	80.007	19.995	103.192	20.216	-6.797	0.570
1260.000	712.332	80.007	19.994	103.185	20.216	-6.800	0.551
1262.000	713.401	80.007	19.996	103.182	20.217	-6.828	0.533
1264.000	714.485	80.007	19.995	103.186	20.218	-6.902	0.521
1266.000	715.542	80.006	19.995	103.177	20.218	-6.888	0.541
1268.001	716.586	80.006	19.994	103.187	20.220	-7.032	0.532
1270.000	717.618	80.005	19.995	103.184	20.215	-6.736	0.533
1272.000	718.646	80.005	19.994	103.191	20.219	-6.975	0.509
1274.000	719.689	80.003	19.994	103.194	20.218	-6.903	0.491
1276.000	720.656	80.004	19.994	103.184	20.221	-7.127	0.489
1278.001	721.705	80.004	19.993	103.181	20.219	-6.968	0.511
1280.000	722.686	80.004	19.994	103.192	20.219	-6.983	0.471
1282.000	723.722	80.005	19.994	103.188	20.219	-7.016	0.486
1284.000	724.681	80.004	19.994	103.184	20.222	-7.162	0.459
1286.001	725.754	80.003	19.995	103.181	20.222	-7.186	0.493
1288.000	726.727	80.005	19.996	103.165	20.222	-7.209	0.453
1290.000	727.743	80.004	19.995	103.175	20.223	-7.271	0.506
1292.001	728.726	80.005	19.995	103.172	20.219	-6.998	0.493
1294.000	729.765	80.005	19.994	103.164	20.223	-7.266	0.505
1296.001	730.768	80.004	19.994	103.173	20.220	-7.070	0.524
1298.000	731.805	80.006	19.995	103.174	20.220	-7.062	0.531
1300.000	732.815	80.004	19.994	103.174	20.220	-7.022	0.500
1302.001	733.846	80.006	19.995	103.174	20.219	-6.969	0.497
1304.000	734.887	80.004	19.994	103.176	20.220	-7.083	0.507
1306.000	735.835	80.004	19.994	103.172	20.221	-7.135	0.484
1308.001	736.859	80.004	19.993	103.177	20.222	-7.170	0.531
1310.000	737.842	80.005	19.994	103.180	20.223	-7.232	0.487
1312.000	738.836	80.005	19.995	103.175	20.223	-7.223	0.487
1314.000	739.849	80.006	19.995	103.176	20.223	-7.243	0.516
1316.000	740.919	80.006	19.994	103.174	20.227	-7.495	0.553
1318.000	741.899	80.006	19.995	103.175	20.223	-7.258	0.524
1320.000	742.931	80.006	19.995	103.174	20.226	-7.442	0.513
1321.000	743.467	80.006	19.995	103.175	20.226	-7.448	0.530