File: 01_Data/Hemp_Sheets/STA/N2/10K_min/Hemp_Sheet_STA_N2_10KData_22274_R2.csv
##Temp./Â°C,Time/min,DSC(subtr.2)/(mW/mg),Mass loss(subtr.2)/mg,Sensit./(uV/mW)
49.647,10.01,0.01010002,0.00658,1.06053
50.247,10.73473,0.04204386,0.00299982,1.06041
50.847,10.9244,0.06738968,0.004800495,1.06028
51.447,11.0655,0.08936527,0.007685964,1.06016
52.047,11.18375,0.10517,0.005268487,1.06003
52.647,11.28922,0.11837,0.004654237,1.05991
53.247,11.3857,0.13397,0.005216733,1.05978
53.847,11.47569,0.14771,0.007904364,1.05965
54.447,11.56171,0.15619,0.00978439,1.05952
55.047,11.64295,0.16711,0.008340696,1.0594
55.647,11.72153,0.17731,0.005558756,1.05927
56.247,11.79757,0.18473,0.00386823,1.05914
56.847,11.87266,0.19159,0.002134553,1.05901
57.447,11.946,0.19969,0.0001704315,1.05888
58.047,12.0177,0.2061,0.001390926,1.05874
58.647,12.08817,0.21058,0.00555211,1.05861
59.247,12.1578,0.21696,0.00437038,1.05848
59.847,12.2276,0.2214,0.002899717,1.05834
60.447,12.29607,0.2244,0.003080063,1.05821
61.047,12.36397,0.22923,0.004998707,1.05807
61.647,12.43116,0.2312,0.004292545,1.05794
62.247,12.4979,0.23584,0.001620054,1.0578
62.847,12.5642,0.23878,0.0004075606,1.05766
63.447,12.63017,0.2429,0.0003295367,1.05753
64.047,12.69604,0.24593,0.001786893,1.05739
64.647,12.76164,0.2492,0.00469951,1.05725
65.247,12.82726,0.25266,0.00745002,1.05711
65.847,12.8924,0.25483,0.00585744,1.05697
66.447,12.95701,0.25712,0.002436745,1.05683
67.047,13.0219,0.25775,0.000881528,1.05669
67.647,13.08652,0.2633,-0.0003514657,1.05654
68.247,13.15107,0.26456,-0.000961208,1.0564
68.847,13.2152,0.26497,0.00304812,1.05626
69.447,13.27926,0.26931,0.002962513,1.05611
70.047,13.343,0.27202,0.0002372543,1.05597
70.647,13.40676,0.27361,0.000456722,1.05582
71.247,13.47056,0.27415,0.000365413,1.05567
71.847,13.5343,0.27765,0.00162796,1.05553
72.447,13.5977,0.27866,0.0002682043,1.05538
73.047,13.6608,0.28032,0.0005505548,1.05523
73.647,13.72386,0.28542,0.0005830986,1.05508
74.247,13.787,0.28882,0.0005535147,1.05493
74.847,13.85015,0.29059,-0.0007603163,1.05478
75.447,13.9129,0.29276,-0.000891756,1.05463
76.047,13.9757,0.29616,-0.0006856,1.05448
76.647,14.03837,0.29556,-0.001964851,1.05433
77.247,14.10099,0.29924,-0.00207871,1.05417
77.847,14.1634,0.30068,-0.003383386,1.05402
78.447,14.22536,0.30158,-0.00471174,1.05386
79.047,14.2874,0.3029,-0.00307511,1.05371
79.647,14.3493,0.30561,-0.00163668,1.05355
80.247,14.41116,0.30978,-0.000337651,1.0534
80.847,14.47309,0.30864,-0.000351666,1.05324
81.447,14.5346,0.30944,-0.001025145,1.05308
82.047,14.59644,0.31243,-0.001309915,1.05292
82.647,14.6578,0.31208,-0.00246517,1.05277
83.247,14.71902,0.3123,-0.002630011,1.05261
83.847,14.77997,0.31336,-0.003287163,1.05245
84.447,14.84075,0.31524,-0.005298469,1.05228
85.047,14.9015,0.31801,-0.006580499,1.05212
85.647,14.96226,0.31873,-0.00562566,1.05196
86.247,15.0227,0.32164,-0.00691012,1.0518
86.847,15.08341,0.32021,-0.006588799,1.05163
87.447,15.14362,0.32274,-0.005075201,1.05147
88.047,15.20418,0.32365,-0.004811646,1.05131
88.647,15.26481,0.32267,-0.003839395,1.05114
89.247,15.3254,0.32272,-0.00374136,1.05097
89.847,15.3857,0.32169,-0.006493815,1.05081
90.447,15.4458,0.32384,-0.00777853,1.05064
91.047,15.50578,0.32247,-0.01007422,1.05047
91.647,15.5658,0.3227,-0.01063416,1.0503
92.247,15.6255,0.32342,-0.01010894,1.05013
92.847,15.6854,0.32474,-0.009377309,1.04996
93.447,15.7451,0.32284,-0.008009729,1.04979
94.047,15.80463,0.32344,-0.007714694,1.04962
94.647,15.86413,0.3231,-0.00671568,1.04945
95.247,15.9238,0.32092,-0.006670383,1.04928
95.847,15.9832,0.32108,-0.00826124,1.04911
96.447,16.0428,0.32314,-0.00996667,1.04893
97.047,16.10216,0.32119,-0.01009883,1.04876
97.647,16.161,0.32038,-0.01031607,1.04858
98.247,16.21985,0.32046,-0.01064001,1.04841
98.847,16.27907,0.31829,-0.01064023,1.04823
99.447,16.33824,0.31937,-0.009341674,1.04805
100.047,16.39754,0.31585,-0.009330128,1.04788
100.647,16.45609,0.31576,-0.01078673,1.0477
101.247,16.515,0.31657,-0.00997969,1.04752
101.847,16.57391,0.31616,-0.00997495,1.04734
102.447,16.63324,0.31452,-0.01130656,1.04716
103.047,16.69262,0.31279,-0.01269734,1.04698
103.647,16.7514,0.31388,-0.01405106,1.0468
104.247,16.81009,0.3124,-0.01402502,1.04662
104.847,16.86887,0.31083,-0.01115602,1.04643
105.447,16.92746,0.31039,-0.009866187,1.04625
106.047,16.98612,0.30928,-0.009869998,1.04607
106.647,17.0448,0.30859,-0.009869918,1.04588
107.247,17.1036,0.30787,-0.01044686,1.0457
107.847,17.16239,0.30824,-0.009883113,1.04551
108.447,17.22121,0.30543,-0.007794083,1.04532
109.047,17.28005,0.30296,-0.007019806,1.04514
109.647,17.33858,0.30338,-0.007029245,1.04495
110.247,17.3971,0.30236,-0.01061617,1.04476
110.847,17.4556,0.30284,-0.01522394,1.04457
111.447,17.51407,0.3029,-0.01386463,1.04438
112.047,17.57266,0.30205,-0.0122896,1.04419
112.647,17.6312,0.30449,-0.01564313,1.044
113.247,17.6897,0.30156,-0.01556898,1.04381
113.847,17.7481,0.29997,-0.01272347,1.04362
114.447,17.80667,0.30137,-0.009376161,1.04343
115.047,17.86508,0.2995,-0.009094128,1.04323
115.647,17.92353,0.29998,-0.009223894,1.04304
116.247,17.98178,0.29928,-0.009623035,1.04285
116.847,18.04,0.29702,-0.01052993,1.04265
117.447,18.09831,0.29966,-0.01303848,1.04245
118.047,18.15675,0.30007,-0.01305698,1.04226
118.647,18.21503,0.29785,-0.01415052,1.04206
119.247,18.2734,0.29875,-0.01264771,1.04186
119.847,18.33163,0.2995,-0.01135354,1.04167
120.447,18.39002,0.3015,-0.01261,1.04147
121.047,18.4484,0.29904,-0.01240385,1.04127
121.647,18.50681,0.29802,-0.01129982,1.04107
122.247,18.5647,0.29718,-0.01267841,1.04087
122.847,18.62272,0.29797,-0.01128955,1.04067
123.447,18.68109,0.29817,-0.01129518,1.04046
124.047,18.7392,0.29693,-0.01234976,1.04026
124.647,18.79784,0.29692,-0.009177591,1.04006
125.247,18.85606,0.29716,-0.008329795,1.03985
125.847,18.91429,0.29664,-0.00832958,1.03965
126.447,18.97275,0.29731,-0.009499924,1.03945
127.047,19.0311,0.29973,-0.01008266,1.03924
127.647,19.0895,0.2991,-0.01097004,1.03903
128.247,19.14769,0.29992,-0.0109679,1.03883
128.847,19.20584,0.29987,-0.01072814,1.03862
129.447,19.26397,0.29977,-0.00932721,1.03841
130.047,19.32165,0.29902,-0.008011444,1.0382
130.647,19.3794,0.30025,-0.008010001,1.03799
131.247,19.43711,0.29951,-0.008018866,1.03778
131.847,19.49531,0.30216,-0.009412196,1.03757
132.447,19.55358,0.30086,-0.009624425,1.03736
133.047,19.61177,0.30159,-0.009974379,1.03715
133.647,19.66998,0.3021,-0.01096007,1.03694
134.247,19.728,0.30153,-0.01030801,1.03673
134.847,19.78649,0.30134,-0.01032366,1.03651
135.447,19.84446,0.30266,-0.01163364,1.0363
136.047,19.90231,0.30482,-0.01163001,1.03608
136.647,19.96049,0.30388,-0.01163597,1.03587
137.247,20.0185,0.3063,-0.01043535,1.03565
137.847,20.0764,0.30829,-0.009556255,1.03544
138.447,20.13436,0.3064,-0.00967316,1.03522
139.047,20.1923,0.30455,-0.009658325,1.035
139.647,20.25018,0.30652,-0.01096857,1.03478
140.247,20.30819,0.30543,-0.01097006,1.03457
140.847,20.36596,0.30971,-0.01129778,1.03435
141.447,20.4238,0.30805,-0.01194923,1.03413
142.047,20.48152,0.30738,-0.01096969,1.03391
142.647,20.53931,0.31105,-0.00967359,1.03369
143.247,20.59675,0.31002,-0.009650047,1.03346
143.847,20.65448,0.31095,-0.009649971,1.03324
144.447,20.71225,0.3086,-0.01019913,1.03302
145.047,20.76986,0.31075,-0.01065139,1.03279
145.647,20.82776,0.31108,-0.00965617,1.03257
146.247,20.8853,0.31155,-0.007045206,1.03235
146.847,20.94274,0.31298,-0.007016217,1.03212
147.447,21.00028,0.31346,-0.008339709,1.03189
148.047,21.0577,0.31414,-0.008167357,1.03167
148.647,21.11485,0.3153,-0.007496915,1.03144
149.247,21.17246,0.31457,-0.008010444,1.03121
149.847,21.23005,0.31641,-0.007020483,1.03099
150.447,21.2878,0.31578,-0.007019993,1.03076
151.047,21.34548,0.31899,-0.007029055,1.03053
151.647,21.40315,0.31659,-0.007340519,1.0303
152.247,21.46041,0.31779,-0.008662936,1.03007
152.847,21.518,0.31938,-0.01130203,1.02984
153.447,21.57554,0.31977,-0.01129999,1.0296
154.047,21.633,0.32119,-0.0112841,1.02937
154.647,21.69099,0.31917,-0.009974924,1.02914
155.247,21.74849,0.32239,-0.008651333,1.02891
155.847,21.80604,0.32053,-0.007686613,1.02867
156.447,21.86361,0.32027,-0.009365276,1.02844
157.047,21.92127,0.32252,-0.009964041,1.0282
157.647,21.97855,0.32275,-0.009000311,1.02797
158.247,22.0362,0.32405,-0.00900001,1.02773
158.847,22.09371,0.32551,-0.009026745,1.02749
159.447,22.15136,0.32645,-0.00757967,1.02725
160.047,22.20887,0.32543,-0.00732264,1.02702
160.647,22.2664,0.32542,-0.008659266,1.02678
161.247,22.32386,0.32501,-0.008660103,1.02654
161.847,22.38138,0.32683,-0.008755354,1.0263
162.447,22.43917,0.32604,-0.009980012,1.02606
163.047,22.49675,0.32655,-0.0103891,1.02582
163.647,22.55431,0.32942,-0.01259228,1.02558
164.247,22.61198,0.3292,-0.0107802,1.02533
164.847,22.66964,0.32817,-0.009342803,1.02509
165.447,22.7272,0.33141,-0.008989964,1.02485
166.047,22.7847,0.33118,-0.00902125,1.0246
166.647,22.84221,0.33245,-0.008712177,1.02436
167.247,22.89958,0.33044,-0.007327424,1.02411
167.847,22.95711,0.33212,-0.008670264,1.02387
168.447,23.01451,0.33449,-0.007940819,1.02362
169.047,23.0719,0.33547,-0.008009979,1.02338
169.647,23.12944,0.33384,-0.00801,1.02313
170.247,23.18688,0.33577,-0.008010008,1.02288
170.847,23.24455,0.33483,-0.008059267,1.02263
171.447,23.30198,0.33555,-0.009214614,1.02238
172.047,23.35955,0.33443,-0.00723619,1.02213
172.647,23.417,0.33686,-0.00581126,1.02188
173.247,23.47445,0.33887,-0.00581,1.02163
173.847,23.53196,0.33921,-0.005810055,1.02138
174.447,23.58908,0.33919,-0.007066495,1.02113
175.047,23.64619,0.34218,-0.008656667,1.02088
175.647,23.7034,0.34395,-0.009335569,1.02062
176.247,23.76088,0.34237,-0.00997994,1.02037
176.847,23.81821,0.34282,-0.00998,1.02012
177.447,23.87555,0.34301,-0.009979877,1.01986
178.047,23.9328,0.34494,-0.00976878,1.01961
178.647,23.99009,0.34382,-0.006800344,1.01935
179.247,24.04749,0.34634,-0.006793486,1.0191
179.847,24.1048,0.3453,-0.008118225,1.01884
180.447,24.16212,0.34689,-0.008120002,1.01858
181.047,24.21924,0.34613,-0.008118548,1.01832
181.647,24.27662,0.34898,-0.009420702,1.01807
182.247,24.3341,0.34964,-0.009429994,1.01781
182.847,24.39174,0.3498,-0.009429787,1.01755
183.447,24.44905,0.35078,-0.009509429,1.01729
184.047,24.50628,0.35092,-0.009430126,1.01703
184.647,24.56355,0.35305,-0.00943,1.01676
185.247,24.62079,0.35205,-0.009429998,1.0165
185.847,24.6782,0.35113,-0.009434887,1.01624
186.447,24.73555,0.3533,-0.009379685,1.01598
187.047,24.79277,0.35378,-0.01060011,1.01571
187.647,24.85005,0.35235,-0.00942982,1.01545
188.247,24.90715,0.35347,-0.008064566,1.01519
188.847,24.96414,0.35308,-0.008120073,1.01492
189.447,25.02139,0.35436,-0.0082168,1.01465
190.047,25.0785,0.35493,-0.009968992,1.01439
190.647,25.13595,0.35525,-0.01074838,1.01412
191.247,25.1927,0.35484,-0.009437715,1.01385
191.847,25.24963,0.358,-0.00813938,1.01359
192.447,25.30669,0.35866,-0.00809402,1.01332
193.047,25.36378,0.35775,-0.008678338,1.01305
193.647,25.42139,0.35903,-0.009439321,1.01278
194.247,25.47867,0.3589,-0.01029811,1.01251
194.847,25.5358,0.35986,-0.01075002,1.01224
195.447,25.59313,0.36025,-0.01072321,1.01197
196.047,25.65016,0.36148,-0.009429954,1.0117
196.647,25.70723,0.36078,-0.00943,1.01142
197.247,25.76439,0.35951,-0.009429781,1.01115
197.847,25.82145,0.36262,-0.0108456,1.01088
198.447,25.8786,0.36359,-0.01501866,1.0106
199.047,25.93593,0.36323,-0.01375124,1.01033
199.647,25.99323,0.36213,-0.01237412,1.01006
200.247,26.0504,0.36394,-0.01143523,1.00978
200.847,26.10746,0.3625,-0.01109886,1.0095
201.447,26.1646,0.36243,-0.01205401,1.00923
202.047,26.22192,0.36399,-0.01207,1.00895
202.647,26.27934,0.36272,-0.01206983,1.00867
203.247,26.33662,0.36517,-0.01335259,1.0084
203.847,26.39385,0.36855,-0.01337999,1.00812
204.447,26.4512,0.36539,-0.01338,1.00784
205.047,26.50838,0.36745,-0.01338002,1.00756
205.647,26.56529,0.3667,-0.01249806,1.00728
206.247,26.62237,0.36701,-0.01207338,1.007
206.847,26.67939,0.3684,-0.01074926,1.00672
207.447,26.7365,0.36683,-0.01072407,1.00643
208.047,26.7939,0.36887,-0.00954083,1.00615
208.647,26.85107,0.36865,-0.00844971,1.00587
209.247,26.90829,0.36809,-0.008648644,1.00559
209.847,26.9655,0.36888,-0.01139816,1.0053
210.447,27.02282,0.3708,-0.01260819,1.00502
211.047,27.07985,0.37015,-0.01261,1.00473
211.647,27.13682,0.36998,-0.01266078,1.00445
212.247,27.1939,0.37137,-0.01128819,1.00416
212.847,27.25106,0.374,-0.01034564,1.00387
213.447,27.30824,0.37349,-0.01398651,1.00359
214.047,27.36535,0.37545,-0.01795786,1.0033
214.647,27.42245,0.37526,-0.01732884,1.00301
215.247,27.4797,0.37381,-0.01733,1.00272
215.847,27.5367,0.37647,-0.01733639,1.00243
216.447,27.5939,0.37665,-0.01720061,1.00214
217.047,27.6512,0.37412,-0.01453558,1.00185
217.647,27.7082,0.37639,-0.01459011,1.00156
218.247,27.76564,0.37592,-0.01384979,1.00127
218.847,27.82296,0.37682,-0.01360016,1.00098
219.447,27.88012,0.37672,-0.01360726,1.00069
220.047,27.9373,0.37678,-0.01492165,1.0004
220.647,27.99441,0.37645,-0.01624086,1.0001
221.247,28.05149,0.3784,-0.01754675,0.99981
221.847,28.1086,0.37816,-0.01887186,0.99951
222.447,28.16573,0.3803,-0.01886754,0.99922
223.047,28.22287,0.38136,-0.01919237,0.99892
223.647,28.27996,0.38274,-0.01918999,0.99863
224.247,28.3372,0.38255,-0.01988976,0.99833
224.847,28.39446,0.38319,-0.02021522,0.99804
225.447,28.45172,0.38311,-0.02018001,0.99774
226.047,28.50882,0.3848,-0.02018,0.99744
226.647,28.5659,0.383,-0.02017795,0.99714
227.247,28.6228,0.38357,-0.01862933,0.99684
227.847,28.6797,0.38454,-0.01732964,0.99654
228.447,28.73685,0.38524,-0.01733,0.99624
229.047,28.79417,0.38379,-0.01733154,0.99594
229.647,28.85146,0.38624,-0.01865455,0.99564
230.247,28.90874,0.38718,-0.01865,0.99534
230.847,28.96583,0.3874,-0.01865452,0.99504
231.447,29.0229,0.38891,-0.01963,0.99474
232.047,29.07995,0.38909,-0.02095051,0.99443
232.647,29.1372,0.39168,-0.02218209,0.99413
233.247,29.19422,0.39204,-0.02357426,0.99383
233.847,29.25122,0.39134,-0.02498221,0.99352
234.447,29.3083,0.38998,-0.02642761,0.99322
235.047,29.3655,0.39161,-0.02723699,0.99291
235.647,29.42285,0.39047,-0.02622004,0.99261
236.247,29.48,0.39295,-0.02489972,0.9923
236.847,29.5371,0.39222,-0.02488192,0.99199
237.447,29.5939,0.39311,-0.0242403,0.99169
238.047,29.651,0.39245,-0.02359916,0.99138
238.647,29.70802,0.39405,-0.02358958,0.99107
239.247,29.76527,0.39485,-0.02483929,0.99076
239.847,29.8227,0.39497,-0.02619563,0.99045
240.447,29.87957,0.39352,-0.02621863,0.99014
241.047,29.93703,0.39541,-0.02752889,0.98983
241.647,29.9941,0.39597,-0.02753019,0.98952
242.247,30.05125,0.39645,-0.02674327,0.98921
242.847,30.1086,0.39598,-0.02555006,0.9889
243.447,30.1658,0.39426,-0.02561795,0.98858
244.047,30.2233,0.3973,-0.03048078,0.98827
244.647,30.28053,0.39865,-0.03479799,0.98796
245.247,30.3378,0.39767,-0.03324411,0.98764
245.847,30.395,0.39983,-0.03323001,0.98733
246.447,30.4516,0.40199,-0.03323,0.98702
247.047,30.50862,0.40058,-0.03322154,0.9867
247.647,30.5654,0.39953,-0.03191675,0.98638
248.247,30.62293,0.40286,-0.03205211,0.98607
248.847,30.68054,0.40101,-0.03323008,0.98575
249.447,30.73805,0.40027,-0.0331892,0.98543
250.047,30.7954,0.4026,-0.03454912,0.98512
250.647,30.85274,0.40203,-0.03454779,0.9848
251.247,30.9099,0.40295,-0.03652077,0.98448
251.847,30.9671,0.40483,-0.03826821,0.98416
252.447,31.0242,0.4031,-0.03949666,0.98384
253.047,31.0814,0.40468,-0.03981813,0.98352
253.647,31.1387,0.40639,-0.04114177,0.9832
254.247,31.196,0.40926,-0.0411326,0.98288
254.847,31.2533,0.4095,-0.04242799,0.98256
255.447,31.3104,0.40999,-0.04245075,0.98224
256.047,31.3673,0.40982,-0.04159708,0.98191
256.647,31.4241,0.41122,-0.04245228,0.98159
257.247,31.48136,0.41251,-0.04323418,0.98127
257.847,31.5385,0.41063,-0.04530346,0.98094
258.447,31.59635,0.41272,-0.04540991,0.98062
259.047,31.6534,0.41106,-0.04544147,0.98029
259.647,31.71017,0.41154,-0.04673005,0.97997
260.247,31.76737,0.41232,-0.04672369,0.97964
260.847,31.8247,0.41621,-0.0480482,0.97932
261.447,31.8821,0.41466,-0.04804754,0.97899
262.047,31.93951,0.41329,-0.05002501,0.97866
262.647,31.99683,0.41501,-0.0519416,0.97833
263.247,32.0535,0.41604,-0.05330909,0.97801
263.847,32.1107,0.41888,-0.05465525,0.97768
264.447,32.16807,0.41624,-0.05597914,0.97735
265.047,32.22548,0.41706,-0.05625149,0.97702
265.647,32.28329,0.41767,-0.05646688,0.97669
266.247,32.3405,0.4182,-0.05626194,0.97636
266.847,32.39778,0.41849,-0.05695077,0.97603
267.447,32.45503,0.41912,-0.057647,0.9757
268.047,32.5122,0.4187,-0.05842541,0.97536
268.647,32.5695,0.41874,-0.05954621,0.97503
269.247,32.6269,0.41797,-0.06146017,0.9747
269.847,32.6843,0.41847,-0.06286742,0.97437
270.447,32.7415,0.4202,-0.06639166,0.97403
271.047,32.799,0.42004,-0.06929096,0.9737
271.647,32.85621,0.42071,-0.06876995,0.97336
272.247,32.9136,0.42308,-0.06782011,0.97303
272.847,32.97077,0.42246,-0.06897059,0.97269
273.447,33.0282,0.42137,-0.07041878,0.97236
274.047,33.08572,0.42023,-0.07172225,0.97202
274.647,33.14313,0.42157,-0.07438127,0.97168
275.247,33.2006,0.42353,-0.07568522,0.97135
275.847,33.2579,0.42412,-0.0770183,0.97101
276.447,33.31544,0.42366,-0.07830748,0.97067
277.047,33.37296,0.42383,-0.07831999,0.97033
277.647,33.4304,0.42301,-0.07832002,0.96999
278.247,33.4878,0.4253,-0.07975719,0.96965
278.847,33.545,0.42347,-0.0825996,0.96931
279.447,33.6023,0.42425,-0.08441853,0.96897
280.047,33.6597,0.42287,-0.08555999,0.96863
280.647,33.71703,0.42515,-0.08555988,0.96829
281.247,33.77455,0.42727,-0.0869786,0.96795
281.847,33.8319,0.42828,-0.09027902,0.96761
282.447,33.88927,0.42943,-0.09486382,0.96726
283.047,33.9468,0.42904,-0.09766109,0.96692
283.647,34.0042,0.42754,-0.09775193,0.96658
284.247,34.0615,0.42686,-0.09784621,0.96623
284.847,34.1188,0.42985,-0.10072,0.96589
285.447,34.1761,0.4296,-0.10321,0.96554
286.047,34.2335,0.42876,-0.10451,0.9652
286.647,34.2911,0.43191,-0.10726,0.96485
287.247,34.34819,0.43384,-0.1093,0.9645
287.847,34.40567,0.43353,-0.11187,0.96416
288.447,34.46285,0.4368,-0.11341,0.96381
289.047,34.52036,0.43827,-0.11472,0.96346
289.647,34.5779,0.43955,-0.11769,0.96311
290.247,34.63542,0.44102,-0.12013,0.96277
290.847,34.69277,0.44177,-0.12205,0.96242
291.447,34.75008,0.44438,-0.12482,0.96207
292.047,34.80748,0.44511,-0.12769,0.96172
292.647,34.8649,0.44601,-0.13087,0.96137
293.247,34.9224,0.44622,-0.13374,0.96102
293.847,34.97991,0.44831,-0.13666,0.96066
294.447,35.03731,0.44891,-0.13808,0.96031
295.047,35.09471,0.44987,-0.13942,0.95996
295.647,35.15214,0.45132,-0.1396,0.95961
296.247,35.2095,0.45534,-0.14188,0.95926
296.847,35.26701,0.45314,-0.14537,0.9589
297.447,35.32428,0.45505,-0.15214,0.95855
298.047,35.38175,0.4562,-0.15354,0.95819
298.647,35.4386,0.45918,-0.15453,0.95784
299.247,35.496,0.45901,-0.15722,0.95748
299.847,35.55343,0.46095,-0.16056,0.95713
300.447,35.61112,0.46091,-0.1628,0.95677
301.047,35.66928,0.46406,-0.16643,0.95642
301.647,35.727,0.46606,-0.16945,0.95606
302.247,35.7848,0.46757,-0.17263,0.9557
302.847,35.8425,0.46981,-0.17542,0.95535
303.447,35.90013,0.47149,-0.17869,0.95499
304.047,35.95772,0.47177,-0.18395,0.95463
304.647,36.01535,0.47544,-0.18742,0.95427
305.247,36.07305,0.47642,-0.19188,0.95391
305.847,36.1308,0.47818,-0.19484,0.95355
306.447,36.18868,0.48041,-0.19972,0.95319
307.047,36.2465,0.48417,-0.20419,0.95283
307.647,36.30435,0.48305,-0.20955,0.95247
308.247,36.3621,0.48802,-0.21197,0.95211
308.847,36.41969,0.49124,-0.21511,0.95175
309.447,36.47722,0.49494,-0.2187,0.95138
310.047,36.53471,0.49646,-0.2253,0.95102
310.647,36.59243,0.50055,-0.23114,0.95066
311.247,36.64991,0.50306,-0.23471,0.95029
311.847,36.70759,0.50686,-0.23736,0.94993
312.447,36.7652,0.50931,-0.24198,0.94957
313.047,36.8228,0.50967,-0.2463,0.9492
313.647,36.8805,0.51594,-0.25024,0.94884
314.247,36.93829,0.52093,-0.25648,0.94847
314.847,36.9959,0.52374,-0.26268,0.9481
315.447,37.05336,0.52852,-0.27192,0.94774
316.047,37.1109,0.53228,-0.2792,0.94737
316.647,37.16826,0.53477,-0.28636,0.947
317.247,37.22582,0.54022,-0.29374,0.94664
317.847,37.28303,0.5456,-0.3016,0.94627
318.447,37.34059,0.54871,-0.30641,0.9459
319.047,37.39837,0.55268,-0.31257,0.94553
319.647,37.45624,0.55985,-0.3175,0.94516
320.247,37.51406,0.56324,-0.32401,0.94479
320.847,37.57155,0.56685,-0.33294,0.94442
321.447,37.62907,0.57524,-0.34146,0.94405
322.047,37.6867,0.57852,-0.34656,0.94368
322.647,37.74453,0.5839,-0.35408,0.94331
323.247,37.8022,0.58776,-0.36094,0.94294
323.847,37.86005,0.59312,-0.36778,0.94256
324.447,37.9178,0.59944,-0.37705,0.94219
325.047,37.97547,0.60503,-0.38464,0.94182
325.647,38.03302,0.6088,-0.39414,0.94144
326.247,38.0907,0.61928,-0.40343,0.94107
326.847,38.1485,0.62534,-0.41159,0.9407
327.447,38.2063,0.63168,-0.42072,0.94032
328.047,38.26433,0.63851,-0.43168,0.93995
328.647,38.32206,0.64724,-0.44334,0.93957
329.247,38.3797,0.65444,-0.45163,0.9392
329.847,38.43735,0.66225,-0.46154,0.93882
330.447,38.49493,0.67128,-0.47164,0.93844
331.047,38.5529,0.68084,-0.4827,0.93807
331.647,38.61081,0.68823,-0.49368,0.93769
332.247,38.66863,0.69608,-0.5069,0.93731
332.847,38.72653,0.70674,-0.51736,0.93693
333.447,38.78423,0.71702,-0.52797,0.93655
334.047,38.84199,0.72568,-0.53981,0.93618
334.647,38.89945,0.73742,-0.55241,0.9358
335.247,38.95714,0.74735,-0.56759,0.93542
335.847,39.01505,0.7555,-0.58055,0.93504
336.447,39.07286,0.77025,-0.59621,0.93466
337.047,39.13127,0.78118,-0.61286,0.93428
337.647,39.18912,0.79588,-0.62796,0.93389
338.247,39.247,0.80818,-0.64353,0.93351
338.847,39.30462,0.81982,-0.65771,0.93313
339.447,39.36253,0.83448,-0.67507,0.93275
340.047,39.42033,0.849,-0.6911,0.93237
340.647,39.47817,0.86183,-0.70724,0.93198
341.247,39.53622,0.87756,-0.72339,0.9316
341.847,39.59407,0.89375,-0.74088,0.93121
342.447,39.65238,0.90993,-0.76058,0.93083
343.047,39.71029,0.92647,-0.78029,0.93045
343.647,39.76828,0.94092,-0.80104,0.93006
344.247,39.8262,0.96026,-0.82072,0.92968
344.847,39.88427,0.97804,-0.84283,0.92929
345.447,39.94247,0.99584,-0.86485,0.9289
346.047,40.00054,1.01868,-0.8878,0.92852
346.647,40.05871,1.04081,-0.90987,0.92813
347.247,40.11678,1.06022,-0.93348,0.92774
347.847,40.1747,1.08305,-0.95826,0.92735
348.447,40.23288,1.10465,-0.98238,0.92697
349.047,40.29079,1.12869,-1.00868,0.92658
349.647,40.3494,1.15226,-1.03482,0.92619
350.247,40.4075,1.17585,-1.06235,0.9258
350.847,40.466,1.20422,-1.08966,0.92541
351.447,40.5246,1.23145,-1.11946,0.92502
352.047,40.58305,1.25911,-1.14972,0.92463
352.647,40.64128,1.28757,-1.18096,0.92424
353.247,40.69937,1.3141,-1.21283,0.92385
353.847,40.75756,1.34302,-1.2446,0.92346
354.447,40.8159,1.3732,-1.27686,0.92306
355.047,40.87424,1.40439,-1.31326,0.92267
355.647,40.9326,1.43549,-1.35137,0.92228
356.247,40.991,1.46714,-1.38435,0.92189
356.847,41.0494,1.50239,-1.42232,0.92149
357.447,41.10752,1.53342,-1.46328,0.9211
358.047,41.1659,1.5669,-1.50882,0.92071
358.647,41.22421,1.60096,-1.54662,0.92031
359.247,41.28247,1.63169,-1.58618,0.91992
359.847,41.34091,1.66146,-1.62731,0.91952
360.447,41.39925,1.69571,-1.67123,0.91913
361.047,41.4574,1.72803,-1.71943,0.91873
361.647,41.51594,1.75863,-1.76553,0.91833
362.247,41.57439,1.78714,-1.81538,0.91794
362.847,41.63286,1.81398,-1.86253,0.91754
363.447,41.6914,1.83847,-1.91169,0.91714
364.047,41.75,1.86122,-1.95766,0.91674
364.647,41.80862,1.88415,-2.00685,0.91635
365.247,41.86696,1.90304,-2.05363,0.91595
365.847,41.9253,1.91924,-2.10676,0.91555
366.447,41.98385,1.93344,-2.15943,0.91515
367.047,42.04234,1.94274,-2.21324,0.91475
367.647,42.10072,1.94977,-2.27089,0.91435
368.247,42.15898,1.95382,-2.32474,0.91395
368.847,42.21743,1.94978,-2.37429,0.91355
369.447,42.27577,1.94416,-2.42512,0.91315
370.047,42.33413,1.93238,-2.48152,0.91275
370.647,42.39235,1.91573,-2.52885,0.91235
371.247,42.45055,1.89663,-2.58074,0.91194
371.847,42.5086,1.87029,-2.63041,0.91154
372.447,42.56682,1.83979,-2.68126,0.91114
373.047,42.625,1.80316,-2.72789,0.91074
373.647,42.68309,1.7577,-2.77719,0.91033
374.247,42.74112,1.71193,-2.8184,0.90993
374.847,42.79865,1.65655,-2.86057,0.90953
375.447,42.85651,1.59703,-2.90563,0.90912
376.047,42.91435,1.53695,-2.95271,0.90872
376.647,42.9724,1.46763,-2.99243,0.90831
377.247,43.03008,1.39139,-3.02826,0.90791
377.847,43.08777,1.3176,-3.064,0.9075
378.447,43.1453,1.23767,-3.09771,0.90709
379.047,43.20282,1.1528,-3.12753,0.90669
379.647,43.26035,1.07027,-3.15284,0.90628
380.247,43.3177,0.98704,-3.17676,0.90587
380.847,43.37516,0.90191,-3.20405,0.90547
381.447,43.43249,0.81759,-3.22576,0.90506
382.047,43.4899,0.73591,-3.24745,0.90465
382.647,43.54724,0.65706,-3.26012,0.90424
383.247,43.6047,0.58675,-3.27366,0.90383
383.847,43.6624,0.51728,-3.28375,0.90342
384.447,43.71996,0.45161,-3.29737,0.90301
385.047,43.77748,0.39385,-3.31011,0.9026
385.647,43.8349,0.33898,-3.31857,0.90219
386.247,43.89213,0.29201,-3.32526,0.90178
386.847,43.94958,0.25074,-3.33167,0.90137
387.447,44.00716,0.21705,-3.33851,0.90096
388.047,44.06483,0.18517,-3.34258,0.90055
388.647,44.12256,0.16015,-3.34522,0.90014
389.247,44.18039,0.14209,-3.34853,0.89973
389.847,44.23825,0.12512,-3.35455,0.89931
390.447,44.296,0.11537,-3.35468,0.8989
391.047,44.35376,0.10304,-3.35289,0.89849
391.647,44.41148,0.09456731,-3.35343,0.89807
392.247,44.4692,0.09139456,-3.35623,0.89766
392.847,44.52725,0.08376411,-3.35748,0.89725
393.447,44.58546,0.08040761,-3.3576,0.89683
394.047,44.64358,0.07875706,-3.35944,0.89642
394.647,44.70147,0.07388004,-3.36252,0.896
395.247,44.7596,0.0719194,-3.36254,0.89559
395.847,44.8175,0.07236401,-3.36254,0.89517
396.447,44.87551,0.07226175,-3.36323,0.89475
397.047,44.9338,0.07180163,-3.36481,0.89434
397.647,44.99208,0.06899716,-3.36676,0.89392
398.247,45.05084,0.06932119,-3.36725,0.8935
398.847,45.10926,0.06644047,-3.36725,0.89309
399.447,45.16771,0.06306454,-3.36725,0.89267
400.047,45.2261,0.06708929,-3.36725,0.89225
400.647,45.28452,0.06570421,-3.37057,0.89183
401.247,45.3429,0.06508236,-3.37198,0.89141
401.847,45.40124,0.06630204,-3.37689,0.89099
402.447,45.45964,0.0647219,-3.37745,0.89057
403.047,45.518,0.06293406,-3.37614,0.89015
403.647,45.57629,0.06220469,-3.37611,0.88973
404.247,45.63476,0.06079074,-3.37477,0.88931
404.847,45.6934,0.06115152,-3.37547,0.88889
405.447,45.75201,0.06241971,-3.37906,0.88847
406.047,45.81074,0.06212487,-3.38061,0.88805
406.647,45.86947,0.05985364,-3.37998,0.88763
407.247,45.92817,0.061004,-3.37998,0.88721
407.847,45.9865,0.05889322,-3.38129,0.88679
408.447,46.045,0.05822038,-3.3812,0.88636
409.047,46.10344,0.05706185,-3.38261,0.88594
409.647,46.1618,0.05817549,-3.38268,0.88552
410.247,46.22039,0.05690754,-3.38392,0.88509
410.847,46.27882,0.05532285,-3.38524,0.88467
411.447,46.33743,0.05720989,-3.38525,0.88425
412.047,46.39625,0.05654569,-3.38392,0.88382
412.647,46.4549,0.05517476,-3.38364,0.8834
413.247,46.5136,0.0548928,-3.38293,0.88297
413.847,46.57213,0.05776602,-3.38481,0.88255
414.447,46.63053,0.05641648,-3.38827,0.88212
415.047,46.68912,0.05817715,-3.39436,0.88169
415.647,46.74751,0.0554328,-3.39506,0.88127
416.247,46.80608,0.05781315,-3.3937,0.88084
416.847,46.8646,0.05713616,-3.39505,0.88041
417.447,46.92328,0.05638092,-3.39502,0.87999
418.047,46.98212,0.05435131,-3.39302,0.87956
418.647,47.04092,0.05532148,-3.39236,0.87913
419.247,47.0995,0.05592926,-3.39334,0.8787
419.847,47.1582,0.05380093,-3.39522,0.87828
420.447,47.21689,0.05414878,-3.39654,0.87785
421.047,47.2755,0.0543899,-3.39745,0.87742
421.647,47.3345,0.05652898,-3.39927,0.87699
422.247,47.39285,0.05641921,-3.4005,0.87656
422.847,47.45159,0.05386187,-3.40054,0.87613
423.447,47.5103,0.0525476,-3.40046,0.8757
424.047,47.56895,0.05530404,-3.40028,0.87527
424.647,47.6278,0.05529358,-3.40159,0.87484
425.247,47.68645,0.05526373,-3.40384,0.87441
425.847,47.74523,0.05342387,-3.40452,0.87398
426.447,47.80405,0.05490966,-3.40591,0.87355
427.047,47.8628,0.05605681,-3.40451,0.87311
427.647,47.92138,0.05232581,-3.40743,0.87268
428.247,47.98,0.05536665,-3.40871,0.87225
428.847,48.03861,0.05485025,-3.40869,0.87182
429.447,48.09734,0.05246743,-3.40934,0.87138
430.047,48.15597,0.05113173,-3.40638,0.87095
430.647,48.21465,0.05389382,-3.40667,0.87052
431.247,48.27347,0.05242676,-3.40597,0.87008
431.847,48.33227,0.0532318,-3.40728,0.86965
432.447,48.39114,0.05105146,-3.40859,0.86921
433.047,48.45002,0.0529923,-3.4086,0.86878
433.647,48.50888,0.05093785,-3.41347,0.86834
434.247,48.56775,0.05444707,-3.41218,0.86791
434.847,48.62647,0.05348297,-3.41338,0.86747
435.447,48.68523,0.05205875,-3.415,0.86704
436.047,48.74402,0.05438254,-3.41648,0.8666
436.647,48.80285,0.0513555,-3.4176,0.86616
437.247,48.86175,0.05219663,-3.41608,0.86573
437.847,48.92065,0.05447574,-3.41496,0.86529
438.447,48.9795,0.05221164,-3.41782,0.86485
439.047,49.0382,0.05173128,-3.41913,0.86442
439.647,49.097,0.05304102,-3.41913,0.86398
440.247,49.15578,0.05102182,-3.41775,0.86354
440.847,49.21454,0.05213286,-3.41913,0.8631
441.447,49.27352,0.05183553,-3.42147,0.86266
442.047,49.3326,0.05231554,-3.42301,0.86222
442.647,49.39164,0.05256494,-3.42396,0.86178
443.247,49.45063,0.05519405,-3.42396,0.86134
443.847,49.5095,0.05405006,-3.42299,0.8609
444.447,49.56839,0.05399698,-3.42327,0.86046
445.047,49.6274,0.05388007,-3.42452,0.86002
445.647,49.68638,0.05256931,-3.42722,0.85958
446.247,49.74538,0.05396156,-3.42716,0.85914
446.847,49.80434,0.05257267,-3.42861,0.8587
447.447,49.86347,0.05604235,-3.42988,0.85826
448.047,49.92238,0.05195667,-3.42988,0.85782
448.647,49.98152,0.05377627,-3.42988,0.85738
449.247,50.04061,0.05420174,-3.42987,0.85693
449.847,50.0995,0.05438737,-3.43109,0.85649
450.447,50.15849,0.05351203,-3.43411,0.85605
451.047,50.21735,0.05667413,-3.43558,0.85561
451.647,50.27636,0.05462036,-3.43395,0.85516
452.247,50.3356,0.05537949,-3.43262,0.85472
452.847,50.39461,0.05352691,-3.43263,0.85427
453.447,50.4535,0.05614185,-3.43419,0.85383
454.047,50.5124,0.05532499,-3.43867,0.85339
454.647,50.57131,0.05596842,-3.43921,0.85294
455.247,50.6303,0.0559396,-3.43722,0.8525
455.847,50.6892,0.05625074,-3.43687,0.85205
456.447,50.74831,0.05621092,-3.43822,0.85161
457.047,50.80726,0.05593542,-3.43822,0.85116
457.647,50.8663,0.05617447,-3.43958,0.85071
458.247,50.92543,0.05956473,-3.43954,0.85027
458.847,50.98435,0.05884789,-3.44094,0.84982
459.447,51.04311,0.05842802,-3.44088,0.84937
460.047,51.10199,0.06010829,-3.44217,0.84893
460.647,51.1609,0.05976576,-3.44349,0.84848
461.247,51.21983,0.05939062,-3.44349,0.84803
461.847,51.27904,0.05858326,-3.44349,0.84759
462.447,51.33785,0.05822394,-3.44349,0.84714
463.047,51.39671,0.05872863,-3.44346,0.84669
463.647,51.45543,0.06040678,-3.44217,0.84624
464.247,51.51441,0.06097666,-3.44374,0.84579
464.847,51.57347,0.05910072,-3.44818,0.84534
465.447,51.63243,0.06119195,-3.45372,0.84489
466.047,51.6916,0.06078729,-3.455,0.84444
466.647,51.7508,0.05695015,-3.45272,0.84399
467.247,51.80953,0.05810492,-3.44866,0.84354
467.847,51.86875,0.05649885,-3.44472,0.84309
468.447,51.92777,0.05769538,-3.44173,0.84264
469.047,51.98704,0.05542841,-3.44322,0.84219
469.647,52.04616,0.05538322,-3.44686,0.84174
470.247,52.1051,0.05561802,-3.45213,0.84129
470.847,52.16427,0.05688482,-3.45838,0.84084
471.447,52.22351,0.05933905,-3.46062,0.84039
472.047,52.2828,0.06173025,-3.4606,0.83993
472.647,52.34183,0.06247294,-3.45923,0.83948
473.247,52.40123,0.06003114,-3.4578,0.83903
473.847,52.46049,0.06313046,-3.45522,0.83858
474.447,52.5198,0.06031341,-3.45728,0.83812
475.047,52.5793,0.05868167,-3.45951,0.83767
475.647,52.63867,0.05809191,-3.4595,0.83722
476.247,52.69789,0.05947738,-3.4595,0.83676
476.847,52.7568,0.06177393,-3.46016,0.83631
477.447,52.8162,0.0589682,-3.45886,0.83586
478.047,52.87546,0.06076652,-3.45884,0.8354
478.647,52.93439,0.06001779,-3.45884,0.83495
479.247,52.9936,0.06084598,-3.45877,0.83449
479.847,53.0527,0.06006904,-3.46016,0.83404
480.447,53.1121,0.06051903,-3.46016,0.83358
481.047,53.1719,0.06235309,-3.4604,0.83313
481.647,53.23124,0.0647154,-3.4618,0.83267
482.247,53.29065,0.06553719,-3.46182,0.83221
482.847,53.35,0.06529314,-3.46213,0.83176
483.447,53.4091,0.06778134,-3.46344,0.8313
484.047,53.46821,0.06851439,-3.4641,0.83084
484.647,53.52684,0.06731988,-3.4641,0.83039
485.247,53.5861,0.06770644,-3.46411,0.82993
485.847,53.64538,0.06918076,-3.4641,0.82947
486.447,53.70482,0.06678844,-3.46533,0.82901
487.047,53.76449,0.07068687,-3.46673,0.82856
487.647,53.82391,0.06893484,-3.46673,0.8281
488.247,53.88345,0.07338779,-3.46673,0.82764
488.847,53.9428,0.07414969,-3.46819,0.82718
489.447,54.00212,0.07335235,-3.46948,0.82672
490.047,54.0613,0.07286556,-3.47079,0.82626
490.647,54.12065,0.0715985,-3.47211,0.8258
491.247,54.1799,0.07287204,-3.47243,0.82534
491.847,54.2394,0.07361004,-3.47342,0.82488
492.447,54.29874,0.07503657,-3.47342,0.82442
493.047,54.3581,0.07083181,-3.47262,0.82396
493.647,54.41751,0.06851675,-3.47214,0.8235
494.247,54.47681,0.07029707,-3.47178,0.82304
494.847,54.5362,0.06881616,-3.47049,0.82258
495.447,54.59555,0.06961954,-3.4724,0.82212
496.047,54.65481,0.06852138,-3.47615,0.82166
496.647,54.7143,0.06977107,-3.47606,0.8212
497.247,54.7736,0.06782423,-3.4754,0.82074
497.847,54.833,0.07124992,-3.47639,0.82027
498.447,54.8925,0.06829597,-3.47507,0.81981
499.047,54.95188,0.0682518,-3.47508,0.81935
499.647,55.01129,0.06446529,-3.4751,0.81889
500.247,55.07063,0.06716785,-3.47376,0.81842
500.847,55.13009,0.06430559,-3.47377,0.81796
501.447,55.18962,0.06297863,-3.47637,0.8175
502.047,55.249,0.06708365,-3.47806,0.81703
502.647,55.3084,0.068923,-3.48328,0.81657
503.247,55.3678,0.06674997,-3.48641,0.81611
503.847,55.4271,0.06655496,-3.48477,0.81564
504.447,55.48645,0.0641216,-3.4832,0.81518
505.047,55.54569,0.06404565,-3.48186,0.81471
505.647,55.60493,0.06287033,-3.48056,0.81425
506.247,55.66418,0.06346461,-3.47924,0.81378
506.847,55.72345,0.06276424,-3.47959,0.81332
507.447,55.7827,0.06294704,-3.47969,0.81285
508.047,55.8421,0.06191318,-3.48228,0.81239
508.647,55.9017,0.05899791,-3.4822,0.81192
509.247,55.961,0.05880163,-3.48352,0.81145
509.847,56.0203,0.06147707,-3.48483,0.81099
510.447,56.0798,0.05938163,-3.48483,0.81052
511.047,56.13938,0.05889592,-3.4845,0.81006
511.647,56.19915,0.05894989,-3.48325,0.80959
512.247,56.25865,0.05782464,-3.48316,0.80912
512.847,56.31808,0.05604654,-3.48474,0.80865
513.447,56.37738,0.05485405,-3.48539,0.80819
514.047,56.4369,0.05331084,-3.48539,0.80772
514.647,56.49646,0.05682542,-3.4841,0.80725
515.247,56.55619,0.05384792,-3.48412,0.80678
515.847,56.61585,0.05224507,-3.48276,0.80631
516.447,56.67539,0.05362299,-3.48395,0.80585
517.047,56.73497,0.05372515,-3.48561,0.80538
517.647,56.79459,0.05503027,-3.48561,0.80491
518.247,56.85429,0.05526802,-3.48684,0.80444
518.847,56.91384,0.05590241,-3.48692,0.80397
519.447,56.97348,0.05306753,-3.48828,0.8035
520.047,57.03312,0.05397152,-3.48953,0.80303
520.647,57.09275,0.05446436,-3.48859,0.80256
521.247,57.1525,0.05311742,-3.48989,0.80209
521.847,57.212,0.05288332,-3.48989,0.80162
522.447,57.2717,0.05072138,-3.48989,0.80115
523.047,57.33115,0.05179209,-3.49087,0.80068
523.647,57.3908,0.05296287,-3.49158,0.80021
524.247,57.4505,0.05095595,-3.49087,0.79974
524.847,57.51011,0.05078801,-3.49219,0.79927
525.447,57.5698,0.04849997,-3.49219,0.79879
526.047,57.62927,0.04804268,-3.49219,0.79832
526.647,57.68866,0.04611956,-3.49219,0.79785
527.247,57.7482,0.04549859,-3.49219,0.79738
527.847,57.8078,0.04848403,-3.49219,0.79691
528.447,57.8675,0.0441591,-3.49366,0.79643
529.047,57.92716,0.04623796,-3.49361,0.79596
529.647,57.98667,0.04445061,-3.4936,0.79549
530.247,58.04575,0.04707061,-3.49493,0.79502
530.847,58.1052,0.04548187,-3.49581,0.79454
531.447,58.1648,0.04563562,-3.49625,0.79407
532.047,58.22492,0.04351085,-3.49493,0.7936
532.647,58.2848,0.0445407,-3.49218,0.79312
533.247,58.3444,0.0452779,-3.49219,0.79265
533.847,58.40395,0.04463222,-3.49534,0.79217
534.447,58.4635,0.04504546,-3.49591,0.7917
535.047,58.52309,0.04523755,-3.49717,0.79123
535.647,58.58276,0.04457904,-3.49855,0.79075
536.247,58.64244,0.0443273,-3.49714,0.79028
536.847,58.7022,0.04404851,-3.49723,0.7898
537.447,58.76172,0.04664278,-3.49724,0.78933
538.047,58.8212,0.04255435,-3.49855,0.78885
538.647,58.8807,0.04294215,-3.50036,0.78838
539.247,58.9403,0.04079785,-3.50129,0.7879
539.847,59.0001,0.03963073,-3.50129,0.78742
540.447,59.05989,0.03749616,-3.49997,0.78695
541.047,59.1196,0.03890222,-3.49998,0.78647
541.647,59.17918,0.03761916,-3.50129,0.786
542.247,59.23887,0.03783877,-3.50131,0.78552
542.847,59.2985,0.03831135,-3.50096,0.78504
543.447,59.3583,0.03822928,-3.50096,0.78457
544.047,59.41809,0.03864464,-3.49956,0.78409
544.647,59.47765,0.04024607,-3.50143,0.78361
545.247,59.53735,0.03980209,-3.50228,0.78313
545.847,59.59712,0.03904247,-3.5012,0.78266
546.447,59.65701,0.03601376,-3.50063,0.78218
547.047,59.7169,0.0361078,-3.50193,0.7817
547.647,59.77661,0.04056036,-3.50206,0.78122
548.247,59.8364,0.03734392,-3.50325,0.78074
548.847,59.896,0.03508817,-3.5026,0.78027
549.447,59.9559,0.03550198,-3.5026,0.77979
550.047,60.0157,0.03723815,-3.5026,0.77931
550.647,60.0755,0.03841778,-3.50393,0.77883
551.247,60.1355,0.0371409,-3.50387,0.77835
551.847,60.195,0.03608851,-3.50523,0.77787
552.447,60.25464,0.03478762,-3.50652,0.77739
553.047,60.3141,0.03495843,-3.50655,0.77691
553.647,60.3738,0.03348047,-3.50618,0.77643
554.247,60.4339,0.03505677,-3.50622,0.77595
554.847,60.49374,0.03367986,-3.50622,0.77547
555.447,60.5535,0.03503001,-3.50622,0.77499
556.047,60.61331,0.03378868,-3.50622,0.77451
556.647,60.673,0.03328072,-3.50622,0.77403
557.247,60.7328,0.02968994,-3.50622,0.77355
557.847,60.7926,0.03167395,-3.50627,0.77307
558.447,60.85245,0.03500178,-3.50623,0.77259
559.047,60.9124,0.0341061,-3.50773,0.77211
559.647,60.9723,0.03420813,-3.50885,0.77163
560.247,61.03219,0.02913296,-3.50885,0.77114
560.847,61.092,0.02941178,-3.50746,0.77066
561.447,61.15164,0.03030084,-3.50754,0.77018
562.047,61.2114,0.02836813,-3.50757,0.7697
562.647,61.2714,0.03040255,-3.50869,0.76922
563.247,61.3313,0.0279725,-3.51127,0.76873
563.847,61.3913,0.02783332,-3.50995,0.76825
564.447,61.4511,0.02907315,-3.50852,0.76777
565.047,61.51086,0.02961021,-3.50622,0.76729
565.647,61.57094,0.02616129,-3.50622,0.7668
566.247,61.63046,0.02755558,-3.50754,0.76632
566.847,61.69027,0.02874619,-3.50754,0.76584
567.447,61.7502,0.02969558,-3.50887,0.76535
568.047,61.8101,0.0282383,-3.51017,0.76487
568.647,61.8705,0.0297047,-3.51149,0.76439
569.247,61.9304,0.02928374,-3.51149,0.7639
569.847,61.99029,0.02899903,-3.5105,0.76342
570.447,62.0503,0.03064398,-3.50953,0.76293
571.047,62.11029,0.02852872,-3.51238,0.76245
571.647,62.17037,0.02602587,-3.51236,0.76197
572.247,62.23049,0.02842244,-3.51072,0.76148
572.847,62.2905,0.02646177,-3.51204,0.761
573.447,62.3509,0.02455731,-3.51204,0.76051
574.047,62.41114,0.02485446,-3.51203,0.76003
574.647,62.47124,0.02616037,-3.5107,0.75954
575.247,62.5314,0.02629888,-3.51382,0.75906
575.847,62.5914,0.02411026,-3.5161,0.75857
576.447,62.65145,0.02708639,-3.51664,0.75808
577.047,62.71159,0.02766762,-3.51667,0.7576
577.647,62.7716,0.02775521,-3.51662,0.75711
578.247,62.83174,0.0281666,-3.51664,0.75663
578.847,62.89175,0.02770599,-3.51554,0.75614
579.447,62.95162,0.02872488,-3.51533,0.75566
580.047,63.0116,0.02471155,-3.51531,0.75517
580.647,63.07155,0.03073305,-3.51586,0.75468
581.247,63.13169,0.02666608,-3.51499,0.7542
581.847,63.1917,0.02649922,-3.51499,0.75371
582.447,63.25159,0.02901793,-3.51499,0.75322
583.047,63.31131,0.03245831,-3.5163,0.75273
583.647,63.3711,0.02579646,-3.51631,0.75225
584.247,63.43102,0.02577998,-3.51631,0.75176
584.847,63.49105,0.02914853,-3.51629,0.75127
585.447,63.5509,0.02910532,-3.51763,0.75078
586.047,63.6108,0.02714545,-3.51763,0.7503
586.647,63.67069,0.02636674,-3.51763,0.74981
587.247,63.73075,0.0255875,-3.51631,0.74932
587.847,63.7908,0.02525737,-3.5173,0.74883
588.447,63.85089,0.02586066,-3.51732,0.74834
589.047,63.91109,0.02339264,-3.51806,0.74786
589.647,63.97113,0.02547424,-3.51902,0.74737
590.247,64.0309,0.02451141,-3.51895,0.74688
590.847,64.0909,0.02701255,-3.52158,0.74639
591.447,64.15089,0.02403892,-3.52158,0.7459
592.047,64.21098,0.02552055,-3.52158,0.74541
592.647,64.27125,0.02529466,-3.52089,0.74492
593.247,64.33099,0.02624487,-3.52059,0.74443
593.847,64.3907,0.02441523,-3.51895,0.74394
594.447,64.45054,0.02358284,-3.51893,0.74346
595.047,64.51053,0.02434111,-3.51762,0.74297
595.647,64.5707,0.02238002,-3.51862,0.74248
596.247,64.63095,0.0240416,-3.51862,0.74199
596.847,64.69108,0.01981879,-3.51969,0.7415
597.447,64.75139,0.02370914,-3.51999,0.74101
598.047,64.81151,0.02519315,-3.52125,0.74052
598.647,64.87168,0.02574295,-3.52076,0.74002
599.247,64.9316,0.02768565,-3.52126,0.73953
599.847,64.99166,0.02400795,-3.52125,0.73904
600.447,65.0517,0.028574,-3.52125,0.73855
601.047,65.11179,0.02567452,-3.52125,0.73806
601.647,65.1718,0.02849012,-3.51992,0.73757
602.247,65.23196,0.02472311,-3.51993,0.73708
602.847,65.292,0.02546419,-3.51993,0.73659
603.447,65.352,0.03194589,-3.52144,0.7361
604.047,65.412,0.028455,-3.52293,0.73561
604.647,65.47206,0.02572976,-3.5241,0.73511
605.247,65.53198,0.02850411,-3.5241,0.73462
605.847,65.59209,0.0282969,-3.52541,0.73413
606.447,65.6523,0.02566117,-3.5254,0.73364
607.047,65.71247,0.02841152,-3.52208,0.73315
607.647,65.7726,0.02373381,-3.52125,0.73265
608.247,65.83232,0.02540094,-3.52228,0.73216
608.847,65.89201,0.02802252,-3.52223,0.73167
609.447,65.95209,0.02512426,-3.52223,0.73118
610.047,66.01213,0.02790308,-3.52223,0.73069
610.647,66.07273,0.02706505,-3.52223,0.73019
611.247,66.1326,0.028246,-3.5219,0.7297
611.847,66.19279,0.02703117,-3.51962,0.72921
612.447,66.2526,0.02405285,-3.51961,0.72871
613.047,66.31267,0.03016511,-3.51985,0.72822
613.647,66.37294,0.0282122,-3.52514,0.72773
614.247,66.43345,0.03181477,-3.52641,0.72723
614.847,66.494,0.02904945,-3.52618,0.72674
615.447,66.55431,0.0305522,-3.52546,0.72625
616.047,66.6144,0.03280892,-3.52826,0.72575
616.647,66.67442,0.03334837,-3.5268,0.72526
617.247,66.7347,0.03474434,-3.52552,0.72477
617.847,66.79477,0.03726484,-3.52452,0.72427
618.447,66.85513,0.03656245,-3.52454,0.72378
619.047,66.9151,0.03531338,-3.52752,0.72328
619.647,66.97516,0.03640775,-3.52744,0.72279
620.247,67.03551,0.03541046,-3.52616,0.7223
620.847,67.09545,0.03527864,-3.52739,0.7218
621.447,67.15592,0.03940497,-3.5274,0.72131
622.047,67.21603,0.03500376,-3.52598,0.72081
622.647,67.27645,0.03884784,-3.52657,0.72032
623.247,67.33686,0.03903287,-3.53027,0.71982
623.847,67.39704,0.03651669,-3.53298,0.71933
624.447,67.45741,0.03871289,-3.53299,0.71883
625.047,67.5176,0.04184114,-3.53163,0.71834
625.647,67.57816,0.04105938,-3.52766,0.71784
626.247,67.63853,0.03998856,-3.52629,0.71735
626.847,67.69898,0.03720792,-3.52619,0.71685
627.447,67.75928,0.03950579,-3.52619,0.71636
628.047,67.8194,0.03558738,-3.52521,0.71586
628.647,67.87952,0.03969882,-3.52521,0.71536
629.247,67.93985,0.03758382,-3.52652,0.71487
629.847,68.00023,0.04069569,-3.52652,0.71437
630.447,68.06063,0.03676662,-3.52652,0.71388
631.047,68.12091,0.03876764,-3.52652,0.71338
631.647,68.18115,0.0354546,-3.52521,0.71288
632.247,68.24149,0.03639211,-3.5266,0.71239
632.847,68.30179,0.03853228,-3.52984,0.71189
633.447,68.36197,0.03798841,-3.53143,0.7114
634.047,68.42228,0.03976431,-3.53266,0.7109
634.647,68.48249,0.03775535,-3.53265,0.7104
635.247,68.5427,0.03650645,-3.53134,0.70991
635.847,68.6028,0.03918666,-3.52819,0.70941
636.447,68.66288,0.03768478,-3.52963,0.70891
637.047,68.723,0.03870679,-3.5307,0.70842
637.647,68.7834,0.03948411,-3.52937,0.70792
638.247,68.8438,0.03691579,-3.5293,0.70742
638.847,68.90424,0.03963355,-3.53067,0.70692
639.447,68.9646,0.03636013,-3.52795,0.70643
640.047,69.02481,0.04138412,-3.52917,0.70593
640.647,69.08481,0.03952735,-3.5308,0.70543
641.247,69.14496,0.03874881,-3.53211,0.70493
641.847,69.20527,0.03810708,-3.53234,0.70444
642.447,69.26575,0.03859432,-3.53233,0.70394
643.047,69.32621,0.04275164,-3.53233,0.70344
643.647,69.3866,0.04285901,-3.53233,0.70294
644.247,69.44699,0.04307517,-3.53233,0.70245
644.847,69.50726,0.04450553,-3.53233,0.70195
645.447,69.5677,0.04492688,-3.53233,0.70145
646.047,69.62822,0.0434069,-3.53332,0.70095
646.647,69.68865,0.04318914,-3.53469,0.70045
647.247,69.74925,0.04634561,-3.53501,0.69996
647.847,69.80966,0.04792121,-3.53474,0.69946
648.447,69.8701,0.04653313,-3.53343,0.69896
649.047,69.93064,0.04473623,-3.53212,0.69846
649.647,69.99078,0.04310278,-3.53079,0.69796
650.247,70.0511,0.04463869,-3.53079,0.69746
650.847,70.11157,0.0458874,-3.5308,0.69696
651.447,70.1722,0.04892735,-3.53237,0.69647
652.047,70.23267,0.04411053,-3.53234,0.69597
652.647,70.29279,0.04517326,-3.53365,0.69547
653.247,70.35315,0.0471164,-3.53365,0.69497
653.847,70.41351,0.04729102,-3.53224,0.69447
654.447,70.47386,0.04981124,-3.53234,0.69397
655.047,70.5343,0.04691293,-3.5353,0.69347
655.647,70.5945,0.04869308,-3.5378,0.69297
656.247,70.65479,0.04866064,-3.53781,0.69247
656.847,70.71502,0.04740159,-3.53776,0.69197
657.447,70.7754,0.04592968,-3.5391,0.69147
658.047,70.83566,0.04774147,-3.53787,0.69097
658.647,70.8959,0.0468223,-3.53583,0.69047
659.247,70.95625,0.04616253,-3.53508,0.68997
659.847,71.0168,0.04520137,-3.53378,0.68947
660.447,71.07727,0.04845115,-3.53375,0.68898
661.047,71.13778,0.04685979,-3.53599,0.68848
661.647,71.1982,0.04752163,-3.5369,0.68798
662.247,71.2587,0.04757778,-3.53552,0.68748
662.847,71.31934,0.04580697,-3.53683,0.68698
663.447,71.37995,0.05118213,-3.53683,0.68648
664.047,71.44028,0.04766163,-3.53683,0.68598
664.647,71.5007,0.05294754,-3.53683,0.68547
665.247,71.5612,0.04659072,-3.53683,0.68497
665.847,71.62179,0.04639729,-3.53684,0.68447
666.447,71.6824,0.04632762,-3.53815,0.68397
667.047,71.7429,0.04667804,-3.53947,0.68347
667.647,71.8034,0.04843443,-3.53815,0.68297
668.247,71.8639,0.04919423,-3.53682,0.68247
668.847,71.92447,0.04775587,-3.53813,0.68197
669.447,71.985,0.04958596,-3.53814,0.68147
670.047,72.04573,0.04936657,-3.53675,0.68097
670.647,72.10642,0.04678502,-3.53673,0.68047
671.247,72.16711,0.04707155,-3.53814,0.67997
671.847,72.2278,0.04760405,-3.53948,0.67947
672.447,72.28845,0.04627841,-3.53946,0.67897
673.047,72.34911,0.04825064,-3.53947,0.67847
673.647,72.4095,0.04815952,-3.5388,0.67796
674.247,72.47031,0.0518929,-3.5388,0.67746
674.847,72.53111,0.04653878,-3.53745,0.67696
675.447,72.59204,0.05074606,-3.5368,0.67646
676.047,72.65303,0.04776188,-3.5354,0.67596
676.647,72.7136,0.05001254,-3.53556,0.67546
677.247,72.7743,0.05012209,-3.53693,0.67496
677.847,72.83503,0.04967206,-3.53533,0.67446
678.447,72.89543,0.05102146,-3.5354,0.67395
679.047,72.95613,0.05180767,-3.53638,0.67345
679.647,73.01675,0.0559456,-3.53809,0.67295
680.247,73.07772,0.05570009,-3.5413,0.67245
680.847,73.13843,0.05452304,-3.54166,0.67195
681.447,73.199,0.05799059,-3.54034,0.67145
682.047,73.2595,0.05681948,-3.54034,0.67095
682.647,73.3201,0.05937925,-3.54034,0.67044
683.247,73.3807,0.05855053,-3.53903,0.66994
683.847,73.44131,0.05975864,-3.53904,0.66944
684.447,73.50198,0.06311888,-3.54034,0.66894
685.047,73.56269,0.05974236,-3.54034,0.66844
685.647,73.62343,0.06075716,-3.54001,0.66793
686.247,73.68398,0.06137432,-3.53859,0.66743
686.847,73.74455,0.06238715,-3.53869,0.66693
687.447,73.80489,0.0603583,-3.53878,0.66643
688.047,73.86539,0.06291263,-3.53837,0.66593
688.647,73.92594,0.0632066,-3.53972,0.66542
689.247,73.98671,0.06396859,-3.54,0.66492
689.847,74.04757,0.06201413,-3.54138,0.66442
690.447,74.10829,0.06178472,-3.54133,0.66392
691.047,74.16903,0.06453505,-3.54001,0.66342
691.647,74.22935,0.06768946,-3.53974,0.66291
692.247,74.28967,0.06892616,-3.53837,0.66241
692.847,74.34995,0.07067317,-3.53946,0.66191
693.447,74.4102,0.06877735,-3.54245,0.66141
694.047,74.47073,0.06777699,-3.54123,0.6609
694.647,74.5313,0.07108855,-3.53759,0.6604
695.247,74.59189,0.06977581,-3.53627,0.6599
695.847,74.6524,0.07382084,-3.54003,0.6594
696.447,74.71311,0.07358251,-3.54535,0.65889
697.047,74.77373,0.07230038,-3.54714,0.65839
697.647,74.8343,0.0740278,-3.54582,0.65789
698.247,74.89497,0.07757626,-3.54712,0.65739
698.847,74.9556,0.07625214,-3.54846,0.65688
699.247,74.99585,0.07687148,-3.54846,0.65655