File: 01_Data/Hemp_Sheets/STA/N2/10K_min/Hemp_Sheet_STA_N2_10KData_22274_R3.csv
##Temp./Â°C,Time/min,DSC(subtr.2)/(mW/mg),Mass loss(subtr.2)/mg,Sensit./(uV/mW)
49.721,10.01,0.02606296,-0.06219,1.06051
50.321,10.73404,0.05854699,-0.06466852,1.06039
50.921,10.9214,0.08086291,-0.06710361,1.06027
51.521,11.0645,0.09670912,-0.06628292,1.06014
52.121,11.18346,0.11381,-0.06799079,1.06002
52.721,11.28904,0.12811,-0.064148,1.05989
53.321,11.38453,0.14061,-0.06292075,1.05976
53.921,11.47528,0.1515,-0.06383633,1.05964
54.521,11.56212,0.16263,-0.06522537,1.05951
55.121,11.6439,0.17275,-0.06890673,1.05938
55.721,11.72315,0.1783,-0.07393825,1.05925
56.321,11.7994,0.18906,-0.0750486,1.05912
56.921,11.87411,0.19462,-0.07148856,1.05899
57.521,11.94691,0.201,-0.06700722,1.05886
58.121,12.01878,0.2068,-0.06563485,1.05873
58.721,12.08957,0.21315,-0.0648151,1.05859
59.321,12.1598,0.21856,-0.06624356,1.05846
59.921,12.2297,0.2243,-0.06832548,1.05833
60.521,12.29862,0.22912,-0.0683413,1.05819
61.121,12.36692,0.23347,-0.06833116,1.05806
61.721,12.4347,0.23392,-0.069189,1.05792
62.321,12.50186,0.23581,-0.0705984,1.05778
62.921,12.5687,0.24007,-0.0705258,1.05765
63.521,12.6348,0.24375,-0.07144916,1.05751
64.121,12.70032,0.24749,-0.07316139,1.05737
64.721,12.7658,0.24997,-0.07319455,1.05723
65.321,12.83077,0.2504,-0.07184649,1.05709
65.921,12.89637,0.25574,-0.07183809,1.05695
66.521,12.96146,0.25823,-0.07315927,1.05681
67.121,13.02688,0.26055,-0.07446344,1.05667
67.721,13.09168,0.26408,-0.0744889,1.05652
68.321,13.15642,0.26656,-0.0745925,1.05638
68.921,13.22114,0.26961,-0.07250351,1.05624
69.521,13.2853,0.27099,-0.0725,1.05609
70.121,13.349,0.27351,-0.07249986,1.05595
70.721,13.41286,0.27451,-0.07418212,1.0558
71.321,13.47655,0.27746,-0.07653506,1.05566
71.921,13.54011,0.28089,-0.07918997,1.05551
72.521,13.6043,0.28206,-0.08196098,1.05536
73.121,13.6678,0.28638,-0.08258973,1.05521
73.721,13.73125,0.28919,-0.08182523,1.05506
74.321,13.7944,0.29053,-0.07987352,1.05491
74.921,13.85735,0.29143,-0.07839711,1.05476
75.521,13.92022,0.29334,-0.07711002,1.05461
76.121,13.98298,0.29333,-0.07512561,1.05446
76.721,14.0458,0.29544,-0.07725881,1.05431
77.321,14.10816,0.29754,-0.08090228,1.05415
77.921,14.1706,0.30046,-0.08305558,1.054
78.521,14.23274,0.30236,-0.08306455,1.05385
79.121,14.29483,0.30079,-0.08299793,1.05369
79.721,14.35689,0.30337,-0.08179511,1.05353
80.321,14.4185,0.30457,-0.08050785,1.05338
80.921,14.4802,0.3068,-0.08051,1.05322
81.521,14.54154,0.30616,-0.08047976,1.05306
82.121,14.6029,0.30474,-0.08293622,1.0529
82.721,14.66455,0.30519,-0.08204701,1.05275
83.321,14.726,0.30802,-0.08201216,1.05259
83.921,14.7875,0.30801,-0.08429289,1.05243
84.521,14.8485,0.30856,-0.08837355,1.05226
85.121,14.90947,0.30915,-0.08942039,1.0521
85.721,14.9704,0.31018,-0.08939001,1.05194
86.321,15.0313,0.31091,-0.08862392,1.05178
86.921,15.09191,0.31059,-0.08807076,1.05161
87.521,15.1527,0.30891,-0.08942006,1.05145
88.121,15.2133,0.31192,-0.08720017,1.05129
88.721,15.2734,0.30955,-0.08501829,1.05112
89.321,15.3337,0.30911,-0.08357395,1.05095
89.921,15.39361,0.30774,-0.08604135,1.05079
90.521,15.4535,0.30842,-0.09147078,1.05062
91.121,15.51324,0.30812,-0.09542097,1.05045
91.721,15.57298,0.30764,-0.09820829,1.05028
92.321,15.63226,0.30998,-0.0938258,1.05011
92.921,15.692,0.30989,-0.08949509,1.04994
93.521,15.75185,0.30693,-0.08837528,1.04977
94.121,15.812,0.3067,-0.09161354,1.0496
94.721,15.87147,0.30662,-0.09181002,1.04943
95.321,15.93105,0.30504,-0.09184847,1.04926
95.921,15.9905,0.30487,-0.09336359,1.04908
96.521,16.04984,0.30032,-0.09312529,1.04891
97.121,16.10898,0.30188,-0.0918093,1.04874
97.721,16.168,0.29928,-0.09181093,1.04856
98.321,16.22714,0.29893,-0.09073851,1.04839
98.921,16.28616,0.29797,-0.09248905,1.04821
99.521,16.34515,0.29445,-0.09311331,1.04803
100.121,16.40423,0.29595,-0.09424376,1.04785
100.721,16.46331,0.29317,-0.09443976,1.04768
101.321,16.52211,0.29392,-0.09582808,1.0475
101.921,16.58117,0.29197,-0.0987643,1.04732
102.521,16.64015,0.29107,-0.10036,1.04714
103.121,16.699,0.29014,-0.10067,1.04696
103.721,16.7577,0.28886,-0.09836471,1.04678
104.321,16.8163,0.28803,-0.09705293,1.04659
104.921,16.87475,0.28732,-0.09696471,1.04641
105.521,16.93336,0.28643,-0.10153,1.04623
106.121,16.99204,0.28637,-0.10287,1.04604
106.721,17.05061,0.28417,-0.09915242,1.04586
107.321,17.10934,0.28129,-0.09293633,1.04567
107.921,17.16822,0.27943,-0.09090293,1.04549
108.521,17.22664,0.279,-0.09319783,1.0453
109.121,17.2859,0.27964,-0.09573987,1.04511
109.721,17.34445,0.27893,-0.09687822,1.04493
110.321,17.40297,0.27602,-0.09605604,1.04474
110.921,17.46154,0.27621,-0.0970261,1.04455
111.521,17.51981,0.27591,-0.09695999,1.04436
112.121,17.5782,0.27293,-0.09691527,1.04417
112.721,17.63651,0.27458,-0.09950319,1.04398
113.321,17.69495,0.27139,-0.10227,1.04379
113.921,17.7536,0.27129,-0.10223,1.0436
114.521,17.81211,0.2702,-0.10354,1.0434
115.121,17.87075,0.27215,-0.10282,1.04321
115.721,17.92924,0.27215,-0.10224,1.04302
116.321,17.98769,0.27225,-0.10099,1.04282
116.921,18.04557,0.27157,-0.09949305,1.04263
117.521,18.10397,0.27068,-0.10092,1.04243
118.121,18.16243,0.26674,-0.10103,1.04223
118.721,18.22113,0.26896,-0.10018,1.04204
119.321,18.27993,0.2691,-0.10234,1.04184
119.921,18.3382,0.27134,-0.10076,1.04164
120.521,18.39666,0.26917,-0.09949741,1.04144
121.121,18.45482,0.26866,-0.09948043,1.04124
121.721,18.513,0.26793,-0.09893005,1.04104
122.321,18.5711,0.26938,-0.09946614,1.04084
122.921,18.62915,0.2692,-0.10161,1.04064
123.521,18.6872,0.26892,-0.10123,1.04044
124.121,18.74548,0.26644,-0.10102,1.04024
124.721,18.80358,0.26524,-0.10124,1.04003
125.321,18.86178,0.26792,-0.10254,1.03983
125.921,18.9201,0.26753,-0.10124,1.03963
126.521,18.97831,0.26563,-0.09864646,1.03942
127.121,19.03645,0.26611,-0.09888435,1.03921
127.721,19.09477,0.26615,-0.1014,1.03901
128.321,19.1531,0.26748,-0.10376,1.0388
128.921,19.21145,0.2652,-0.10376,1.03859
129.521,19.2697,0.26562,-0.10507,1.03839
130.121,19.3278,0.26691,-0.10376,1.03818
130.721,19.38571,0.26697,-0.10408,1.03797
131.321,19.44399,0.26742,-0.10376,1.03776
131.921,19.50173,0.26815,-0.10376,1.03755
132.521,19.55915,0.26628,-0.10376,1.03734
133.121,19.61683,0.26723,-0.10278,1.03713
133.721,19.67471,0.26767,-0.10146,1.03691
134.321,19.73315,0.2671,-0.10145,1.0367
134.921,19.7918,0.26786,-0.10145,1.03649
135.521,19.84981,0.26783,-0.10277,1.03627
136.121,19.90771,0.26874,-0.10359,1.03606
136.721,19.9657,0.27002,-0.10245,1.03584
137.321,20.02347,0.26774,-0.10265,1.03563
137.921,20.0812,0.26912,-0.10507,1.03541
138.521,20.1391,0.26866,-0.10379,1.03519
139.121,20.19695,0.27086,-0.10504,1.03498
139.721,20.25485,0.27081,-0.10376,1.03476
140.321,20.3128,0.26961,-0.10376,1.03454
140.921,20.3706,0.26932,-0.10245,1.03432
141.521,20.42833,0.27055,-0.1026,1.0341
142.121,20.4861,0.27145,-0.10179,1.03388
142.721,20.54355,0.27304,-0.10393,1.03366
143.321,20.601,0.27299,-0.10792,1.03344
143.921,20.6586,0.27283,-0.10872,1.03321
144.521,20.71612,0.27259,-0.10664,1.03299
145.121,20.7741,0.27395,-0.10622,1.03277
145.721,20.83174,0.27401,-0.10346,1.03254
146.321,20.88944,0.27426,-0.10212,1.03232
146.921,20.947,0.27342,-0.10329,1.03209
147.521,21.00446,0.27364,-0.10532,1.03187
148.121,21.0621,0.27644,-0.1077,1.03164
148.721,21.11971,0.27595,-0.10902,1.03141
149.321,21.1773,0.27524,-0.10903,1.03119
149.921,21.23511,0.27629,-0.10737,1.03096
150.521,21.2927,0.27629,-0.10341,1.03073
151.121,21.34988,0.27833,-0.102,1.0305
151.721,21.4076,0.27606,-0.10419,1.03027
152.321,21.4651,0.27624,-0.10518,1.03004
152.921,21.523,0.2782,-0.10594,1.02981
153.521,21.58033,0.27858,-0.1073,1.02958
154.121,21.63784,0.2807,-0.10749,1.02934
154.721,21.6956,0.2803,-0.10557,1.02911
155.321,21.75329,0.27793,-0.10552,1.02888
155.921,21.81123,0.27835,-0.1042,1.02864
156.521,21.8688,0.27946,-0.1042,1.02841
157.121,21.92619,0.28008,-0.10453,1.02817
157.721,21.98356,0.28091,-0.10384,1.02794
158.321,22.04099,0.28081,-0.10321,1.0277
158.921,22.09845,0.27983,-0.10321,1.02746
159.521,22.15625,0.28261,-0.10586,1.02723
160.121,22.2137,0.28295,-0.1087,1.02699
160.721,22.27125,0.28287,-0.11001,1.02675
161.321,22.32862,0.28225,-0.1087,1.02651
161.921,22.38607,0.28319,-0.1087,1.02627
162.521,22.44335,0.28314,-0.1087,1.02603
163.121,22.5013,0.28275,-0.10732,1.02579
163.721,22.55868,0.28407,-0.10587,1.02555
164.321,22.6165,0.28313,-0.10442,1.0253
164.921,22.67418,0.28531,-0.10313,1.02506
165.521,22.73169,0.28486,-0.10312,1.02482
166.121,22.7894,0.28342,-0.10409,1.02457
166.721,22.84657,0.28375,-0.10441,1.02433
167.321,22.9042,0.28674,-0.10445,1.02408
167.921,22.96193,0.28601,-0.1061,1.02384
168.521,23.01965,0.28633,-0.10727,1.02359
169.121,23.07752,0.28655,-0.10848,1.02335
169.721,23.13506,0.28735,-0.10937,1.0231
170.321,23.19248,0.28765,-0.10869,1.02285
170.921,23.24999,0.28862,-0.11001,1.0226
171.521,23.3074,0.28642,-0.10965,1.02235
172.121,23.3647,0.28807,-0.10599,1.0221
172.721,23.4221,0.28777,-0.10332,1.02185
173.321,23.4796,0.28943,-0.10333,1.0216
173.921,23.53712,0.29036,-0.10598,1.02135
174.521,23.59445,0.2937,-0.10832,1.0211
175.121,23.6519,0.29458,-0.11259,1.02085
175.721,23.70929,0.29526,-0.11405,1.02059
176.321,23.76667,0.29462,-0.1141,1.02034
176.921,23.82416,0.29258,-0.11314,1.02009
177.521,23.8816,0.29209,-0.11471,1.01983
178.121,23.93889,0.2953,-0.11352,1.01958
178.721,23.9964,0.29744,-0.11309,1.01932
179.321,24.05377,0.29484,-0.11306,1.01906
179.921,24.1114,0.29517,-0.11088,1.01881
180.521,24.169,0.29529,-0.11035,1.01855
181.121,24.22635,0.2967,-0.10903,1.01829
181.721,24.28364,0.29419,-0.10985,1.01803
182.321,24.34092,0.29632,-0.11089,1.01777
182.921,24.39825,0.29795,-0.11089,1.01751
183.521,24.45576,0.2982,-0.10965,1.01725
184.121,24.51335,0.29797,-0.10804,1.01699
184.721,24.57086,0.30068,-0.10673,1.01673
185.321,24.62827,0.3003,-0.1099,1.01647
185.921,24.68551,0.29901,-0.11243,1.01621
186.521,24.7426,0.30085,-0.111,1.01594
187.121,24.7999,0.30137,-0.1098,1.01568
187.721,24.85709,0.30405,-0.11118,1.01542
188.321,24.91434,0.30162,-0.11111,1.01515
188.921,24.97186,0.3008,-0.11064,1.01489
189.521,25.02935,0.29853,-0.10732,1.01462
190.121,25.08686,0.30198,-0.1066,1.01436
190.721,25.1442,0.30199,-0.10659,1.01409
191.321,25.2013,0.30101,-0.10731,1.01382
191.921,25.25848,0.3016,-0.10861,1.01355
192.521,25.31561,0.30368,-0.11058,1.01329
193.121,25.37276,0.30423,-0.10929,1.01302
193.721,25.43,0.30395,-0.10925,1.01275
194.321,25.48731,0.30505,-0.10915,1.01248
194.921,25.54456,0.3052,-0.1109,1.01221
195.521,25.6015,0.30699,-0.11144,1.01193
196.121,25.65854,0.30712,-0.11142,1.01166
196.721,25.71571,0.30718,-0.11209,1.01139
197.321,25.77295,0.30543,-0.11424,1.01112
197.921,25.83035,0.30647,-0.1144,1.01084
198.521,25.8874,0.3068,-0.11439,1.01057
199.121,25.94453,0.30817,-0.11362,1.0103
199.721,26.00176,0.30672,-0.1139,1.01002
200.321,26.05894,0.30961,-0.11441,1.00975
200.921,26.1159,0.30866,-0.11568,1.00947
201.521,26.173,0.30911,-0.11572,1.00919
202.121,26.22992,0.30661,-0.1167,1.00892
202.721,26.28718,0.3105,-0.11873,1.00864
203.321,26.3445,0.30881,-0.11868,1.00836
203.921,26.4018,0.30936,-0.11827,1.00808
204.521,26.4591,0.3075,-0.11693,1.0078
205.121,26.51619,0.30824,-0.11662,1.00752
205.721,26.5735,0.30978,-0.11919,1.00724
206.321,26.6308,0.30882,-0.12208,1.00696
206.921,26.68791,0.30944,-0.12208,1.00668
207.521,26.74509,0.31161,-0.1224,1.0064
208.121,26.80204,0.31158,-0.11917,1.00612
208.721,26.859,0.3121,-0.11791,1.00583
209.321,26.91593,0.31314,-0.11788,1.00555
209.921,26.97327,0.31319,-0.11343,1.00527
210.521,27.0305,0.31024,-0.11397,1.00498
211.121,27.0876,0.31195,-0.11344,1.0047
211.721,27.1448,0.31319,-0.11638,1.00441
212.321,27.2015,0.31164,-0.1178,1.00413
212.921,27.25859,0.31174,-0.1178,1.00384
213.521,27.31577,0.31367,-0.11835,1.00355
214.121,27.3728,0.31632,-0.1191,1.00326
214.721,27.43007,0.31429,-0.11648,1.00298
215.321,27.48718,0.31567,-0.11517,1.00269
215.921,27.544,0.31349,-0.11649,1.0024
216.521,27.60085,0.3156,-0.11781,1.00211
217.121,27.6576,0.31736,-0.1191,1.00182
217.721,27.71469,0.31613,-0.12048,1.00153
218.321,27.7719,0.31574,-0.12046,1.00124
218.921,27.8292,0.31666,-0.12142,1.00094
219.521,27.8864,0.31754,-0.1214,1.00065
220.121,27.94353,0.3184,-0.12307,1.00036
220.721,28.0006,0.31818,-0.12307,1.00007
221.321,28.0577,0.31946,-0.12328,0.99977
221.921,28.11497,0.31923,-0.1246,0.99948
222.521,28.17196,0.31916,-0.12598,0.99918
223.121,28.22897,0.31889,-0.12591,0.99889
223.721,28.2859,0.31935,-0.12592,0.99859
224.321,28.34289,0.32116,-0.12903,0.9983
224.921,28.3998,0.3234,-0.12845,0.998
225.521,28.4568,0.32084,-0.12616,0.9977
226.121,28.51378,0.31931,-0.12364,0.9974
226.721,28.5708,0.32114,-0.12329,0.9971
227.321,28.628,0.32265,-0.12672,0.99681
227.921,28.68498,0.32261,-0.12854,0.99651
228.521,28.74215,0.3215,-0.12986,0.99621
229.121,28.79908,0.32397,-0.12986,0.99591
229.721,28.856,0.32342,-0.13007,0.99561
230.321,28.91235,0.32263,-0.12832,0.9953
230.921,28.96915,0.32245,-0.12833,0.995
231.521,29.02642,0.32447,-0.12833,0.9947
232.121,29.0838,0.32428,-0.12961,0.9944
232.721,29.14157,0.32385,-0.13099,0.99409
233.321,29.19858,0.32484,-0.13228,0.99379
233.921,29.25573,0.3257,-0.13096,0.99348
234.521,29.313,0.32539,-0.13097,0.99318
235.121,29.3703,0.32395,-0.13097,0.99287
235.721,29.42741,0.32386,-0.13098,0.99257
236.321,29.48456,0.32533,-0.13095,0.99226
236.921,29.5416,0.32399,-0.13245,0.99195
237.521,29.59872,0.32676,-0.13524,0.99165
238.121,29.65607,0.32631,-0.13665,0.99134
238.721,29.71329,0.32791,-0.13667,0.99103
239.321,29.77047,0.32692,-0.13799,0.99072
239.921,29.82757,0.32673,-0.13939,0.99041
240.521,29.8848,0.32853,-0.14199,0.9901
241.121,29.94215,0.3279,-0.1421,0.98979
241.721,29.9996,0.32638,-0.13989,0.98948
242.321,30.0568,0.32913,-0.13788,0.98917
242.921,30.11412,0.32707,-0.1379,0.98886
243.521,30.17148,0.32788,-0.14062,0.98855
244.121,30.2288,0.33005,-0.1416,0.98823
244.721,30.286,0.3259,-0.14259,0.98792
245.321,30.34318,0.32929,-0.14159,0.98761
245.921,30.40038,0.3275,-0.14162,0.98729
246.521,30.4577,0.33093,-0.14029,0.98698
247.121,30.51495,0.32846,-0.13967,0.98666
247.721,30.57227,0.33091,-0.13864,0.98635
248.321,30.62967,0.33078,-0.13863,0.98603
248.921,30.68692,0.33184,-0.1419,0.98571
249.521,30.74411,0.33345,-0.1447,0.9854
250.121,30.80123,0.33121,-0.1447,0.98508
250.721,30.85841,0.33067,-0.14325,0.98476
251.321,30.91582,0.33177,-0.14416,0.98444
251.921,30.9734,0.33364,-0.14618,0.98412
252.521,31.03074,0.33556,-0.14723,0.9838
253.121,31.08815,0.33562,-0.14672,0.98348
253.721,31.14535,0.33386,-0.14712,0.98316
254.321,31.2025,0.33728,-0.1488,0.98284
254.921,31.25974,0.33723,-0.15387,0.98252
255.521,31.317,0.33903,-0.15533,0.9822
256.121,31.37428,0.33857,-0.15668,0.98187
256.721,31.43163,0.34029,-0.15786,0.98155
257.321,31.48896,0.34194,-0.15866,0.98123
257.921,31.54622,0.34192,-0.16078,0.9809
258.521,31.60352,0.34221,-0.16113,0.98058
259.121,31.66062,0.34253,-0.16245,0.98025
259.721,31.7176,0.34307,-0.16245,0.97993
260.321,31.7745,0.34246,-0.16245,0.9796
260.921,31.8316,0.3419,-0.1628,0.97928
261.521,31.8887,0.34228,-0.16145,0.97895
262.121,31.94608,0.34397,-0.16111,0.97862
262.721,32.00325,0.34382,-0.16329,0.97829
263.321,32.0605,0.34539,-0.16639,0.97797
263.921,32.11773,0.34673,-0.16769,0.97764
264.521,32.17505,0.34417,-0.16939,0.97731
265.121,32.23231,0.34487,-0.16947,0.97698
265.721,32.28944,0.34715,-0.17043,0.97665
266.321,32.3466,0.34527,-0.16913,0.97632
266.921,32.40372,0.3447,-0.17163,0.97599
267.521,32.46103,0.34687,-0.17349,0.97566
268.121,32.51831,0.34685,-0.17484,0.97532
268.721,32.5756,0.34792,-0.17578,0.97499
269.321,32.63296,0.34814,-0.17583,0.97466
269.921,32.69041,0.34788,-0.1762,0.97433
270.521,32.74778,0.34876,-0.17714,0.97399
271.121,32.80519,0.34695,-0.17843,0.97366
271.721,32.86245,0.34755,-0.18239,0.97332
272.321,32.91977,0.34613,-0.18568,0.97299
272.921,32.977,0.34787,-0.18895,0.97265
273.521,33.0342,0.34607,-0.18763,0.97232
274.121,33.09156,0.34975,-0.18635,0.97198
274.721,33.14893,0.34631,-0.18923,0.97164
275.321,33.20628,0.3463,-0.18826,0.9713
275.921,33.2637,0.34752,-0.18586,0.97097
276.521,33.321,0.34796,-0.18787,0.97063
277.121,33.37849,0.34846,-0.19258,0.97029
277.721,33.43593,0.3495,-0.1975,0.96995
278.321,33.4934,0.34976,-0.20224,0.96961
278.921,33.55064,0.34881,-0.20385,0.96927
279.521,33.60796,0.34736,-0.20624,0.96893
280.121,33.66536,0.35073,-0.20725,0.96859
280.721,33.7226,0.35087,-0.2043,0.96825
281.321,33.7802,0.35052,-0.20292,0.96791
281.921,33.8376,0.35144,-0.20403,0.96756
282.521,33.89508,0.35219,-0.20914,0.96722
283.121,33.95258,0.35088,-0.21317,0.96688
283.721,34.00951,0.35291,-0.21551,0.96653
284.321,34.06694,0.35337,-0.21601,0.96619
284.921,34.1244,0.35217,-0.21731,0.96584
285.521,34.18179,0.35419,-0.21943,0.9655
286.121,34.23953,0.3548,-0.22142,0.96515
286.721,34.2968,0.35767,-0.22284,0.96481
287.321,34.35432,0.35703,-0.22497,0.96446
287.921,34.41186,0.35854,-0.22761,0.96411
288.521,34.46934,0.35641,-0.23023,0.96377
289.121,34.52689,0.36076,-0.23146,0.96342
289.721,34.58422,0.36102,-0.23438,0.96307
290.321,34.6415,0.36245,-0.23432,0.96272
290.921,34.6989,0.36614,-0.23715,0.96237
291.521,34.75634,0.3619,-0.24261,0.96202
292.121,34.81377,0.36606,-0.24572,0.96167
292.721,34.87153,0.36879,-0.24906,0.96132
293.321,34.92901,0.36511,-0.25086,0.96097
293.921,34.98666,0.36889,-0.25268,0.96062
294.521,35.04422,0.36834,-0.25578,0.96027
295.121,35.10151,0.36959,-0.25842,0.95992
295.721,35.159,0.3714,-0.2614,0.95957
296.321,35.21628,0.37231,-0.2633,0.95921
296.921,35.27373,0.37744,-0.26643,0.95886
297.521,35.33116,0.37559,-0.26656,0.9585
298.121,35.3884,0.38017,-0.26956,0.95815
298.721,35.44539,0.37911,-0.27264,0.9578
299.321,35.50281,0.38167,-0.27719,0.95744
299.921,35.5602,0.38277,-0.27925,0.95709
300.521,35.61797,0.38636,-0.28196,0.95673
301.121,35.67575,0.39006,-0.2871,0.95637
301.721,35.73316,0.38994,-0.2919,0.95602
302.321,35.7907,0.3898,-0.29561,0.95566
302.921,35.84822,0.39079,-0.29767,0.9553
303.521,35.9058,0.39403,-0.29857,0.95494
304.121,35.96287,0.39743,-0.3042,0.95458
304.721,36.02019,0.39838,-0.30688,0.95423
305.321,36.07764,0.39976,-0.30703,0.95387
305.921,36.1352,0.39962,-0.31472,0.95351
306.521,36.1928,0.40428,-0.3217,0.95315
307.121,36.25018,0.40692,-0.3293,0.95279
307.721,36.3076,0.40894,-0.33323,0.95242
308.321,36.36497,0.41033,-0.33767,0.95206
308.921,36.42236,0.41287,-0.34403,0.9517
309.521,36.4799,0.41235,-0.34988,0.95134
310.121,36.5375,0.4172,-0.35287,0.95098
310.721,36.59513,0.41947,-0.35343,0.95061
311.321,36.65274,0.41937,-0.35803,0.95025
311.921,36.71025,0.42154,-0.36254,0.94988
312.521,36.76794,0.42626,-0.36734,0.94952
313.121,36.82537,0.42793,-0.36991,0.94916
313.721,36.88301,0.43199,-0.37635,0.94879
314.321,36.94084,0.43561,-0.38462,0.94842
314.921,36.99838,0.43827,-0.38976,0.94806
315.521,37.05614,0.44315,-0.39448,0.94769
316.121,37.11379,0.44426,-0.40075,0.94732
316.721,37.1714,0.44877,-0.40877,0.94696
317.321,37.22927,0.45241,-0.41389,0.94659
317.921,37.287,0.45625,-0.41944,0.94622
318.521,37.34468,0.4607,-0.42472,0.94585
319.121,37.4024,0.46371,-0.43185,0.94548
319.721,37.46018,0.4698,-0.44041,0.94511
320.321,37.518,0.4734,-0.44884,0.94474
320.921,37.57543,0.47753,-0.45644,0.94437
321.521,37.63321,0.48498,-0.4613,0.944
322.121,37.69072,0.49034,-0.46767,0.94363
322.721,37.74827,0.49592,-0.47608,0.94326
323.321,37.80604,0.50218,-0.48451,0.94289
323.921,37.86368,0.5079,-0.49424,0.94252
324.521,37.9217,0.51331,-0.505,0.94215
325.121,37.9795,0.52266,-0.51525,0.94177
325.721,38.0372,0.52438,-0.52707,0.9414
326.321,38.09494,0.53206,-0.53385,0.94102
326.921,38.15256,0.53475,-0.53932,0.94065
327.521,38.21027,0.54238,-0.54781,0.94028
328.121,38.2679,0.54924,-0.55391,0.9399
328.721,38.32548,0.55702,-0.56535,0.93953
329.321,38.38321,0.56352,-0.57492,0.93915
329.921,38.441,0.57266,-0.58353,0.93877
330.521,38.49881,0.58221,-0.59888,0.9384
331.121,38.55689,0.5894,-0.61178,0.93802
331.721,38.61489,0.59961,-0.62239,0.93764
332.321,38.67308,0.60701,-0.63268,0.93726
332.921,38.73084,0.61339,-0.64401,0.93689
333.521,38.78822,0.62546,-0.658,0.93651
334.121,38.8461,0.63708,-0.66929,0.93613
334.721,38.90406,0.64602,-0.68203,0.93575
335.321,38.9623,0.65496,-0.69615,0.93537
335.921,39.02032,0.66822,-0.71207,0.93499
336.521,39.07797,0.67943,-0.72906,0.93461
337.121,39.1357,0.69044,-0.74024,0.93423
337.721,39.19357,0.70163,-0.75398,0.93385
338.321,39.25172,0.71555,-0.76944,0.93347
338.921,39.31017,0.72947,-0.78691,0.93308
339.521,39.3682,0.74309,-0.80072,0.9327
340.121,39.42608,0.75874,-0.81887,0.93232
340.721,39.48397,0.7736,-0.83925,0.93193
341.321,39.54203,0.78894,-0.85857,0.93155
341.921,39.60005,0.80472,-0.87958,0.93117
342.521,39.658,0.82085,-0.89683,0.93078
343.121,39.71609,0.8378,-0.91522,0.9304
343.721,39.77415,0.85482,-0.93182,0.93001
344.321,39.83226,0.87166,-0.95235,0.92963
344.921,39.8902,0.89237,-0.97265,0.92924
345.521,39.94811,0.91245,-0.99562,0.92886
346.121,40.00611,0.93173,-1.01647,0.92847
346.721,40.06425,0.95295,-1.04089,0.92808
347.321,40.12256,0.97669,-1.06697,0.92769
347.921,40.181,0.99617,-1.09231,0.92731
348.521,40.2392,1.02208,-1.11706,0.92692
349.121,40.29742,1.04527,-1.14368,0.92653
349.721,40.3553,1.07019,-1.17211,0.92614
350.321,40.41337,1.09848,-1.19985,0.92575
350.921,40.4717,1.12285,-1.22928,0.92536
351.521,40.53024,1.15261,-1.25758,0.92497
352.121,40.5888,1.17725,-1.28944,0.92458
352.721,40.647,1.20724,-1.31911,0.92419
353.321,40.70519,1.23698,-1.34933,0.9238
353.921,40.76345,1.26744,-1.38036,0.92341
354.521,40.82186,1.2984,-1.41422,0.92302
355.121,40.88026,1.32873,-1.44853,0.92262
355.721,40.93886,1.36354,-1.48607,0.92223
356.321,40.99734,1.39445,-1.52571,0.92184
356.921,41.05537,1.4294,-1.56612,0.92144
357.521,41.11354,1.46082,-1.60903,0.92105
358.121,41.1718,1.49417,-1.65073,0.92066
358.721,41.23039,1.52797,-1.69017,0.92026
359.321,41.28942,1.55897,-1.72988,0.91987
359.921,41.34803,1.59571,-1.77318,0.91947
360.521,41.40648,1.62558,-1.81496,0.91908
361.121,41.4649,1.65822,-1.86337,0.91868
361.721,41.52325,1.68979,-1.90736,0.91828
362.321,41.58155,1.718,-1.95279,0.91789
362.921,41.6404,1.74411,-2.00094,0.91749
363.521,41.699,1.77041,-2.05056,0.91709
364.121,41.75783,1.79612,-2.1029,0.9167
364.721,41.81621,1.81759,-2.15206,0.9163
365.321,41.87446,1.83729,-2.20483,0.9159
365.921,41.93298,1.85313,-2.25301,0.9155
366.521,41.9916,1.86708,-2.30632,0.9151
367.121,42.05011,1.87413,-2.35362,0.9147
367.721,42.1085,1.88121,-2.4055,0.9143
368.321,42.16657,1.88108,-2.45747,0.9139
368.921,42.22472,1.88235,-2.51683,0.9135
369.521,42.28288,1.87521,-2.57581,0.9131
370.121,42.34118,1.86359,-2.62722,0.9127
370.721,42.39968,1.84794,-2.6771,0.9123
371.321,42.45795,1.82657,-2.7264,0.9119
371.921,42.51607,1.79903,-2.7807,0.91149
372.521,42.57415,1.76591,-2.82985,0.91109
373.121,42.6323,1.7275,-2.88484,0.91069
373.721,42.69032,1.68416,-2.9313,0.91028
374.321,42.74841,1.63933,-2.97733,0.90988
374.921,42.8063,1.58224,-3.02432,0.90948
375.521,42.86424,1.52128,-3.06395,0.90907
376.121,42.92188,1.45631,-3.10087,0.90867
376.721,42.97957,1.38517,-3.1356,0.90826
377.321,43.03736,1.3114,-3.17314,0.90786
377.921,43.09494,1.22943,-3.20643,0.90745
378.521,43.1528,1.14865,-3.24029,0.90704
379.121,43.21042,1.06671,-3.27261,0.90664
379.721,43.26797,0.97894,-3.30095,0.90623
380.321,43.3254,0.89274,-3.3237,0.90582
380.921,43.3823,0.80775,-3.34713,0.90542
381.521,43.43938,0.72379,-3.36936,0.90501
382.121,43.4968,0.64042,-3.38993,0.9046
382.721,43.5543,0.56203,-3.40702,0.90419
383.321,43.6124,0.48723,-3.42208,0.90378
383.921,43.66981,0.41853,-3.43478,0.90337
384.521,43.72718,0.35431,-3.4456,0.90296
385.121,43.78474,0.28982,-3.45418,0.90255
385.721,43.8421,0.24008,-3.46211,0.90214
386.321,43.8996,0.18975,-3.47229,0.90173
386.921,43.95706,0.14939,-3.47868,0.90132
387.521,44.01463,0.1141,-3.48292,0.90091
388.121,44.07226,0.08228089,-3.48609,0.9005
388.721,44.12986,0.05833224,-3.48747,0.90009
389.321,44.1874,0.03865017,-3.49022,0.89967
389.921,44.245,0.01929768,-3.49457,0.89926
390.521,44.30285,0.00763415,-3.49846,0.89885
391.121,44.36072,-0.0008168738,-3.50247,0.89844
391.721,44.4188,-0.01062626,-3.50306,0.89802
392.321,44.4766,-0.01675249,-3.50337,0.89761
392.921,44.53456,-0.0233589,-3.50339,0.89719
393.521,44.5926,-0.0257989,-3.50466,0.89678
394.121,44.6507,-0.02807434,-3.506,0.89636
394.721,44.7089,-0.03207353,-3.50601,0.89595
395.321,44.76661,-0.03377081,-3.50798,0.89553
395.921,44.8245,-0.03502508,-3.50939,0.89512
396.521,44.88208,-0.03760582,-3.51002,0.8947
397.121,44.9403,-0.03891245,-3.51065,0.89429
397.721,44.9985,-0.0408222,-3.51361,0.89387
398.321,45.05704,-0.04154809,-3.51403,0.89345
398.921,45.1156,-0.0436983,-3.5136,0.89303
399.521,45.17373,-0.04737401,-3.51192,0.89262
400.121,45.23205,-0.04850005,-3.50912,0.8922
400.721,45.29038,-0.05039912,-3.50996,0.89178
401.321,45.3484,-0.04848969,-3.50998,0.89136
401.921,45.40696,-0.05037283,-3.51323,0.89094
402.521,45.4653,-0.05182445,-3.51749,0.89052
403.121,45.52362,-0.05094223,-3.51842,0.8901
403.721,45.5819,-0.05188095,-3.51808,0.88968
404.321,45.63968,-0.05124269,-3.52146,0.88926
404.921,45.69781,-0.05022216,-3.52327,0.88884
405.521,45.75645,-0.05631781,-3.524,0.88842
406.121,45.81504,-0.05644342,-3.52401,0.888
406.721,45.87386,-0.05757912,-3.5241,0.88758
407.321,45.9322,-0.05797698,-3.52408,0.88716
407.921,45.9904,-0.05703386,-3.52441,0.88673
408.521,46.04888,-0.06018992,-3.52548,0.88631
409.121,46.1073,-0.0571576,-3.52817,0.88589
409.721,46.16574,-0.06064367,-3.5306,0.88546
410.321,46.2241,-0.05963384,-3.52881,0.88504
410.921,46.2826,-0.06464328,-3.52728,0.88462
411.521,46.34109,-0.06361889,-3.52465,0.88419
412.121,46.39955,-0.06345771,-3.52738,0.88377
412.721,46.4581,-0.06282783,-3.53215,0.88334
413.321,46.51664,-0.06716523,-3.53432,0.88292
413.921,46.5752,-0.06239389,-3.53152,0.88249
414.521,46.63389,-0.06761164,-3.53024,0.88207
415.121,46.69258,-0.06746715,-3.53045,0.88164
415.721,46.7513,-0.06559666,-3.53471,0.88122
416.321,46.81,-0.06641557,-3.53749,0.88079
416.921,46.86858,-0.06563422,-3.53881,0.88036
417.521,46.9272,-0.06618359,-3.53883,0.87994
418.121,46.9857,-0.06648562,-3.5386,0.87951
418.721,47.04421,-0.07003221,-3.53791,0.87908
419.321,47.10282,-0.06904322,-3.5367,0.87865
419.921,47.16142,-0.07060574,-3.53738,0.87822
420.521,47.22054,-0.06803814,-3.54005,0.87779
421.121,47.27917,-0.07012337,-3.54061,0.87737
421.721,47.3376,-0.07291281,-3.54052,0.87694
422.321,47.39606,-0.07252851,-3.5388,0.87651
422.921,47.45467,-0.07378592,-3.53881,0.87608
423.521,47.51332,-0.0742012,-3.54077,0.87565
424.121,47.57193,-0.07125787,-3.54468,0.87522
424.721,47.63055,-0.07251715,-3.54605,0.87479
425.321,47.68922,-0.07636832,-3.54607,0.87435
425.921,47.748,-0.0755196,-3.54688,0.87392
426.521,47.80685,-0.0749611,-3.54855,0.87349
427.121,47.86546,-0.07689654,-3.55141,0.87306
427.721,47.92411,-0.07928707,-3.549,0.87263
428.321,47.98279,-0.07920032,-3.54807,0.8722
428.921,48.04159,-0.08036344,-3.54869,0.87176
429.521,48.10046,-0.08153187,-3.54999,0.87133
430.121,48.15956,-0.08233557,-3.54867,0.8709
430.721,48.2185,-0.08308968,-3.54867,0.87046
431.321,48.27729,-0.08385885,-3.55148,0.87003
431.921,48.33614,-0.08239582,-3.55406,0.86959
432.521,48.39497,-0.08344453,-3.55486,0.86916
433.121,48.45343,-0.08392564,-3.55539,0.86872
433.721,48.51225,-0.08286427,-3.56028,0.86829
434.321,48.57115,-0.08174313,-3.56307,0.86785
434.921,48.63009,-0.0844476,-3.56273,0.86742
435.521,48.68949,-0.0836273,-3.56173,0.86698
436.121,48.74855,-0.0855794,-3.56173,0.86655
436.721,48.8074,-0.08616365,-3.55864,0.86611
437.321,48.86633,-0.0879952,-3.55756,0.86567
437.921,48.92511,-0.08762896,-3.55595,0.86524
438.521,48.98388,-0.08729032,-3.55525,0.8648
439.121,49.04267,-0.08689037,-3.55836,0.86436
439.721,49.10154,-0.08738413,-3.56359,0.86392
440.321,49.1603,-0.08642766,-3.56359,0.86349
440.921,49.21886,-0.09010776,-3.56359,0.86305
441.521,49.27769,-0.08865096,-3.5636,0.86261
442.121,49.33662,-0.08900117,-3.56751,0.86217
442.721,49.3955,-0.08695364,-3.56895,0.86173
443.321,49.4544,-0.08698942,-3.57192,0.86129
443.921,49.51316,-0.0878056,-3.57302,0.86085
444.521,49.57199,-0.08761453,-3.57302,0.86041
445.121,49.63089,-0.09010778,-3.5717,0.85997
445.721,49.68987,-0.09182685,-3.57302,0.85953
446.321,49.74877,-0.09257014,-3.57171,0.85909
446.921,49.80761,-0.08925682,-3.57171,0.85865
447.521,49.8667,-0.0907888,-3.5721,0.85821
448.121,49.92581,-0.09014053,-3.57437,0.85776
448.721,49.9848,-0.09111129,-3.57667,0.85732
449.321,50.04375,-0.09223952,-3.58296,0.85688
449.921,50.1027,-0.09364336,-3.58143,0.85644
450.521,50.16158,-0.0939242,-3.5794,0.85599
451.121,50.22054,-0.09609959,-3.57656,0.85555
451.721,50.27977,-0.09333053,-3.57533,0.85511
452.321,50.33874,-0.09709371,-3.57396,0.85466
452.921,50.39796,-0.09874103,-3.57263,0.85422
453.521,50.457,-0.09896321,-3.57519,0.85378
454.121,50.5159,-0.0978501,-3.57766,0.85333
454.721,50.57482,-0.09580952,-3.5817,0.85289
455.321,50.63364,-0.09584869,-3.58731,0.85244
455.921,50.69229,-0.09883172,-3.59027,0.852
456.521,50.7509,-0.0969806,-3.58712,0.85155
457.121,50.80972,-0.09855405,-3.58564,0.85111
457.721,50.86866,-0.09491076,-3.58564,0.85066
458.321,50.92803,-0.09852559,-3.58678,0.85021
458.921,50.9871,-0.10015,-3.58684,0.84977
459.521,51.04594,-0.10133,-3.58697,0.84932
460.121,51.10502,-0.10058,-3.58474,0.84887
460.721,51.1638,-0.10061,-3.58337,0.84843
461.321,51.22285,-0.10309,-3.58309,0.84798
461.921,51.28184,-0.10224,-3.58235,0.84753
462.521,51.34085,-0.09946311,-3.58439,0.84708
463.121,51.39986,-0.09816368,-3.58805,0.84663
463.721,51.4588,-0.09927382,-3.58937,0.84619
464.321,51.51766,-0.09706896,-3.59069,0.84574
464.921,51.57666,-0.09845182,-3.59104,0.84529
465.521,51.63579,-0.10008,-3.592,0.84484
466.121,51.6949,-0.09831487,-3.592,0.84439
466.721,51.75399,-0.09991692,-3.592,0.84394
467.321,51.81308,-0.09849559,-3.59194,0.84349
467.921,51.872,-0.10232,-3.59331,0.84304
468.521,51.93111,-0.10213,-3.59466,0.84259
469.121,51.9902,-0.10117,-3.59848,0.84214
469.721,52.04918,-0.09925997,-3.5988,0.84169
470.321,52.10823,-0.1016,-3.5988,0.84123
470.921,52.16751,-0.09918459,-3.60013,0.84078
471.521,52.22668,-0.10056,-3.60271,0.84033
472.121,52.28601,-0.09959333,-3.60403,0.83988
472.721,52.34517,-0.09743507,-3.60285,0.83943
473.321,52.40419,-0.09771954,-3.60144,0.83897
473.921,52.4631,-0.09951982,-3.60291,0.83852
474.521,52.522,-0.09890959,-3.60286,0.83807
475.121,52.5809,-0.10154,-3.60023,0.83761
475.721,52.63995,-0.09972448,-3.60022,0.83716
476.321,52.69919,-0.09905057,-3.60022,0.83671
476.921,52.75861,-0.09999505,-3.59891,0.83625
477.521,52.818,-0.10422,-3.60006,0.8358
478.121,52.87729,-0.10354,-3.60023,0.83534
478.721,52.9364,-0.10079,-3.60449,0.83489
479.321,52.99541,-0.10351,-3.60625,0.83444
479.921,53.05434,-0.10213,-3.60112,0.83398
480.521,53.11348,-0.10213,-3.60263,0.83352
481.121,53.1727,-0.1048,-3.60519,0.83307
481.721,53.23206,-0.10437,-3.60687,0.83261
482.321,53.2914,-0.10253,-3.60933,0.83216
482.921,53.35065,-0.10365,-3.61078,0.8317
483.521,53.41,-0.10181,-3.61207,0.83124
484.121,53.4694,-0.10511,-3.61203,0.83079
484.721,53.5287,-0.10452,-3.61338,0.83033
485.321,53.5881,-0.10165,-3.6118,0.82987
485.921,53.6474,-0.10573,-3.6112,0.82942
486.521,53.7065,-0.10684,-3.61108,0.82896
487.121,53.7657,-0.10577,-3.60841,0.8285
487.721,53.8249,-0.10616,-3.60845,0.82804
488.321,53.88395,-0.10745,-3.60985,0.82758
488.921,53.94311,-0.10883,-3.61211,0.82712
489.521,54.0022,-0.10688,-3.61496,0.82667
490.121,54.06125,-0.10699,-3.61491,0.82621
490.721,54.12005,-0.10684,-3.61328,0.82575
491.321,54.1792,-0.10648,-3.61328,0.82529
491.921,54.2384,-0.10521,-3.61462,0.82483
492.521,54.29806,-0.10614,-3.61727,0.82437
493.121,54.35759,-0.10758,-3.61723,0.82391
493.721,54.4167,-0.10694,-3.61859,0.82345
494.321,54.47586,-0.10841,-3.61997,0.82299
494.921,54.53501,-0.10763,-3.61997,0.82252
495.521,54.59423,-0.10974,-3.62154,0.82206
496.121,54.6533,-0.10976,-3.62348,0.8216
496.721,54.71244,-0.11012,-3.62168,0.82114
497.321,54.77156,-0.10947,-3.62151,0.82068
497.921,54.8308,-0.10952,-3.6203,0.82022
498.521,54.8901,-0.11203,-3.62031,0.81975
499.121,54.9494,-0.11295,-3.62161,0.81929
499.721,55.00883,-0.11196,-3.62289,0.81883
500.321,55.0681,-0.1133,-3.62293,0.81837
500.921,55.12732,-0.11534,-3.62293,0.8179
501.521,55.18643,-0.11561,-3.62284,0.81744
502.121,55.24561,-0.11621,-3.62521,0.81698
502.721,55.3049,-0.11637,-3.62601,0.81651
503.321,55.36416,-0.11945,-3.62688,0.81605
503.921,55.42338,-0.12006,-3.62688,0.81558
504.521,55.4828,-0.11625,-3.62688,0.81512
505.121,55.54215,-0.12229,-3.62527,0.81466
505.721,55.6015,-0.12198,-3.62235,0.81419
506.321,55.66091,-0.12052,-3.62447,0.81373
506.921,55.72041,-0.12343,-3.62798,0.81326
507.521,55.78,-0.12112,-3.62929,0.81279
508.121,55.83939,-0.12269,-3.62858,0.81233
508.721,55.8988,-0.12514,-3.62964,0.81186
509.321,55.9583,-0.1218,-3.62963,0.8114
509.921,56.01785,-0.12247,-3.62965,0.81093
510.521,56.0775,-0.1243,-3.63183,0.81046
511.121,56.1369,-0.12717,-3.63086,0.81
511.721,56.19615,-0.12911,-3.63151,0.80953
512.321,56.25552,-0.12874,-3.63222,0.80906
512.921,56.3148,-0.13028,-3.63166,0.8086
513.521,56.3741,-0.13081,-3.63313,0.80813
514.121,56.4333,-0.13093,-3.63561,0.80766
514.721,56.4929,-0.13131,-3.63434,0.80719
515.321,56.55271,-0.13707,-3.62993,0.80672
515.921,56.61232,-0.13762,-3.62826,0.80626
516.521,56.672,-0.13497,-3.63131,0.80579
517.121,56.7311,-0.14027,-3.63125,0.80532
517.721,56.79059,-0.13936,-3.63282,0.80485
518.321,56.85021,-0.14286,-3.63149,0.80438
518.921,56.90996,-0.14223,-3.63324,0.80391
519.521,56.97002,-0.14209,-3.63577,0.80344
520.121,57.02955,-0.14308,-3.63577,0.80297
520.721,57.08894,-0.14452,-3.63587,0.8025
521.321,57.14858,-0.14777,-3.63719,0.80203
521.921,57.20814,-0.14675,-3.63585,0.80156
522.521,57.2678,-0.14885,-3.63587,0.80109
523.121,57.32759,-0.14843,-3.63587,0.80062
523.721,57.387,-0.15123,-3.63587,0.80015
524.321,57.4464,-0.1498,-3.63587,0.79968
524.921,57.5058,-0.15178,-3.63586,0.79921
525.521,57.5654,-0.15305,-3.63809,0.79874
526.121,57.625,-0.15171,-3.63991,0.79826
526.721,57.6847,-0.1503,-3.64096,0.79779
527.321,57.74442,-0.15242,-3.64094,0.79732
527.921,57.8039,-0.15205,-3.63964,0.79685
528.521,57.8636,-0.15177,-3.63946,0.79638
529.121,57.92324,-0.15387,-3.64129,0.7959
529.721,57.9829,-0.15401,-3.64086,0.79543
530.321,58.04243,-0.15633,-3.6396,0.79496
530.921,58.1021,-0.15418,-3.6396,0.79448
531.521,58.1615,-0.15509,-3.64058,0.79401
532.121,58.2213,-0.15784,-3.64201,0.79354
532.721,58.28108,-0.15764,-3.64358,0.79306
533.321,58.3408,-0.15769,-3.64356,0.79259
533.921,58.4006,-0.15924,-3.64033,0.79212
534.521,58.4602,-0.15833,-3.64004,0.79164
535.121,58.5198,-0.15931,-3.64004,0.79117
535.721,58.57951,-0.16162,-3.64134,0.79069
536.321,58.63895,-0.15901,-3.64536,0.79022
536.921,58.69857,-0.16056,-3.64673,0.78974
537.521,58.7582,-0.15802,-3.64723,0.78927
538.121,58.81801,-0.16307,-3.64594,0.78879
538.721,58.8779,-0.16709,-3.6437,0.78832
539.321,58.93766,-0.16563,-3.64139,0.78784
539.921,58.9972,-0.16433,-3.63984,0.78737
540.521,59.05669,-0.16649,-3.64253,0.78689
541.121,59.1162,-0.16496,-3.64361,0.78641
541.721,59.17592,-0.16555,-3.64666,0.78594
542.321,59.2356,-0.16585,-3.64795,0.78546
542.921,59.29532,-0.16465,-3.64959,0.78498
543.521,59.355,-0.16515,-3.6493,0.78451
544.121,59.41475,-0.16898,-3.64756,0.78403
544.721,59.47446,-0.17117,-3.64572,0.78355
545.321,59.53365,-0.17131,-3.64439,0.78307
545.921,59.59319,-0.17006,-3.64564,0.7826
546.521,59.65277,-0.16762,-3.64707,0.78212
547.121,59.7126,-0.16496,-3.65141,0.78164
547.721,59.7727,-0.1685,-3.65435,0.78116
548.321,59.8324,-0.17183,-3.65143,0.78068
548.921,59.89215,-0.17094,-3.64855,0.78021
549.521,59.95195,-0.17091,-3.64791,0.77973
550.121,60.01161,-0.17112,-3.64874,0.77925
550.721,60.07114,-0.17482,-3.64869,0.77877
551.321,60.13069,-0.17324,-3.64861,0.77829
551.921,60.1904,-0.17403,-3.6486,0.77781
552.521,60.25022,-0.1729,-3.65002,0.77733
553.121,60.3097,-0.17458,-3.65266,0.77685
553.721,60.3694,-0.17418,-3.65266,0.77637
554.321,60.42918,-0.17489,-3.65266,0.77589
554.921,60.48907,-0.17309,-3.65323,0.77541
555.521,60.5489,-0.1735,-3.65397,0.77493
556.121,60.60866,-0.17136,-3.65391,0.77445
556.721,60.6685,-0.17623,-3.65529,0.77397
557.321,60.7283,-0.17665,-3.6553,0.77349
557.921,60.7881,-0.17457,-3.6566,0.77301
558.521,60.84766,-0.17365,-3.65707,0.77253
559.121,60.90744,-0.17663,-3.65662,0.77205
559.721,60.9672,-0.17677,-3.65368,0.77157
560.321,61.02725,-0.18223,-3.64874,0.77108
560.921,61.0871,-0.18382,-3.64657,0.7706
561.521,61.14674,-0.18198,-3.64833,0.77012
562.121,61.2065,-0.18048,-3.65237,0.76964
562.721,61.26627,-0.18276,-3.6543,0.76916
563.321,61.32614,-0.1808,-3.65561,0.76867
563.921,61.3859,-0.18199,-3.65567,0.76819
564.521,61.44566,-0.18088,-3.65562,0.76771
565.121,61.50546,-0.18018,-3.65716,0.76723
565.721,61.56531,-0.18093,-3.65716,0.76674
566.321,61.62515,-0.18108,-3.65716,0.76626
566.921,61.68493,-0.18138,-3.65716,0.76578
567.521,61.745,-0.18362,-3.65585,0.76529
568.121,61.80494,-0.18689,-3.65584,0.76481
568.721,61.8651,-0.18265,-3.65451,0.76433
569.321,61.9251,-0.1818,-3.65477,0.76384
569.921,61.9851,-0.18267,-3.65746,0.76336
570.521,62.04521,-0.18084,-3.65737,0.76287
571.121,62.1051,-0.18155,-3.65969,0.76239
571.721,62.1649,-0.18237,-3.65841,0.76191
572.321,62.22478,-0.17911,-3.66006,0.76142
572.921,62.28465,-0.18096,-3.66176,0.76094
573.521,62.34454,-0.18109,-3.66176,0.76045
574.121,62.4046,-0.18131,-3.66176,0.75997
574.721,62.4645,-0.179,-3.663,0.75948
575.321,62.52445,-0.17797,-3.6645,0.759
575.921,62.5846,-0.17862,-3.66239,0.75851
576.521,62.6447,-0.17742,-3.66067,0.75803
577.121,62.7049,-0.17932,-3.65795,0.75754
577.721,62.7649,-0.17685,-3.65941,0.75705
578.321,62.82495,-0.18086,-3.65724,0.75657
578.921,62.88499,-0.17991,-3.65757,0.75608
579.521,62.94539,-0.18177,-3.65907,0.7556
580.121,63.00551,-0.17708,-3.66044,0.75511
580.721,63.0656,-0.17945,-3.66312,0.75462
581.321,63.1256,-0.18082,-3.66345,0.75414
581.921,63.1856,-0.18042,-3.66374,0.75365
582.521,63.2456,-0.18251,-3.66242,0.75316
583.121,63.3055,-0.17892,-3.66235,0.75267
583.721,63.36546,-0.18041,-3.66308,0.75219
584.321,63.42513,-0.18108,-3.66308,0.7517
584.921,63.48517,-0.18226,-3.66202,0.75121
585.521,63.54517,-0.18308,-3.66307,0.75072
586.121,63.60521,-0.18281,-3.66544,0.75024
586.721,63.66536,-0.18354,-3.66711,0.74975
587.321,63.72535,-0.18209,-3.66477,0.74926
587.921,63.7853,-0.18224,-3.66404,0.74877
588.521,63.84539,-0.18315,-3.66425,0.74828
589.121,63.9054,-0.18247,-3.66409,0.7478
589.721,63.9654,-0.18236,-3.66538,0.74731
590.321,64.02546,-0.18284,-3.66671,0.74682
590.921,64.08551,-0.18514,-3.6668,0.74633
591.521,64.14572,-0.18528,-3.66538,0.74584
592.121,64.20581,-0.18371,-3.66535,0.74535
592.721,64.26606,-0.18245,-3.66439,0.74486
593.321,64.32587,-0.18276,-3.66535,0.74437
593.921,64.38606,-0.18339,-3.66839,0.74388
594.521,64.4464,-0.17978,-3.67145,0.74339
595.121,64.50667,-0.18052,-3.67584,0.74291
595.721,64.5672,-0.17784,-3.67656,0.74242
596.321,64.62729,-0.18447,-3.66943,0.74193
596.921,64.68724,-0.18419,-3.66472,0.74144
597.521,64.7475,-0.18361,-3.66472,0.74095
598.121,64.8075,-0.18702,-3.66341,0.74045
598.721,64.86779,-0.18408,-3.66329,0.73996
599.321,64.92818,-0.18227,-3.66463,0.73947
599.921,64.9884,-0.18082,-3.66844,0.73898
600.521,65.04865,-0.18289,-3.67149,0.73849
601.121,65.10875,-0.18473,-3.67161,0.738
601.721,65.16886,-0.18144,-3.67063,0.73751
602.321,65.22914,-0.18189,-3.67064,0.73702
602.921,65.2892,-0.18621,-3.66841,0.73653
603.521,65.3493,-0.18294,-3.66932,0.73604
604.121,65.40958,-0.18677,-3.66932,0.73555
604.721,65.46982,-0.19006,-3.66933,0.73505
605.321,65.52999,-0.18917,-3.66724,0.73456
605.921,65.59013,-0.18566,-3.66791,0.73407
606.521,65.6502,-0.18735,-3.66922,0.73358
607.121,65.7105,-0.18648,-3.67199,0.73309
607.721,65.77077,-0.18515,-3.67332,0.73259
608.321,65.8309,-0.18803,-3.67462,0.7321
608.921,65.891,-0.18818,-3.6746,0.73161
609.521,65.95104,-0.19143,-3.67305,0.73112
610.121,66.01101,-0.19031,-3.6689,0.73062
610.721,66.0708,-0.18903,-3.66757,0.73013
611.321,66.13077,-0.18858,-3.66889,0.72964
611.921,66.1908,-0.19096,-3.6702,0.72915
612.521,66.25106,-0.18759,-3.67024,0.72865
613.121,66.31104,-0.18996,-3.67054,0.72816
613.721,66.3711,-0.18982,-3.6696,0.72767
614.321,66.4311,-0.19038,-3.6689,0.72717
614.921,66.49125,-0.1907,-3.67023,0.72668
615.521,66.55121,-0.19238,-3.67156,0.72619
616.121,66.6112,-0.18723,-3.67418,0.72569
616.721,66.67118,-0.18912,-3.67442,0.7252
617.321,66.7312,-0.19161,-3.67415,0.72471
617.921,66.79138,-0.19114,-3.67415,0.72421
618.521,66.8515,-0.19018,-3.67578,0.72372
619.121,66.9117,-0.18711,-3.67822,0.72322
619.721,66.97188,-0.19291,-3.67974,0.72273
620.321,67.03223,-0.18935,-3.67975,0.72223
620.921,67.09227,-0.19032,-3.6792,0.72174
621.521,67.15252,-0.19272,-3.67699,0.72125
622.121,67.21279,-0.19085,-3.67762,0.72075
622.721,67.2731,-0.19378,-3.67831,0.72026
623.321,67.33345,-0.19322,-3.67795,0.71976
623.921,67.39372,-0.19558,-3.67689,0.71927
624.521,67.45389,-0.19491,-3.67319,0.71877
625.121,67.5142,-0.19407,-3.67444,0.71828
625.721,67.57414,-0.19509,-3.67294,0.71778
626.321,67.6344,-0.1931,-3.67118,0.71729
626.921,67.6947,-0.19608,-3.67114,0.71679
627.521,67.7551,-0.19458,-3.67396,0.71629
628.121,67.81533,-0.19335,-3.67629,0.7158
628.721,67.87566,-0.19548,-3.6801,0.7153
629.321,67.93576,-0.19664,-3.68139,0.71481
629.921,67.99611,-0.19709,-3.68011,0.71431
630.521,68.05638,-0.19578,-3.68007,0.71382
631.121,68.11673,-0.19723,-3.68007,0.71332
631.721,68.17697,-0.19611,-3.67878,0.71282
632.321,68.2372,-0.19714,-3.67876,0.71233
632.921,68.2975,-0.19967,-3.67778,0.71183
633.521,68.3579,-0.20061,-3.67777,0.71133
634.121,68.41841,-0.20026,-3.67777,0.71084
634.721,68.47877,-0.19977,-3.67718,0.71034
635.321,68.539,-0.19946,-3.67867,0.70984
635.921,68.59916,-0.19869,-3.67775,0.70935
636.521,68.65939,-0.19851,-3.67909,0.70885
637.121,68.71959,-0.20131,-3.67909,0.70835
637.721,68.7799,-0.20138,-3.67909,0.70786
638.321,68.84026,-0.2021,-3.67931,0.70736
638.921,68.9007,-0.20095,-3.67931,0.70686
639.521,68.961,-0.19926,-3.68083,0.70637
640.121,69.02131,-0.20249,-3.68245,0.70587
640.721,69.08159,-0.20561,-3.67907,0.70537
641.321,69.14193,-0.20486,-3.67866,0.70487
641.921,69.2024,-0.2033,-3.67645,0.70438
642.521,69.2629,-0.20601,-3.67881,0.70388
643.121,69.3232,-0.20556,-3.68079,0.70338
643.721,69.38367,-0.20315,-3.68623,0.70288
644.321,69.44408,-0.20297,-3.686,0.70238
644.921,69.50458,-0.20758,-3.68598,0.70189
645.521,69.5651,-0.20752,-3.68469,0.70139
646.121,69.62552,-0.20345,-3.68337,0.70089
646.721,69.68598,-0.20905,-3.68338,0.70039
647.321,69.74645,-0.21251,-3.68109,0.69989
647.921,69.80719,-0.20866,-3.67806,0.6994
648.521,69.86774,-0.21124,-3.6768,0.6989
649.121,69.92833,-0.21263,-3.67679,0.6984
649.721,69.98868,-0.21236,-3.67693,0.6979
650.321,70.04899,-0.21789,-3.67964,0.6974
650.921,70.10944,-0.21402,-3.67964,0.6969
651.521,70.17,-0.21449,-3.67832,0.6964
652.121,70.23062,-0.21386,-3.67701,0.6959
652.721,70.29143,-0.212,-3.67881,0.69541
653.321,70.35209,-0.21433,-3.68327,0.69491
653.921,70.41252,-0.21252,-3.68423,0.69441
654.521,70.47304,-0.2105,-3.68413,0.69391
655.121,70.5335,-0.21631,-3.68318,0.69341
655.721,70.59392,-0.21486,-3.68151,0.69291
656.321,70.65443,-0.21264,-3.6792,0.69241
656.921,70.71478,-0.21363,-3.67914,0.69191
657.521,70.7753,-0.21751,-3.6792,0.69141
658.121,70.83545,-0.21806,-3.67788,0.69091
658.721,70.89583,-0.2166,-3.67779,0.69041
659.321,70.95589,-0.2169,-3.68163,0.68991
659.921,71.01635,-0.2168,-3.68313,0.68941
660.521,71.07658,-0.2176,-3.6845,0.68891
661.121,71.13693,-0.2184,-3.68578,0.68841
661.721,71.19771,-0.21896,-3.6871,0.68791
662.321,71.25805,-0.22034,-3.68841,0.68741
662.921,71.31854,-0.22173,-3.68716,0.68691
663.521,71.37901,-0.2238,-3.6871,0.68641
664.121,71.4394,-0.22361,-3.68682,0.68591
664.721,71.49985,-0.22236,-3.68349,0.68541
665.321,71.56018,-0.22362,-3.68271,0.68491
665.921,71.62056,-0.22586,-3.68271,0.68441
666.521,71.68095,-0.22364,-3.6817,0.68391
667.121,71.7414,-0.22303,-3.68305,0.68341
667.721,71.80206,-0.2277,-3.68411,0.68291
668.321,71.8627,-0.22641,-3.68535,0.68241
668.921,71.9234,-0.22549,-3.6863,0.68191
669.521,71.98408,-0.22918,-3.68633,0.68141
670.121,72.04472,-0.22764,-3.68633,0.68091
670.721,72.10535,-0.2318,-3.68597,0.68041
671.321,72.16601,-0.23111,-3.68567,0.67991
671.921,72.22668,-0.23305,-3.68567,0.67941
672.521,72.28741,-0.23361,-3.68567,0.67891
673.121,72.34812,-0.23247,-3.68567,0.6784
673.721,72.40887,-0.235,-3.68564,0.6779
674.321,72.46935,-0.23641,-3.68567,0.6774
674.921,72.5298,-0.23275,-3.68339,0.6769
675.521,72.59017,-0.23207,-3.68161,0.6764
676.121,72.65075,-0.23648,-3.68161,0.6759
676.721,72.71137,-0.23766,-3.68297,0.6754
677.321,72.77215,-0.23561,-3.68465,0.6749
677.921,72.83293,-0.23833,-3.68459,0.67439
678.521,72.89376,-0.23363,-3.68589,0.67389
679.121,72.9546,-0.23952,-3.68726,0.67339
679.721,73.01536,-0.24219,-3.68502,0.67289
680.321,73.07608,-0.24293,-3.68067,0.67239
680.921,73.1366,-0.24544,-3.67907,0.67189
681.521,73.19717,-0.24411,-3.67641,0.67139
682.121,73.25785,-0.24382,-3.67909,0.67088
682.721,73.31804,-0.24611,-3.68131,0.67038
683.321,73.37869,-0.24448,-3.6827,0.66988
683.921,73.43926,-0.24578,-3.68223,0.66938
684.521,73.5001,-0.24823,-3.68479,0.66888
685.121,73.56058,-0.24646,-3.68479,0.66837
685.721,73.62122,-0.24552,-3.68372,0.66787
686.321,73.68186,-0.24608,-3.68348,0.66737
686.921,73.74244,-0.24474,-3.68593,0.66687
687.521,73.80311,-0.24328,-3.68885,0.66637
688.121,73.86357,-0.24391,-3.68796,0.66586
688.721,73.92411,-0.24601,-3.68863,0.66536
689.321,73.98464,-0.24589,-3.6905,0.66486
689.921,74.04505,-0.24306,-3.6905,0.66436
690.521,74.10555,-0.24645,-3.6905,0.66386
691.121,74.16614,-0.24701,-3.69049,0.66335
691.721,74.22663,-0.25178,-3.69083,0.66285
692.321,74.28703,-0.24945,-3.68472,0.66235
692.921,74.34745,-0.25165,-3.68281,0.66185
693.521,74.40795,-0.25233,-3.68128,0.66134
694.121,74.46835,-0.25048,-3.68392,0.66084
694.721,74.5287,-0.25262,-3.68386,0.66034
695.321,74.58914,-0.25,-3.68791,0.65984
695.921,74.6494,-0.24898,-3.6894,0.65933
696.521,74.70976,-0.25258,-3.6894,0.65883
697.121,74.7701,-0.25104,-3.69072,0.65833
697.721,74.83069,-0.24935,-3.69111,0.65783
698.321,74.89116,-0.24742,-3.69202,0.65732
698.921,74.95176,-0.2523,-3.69189,0.65682
699.321,74.9918,-0.2519,-3.6905,0.65649