File: 01_Data/Lightweight_Gypsum_Wallboard_Painted_Paper/STA/N2/10K_min/Lightweight_Gypsum_Wallboard_Painted_Paper_STA_N2_10KData_222302_R3.csv
##Temp./Â°C,Time/min,Mass loss(subtr.2)/mg,DSC(subtr.2)/(mW/mg),Sensit./(uV/mW)
49.838,10.01,0.00658,0.008654343,1.07508
50.538,10.7557,0.001298907,0.04098191,1.07472
51.238,10.9597,0.002845269,0.06445055,1.07435
51.938,11.112,0.002192392,0.08530726,1.07399
52.638,11.24052,0.003146015,0.10391,1.07362
53.338,11.3554,0.0023328,0.11649,1.07326
54.038,11.4607,0.003070968,0.12745,1.0729
54.738,11.5595,0.001165249,0.13852,1.07253
55.438,11.65425,0.00338946,0.15,1.07217
56.138,11.7451,0.003989109,0.15811,1.0718
56.838,11.83308,0.003031105,0.16538,1.07144
57.538,11.91924,0.003048017,0.17131,1.07107
58.238,12.003,0.003836773,0.17767,1.07071
58.938,12.08575,0.00280113,0.18335,1.07035
59.638,12.16709,0.001963983,0.18671,1.06998
60.338,12.24745,0.003303659,0.19312,1.06962
61.038,12.3269,0.004424324,0.19692,1.06925
61.738,12.40565,0.0046588,0.20196,1.06889
62.438,12.48407,0.004766848,0.20573,1.06853
63.138,12.56205,0.00427488,0.20838,1.06816
63.838,12.63912,0.004723075,0.21379,1.0678
64.538,12.71504,0.003857536,0.21521,1.06744
65.238,12.79086,0.00307477,0.21764,1.06707
65.938,12.86707,0.003408682,0.22192,1.06671
66.638,12.94341,0.003403251,0.22502,1.06635
67.338,13.0192,0.004319912,0.22616,1.06598
68.038,13.09562,0.00339511,0.22955,1.06562
68.738,13.1718,0.003401291,0.23284,1.06526
69.438,13.2475,0.003463315,0.23395,1.0649
70.138,13.3224,0.00269646,0.23833,1.06453
70.838,13.39686,0.004988022,0.23718,1.06417
71.538,13.4715,0.004830005,0.24419,1.06381
72.238,13.54597,0.00473417,0.24617,1.06345
72.938,13.6204,0.003520652,0.24856,1.06308
73.638,13.6945,0.00351012,0.25032,1.06272
74.338,13.7685,0.004777626,0.25336,1.06236
75.038,13.8421,0.00351012,0.25704,1.062
75.738,13.9155,0.002987586,0.25864,1.06163
76.438,13.9886,0.002198355,0.2634,1.06127
77.138,14.06156,0.002217213,0.26383,1.06091
77.838,14.13441,0.001866236,0.26499,1.06055
78.538,14.20698,0.00128564,0.26646,1.06019
79.238,14.2798,0.000892263,0.26829,1.05983
79.938,14.35241,0.00176595,0.26997,1.05946
80.638,14.4248,0.00105211,0.27203,1.0591
81.338,14.49691,0.0008802511,0.2755,1.05874
82.038,14.56885,-0.000451112,0.27745,1.05838
82.738,14.64075,-0.00043952,0.27958,1.05802
83.438,14.71226,-0.00170253,0.27894,1.05766
84.138,14.78375,-0.002402325,0.28103,1.0573
84.838,14.855,-0.001979975,0.28247,1.05693
85.538,14.9264,-0.001986921,0.28359,1.05657
86.238,14.99736,-0.0006636405,0.28325,1.05621
86.938,15.068,-0.001965817,0.28589,1.05585
87.638,15.13836,-0.001993262,0.28707,1.05549
88.338,15.2088,-0.001970696,0.2861,1.05513
89.038,15.27925,-0.003947229,0.289,1.05477
89.738,15.34942,-0.00460024,0.28946,1.05441
90.438,15.41952,-0.004616579,0.28811,1.05405
91.138,15.4896,-0.004600199,0.28999,1.05369
91.838,15.5595,-0.00592005,0.29004,1.05333
92.538,15.62935,-0.00719884,0.29142,1.05297
93.238,15.6989,-0.00729166,0.28858,1.05261
93.938,15.76861,-0.00592999,0.29046,1.05225
94.638,15.83813,-0.00593,0.28978,1.05189
95.338,15.90724,-0.00592763,0.29094,1.05153
96.038,15.9758,-0.006273056,0.28944,1.05117
96.738,16.04437,-0.007569001,0.28957,1.05081
97.438,16.1141,-0.00757733,0.2885,1.05045
98.138,16.18435,-0.007567688,0.2859,1.05009
98.838,16.25445,-0.00756399,0.28583,1.04973
99.538,16.32376,-0.008890826,0.2872,1.04937
100.238,16.39271,-0.00779667,0.28461,1.04901
100.938,16.46167,-0.0085512,0.28147,1.04865
101.638,16.53057,-0.00722885,0.28093,1.04829
102.338,16.59982,-0.00756106,0.28215,1.04793
103.038,16.66894,-0.007559862,0.28062,1.04757
103.738,16.7381,-0.008899264,0.28016,1.04722
104.438,16.80697,-0.008879505,0.27959,1.04686
105.138,16.8761,-0.01019189,0.27835,1.0465
105.838,16.94501,-0.008890939,0.2793,1.04614
106.538,17.01391,-0.00889,0.27863,1.04578
107.238,17.08279,-0.00889,0.27857,1.04542
107.938,17.15164,-0.00889058,0.27749,1.04506
108.638,17.22046,-0.01019937,0.27805,1.0447
109.338,17.28916,-0.00887898,0.27938,1.04435
110.038,17.3577,-0.008879575,0.27773,1.04399
110.738,17.4263,-0.01020512,0.27785,1.04363
111.438,17.49496,-0.01020001,0.27979,1.04327
112.138,17.5635,-0.01015009,0.27887,1.04291
112.838,17.6322,-0.01122396,0.28095,1.04256
113.538,17.70053,-0.01020724,0.2802,1.0422
114.238,17.76898,-0.01153796,0.27813,1.04184
114.938,17.83736,-0.01143055,0.27889,1.04148
115.638,17.90587,-0.01282818,0.28015,1.04112
116.338,17.97459,-0.01152166,0.27994,1.04077
117.038,18.043,-0.01152001,0.27685,1.04041
117.738,18.1114,-0.01149024,0.27756,1.04005
118.438,18.17987,-0.01151993,0.27599,1.03969
119.138,18.2485,-0.01277337,0.27825,1.03934
119.838,18.31693,-0.01283001,0.27483,1.03898
120.538,18.385,-0.01283,0.2754,1.03862
121.238,18.45316,-0.01282793,0.27643,1.03826
121.938,18.52117,-0.01152351,0.27198,1.03791
122.638,18.58938,-0.01280097,0.27282,1.03755
123.338,18.6574,-0.01531473,0.27139,1.03719
124.038,18.7256,-0.01547003,0.27092,1.03684
124.738,18.79395,-0.01542803,0.27093,1.03648
125.438,18.86222,-0.01546182,0.27183,1.03612
126.138,18.93047,-0.01508977,0.26959,1.03577
126.838,18.99857,-0.01415003,0.26807,1.03541
127.538,19.06696,-0.01428562,0.26985,1.03505
128.238,19.13532,-0.01546988,0.26901,1.0347
128.938,19.2035,-0.01547,0.26927,1.03434
129.638,19.27137,-0.01547013,0.27039,1.03398
130.338,19.3396,-0.01415185,0.26877,1.03363
131.038,19.4078,-0.01415158,0.27113,1.03327
131.738,19.47585,-0.01545866,0.2708,1.03292
132.438,19.54371,-0.01546,0.27071,1.03256
133.138,19.61175,-0.01546127,0.27134,1.0322
133.838,19.67979,-0.01544779,0.27178,1.03185
134.538,19.74796,-0.01546001,0.27145,1.03149
135.238,19.81604,-0.01546,0.27353,1.03114
135.938,19.88433,-0.01546,0.27119,1.03078
136.638,19.9525,-0.01546,0.27154,1.03042
137.338,20.02034,-0.01546035,0.27096,1.03007
138.038,20.08813,-0.01414775,0.27263,1.02971
138.738,20.15599,-0.01546288,0.27048,1.02936
139.438,20.22381,-0.01546,0.27396,1.029
140.138,20.2917,-0.01545797,0.27607,1.02865
140.838,20.35962,-0.01480695,0.27374,1.02829
141.538,20.42754,-0.01482688,0.27585,1.02794
142.238,20.4952,-0.01547046,0.27579,1.02758
142.938,20.5629,-0.01676481,0.2751,1.02722
143.638,20.63062,-0.01579644,0.27619,1.02687
144.338,20.69826,-0.01481011,0.2749,1.02651
145.038,20.76586,-0.01575789,0.27496,1.02616
145.738,20.83341,-0.01615083,0.27539,1.0258
146.438,20.90108,-0.01710861,0.27695,1.02545
147.138,20.9686,-0.01717119,0.27796,1.02509
147.838,21.03639,-0.01579997,0.2798,1.02474
148.538,21.10379,-0.01583819,0.28079,1.02439
149.238,21.1713,-0.01711992,0.2803,1.02403
149.938,21.23864,-0.01712,0.28038,1.02368
150.638,21.30627,-0.01711999,0.28063,1.02332
151.338,21.37353,-0.01719832,0.2833,1.02297
152.038,21.44059,-0.01710968,0.28285,1.02261
152.738,21.5077,-0.01710396,0.28404,1.02226
153.438,21.575,-0.01843046,0.28302,1.0219
154.138,21.64265,-0.01843,0.2881,1.02155
154.838,21.71005,-0.01843,0.28681,1.02119
155.538,21.77751,-0.01843592,0.2879,1.02084
156.238,21.84468,-0.01710951,0.28836,1.02049
156.938,21.9121,-0.01711002,0.28747,1.02013
157.638,21.9796,-0.01903247,0.28964,1.01978
158.338,22.04694,-0.01973902,0.28876,1.01942
159.038,22.11413,-0.01843345,0.2889,1.01907
159.738,22.18125,-0.01974402,0.29065,1.01872
160.438,22.24827,-0.01974,0.28911,1.01836
161.138,22.31556,-0.01974,0.29215,1.01801
161.838,22.38268,-0.01973996,0.29251,1.01765
162.538,22.45,-0.01907801,0.29285,1.0173
163.238,22.51754,-0.01552733,0.294,1.01695
163.938,22.5849,-0.0179044,0.29379,1.01659
164.638,22.65215,-0.01897999,0.29406,1.01624
165.338,22.71949,-0.01898179,0.2958,1.01588
166.038,22.787,-0.01765618,0.29543,1.01553
166.738,22.8547,-0.01898368,0.2936,1.01518
167.438,22.92183,-0.01898,0.29604,1.01482
168.138,22.98914,-0.01898,0.29524,1.01447
168.838,23.05603,-0.01898,0.29839,1.01412
169.538,23.12357,-0.01898001,0.30048,1.01376
170.238,23.19115,-0.01895936,0.29907,1.01341
170.938,23.25891,-0.0202999,0.2969,1.01306
171.638,23.32643,-0.02096731,0.29917,1.0127
172.338,23.39379,-0.02087153,0.2987,1.01235
173.038,23.46128,-0.02028998,0.29877,1.012
173.738,23.52861,-0.02030043,0.29934,1.01164
174.438,23.5961,-0.02127975,0.29938,1.01129
175.138,23.66331,-0.02128,0.30079,1.01094
175.838,23.73084,-0.02127972,0.30089,1.01058
176.538,23.79833,-0.01995783,0.30261,1.01023
177.238,23.866,-0.02033473,0.30273,1.00988
177.938,23.93348,-0.02177653,0.30266,1.00952
178.638,24.00092,-0.02291534,0.30396,1.00917
179.338,24.06821,-0.02161123,0.30546,1.00882
180.038,24.13551,-0.02061973,0.30363,1.00846
180.738,24.2026,-0.02120056,0.3049,1.00811
181.438,24.26967,-0.02192999,0.30565,1.00776
182.138,24.33663,-0.02193,0.3068,1.00741
182.838,24.40364,-0.02193,0.30442,1.00705
183.538,24.47083,-0.02193004,0.30611,1.0067
184.238,24.5381,-0.02412373,0.30443,1.00635
184.938,24.60545,-0.02424927,0.30771,1.00599
185.638,24.6727,-0.02457012,0.31005,1.00564
186.338,24.73988,-0.02391531,0.30653,1.00529
187.038,24.80702,-0.02390999,0.30679,1.00494
187.738,24.87416,-0.02383075,0.3084,1.00458
188.438,24.94122,-0.02523002,0.31011,1.00423
189.138,25.00832,-0.02522735,0.30942,1.00388
189.838,25.0756,-0.02649235,0.31078,1.00352
190.538,25.14291,-0.02786022,0.31338,1.00317
191.238,25.21014,-0.02718818,0.31582,1.00282
191.938,25.2772,-0.0266973,0.31626,1.00247
192.638,25.34395,-0.02785987,0.31485,1.00211
193.338,25.4106,-0.02786,0.31722,1.00176
194.038,25.47735,-0.02786,0.31855,1.00141
194.738,25.54423,-0.02786,0.31774,1.00106
195.438,25.61125,-0.02786,0.31563,1.0007
196.138,25.67821,-0.02786,0.31754,1.00035
196.838,25.7452,-0.02786,0.31764,1.0
197.538,25.8122,-0.02786,0.31849,0.99964
198.238,25.8792,-0.02785918,0.31705,0.99929
198.938,25.94603,-0.02648957,0.31847,0.99894
199.638,26.0131,-0.02786088,0.31981,0.99859
200.338,26.08021,-0.02916837,0.3182,0.99823
201.038,26.14773,-0.02917001,0.31789,0.99788
201.738,26.21503,-0.03003122,0.31565,0.99753
202.438,26.28225,-0.03049003,0.31638,0.99718
203.138,26.34944,-0.03049,0.31813,0.99682
203.838,26.4165,-0.03049001,0.31832,0.99647
204.538,26.4836,-0.03122327,0.31858,0.99612
205.238,26.55035,-0.03313001,0.32216,0.99577
205.938,26.61686,-0.03182632,0.32225,0.99541
206.638,26.68335,-0.03180525,0.32215,0.99506
207.338,26.74985,-0.03312996,0.32178,0.99471
208.038,26.8171,-0.03313,0.32138,0.99435
208.738,26.8844,-0.03312391,0.32347,0.994
209.438,26.9517,-0.03445036,0.32404,0.99365
210.138,27.0194,-0.03445,0.32207,0.9933
210.838,27.08697,-0.0344502,0.32202,0.99294
211.538,27.1547,-0.03655371,0.32433,0.99259
212.238,27.222,-0.03706946,0.32551,0.99224
212.938,27.2891,-0.03707,0.32591,0.99189
213.638,27.35606,-0.03706306,0.32727,0.99153
214.338,27.423,-0.03857139,0.32878,0.99118
215.038,27.49012,-0.03904999,0.32923,0.99083
215.738,27.55715,-0.04034523,0.33095,0.99047
216.438,27.6243,-0.04036,0.33031,0.99012
217.138,27.6913,-0.04036,0.33024,0.98977
217.838,27.7582,-0.04035991,0.33334,0.98942
218.538,27.825,-0.04190281,0.33224,0.98906
219.238,27.89177,-0.04234069,0.33343,0.98871
219.938,27.9586,-0.04365305,0.33415,0.98836
220.638,28.02546,-0.04496842,0.33772,0.988
221.338,28.09232,-0.04496983,0.33744,0.98765
222.038,28.1592,-0.04563511,0.33974,0.9873
222.738,28.22557,-0.04562927,0.33982,0.98695
223.438,28.29236,-0.0456467,0.33877,0.98659
224.138,28.3591,-0.04695008,0.33962,0.98624
224.838,28.4267,-0.04695098,0.34133,0.98589
225.538,28.4937,-0.04825296,0.34138,0.98553
226.238,28.56062,-0.04925057,0.34185,0.98518
226.938,28.6274,-0.05056333,0.34037,0.98483
227.638,28.69425,-0.04959618,0.34001,0.98447
228.338,28.76115,-0.04957976,0.34058,0.98412
229.038,28.82821,-0.05229519,0.34213,0.98377
229.738,28.89511,-0.05369124,0.33908,0.98341
230.438,28.96218,-0.05506022,0.34117,0.98306
231.138,29.02903,-0.05506,0.34111,0.98271
231.838,29.096,-0.05513507,0.33991,0.98235
232.538,29.16295,-0.05794468,0.34168,0.982
233.238,29.23002,-0.05956192,0.34026,0.98165
233.938,29.29706,-0.06055088,0.33893,0.98129
234.638,29.36393,-0.06184649,0.33814,0.98094
235.338,29.43083,-0.06226421,0.33963,0.98059
236.038,29.4977,-0.0631808,0.33711,0.98023
236.738,29.5647,-0.06448643,0.33973,0.97988
237.438,29.63158,-0.06449985,0.33855,0.97952
238.138,29.69844,-0.06580059,0.33836,0.97917
238.838,29.7653,-0.06606104,0.33924,0.97882
239.538,29.8321,-0.06810377,0.33951,0.97846
240.238,29.8989,-0.06943441,0.34059,0.97811
240.938,29.9656,-0.07075631,0.33774,0.97776
241.638,30.03225,-0.07080928,0.33933,0.9774
242.338,30.0992,-0.07238786,0.33752,0.97705
243.038,30.1662,-0.07371489,0.3403,0.97669
243.738,30.23305,-0.07532446,0.33911,0.97634
244.438,30.29996,-0.07534992,0.33899,0.97598
245.138,30.36635,-0.07678392,0.33884,0.97563
245.838,30.43273,-0.07798727,0.33909,0.97528
246.538,30.4991,-0.07955194,0.33894,0.97492
247.238,30.56597,-0.08208137,0.34275,0.97457
247.938,30.633,-0.08267319,0.34093,0.97421
248.638,30.7002,-0.08336585,0.34145,0.97386
249.338,30.76701,-0.08579817,0.33889,0.9735
250.038,30.83387,-0.08819709,0.34207,0.97315
250.738,30.9007,-0.08960125,0.3405,0.97279
251.438,30.96752,-0.09225345,0.342,0.97244
252.138,31.0346,-0.09218637,0.3409,0.97208
252.838,31.1022,-0.09285873,0.34193,0.97173
253.538,31.1698,-0.09420679,0.34155,0.97137
254.238,31.23752,-0.09599646,0.34149,0.97102
254.938,31.3047,-0.09548406,0.34268,0.97066
255.638,31.37195,-0.10234,0.3398,0.97031
256.338,31.439,-0.10341,0.34234,0.96995
257.038,31.5059,-0.10365,0.34301,0.9696
257.738,31.57307,-0.10616,0.34511,0.96924
258.438,31.64017,-0.10761,0.34417,0.96889
259.138,31.7072,-0.10759,0.34541,0.96853
259.838,31.77427,-0.10892,0.34518,0.96817
260.538,31.84126,-0.11157,0.34471,0.96782
261.238,31.9081,-0.11316,0.34645,0.96746
261.938,31.9752,-0.11573,0.3498,0.96711
262.638,32.04218,-0.11858,0.34961,0.96675
263.338,32.10927,-0.12128,0.34915,0.96639
264.038,32.17634,-0.12403,0.3516,0.96604
264.738,32.2435,-0.12701,0.35314,0.96568
265.438,32.3106,-0.12835,0.35171,0.96533
266.138,32.3775,-0.12972,0.35169,0.96497
266.838,32.4445,-0.13258,0.35509,0.96461
267.538,32.5116,-0.13503,0.35572,0.96426
268.238,32.57875,-0.13656,0.35791,0.9639
268.938,32.64584,-0.13795,0.35692,0.96354
269.638,32.71268,-0.14135,0.35666,0.96319
270.338,32.7797,-0.14366,0.35777,0.96283
271.038,32.8467,-0.14792,0.35843,0.96247
271.738,32.91387,-0.15002,0.36061,0.96211
272.438,32.9808,-0.15414,0.36176,0.96176
273.138,33.04777,-0.1565,0.36422,0.9614
273.838,33.11487,-0.15964,0.36482,0.96104
274.538,33.182,-0.1645,0.36505,0.96068
275.238,33.2492,-0.16806,0.36546,0.96033
275.938,33.31623,-0.17048,0.36636,0.95997
276.638,33.38345,-0.1718,0.3665,0.95961
277.338,33.45037,-0.17616,0.36836,0.95925
278.038,33.51783,-0.17941,0.3719,0.95889
278.738,33.58497,-0.18252,0.37421,0.95854
279.438,33.65229,-0.18554,0.37738,0.95818
280.138,33.71885,-0.1889,0.37739,0.95782
280.838,33.78573,-0.19345,0.38024,0.95746
281.538,33.8528,-0.19799,0.38144,0.9571
282.238,33.92008,-0.2016,0.38432,0.95674
282.938,33.9871,-0.20627,0.3855,0.95638
283.638,34.05405,-0.20937,0.38883,0.95603
284.338,34.12107,-0.21312,0.39254,0.95567
285.038,34.1882,-0.21866,0.3955,0.95531
285.738,34.25463,-0.22316,0.39623,0.95495
286.438,34.3217,-0.22739,0.39958,0.95459
287.138,34.38879,-0.23232,0.39994,0.95423
287.838,34.45626,-0.23613,0.40493,0.95387
288.538,34.52329,-0.2416,0.40621,0.95351
289.238,34.59042,-0.24682,0.40771,0.95315
289.938,34.6575,-0.25191,0.40836,0.95279
290.638,34.7246,-0.25583,0.41189,0.95243
291.338,34.79153,-0.26116,0.41564,0.95207
292.038,34.85868,-0.26588,0.415,0.95171
292.738,34.92593,-0.27213,0.41792,0.95135
293.438,34.99355,-0.27726,0.41922,0.95099
294.138,35.06089,-0.28304,0.42348,0.95063
294.838,35.12827,-0.28788,0.42412,0.95027
295.538,35.19546,-0.29319,0.42582,0.9499
296.238,35.26283,-0.29963,0.42845,0.94954
296.938,35.33015,-0.30373,0.42934,0.94918
297.638,35.39733,-0.30984,0.42896,0.94882
298.338,35.46467,-0.31552,0.43363,0.94846
299.038,35.53204,-0.32256,0.43731,0.9481
299.738,35.5996,-0.32958,0.44119,0.94773
300.438,35.6669,-0.33618,0.44386,0.94737
301.138,35.73441,-0.34285,0.44534,0.94701
301.838,35.80113,-0.34979,0.44667,0.94665
302.538,35.86829,-0.35635,0.45141,0.94629
303.238,35.9355,-0.36285,0.4525,0.94592
303.938,36.00359,-0.36969,0.45674,0.94556
304.638,36.07124,-0.37679,0.45805,0.9452
305.338,36.13857,-0.38344,0.46085,0.94483
306.038,36.20599,-0.39217,0.46403,0.94447
306.738,36.2733,-0.39891,0.46616,0.94411
307.438,36.34028,-0.40774,0.47045,0.94374
308.138,36.40704,-0.41455,0.47384,0.94338
308.838,36.4743,-0.42288,0.47589,0.94302
309.538,36.5422,-0.43246,0.47896,0.94265
310.238,36.61007,-0.43974,0.48541,0.94229
310.938,36.67755,-0.44799,0.48442,0.94192
311.638,36.74479,-0.45783,0.48827,0.94156
312.338,36.8121,-0.46512,0.49321,0.94119
313.038,36.87935,-0.47366,0.49782,0.94083
313.738,36.94659,-0.48298,0.49827,0.94046
314.438,37.01392,-0.49177,0.50233,0.9401
315.138,37.08132,-0.50164,0.50796,0.93973
315.838,37.1485,-0.51099,0.50869,0.93937
316.538,37.21604,-0.52005,0.51286,0.939
317.238,37.2834,-0.52997,0.51477,0.93864
317.938,37.35099,-0.54061,0.51756,0.93827
318.638,37.41834,-0.54994,0.52164,0.93791
319.338,37.48578,-0.56068,0.52376,0.93754
320.038,37.55259,-0.56979,0.52576,0.93717
320.738,37.62019,-0.57961,0.53237,0.93681
321.438,37.68769,-0.58927,0.53631,0.93644
322.138,37.75602,-0.59956,0.53838,0.93607
322.838,37.8235,-0.60972,0.5411,0.9357
323.538,37.89114,-0.62287,0.54843,0.93534
324.238,37.9587,-0.63427,0.55243,0.93497
324.938,38.0264,-0.64456,0.55515,0.9346
325.638,38.09431,-0.65756,0.55891,0.93423
326.338,38.16205,-0.66844,0.5641,0.93387
327.038,38.2298,-0.67925,0.57029,0.9335
327.738,38.2973,-0.69266,0.57648,0.93313
328.438,38.36485,-0.70609,0.58044,0.93276
329.138,38.4327,-0.71787,0.58759,0.93239
329.838,38.50038,-0.73156,0.59204,0.93202
330.538,38.5682,-0.74576,0.60004,0.93165
331.238,38.6357,-0.75835,0.60496,0.93128
331.938,38.70322,-0.77167,0.61358,0.93091
332.638,38.77071,-0.78579,0.61849,0.93055
333.338,38.8383,-0.80026,0.62594,0.93018
334.038,38.90623,-0.81366,0.63385,0.92981
334.738,38.97419,-0.82888,0.6438,0.92943
335.438,39.0421,-0.84459,0.65097,0.92906
336.138,39.1098,-0.8601,0.65899,0.92869
336.838,39.17733,-0.87676,0.6694,0.92832
337.538,39.24491,-0.89138,0.67738,0.92795
338.238,39.31252,-0.90553,0.68788,0.92758
338.938,39.3803,-0.92267,0.6973,0.92721
339.638,39.44804,-0.94051,0.7052,0.92684
340.338,39.5157,-0.95708,0.71594,0.92646
341.038,39.58319,-0.97412,0.72621,0.92609
341.738,39.6508,-0.99372,0.73717,0.92572
342.438,39.71857,-1.01352,0.74959,0.92535
343.138,39.7864,-1.03335,0.75501,0.92497
343.838,39.8543,-1.05233,0.76448,0.9246
344.538,39.9221,-1.07092,0.77344,0.92423
345.238,39.99001,-1.09093,0.78433,0.92386
345.938,40.05786,-1.11063,0.79066,0.92348
346.638,40.1259,-1.13024,0.80029,0.92311
347.338,40.19375,-1.1524,0.80555,0.92273
348.038,40.2618,-1.17199,0.81627,0.92236
348.738,40.32949,-1.19258,0.82355,0.92198
349.438,40.39725,-1.21513,0.82847,0.92161
350.138,40.4649,-1.23815,0.83567,0.92124
350.838,40.53283,-1.25888,0.83973,0.92086
351.538,40.6009,-1.27914,0.84341,0.92048
352.238,40.66868,-1.30549,0.84795,0.92011
352.938,40.7365,-1.32776,0.84618,0.91973
353.638,40.80408,-1.34982,0.84767,0.91936
354.338,40.87187,-1.37355,0.84678,0.91898
355.038,40.93965,-1.39365,0.84501,0.9186
355.738,41.00763,-1.41674,0.83887,0.91823
356.438,41.07562,-1.43972,0.83422,0.91785
357.138,41.14363,-1.46402,0.82478,0.91747
357.838,41.21154,-1.4841,0.81653,0.9171
358.538,41.27906,-1.50564,0.80515,0.91672
359.238,41.34668,-1.52472,0.78986,0.91634
359.938,41.41393,-1.54556,0.77934,0.91596
360.638,41.48186,-1.56745,0.7601,0.91558
361.338,41.54955,-1.5868,0.74211,0.91521
362.038,41.6178,-1.60541,0.72036,0.91483
362.738,41.6856,-1.62314,0.70425,0.91445
363.438,41.75363,-1.64178,0.68349,0.91407
364.138,41.82142,-1.659,0.65879,0.91369
364.838,41.8891,-1.67601,0.63954,0.91331
365.538,41.9567,-1.69265,0.61517,0.91293
366.238,42.0244,-1.7089,0.59124,0.91255
366.938,42.0922,-1.72389,0.56617,0.91217
367.638,42.16005,-1.73667,0.53754,0.91179
368.338,42.22784,-1.74935,0.51576,0.91141
369.038,42.2956,-1.76122,0.49103,0.91102
369.738,42.36326,-1.77302,0.46862,0.91064
370.438,42.43103,-1.78369,0.44351,0.91026
371.138,42.49888,-1.79438,0.41965,0.90988
371.838,42.56681,-1.80577,0.40164,0.9095
372.538,42.6347,-1.81373,0.37827,0.90911
373.238,42.7026,-1.82012,0.36544,0.90873
373.938,42.77042,-1.82819,0.34756,0.90835
374.638,42.8382,-1.83403,0.33436,0.90796
375.338,42.90594,-1.8417,0.32459,0.90758
376.038,42.97382,-1.84676,0.31021,0.9072
376.738,43.04163,-1.85455,0.30061,0.90681
377.438,43.10954,-1.86037,0.293,0.90643
378.138,43.17733,-1.86549,0.2887,0.90604
378.838,43.2453,-1.87087,0.28624,0.90566
379.538,43.31333,-1.87645,0.2792,0.90527
380.238,43.38147,-1.88107,0.27856,0.90489
380.938,43.44975,-1.8856,0.27714,0.9045
381.638,43.51774,-1.89117,0.27655,0.90412
382.338,43.58585,-1.89658,0.27563,0.90373
383.038,43.65399,-1.90209,0.27591,0.90334
383.738,43.72215,-1.90705,0.27604,0.90296
384.438,43.79023,-1.9124,0.27731,0.90257
385.138,43.85838,-1.91876,0.28029,0.90218
385.838,43.92642,-1.92397,0.28415,0.90179
386.538,43.99412,-1.92957,0.28514,0.90141
387.238,44.0621,-1.93468,0.28717,0.90102
387.938,44.13033,-1.93993,0.29108,0.90063
388.638,44.19893,-1.94576,0.29315,0.90024
389.338,44.26685,-1.9529,0.29342,0.89985
390.038,44.3346,-1.95777,0.29769,0.89946
390.738,44.40247,-1.96381,0.29826,0.89907
391.438,44.47075,-1.97026,0.30395,0.89868
392.138,44.53908,-1.97885,0.30595,0.89829
392.838,44.60726,-1.98554,0.30732,0.8979
393.538,44.6753,-1.99156,0.31268,0.89751
394.238,44.74348,-2.0021,0.31358,0.89712
394.938,44.81163,-2.00875,0.31685,0.89673
395.638,44.88,-2.01614,0.31639,0.89634
396.338,44.9484,-2.02282,0.31715,0.89595
397.038,45.01678,-2.03057,0.31709,0.89555
397.738,45.0847,-2.03998,0.3181,0.89516
398.438,45.15232,-2.04711,0.31761,0.89477
399.138,45.21997,-2.05497,0.31916,0.89438
399.838,45.2881,-2.06367,0.31996,0.89398
400.538,45.35649,-2.07195,0.31658,0.89359
401.238,45.42491,-2.081,0.31468,0.89319
401.938,45.49338,-2.08951,0.31374,0.8928
402.638,45.5617,-2.09906,0.30887,0.89241
403.338,45.62983,-2.10772,0.30564,0.89201
404.038,45.69794,-2.11469,0.30008,0.89162
404.738,45.76638,-2.12343,0.29327,0.89122
405.438,45.835,-2.13235,0.28917,0.89082
406.138,45.9036,-2.14179,0.28394,0.89043
406.838,45.97218,-2.14904,0.27609,0.89003
407.538,46.04076,-2.15702,0.27043,0.88963
408.238,46.1094,-2.1648,0.25832,0.88924
408.938,46.17787,-2.17362,0.2484,0.88884
409.638,46.24648,-2.18053,0.23885,0.88844
410.338,46.31491,-2.18609,0.23144,0.88804
411.038,46.38337,-2.19264,0.22151,0.88765
411.738,46.4517,-2.1989,0.21145,0.88725
412.438,46.5208,-2.20476,0.20134,0.88685
413.138,46.58964,-2.21156,0.19187,0.88645
413.838,46.65875,-2.21718,0.1802,0.88605
414.538,46.72726,-2.22039,0.16937,0.88565
415.238,46.79591,-2.22468,0.16348,0.88525
415.938,46.86438,-2.22786,0.15531,0.88485
416.638,46.933,-2.23245,0.14585,0.88445
417.338,47.00169,-2.23524,0.1391,0.88405
418.038,47.07054,-2.23973,0.13593,0.88365
418.738,47.1393,-2.24206,0.13131,0.88324
419.438,47.2076,-2.24496,0.12845,0.88284
420.138,47.2757,-2.24785,0.12451,0.88244
420.838,47.34361,-2.25099,0.12093,0.88204
421.538,47.4118,-2.25388,0.11809,0.88163
422.238,47.4802,-2.25416,0.11822,0.88123
422.938,47.54882,-2.257,0.11162,0.88083
423.638,47.61745,-2.25828,0.11007,0.88042
424.338,47.6862,-2.26101,0.10828,0.88002
425.038,47.7551,-2.26359,0.10752,0.87961
425.738,47.8236,-2.26494,0.10639,0.87921
426.438,47.89201,-2.26853,0.10504,0.8788
427.138,47.95988,-2.27083,0.10423,0.8784
427.838,48.02841,-2.27215,0.10368,0.87799
428.538,48.09748,-2.27378,0.10256,0.87758
429.238,48.1667,-2.2761,0.10186,0.87718
429.938,48.23563,-2.27794,0.10244,0.87677
430.638,48.30406,-2.27952,0.10032,0.87636
431.338,48.37249,-2.28085,0.10037,0.87595
432.038,48.44124,-2.28289,0.09891403,0.87555
432.738,48.5098,-2.28422,0.09976727,0.87514
433.438,48.5784,-2.28548,0.09998008,0.87473
434.138,48.6469,-2.289,0.0963359,0.87432
434.838,48.71522,-2.29021,0.09604832,0.87391
435.538,48.78352,-2.29046,0.09747687,0.8735
436.238,48.8519,-2.29337,0.09692103,0.87309
436.938,48.92066,-2.29334,0.09582516,0.87268
437.638,48.98946,-2.29463,0.09844778,0.87227
438.338,49.05819,-2.29726,0.09818586,0.87186
439.038,49.1265,-2.29858,0.09751581,0.87145
439.738,49.19531,-2.29989,0.09822054,0.87103
440.438,49.2639,-2.30122,0.09925153,0.87062
441.138,49.3327,-2.30238,0.09944134,0.87021
441.838,49.40067,-2.30383,0.09594102,0.8698
442.538,49.4692,-2.30516,0.09816565,0.86938
443.238,49.53798,-2.30647,0.09901467,0.86897
443.938,49.60736,-2.30805,0.09489803,0.86856
444.638,49.6762,-2.31068,0.09988793,0.86814
445.338,49.74478,-2.31197,0.09929531,0.86773
446.038,49.81366,-2.31338,0.09550202,0.86731
446.738,49.88265,-2.31458,0.09870197,0.86689
447.438,49.95197,-2.31592,0.09566405,0.86648
448.138,50.02098,-2.31588,0.09611825,0.86606
448.838,50.0898,-2.31591,0.09675915,0.86565
449.538,50.15867,-2.31941,0.09731083,0.86523
450.238,50.22737,-2.31997,0.09615999,0.86481
450.938,50.2963,-2.32128,0.09414472,0.86439
451.638,50.36517,-2.32128,0.09460336,0.86398
452.338,50.43407,-2.32228,0.09474952,0.86356
453.038,50.50306,-2.32253,0.09667626,0.86314
453.738,50.57201,-2.32626,0.09574458,0.86272
454.438,50.64098,-2.32754,0.09449097,0.8623
455.138,50.70993,-2.32754,0.09434638,0.86188
455.838,50.77888,-2.32885,0.09539295,0.86146
456.538,50.848,-2.33027,0.09564543,0.86104
457.238,50.91711,-2.3316,0.09603815,0.86062
457.938,50.98623,-2.33422,0.09368679,0.8602
458.638,51.05513,-2.33429,0.09772394,0.85977
459.338,51.124,-2.33425,0.09514925,0.85935
460.038,51.19301,-2.33422,0.09530318,0.85893
460.738,51.26205,-2.33555,0.09477496,0.85851
461.438,51.33059,-2.33659,0.09570453,0.85808
462.138,51.39911,-2.33777,0.09422362,0.85766
462.838,51.46759,-2.33706,0.09407752,0.85724
463.538,51.53711,-2.33786,0.09501459,0.85681
464.238,51.60635,-2.33883,0.09210616,0.85639
464.938,51.67566,-2.34016,0.09251094,0.85596
465.638,51.74458,-2.34144,0.09374326,0.85554
466.338,51.81374,-2.3428,0.09280828,0.85511
467.038,51.8827,-2.34236,0.09558412,0.85468
467.738,51.95155,-2.34278,0.09308044,0.85426
468.438,52.02047,-2.3438,0.0898987,0.85383
469.138,52.08956,-2.34542,0.09078841,0.8534
469.838,52.15866,-2.34552,0.09030881,0.85297
470.538,52.2277,-2.34542,0.0913963,0.85255
471.238,52.29674,-2.34669,0.08897951,0.85212
471.938,52.36578,-2.34668,0.08867119,0.85169
472.638,52.43501,-2.34673,0.09135364,0.85126
473.338,52.50431,-2.34674,0.08965234,0.85083
474.038,52.5736,-2.34808,0.09219078,0.8504
474.738,52.6426,-2.34936,0.09123232,0.84997
475.438,52.71159,-2.35067,0.09340856,0.84954
476.138,52.78054,-2.352,0.09151089,0.84911
476.838,52.8492,-2.352,0.09048703,0.84867
477.538,52.91789,-2.35331,0.09214765,0.84824
478.238,52.9869,-2.35332,0.08975384,0.84781
478.938,53.05644,-2.35259,0.09135543,0.84738
479.638,53.1259,-2.35427,0.09073675,0.84694
480.338,53.19515,-2.35463,0.09190344,0.84651
481.038,53.2643,-2.35887,0.08793879,0.84607
481.738,53.3334,-2.35775,0.09045004,0.84564
482.438,53.40229,-2.35852,0.08686734,0.8452
483.138,53.47135,-2.35869,0.08948818,0.84477
483.838,53.5407,-2.35869,0.08934089,0.84433
484.538,53.61,-2.36,0.08952428,0.8439
485.238,53.67918,-2.36133,0.09040213,0.84346
485.938,53.7483,-2.36132,0.09066899,0.84302
486.638,53.8173,-2.36132,0.08836482,0.84259
487.338,53.8864,-2.36143,0.08825312,0.84215
488.038,53.9556,-2.36263,0.08834985,0.84171
488.738,54.0249,-2.3626,0.08843999,0.84127
489.438,54.09434,-2.36264,0.0892,0.84083
490.138,54.16346,-2.36358,0.08798621,0.84039
490.838,54.23259,-2.36391,0.08581986,0.83995
491.538,54.30169,-2.36527,0.08764283,0.83951
492.238,54.371,-2.36525,0.0835238,0.83907
492.938,54.44045,-2.3679,0.08641832,0.83863
493.638,54.50975,-2.36922,0.08367311,0.83819
494.338,54.57895,-2.36988,0.08545721,0.83775
495.038,54.6479,-2.37121,0.08491495,0.83731
495.738,54.71725,-2.37118,0.08412048,0.83686
496.438,54.7865,-2.37251,0.08580095,0.83642
497.138,54.85586,-2.37248,0.08434568,0.83598
497.838,54.925,-2.37115,0.084091,0.83553
498.538,54.99425,-2.37381,0.08663597,0.83509
499.238,55.06357,-2.37514,0.08518043,0.83464
499.938,55.1328,-2.37514,0.08258016,0.8342
500.638,55.202,-2.37384,0.08682297,0.83375
501.338,55.27131,-2.37623,0.08394477,0.83331
502.038,55.3406,-2.37649,0.08507722,0.83286
502.738,55.40979,-2.37777,0.0901032,0.83241
503.438,55.4788,-2.37777,0.09177742,0.83197
504.138,55.5481,-2.3771,0.09673108,0.83152
504.838,55.61716,-2.37778,0.09752103,0.83107
505.538,55.6861,-2.37916,0.09797567,0.83062
506.238,55.755,-2.38058,0.10135,0.83017
506.938,55.8243,-2.37909,0.1016,0.82972
507.638,55.8934,-2.37909,0.10083,0.82927
508.338,55.9626,-2.37922,0.10163,0.82882
509.038,56.0317,-2.3817,0.10007,0.82837
509.738,56.101,-2.38137,0.10189,0.82792
510.438,56.1704,-2.38139,0.09843493,0.82747
511.138,56.2397,-2.38139,0.1029,0.82702
511.838,56.30915,-2.38271,0.10053,0.82656
512.538,56.37854,-2.38268,0.10367,0.82611
513.238,56.44798,-2.38401,0.10256,0.82566
513.938,56.51744,-2.38534,0.10094,0.82521
514.638,56.58693,-2.38534,0.10492,0.82475
515.338,56.65673,-2.38534,0.10161,0.8243
516.038,56.7267,-2.38524,0.10259,0.82384
516.738,56.7966,-2.38666,0.10383,0.82339
517.438,56.8663,-2.38453,0.10602,0.82293
518.138,56.9359,-2.38476,0.1031,0.82247
518.838,57.00565,-2.38698,0.10361,0.82202
519.538,57.07535,-2.3875,0.1061,0.82156
520.238,57.14505,-2.38765,0.10867,0.8211
520.938,57.2146,-2.38765,0.10802,0.82065
521.638,57.28395,-2.38838,0.10904,0.82019
522.338,57.35355,-2.38895,0.10763,0.81973
523.038,57.4233,-2.39028,0.10794,0.81927
523.738,57.4932,-2.39009,0.10609,0.81881
524.438,57.5628,-2.38962,0.10959,0.81835
525.138,57.6324,-2.38962,0.10534,0.81789
525.838,57.70208,-2.39094,0.10575,0.81743
526.538,57.77166,-2.39094,0.10348,0.81697
527.238,57.8411,-2.39037,0.1056,0.8165
527.938,57.9105,-2.39093,0.10675,0.81604
528.638,57.9802,-2.39193,0.10311,0.81558
529.338,58.0499,-2.39357,0.10481,0.81512
530.038,58.1196,-2.39489,0.10535,0.81465
530.738,58.1893,-2.39489,0.0997991,0.81419
531.438,58.259,-2.39489,0.0983595,0.81372
532.138,58.32881,-2.39489,0.09728518,0.81326
532.838,58.3986,-2.39489,0.09044748,0.81279
533.538,58.46839,-2.3962,0.08638572,0.81233
534.238,58.53807,-2.39538,0.08629459,0.81186
534.938,58.6077,-2.39612,0.08429847,0.81139
535.638,58.6771,-2.39752,0.08585095,0.81093
536.338,58.74684,-2.39752,0.08304442,0.81046
537.038,58.81661,-2.39752,0.08015904,0.80999
537.738,58.8865,-2.39854,0.07652929,0.80952
538.438,58.95616,-2.39755,0.07605945,0.80905
539.138,59.0258,-2.39752,0.0769732,0.80858
539.838,59.0958,-2.39883,0.07572156,0.80812
540.538,59.1655,-2.40016,0.07224686,0.80764
541.238,59.2353,-2.40069,0.07249931,0.80717
541.938,59.3048,-2.40023,0.06889942,0.8067
542.638,59.3743,-2.40006,0.06780755,0.80623
543.338,59.4438,-2.40015,0.06990165,0.80576
544.038,59.51347,-2.40011,0.06862676,0.80529
544.738,59.583,-2.40209,0.06712781,0.80481
545.438,59.65262,-2.40278,0.06703172,0.80434
546.138,59.7221,-2.40278,0.06525877,0.80387
546.838,59.7919,-2.4036,0.06796407,0.80339
547.538,59.8616,-2.40407,0.06235807,0.80292
548.238,59.9315,-2.40543,0.06308597,0.80244
548.938,60.0011,-2.40673,0.06101665,0.80197
549.638,60.07082,-2.40673,0.05947124,0.80149
550.338,60.14051,-2.40673,0.05389202,0.80101
551.038,60.2104,-2.4064,0.05017008,0.80054
551.738,60.28014,-2.4064,0.04929111,0.80006
552.438,60.3498,-2.40672,0.04748139,0.79958
553.138,60.4197,-2.40772,0.03940049,0.7991
553.838,60.48956,-2.40772,0.03667973,0.79863
554.538,60.55939,-2.40902,0.03567766,0.79815
555.238,60.6291,-2.40904,0.03506516,0.79767
555.938,60.69895,-2.40772,0.03418173,0.79719
556.638,60.7691,-2.40773,0.0331047,0.79671
557.338,60.83922,-2.40903,0.0325023,0.79623
558.038,60.9095,-2.40903,0.02899975,0.79574
558.738,60.97968,-2.40903,0.02552607,0.79526
559.438,61.04959,-2.40904,0.02194537,0.79478
560.138,61.11991,-2.40904,0.02134042,0.7943
560.838,61.19016,-2.40905,0.02060447,0.79381
561.538,61.26053,-2.41035,0.01840387,0.79333
562.238,61.3305,-2.41167,0.01615907,0.79285
562.938,61.4001,-2.41167,0.01645156,0.79236
563.638,61.47039,-2.41167,0.01548761,0.79188
564.338,61.54056,-2.4117,0.01265333,0.79139
565.038,61.61119,-2.41232,0.01374224,0.7909
565.738,61.68111,-2.41134,0.01385834,0.79042
566.438,61.7512,-2.41134,0.01211287,0.78993
567.138,61.8211,-2.41134,0.01131646,0.78944
567.838,61.8913,-2.412,0.01251443,0.78896
568.538,61.9613,-2.412,0.0115045,0.78847
569.238,62.0315,-2.4133,0.01089967,0.78798
569.938,62.1017,-2.41407,0.009372315,0.78749
570.638,62.1716,-2.41397,0.008528329,0.787
571.338,62.24176,-2.41429,0.008033388,0.78651
572.038,62.3119,-2.4143,0.0095667,0.78602
572.738,62.382,-2.4143,0.008815691,0.78553
573.438,62.452,-2.41563,0.00907614,0.78504
574.138,62.52199,-2.41464,0.00743242,0.78455
574.838,62.5923,-2.41479,0.008036206,0.78405
575.538,62.6625,-2.41529,0.01068364,0.78356
576.238,62.7325,-2.4166,0.009557711,0.78307
576.938,62.8025,-2.41769,0.01122279,0.78257
577.638,62.87255,-2.41759,0.0121303,0.78208
578.338,62.94262,-2.41628,0.01058008,0.78159
579.038,63.01245,-2.41642,0.01198081,0.78109
579.738,63.08231,-2.41694,0.01486085,0.7806
580.438,63.1524,-2.41694,0.01318189,0.7801
581.138,63.22265,-2.41835,0.01327019,0.7796
581.838,63.29275,-2.41956,0.01056235,0.77911
582.538,63.3626,-2.42096,0.01271797,0.77861
583.238,63.4327,-2.42073,0.01087767,0.77811
583.938,63.5028,-2.42066,0.009846812,0.77761
584.638,63.57274,-2.41957,0.01096549,0.77711
585.338,63.6425,-2.42094,0.009153062,0.77661
586.038,63.71245,-2.42089,0.01094925,0.77612
586.738,63.7825,-2.41956,0.01185044,0.77562
587.438,63.85247,-2.41958,0.01173265,0.77511
588.138,63.92235,-2.42173,0.01187801,0.77461
588.838,63.99225,-2.4222,0.009100411,0.77411
589.538,64.06229,-2.42355,0.01049773,0.77361
590.238,64.13239,-2.4222,0.01208011,0.77311
590.938,64.20244,-2.4222,0.01286389,0.77261
591.638,64.27243,-2.4223,0.01188655,0.7721
592.338,64.34225,-2.42286,0.01210977,0.7716
593.038,64.41226,-2.42286,0.0127049,0.77109
593.738,64.4821,-2.42287,0.01453014,0.77059
594.438,64.55212,-2.42498,0.01282973,0.77008
595.138,64.6221,-2.42383,0.01564395,0.76958
595.838,64.69226,-2.42384,0.01532851,0.76907
596.538,64.76224,-2.42384,0.01771993,0.76857
597.238,64.8322,-2.42384,0.02068922,0.76806
597.938,64.90208,-2.42646,0.02115145,0.76755
598.638,64.97213,-2.42648,0.01992665,0.76704
599.338,65.04217,-2.42648,0.02199865,0.76654
600.038,65.11229,-2.42642,0.02040712,0.76603
600.738,65.18252,-2.42614,0.02243946,0.76552
601.438,65.25279,-2.42614,0.02303612,0.76501
602.138,65.32301,-2.42618,0.02482751,0.7645
602.838,65.39308,-2.42483,0.02580146,0.76399
603.538,65.4632,-2.42493,0.02728677,0.76348
604.238,65.5335,-2.42516,0.02690624,0.76297
604.938,65.604,-2.42648,0.02800135,0.76245
605.638,65.67452,-2.42781,0.03016959,0.76194
606.338,65.7452,-2.42912,0.02669308,0.76143
607.038,65.81569,-2.42911,0.03255493,0.76092
607.738,65.8863,-2.42911,0.03006876,0.7604
608.438,65.95684,-2.42805,0.03163654,0.75989
609.138,66.0274,-2.42779,0.03474701,0.75937
609.838,66.09792,-2.42781,0.03651795,0.75886
610.538,66.16845,-2.42911,0.03937428,0.75834
611.238,66.23886,-2.43043,0.04330757,0.75783
611.938,66.30932,-2.43071,0.04346858,0.75731
612.638,66.37976,-2.43142,0.04306107,0.75679
613.338,66.4503,-2.43142,0.04633792,0.75627
614.038,66.52068,-2.43272,0.04508143,0.75576
614.738,66.59116,-2.43273,0.04634273,0.75524
615.438,66.66166,-2.4333,0.05039097,0.75472
616.138,66.73219,-2.43307,0.04906526,0.7542
616.838,66.80248,-2.43438,0.05394327,0.75368
617.538,66.87285,-2.43438,0.05271356,0.75316
618.238,66.94317,-2.43699,0.05795516,0.75264
618.938,67.0136,-2.43699,0.0588588,0.75212
619.638,67.0838,-2.43569,0.06022864,0.7516
620.338,67.15406,-2.43568,0.06060028,0.75108
621.038,67.22426,-2.437,0.06310798,0.75055
621.738,67.29433,-2.43833,0.06867452,0.75003
622.438,67.3643,-2.43792,0.06871872,0.74951
623.138,67.4344,-2.43734,0.07012099,0.74898
623.838,67.50497,-2.43729,0.0730945,0.74846
624.538,67.57552,-2.43863,0.07401303,0.74794
625.238,67.646,-2.43931,0.07799344,0.74741
625.938,67.71619,-2.44062,0.07572614,0.74688
626.638,67.7865,-2.44062,0.08184452,0.74636
627.338,67.85676,-2.44062,0.08691597,0.74583
628.038,67.92702,-2.44062,0.08502768,0.7453
628.738,67.99728,-2.44057,0.08988155,0.74478
629.438,68.06744,-2.44205,0.09084795,0.74425
630.138,68.13752,-2.4412,0.0954995,0.74372
630.838,68.2076,-2.44222,0.09539598,0.74319
631.538,68.27784,-2.44337,0.09904298,0.74266
632.238,68.34821,-2.44339,0.10232,0.74213
632.938,68.41842,-2.44488,0.10177,0.7416
633.638,68.48861,-2.44568,0.1066,0.74107
634.338,68.55886,-2.44567,0.10949,0.74054
635.038,68.62915,-2.44699,0.11224,0.74001
635.738,68.69926,-2.44567,0.11366,0.73948
636.438,68.7691,-2.44662,0.11561,0.73895
637.138,68.8391,-2.44798,0.11523,0.73841
637.838,68.9092,-2.44662,0.12163,0.73788
638.538,68.97954,-2.44797,0.12201,0.73735
639.238,69.04972,-2.44797,0.1277,0.73681
639.938,69.1195,-2.44929,0.12867,0.73628
640.638,69.18959,-2.44931,0.13351,0.73574
641.338,69.26004,-2.44929,0.13413,0.73521
642.038,69.3308,-2.45192,0.1323,0.73467
642.738,69.4011,-2.45084,0.14132,0.73414
643.438,69.47125,-2.4506,0.14188,0.7336
644.138,69.54139,-2.44927,0.13918,0.73306
644.838,69.61153,-2.45072,0.14414,0.73252
645.538,69.68194,-2.45204,0.14331,0.73199
646.238,69.75225,-2.45333,0.14618,0.73145
646.938,69.82275,-2.45282,0.14767,0.73091
647.638,69.89304,-2.45368,0.14907,0.73037
648.338,69.96343,-2.45619,0.15017,0.72983
649.038,70.0338,-2.45631,0.15368,0.72929
649.738,70.10414,-2.45598,0.15519,0.72875
650.438,70.1744,-2.45578,0.15329,0.72821
651.138,70.2447,-2.45631,0.15652,0.72767
651.838,70.31512,-2.45631,0.16157,0.72712
652.538,70.38557,-2.45638,0.1579,0.72658
653.238,70.45623,-2.45989,0.16047,0.72604
653.938,70.52691,-2.45967,0.15914,0.7255
654.638,70.5978,-2.45993,0.1587,0.72495
655.338,70.66856,-2.46124,0.1589,0.72441
656.038,70.73958,-2.46124,0.15856,0.72386
656.738,70.81047,-2.46124,0.157,0.72332
657.438,70.8814,-2.46256,0.15641,0.72277
658.138,70.9521,-2.46258,0.1576,0.72223
658.838,71.02297,-2.46354,0.15682,0.72168
659.538,71.09389,-2.46387,0.14999,0.72113
660.238,71.16462,-2.46519,0.1539,0.72059
660.938,71.23532,-2.4652,0.1501,0.72004
661.638,71.30561,-2.46651,0.15258,0.71949
662.338,71.37618,-2.46651,0.15251,0.71894
663.038,71.4466,-2.46651,0.15292,0.71839
663.738,71.51734,-2.46636,0.15361,0.71784
664.438,71.5876,-2.46633,0.15401,0.71729
665.138,71.6579,-2.46783,0.15142,0.71674
665.838,71.7282,-2.46915,0.15718,0.71619
666.538,71.79876,-2.47046,0.15885,0.71564
667.238,71.8694,-2.46914,0.15818,0.71509
667.938,71.93982,-2.47045,0.16067,0.71454
668.638,72.0104,-2.47112,0.16259,0.71398
669.338,72.0809,-2.47118,0.16409,0.71343
670.038,72.1514,-2.47211,0.16734,0.71288
670.738,72.22194,-2.47246,0.16867,0.71232
671.438,72.29239,-2.47243,0.16959,0.71177
672.138,72.36299,-2.47375,0.16937,0.71121
672.838,72.43348,-2.47375,0.1719,0.71066
673.538,72.50401,-2.47507,0.17023,0.7101
674.238,72.57451,-2.47638,0.17011,0.70955
674.938,72.64517,-2.47767,0.16556,0.70899
675.638,72.71608,-2.47638,0.16512,0.70844
676.338,72.78663,-2.47765,0.16356,0.70788
677.038,72.85745,-2.47902,0.15884,0.70732
677.738,72.92805,-2.47902,0.15935,0.70676
678.438,72.9992,-2.48028,0.15635,0.7062
679.138,73.0701,-2.48133,0.1511,0.70565
679.838,73.1409,-2.48294,0.14425,0.70509
680.538,73.21159,-2.48244,0.13735,0.70453
681.238,73.28239,-2.48296,0.12679,0.70397
681.938,73.35328,-2.48427,0.11191,0.70341
682.638,73.42409,-2.48355,0.10015,0.70284
683.338,73.49484,-2.48461,0.09137432,0.70228
684.038,73.56571,-2.48461,0.08754947,0.70172
684.738,73.63678,-2.48461,0.08756919,0.70116
685.438,73.70765,-2.48461,0.08519024,0.7006
686.138,73.77853,-2.48529,0.08504213,0.70003
686.838,73.84929,-2.48593,0.08615343,0.69947
687.538,73.92008,-2.48593,0.08493777,0.69891
688.238,73.99093,-2.48593,0.08617304,0.69834
688.938,74.0615,-2.48724,0.0838666,0.69778
689.638,74.13211,-2.48724,0.08542859,0.69721
690.338,74.20255,-2.48724,0.08506822,0.69665
691.038,74.2731,-2.48669,0.08800459,0.69608
691.738,74.34365,-2.48625,0.08997653,0.69551
692.438,74.41431,-2.48703,0.09094539,0.69495
693.138,74.48501,-2.48757,0.09178025,0.69438
693.838,74.5556,-2.48757,0.08990112,0.69381
694.538,74.62615,-2.48644,0.08927392,0.69324
695.238,74.69672,-2.48625,0.08740045,0.69268
695.938,74.76729,-2.48756,0.09291269,0.69211
696.638,74.8377,-2.48757,0.09386234,0.69154
697.338,74.90834,-2.48856,0.09309526,0.69097
698.038,74.97906,-2.48856,0.08970657,0.6904
698.738,75.04983,-2.48856,0.09248184,0.68983
699.438,75.12055,-2.49032,0.09314991,0.68926
700.138,75.19139,-2.48815,0.09219986,0.68869
700.838,75.26222,-2.4879,0.08990339,0.68812
701.538,75.33299,-2.48789,0.09249629,0.68754
702.238,75.4036,-2.4879,0.09170389,0.68697
702.938,75.47416,-2.48757,0.08990385,0.6864
703.638,75.5447,-2.48661,0.08840174,0.68582
704.338,75.61525,-2.48658,0.08963554,0.68525
705.038,75.68592,-2.48658,0.08552549,0.68468
705.738,75.75655,-2.48658,0.08838682,0.6841
706.438,75.82732,-2.48658,0.08904618,0.68353
707.138,75.89789,-2.48658,0.08896093,0.68295
707.838,75.96858,-2.48622,0.08248839,0.68238
708.538,76.039,-2.48626,0.08904042,0.6818
709.238,76.10942,-2.48626,0.08672693,0.68122
709.938,76.1798,-2.48757,0.08259676,0.68065
710.638,76.25032,-2.48757,0.08618785,0.68007
711.338,76.32106,-2.48724,0.08524051,0.67949
712.038,76.39143,-2.48724,0.08667033,0.67892
712.738,76.46217,-2.48724,0.08126836,0.67834
713.438,76.53309,-2.48724,0.08316934,0.67776
714.138,76.6044,-2.48724,0.08451196,0.67718
714.838,76.6754,-2.48762,0.0820133,0.6766
715.538,76.74638,-2.48624,0.08094706,0.67602
716.238,76.8173,-2.48757,0.08275427,0.67544
716.938,76.88804,-2.48856,0.07881325,0.67486
717.638,76.95867,-2.48988,0.0816921,0.67428
718.338,77.02942,-2.48894,0.08199312,0.6737
719.038,77.10048,-2.48856,0.07942608,0.67311
719.738,77.17149,-2.48988,0.08253518,0.67253
720.438,77.2423,-2.4912,0.08113519,0.67195
721.138,77.31312,-2.49119,0.08595571,0.67137
721.838,77.38394,-2.49045,0.08297821,0.67078
722.538,77.45474,-2.48986,0.08235117,0.6702
723.238,77.52561,-2.49119,0.08413432,0.66962
723.938,77.59663,-2.48988,0.08127407,0.66903
724.638,77.66784,-2.48988,0.07949934,0.66845
725.338,77.7388,-2.48988,0.08393,0.66786
726.038,77.80978,-2.48988,0.08504524,0.66728
726.738,77.88065,-2.49118,0.0831206,0.66669
727.438,77.95159,-2.48988,0.08394144,0.6661
728.138,78.0224,-2.49121,0.08297014,0.66552
728.838,78.0933,-2.4912,0.08526868,0.66493
729.538,78.16395,-2.4912,0.08583147,0.66434
730.238,78.23478,-2.4912,0.08751087,0.66376
730.938,78.30556,-2.49251,0.0879246,0.66317
731.638,78.37645,-2.49183,0.09123863,0.66258
732.338,78.44721,-2.49188,0.08984497,0.66199
733.038,78.51804,-2.49152,0.08847898,0.6614
733.738,78.58869,-2.49087,0.08566234,0.66081
734.438,78.65953,-2.48987,0.08531776,0.66022
735.138,78.7303,-2.49119,0.08719524,0.65963
735.838,78.80135,-2.49259,0.09014687,0.65904
736.538,78.8722,-2.49383,0.08742531,0.65845
737.238,78.94314,-2.49369,0.08533466,0.65786
737.938,79.01416,-2.49322,0.08894249,0.65727
738.638,79.08529,-2.49317,0.09531568,0.65667
739.338,79.15644,-2.49317,0.09123147,0.65608
740.038,79.22747,-2.49383,0.0907613,0.65549
740.738,79.29855,-2.49383,0.09177739,0.6549
741.438,79.36971,-2.49513,0.09095151,0.6543
742.138,79.44094,-2.49473,0.09235437,0.65371
742.838,79.512,-2.49446,0.09297869,0.65311
743.538,79.58279,-2.49448,0.0927295,0.65252
744.238,79.65351,-2.49448,0.0922461,0.65192
744.938,79.7243,-2.49516,0.09336202,0.65133
745.638,79.79508,-2.49514,0.09772518,0.65073
746.338,79.86565,-2.49647,0.09721624,0.65014
747.038,79.9361,-2.4951,0.09519116,0.64954
747.638,79.99647,-2.49647,0.09728783,0.64903