File: 01_Data/Lightweight_Gypsum_Wallboard_Painted_Paper/STA/N2/10K_min/Lightweight_Gypsum_Wallboard_Painted_Paper_STA_N2_10KData_222202_R1.csv
##Temp./Â°C,Time/min,Mass loss(subtr.2)/mg,DSC(subtr.2)/(mW/mg),Sensit./(uV/mW)
49.779,10.01,-0.06197,-0.00541842,1.07511
50.379,10.72661,-0.06689229,0.01191888,1.0748
50.979,10.91571,-0.06712006,0.02414284,1.07449
51.579,11.05738,-0.06668668,0.03668598,1.07418
52.179,11.17564,-0.06729515,0.04846875,1.07386
52.779,11.28115,-0.06745872,0.05602285,1.07355
53.379,11.37792,-0.06795482,0.06655714,1.07324
53.979,11.46767,-0.06728569,0.07283113,1.07293
54.579,11.55288,-0.06726956,0.08060794,1.07261
55.179,11.63415,-0.06751648,0.08626257,1.0723
55.779,11.71318,-0.06685172,0.09162094,1.07199
56.379,11.7898,-0.06627099,0.09482336,1.07168
56.979,11.86476,-0.06591068,0.09998953,1.07136
57.579,11.93763,-0.06790977,0.10374,1.07105
58.179,12.00925,-0.06946564,0.10769,1.07074
58.779,12.08,-0.06944004,0.10955,1.07043
59.379,12.15022,-0.06834096,0.11363,1.07012
59.979,12.21984,-0.06920852,0.11644,1.0698
60.579,12.28841,-0.07053184,0.1182,1.06949
61.179,12.35637,-0.07182875,0.11897,1.06918
61.779,12.42373,-0.07189906,0.12324,1.06887
62.379,12.49089,-0.07211689,0.1244,1.06856
62.979,12.55755,-0.07321907,0.12666,1.06825
63.579,12.62381,-0.07315792,0.12827,1.06793
64.179,12.6899,-0.07316967,0.13043,1.06762
64.779,12.75569,-0.07448022,0.13229,1.06731
65.379,12.82143,-0.0744801,0.13305,1.067
65.979,12.8866,-0.07396385,0.13543,1.06669
66.579,12.95177,-0.07446448,0.13468,1.06638
67.179,13.0168,-0.07583288,0.1365,1.06607
67.779,13.0817,-0.07714647,0.13812,1.06576
68.379,13.14611,-0.07589267,0.13882,1.06544
68.979,13.2105,-0.07579996,0.14062,1.06513
69.579,13.2748,-0.07397673,0.1433,1.06482
70.179,13.33908,-0.07494863,0.14549,1.06451
70.779,13.4033,-0.07663863,0.14413,1.0642
71.379,13.4673,-0.0761181,0.1462,1.06389
71.979,13.53106,-0.07670127,0.14778,1.06358
72.579,13.59495,-0.07431296,0.14797,1.06327
73.179,13.65838,-0.07405012,0.14999,1.06296
73.779,13.72192,-0.07516449,0.15222,1.06265
74.379,13.7852,-0.07563851,0.15221,1.06234
74.979,13.8485,-0.07795692,0.1551,1.06203
75.579,13.91106,-0.08062326,0.15417,1.06172
76.179,13.9743,-0.0814001,0.15456,1.06141
76.779,14.03696,-0.08153241,0.15828,1.0611
77.379,14.10029,-0.08062114,0.15874,1.06079
77.979,14.16276,-0.08062996,0.16129,1.06048
78.579,14.22502,-0.08054047,0.16108,1.06017
79.179,14.2871,-0.0819417,0.16084,1.05986
79.779,14.34917,-0.08326098,0.16346,1.05955
80.379,14.41097,-0.08322592,0.16551,1.05924
80.979,14.47264,-0.08326932,0.16497,1.05893
81.579,14.53394,-0.08255415,0.16522,1.05862
82.179,14.59516,-0.08390794,0.16586,1.05831
82.779,14.65676,-0.08392428,0.16742,1.058
83.379,14.71848,-0.08457002,0.16597,1.05769
83.979,14.78,-0.08490286,0.16937,1.05738
84.579,14.84125,-0.08586627,0.16967,1.05707
85.179,14.90228,-0.08851343,0.17027,1.05676
85.779,14.9634,-0.08851119,0.17166,1.05645
86.379,15.02445,-0.08853386,0.17232,1.05614
86.979,15.08518,-0.08950157,0.1716,1.05583
87.579,15.1458,-0.08821118,0.17098,1.05552
88.179,15.2064,-0.08818982,0.17376,1.05521
88.779,15.2671,-0.08854039,0.17288,1.0549
89.379,15.3276,-0.08973816,0.17086,1.05459
89.979,15.388,-0.08867234,0.17033,1.05429
90.579,15.44829,-0.08903762,0.17027,1.05398
91.179,15.5086,-0.09005572,0.17068,1.05367
91.779,15.5689,-0.0911501,0.17076,1.05336
92.379,15.62892,-0.09115004,0.16886,1.05305
92.979,15.68883,-0.09171271,0.16925,1.05274
93.579,15.7486,-0.09247015,0.16806,1.05243
94.179,15.8086,-0.0933362,0.16766,1.05212
94.779,15.86841,-0.09411971,0.16774,1.05182
95.379,15.9283,-0.09328848,0.16769,1.05151
95.979,15.98792,-0.09301527,0.16783,1.0512
96.579,16.04739,-0.09382858,0.16463,1.05089
97.179,16.10687,-0.09246246,0.16382,1.05058
97.779,16.1664,-0.09378504,0.16397,1.05027
98.379,16.2259,-0.09241808,0.16373,1.04997
98.979,16.28545,-0.09379225,0.16157,1.04966
99.579,16.34473,-0.09510659,0.16195,1.04935
100.179,16.40421,-0.0950884,0.1644,1.04904
100.779,16.46375,-0.09384013,0.1614,1.04873
101.379,16.5233,-0.09486972,0.16126,1.04843
101.979,16.58282,-0.0950444,0.16056,1.04812
102.579,16.64208,-0.09506842,0.15921,1.04781
103.179,16.70143,-0.095109,0.15809,1.0475
103.779,16.76074,-0.09641463,0.15796,1.04719
104.379,16.81987,-0.09706177,0.15796,1.04689
104.979,16.87882,-0.0974,0.15617,1.04658
105.579,16.93797,-0.09856763,0.1549,1.04627
106.179,16.99693,-0.09871999,0.15583,1.04596
106.779,17.05627,-0.09907778,0.15588,1.04566
107.379,17.11554,-0.09863648,0.1539,1.04535
107.979,17.17471,-0.0987178,0.1557,1.04504
108.579,17.23369,-0.10047,0.15707,1.04473
109.179,17.29263,-0.10037,0.15596,1.04443
109.779,17.35148,-0.10037,0.15504,1.04412
110.379,17.41058,-0.10037,0.15584,1.04381
110.979,17.4696,-0.10169,0.15577,1.04351
111.579,17.52848,-0.10169,0.15376,1.0432
112.179,17.5872,-0.10273,0.154,1.04289
112.779,17.64612,-0.10268,0.15239,1.04259
113.379,17.70509,-0.10174,0.15431,1.04228
113.979,17.7638,-0.10304,0.15139,1.04197
114.579,17.82246,-0.10168,0.15258,1.04167
115.179,17.88084,-0.10168,0.1512,1.04136
115.779,17.93927,-0.10367,0.14942,1.04105
116.379,17.9978,-0.10432,0.15109,1.04075
116.979,18.05646,-0.10432,0.14866,1.04044
117.579,18.11515,-0.10299,0.14786,1.04013
118.179,18.17399,-0.1043,0.146,1.03983
118.779,18.23201,-0.10431,0.14576,1.03952
119.379,18.2907,-0.10431,0.14373,1.03921
119.979,18.34917,-0.10562,0.14396,1.03891
120.579,18.40768,-0.10432,0.14238,1.0386
121.179,18.46677,-0.10431,0.14176,1.03829
121.779,18.52532,-0.1043,0.14142,1.03799
122.379,18.5842,-0.10564,0.14057,1.03768
122.979,18.643,-0.10563,0.13843,1.03738
123.579,18.70145,-0.10617,0.1395,1.03707
124.179,18.76006,-0.10563,0.14066,1.03676
124.779,18.81866,-0.10563,0.13833,1.03646
125.379,18.8769,-0.10558,0.1402,1.03615
125.979,18.9355,-0.1063,0.13794,1.03585
126.579,18.99395,-0.10562,0.14001,1.03554
127.179,19.0525,-0.10563,0.13926,1.03524
127.779,19.1113,-0.10561,0.1369,1.03493
128.379,19.16988,-0.10826,0.13566,1.03463
128.979,19.2282,-0.10826,0.13722,1.03432
129.579,19.2863,-0.10826,0.13657,1.03401
130.179,19.34435,-0.10826,0.13675,1.03371
130.779,19.40273,-0.10959,0.13699,1.0334
131.379,19.461,-0.10827,0.13916,1.0331
131.979,19.5194,-0.10826,0.13782,1.03279
132.579,19.57763,-0.10826,0.1359,1.03249
133.179,19.63591,-0.10938,0.1367,1.03218
133.779,19.69422,-0.10817,0.1385,1.03188
134.379,19.75264,-0.10826,0.13834,1.03157
134.979,19.81081,-0.10826,0.13784,1.03127
135.579,19.86891,-0.1109,0.13696,1.03096
136.179,19.92679,-0.1109,0.13771,1.03066
136.779,19.98486,-0.1109,0.13653,1.03035
137.379,20.04276,-0.10845,0.13751,1.03005
137.979,20.10069,-0.11068,0.13842,1.02974
138.579,20.15869,-0.11068,0.13811,1.02944
139.179,20.2169,-0.112,0.13611,1.02913
139.779,20.27497,-0.11068,0.13588,1.02883
140.379,20.33318,-0.11072,0.13688,1.02852
140.979,20.39136,-0.11067,0.13654,1.02822
141.579,20.4495,-0.10936,0.13842,1.02791
142.179,20.50745,-0.11048,0.13569,1.02761
142.779,20.5653,-0.11068,0.13778,1.02731
143.379,20.62311,-0.11068,0.13912,1.027
143.979,20.6811,-0.11199,0.13916,1.0267
144.579,20.739,-0.11331,0.13822,1.02639
145.179,20.7969,-0.11331,0.13879,1.02609
145.779,20.85475,-0.11432,0.138,1.02578
146.379,20.91254,-0.11561,0.1391,1.02548
146.979,20.97056,-0.11429,0.139,1.02518
147.579,21.02861,-0.1133,0.14007,1.02487
148.179,21.08664,-0.11408,0.13906,1.02457
148.779,21.1447,-0.11408,0.13938,1.02426
149.379,21.20263,-0.11277,0.14066,1.02396
149.979,21.26042,-0.11143,0.14178,1.02365
150.579,21.31822,-0.11269,0.14285,1.02335
151.179,21.37589,-0.11276,0.14059,1.02305
151.779,21.43346,-0.11305,0.14063,1.02274
152.379,21.4911,-0.11407,0.14215,1.02244
152.979,21.54874,-0.11285,0.14157,1.02214
153.579,21.60631,-0.11376,0.14314,1.02183
154.179,21.66388,-0.11408,0.14176,1.02153
154.779,21.72157,-0.11269,0.14296,1.02122
155.379,21.77896,-0.11276,0.14263,1.02092
155.979,21.83654,-0.11276,0.14422,1.02062
156.579,21.89384,-0.11408,0.14378,1.02031
157.179,21.95123,-0.1154,0.14528,1.02001
157.779,22.00894,-0.1154,0.14386,1.01971
158.379,22.06654,-0.1154,0.14517,1.0194
158.979,22.12452,-0.11535,0.14704,1.0191
159.579,22.18231,-0.11463,0.14831,1.0188
160.179,22.23982,-0.11539,0.14692,1.01849
160.779,22.29746,-0.11565,0.14748,1.01819
161.379,22.35506,-0.11572,0.14559,1.01789
161.979,22.41271,-0.11572,0.14827,1.01758
162.579,22.47031,-0.11572,0.14777,1.01728
163.179,22.52808,-0.11671,0.14903,1.01698
163.779,22.58576,-0.11671,0.149,1.01667
164.379,22.64319,-0.11671,0.15138,1.01637
164.979,22.7008,-0.11805,0.14949,1.01607
165.579,22.75829,-0.11803,0.14841,1.01576
166.179,22.81576,-0.11676,0.14907,1.01546
166.779,22.87347,-0.11671,0.14836,1.01516
167.379,22.93093,-0.11672,0.15026,1.01485
167.979,22.9885,-0.11605,0.14794,1.01455
168.579,23.04614,-0.11741,0.14716,1.01425
169.179,23.10371,-0.11737,0.14829,1.01394
169.779,23.1614,-0.11737,0.14902,1.01364
170.379,23.2189,-0.11737,0.14949,1.01334
170.979,23.27605,-0.11866,0.15115,1.01304
171.579,23.33305,-0.11795,0.15048,1.01273
172.179,23.39037,-0.11802,0.15067,1.01243
172.779,23.4477,-0.11803,0.14993,1.01213
173.379,23.5056,-0.11934,0.15249,1.01182
173.979,23.5637,-0.11934,0.14799,1.01152
174.579,23.62135,-0.11934,0.15064,1.01122
175.179,23.67928,-0.11994,0.15123,1.01092
175.779,23.7368,-0.1213,0.15035,1.01061
176.379,23.79428,-0.12199,0.15113,1.01031
176.979,23.8519,-0.12198,0.15065,1.01001
177.579,23.90934,-0.12198,0.15251,1.0097
178.179,23.96697,-0.12329,0.15066,1.0094
178.779,24.02456,-0.12328,0.15205,1.0091
179.379,24.0822,-0.12449,0.15372,1.0088
179.979,24.1396,-0.12362,0.15136,1.00849
180.579,24.197,-0.12329,0.15189,1.00819
181.179,24.25437,-0.12275,0.15403,1.00789
181.779,24.31192,-0.12329,0.1546,1.00759
182.379,24.36948,-0.12268,0.15203,1.00728
182.979,24.42687,-0.12174,0.15448,1.00698
183.579,24.48425,-0.12307,0.15157,1.00668
184.179,24.54151,-0.12342,0.15402,1.00638
184.779,24.59885,-0.12406,0.1532,1.00607
185.379,24.65619,-0.12406,0.15482,1.00577
185.979,24.7134,-0.12406,0.15476,1.00547
186.579,24.77064,-0.12406,0.15454,1.00517
187.179,24.82753,-0.12406,0.15485,1.00486
187.779,24.8848,-0.12407,0.15765,1.00456
188.379,24.94202,-0.12274,0.15577,1.00426
188.979,24.9997,-0.12404,0.15589,1.00396
189.579,25.05741,-0.12405,0.15558,1.00365
190.179,25.11466,-0.12534,0.15508,1.00335
190.779,25.17183,-0.12537,0.15769,1.00305
191.379,25.2291,-0.12537,0.1575,1.00275
191.979,25.28642,-0.12705,0.15692,1.00245
192.579,25.34358,-0.1287,0.1561,1.00214
193.179,25.40067,-0.12932,0.16086,1.00184
193.779,25.4578,-0.12932,0.15696,1.00154
194.379,25.515,-0.12932,0.15952,1.00124
194.979,25.57225,-0.12932,0.15906,1.00093
195.579,25.62933,-0.12933,0.16165,1.00063
196.179,25.68638,-0.13064,0.15918,1.00033
196.779,25.7435,-0.13064,0.15949,1.00003
197.379,25.80068,-0.13064,0.16181,0.99972
197.979,25.858,-0.13197,0.16105,0.99942
198.579,25.9151,-0.13346,0.16307,0.99912
199.179,25.9723,-0.13462,0.16146,0.99882
199.779,26.02961,-0.13152,0.16332,0.99852
200.379,26.08698,-0.13288,0.1631,0.99821
200.979,26.1444,-0.13556,0.16343,0.99791
201.579,26.2016,-0.13546,0.16248,0.99761
202.179,26.25885,-0.13607,0.1659,0.99731
202.779,26.31611,-0.13482,0.16308,0.997
203.379,26.37337,-0.13481,0.16589,0.9967
203.979,26.43068,-0.13546,0.16431,0.9964
204.579,26.4879,-0.13547,0.16332,0.9961
205.179,26.5453,-0.13547,0.16394,0.9958
205.779,26.60265,-0.13683,0.16505,0.99549
206.379,26.66,-0.13678,0.16239,0.99519
206.979,26.7172,-0.13678,0.16449,0.99489
207.579,26.7744,-0.13677,0.16432,0.99459
208.179,26.8317,-0.13545,0.16505,0.99428
208.779,26.8889,-0.13838,0.16692,0.99398
209.379,26.9462,-0.14109,0.16734,0.99368
209.979,27.00338,-0.14105,0.16632,0.99338
210.579,27.06077,-0.14105,0.16645,0.99307
211.179,27.1182,-0.13974,0.1665,0.99277
211.779,27.17558,-0.13866,0.16782,0.99247
212.379,27.2329,-0.13934,0.16912,0.99217
212.979,27.29,-0.14139,0.16843,0.99187
213.579,27.3471,-0.14139,0.16837,0.99156
214.179,27.4043,-0.14139,0.17043,0.99126
214.779,27.4616,-0.14137,0.16811,0.99096
215.379,27.5188,-0.1427,0.17251,0.99066
215.979,27.57586,-0.14401,0.17006,0.99035
216.579,27.63304,-0.14533,0.17159,0.99005
217.179,27.6902,-0.14536,0.17071,0.98975
217.779,27.7474,-0.14797,0.17216,0.98945
218.379,27.8045,-0.14792,0.17337,0.98914
218.979,27.86175,-0.14896,0.17184,0.98884
219.579,27.91915,-0.14896,0.17252,0.98854
220.179,27.97659,-0.14793,0.17216,0.98824
220.779,28.03367,-0.15017,0.17379,0.98793
221.379,28.09082,-0.15032,0.17192,0.98763
221.979,28.1479,-0.15298,0.17286,0.98733
222.579,28.2051,-0.15431,0.17127,0.98703
223.179,28.2625,-0.15433,0.17147,0.98672
223.779,28.31962,-0.15463,0.17131,0.98642
224.379,28.37681,-0.15564,0.17129,0.98612
224.979,28.43395,-0.15564,0.1738,0.98582
225.579,28.4914,-0.15699,0.17222,0.98551
226.179,28.54822,-0.15849,0.17188,0.98521
226.779,28.60541,-0.15861,0.1727,0.98491
227.379,28.6627,-0.15861,0.17178,0.9846
227.979,28.7198,-0.1586,0.16988,0.9843
228.579,28.7775,-0.16089,0.17076,0.984
229.179,28.8349,-0.16226,0.17,0.9837
229.779,28.89207,-0.16322,0.17054,0.98339
230.379,28.9492,-0.16322,0.16865,0.98309
230.979,29.0061,-0.16322,0.16983,0.98279
231.579,29.0634,-0.16416,0.16962,0.98248
232.179,29.12081,-0.16526,0.1677,0.98218
232.779,29.1782,-0.16585,0.1696,0.98188
233.379,29.2357,-0.16719,0.17037,0.98158
233.979,29.2931,-0.16744,0.16929,0.98127
234.579,29.3505,-0.17091,0.17062,0.98097
235.179,29.4084,-0.17221,0.16884,0.98067
235.779,29.46623,-0.17211,0.16849,0.98036
236.379,29.524,-0.17346,0.16958,0.98006
236.979,29.5817,-0.17416,0.17045,0.97976
237.579,29.6389,-0.1755,0.16916,0.97945
238.179,29.6961,-0.17516,0.16972,0.97915
238.779,29.7532,-0.17677,0.1707,0.97885
239.379,29.8104,-0.17893,0.17094,0.97854
239.979,29.8676,-0.17967,0.17113,0.97824
240.579,29.92483,-0.17964,0.17368,0.97794
241.179,29.98222,-0.18136,0.17222,0.97763
241.779,30.03945,-0.18132,0.17011,0.97733
242.379,30.09696,-0.18262,0.17314,0.97703
242.979,30.15441,-0.18395,0.17384,0.97672
243.579,30.21149,-0.18467,0.17319,0.97642
244.179,30.26877,-0.18651,0.17353,0.97612
244.779,30.3259,-0.18657,0.174,0.97581
245.379,30.3832,-0.18792,0.17051,0.97551
245.979,30.44047,-0.19022,0.17325,0.9752
246.579,30.49772,-0.19151,0.16967,0.9749
247.179,30.5549,-0.19079,0.17026,0.9746
247.779,30.61216,-0.19151,0.16701,0.97429
248.379,30.6694,-0.19244,0.16888,0.97399
248.979,30.7267,-0.19489,0.16647,0.97368
249.579,30.7839,-0.1981,0.16627,0.97338
250.179,30.84115,-0.19931,0.16732,0.97308
250.779,30.8983,-0.20181,0.16523,0.97277
251.379,30.9558,-0.2032,0.16569,0.97247
251.979,31.0131,-0.20325,0.1642,0.97216
252.579,31.0705,-0.20427,0.16417,0.97186
253.179,31.1278,-0.20666,0.16461,0.97156
253.779,31.18481,-0.20862,0.16185,0.97125
254.379,31.2421,-0.21022,0.16484,0.97095
254.979,31.2992,-0.21151,0.16565,0.97064
255.579,31.35642,-0.21147,0.16513,0.97034
256.179,31.4139,-0.21116,0.16093,0.97003
256.779,31.47107,-0.2135,0.16324,0.96973
257.379,31.52838,-0.21479,0.16364,0.96942
257.979,31.5853,-0.21715,0.16764,0.96912
258.579,31.64248,-0.21915,0.16698,0.96881
259.179,31.6998,-0.22212,0.16533,0.96851
259.779,31.7571,-0.22342,0.16545,0.9682
260.379,31.81457,-0.22445,0.16516,0.9679
260.979,31.8719,-0.22575,0.16587,0.96759
261.579,31.92932,-0.22706,0.16827,0.96729
262.179,31.9866,-0.22833,0.16784,0.96698
262.779,32.04398,-0.23003,0.16871,0.96668
263.379,32.10137,-0.23133,0.16844,0.96637
263.979,32.1589,-0.23135,0.17024,0.96607
264.579,32.21632,-0.23467,0.16836,0.96576
265.179,32.27382,-0.23747,0.16879,0.96546
265.779,32.3312,-0.23919,0.17028,0.96515
266.379,32.38854,-0.24198,0.17374,0.96485
266.979,32.44571,-0.24363,0.17146,0.96454
267.579,32.50305,-0.24688,0.17437,0.96423
268.179,32.56015,-0.24888,0.17662,0.96393
268.779,32.6175,-0.25163,0.17525,0.96362
269.379,32.67488,-0.25545,0.17717,0.96332
269.979,32.7324,-0.25719,0.17805,0.96301
270.579,32.78995,-0.25853,0.18036,0.96271
271.179,32.84763,-0.26111,0.18099,0.9624
271.779,32.90507,-0.26345,0.18117,0.96209
272.379,32.96249,-0.2641,0.17992,0.96179
272.979,33.02008,-0.26522,0.18001,0.96148
273.579,33.07752,-0.26823,0.18335,0.96117
274.179,33.13505,-0.27097,0.18033,0.96087
274.779,33.19278,-0.27536,0.18424,0.96056
275.379,33.25031,-0.27873,0.1838,0.96025
275.979,33.308,-0.28011,0.18759,0.95995
276.579,33.36564,-0.28292,0.18818,0.95964
277.179,33.42324,-0.28784,0.18963,0.95933
277.779,33.48072,-0.29012,0.19011,0.95903
278.379,33.5383,-0.29162,0.19194,0.95872
278.979,33.59594,-0.29546,0.1941,0.95841
279.579,33.65377,-0.2995,0.19462,0.95811
280.179,33.71155,-0.30409,0.19498,0.9578
280.779,33.76938,-0.30713,0.19908,0.95749
281.379,33.82689,-0.3105,0.19774,0.95718
281.979,33.88462,-0.31448,0.19988,0.95688
282.579,33.94232,-0.3166,0.2019,0.95657
283.179,33.9999,-0.31919,0.20437,0.95626
283.779,34.05729,-0.32252,0.20277,0.95595
284.379,34.11486,-0.32731,0.20803,0.95565
284.979,34.1725,-0.33244,0.20747,0.95534
285.579,34.2305,-0.33602,0.21221,0.95503
286.179,34.28816,-0.34048,0.21324,0.95472
286.779,34.3457,-0.34221,0.21383,0.95441
287.379,34.40336,-0.34513,0.21399,0.9541
287.979,34.461,-0.35098,0.21876,0.9538
288.579,34.51879,-0.35514,0.21892,0.95349
289.179,34.57631,-0.36164,0.22166,0.95318
289.779,34.6338,-0.36714,0.22134,0.95287
290.379,34.6912,-0.37077,0.22459,0.95256
290.979,34.74884,-0.37413,0.22796,0.95225
291.579,34.80614,-0.3785,0.2283,0.95194
292.179,34.86351,-0.38206,0.23152,0.95164
292.779,34.921,-0.3881,0.23182,0.95133
293.379,34.9786,-0.39343,0.23488,0.95102
293.979,35.0364,-0.39968,0.23593,0.95071
294.579,35.09415,-0.40517,0.2387,0.9504
295.179,35.15181,-0.41114,0.23961,0.95009
295.779,35.20944,-0.417,0.23963,0.94978
296.379,35.2671,-0.42061,0.24578,0.94947
296.979,35.32479,-0.42709,0.24619,0.94916
297.579,35.38248,-0.43149,0.24677,0.94885
298.179,35.4401,-0.43546,0.24804,0.94854
298.779,35.49771,-0.43895,0.25207,0.94823
299.379,35.55531,-0.44564,0.25659,0.94792
299.979,35.613,-0.45373,0.25936,0.94761
300.579,35.67093,-0.45812,0.26039,0.9473
301.179,35.72842,-0.46324,0.26216,0.94699
301.779,35.78607,-0.46803,0.26601,0.94668
302.379,35.84364,-0.47375,0.26657,0.94637
302.979,35.9013,-0.47931,0.27087,0.94606
303.579,35.95919,-0.48621,0.27079,0.94575
304.179,36.0169,-0.49329,0.27655,0.94543
304.779,36.0747,-0.49907,0.27797,0.94512
305.379,36.13242,-0.50628,0.27968,0.94481
305.979,36.1902,-0.51317,0.28194,0.9445
306.579,36.24767,-0.51996,0.28512,0.94419
307.179,36.3052,-0.52762,0.2871,0.94388
307.779,36.363,-0.53376,0.28877,0.94357
308.379,36.42073,-0.53994,0.29479,0.94325
308.979,36.4786,-0.54802,0.29527,0.94294
309.579,36.53628,-0.5553,0.29543,0.94263
310.179,36.59395,-0.56122,0.30003,0.94232
310.779,36.65128,-0.56862,0.30109,0.94201
311.379,36.70883,-0.57312,0.30538,0.94169
311.979,36.76659,-0.58496,0.30588,0.94138
312.579,36.8243,-0.58853,0.31035,0.94107
313.179,36.88234,-0.59711,0.31348,0.94076
313.779,36.94015,-0.60636,0.31929,0.94044
314.379,36.9978,-0.61452,0.32216,0.94013
314.979,37.05554,-0.62212,0.32281,0.93982
315.579,37.11335,-0.63011,0.32561,0.9395
316.179,37.17116,-0.63947,0.32886,0.93919
316.779,37.229,-0.64715,0.33086,0.93888
317.379,37.28669,-0.6561,0.332,0.93856
317.979,37.34472,-0.66488,0.33591,0.93825
318.579,37.4029,-0.67311,0.33768,0.93794
319.179,37.46095,-0.68032,0.33944,0.93762
319.779,37.51893,-0.68987,0.34367,0.93731
320.379,37.57639,-0.69832,0.3454,0.93699
320.979,37.63407,-0.70849,0.34713,0.93668
321.579,37.69206,-0.71728,0.3507,0.93637
322.179,37.75014,-0.72582,0.35631,0.93605
322.779,37.8087,-0.73535,0.35802,0.93574
323.379,37.86676,-0.74581,0.36165,0.93542
323.979,37.92487,-0.7572,0.36328,0.93511
324.579,37.98294,-0.76585,0.36748,0.93479
325.179,38.04102,-0.77466,0.3731,0.93448
325.779,38.0991,-0.78526,0.3777,0.93416
326.379,38.15721,-0.79535,0.37916,0.93384
326.979,38.21537,-0.80527,0.38385,0.93353
327.579,38.2737,-0.81667,0.39103,0.93321
328.179,38.33182,-0.82862,0.39444,0.9329
328.779,38.3897,-0.83916,0.39996,0.93258
329.379,38.44765,-0.84937,0.40386,0.93227
329.979,38.50565,-0.86184,0.40777,0.93195
330.579,38.56391,-0.87346,0.41314,0.93163
331.179,38.62208,-0.88483,0.41923,0.93132
331.779,38.6802,-0.89607,0.42569,0.931
332.379,38.73856,-0.91071,0.42982,0.93068
332.979,38.7967,-0.92051,0.43916,0.93036
333.579,38.8553,-0.93241,0.44592,0.93005
334.179,38.91337,-0.94589,0.45234,0.92973
334.779,38.97139,-0.95801,0.45873,0.92941
335.379,39.02936,-0.96849,0.46372,0.9291
335.979,39.0874,-0.98187,0.47088,0.92878
336.579,39.1453,-0.99644,0.47794,0.92846
337.179,39.20343,-1.00999,0.48538,0.92814
337.779,39.26169,-1.02447,0.49564,0.92782
338.379,39.32006,-1.03842,0.50268,0.92751
338.979,39.37842,-1.05393,0.50994,0.92719
339.579,39.43676,-1.06937,0.51856,0.92687
340.179,39.49499,-1.08465,0.52756,0.92655
340.779,39.5533,-1.09781,0.53193,0.92623
341.379,39.6115,-1.11409,0.54166,0.92591
341.979,39.66972,-1.12917,0.55116,0.92559
342.579,39.7279,-1.1443,0.55842,0.92527
343.179,39.78633,-1.16265,0.56804,0.92495
343.779,39.84453,-1.17865,0.57648,0.92463
344.379,39.90275,-1.19623,0.58373,0.92431
344.979,39.96094,-1.2093,0.59064,0.92399
345.579,40.01892,-1.22654,0.59917,0.92367
346.179,40.07707,-1.2432,0.60507,0.92335
346.779,40.13528,-1.26144,0.61127,0.92303
347.379,40.1935,-1.27835,0.61945,0.92271
347.979,40.25159,-1.2974,0.62724,0.92239
348.579,40.30964,-1.31483,0.63198,0.92207
349.179,40.3678,-1.33367,0.63937,0.92175
349.779,40.4258,-1.35288,0.64533,0.92143
350.379,40.48387,-1.37018,0.6463,0.92111
350.979,40.5421,-1.39039,0.65477,0.92078
351.579,40.60031,-1.4088,0.65745,0.92046
352.179,40.65849,-1.4288,0.65863,0.92014
352.779,40.71651,-1.44592,0.65906,0.91982
353.379,40.77442,-1.46606,0.66326,0.9195
353.979,40.83247,-1.48422,0.66235,0.91917
354.579,40.89073,-1.5028,0.6611,0.91885
355.179,40.949,-1.52417,0.66155,0.91853
355.779,41.00703,-1.5433,0.65764,0.91821
356.379,41.0652,-1.56344,0.65592,0.91788
356.979,41.1231,-1.58219,0.65131,0.91756
357.579,41.18144,-1.60134,0.64523,0.91724
358.179,41.2396,-1.61981,0.63491,0.91691
358.779,41.2978,-1.64,0.62798,0.91659
359.379,41.35604,-1.65771,0.61788,0.91626
359.979,41.41405,-1.67674,0.60679,0.91594
360.579,41.47211,-1.69369,0.59436,0.91562
361.179,41.53032,-1.71044,0.57988,0.91529
361.779,41.5884,-1.7277,0.56673,0.91497
362.379,41.6465,-1.74552,0.55078,0.91464
362.979,41.70469,-1.76122,0.53265,0.91432
363.579,41.763,-1.77537,0.51576,0.91399
364.179,41.82155,-1.79261,0.49566,0.91367
364.779,41.87993,-1.80706,0.47572,0.91334
365.379,41.9383,-1.8219,0.45436,0.91301
365.979,41.9965,-1.8345,0.43287,0.91269
366.579,42.0548,-1.84856,0.41056,0.91236
367.179,42.11315,-1.86084,0.38664,0.91204
367.779,42.1712,-1.87426,0.36631,0.91171
368.379,42.2292,-1.88665,0.3427,0.91138
368.979,42.2872,-1.89894,0.3188,0.91106
369.579,42.34514,-1.9095,0.29646,0.91073
370.179,42.40335,-1.91946,0.27354,0.9104
370.779,42.46141,-1.92931,0.25162,0.91007
371.379,42.51955,-1.93909,0.22864,0.90975
371.979,42.5776,-1.94693,0.20981,0.90942
372.579,42.63556,-1.95465,0.19092,0.90909
373.179,42.69392,-1.96218,0.17541,0.90876
373.779,42.7521,-1.96926,0.15828,0.90844
374.379,42.8102,-1.97448,0.1421,0.90811
374.979,42.8684,-1.98075,0.12859,0.90778
375.579,42.92635,-1.98694,0.11488,0.90745
376.179,42.98438,-1.99239,0.10302,0.90712
376.779,43.0423,-1.99715,0.0945622,0.90679
377.379,43.10029,-2.00213,0.08726293,0.90646
377.979,43.15842,-2.0067,0.07623487,0.90613
378.579,43.2166,-2.01283,0.0737082,0.9058
379.179,43.27485,-2.01741,0.06942631,0.90547
379.779,43.3328,-2.02115,0.06418984,0.90514
380.379,43.39083,-2.02438,0.06172249,0.90481
380.979,43.4489,-2.02788,0.0598195,0.90448
381.579,43.50704,-2.03377,0.05743999,0.90415
382.179,43.56496,-2.03756,0.05912453,0.90382
382.779,43.6228,-2.04096,0.0562424,0.90349
383.379,43.68058,-2.04571,0.05855142,0.90316
383.979,43.73856,-2.04953,0.05967255,0.90282
384.579,43.79692,-2.05397,0.05647398,0.90249
385.179,43.85522,-2.05933,0.05860382,0.90216
385.779,43.9138,-2.06557,0.06132021,0.90183
386.379,43.9726,-2.07206,0.0636313,0.90149
386.979,44.03127,-2.07645,0.0652073,0.90116
387.579,44.08999,-2.08031,0.06633542,0.90083
388.179,44.14864,-2.08543,0.06918167,0.9005
388.779,44.20686,-2.09066,0.07259885,0.90016
389.379,44.26514,-2.09637,0.07406576,0.89983
389.979,44.32346,-2.10123,0.07856529,0.8995
390.579,44.3817,-2.10741,0.07936321,0.89916
391.179,44.44021,-2.11323,0.07941648,0.89883
391.779,44.4985,-2.11885,0.08149251,0.89849
392.379,44.55688,-2.12494,0.08255208,0.89816
392.979,44.61518,-2.13109,0.08399634,0.89782
393.579,44.67326,-2.13591,0.08606233,0.89749
394.179,44.73138,-2.14301,0.08724602,0.89715
394.779,44.78946,-2.15032,0.08906385,0.89682
395.379,44.84785,-2.16069,0.08862972,0.89648
395.979,44.90659,-2.16573,0.09184616,0.89615
396.579,44.96537,-2.17252,0.08901689,0.89581
397.179,45.024,-2.18079,0.09054296,0.89547
397.779,45.0826,-2.18577,0.09142845,0.89514
398.379,45.1412,-2.19413,0.08932102,0.8948
398.979,45.1997,-2.19929,0.08799528,0.89446
399.579,45.25824,-2.20518,0.08500241,0.89413
400.179,45.3167,-2.21216,0.08599911,0.89379
400.779,45.37528,-2.21981,0.08344616,0.89345
401.379,45.4341,-2.22913,0.08195177,0.89311
401.979,45.4929,-2.23728,0.08016133,0.89278
402.579,45.55173,-2.24382,0.07679566,0.89244
403.179,45.61039,-2.25059,0.07357794,0.8921
403.779,45.66895,-2.25827,0.06683059,0.89176
404.379,45.72746,-2.26626,0.06338912,0.89142
404.979,45.78614,-2.2729,0.06088778,0.89108
405.579,45.8449,-2.27974,0.05427881,0.89074
406.179,45.9036,-2.28584,0.04664408,0.8904
406.779,45.96224,-2.29302,0.04096328,0.89006
407.379,46.02087,-2.30015,0.03355354,0.88972
407.979,46.07918,-2.30597,0.0288141,0.88938
408.579,46.13776,-2.31344,0.01624837,0.88904
409.179,46.19648,-2.32064,0.01254082,0.8887
409.779,46.25544,-2.32638,-0.0005376008,0.88836
410.379,46.31454,-2.33023,-0.01027693,0.88802
410.979,46.37344,-2.33448,-0.0194039,0.88768
411.579,46.4322,-2.33869,-0.02798106,0.88734
412.179,46.49067,-2.34242,-0.03749572,0.887
412.779,46.5492,-2.34736,-0.04483565,0.88665
413.379,46.60792,-2.35296,-0.05826042,0.88631
413.979,46.6665,-2.35834,-0.06346622,0.88597
414.579,46.72501,-2.36019,-0.07180211,0.88563
415.179,46.78371,-2.36267,-0.07670736,0.88528
415.779,46.84228,-2.36566,-0.08311043,0.88494
416.379,46.90101,-2.37225,-0.09113783,0.8846
416.979,46.95939,-2.37376,-0.0960423,0.88425
417.579,47.01809,-2.37537,-0.10226,0.88391
418.179,47.07675,-2.37701,-0.10483,0.88356
418.779,47.13536,-2.38003,-0.10805,0.88322
419.379,47.19397,-2.38357,-0.11079,0.88288
419.979,47.25264,-2.38589,-0.11653,0.88253
420.579,47.3115,-2.38841,-0.11933,0.88219
421.179,47.37039,-2.3916,-0.12089,0.88184
421.779,47.42918,-2.39371,-0.12118,0.88149
422.379,47.4878,-2.39746,-0.1253,0.88115
422.979,47.5465,-2.40022,-0.12546,0.8808
423.579,47.60539,-2.40138,-0.1265,0.88046
424.179,47.66418,-2.40482,-0.12677,0.88011
424.779,47.72306,-2.40551,-0.12936,0.87976
425.379,47.7817,-2.40445,-0.12935,0.87942
425.979,47.84042,-2.40608,-0.1342,0.87907
426.579,47.8992,-2.40741,-0.13499,0.87872
427.179,47.95796,-2.4087,-0.13625,0.87837
427.779,48.01678,-2.40997,-0.13366,0.87802
428.379,48.07565,-2.41267,-0.13584,0.87768
428.979,48.13459,-2.41398,-0.13676,0.87733
429.579,48.19345,-2.41466,-0.13794,0.87698
430.179,48.25233,-2.41597,-0.13919,0.87663
430.779,48.31102,-2.4173,-0.13834,0.87628
431.379,48.36978,-2.41858,-0.14053,0.87593
431.979,48.42821,-2.42082,-0.13999,0.87558
432.579,48.4871,-2.42283,-0.13954,0.87523
433.179,48.54602,-2.4249,-0.14158,0.87488
433.779,48.60503,-2.42704,-0.14288,0.87453
434.379,48.664,-2.42878,-0.1432,0.87418
434.979,48.72279,-2.42997,-0.14303,0.87383
435.579,48.7817,-2.42999,-0.1429,0.87348
436.179,48.84059,-2.43133,-0.14321,0.87313
436.779,48.89948,-2.43131,-0.14409,0.87277
437.379,48.95821,-2.4313,-0.14375,0.87242
437.979,49.01688,-2.43263,-0.14337,0.87207
438.579,49.0756,-2.43392,-0.14448,0.87172
439.179,49.134,-2.43394,-0.14445,0.87136
439.779,49.19293,-2.43528,-0.14643,0.87101
440.379,49.25175,-2.4377,-0.14727,0.87066
440.979,49.31065,-2.44227,-0.14585,0.8703
441.579,49.36963,-2.44136,-0.14675,0.86995
442.179,49.42852,-2.44196,-0.14631,0.86959
442.779,49.48752,-2.44339,-0.14726,0.86924
443.379,49.5467,-2.44489,-0.14959,0.86889
443.979,49.6059,-2.44632,-0.14897,0.86853
444.579,49.66509,-2.44612,-0.14856,0.86818
445.179,49.72412,-2.44658,-0.14881,0.86782
445.779,49.78315,-2.44754,-0.14719,0.86746
446.379,49.84223,-2.44895,-0.15033,0.86711
446.979,49.9016,-2.45147,-0.15075,0.86675
447.579,49.96067,-2.45149,-0.15063,0.8664
448.179,50.01976,-2.45018,-0.15246,0.86604
448.779,50.07862,-2.45018,-0.15409,0.86568
449.379,50.1376,-2.45148,-0.15595,0.86532
449.979,50.19664,-2.45148,-0.15552,0.86497
450.579,50.25573,-2.45153,-0.15367,0.86461
451.179,50.31474,-2.4528,-0.15606,0.86425
451.779,50.37298,-2.45436,-0.15537,0.86389
452.379,50.43185,-2.45688,-0.15347,0.86353
452.979,50.49085,-2.45891,-0.15669,0.86317
453.579,50.55017,-2.46017,-0.15528,0.86281
454.179,50.6097,-2.46081,-0.15559,0.86246
454.779,50.66874,-2.46086,-0.15394,0.8621
455.379,50.72783,-2.46083,-0.15258,0.86174
455.979,50.78666,-2.46215,-0.15356,0.86138
456.579,50.8457,-2.46312,-0.15258,0.86101
457.179,50.90486,-2.46312,-0.15251,0.86065
457.779,50.96423,-2.46434,-0.15144,0.86029
458.379,51.02328,-2.46443,-0.14972,0.85993
458.979,51.08232,-2.46499,-0.14843,0.85957
459.579,51.1413,-2.46575,-0.1488,0.85921
460.179,51.20032,-2.4684,-0.14658,0.85884
460.779,51.25913,-2.46838,-0.15042,0.85848
461.379,51.3183,-2.46707,-0.14783,0.85812
461.979,51.3773,-2.46837,-0.14742,0.85776
462.579,51.43657,-2.4694,-0.14814,0.85739
463.179,51.49576,-2.4702,-0.14957,0.85703
463.779,51.55468,-2.47134,-0.14761,0.85667
464.379,51.61375,-2.47263,-0.14839,0.8563
464.979,51.67268,-2.47402,-0.15074,0.85594
465.579,51.7316,-2.47502,-0.15072,0.85557
466.179,51.79054,-2.47397,-0.15217,0.85521
466.779,51.84953,-2.47529,-0.15052,0.85484
467.379,51.90853,-2.47529,-0.15086,0.85448
467.979,51.9676,-2.47529,-0.15177,0.85411
468.579,52.02653,-2.47725,-0.1542,0.85374
469.179,52.08554,-2.478,-0.15279,0.85338
469.779,52.1445,-2.47924,-0.15389,0.85301
470.379,52.20344,-2.47917,-0.15148,0.85264
470.979,52.26265,-2.47996,-0.1531,0.85228
471.579,52.32161,-2.47923,-0.15278,0.85191
472.179,52.38087,-2.47923,-0.15286,0.85154
472.779,52.44013,-2.48055,-0.15718,0.85117
473.379,52.4992,-2.48085,-0.15428,0.8508
473.979,52.5577,-2.48186,-0.15691,0.85044
474.579,52.61665,-2.48315,-0.15519,0.85007
475.179,52.67556,-2.48285,-0.15476,0.8497
475.779,52.73483,-2.48285,-0.15623,0.84933
476.379,52.7941,-2.48281,-0.15723,0.84896
476.979,52.85325,-2.48416,-0.15696,0.84859
477.579,52.9127,-2.48546,-0.15857,0.84822
478.179,52.97192,-2.48762,-0.15584,0.84785
478.779,53.03134,-2.48819,-0.15806,0.84747
479.379,53.09081,-2.48943,-0.15978,0.8471
479.979,53.1502,-2.49076,-0.15689,0.84673
480.579,53.2096,-2.49175,-0.1571,0.84636
481.179,53.2684,-2.49174,-0.16048,0.84599
481.779,53.32767,-2.49098,-0.15795,0.84561
482.379,53.38709,-2.49173,-0.15824,0.84524
482.979,53.44664,-2.49175,-0.1582,0.84487
483.579,53.50625,-2.49174,-0.15793,0.8445
484.179,53.5655,-2.49306,-0.16025,0.84412
484.779,53.6248,-2.49431,-0.15954,0.84375
485.379,53.68399,-2.49438,-0.16014,0.84337
485.979,53.7434,-2.49438,-0.15823,0.843
486.579,53.80296,-2.49642,-0.15924,0.84262
487.179,53.8623,-2.49766,-0.16237,0.84225
487.779,53.92182,-2.49766,-0.16199,0.84187
488.379,53.981,-2.49898,-0.15893,0.8415
488.979,54.0403,-2.49767,-0.15773,0.84112
489.579,54.0995,-2.49635,-0.15444,0.84074
490.179,54.15896,-2.49635,-0.14827,0.84037
490.779,54.21861,-2.49635,-0.14504,0.83999
491.379,54.27815,-2.49635,-0.14516,0.83961
491.979,54.3377,-2.49771,-0.14839,0.83924
492.579,54.39721,-2.4976,-0.14464,0.83886
493.179,54.45658,-2.49903,-0.14165,0.83848
493.779,54.51583,-2.49898,-0.14272,0.8381
494.379,54.57513,-2.49898,-0.14158,0.83772
494.979,54.6343,-2.50021,-0.14203,0.83734
495.579,54.6931,-2.5003,-0.13938,0.83696
496.179,54.7522,-2.50162,-0.13913,0.83658
496.779,54.81143,-2.50292,-0.14069,0.8362
497.379,54.8711,-2.50293,-0.13842,0.83582
497.979,54.9309,-2.50367,-0.13777,0.83544
498.579,54.99012,-2.50425,-0.14113,0.83506
499.179,55.04942,-2.50293,-0.14109,0.83468
499.779,55.10849,-2.50293,-0.14094,0.8343
500.379,55.16775,-2.50293,-0.14113,0.83392
500.979,55.2271,-2.50391,-0.14254,0.83354
501.579,55.28649,-2.50392,-0.14424,0.83315
502.179,55.3459,-2.5052,-0.14427,0.83277
502.779,55.40529,-2.50416,-0.1439,0.83239
503.379,55.4647,-2.50387,-0.14603,0.832
503.979,55.52394,-2.50664,-0.14873,0.83162
504.579,55.5831,-2.50651,-0.14746,0.83124
505.179,55.6423,-2.50754,-0.15094,0.83085
505.779,55.70171,-2.50624,-0.14867,0.83047
506.379,55.76106,-2.50622,-0.15039,0.83008
506.979,55.8206,-2.50623,-0.15131,0.8297
507.579,55.88016,-2.50655,-0.14998,0.82931
508.179,55.9396,-2.50655,-0.15045,0.82892
508.779,55.99901,-2.5065,-0.15383,0.82854
509.379,56.0584,-2.50786,-0.15456,0.82815
509.979,56.1177,-2.50917,-0.15241,0.82777
510.579,56.17705,-2.50977,-0.15521,0.82738
511.179,56.2365,-2.50984,-0.15569,0.82699
511.779,56.29603,-2.50972,-0.15731,0.8266
512.379,56.3555,-2.50984,-0.15688,0.82622
512.979,56.415,-2.50974,-0.15837,0.82583
513.579,56.47453,-2.51409,-0.16066,0.82544
514.179,56.5342,-2.51422,-0.16293,0.82505
514.779,56.59391,-2.51431,-0.16714,0.82466
515.379,56.65356,-2.51393,-0.17205,0.82427
515.979,56.71318,-2.51147,-0.17407,0.82388
516.579,56.77296,-2.51315,-0.17895,0.82349
517.179,56.8325,-2.51538,-0.1822,0.8231
517.779,56.89212,-2.51554,-0.18519,0.82271
518.379,56.9517,-2.51554,-0.18757,0.82232
518.979,57.0113,-2.51599,-0.19089,0.82193
519.579,57.0708,-2.51818,-0.19381,0.82153
520.179,57.1304,-2.5195,-0.19315,0.82114
520.779,57.19002,-2.51817,-0.19874,0.82075
521.379,57.2497,-2.51754,-0.19656,0.82036
521.979,57.30901,-2.51686,-0.19848,0.81996
522.579,57.3682,-2.51685,-0.2013,0.81957
523.179,57.4274,-2.51629,-0.20408,0.81918
523.779,57.48675,-2.51489,-0.20541,0.81878
524.379,57.5464,-2.5149,-0.20649,0.81839
524.979,57.6061,-2.51653,-0.20881,0.81799
525.579,57.66568,-2.51652,-0.21002,0.8176
526.179,57.72529,-2.51776,-0.21171,0.8172
526.779,57.78507,-2.51918,-0.21406,0.81681
527.379,57.84479,-2.51882,-0.21692,0.81641
527.979,57.9045,-2.51882,-0.21873,0.81601
528.579,57.96431,-2.52051,-0.22043,0.81562
529.179,58.024,-2.52047,-0.223,0.81522
529.779,58.08426,-2.5218,-0.22583,0.81482
530.379,58.14436,-2.52104,-0.22812,0.81443
530.979,58.20425,-2.52152,-0.23157,0.81403
531.579,58.26405,-2.5228,-0.23313,0.81363
532.179,58.32331,-2.5218,-0.23606,0.81323
532.779,58.38309,-2.52038,-0.2409,0.81283
533.379,58.4427,-2.52048,-0.24316,0.81243
533.979,58.50271,-2.52048,-0.24686,0.81203
534.579,58.56273,-2.5207,-0.24892,0.81163
535.179,58.6225,-2.52199,-0.25092,0.81123
535.779,58.6821,-2.52451,-0.24901,0.81083
536.379,58.7417,-2.52586,-0.25365,0.81043
536.979,58.80138,-2.52586,-0.25204,0.81003
537.579,58.8611,-2.5258,-0.25548,0.80963
538.179,58.92064,-2.52575,-0.25991,0.80923
538.779,58.9804,-2.52575,-0.26138,0.80883
539.379,59.0398,-2.52606,-0.26222,0.80842
539.979,59.0996,-2.52706,-0.26692,0.80802
540.579,59.1592,-2.52706,-0.26682,0.80762
541.179,59.21859,-2.52706,-0.26922,0.80721
541.779,59.2784,-2.52706,-0.27252,0.80681
542.379,59.33794,-2.52706,-0.27217,0.80641
542.979,59.3978,-2.52733,-0.26979,0.806
543.579,59.45754,-2.52629,-0.27184,0.8056
544.179,59.51719,-2.52706,-0.27281,0.80519
544.779,59.5771,-2.52837,-0.27417,0.80479
545.379,59.6365,-2.52838,-0.27415,0.80438
545.979,59.6958,-2.52838,-0.27802,0.80397
546.579,59.7551,-2.52838,-0.27701,0.80357
547.179,59.81448,-2.52838,-0.27582,0.80316
547.779,59.8741,-2.52845,-0.27738,0.80275
548.379,59.9337,-2.52936,-0.27447,0.80235
548.979,59.99351,-2.52936,-0.27446,0.80194
549.579,60.0534,-2.52971,-0.2755,0.80153
550.179,60.1135,-2.53101,-0.27574,0.80112
550.779,60.1734,-2.53195,-0.27636,0.80071
551.379,60.2331,-2.53095,-0.27863,0.80031
551.979,60.2932,-2.53249,-0.27828,0.7999
552.579,60.35334,-2.53331,-0.27738,0.79949
553.179,60.41358,-2.53401,-0.27953,0.79908
553.779,60.47342,-2.53463,-0.28042,0.79867
554.379,60.53317,-2.53463,-0.28062,0.79826
554.979,60.59305,-2.53463,-0.28132,0.79784
555.579,60.65288,-2.5333,-0.27981,0.79743
556.179,60.7126,-2.53331,-0.27901,0.79702
556.779,60.77245,-2.53427,-0.282,0.79661
557.379,60.8325,-2.5343,-0.28583,0.7962
557.979,60.89274,-2.53349,-0.28199,0.79578
558.579,60.9527,-2.53298,-0.28506,0.79537
559.179,61.01266,-2.5333,-0.28605,0.79496
559.779,61.07252,-2.53465,-0.28582,0.79454
560.379,61.1325,-2.53595,-0.28654,0.79413
560.979,61.19235,-2.53722,-0.28522,0.79372
561.579,61.2524,-2.53728,-0.28509,0.7933
562.179,61.3122,-2.5384,-0.28626,0.79289
562.779,61.37194,-2.53857,-0.28733,0.79247
563.379,61.4311,-2.53857,-0.2836,0.79206
563.979,61.4908,-2.53857,-0.28646,0.79164
564.579,61.5512,-2.53726,-0.28694,0.79122
565.179,61.6117,-2.53737,-0.29133,0.79081
565.779,61.6725,-2.53726,-0.28833,0.79039
566.379,61.73275,-2.53726,-0.28729,0.78997
566.979,61.7926,-2.53625,-0.28843,0.78956
567.579,61.85253,-2.53627,-0.28698,0.78914
568.179,61.91251,-2.53491,-0.29141,0.78872
568.779,61.9725,-2.53492,-0.28698,0.7883
569.379,62.0326,-2.53727,-0.28681,0.78788
569.979,62.0924,-2.53727,-0.28829,0.78746
570.579,62.15203,-2.53726,-0.28726,0.78704
571.179,62.2119,-2.53726,-0.28953,0.78662
571.779,62.27166,-2.53858,-0.28907,0.7862
572.379,62.3317,-2.5386,-0.29331,0.78578
572.979,62.3916,-2.53859,-0.28959,0.78536
573.579,62.4516,-2.53927,-0.28827,0.78494
574.179,62.51152,-2.54055,-0.2877,0.78452
574.779,62.5714,-2.54055,-0.2908,0.7841
575.379,62.6313,-2.54056,-0.29013,0.78367
575.979,62.69113,-2.5399,-0.2875,0.78325
576.579,62.75102,-2.53995,-0.29256,0.78283
577.179,62.811,-2.53989,-0.29073,0.7824
577.779,62.8711,-2.53989,-0.28941,0.78198
578.379,62.93121,-2.53989,-0.29173,0.78156
578.979,62.99131,-2.54121,-0.29306,0.78113
579.579,63.05131,-2.54126,-0.29238,0.78071
580.179,63.1111,-2.54252,-0.29182,0.78028
580.779,63.17103,-2.54252,-0.28976,0.77986
581.379,63.231,-2.54326,-0.29334,0.77943
581.979,63.2911,-2.5438,-0.29145,0.77901
582.579,63.35122,-2.54252,-0.2926,0.77858
583.179,63.41135,-2.54252,-0.29174,0.77815
583.779,63.47147,-2.54252,-0.29222,0.77773
584.379,63.53174,-2.54333,-0.29439,0.7773
584.979,63.59183,-2.54385,-0.2939,0.77687
585.579,63.65192,-2.54385,-0.29598,0.77644
586.179,63.7118,-2.54252,-0.29536,0.77601
586.779,63.77166,-2.54253,-0.29489,0.77559
587.379,63.8315,-2.54385,-0.29565,0.77516
587.979,63.89135,-2.54516,-0.29188,0.77473
588.579,63.9515,-2.54646,-0.29119,0.7743
589.179,64.0116,-2.54648,-0.29373,0.77387
589.779,64.07174,-2.54655,-0.29631,0.77344
590.379,64.1318,-2.5478,-0.29554,0.77301
590.979,64.19199,-2.54803,-0.29167,0.77258
591.579,64.25187,-2.54812,-0.29314,0.77214
592.179,64.31195,-2.54812,-0.29316,0.77171
592.779,64.372,-2.54812,-0.29219,0.77128
593.379,64.43209,-2.54943,-0.29374,0.77085
593.979,64.49224,-2.55052,-0.29172,0.77042
594.579,64.55244,-2.55043,-0.29209,0.76998
595.179,64.6126,-2.55043,-0.2895,0.76955
595.779,64.67263,-2.55042,-0.29051,0.76912
596.379,64.73266,-2.54911,-0.29223,0.76868
596.979,64.79253,-2.54774,-0.29439,0.76825
597.579,64.85263,-2.54779,-0.2929,0.76781
598.179,64.91272,-2.54934,-0.29617,0.76738
598.779,64.9725,-2.5501,-0.28969,0.76694
599.379,65.03275,-2.55098,-0.29121,0.76651
599.979,65.09276,-2.55141,-0.29292,0.76607
600.579,65.15292,-2.54945,-0.29265,0.76563
601.179,65.21297,-2.54908,-0.2921,0.7652
601.779,65.27282,-2.54912,-0.29321,0.76476
602.379,65.33269,-2.55048,-0.29193,0.76432
602.979,65.39267,-2.54991,-0.29332,0.76389
603.579,65.45281,-2.55098,-0.28898,0.76345
604.179,65.513,-2.55141,-0.28911,0.76301
604.779,65.57311,-2.55141,-0.28817,0.76257
605.379,65.63305,-2.55139,-0.28955,0.76213
605.979,65.69324,-2.55311,-0.2872,0.76169
606.579,65.75336,-2.55447,-0.285,0.76125
607.179,65.81358,-2.55437,-0.28553,0.76081
607.779,65.8737,-2.55437,-0.28839,0.76037
608.379,65.93365,-2.55435,-0.28492,0.75993
608.979,65.99374,-2.55132,-0.28539,0.75949
609.579,66.054,-2.55274,-0.28237,0.75905
610.179,66.11435,-2.55408,-0.2846,0.75861
610.779,66.1747,-2.55537,-0.28329,0.75816
611.379,66.23495,-2.55524,-0.28336,0.75772
611.979,66.29514,-2.55531,-0.28241,0.75728
612.579,66.35539,-2.55768,-0.28165,0.75684
613.179,66.4156,-2.55767,-0.28233,0.75639
613.779,66.47596,-2.55727,-0.28215,0.75595
614.379,66.53616,-2.55699,-0.28241,0.7555
614.979,66.59635,-2.55602,-0.2805,0.75506
615.579,66.65666,-2.55605,-0.2796,0.75462
616.179,66.71675,-2.55871,-0.27974,0.75417
616.779,66.77721,-2.55864,-0.27792,0.75373
617.379,66.83759,-2.55865,-0.27813,0.75328
617.979,66.89783,-2.55865,-0.27498,0.75283
618.579,66.9581,-2.55865,-0.27358,0.75239
619.179,67.01853,-2.55865,-0.27396,0.75194
619.779,67.07894,-2.55997,-0.2718,0.75149
620.379,67.13927,-2.56196,-0.27138,0.75105
620.979,67.19955,-2.56195,-0.26658,0.7506
621.579,67.2599,-2.56195,-0.26782,0.75015
622.179,67.3203,-2.56337,-0.26618,0.7497
622.779,67.38064,-2.56205,-0.26542,0.74925
623.379,67.4409,-2.56205,-0.26316,0.7488
623.979,67.50092,-2.56205,-0.26162,0.74835
624.579,67.56105,-2.56207,-0.25749,0.7479
625.179,67.62108,-2.56074,-0.25855,0.74745
625.779,67.68126,-2.56074,-0.256,0.747
626.379,67.7414,-2.56182,-0.2547,0.74655
626.979,67.80149,-2.56211,-0.25267,0.7461
627.579,67.8618,-2.56337,-0.25201,0.74565
628.179,67.92181,-2.56337,-0.24693,0.7452
628.779,67.98199,-2.56468,-0.24942,0.74475
629.379,68.04209,-2.56535,-0.2489,0.74429
629.979,68.10171,-2.56468,-0.24539,0.74384
630.579,68.16179,-2.56535,-0.24563,0.74339
631.179,68.2218,-2.56666,-0.24061,0.74294
631.779,68.28189,-2.56747,-0.24233,0.74248
632.379,68.34225,-2.56648,-0.23972,0.74203
632.979,68.4025,-2.56535,-0.23851,0.74157
633.579,68.46229,-2.56836,-0.23835,0.74112
634.179,68.52194,-2.56919,-0.23533,0.74066
634.779,68.58211,-2.57045,-0.23345,0.74021
635.379,68.64237,-2.57108,-0.23296,0.73975
635.979,68.7029,-2.57082,-0.23423,0.7393
636.579,68.7636,-2.57059,-0.2316,0.73884
637.179,68.8238,-2.5714,-0.23112,0.73838
637.779,68.88417,-2.57183,-0.23034,0.73793
638.379,68.9444,-2.5705,-0.22964,0.73747
638.979,69.0047,-2.5705,-0.22794,0.73701
639.579,69.065,-2.57272,-0.22732,0.73655
640.179,69.1253,-2.57363,-0.22396,0.73609
640.779,69.1857,-2.57435,-0.22383,0.73564
641.379,69.24601,-2.57575,-0.2218,0.73518
641.979,69.30646,-2.57708,-0.22126,0.73472
642.579,69.3669,-2.57843,-0.22063,0.73426
643.179,69.42738,-2.57937,-0.2217,0.7338
643.779,69.4879,-2.57938,-0.22202,0.73334
644.379,69.54828,-2.57938,-0.21968,0.73288
644.979,69.60882,-2.57805,-0.22067,0.73242
645.579,69.6692,-2.57938,-0.21954,0.73196
646.179,69.72969,-2.57938,-0.2199,0.73149
646.779,69.79019,-2.5807,-0.21875,0.73103
647.379,69.85086,-2.58073,-0.22235,0.73057
647.979,69.91136,-2.58202,-0.22223,0.73011
648.579,69.97175,-2.58202,-0.22298,0.72964
649.179,70.03222,-2.58333,-0.22363,0.72918
649.779,70.09268,-2.58333,-0.22024,0.72872
650.379,70.15375,-2.58333,-0.22175,0.72825
650.979,70.21415,-2.58325,-0.22675,0.72779
651.579,70.27486,-2.58461,-0.22832,0.72732
652.179,70.33527,-2.58464,-0.22849,0.72686
652.779,70.39549,-2.58595,-0.23151,0.72639
653.379,70.45576,-2.58597,-0.23238,0.72593
653.979,70.51606,-2.58731,-0.23336,0.72546
654.579,70.5768,-2.58859,-0.23617,0.725
655.179,70.63724,-2.58859,-0.23474,0.72453
655.779,70.6977,-2.58859,-0.23794,0.72406
656.379,70.7581,-2.58879,-0.24047,0.7236
656.979,70.81863,-2.58857,-0.24315,0.72313
657.579,70.87918,-2.58992,-0.24291,0.72266
658.179,70.93975,-2.58992,-0.2438,0.72219
658.779,70.9999,-2.59056,-0.24214,0.72173
659.379,71.06044,-2.5916,-0.24434,0.72126
659.979,71.12084,-2.59255,-0.24318,0.72079
660.579,71.18124,-2.59255,-0.24203,0.72032
661.179,71.24163,-2.59355,-0.24166,0.71985
661.779,71.3019,-2.59354,-0.2415,0.71938
662.379,71.3621,-2.59312,-0.24089,0.71891
662.979,71.4224,-2.59288,-0.23638,0.71844
663.579,71.48233,-2.59286,-0.2381,0.71797
664.179,71.54257,-2.59436,-0.24102,0.7175
664.779,71.60265,-2.59473,-0.23675,0.71702
665.379,71.66319,-2.59675,-0.23757,0.71655
665.979,71.7238,-2.59857,-0.23552,0.71608
666.579,71.7844,-2.59847,-0.24076,0.71561
667.179,71.84498,-2.59847,-0.23713,0.71513
667.779,71.9056,-2.59847,-0.2414,0.71466
668.379,71.9665,-2.59978,-0.24401,0.71419
668.979,72.02754,-2.60111,-0.24741,0.71371
669.579,72.08819,-2.60044,-0.2474,0.71324
670.179,72.14837,-2.60037,-0.25058,0.71277
670.779,72.20869,-2.60009,-0.25516,0.71229
671.379,72.26905,-2.60044,-0.2609,0.71182
671.979,72.32972,-2.60272,-0.26637,0.71134
672.579,72.39,-2.60307,-0.26646,0.71087
673.179,72.45013,-2.60175,-0.28036,0.71039
673.779,72.51034,-2.60175,-0.28404,0.70991
674.379,72.57056,-2.60175,-0.29409,0.70944
674.979,72.63095,-2.60044,-0.30449,0.70896
675.579,72.6913,-2.60044,-0.31661,0.70848
676.179,72.7518,-2.5998,-0.32422,0.708
676.779,72.81214,-2.60051,-0.33116,0.70753
677.379,72.87297,-2.6011,-0.33267,0.70705
677.979,72.93345,-2.60244,-0.33698,0.70657
678.579,72.994,-2.60374,-0.33584,0.70609
679.179,73.05444,-2.60277,-0.33733,0.70561
679.779,73.11495,-2.6028,-0.33712,0.70513
680.379,73.17538,-2.60143,-0.33695,0.70465
680.979,73.23598,-2.60143,-0.33894,0.70417
681.579,73.2967,-2.60139,-0.33427,0.70369
682.179,73.3574,-2.60246,-0.33835,0.70321
682.779,73.41824,-2.60242,-0.33417,0.70273
683.379,73.4789,-2.60305,-0.33652,0.70225
683.979,73.5394,-2.60307,-0.33497,0.70177
684.579,73.6001,-2.60307,-0.34032,0.70129
685.179,73.66065,-2.60307,-0.33934,0.7008
685.779,73.72139,-2.60307,-0.33724,0.70032
686.379,73.78215,-2.60304,-0.33826,0.69984
686.979,73.8428,-2.60385,-0.34021,0.69936
687.579,73.90332,-2.60598,-0.33445,0.69887
688.179,73.96382,-2.60644,-0.33702,0.69839
688.779,74.0243,-2.60505,-0.33817,0.69791
689.379,74.08508,-2.60504,-0.33988,0.69742
689.979,74.14593,-2.60277,-0.34163,0.69694
690.579,74.20659,-2.60241,-0.34114,0.69645
691.179,74.26735,-2.60371,-0.34185,0.69597
691.779,74.3279,-2.60504,-0.33955,0.69548
692.379,74.38856,-2.60502,-0.33831,0.695
692.979,74.44915,-2.6057,-0.33938,0.69451
693.579,74.50981,-2.60702,-0.33685,0.69402
694.179,74.57001,-2.60702,-0.34167,0.69354
694.779,74.63074,-2.60702,-0.33613,0.69305
695.379,74.69139,-2.60702,-0.33878,0.69256
695.979,74.75237,-2.60702,-0.34145,0.69207
696.579,74.81318,-2.60702,-0.34279,0.69159
697.179,74.8738,-2.6063,-0.34318,0.6911
697.779,74.93445,-2.60604,-0.34436,0.69061
698.379,74.99512,-2.60604,-0.34457,0.69012
698.979,75.0557,-2.60469,-0.34648,0.68963
699.579,75.1165,-2.60505,-0.34629,0.68914
700.179,75.17719,-2.60603,-0.34659,0.68865
700.779,75.23784,-2.60573,-0.34688,0.68816
701.379,75.29855,-2.60593,-0.34663,0.68767
701.979,75.35922,-2.60765,-0.3444,0.68718
702.579,75.41999,-2.60724,-0.34536,0.68669
703.179,75.48087,-2.60724,-0.3474,0.6862
703.779,75.5417,-2.60724,-0.34644,0.68571
704.379,75.60221,-2.60855,-0.34788,0.68522
704.979,75.66269,-2.60856,-0.34867,0.68473
705.579,75.72315,-2.6079,-0.3457,0.68423
706.179,75.78379,-2.6079,-0.34965,0.68374
706.779,75.8446,-2.6079,-0.34782,0.68325
707.379,75.905,-2.60763,-0.34614,0.68275
707.979,75.96555,-2.60586,-0.35069,0.68226
708.579,76.02595,-2.60592,-0.35007,0.68177
709.179,76.0866,-2.60589,-0.34961,0.68127
709.779,76.1469,-2.60626,-0.34854,0.68078
710.379,76.20729,-2.60625,-0.34549,0.68028
710.979,76.26777,-2.60756,-0.34451,0.67979
711.579,76.32836,-2.61019,-0.34943,0.67929
712.179,76.38885,-2.60962,-0.34726,0.6788
712.779,76.44965,-2.6079,-0.34664,0.6783
713.379,76.5103,-2.6079,-0.35245,0.67781
713.979,76.57131,-2.60924,-0.34866,0.67731
714.579,76.6324,-2.61062,-0.34946,0.67681
715.179,76.69341,-2.61053,-0.34642,0.67632
715.779,76.75445,-2.6092,-0.35258,0.67582
716.379,76.81523,-2.60921,-0.35123,0.67532
716.979,76.8758,-2.60921,-0.35038,0.67483
717.579,76.93633,-2.60917,-0.35083,0.67433
718.179,76.997,-2.6103,-0.35159,0.67383
718.779,77.05803,-2.61018,-0.35008,0.67333
719.379,77.1191,-2.60889,-0.34877,0.67283
719.979,77.18003,-2.60889,-0.34908,0.67233
720.579,77.24083,-2.60889,-0.35294,0.67183
721.179,77.3014,-2.60987,-0.35694,0.67133
721.779,77.36195,-2.60988,-0.35561,0.67083
722.379,77.4225,-2.60988,-0.35444,0.67033
722.979,77.48316,-2.60988,-0.35476,0.66983
723.579,77.54353,-2.60988,-0.35296,0.66933
724.179,77.60398,-2.60988,-0.35023,0.66883
724.779,77.6644,-2.60988,-0.35444,0.66833
725.379,77.7248,-2.61025,-0.35293,0.66783
725.979,77.78545,-2.6089,-0.35259,0.66733
726.579,77.84604,-2.6102,-0.35388,0.66682
727.179,77.90654,-2.61153,-0.35069,0.66632
727.779,77.96692,-2.61152,-0.34854,0.66582
728.379,78.02718,-2.61152,-0.34674,0.66532
728.979,78.08776,-2.61152,-0.35431,0.66481
729.579,78.14849,-2.61152,-0.35145,0.66431
730.179,78.20913,-2.61178,-0.35087,0.66381
730.779,78.2697,-2.61283,-0.3521,0.6633
731.379,78.33004,-2.61283,-0.35099,0.6628
731.979,78.39033,-2.61152,-0.35163,0.66229
732.579,78.45079,-2.61283,-0.3519,0.66179
733.179,78.51133,-2.61283,-0.34858,0.66128
733.779,78.5718,-2.61185,-0.34922,0.66078
734.379,78.63225,-2.61152,-0.35036,0.66027
734.979,78.69244,-2.61152,-0.35174,0.65977
735.579,78.75286,-2.61151,-0.35352,0.65926
736.179,78.8133,-2.61021,-0.34871,0.65875
736.779,78.87383,-2.61026,-0.3531,0.65825
737.379,78.93438,-2.61045,-0.35179,0.65774
737.979,78.9949,-2.61059,-0.34954,0.65723
738.579,79.05541,-2.61276,-0.34743,0.65672
739.179,79.11623,-2.61317,-0.34885,0.65622
739.779,79.17713,-2.61317,-0.34568,0.65571
740.379,79.23786,-2.61448,-0.34399,0.6552
740.979,79.29857,-2.61448,-0.3464,0.65469
741.579,79.3591,-2.61448,-0.34525,0.65418
742.179,79.41981,-2.61415,-0.3453,0.65367
742.779,79.4806,-2.6128,-0.34431,0.65316
743.379,79.54132,-2.61283,-0.34737,0.65265
743.979,79.6018,-2.61283,-0.34791,0.65215
744.579,79.66247,-2.61367,-0.34849,0.65163
745.179,79.7231,-2.61558,-0.34974,0.65112
745.779,79.78396,-2.61425,-0.34822,0.65061
746.379,79.84492,-2.61424,-0.34888,0.6501
746.979,79.90589,-2.61294,-0.3495,0.64959
747.579,79.9672,-2.61289,-0.3473,0.64908
747.879,79.99804,-2.61429,-0.34885,0.64883