File: 01_Data/Lightweight_Gypsum_Wallboard_Painted_Paper/STA/N2/10K_min/Lightweight_Gypsum_Wallboard_Painted_Paper_STA_N2_10KData_222202_R2.csv
##Temp./Â°C,Time/min,Mass loss(subtr.2)/mg,DSC(subtr.2)/(mW/mg),Sensit./(uV/mW)
49.788,10.00917,-0.00867,0.02564091,1.07511
50.388,10.73118,-0.01470064,0.05170133,1.0748
50.988,10.9187,-0.01421918,0.07729514,1.07448
51.588,11.05994,-0.01761425,0.09235071,1.07417
52.188,11.1788,-0.01473167,0.11044,1.07386
52.788,11.28369,-0.01250614,0.12362,1.07355
53.388,11.3795,-0.01218657,0.13967,1.07323
53.988,11.46985,-0.00887314,0.14618,1.07292
54.588,11.55574,-0.01270149,0.15767,1.07261
55.188,11.638,-0.01139128,0.16381,1.0723
55.788,11.71735,-0.01160105,0.17228,1.07198
56.388,11.7941,-0.01041657,0.18086,1.07167
56.988,11.86952,-0.01571085,0.18791,1.07136
57.588,11.94288,-0.01923242,0.1936,1.07105
58.188,12.01493,-0.01506814,0.19977,1.07074
58.788,12.08563,-0.01249222,0.20135,1.07042
59.388,12.15519,-0.01190834,0.20848,1.07011
59.988,12.2243,-0.01414822,0.21458,1.0698
60.588,12.29293,-0.01456797,0.21754,1.06949
61.188,12.36117,-0.01458742,0.22125,1.06918
61.788,12.42867,-0.01458892,0.22539,1.06886
62.388,12.4954,-0.01529977,0.22779,1.06855
62.988,12.56195,-0.01426164,0.23285,1.06824
63.588,12.62831,-0.01246553,0.23404,1.06793
64.188,12.6944,-0.01292669,0.23794,1.06762
64.788,12.7606,-0.01418542,0.23872,1.06731
65.388,12.8263,-0.01282936,0.24007,1.067
65.988,12.89175,-0.01152,0.2428,1.06668
66.588,12.95689,-0.01283365,0.2445,1.06637
67.188,13.02165,-0.01303489,0.24918,1.06606
67.788,13.0866,-0.01415341,0.25024,1.06575
68.388,13.15119,-0.01283011,0.25201,1.06544
68.988,13.21595,-0.01286664,0.25408,1.06513
69.588,13.28023,-0.01414149,0.25711,1.06482
70.188,13.3445,-0.01547054,0.25867,1.06451
70.788,13.4088,-0.01641817,0.26224,1.0642
71.388,13.4728,-0.01535159,0.264,1.06389
71.988,13.5365,-0.01608732,0.26662,1.06357
72.588,13.5998,-0.01390374,0.26719,1.06326
73.188,13.6631,-0.01393733,0.27035,1.06295
73.788,13.72621,-0.01522627,0.27067,1.06264
74.388,13.7892,-0.01525001,0.27576,1.06233
74.988,13.8521,-0.01661999,0.27632,1.06202
75.588,13.91492,-0.01657001,0.27962,1.06171
76.188,13.9777,-0.01656563,0.28067,1.0614
76.788,14.04009,-0.01860661,0.28341,1.06109
77.388,14.1025,-0.01915142,0.28583,1.06078
77.988,14.16499,-0.01776901,0.2847,1.06047
78.588,14.22755,-0.02037454,0.28967,1.06016
79.188,14.29049,-0.0233551,0.2901,1.05985
79.788,14.3529,-0.0234001,0.29311,1.05954
80.388,14.4144,-0.02030258,0.2928,1.05923
80.988,14.4759,-0.02041363,0.29502,1.05892
81.588,14.5375,-0.0217212,0.29757,1.05861
82.188,14.59942,-0.02170498,0.29737,1.0583
82.788,14.66092,-0.02075218,0.29842,1.05799
83.388,14.7224,-0.02051558,0.29976,1.05768
83.988,14.7837,-0.02182789,0.30119,1.05737
84.588,14.8449,-0.02293129,0.30215,1.05706
85.188,14.9059,-0.02319372,0.30319,1.05675
85.788,14.96693,-0.02361589,0.3051,1.05644
86.388,15.02785,-0.02402065,0.30473,1.05614
86.988,15.0884,-0.02193368,0.30471,1.05583
87.588,15.1487,-0.02193,0.30625,1.05552
88.188,15.2087,-0.02192993,0.30888,1.05521
88.788,15.269,-0.02324404,0.30806,1.0549
89.388,15.3294,-0.02558165,0.30875,1.05459
89.988,15.38974,-0.02589003,0.31018,1.05428
90.588,15.4503,-0.02520301,0.31018,1.05397
91.188,15.51056,-0.02468638,0.30914,1.05366
91.788,15.57081,-0.02446014,0.30929,1.05335
92.388,15.6308,-0.02316822,0.30771,1.05305
92.988,15.69075,-0.02313475,0.30656,1.05274
93.588,15.7506,-0.02445986,0.30608,1.05243
94.188,15.8106,-0.02578438,0.30619,1.05212
94.788,15.8705,-0.02576599,0.30618,1.05181
95.388,15.9303,-0.02843237,0.30618,1.0515
95.988,15.99,-0.02969379,0.30562,1.05119
96.588,16.04961,-0.02676406,0.30702,1.05089
97.188,16.10928,-0.02676012,0.30545,1.05058
97.788,16.16881,-0.02543953,0.30511,1.05027
98.388,16.22832,-0.02672998,0.30232,1.04996
98.988,16.28758,-0.02807077,0.30535,1.04965
99.588,16.3467,-0.0294477,0.30491,1.04934
100.188,16.40608,-0.02940324,0.30452,1.04904
100.788,16.4654,-0.027927,0.3028,1.04873
101.388,16.52494,-0.02657619,0.30307,1.04842
101.988,16.5844,-0.02786043,0.30132,1.04811
102.588,16.64356,-0.02777615,0.3028,1.04781
103.188,16.70257,-0.02916981,0.3036,1.0475
103.788,16.7616,-0.02906906,0.30251,1.04719
104.388,16.8205,-0.02786031,0.30187,1.04688
104.988,16.87966,-0.02918189,0.30263,1.04657
105.588,16.9387,-0.02918025,0.30148,1.04627
106.188,16.99779,-0.03051334,0.30221,1.04596
106.788,17.0567,-0.03050001,0.30302,1.04565
107.388,17.11561,-0.03050004,0.30297,1.04534
107.988,17.17426,-0.03059244,0.30279,1.04504
108.588,17.23294,-0.02925349,0.30472,1.04473
109.188,17.29148,-0.02918128,0.3043,1.04442
109.788,17.3503,-0.0291799,0.30462,1.04412
110.388,17.40887,-0.0301344,0.30739,1.04381
110.988,17.46745,-0.0318057,0.30722,1.0435
111.588,17.5258,-0.03052713,0.30662,1.04319
112.188,17.58434,-0.0296221,0.30671,1.04289
112.788,17.64286,-0.02918011,0.30818,1.04258
113.388,17.70175,-0.02912938,0.3069,1.04227
113.988,17.76024,-0.03049272,0.30379,1.04197
114.588,17.81906,-0.03149657,0.30583,1.04166
115.188,17.87779,-0.03049925,0.30639,1.04135
115.788,17.93658,-0.03047284,0.30252,1.04105
116.388,17.9953,-0.03047916,0.30522,1.04074
116.988,18.05394,-0.0304909,0.3021,1.04043
117.588,18.1126,-0.03186164,0.30221,1.04013
118.188,18.17134,-0.03180405,0.30033,1.03982
118.788,18.23003,-0.03048849,0.29912,1.03952
119.388,18.28856,-0.03239012,0.30003,1.03921
119.988,18.34724,-0.03506663,0.29818,1.0389
120.588,18.40578,-0.03542116,0.3006,1.0386
121.188,18.46435,-0.03355209,0.29731,1.03829
121.788,18.52285,-0.03061365,0.29844,1.03798
122.388,18.58147,-0.03071997,0.29746,1.03768
122.988,18.64005,-0.03072393,0.29856,1.03737
123.588,18.6986,-0.03243734,0.29969,1.03707
124.188,18.757,-0.03312013,0.29889,1.03676
124.788,18.8154,-0.03312,0.2981,1.03645
125.388,18.87368,-0.0331206,0.29836,1.03615
125.988,18.93219,-0.03343663,0.29703,1.03584
126.588,18.99084,-0.03476605,0.29846,1.03554
127.188,19.04935,-0.03170612,0.29758,1.03523
127.788,19.1078,-0.03212704,0.29784,1.03493
128.388,19.1659,-0.03356838,0.29832,1.03462
128.988,19.224,-0.03365826,0.29776,1.03431
129.588,19.28184,-0.03203787,0.29861,1.03401
130.188,19.3401,-0.03092875,0.29792,1.0337
130.788,19.39846,-0.03224086,0.29824,1.0334
131.388,19.45658,-0.03224,0.30221,1.03309
131.988,19.515,-0.03224368,0.30136,1.03279
132.588,19.57313,-0.03098241,0.29862,1.03248
133.188,19.63131,-0.02829509,0.29889,1.03218
133.788,19.68958,-0.02830184,0.29948,1.03187
134.388,19.74785,-0.02958875,0.2991,1.03157
134.988,19.80613,-0.03132899,0.29881,1.03126
135.588,19.86439,-0.03378844,0.29872,1.03096
136.188,19.92256,-0.03499052,0.29996,1.03065
136.788,19.9807,-0.03498942,0.30162,1.03035
137.388,20.03879,-0.03368242,0.30264,1.03004
137.988,20.09681,-0.03323246,0.30088,1.02974
138.588,20.155,-0.033544,0.30237,1.02943
139.188,20.2131,-0.03237319,0.30312,1.02913
139.788,20.27113,-0.03202555,0.30261,1.02882
140.388,20.32919,-0.03203,0.30106,1.02852
140.988,20.38705,-0.03067479,0.30137,1.02821
141.588,20.4451,-0.02939149,0.30383,1.02791
142.188,20.50336,-0.02938697,0.30315,1.02761
142.788,20.5615,-0.0306959,0.30456,1.0273
143.388,20.6196,-0.03202696,0.3062,1.027
143.988,20.67728,-0.03474369,0.30489,1.02669
144.588,20.73498,-0.03629379,0.3062,1.02639
145.188,20.79299,-0.0375539,0.30707,1.02608
145.788,20.85141,-0.03443634,0.30554,1.02578
146.388,20.90942,-0.03116464,0.30917,1.02547
146.988,20.96751,-0.03115513,0.30677,1.02517
147.588,21.0252,-0.03246983,0.30774,1.02487
148.188,21.0832,-0.03311007,0.30853,1.02456
148.788,21.14087,-0.0324838,0.30784,1.02426
149.388,21.19869,-0.03247,0.30738,1.02395
149.988,21.25649,-0.03246966,0.30911,1.02365
150.588,21.3143,-0.03319493,0.30805,1.02335
151.188,21.3723,-0.0331193,0.3098,1.02304
151.788,21.43025,-0.03523811,0.31162,1.02274
152.388,21.48818,-0.0386228,0.31307,1.02243
152.988,21.54581,-0.04011493,0.31164,1.02213
153.588,21.6036,-0.04352989,0.31601,1.02183
154.188,21.66089,-0.03959458,0.31383,1.02152
154.788,21.71811,-0.03347491,0.31213,1.02122
155.388,21.77569,-0.0320302,0.31245,1.02092
155.988,21.83343,-0.03203,0.31364,1.02061
156.588,21.89153,-0.03203096,0.31507,1.02031
157.188,21.94959,-0.03300706,0.3172,1.02
157.788,22.00729,-0.03169864,0.31594,1.0197
158.388,22.0648,-0.03169996,0.31563,1.0194
158.988,22.1222,-0.03164196,0.31664,1.01909
159.588,22.17967,-0.03304176,0.31924,1.01879
160.188,22.23722,-0.03466091,0.31774,1.01849
160.788,22.29491,-0.03466,0.31923,1.01818
161.388,22.3527,-0.03466,0.32237,1.01788
161.988,22.41011,-0.03466161,0.3207,1.01758
162.588,22.46772,-0.0349907,0.32122,1.01727
163.188,22.5254,-0.03499,0.32372,1.01697
163.788,22.58286,-0.03498407,0.32261,1.01667
164.388,22.6405,-0.03629884,0.32179,1.01636
164.988,22.6983,-0.03630106,0.3244,1.01606
165.588,22.75599,-0.03597529,0.32545,1.01576
166.188,22.81381,-0.03466181,0.32482,1.01546
166.788,22.87131,-0.0346568,0.3279,1.01515
167.388,22.9285,-0.03690273,0.32866,1.01485
167.988,22.98593,-0.03728877,0.32771,1.01455
168.588,23.0435,-0.0369248,0.32936,1.01424
169.188,23.10118,-0.03728993,0.33059,1.01394
169.788,23.15867,-0.03728745,0.32879,1.01364
170.388,23.21637,-0.03695796,0.33132,1.01333
170.988,23.274,-0.03729256,0.3317,1.01303
171.588,23.33164,-0.03687937,0.33262,1.01273
172.188,23.3892,-0.03729755,0.33288,1.01243
172.788,23.44674,-0.03730004,0.33401,1.01212
173.388,23.50427,-0.03729999,0.33435,1.01182
173.988,23.56172,-0.03728682,0.33677,1.01152
174.588,23.6191,-0.03597995,0.33576,1.01121
175.188,23.67651,-0.03466818,0.33702,1.01091
175.788,23.73384,-0.03598658,0.33752,1.01061
176.388,23.7913,-0.03598,0.33762,1.01031
176.988,23.84864,-0.03598,0.33601,1.01
177.588,23.9059,-0.03598013,0.33826,1.0097
178.188,23.9633,-0.03633732,0.3378,1.0094
178.788,24.02072,-0.03734952,0.34008,1.0091
179.388,24.07799,-0.0386237,0.34171,1.00879
179.988,24.1356,-0.04172709,0.33966,1.00849
180.588,24.193,-0.04386585,0.34208,1.00819
181.188,24.25023,-0.04389902,0.34392,1.00788
181.788,24.30767,-0.0423162,0.34001,1.00758
182.388,24.36501,-0.04030578,0.34243,1.00728
182.988,24.42239,-0.04025523,0.34303,1.00698
183.588,24.47973,-0.04288154,0.3433,1.00667
184.188,24.5372,-0.04289004,0.3458,1.00637
184.788,24.59447,-0.04200318,0.34204,1.00607
185.388,24.65183,-0.04158112,0.34558,1.00577
185.988,24.70938,-0.04289108,0.34366,1.00546
186.588,24.76669,-0.04157669,0.34556,1.00516
187.188,24.8241,-0.04298106,0.3447,1.00486
187.788,24.88136,-0.04272555,0.34741,1.00456
188.388,24.93844,-0.0415774,0.34868,1.00426
188.988,24.99595,-0.04091879,0.34793,1.00395
189.588,25.05347,-0.04092158,0.3484,1.00365
190.188,25.1113,-0.04223409,0.34977,1.00335
190.788,25.1688,-0.04354327,0.34798,1.00305
191.388,25.22569,-0.04354001,0.34973,1.00274
191.988,25.28295,-0.04354038,0.3504,1.00244
192.588,25.3401,-0.04421682,0.35231,1.00214
193.188,25.39757,-0.04551983,0.35012,1.00184
193.788,25.45525,-0.04460264,0.34856,1.00153
194.388,25.5127,-0.04662145,0.35373,1.00123
194.988,25.57037,-0.04888065,0.3527,1.00093
195.588,25.62735,-0.04784183,0.3541,1.00063
196.188,25.68479,-0.04655838,0.35545,1.00032
196.788,25.74246,-0.04514058,0.35263,1.00002
197.388,25.8,-0.04388559,0.35521,0.99972
197.988,25.85791,-0.04388,0.35412,0.99942
198.588,25.91535,-0.04388,0.35453,0.99912
199.188,25.97277,-0.04388001,0.35393,0.99881
199.788,26.03019,-0.04388368,0.35331,0.99851
200.388,26.08772,-0.04487632,0.35469,0.99821
200.988,26.1452,-0.04637783,0.35537,0.99791
201.588,26.20262,-0.04649996,0.35807,0.9976
202.188,26.26002,-0.04650241,0.3584,0.9973
202.788,26.3174,-0.04912453,0.35806,0.997
203.388,26.3747,-0.04914471,0.35899,0.9967
203.988,26.4322,-0.04929618,0.35957,0.9964
204.588,26.4895,-0.04947,0.35995,0.99609
205.188,26.5466,-0.04947,0.36017,0.99579
205.788,26.6038,-0.04947,0.36218,0.99549
206.388,26.661,-0.04946672,0.36312,0.99519
206.988,26.7182,-0.04909172,0.3652,0.99488
207.588,26.77549,-0.05145566,0.36761,0.99458
208.188,26.83287,-0.05142171,0.36726,0.99428
208.788,26.8903,-0.05022995,0.3652,0.99398
209.388,26.94763,-0.05064819,0.36886,0.99367
209.988,27.0052,-0.05468026,0.36836,0.99337
210.588,27.06243,-0.05734497,0.36836,0.99307
211.188,27.1198,-0.05736989,0.36738,0.99277
211.788,27.1772,-0.05896437,0.3702,0.99247
212.388,27.2344,-0.05951416,0.36873,0.99216
212.988,27.29168,-0.05738219,0.3699,0.99186
213.588,27.34893,-0.05703864,0.37201,0.99156
214.188,27.4063,-0.05749816,0.3726,0.99126
214.788,27.46365,-0.05802302,0.37024,0.99095
215.388,27.521,-0.05752994,0.37205,0.99065
215.988,27.57834,-0.05803003,0.37403,0.99035
216.588,27.6357,-0.0579775,0.37541,0.99005
217.188,27.69313,-0.05933903,0.37393,0.98974
217.788,27.7506,-0.05934049,0.37643,0.98944
218.388,27.8079,-0.06065371,0.37506,0.98914
218.988,27.86535,-0.06187733,0.37825,0.98884
219.588,27.92282,-0.06358771,0.37772,0.98853
220.188,27.9802,-0.06360747,0.37867,0.98823
220.788,28.03742,-0.06363108,0.37851,0.98793
221.388,28.0948,-0.06447156,0.37866,0.98763
221.988,28.15205,-0.06526892,0.37848,0.98732
222.588,28.20952,-0.06393856,0.37937,0.98702
223.188,28.26632,-0.06448473,0.37982,0.98672
223.788,28.32367,-0.06422816,0.38138,0.98642
224.388,28.38085,-0.06537018,0.38304,0.98611
224.988,28.4382,-0.06537347,0.3835,0.98581
225.588,28.49588,-0.06406121,0.38359,0.98551
226.188,28.55315,-0.06398313,0.38609,0.98521
226.788,28.6104,-0.06538023,0.38531,0.9849
227.388,28.66785,-0.06801627,0.38822,0.9846
227.988,28.7252,-0.06887651,0.38888,0.9843
228.588,28.78245,-0.07183465,0.38935,0.98399
229.188,28.8399,-0.07327274,0.38821,0.98369
229.788,28.89718,-0.07327498,0.38954,0.98339
230.388,28.95441,-0.07603656,0.38945,0.98309
230.988,29.0116,-0.07848267,0.39016,0.98278
231.588,29.0689,-0.07894478,0.38982,0.98248
232.188,29.12613,-0.07996055,0.39101,0.98218
232.788,29.18351,-0.07891639,0.39084,0.98187
233.388,29.2407,-0.0785401,0.39222,0.98157
233.988,29.29812,-0.07978079,0.3942,0.98127
234.588,29.3555,-0.07985279,0.39146,0.98096
235.188,29.4129,-0.08254922,0.39099,0.98066
235.788,29.47035,-0.08249001,0.39328,0.98036
236.388,29.5278,-0.08248561,0.39107,0.98006
236.988,29.5852,-0.08381037,0.38788,0.97975
237.588,29.6427,-0.08509413,0.38757,0.97945
238.188,29.70004,-0.08511528,0.38916,0.97915
238.788,29.75735,-0.08705038,0.38799,0.97884
239.388,29.8147,-0.08895529,0.39028,0.97854
239.988,29.872,-0.08918024,0.3884,0.97824
240.588,29.92936,-0.08817833,0.38791,0.97793
241.188,29.98661,-0.08819176,0.38851,0.97763
241.788,30.04393,-0.09034817,0.3896,0.97733
242.388,30.10117,-0.09082989,0.39044,0.97702
242.988,30.1585,-0.09082867,0.38963,0.97672
243.588,30.2158,-0.09213115,0.38919,0.97641
244.188,30.27304,-0.09118372,0.38787,0.97611
244.788,30.3304,-0.0929031,0.39006,0.97581
245.388,30.3878,-0.09479412,0.39021,0.9755
245.988,30.4451,-0.09615494,0.39178,0.9752
246.588,30.5025,-0.09777301,0.39302,0.9749
247.188,30.55985,-0.1003,0.38929,0.97459
247.788,30.6171,-0.1014,0.39249,0.97429
248.388,30.67427,-0.10157,0.39184,0.97398
248.988,30.7314,-0.10173,0.39073,0.97368
249.588,30.78874,-0.10452,0.39109,0.97338
250.188,30.846,-0.10308,0.39387,0.97307
250.788,30.90325,-0.10607,0.39337,0.97277
251.388,30.9606,-0.10728,0.39395,0.97246
251.988,31.0179,-0.10876,0.39491,0.97216
252.588,31.0754,-0.10876,0.39315,0.97186
253.188,31.1331,-0.11111,0.39652,0.97155
253.788,31.1905,-0.11276,0.3957,0.97125
254.388,31.2477,-0.11276,0.39785,0.97094
254.988,31.30507,-0.11408,0.39779,0.97064
255.588,31.3625,-0.11567,0.39716,0.97033
256.188,31.41987,-0.11607,0.39879,0.97003
256.788,31.47715,-0.11737,0.39802,0.96972
257.388,31.5343,-0.11728,0.4013,0.96942
257.988,31.59164,-0.11869,0.39827,0.96911
258.588,31.6491,-0.11902,0.40237,0.96881
259.188,31.7066,-0.12243,0.40392,0.9685
259.788,31.76445,-0.12531,0.40137,0.9682
260.388,31.82177,-0.12799,0.40182,0.96789
260.988,31.8793,-0.13196,0.4039,0.96759
261.588,31.9368,-0.13332,0.40233,0.96728
262.188,31.9941,-0.13325,0.40384,0.96698
262.788,32.05157,-0.13186,0.40563,0.96667
263.388,32.10873,-0.13388,0.40599,0.96637
263.988,32.1663,-0.13698,0.40633,0.96606
264.588,32.22377,-0.14047,0.40878,0.96576
265.188,32.28144,-0.14324,0.40644,0.96545
265.788,32.3392,-0.14566,0.40752,0.96515
266.388,32.39682,-0.14797,0.41058,0.96484
266.988,32.4542,-0.14798,0.40894,0.96454
267.588,32.5118,-0.14795,0.40846,0.96423
268.188,32.56924,-0.14929,0.40903,0.96392
268.788,32.6269,-0.15063,0.40908,0.96362
269.388,32.6845,-0.15263,0.41109,0.96331
269.988,32.7419,-0.15503,0.41191,0.96301
270.588,32.79919,-0.15718,0.41481,0.9627
271.188,32.85673,-0.16068,0.41486,0.96239
271.788,32.9144,-0.16281,0.41708,0.96209
272.388,32.97205,-0.16406,0.41831,0.96178
272.988,33.02952,-0.1685,0.42079,0.96148
273.588,33.08709,-0.16996,0.41967,0.96117
274.188,33.1445,-0.17264,0.42487,0.96086
274.788,33.2021,-0.17326,0.42368,0.96056
275.388,33.25967,-0.17398,0.42468,0.96025
275.988,33.31715,-0.17693,0.42692,0.95994
276.588,33.37478,-0.18332,0.4293,0.95964
277.188,33.43213,-0.19031,0.43146,0.95933
277.788,33.48969,-0.19669,0.43221,0.95902
278.388,33.5473,-0.20061,0.43543,0.95872
278.988,33.60483,-0.20317,0.43724,0.95841
279.588,33.6625,-0.20492,0.4355,0.9581
280.188,33.72015,-0.20738,0.43925,0.95779
280.788,33.77767,-0.20764,0.44092,0.95749
281.388,33.83505,-0.20876,0.44392,0.95718
281.988,33.89203,-0.20908,0.44498,0.95687
282.588,33.9493,-0.21324,0.4479,0.95656
283.188,34.00673,-0.21948,0.44962,0.95626
283.788,34.06432,-0.22413,0.45066,0.95595
284.388,34.12262,-0.22567,0.45165,0.95564
284.988,34.18012,-0.22734,0.45531,0.95533
285.588,34.23761,-0.23197,0.45773,0.95502
286.188,34.29506,-0.23829,0.4605,0.95472
286.788,34.3524,-0.24379,0.45984,0.95441
287.388,34.4099,-0.24511,0.4614,0.9541
287.988,34.4672,-0.24957,0.46157,0.95379
288.588,34.5244,-0.25189,0.46313,0.95348
289.188,34.58169,-0.25356,0.47033,0.95317
289.788,34.63885,-0.25577,0.46803,0.95287
290.388,34.69637,-0.26171,0.47493,0.95256
290.988,34.75358,-0.26795,0.4755,0.95225
291.588,34.8111,-0.27103,0.47699,0.95194
292.188,34.86855,-0.27372,0.47926,0.95163
292.788,34.92654,-0.27804,0.48449,0.95132
293.388,34.98468,-0.28425,0.48662,0.95101
293.988,35.04274,-0.29301,0.48787,0.9507
294.588,35.1006,-0.29807,0.48956,0.95039
295.188,35.158,-0.30138,0.49181,0.95008
295.788,35.21542,-0.3031,0.49444,0.94977
296.388,35.27284,-0.30768,0.49623,0.94947
296.988,35.33034,-0.31318,0.49865,0.94916
297.588,35.388,-0.31974,0.50253,0.94885
298.188,35.4456,-0.32764,0.50489,0.94854
298.788,35.50335,-0.33328,0.50727,0.94823
299.388,35.5608,-0.3366,0.50982,0.94792
299.988,35.61851,-0.34007,0.50968,0.94761
300.588,35.6761,-0.34452,0.51319,0.94729
301.188,35.73382,-0.34972,0.51603,0.94698
301.788,35.79142,-0.3534,0.51785,0.94667
302.388,35.84903,-0.35931,0.51962,0.94636
302.988,35.90683,-0.36627,0.52425,0.94605
303.588,35.96457,-0.3739,0.52616,0.94574
304.188,36.02245,-0.3815,0.52896,0.94543
304.788,36.08013,-0.38996,0.52929,0.94512
305.388,36.13765,-0.39856,0.5368,0.94481
305.988,36.19543,-0.40532,0.53885,0.9445
306.588,36.25314,-0.40887,0.54021,0.94418
307.188,36.3108,-0.41497,0.54465,0.94387
307.788,36.36857,-0.42079,0.54293,0.94356
308.388,36.42627,-0.42771,0.54669,0.94325
308.988,36.48406,-0.4317,0.55069,0.94294
309.588,36.54207,-0.43949,0.55258,0.94263
310.188,36.59995,-0.44361,0.55531,0.94231
310.788,36.65784,-0.45127,0.556,0.942
311.388,36.7156,-0.46399,0.56063,0.94169
311.988,36.77349,-0.46872,0.56178,0.94138
312.588,36.8313,-0.47387,0.56576,0.94106
313.188,36.88924,-0.47814,0.56811,0.94075
313.788,36.9471,-0.48961,0.57021,0.94044
314.388,37.00492,-0.49764,0.57069,0.94013
314.988,37.06286,-0.50107,0.57594,0.93981
315.588,37.12107,-0.50832,0.57906,0.9395
316.188,37.1792,-0.51958,0.58248,0.93919
316.788,37.2372,-0.53055,0.58588,0.93887
317.388,37.29517,-0.53749,0.58538,0.93856
317.988,37.35305,-0.54119,0.59072,0.93825
318.588,37.4112,-0.54937,0.59371,0.93793
319.188,37.46926,-0.55744,0.59507,0.93762
319.788,37.52724,-0.56535,0.59933,0.9373
320.388,37.58525,-0.57779,0.60327,0.93699
320.988,37.6432,-0.58722,0.60377,0.93667
321.588,37.7012,-0.59418,0.60995,0.93636
322.188,37.75907,-0.60195,0.61221,0.93605
322.788,37.81698,-0.60969,0.61898,0.93573
323.388,37.8748,-0.61991,0.62225,0.93542
323.988,37.93267,-0.63079,0.62727,0.9351
324.588,37.9906,-0.63533,0.62918,0.93479
325.188,38.04875,-0.64529,0.63631,0.93447
325.788,38.107,-0.65944,0.63888,0.93416
326.388,38.1652,-0.67033,0.64489,0.93384
326.988,38.22345,-0.68017,0.64997,0.93352
327.588,38.28138,-0.68835,0.65233,0.93321
328.188,38.3392,-0.69674,0.65781,0.93289
328.788,38.39707,-0.70732,0.66304,0.93258
329.388,38.45508,-0.71899,0.66977,0.93226
329.988,38.51316,-0.72912,0.67367,0.93194
330.588,38.57116,-0.73888,0.67849,0.93163
331.188,38.6289,-0.7479,0.68476,0.93131
331.788,38.68691,-0.75781,0.69065,0.93099
332.388,38.74478,-0.76809,0.69725,0.93068
332.988,38.80273,-0.77793,0.70138,0.93036
333.588,38.86112,-0.79149,0.70955,0.93004
334.188,38.91923,-0.8051,0.71642,0.92973
334.788,38.9773,-0.81894,0.72211,0.92941
335.388,39.03557,-0.83115,0.73141,0.92909
335.988,39.09367,-0.84178,0.7398,0.92877
336.588,39.1519,-0.8547,0.74741,0.92846
337.188,39.21017,-0.86812,0.75529,0.92814
337.788,39.2682,-0.88094,0.76168,0.92782
338.388,39.3264,-0.8968,0.77134,0.9275
338.988,39.38445,-0.91345,0.77798,0.92718
339.588,39.44265,-0.92757,0.78773,0.92686
340.188,39.5008,-0.93882,0.79967,0.92654
340.788,39.55903,-0.95237,0.80651,0.92623
341.388,39.61732,-0.96601,0.8125,0.92591
341.988,39.67542,-0.97956,0.82226,0.92559
342.588,39.73359,-0.99555,0.83181,0.92527
343.188,39.79187,-1.01187,0.83952,0.92495
343.788,39.84993,-1.02864,0.84929,0.92463
344.388,39.90802,-1.04446,0.85678,0.92431
344.988,39.96617,-1.06099,0.86428,0.92399
345.588,40.0244,-1.07888,0.87258,0.92367
346.188,40.0827,-1.09717,0.88352,0.92335
346.788,40.14076,-1.11205,0.88942,0.92303
347.388,40.19891,-1.12979,0.89669,0.92271
347.988,40.2569,-1.14612,0.90256,0.92239
348.588,40.31508,-1.1628,0.91084,0.92207
349.188,40.37331,-1.1824,0.9159,0.92174
349.788,40.43162,-1.19894,0.9207,0.92142
350.388,40.48997,-1.21712,0.92677,0.9211
350.988,40.5484,-1.23669,0.93272,0.92078
351.588,40.60657,-1.25587,0.93238,0.92046
352.188,40.66485,-1.27278,0.93622,0.92014
352.788,40.72292,-1.29178,0.93759,0.91981
353.388,40.78105,-1.31,0.9393,0.91949
353.988,40.8393,-1.32582,0.93817,0.91917
354.588,40.8974,-1.34398,0.93663,0.91885
355.188,40.9557,-1.36356,0.9353,0.91852
355.788,41.01383,-1.3852,0.93124,0.9182
356.388,41.07208,-1.40103,0.92362,0.91788
356.988,41.13047,-1.41831,0.91752,0.91755
357.588,41.18882,-1.43653,0.91403,0.91723
358.188,41.247,-1.45823,0.90596,0.91691
358.788,41.30508,-1.47379,0.89437,0.91658
359.388,41.36323,-1.4915,0.88361,0.91626
359.988,41.4212,-1.5068,0.87067,0.91594
360.588,41.47922,-1.52214,0.857,0.91561
361.188,41.5374,-1.53832,0.84426,0.91529
361.788,41.59538,-1.55556,0.82679,0.91496
362.388,41.65358,-1.57338,0.81176,0.91464
362.988,41.71165,-1.58866,0.79281,0.91431
363.588,41.76968,-1.60703,0.7778,0.91399
364.188,41.8279,-1.62196,0.75922,0.91366
364.788,41.88612,-1.63668,0.73633,0.91334
365.388,41.94433,-1.65,0.71491,0.91301
365.988,42.00241,-1.65907,0.69671,0.91268
366.588,42.06048,-1.66987,0.67606,0.91236
367.188,42.11843,-1.67974,0.6518,0.91203
367.788,42.1764,-1.69192,0.62991,0.91171
368.388,42.23451,-1.70467,0.60768,0.91138
368.988,42.29265,-1.71543,0.58441,0.91105
369.588,42.3508,-1.72616,0.56708,0.91072
370.188,42.40885,-1.73464,0.54603,0.9104
370.788,42.46662,-1.74216,0.52441,0.91007
371.388,42.5246,-1.7491,0.50285,0.90974
371.988,42.58278,-1.75729,0.48263,0.90941
372.588,42.64119,-1.76376,0.46643,0.90909
373.188,42.69954,-1.77248,0.45253,0.90876
373.788,42.75748,-1.77867,0.43587,0.90843
374.388,42.81541,-1.78301,0.42218,0.9081
374.988,42.8735,-1.78936,0.4118,0.90777
375.588,42.9317,-1.79591,0.40125,0.90744
376.188,42.98986,-1.80158,0.39088,0.90711
376.788,43.04817,-1.80709,0.38389,0.90679
377.388,43.1065,-1.81027,0.37639,0.90646
377.988,43.16499,-1.81467,0.37165,0.90613
378.588,43.2232,-1.81927,0.36781,0.9058
379.188,43.28152,-1.82252,0.36308,0.90547
379.788,43.3395,-1.82818,0.35993,0.90514
380.388,43.39788,-1.83015,0.36163,0.90481
380.988,43.45635,-1.83407,0.35773,0.90448
381.588,43.51489,-1.83757,0.35862,0.90414
382.188,43.57331,-1.84151,0.35776,0.90381
382.788,43.63167,-1.84418,0.3586,0.90348
383.388,43.69024,-1.84754,0.36189,0.90315
383.988,43.7487,-1.85364,0.36124,0.90282
384.588,43.80706,-1.85969,0.36142,0.90249
385.188,43.8653,-1.86658,0.36555,0.90215
385.788,43.92371,-1.87194,0.36777,0.90182
386.388,43.98214,-1.87516,0.36801,0.90149
386.988,44.04084,-1.87636,0.37136,0.90116
387.588,44.09924,-1.87894,0.3737,0.90082
388.188,44.15781,-1.88736,0.37573,0.90049
388.788,44.21606,-1.89572,0.37689,0.90016
389.388,44.27452,-1.90402,0.38061,0.89982
389.988,44.33274,-1.90907,0.38508,0.89949
390.588,44.39114,-1.91203,0.38528,0.89916
391.188,44.44978,-1.91603,0.38624,0.89882
391.788,44.5084,-1.92003,0.39301,0.89849
392.388,44.56694,-1.92495,0.39049,0.89815
392.988,44.62536,-1.93149,0.39369,0.89782
393.588,44.6841,-1.93778,0.39558,0.89748
394.188,44.74262,-1.94519,0.39768,0.89715
394.788,44.80108,-1.9536,0.40195,0.89681
395.388,44.85924,-1.95592,0.40343,0.89648
395.988,44.91748,-1.95775,0.40122,0.89614
396.588,44.9758,-1.9656,0.40416,0.89581
397.188,45.03437,-1.97542,0.40471,0.89547
397.788,45.09301,-1.98159,0.40158,0.89513
398.388,45.1515,-1.98682,0.40417,0.8948
398.988,45.21,-1.99486,0.40181,0.89446
399.588,45.26856,-2.00337,0.40221,0.89412
400.188,45.32713,-2.01459,0.40097,0.89379
400.788,45.38565,-2.02438,0.39987,0.89345
401.388,45.44424,-2.03067,0.39746,0.89311
401.988,45.50258,-2.03315,0.3978,0.89277
402.588,45.5608,-2.03765,0.39619,0.89243
403.188,45.61929,-2.03907,0.38929,0.8921
403.788,45.6777,-2.04637,0.38574,0.89176
404.388,45.7363,-2.05654,0.38043,0.89142
404.988,45.79488,-2.06155,0.3756,0.89108
405.588,45.85324,-2.06837,0.37348,0.89074
406.188,45.9116,-2.07713,0.36735,0.8904
406.788,45.97012,-2.08465,0.35838,0.89006
407.388,46.02876,-2.09123,0.35417,0.88972
407.988,46.08744,-2.09614,0.34534,0.88938
408.588,46.14601,-2.10114,0.34017,0.88904
409.188,46.2046,-2.10579,0.3314,0.8887
409.788,46.26318,-2.11319,0.32196,0.88836
410.388,46.32168,-2.12019,0.31269,0.88802
410.988,46.3802,-2.12623,0.30654,0.88767
411.588,46.43884,-2.12921,0.29724,0.88733
412.188,46.4974,-2.13439,0.28715,0.88699
412.788,46.55588,-2.13829,0.27877,0.88665
413.388,46.61438,-2.14211,0.27098,0.88631
413.988,46.67288,-2.14498,0.26112,0.88596
414.588,46.73131,-2.15016,0.25421,0.88562
415.188,46.78983,-2.15526,0.2467,0.88528
415.788,46.84851,-2.15878,0.24169,0.88494
416.388,46.9071,-2.1614,0.23474,0.88459
416.988,46.96581,-2.16417,0.22877,0.88425
417.588,47.02452,-2.16785,0.22563,0.8839
418.188,47.08335,-2.16907,0.22011,0.88356
418.788,47.14227,-2.17108,0.21855,0.88322
419.388,47.20111,-2.17494,0.21515,0.88287
419.988,47.25982,-2.17591,0.20925,0.88253
420.588,47.31804,-2.17674,0.20779,0.88218
421.188,47.37672,-2.17932,0.20789,0.88184
421.788,47.43548,-2.1807,0.20167,0.88149
422.388,47.4945,-2.1809,0.20102,0.88114
422.988,47.55324,-2.18131,0.20002,0.8808
423.588,47.612,-2.18266,0.1968,0.88045
424.188,47.67086,-2.18506,0.19522,0.8801
424.788,47.72972,-2.18658,0.19368,0.87976
425.388,47.78865,-2.18983,0.19446,0.87941
425.988,47.84755,-2.19503,0.19292,0.87906
426.588,47.90623,-2.1944,0.19206,0.87872
427.188,47.9649,-2.19202,0.19001,0.87837
427.788,48.0236,-2.19274,0.18871,0.87802
428.388,48.0824,-2.19995,0.19268,0.87767
428.988,48.1413,-2.20721,0.19203,0.87732
429.588,48.20006,-2.21178,0.19284,0.87697
430.188,48.25873,-2.21204,0.19163,0.87662
430.788,48.3174,-2.21055,0.19299,0.87628
431.388,48.37599,-2.20919,0.19124,0.87593
431.988,48.43482,-2.20914,0.19125,0.87558
432.588,48.49357,-2.21156,0.1905,0.87523
433.188,48.55239,-2.21451,0.19005,0.87488
433.788,48.6113,-2.21589,0.19202,0.87452
434.388,48.67018,-2.21721,0.19221,0.87417
434.988,48.72912,-2.21851,0.1935,0.87382
435.588,48.78792,-2.21975,0.19479,0.87347
436.188,48.84686,-2.21984,0.19288,0.87312
436.788,48.90583,-2.22011,0.19481,0.87277
437.388,48.9646,-2.21983,0.19375,0.87242
437.988,49.02348,-2.21975,0.18987,0.87206
438.588,49.0824,-2.22116,0.19141,0.87171
439.188,49.14127,-2.22303,0.19689,0.87136
439.788,49.20013,-2.22627,0.19419,0.871
440.388,49.25912,-2.22827,0.19287,0.87065
440.988,49.31797,-2.23285,0.19579,0.8703
441.588,49.3769,-2.23234,0.19548,0.86994
442.188,49.4357,-2.23365,0.19581,0.86959
442.788,49.4946,-2.23485,0.19507,0.86924
443.388,49.5535,-2.23596,0.1977,0.86888
443.988,49.61237,-2.23466,0.19444,0.86853
444.588,49.67131,-2.23038,0.19379,0.86817
445.188,49.73021,-2.22751,0.19374,0.86781
445.788,49.78941,-2.22672,0.19384,0.86746
446.388,49.84822,-2.23016,0.1946,0.8671
446.988,49.90741,-2.23437,0.19342,0.86675
447.588,49.96645,-2.24005,0.19208,0.86639
448.188,50.02558,-2.24429,0.19216,0.86603
448.788,50.0847,-2.24374,0.19241,0.86568
449.388,50.1436,-2.24385,0.19442,0.86532
449.988,50.20248,-2.24386,0.19588,0.86496
450.588,50.2614,-2.24386,0.19626,0.8646
451.188,50.3205,-2.24358,0.19461,0.86424
451.788,50.37947,-2.24363,0.19371,0.86389
452.388,50.43813,-2.24526,0.19523,0.86353
452.988,50.49665,-2.2449,0.19772,0.86317
453.588,50.55519,-2.24626,0.19436,0.86281
454.188,50.61391,-2.24758,0.19525,0.86245
454.788,50.67287,-2.24893,0.19518,0.86209
455.388,50.732,-2.25328,0.19586,0.86173
455.988,50.79085,-2.25461,0.19782,0.86137
456.588,50.84995,-2.25696,0.19411,0.86101
457.188,50.90898,-2.25754,0.19488,0.86065
457.788,50.96818,-2.25854,0.19515,0.86029
458.388,51.0274,-2.25857,0.19621,0.85993
458.988,51.0865,-2.25718,0.19457,0.85956
459.588,51.1458,-2.25442,0.19627,0.8592
460.188,51.20515,-2.25133,0.19437,0.85884
460.788,51.26441,-2.25124,0.19251,0.85848
461.388,51.32351,-2.25249,0.19228,0.85811
461.988,51.38261,-2.25426,0.1911,0.85775
462.588,51.4413,-2.25631,0.19203,0.85739
463.188,51.50045,-2.25815,0.19167,0.85702
463.788,51.55945,-2.26109,0.19115,0.85666
464.388,51.61844,-2.26306,0.19096,0.8563
464.988,51.67785,-2.26512,0.19206,0.85593
465.588,51.7369,-2.26512,0.19355,0.85557
466.188,51.7958,-2.26366,0.19395,0.8552
466.788,51.85491,-2.26216,0.19224,0.85484
467.388,51.9137,-2.26217,0.1923,0.85447
467.988,51.9728,-2.26217,0.19019,0.8541
468.588,52.03184,-2.26357,0.19244,0.85374
469.188,52.091,-2.2659,0.19437,0.85337
469.788,52.15033,-2.26612,0.19623,0.853
470.388,52.20962,-2.26612,0.19369,0.85264
470.988,52.26887,-2.26775,0.19546,0.85227
471.588,52.32828,-2.27258,0.19616,0.8519
472.188,52.38748,-2.27565,0.19516,0.85153
472.788,52.44676,-2.27862,0.19478,0.85117
473.388,52.50614,-2.27741,0.19604,0.8508
473.988,52.5654,-2.27596,0.19522,0.85043
474.588,52.62483,-2.27425,0.19193,0.85006
475.188,52.68408,-2.2728,0.19122,0.84969
475.788,52.74332,-2.27059,0.19122,0.84932
476.388,52.8026,-2.26855,0.19075,0.84895
476.988,52.86185,-2.27007,0.19193,0.84858
477.588,52.92125,-2.2727,0.19068,0.84821
478.188,52.9806,-2.27399,0.18956,0.84784
478.788,53.03997,-2.27665,0.18757,0.84747
479.388,53.0992,-2.27665,0.18837,0.8471
479.988,53.1585,-2.27489,0.18635,0.84673
480.588,53.21775,-2.27334,0.1867,0.84635
481.188,53.2771,-2.27335,0.18774,0.84598
481.788,53.3364,-2.2735,0.18606,0.84561
482.388,53.39564,-2.2753,0.18681,0.84524
482.988,53.45476,-2.27607,0.18892,0.84486
483.588,53.51401,-2.27879,0.19113,0.84449
484.188,53.57326,-2.28014,0.18908,0.84412
484.788,53.63276,-2.28254,0.18991,0.84374
485.388,53.69206,-2.28145,0.19128,0.84337
485.988,53.7512,-2.27994,0.1902,0.84299
486.588,53.81025,-2.28135,0.18874,0.84262
487.188,53.8694,-2.28267,0.18917,0.84224
487.788,53.9286,-2.28021,0.18976,0.84187
488.388,53.9878,-2.28079,0.18557,0.84149
488.988,54.04704,-2.28409,0.18912,0.84112
489.588,54.10617,-2.2841,0.19073,0.84074
490.188,54.1654,-2.28673,0.19142,0.84036
490.788,54.2246,-2.28807,0.18874,0.83998
491.388,54.28383,-2.28795,0.18898,0.83961
491.988,54.3432,-2.28805,0.19108,0.83923
492.588,54.40269,-2.28846,0.18749,0.83885
493.188,54.46204,-2.28952,0.18847,0.83847
493.788,54.52114,-2.28851,0.18844,0.8381
494.388,54.5805,-2.2898,0.18786,0.83772
494.988,54.63984,-2.28981,0.19093,0.83734
495.588,54.69955,-2.28981,0.19322,0.83696
496.188,54.75865,-2.28792,0.19812,0.83658
496.788,54.81794,-2.28937,0.19999,0.8362
497.388,54.87719,-2.29388,0.20184,0.83582
497.988,54.9366,-2.29551,0.20569,0.83544
498.588,54.99584,-2.29552,0.20733,0.83506
499.188,55.055,-2.29049,0.20454,0.83467
499.788,55.1143,-2.28956,0.20563,0.83429
500.388,55.17355,-2.28927,0.20675,0.83391
500.988,55.2328,-2.28941,0.20982,0.83353
501.588,55.2919,-2.2915,0.20927,0.83315
502.188,55.3511,-2.29265,0.20805,0.83276
502.788,55.4105,-2.29127,0.20808,0.83238
503.388,55.46982,-2.29068,0.20694,0.832
503.988,55.52906,-2.29068,0.20705,0.83161
504.588,55.5883,-2.2916,0.21073,0.83123
505.188,55.64759,-2.29332,0.20896,0.83085
505.788,55.70729,-2.29464,0.20589,0.83046
506.388,55.7669,-2.29464,0.2093,0.83008
506.988,55.82639,-2.29332,0.20971,0.82969
507.588,55.8858,-2.29463,0.20892,0.82931
508.188,55.94515,-2.29585,0.21073,0.82892
508.788,56.00439,-2.29815,0.2104,0.82853
509.388,56.0638,-2.29994,0.21018,0.82815
509.988,56.1231,-2.2997,0.21191,0.82776
510.588,56.1828,-2.30001,0.21116,0.82737
511.188,56.2423,-2.30079,0.21016,0.82699
511.788,56.30174,-2.29975,0.21139,0.8266
512.388,56.3613,-2.29738,0.20763,0.82621
512.988,56.42063,-2.2987,0.2101,0.82582
513.588,56.47995,-2.29943,0.21093,0.82543
514.188,56.53935,-2.30001,0.21034,0.82504
514.788,56.5987,-2.30033,0.21107,0.82465
515.388,56.65795,-2.30135,0.21184,0.82426
515.988,56.71747,-2.31007,0.21336,0.82387
516.588,56.7772,-2.31251,0.20986,0.82348
517.188,56.83693,-2.30939,0.21251,0.82309
517.788,56.89669,-2.30442,0.2073,0.8227
518.388,56.9563,-2.29839,0.20749,0.82231
518.988,57.01599,-2.29956,0.20628,0.82192
519.588,57.07555,-2.30371,0.20715,0.82153
520.188,57.13495,-2.30647,0.20461,0.82114
520.788,57.1944,-2.30637,0.20648,0.82074
521.388,57.254,-2.30502,0.20276,0.82035
521.988,57.3137,-2.30374,0.20393,0.81996
522.588,57.37327,-2.30374,0.20541,0.81956
523.188,57.4327,-2.30374,0.20316,0.81917
523.788,57.49208,-2.30253,0.19838,0.81878
524.388,57.5514,-2.30429,0.19684,0.81838
524.988,57.6111,-2.30652,0.1937,0.81799
525.588,57.67066,-2.30695,0.18808,0.81759
526.188,57.73039,-2.3091,0.18993,0.8172
526.788,57.79003,-2.31043,0.18467,0.8168
527.388,57.84964,-2.31043,0.18669,0.8164
527.988,57.90939,-2.31043,0.18724,0.81601
528.588,57.9691,-2.31175,0.18328,0.81561
529.188,58.0285,-2.30948,0.18183,0.81521
529.788,58.08797,-2.30944,0.18359,0.81482
530.388,58.14741,-2.30955,0.17895,0.81442
530.988,58.20706,-2.30898,0.1791,0.81402
531.588,58.26716,-2.30944,0.17972,0.81362
532.188,58.32685,-2.3094,0.17934,0.81323
532.788,58.3865,-2.31081,0.17745,0.81283
533.388,58.44619,-2.30799,0.17842,0.81243
533.988,58.50591,-2.30769,0.17453,0.81203
534.588,58.5658,-2.30761,0.17592,0.81163
535.188,58.62582,-2.31046,0.17579,0.81123
535.788,58.6857,-2.31143,0.17364,0.81083
536.388,58.7453,-2.31175,0.17295,0.81043
536.988,58.8049,-2.31302,0.17349,0.81003
537.588,58.86452,-2.31466,0.17222,0.80962
538.188,58.92428,-2.31698,0.17085,0.80922
538.788,58.9842,-2.31607,0.17016,0.80882
539.388,59.04405,-2.3141,0.17054,0.80842
539.988,59.1038,-2.31362,0.16871,0.80801
540.588,59.1635,-2.31492,0.16708,0.80761
541.188,59.2227,-2.31492,0.16595,0.80721
541.788,59.2826,-2.31488,0.16597,0.8068
542.388,59.3425,-2.31489,0.1649,0.8064
542.988,59.40295,-2.31492,0.16423,0.806
543.588,59.4633,-2.31452,0.15932,0.80559
544.188,59.52336,-2.31159,0.16136,0.80519
544.788,59.5828,-2.31411,0.15929,0.80478
545.388,59.6424,-2.31568,0.16037,0.80437
545.988,59.70191,-2.31678,0.15711,0.80397
546.588,59.76144,-2.31921,0.15618,0.80356
547.188,59.8215,-2.31923,0.15461,0.80316
547.788,59.88188,-2.31854,0.15404,0.80275
548.388,59.94265,-2.3185,0.15599,0.80234
548.988,60.0033,-2.31986,0.15308,0.80193
549.588,60.0637,-2.31852,0.15168,0.80153
550.188,60.1238,-2.31591,0.15159,0.80112
550.788,60.18375,-2.31591,0.15064,0.80071
551.388,60.2438,-2.31591,0.14877,0.8003
551.988,60.30384,-2.31591,0.14815,0.79989
552.588,60.3637,-2.31731,0.14707,0.79948
553.188,60.42366,-2.31886,0.14829,0.79907
553.788,60.48364,-2.32109,0.14983,0.79866
554.388,60.54364,-2.32131,0.14767,0.79825
554.988,60.6036,-2.32373,0.14803,0.79784
555.588,60.6636,-2.32403,0.15013,0.79743
556.188,60.7233,-2.32267,0.14703,0.79702
556.788,60.78305,-2.32103,0.14714,0.7966
557.388,60.8428,-2.31798,0.1446,0.79619
557.988,60.9025,-2.31851,0.14528,0.79578
558.588,60.96227,-2.3202,0.14649,0.79537
559.188,61.02211,-2.32151,0.14779,0.79495
559.788,61.0819,-2.32163,0.14738,0.79454
560.388,61.1419,-2.32371,0.14782,0.79412
560.988,61.2018,-2.32414,0.14889,0.79371
561.588,61.2617,-2.32684,0.14666,0.7933
562.188,61.32144,-2.32668,0.14768,0.79288
562.788,61.381,-2.32809,0.14876,0.79247
563.388,61.4408,-2.32538,0.14765,0.79205
563.988,61.5003,-2.32228,0.14882,0.79163
564.588,61.5601,-2.32066,0.14511,0.79122
565.188,61.62,-2.32008,0.14778,0.7908
565.788,61.68,-2.32011,0.14766,0.79038
566.388,61.7399,-2.32151,0.14603,0.78997
566.988,61.79956,-2.32151,0.14894,0.78955
567.588,61.8591,-2.32249,0.14984,0.78913
568.188,61.91891,-2.32567,0.14883,0.78871
568.788,61.9788,-2.32567,0.14656,0.78829
569.388,62.03898,-2.32251,0.14858,0.78788
569.988,62.0986,-2.31986,0.14891,0.78746
570.588,62.15851,-2.31983,0.14562,0.78704
571.188,62.2185,-2.32118,0.15122,0.78662
571.788,62.27839,-2.32245,0.14964,0.7862
572.388,62.33856,-2.32287,0.15124,0.78578
572.988,62.39846,-2.32343,0.15293,0.78535
573.588,62.4586,-2.32414,0.15382,0.78493
574.188,62.5187,-2.32547,0.15216,0.78451
574.788,62.57886,-2.32678,0.15397,0.78409
575.388,62.63879,-2.32808,0.15752,0.78367
575.988,62.69859,-2.33026,0.15347,0.78324
576.588,62.7584,-2.32963,0.1548,0.78282
577.188,62.8185,-2.32963,0.15763,0.7824
577.788,62.8786,-2.32963,0.15506,0.78197
578.388,62.9388,-2.32933,0.15851,0.78155
578.988,62.99899,-2.32963,0.15809,0.78113
579.588,63.05905,-2.32689,0.15761,0.7807
580.188,63.1192,-2.32435,0.15649,0.78028
580.788,63.17929,-2.32601,0.15485,0.77985
581.388,63.2396,-2.32831,0.15772,0.77943
581.988,63.29979,-2.33077,0.15728,0.779
582.588,63.35985,-2.33106,0.16076,0.77857
583.188,63.42004,-2.33072,0.15847,0.77815
583.788,63.4802,-2.33064,0.159,0.77772
584.388,63.5405,-2.3281,0.15921,0.77729
584.988,63.60082,-2.32677,0.15961,0.77686
585.588,63.6611,-2.32685,0.15951,0.77644
586.188,63.7215,-2.32819,0.15965,0.77601
586.788,63.7818,-2.33081,0.16263,0.77558
587.388,63.84165,-2.33071,0.16193,0.77515
587.988,63.9019,-2.32798,0.16251,0.77472
588.588,63.9622,-2.32646,0.16128,0.77429
589.188,64.0227,-2.32856,0.16289,0.77386
589.788,64.08305,-2.33048,0.1622,0.77343
590.388,64.14322,-2.33047,0.16443,0.773
590.988,64.20348,-2.32919,0.16858,0.77257
591.588,64.26354,-2.32919,0.16624,0.77214
592.188,64.32349,-2.32919,0.1667,0.77171
592.788,64.38328,-2.32917,0.16652,0.77127
593.388,64.44318,-2.32786,0.16771,0.77084
593.988,64.50313,-2.32992,0.16855,0.77041
594.588,64.56334,-2.33149,0.17119,0.76998
595.188,64.62354,-2.33424,0.17383,0.76954
595.788,64.68377,-2.33423,0.17443,0.76911
596.388,64.7439,-2.33423,0.17566,0.76868
596.988,64.80416,-2.33292,0.1762,0.76824
597.588,64.86417,-2.33291,0.17884,0.76781
598.188,64.92442,-2.33392,0.17773,0.76737
598.788,64.98445,-2.33423,0.18005,0.76694
599.388,65.04465,-2.3355,0.17879,0.7665
599.988,65.10505,-2.33555,0.18121,0.76606
600.588,65.16543,-2.33722,0.18346,0.76563
601.188,65.22604,-2.33818,0.18486,0.76519
601.788,65.28645,-2.33943,0.18828,0.76475
602.388,65.34689,-2.34072,0.18577,0.76432
602.988,65.4071,-2.34184,0.1862,0.76388
603.588,65.4673,-2.33845,0.18744,0.76344
604.188,65.5275,-2.33697,0.18843,0.763
604.788,65.58768,-2.33632,0.19013,0.76256
605.388,65.64779,-2.33912,0.19022,0.76212
605.988,65.70776,-2.3406,0.19134,0.76168
606.588,65.76779,-2.33801,0.19259,0.76125
607.188,65.82778,-2.33696,0.19645,0.76081
607.788,65.8877,-2.33565,0.19969,0.76036
608.388,65.9477,-2.33696,0.20114,0.75992
608.988,66.0078,-2.33913,0.20253,0.75948
609.588,66.0678,-2.34165,0.20236,0.75904
610.188,66.12785,-2.34289,0.20368,0.7586
610.788,66.18781,-2.33986,0.20076,0.75816
611.388,66.2478,-2.33376,0.20118,0.75772
611.988,66.3078,-2.33507,0.20422,0.75727
612.588,66.36805,-2.33634,0.20603,0.75683
613.188,66.42824,-2.33742,0.20785,0.75639
613.788,66.48854,-2.33871,0.21104,0.75594
614.388,66.5488,-2.34003,0.21232,0.7555
614.988,66.60857,-2.34005,0.21106,0.75505
615.588,66.66891,-2.34178,0.21664,0.75461
616.188,66.7291,-2.34487,0.21854,0.75416
616.788,66.78933,-2.34487,0.21715,0.75372
617.388,66.84966,-2.3459,0.21855,0.75327
617.988,66.90991,-2.34761,0.2207,0.75283
618.588,66.96982,-2.34761,0.22044,0.75238
619.188,67.03,-2.34858,0.22056,0.75193
619.788,67.09045,-2.34754,0.22643,0.75149
620.388,67.15075,-2.34442,0.22603,0.75104
620.988,67.21091,-2.34314,0.22724,0.75059
621.588,67.2712,-2.34624,0.22763,0.75014
622.188,67.3315,-2.34947,0.23219,0.74969
622.788,67.3917,-2.34992,0.23019,0.74925
623.388,67.45195,-2.34738,0.23092,0.7488
623.988,67.512,-2.34399,0.23391,0.74835
624.588,67.57219,-2.3409,0.23364,0.7479
625.188,67.63245,-2.33961,0.23552,0.74745
625.788,67.6927,-2.33934,0.23775,0.747
626.388,67.75325,-2.33925,0.23934,0.74655
626.988,67.81344,-2.34097,0.23971,0.7461
627.588,67.87361,-2.34194,0.24517,0.74564
628.188,67.93377,-2.34229,0.24377,0.74519
628.788,67.99393,-2.34615,0.24612,0.74474
629.388,68.05421,-2.3496,0.25048,0.74429
629.988,68.1143,-2.35426,0.25574,0.74383
630.588,68.17435,-2.35659,0.25438,0.74338
631.188,68.2346,-2.35996,0.25991,0.74293
631.788,68.2948,-2.36209,0.26285,0.74247
632.388,68.35525,-2.36053,0.2622,0.74202
632.988,68.41558,-2.35786,0.26473,0.74157
633.588,68.47599,-2.35726,0.26553,0.74111
634.188,68.53645,-2.35585,0.27117,0.74066
634.788,68.59685,-2.35597,0.27044,0.7402
635.388,68.65714,-2.35598,0.27138,0.73975
635.988,68.71744,-2.35934,0.27373,0.73929
636.588,68.77795,-2.36066,0.26986,0.73883
637.188,68.83841,-2.35653,0.27323,0.73838
637.788,68.89867,-2.35275,0.27349,0.73792
638.388,68.9593,-2.34948,0.27584,0.73746
638.988,69.0201,-2.34685,0.27945,0.737
639.588,69.08106,-2.3507,0.2789,0.73655
640.188,69.1418,-2.35508,0.28014,0.73609
640.788,69.20204,-2.35641,0.28433,0.73563
641.388,69.26249,-2.3594,0.28537,0.73517
641.988,69.32302,-2.36221,0.28699,0.73471
642.588,69.38337,-2.36096,0.28985,0.73425
643.188,69.44395,-2.3571,0.2891,0.73379
643.788,69.50429,-2.35944,0.29181,0.73333
644.388,69.56451,-2.36054,0.29254,0.73287
644.988,69.62481,-2.35906,0.29392,0.73241
645.588,69.68522,-2.35615,0.29382,0.73195
646.188,69.74563,-2.35852,0.29414,0.73149
646.788,69.80605,-2.35792,0.29379,0.73102
647.388,69.86619,-2.35872,0.29655,0.73056
647.988,69.9262,-2.36,0.29828,0.7301
648.588,69.9862,-2.36146,0.30057,0.72964
649.188,70.04624,-2.36398,0.30074,0.72917
649.788,70.10645,-2.36527,0.30099,0.72871
650.388,70.16681,-2.36525,0.30398,0.72825
650.988,70.22723,-2.36694,0.30477,0.72778
651.588,70.28761,-2.36691,0.30409,0.72732
652.188,70.34792,-2.36538,0.30124,0.72685
652.788,70.40818,-2.36532,0.30236,0.72639
653.388,70.4684,-2.36396,0.30532,0.72592
653.988,70.5287,-2.36489,0.30271,0.72546
654.588,70.58927,-2.36681,0.30151,0.72499
655.188,70.64952,-2.36946,0.30382,0.72452
655.788,70.7099,-2.36944,0.30172,0.72406
656.388,70.77023,-2.3709,0.29658,0.72359
656.988,70.83049,-2.37119,0.30199,0.72312
657.588,70.89069,-2.37372,0.29381,0.72265
658.188,70.95116,-2.37524,0.29801,0.72219
658.788,71.0116,-2.37393,0.29894,0.72172
659.388,71.072,-2.37357,0.29627,0.72125
659.988,71.13283,-2.3736,0.29904,0.72078
660.588,71.1935,-2.37375,0.2958,0.72031
661.188,71.254,-2.37509,0.29347,0.71984
661.788,71.3146,-2.37261,0.2949,0.71937
662.388,71.3751,-2.37108,0.29437,0.7189
662.988,71.4358,-2.37282,0.29637,0.71843
663.588,71.49653,-2.37444,0.29627,0.71796
664.188,71.55713,-2.37552,0.29807,0.71749
664.788,71.61756,-2.37756,0.29815,0.71702
665.388,71.67798,-2.37899,0.30083,0.71655
665.988,71.73855,-2.37769,0.30523,0.71607
666.588,71.7992,-2.37635,0.30465,0.7156
667.188,71.85995,-2.37769,0.30718,0.71513
667.788,71.9204,-2.3807,0.31063,0.71465
668.388,71.98096,-2.38195,0.30554,0.71418
668.988,72.04138,-2.38199,0.30555,0.71371
669.588,72.10199,-2.38216,0.30329,0.71323
670.188,72.16239,-2.38125,0.30223,0.71276
670.788,72.223,-2.37796,0.30001,0.71228
671.388,72.28345,-2.37545,0.29803,0.71181
671.988,72.34397,-2.37643,0.29635,0.71133
672.588,72.40435,-2.37946,0.2967,0.71086
673.188,72.46459,-2.38245,0.2927,0.71038
673.788,72.5246,-2.38355,0.29416,0.70991
674.388,72.58468,-2.38458,0.2887,0.70943
674.988,72.64497,-2.38593,0.28792,0.70895
675.588,72.70533,-2.38724,0.2843,0.70848
676.188,72.76561,-2.38707,0.27885,0.708
676.788,72.82579,-2.38396,0.26855,0.70752
677.388,72.88593,-2.38392,0.26411,0.70704
677.988,72.94632,-2.38392,0.2561,0.70656
678.588,73.00669,-2.38408,0.24583,0.70608
679.188,73.0672,-2.38647,0.2374,0.70561
679.788,73.12756,-2.38775,0.22721,0.70513
680.388,73.18812,-2.38787,0.21969,0.70465
680.988,73.24884,-2.38787,0.21177,0.70417
681.588,73.3095,-2.38818,0.20672,0.70369
682.188,73.37012,-2.38787,0.20754,0.70321
682.788,73.4306,-2.38918,0.20918,0.70272
683.388,73.49116,-2.38918,0.20547,0.70224
683.988,73.5518,-2.38918,0.20406,0.70176
684.588,73.61245,-2.38917,0.20263,0.70128
685.188,73.67305,-2.38918,0.20186,0.7008
685.788,73.73365,-2.38774,0.20241,0.70032
686.388,73.79391,-2.38651,0.20224,0.69983
686.988,73.85462,-2.38513,0.20476,0.69935
687.588,73.9152,-2.3878,0.20127,0.69887
688.188,73.97612,-2.38917,0.20147,0.69838
688.788,74.03689,-2.38994,0.19833,0.6979
689.388,74.09745,-2.38837,0.19952,0.69741
689.988,74.158,-2.38478,0.19859,0.69693
690.588,74.21853,-2.38238,0.19914,0.69644
691.188,74.27914,-2.386,0.20223,0.69596
691.788,74.3399,-2.39359,0.19834,0.69547
692.388,74.40064,-2.39973,0.19981,0.69499
692.988,74.46137,-2.39305,0.1975,0.6945
693.588,74.52213,-2.38587,0.19185,0.69402
694.188,74.58275,-2.38467,0.19553,0.69353
694.788,74.6434,-2.38345,0.19398,0.69304
695.388,74.70362,-2.38338,0.19224,0.69255
695.988,74.76409,-2.38467,0.19947,0.69207
696.588,74.82462,-2.38881,0.19731,0.69158
697.188,74.88526,-2.39684,0.19521,0.69109
697.788,74.94584,-2.39956,0.19943,0.6906
698.388,75.0064,-2.39798,0.1935,0.69011
698.988,75.06702,-2.39498,0.1972,0.68962
699.588,75.1277,-2.39241,0.19423,0.68914
700.188,75.18825,-2.38782,0.19593,0.68865
700.788,75.2488,-2.38744,0.19236,0.68816
701.388,75.3095,-2.38876,0.19397,0.68767
701.988,75.37012,-2.39006,0.19064,0.68718
702.588,75.43066,-2.38877,0.19237,0.68668
703.188,75.49096,-2.38776,0.19205,0.68619
703.788,75.5512,-2.38776,0.19314,0.6857
704.388,75.6114,-2.38776,0.19171,0.68521
704.988,75.67175,-2.3883,0.19256,0.68472
705.588,75.73201,-2.38737,0.19142,0.68423
706.188,75.7927,-2.38999,0.19025,0.68373
706.788,75.8536,-2.39206,0.19003,0.68324
707.388,75.91456,-2.39436,0.18914,0.68275
707.988,75.9752,-2.39565,0.19075,0.68225
708.588,76.03594,-2.39436,0.19241,0.68176
709.188,76.09663,-2.39304,0.19181,0.68127
709.788,76.15768,-2.39171,0.19343,0.68077
710.388,76.21874,-2.39135,0.19539,0.68028
710.988,76.2799,-2.39132,0.19209,0.67978
711.588,76.3411,-2.39039,0.19257,0.67929
712.188,76.402,-2.39053,0.19127,0.67879
712.788,76.4627,-2.39174,0.19486,0.6783
713.388,76.52364,-2.39294,0.19445,0.6778
713.988,76.5844,-2.39297,0.19457,0.6773
714.588,76.6453,-2.39434,0.19571,0.67681
715.188,76.7061,-2.3948,0.1968,0.67631
715.788,76.76691,-2.39707,0.19536,0.67581
716.388,76.82768,-2.39588,0.20023,0.67532
716.988,76.8886,-2.39488,0.19443,0.67482
717.588,76.94932,-2.39456,0.19812,0.67432
718.188,77.01024,-2.39598,0.1964,0.67382
718.788,77.071,-2.3973,0.20177,0.67332
719.388,77.13181,-2.3973,0.20096,0.67282
719.988,77.19259,-2.39863,0.2003,0.67232
720.588,77.25326,-2.39571,0.20227,0.67183
721.188,77.31393,-2.3915,0.2062,0.67133
721.788,77.37432,-2.39038,0.20492,0.67083
722.388,77.43485,-2.38912,0.20762,0.67033
722.988,77.4953,-2.38967,0.21067,0.66983
723.588,77.55575,-2.39299,0.21002,0.66932
724.188,77.61609,-2.39167,0.21045,0.66882
724.788,77.67644,-2.39173,0.21046,0.66832
725.388,77.73691,-2.39495,0.2117,0.66782
725.988,77.79738,-2.39675,0.21108,0.66732
726.588,77.85802,-2.3973,0.21258,0.66682
727.188,77.91878,-2.3973,0.21552,0.66631
727.788,77.97957,-2.39873,0.21282,0.66581
728.388,78.04041,-2.39873,0.21159,0.66531
728.988,78.10121,-2.39873,0.21436,0.6648
729.588,78.1619,-2.39873,0.21096,0.6643
730.188,78.2225,-2.39937,0.21561,0.6638
730.788,78.2831,-2.39938,0.21206,0.66329
731.388,78.34348,-2.39811,0.2094,0.66279
731.988,78.4038,-2.39677,0.21024,0.66228
732.588,78.46435,-2.39677,0.21189,0.66178
733.188,78.5249,-2.39707,0.21094,0.66127
733.788,78.5855,-2.39666,0.20972,0.66077
734.388,78.64599,-2.39465,0.21164,0.66026
734.988,78.70651,-2.39401,0.21049,0.65976
735.588,78.767,-2.39275,0.21073,0.65925
736.188,78.82751,-2.3916,0.21054,0.65874
736.788,78.88771,-2.39454,0.2094,0.65824
737.388,78.9479,-2.39526,0.21144,0.65773
737.988,79.00789,-2.39751,0.21236,0.65722
738.588,79.0681,-2.39806,0.21254,0.65672
739.188,79.1286,-2.39676,0.2109,0.65621
739.788,79.18926,-2.39676,0.21287,0.6557
740.388,79.24987,-2.39544,0.21163,0.65519
740.988,79.3105,-2.39659,0.20914,0.65468
741.588,79.37106,-2.39774,0.20825,0.65418
742.188,79.43171,-2.39773,0.20697,0.65367
742.788,79.49248,-2.39642,0.20719,0.65316
743.388,79.55322,-2.39381,0.20568,0.65265
743.988,79.61417,-2.39243,0.20723,0.65214
744.588,79.67522,-2.39147,0.20858,0.65163
745.188,79.7364,-2.39151,0.20849,0.65112
745.788,79.79723,-2.39412,0.21137,0.65061
746.388,79.85818,-2.39412,0.20519,0.6501
746.988,79.919,-2.39576,0.2077,0.64958
747.588,79.98029,-2.40002,0.2083,0.64907
747.688,79.9906,-2.40112,0.2095,0.64899