File: 01_Data/Gypsum_Wallboard_Gypsum_Core/STA/N2/3K_min/Gypsum_Wallboard_Gypsum_Core_STA_N2_3KData_220221_R1.csv
##Temp./Â°C,Time/min,Mass loss(subtr.2)/mg,DSC(subtr.2)/(mW/mg),Sensit./(uV/mW)
50.093,10.0158,-0.06286,0.01788343,1.04802
50.893,11.1889,-0.06789986,0.04004742,1.04767
51.693,11.62072,-0.07171424,0.04943278,1.04732
52.493,11.9723,-0.0734181,0.05740257,1.04696
53.293,12.2921,-0.07344233,0.06084859,1.04661
54.093,12.60219,-0.07468175,0.06352869,1.04626
54.893,12.90937,-0.07601226,0.0632131,1.0459
55.693,13.2087,-0.07734112,0.06492954,1.04555
56.493,13.50155,-0.07865024,0.06554136,1.0452
57.293,13.79108,-0.07996019,0.0662653,1.04485
58.093,14.0777,-0.07996937,0.06714084,1.0445
58.893,14.362,-0.08125631,0.06779434,1.04415
59.693,14.64509,-0.08365791,0.06829716,1.0438
60.493,14.92614,-0.08588891,0.0691947,1.04344
61.293,15.20429,-0.08554608,0.07239802,1.0431
62.093,15.48078,-0.08621991,0.0718783,1.04275
62.893,15.75588,-0.08851518,0.07641641,1.0424
63.693,16.0294,-0.08910536,0.07641882,1.04205
64.493,16.303,-0.09196171,0.07624035,1.0417
65.293,16.57553,-0.0916915,0.07896716,1.04135
66.093,16.84994,-0.09335015,0.07834471,1.041
66.893,17.12358,-0.09470192,0.08533814,1.04066
67.693,17.39584,-0.09353981,0.08530397,1.04031
68.493,17.6649,-0.09697158,0.08832426,1.03996
69.293,17.9328,-0.09697503,0.09067905,1.03962
70.093,18.19975,-0.09838862,0.09357318,1.03927
70.893,18.4673,-0.10235,0.09762915,1.03892
71.693,18.73659,-0.10235,0.09735541,1.03858
72.493,19.00529,-0.1041,0.1025,1.03823
73.293,19.27434,-0.10581,0.10658,1.03789
74.093,19.54271,-0.10805,0.11018,1.03754
74.893,19.81062,-0.10734,0.11681,1.0372
75.693,20.0786,-0.11079,0.12445,1.03685
76.493,20.3466,-0.111,0.1305,1.03651
77.293,20.61424,-0.11231,0.13753,1.03617
78.093,20.88154,-0.1193,0.14158,1.03582
78.893,21.14951,-0.11759,0.14865,1.03548
79.693,21.41765,-0.12153,0.15659,1.03514
80.493,21.68562,-0.12349,0.16842,1.0348
81.293,21.95383,-0.12703,0.17702,1.03445
82.093,22.2226,-0.13042,0.19085,1.03411
82.893,22.49154,-0.13474,0.20171,1.03377
83.693,22.7607,-0.13742,0.2133,1.03343
84.493,23.02954,-0.14053,0.22602,1.03309
85.293,23.29903,-0.14522,0.23994,1.03275
86.093,23.56861,-0.14787,0.25772,1.03241
86.893,23.83805,-0.15291,0.27404,1.03207
87.693,24.10725,-0.15838,0.29251,1.03173
88.493,24.37639,-0.16208,0.3117,1.03139
89.293,24.6453,-0.16905,0.33312,1.03105
90.093,24.9144,-0.17216,0.35358,1.03071
90.893,25.1827,-0.18011,0.37318,1.03037
91.693,25.45031,-0.18724,0.39393,1.03003
92.493,25.7183,-0.19486,0.41635,1.0297
93.293,25.9849,-0.20189,0.43788,1.02936
94.093,26.2517,-0.2105,0.46403,1.02902
94.893,26.5175,-0.21904,0.48659,1.02868
95.693,26.7838,-0.22698,0.51116,1.02835
96.493,27.04986,-0.23711,0.53354,1.02801
97.293,27.31656,-0.24725,0.55564,1.02767
98.093,27.5838,-0.25824,0.57848,1.02734
98.893,27.85146,-0.2689,0.60532,1.027
99.693,28.11862,-0.28033,0.63567,1.02667
100.493,28.38642,-0.29146,0.66882,1.02633
101.293,28.65574,-0.30664,0.7084,1.02599
102.093,28.92391,-0.32045,0.75081,1.02566
102.893,29.19169,-0.33593,0.79392,1.02532
103.693,29.4603,-0.35283,0.83981,1.02499
104.493,29.7296,-0.36784,0.8891,1.02466
105.293,29.9988,-0.38826,0.93459,1.02432
106.093,30.2666,-0.40533,0.98341,1.02399
106.893,30.5348,-0.42539,1.03042,1.02365
107.693,30.80279,-0.44489,1.07212,1.02332
108.493,31.06908,-0.46595,1.10261,1.02299
109.293,31.3362,-0.48737,1.12274,1.02265
110.093,31.60292,-0.50783,1.1393,1.02232
110.893,31.87012,-0.53162,1.15258,1.02199
111.693,32.1361,-0.55238,1.17057,1.02166
112.493,32.4008,-0.57381,1.19132,1.02133
113.293,32.6669,-0.59488,1.21219,1.02099
114.093,32.93391,-0.61796,1.22654,1.02066
114.893,33.19941,-0.63961,1.22254,1.02033
115.693,33.46427,-0.6614,1.1887,1.02
116.493,33.72735,-0.67985,1.15018,1.01967
117.293,33.98959,-0.69816,1.12198,1.01934
118.093,34.25027,-0.7162,1.08048,1.01901
118.893,34.5111,-0.7348,1.00484,1.01868
119.693,34.76873,-0.7487,0.87642,1.01835
120.493,35.0243,-0.7595,0.67452,1.01802
121.293,35.2761,-0.7654,0.43931,1.01769
122.093,35.5268,-0.76998,0.29561,1.01736
122.893,35.77678,-0.77287,0.21771,1.01703
123.693,36.02854,-0.77559,0.17256,1.0167
124.493,36.28224,-0.77823,0.14571,1.01637
125.293,36.53819,-0.77849,0.12638,1.01604
126.093,36.7948,-0.7812,0.11412,1.01571
126.893,37.05315,-0.7838,0.10252,1.01538
127.693,37.31132,-0.78382,0.09475474,1.01505
128.493,37.5705,-0.78514,0.08917124,1.01472
129.293,37.83072,-0.78415,0.08469107,1.0144
130.093,38.0908,-0.78547,0.080342,1.01407
130.893,38.35185,-0.78808,0.07903336,1.01374
131.693,38.6137,-0.78942,0.07542965,1.01341
132.493,38.8761,-0.78777,0.07200714,1.01309
133.293,39.1387,-0.78843,0.06825239,1.01276
134.093,39.4016,-0.78843,0.06389163,1.01243
134.893,39.66367,-0.79073,0.06467951,1.0121
135.693,39.92582,-0.79138,0.0630043,1.01178
136.493,40.1873,-0.79139,0.06212622,1.01145
137.293,40.4488,-0.79173,0.06010397,1.01112
138.093,40.71082,-0.79304,0.05920385,1.0108
138.893,40.97382,-0.79352,0.05612284,1.01047
139.693,41.23731,-0.79396,0.05761523,1.01014
140.493,41.50056,-0.79337,0.05777317,1.00982
141.293,41.763,-0.79496,0.05550522,1.00949
142.093,42.02369,-0.79431,0.05685296,1.00917
142.893,42.28436,-0.79471,0.05618151,1.00884
143.693,42.5458,-0.79636,0.05645519,1.00852
144.493,42.80755,-0.79633,0.0525526,1.00819
145.293,43.06908,-0.79733,0.05255816,1.00787
146.093,43.33015,-0.79764,0.05243596,1.00754
146.893,43.59117,-0.79804,0.05178624,1.00721
147.693,43.85243,-0.79874,0.05040596,1.00689
148.493,44.1136,-0.79885,0.05104199,1.00657
149.293,44.3757,-0.80007,0.05182187,1.00624
150.093,44.6368,-0.79884,0.05072674,1.00592
150.893,44.89842,-0.79754,0.05176302,1.00559
151.693,45.1603,-0.80017,0.04881825,1.00527
152.493,45.42402,-0.80017,0.04690085,1.00494
153.293,45.6871,-0.79988,0.04468625,1.00462
154.093,45.94847,-0.80148,0.04741409,1.00429
154.893,46.21008,-0.80148,0.04532387,1.00397
155.693,46.4711,-0.80214,0.04419652,1.00365
156.493,46.7314,-0.80214,0.04604903,1.00332
157.293,46.9923,-0.80172,0.04318046,1.003
158.093,47.2521,-0.80159,0.0426633,1.00267
158.893,47.5131,-0.80287,0.04343231,1.00235
159.693,47.77324,-0.80192,0.04450832,1.00203
160.493,48.03219,-0.80325,0.04365516,1.0017
161.293,48.29126,-0.80491,0.04444817,1.00138
162.093,48.55097,-0.80411,0.04317085,1.00106
162.893,48.812,-0.80411,0.04623617,1.00073
163.693,49.07284,-0.80543,0.04450013,1.00041
164.493,49.33395,-0.80412,0.04708809,1.00009
165.293,49.59659,-0.80644,0.04470126,0.99976
166.093,49.85893,-0.80642,0.0433805,0.99944
166.893,50.12212,-0.80499,0.04270271,0.99912
167.693,50.3849,-0.80772,0.04454572,0.9988
168.493,50.6456,-0.80911,0.04615323,0.99847
169.293,50.90585,-0.80828,0.04458674,0.99815
170.093,51.16619,-0.80807,0.04492944,0.99783
170.893,51.42678,-0.80675,0.0440537,0.9975
171.693,51.6881,-0.80807,0.04443742,0.99718
172.493,51.9484,-0.80877,0.04443311,0.99686
173.293,52.20929,-0.80873,0.04242233,0.99654
174.093,52.46965,-0.80873,0.0413117,0.99621
174.893,52.7301,-0.8097,0.04205392,0.99589
175.693,52.98989,-0.80971,0.04240016,0.99557
176.493,53.2508,-0.80971,0.04133086,0.99525
177.293,53.51271,-0.81199,0.04028787,0.99492
178.093,53.77361,-0.81103,0.04152144,0.9946
178.893,54.0333,-0.8104,0.04339681,0.99428
179.693,54.2928,-0.81188,0.04119406,0.99396
180.493,54.5528,-0.81235,0.04253396,0.99363
181.293,54.8141,-0.81104,0.04434842,0.99331
182.093,55.0753,-0.81235,0.04272687,0.99299
182.893,55.33661,-0.81094,0.04278813,0.99267
183.693,55.59721,-0.81232,0.04212555,0.99234
184.493,55.85859,-0.81201,0.04137476,0.99202
185.293,56.1194,-0.81233,0.03965149,0.9917
186.093,56.3811,-0.81234,0.04093093,0.99138
186.893,56.6425,-0.81376,0.04000905,0.99105
187.693,56.90429,-0.81465,0.04230524,0.99073
188.493,57.16469,-0.81371,0.04196315,0.99041
189.293,57.4252,-0.81333,0.04176219,0.99009
190.093,57.6849,-0.81429,0.04329851,0.98976
190.893,57.9446,-0.81304,0.04423031,0.98944
191.693,58.20265,-0.81583,0.04759733,0.98912
192.493,58.46077,-0.81449,0.04273502,0.9888
193.293,58.7195,-0.81586,0.04623476,0.98847
194.093,58.97923,-0.81487,0.0432419,0.98815
194.893,59.2387,-0.81553,0.04462539,0.98783
195.693,59.49825,-0.81618,0.04440501,0.9875
196.493,59.7584,-0.81618,0.04216254,0.98718
197.293,60.0195,-0.81703,0.03947425,0.98686
198.093,60.28116,-0.8175,0.04023479,0.98654
198.893,60.54271,-0.81685,0.04175058,0.98621
199.693,60.80301,-0.81849,0.04127093,0.98589
200.493,61.062,-0.81783,0.04112408,0.98557
201.293,61.3207,-0.81915,0.04393846,0.98524
202.093,61.58036,-0.81764,0.04421482,0.98492
202.893,61.84053,-0.81881,0.04214603,0.9846
203.693,62.1006,-0.81752,0.04139084,0.98427
204.493,62.3608,-0.81947,0.04258523,0.98395
205.293,62.62242,-0.81922,0.04249812,0.98363
206.093,62.88435,-0.81827,0.04171538,0.9833
206.893,63.1458,-0.81794,0.04093341,0.98298
207.693,63.4067,-0.81823,0.03905996,0.98265
208.493,63.66766,-0.81915,0.04391384,0.98233
209.293,63.92895,-0.81874,0.03981929,0.98201
210.093,64.19032,-0.81826,0.04021663,0.98168
210.893,64.44971,-0.81892,0.03784182,0.98136
211.693,64.70666,-0.82024,0.03983887,0.98103
212.493,64.96503,-0.81925,0.03949013,0.98071
213.293,65.22666,-0.81925,0.03762382,0.98039
214.093,65.4867,-0.82009,0.03969802,0.98006
214.893,65.74597,-0.81991,0.0392169,0.97974
215.693,66.006,-0.82087,0.03895884,0.97941
216.493,66.2666,-0.81851,0.03612732,0.97909
217.293,66.52723,-0.82112,0.03870463,0.97876
218.093,66.78863,-0.82143,0.03764773,0.97844
218.893,67.04926,-0.82111,0.03697193,0.97811
219.693,67.30894,-0.82227,0.03751516,0.97779
220.493,67.5677,-0.82121,0.03788264,0.97746
221.293,67.82673,-0.82133,0.03784507,0.97713
222.093,68.08516,-0.82002,0.03800042,0.97681
222.893,68.34411,-0.8213,0.03750268,0.97648
223.693,68.6036,-0.82165,0.0374638,0.97616
224.493,68.8627,-0.82035,0.03731699,0.97583
225.293,69.12294,-0.82035,0.03675025,0.9755
226.093,69.38383,-0.82266,0.03794362,0.97518
226.893,69.64465,-0.82303,0.03626712,0.97485
227.693,69.90576,-0.82166,0.0344893,0.97453
228.493,70.16545,-0.82232,0.0359218,0.9742
229.293,70.42517,-0.82097,0.03588371,0.97387
230.093,70.68545,-0.82167,0.03448331,0.97354
230.893,70.9461,-0.82251,0.03539222,0.97322
231.693,71.2068,-0.82233,0.03507509,0.97289
232.493,71.4684,-0.82496,0.03460027,0.97256
233.293,71.72884,-0.82396,0.03394108,0.97223
234.093,71.98906,-0.82348,0.02983046,0.97191
234.893,72.24906,-0.82298,0.03196286,0.97158
235.693,72.51025,-0.82298,0.03201683,0.97125
236.493,72.77085,-0.82396,0.03147453,0.97092
237.293,73.03116,-0.82331,0.03154966,0.97059
238.093,73.29175,-0.82383,0.03110642,0.97026
238.893,73.5525,-0.82265,0.03070552,0.96993
239.693,73.81271,-0.825,0.02945887,0.9696
240.493,74.07291,-0.82418,0.0307259,0.96927
241.293,74.33349,-0.8243,0.02966178,0.96895
242.093,74.59411,-0.82634,0.03220852,0.96862
242.893,74.8536,-0.82509,0.03243965,0.96829
243.693,75.11219,-0.82364,0.03106221,0.96795
244.493,75.37039,-0.8243,0.03265615,0.96762
245.293,75.6298,-0.8263,0.03229378,0.96729
246.093,75.88991,-0.82562,0.03213333,0.96696
246.893,76.1503,-0.82496,0.03076441,0.96663
247.693,76.40905,-0.82628,0.03085084,0.9663
248.493,76.66884,-0.82709,0.03110456,0.96597
249.293,76.92971,-0.82628,0.02810939,0.96564
250.093,77.19205,-0.82574,0.0288681,0.9653
250.893,77.45328,-0.82641,0.0290055,0.96497
251.693,77.71395,-0.82726,0.02942844,0.96464
252.493,77.9736,-0.82683,0.02708765,0.96431
253.293,78.23398,-0.82831,0.02531371,0.96397
254.093,78.49382,-0.82696,0.02551403,0.96364
254.893,78.75452,-0.82647,0.02318974,0.96331
255.693,79.01475,-0.82627,0.02311946,0.96297
256.493,79.2746,-0.82631,0.02412688,0.96264
257.293,79.53255,-0.82628,0.02242449,0.96231
258.093,79.79052,-0.82744,0.02367613,0.96197
258.893,80.04907,-0.82584,0.02185504,0.96164
259.693,80.30974,-0.8271,0.02196905,0.9613
260.493,80.5707,-0.8296,0.02023817,0.96097
261.293,80.83182,-0.82749,0.02151603,0.96063
262.093,81.0915,-0.82618,0.02090532,0.9603
262.893,81.35146,-0.82549,0.01965641,0.95996
263.693,81.61098,-0.82814,0.01824855,0.95962
264.493,81.87185,-0.82814,0.01893766,0.95929
265.293,82.1326,-0.82881,0.01953037,0.95895
266.093,82.39434,-0.83011,0.02103433,0.95861
266.893,82.6553,-0.83052,0.02247431,0.95827
267.693,82.91578,-0.83012,0.02272017,0.95794
268.493,83.17562,-0.83036,0.02201601,0.9576
269.293,83.43639,-0.82911,0.02301351,0.95726
270.093,83.6978,-0.8288,0.02100853,0.95692
270.893,83.959,-0.82764,0.02200678,0.95658
271.693,84.22015,-0.82849,0.01968633,0.95624
272.493,84.48075,-0.82715,0.0210004,0.9559
273.293,84.74034,-0.82911,0.02334968,0.95556
274.093,85.0001,-0.82914,0.02112468,0.95522
274.893,85.2599,-0.82788,0.02091425,0.95488
275.693,85.51986,-0.82781,0.01765127,0.95454
276.493,85.78062,-0.8288,0.01789634,0.9542
277.293,86.04097,-0.82986,0.02004511,0.95386
278.093,86.30123,-0.83012,0.01872789,0.95352
278.893,86.5612,-0.8288,0.01699156,0.95318
279.693,86.82086,-0.82979,0.01797269,0.95283
280.493,87.07976,-0.82979,0.02026948,0.95249
281.293,87.33798,-0.83078,0.02127038,0.95215
282.093,87.59616,-0.82889,0.02227806,0.95181
282.893,87.85421,-0.8302,0.02143411,0.95146
283.693,88.11331,-0.82909,0.02204837,0.95112
284.493,88.37212,-0.83022,0.02144884,0.95077
285.293,88.63139,-0.83011,0.02021361,0.95043
286.093,88.8912,-0.82946,0.02056355,0.95008
286.893,89.15186,-0.83044,0.02034547,0.94974
287.693,89.41341,-0.83043,0.01749974,0.94939
288.493,89.6747,-0.83109,0.01845295,0.94905
289.293,89.93564,-0.82881,0.02077494,0.9487
290.093,90.19705,-0.83057,0.02020371,0.94835
290.893,90.4596,-0.83045,0.02055962,0.94801
291.693,90.72205,-0.83011,0.02005397,0.94766
292.493,90.98399,-0.82941,0.01639221,0.94731
293.293,91.24628,-0.83127,0.02041164,0.94696
294.093,91.50707,-0.83012,0.02011401,0.94661
294.893,91.76748,-0.83044,0.01866979,0.94626
295.693,92.02797,-0.83114,0.01926005,0.94591
296.493,92.2898,-0.83239,0.01763892,0.94557
297.293,92.5511,-0.8298,0.01767548,0.94521
298.093,92.81067,-0.8305,0.02058746,0.94486
298.893,93.06891,-0.82978,0.02004148,0.94451
299.693,93.32723,-0.82979,0.01889153,0.94416
300.493,93.58638,-0.8298,0.02228628,0.94381
301.293,93.8449,-0.82978,0.02100751,0.94346
302.093,94.10422,-0.83084,0.02149521,0.94311
302.893,94.36358,-0.83142,0.01933107,0.94275
303.693,94.62411,-0.83277,0.01864485,0.9424
304.493,94.88603,-0.83098,0.01791911,0.94205
305.293,95.14912,-0.8311,0.0160834,0.94169
306.093,95.4121,-0.8311,0.01809118,0.94134
306.893,95.67448,-0.83208,0.01557434,0.94098
307.693,95.93679,-0.83142,0.0162525,0.94063
308.493,96.1972,-0.83142,0.01662542,0.94027
309.293,96.45746,-0.83168,0.01693351,0.93991
310.093,96.7169,-0.83175,0.01608103,0.93956
310.893,96.97729,-0.83145,0.01921229,0.9392
311.693,97.23721,-0.83079,0.01701183,0.93884
312.493,97.49701,-0.83133,0.01841587,0.93848
313.293,97.75717,-0.83078,0.01746541,0.93813
314.093,98.01733,-0.83209,0.0209968,0.93777
314.893,98.27798,-0.83295,0.01719567,0.93741
315.693,98.5402,-0.83077,0.01646049,0.93705
316.493,98.80324,-0.83274,0.01666523,0.93669
317.293,99.06651,-0.83142,0.01501067,0.93633
318.093,99.32897,-0.83143,0.016994,0.93597
318.893,99.58994,-0.83209,0.019085,0.9356
319.693,99.85118,-0.8323,0.01468438,0.93524
320.493,100.113,-0.83263,0.01614182,0.93488
321.293,100.375,-0.83347,0.01512544,0.93452
322.093,100.6361,-0.8334,0.01430668,0.93415
322.893,100.8977,-0.83373,0.01736322,0.93379
323.693,101.16,-0.83505,0.0152388,0.93342
324.493,101.423,-0.83406,0.01599407,0.93306
325.293,101.6851,-0.83406,0.01437193,0.93269
326.093,101.948,-0.8344,0.01349112,0.93233
326.893,102.21,-0.83505,0.01337975,0.93196
327.693,102.473,-0.83459,0.01369118,0.9316
328.493,102.736,-0.83431,0.01491103,0.93123
329.293,102.998,-0.83439,0.01407071,0.93086
330.093,103.26,-0.8361,0.01345017,0.93049
330.893,103.524,-0.83373,0.014589,0.93012
331.693,103.786,-0.83505,0.01086175,0.92975
332.493,104.047,-0.83531,0.009676866,0.92938
333.293,104.307,-0.83538,0.008822033,0.92901
334.093,104.568,-0.83538,0.01033965,0.92864
334.893,104.829,-0.83439,0.00730744,0.92827
335.693,105.09,-0.8367,0.00626719,0.9279
336.493,105.354,-0.83573,0.006312369,0.92753
337.293,105.6178,-0.83571,0.005013857,0.92716
338.093,105.881,-0.83571,0.007458635,0.92678
338.893,106.144,-0.83604,0.00644467,0.92641
339.693,106.406,-0.83604,0.0063744,0.92603
340.493,106.667,-0.83607,0.004452751,0.92566
341.293,106.927,-0.83603,0.001799965,0.92528
342.093,107.188,-0.83538,0.003026638,0.92491
342.893,107.448,-0.83505,0.001116133,0.92453
343.693,107.708,-0.83636,-0.002445735,0.92415
344.493,107.969,-0.83636,-0.00368399,0.92378
345.293,108.232,-0.83699,-0.00605065,0.9234
346.093,108.494,-0.83729,-0.005382775,0.92302
346.893,108.755,-0.83768,-0.00527175,0.92264
347.693,109.016,-0.83768,-0.006984206,0.92226
348.493,109.278,-0.83725,-0.005963141,0.92188
349.293,109.54,-0.83867,-0.00742037,0.9215
350.093,109.801,-0.83866,-0.0061346,0.92112
350.893,110.064,-0.83731,-0.009598908,0.92074
351.693,110.327,-0.83702,-0.01100108,0.92036
352.493,110.5897,-0.83702,-0.01221698,0.91997
353.293,110.852,-0.8383,-0.01412248,0.91959
354.093,111.115,-0.83702,-0.01625261,0.91921
354.893,111.376,-0.839,-0.01470001,0.91882
355.693,111.636,-0.83845,-0.01630366,0.91844
356.493,111.897,-0.839,-0.01757382,0.91805
357.293,112.158,-0.83721,-0.0175419,0.91766
358.093,112.421,-0.83803,-0.02152373,0.91728
358.893,112.6849,-0.83902,-0.02578463,0.91689
359.693,112.95,-0.83768,-0.02456789,0.9165
360.493,113.217,-0.83834,-0.0287545,0.91611
361.293,113.482,-0.83834,-0.02605181,0.91572
362.093,113.747,-0.83961,-0.0249612,0.91533
362.893,114.01,-0.83968,-0.02768457,0.91494
363.693,114.272,-0.839,-0.0244697,0.91455
364.493,114.5343,-0.839,-0.02415192,0.91416
365.293,114.796,-0.839,-0.02613316,0.91377
366.093,115.057,-0.84102,-0.025897,0.91338
366.893,115.319,-0.83966,-0.02190881,0.91298
367.693,115.5812,-0.839,-0.02622958,0.91259
368.493,115.8438,-0.84097,-0.02482374,0.91219
369.293,116.106,-0.84064,-0.02327902,0.9118
370.093,116.369,-0.83933,-0.02131702,0.9114
370.893,116.631,-0.84064,-0.02152177,0.91101
371.693,116.893,-0.83933,-0.01906494,0.91061
372.493,117.1545,-0.83966,-0.01645351,0.91021
373.293,117.415,-0.8403,-0.01559964,0.90981
374.093,117.677,-0.83933,-0.01703175,0.90942
374.893,117.94,-0.83934,-0.01392099,0.90902
375.693,118.203,-0.83974,-0.0192383,0.90862
376.493,118.465,-0.83933,-0.01609273,0.90822
377.293,118.727,-0.84,-0.01399701,0.90781
378.093,118.988,-0.84032,-0.01634826,0.90741
378.893,119.251,-0.84032,-0.01176019,0.90701
379.693,119.514,-0.83999,-0.01401095,0.90661
380.493,119.778,-0.84065,-0.01348205,0.9062
381.293,120.041,-0.83933,-0.01230706,0.9058
382.093,120.305,-0.8408,-0.008689759,0.90539
382.893,120.569,-0.84055,-0.007892755,0.90499
383.693,120.834,-0.84097,-0.00776874,0.90458
384.493,121.099,-0.83834,-0.008170165,0.90417
385.293,121.364,-0.84067,-0.00579573,0.90377
386.093,121.628,-0.83962,-0.0055382,0.90336
386.893,121.891,-0.84032,-0.00639291,0.90295
387.693,122.155,-0.84032,-0.002903945,0.90254
388.493,122.419,-0.84041,-0.002125088,0.90213
389.293,122.683,-0.84062,-0.0016222,0.90172
390.093,122.947,-0.84194,-0.002838347,0.90131
390.893,123.212,-0.84208,0.000487888,0.9009
391.693,123.476,-0.8413,-0.00155104,0.90048
392.493,123.741,-0.84005,-0.000584006,0.90007
393.293,124.005,-0.83999,-0.002278568,0.89965
394.093,124.269,-0.84031,0.0015641,0.89924
394.893,124.531,-0.84098,0.00264686,0.89882
395.693,124.7933,-0.83997,0.00314369,0.89841
396.493,125.056,-0.84163,0.00309436,0.89799
397.293,125.319,-0.84056,0.00385918,0.89757
398.093,125.582,-0.84031,7.25504e-06,0.89716
398.893,125.845,-0.84073,0.00247277,0.89674
399.693,126.109,-0.84115,0.0032701,0.89632
400.493,126.374,-0.84016,0.000516982,0.8959
401.293,126.639,-0.83965,-0.00157922,0.89548
402.093,126.9015,-0.83998,0.0026751,0.89505
402.893,127.163,-0.83998,0.00344958,0.89463
403.693,127.425,-0.84244,0.005092823,0.89421
404.493,127.685,-0.84095,0.006445806,0.89379
405.293,127.946,-0.84038,0.005039676,0.89336
406.093,128.207,-0.84065,0.00256144,0.89294
406.893,128.47,-0.84064,0.002131862,0.89251
407.693,128.7334,-0.84064,0.002235996,0.89208
408.493,128.998,-0.84064,0.002799339,0.89166
409.293,129.262,-0.84065,0.004937523,0.89123
410.093,129.526,-0.84068,0.005235825,0.8908
410.893,129.791,-0.83923,0.004330107,0.89037
411.693,130.056,-0.83838,0.003905756,0.88994
412.493,130.321,-0.83899,0.003016022,0.88951
413.293,130.585,-0.84131,0.00345847,0.88908
414.093,130.85,-0.83965,0.00582377,0.88865
414.893,131.114,-0.83965,0.00711878,0.88821
415.693,131.377,-0.83975,0.005609888,0.88778
416.493,131.64,-0.84062,0.005841528,0.88735
417.293,131.902,-0.83984,0.009953528,0.88691
418.093,132.164,-0.84097,0.007429263,0.88648
418.893,132.428,-0.84015,0.005049617,0.88604
419.693,132.692,-0.84067,0.007611764,0.8856
420.493,132.956,-0.84064,0.006437071,0.88516
421.293,133.22,-0.84069,0.006856674,0.88473
422.093,133.486,-0.83947,0.008154304,0.88429
422.893,133.753,-0.84076,0.004444,0.88385
423.693,134.019,-0.839,0.002626305,0.88341
424.493,134.286,-0.83999,0.004934002,0.88296
425.293,134.552,-0.83999,0.00552427,0.88252
426.093,134.8188,-0.84032,0.004158796,0.88208
426.893,135.084,-0.84032,0.00162462,0.88164
427.693,135.349,-0.84032,-0.001483833,0.88119
428.493,135.613,-0.84148,-0.00122909,0.88075
429.293,135.876,-0.83962,0.001711104,0.8803
430.093,136.139,-0.84072,0.00331415,0.87985
430.893,136.403,-0.84065,0.001270852,0.87941
431.693,136.667,-0.84229,0.0008602919,0.87896
432.493,136.932,-0.83966,-0.001086647,0.87851
433.293,137.197,-0.84099,0.00371622,0.87806
434.093,137.4623,-0.84092,0.0015583,0.87761
434.893,137.728,-0.84099,0.001228729,0.87716
435.693,137.992,-0.84196,0.0006417033,0.87671
436.493,138.256,-0.84182,-1.22059e-05,0.87625
437.293,138.521,-0.84088,-0.00174369,0.8758
438.093,138.785,-0.84228,0.00112801,0.87534
438.893,139.05,-0.84393,0.003027065,0.87489
439.693,139.317,-0.84195,0.00239983,0.87443
440.493,139.584,-0.84064,0.003481673,0.87398
441.293,139.85,-0.84064,0.002982727,0.87352
442.093,140.1154,-0.84262,0.001914221,0.87306
442.893,140.381,-0.8426,0.00306777,0.8726
443.693,140.647,-0.8413,0.001002461,0.87214
444.493,140.912,-0.84112,0.00487507,0.87168
445.293,141.177,-0.84125,0.00491121,0.87122
446.093,141.442,-0.84195,0.004119763,0.87076
446.893,141.707,-0.84162,0.003227223,0.8703
447.693,141.971,-0.84031,0.005091982,0.86983
448.493,142.235,-0.84163,0.00611746,0.86937
449.293,142.498,-0.84296,0.00406457,0.86891
450.093,142.763,-0.84225,0.0038204,0.86844
450.893,143.028,-0.84358,0.003944447,0.86797
451.693,143.2944,-0.84229,0.00155754,0.86751
452.493,143.561,-0.84229,0.003496595,0.86704
453.293,143.8273,-0.84328,0.002529626,0.86657
454.093,144.092,-0.8423,0.003174087,0.8661
454.893,144.357,-0.84361,0.005243015,0.86563
455.693,144.6199,-0.84361,0.002832195,0.86516
456.493,144.883,-0.84296,0.004749074,0.86468
457.293,145.147,-0.84295,0.00569205,0.86421
458.093,145.413,-0.84229,0.002815034,0.86374
458.893,145.678,-0.84095,0.001463961,0.86326
459.693,145.944,-0.84289,0.003320816,0.86279
460.493,146.2096,-0.84295,0.00314595,0.86231
461.293,146.475,-0.84205,0.001192699,0.86184
462.093,146.7396,-0.84296,0.003987985,0.86136
462.893,147.005,-0.84327,-0.00053318,0.86088
463.693,147.271,-0.84252,0.002894978,0.8604
464.493,147.535,-0.84134,0.004902546,0.85992
465.293,147.799,-0.84261,0.003979,0.85944
466.093,148.063,-0.8419,0.004249415,0.85896
466.893,148.329,-0.84464,0.003152861,0.85848
467.693,148.595,-0.84459,0.001857669,0.85799
468.493,148.86,-0.8419,0.0038234,0.85751
469.293,149.125,-0.84324,0.0005646078,0.85702
470.093,149.39,-0.84318,-0.0003214505,0.85654
470.893,149.656,-0.84358,0.00331314,0.85605
471.693,149.924,-0.84314,0.001536786,0.85556
472.493,150.192,-0.84402,0.000401797,0.85508
473.293,150.458,-0.8436,0.001049909,0.85459
474.093,150.722,-0.84256,0.001080878,0.8541
474.893,150.986,-0.84393,-0.0004019538,0.85361
475.693,151.25,-0.84518,0.001459328,0.85311
476.493,151.516,-0.84393,0.00155424,0.85262
477.293,151.782,-0.84261,0.00133911,0.85213
478.093,152.048,-0.8436,0.001049073,0.85164
478.893,152.313,-0.8436,0.00232301,0.85114
479.693,152.578,-0.84424,0.002191098,0.85065
480.493,152.844,-0.84426,-0.001370536,0.85015
481.293,153.1109,-0.84393,-0.0005904149,0.84965
482.093,153.378,-0.84393,-0.003518837,0.84915
482.893,153.646,-0.84393,-0.003509012,0.84865
483.693,153.913,-0.84624,-0.001979287,0.84816
484.493,154.179,-0.84627,0.000426551,0.84765
485.293,154.443,-0.84462,-0.0009149858,0.84715
486.093,154.709,-0.84537,0.00023318,0.84665
486.893,154.974,-0.8458,0.00156511,0.84615
487.693,155.24,-0.84454,0.0006265947,0.84564
488.493,155.506,-0.84589,-0.0006290306,0.84514
489.293,155.771,-0.84695,-0.003017888,0.84463
490.093,156.0373,-0.84557,-0.002809914,0.84413
490.893,156.303,-0.84656,-0.00142473,0.84362
491.693,156.567,-0.84524,0.000257828,0.84311
492.493,156.8314,-0.84656,-0.001693499,0.8426
493.293,157.098,-0.84689,-0.003165718,0.84209
494.093,157.367,-0.84689,-0.001835175,0.84158
494.893,157.635,-0.84535,-0.00364623,0.84107
495.693,157.903,-0.84667,-0.00458948,0.84056
496.493,158.169,-0.84713,-0.00751517,0.84005
497.293,158.435,-0.84601,-0.003565594,0.83953
498.093,158.701,-0.84733,-0.003946837,0.83902
498.893,158.967,-0.84671,-0.002594354,0.8385
499.693,159.233,-0.84833,-0.001831115,0.83799
500.493,159.498,-0.84702,-0.0003744968,0.83747
501.293,159.763,-0.84701,-0.000859829,0.83695
502.093,160.03,-0.84832,-0.002145374,0.83643
502.893,160.296,-0.84684,-0.002320272,0.83591
503.693,160.561,-0.8469,-0.0008080764,0.83539
504.493,160.825,-0.84825,0.002042019,0.83487
505.293,161.09,-0.84887,-0.0005817236,0.83435
506.093,161.354,-0.85034,-0.0007070766,0.83383
506.893,161.6182,-0.84954,0.00397026,0.8333
507.693,161.883,-0.84953,-0.00139254,0.83278
508.493,162.148,-0.84953,-0.001357159,0.83225
509.293,162.4142,-0.84953,-0.0005125291,0.83172
510.093,162.681,-0.85019,-0.001473274,0.8312
510.893,162.948,-0.85019,-0.002047372,0.83067
511.693,163.2164,-0.8492,0.0002608949,0.83014
512.493,163.484,-0.84846,-0.00192708,0.82961
513.293,163.751,-0.84928,0.001020201,0.82908
514.093,164.017,-0.85086,-0.00154596,0.82855
514.893,164.284,-0.84987,-0.000658718,0.82801
515.693,164.552,-0.8489,-0.00165091,0.82748
516.493,164.82,-0.84916,-0.001322309,0.82695
517.293,165.087,-0.85285,-0.001794363,0.82641
518.093,165.354,-0.85123,-0.004663984,0.82588
518.893,165.6204,-0.85052,-0.00325072,0.82534
519.693,165.886,-0.85019,-0.001731626,0.8248
520.493,166.1521,-0.8515,0.00183641,0.82426
521.293,166.418,-0.8515,-0.001461052,0.82372
522.093,166.684,-0.85085,-0.00086525,0.82318
522.893,166.9506,-0.85013,-0.001161226,0.82264
523.693,167.217,-0.85084,-0.006014799,0.8221
524.493,167.484,-0.85211,-0.00187654,0.82156
525.293,167.752,-0.85183,-0.003744796,0.82101
526.093,168.021,-0.85215,-0.00518654,0.82047
526.893,168.289,-0.85281,-0.00611915,0.81992
527.693,168.557,-0.85332,-0.003543623,0.81938
528.493,168.824,-0.85315,-0.00388703,0.81883
529.293,169.091,-0.8536,-0.002188168,0.81828
530.093,169.358,-0.85249,-0.004651715,0.81773
530.893,169.624,-0.8524,-0.00432992,0.81718
531.693,169.889,-0.85382,-0.00395004,0.81663
532.493,170.154,-0.85347,-0.001701105,0.81608
533.293,170.42,-0.85368,-0.004871539,0.81553
534.093,170.686,-0.85252,-0.008594579,0.81498
534.893,170.953,-0.85216,-0.007161461,0.81442
535.693,171.22,-0.85355,-0.00869069,0.81387
536.493,171.486,-0.85249,-0.00522317,0.81331
537.293,171.753,-0.85319,-0.007569023,0.81276
538.093,172.0188,-0.85348,-0.007952313,0.8122
538.893,172.284,-0.85348,-0.01123617,0.81164
539.693,172.55,-0.85313,-0.008192949,0.81108
540.493,172.816,-0.85414,-0.005826254,0.81052
541.293,173.082,-0.85545,-0.006910825,0.80996
542.093,173.348,-0.8541,-0.009974471,0.8094
542.893,173.616,-0.85413,-0.008920032,0.80884
543.693,173.883,-0.85512,-0.00635242,0.80827
544.493,174.1519,-0.85578,-0.009255727,0.80771
545.293,174.421,-0.85508,-0.01184513,0.80714
546.093,174.69,-0.85412,-0.006888255,0.80658
546.893,174.959,-0.85645,-0.007429735,0.80601
547.693,175.2257,-0.85508,-0.006223521,0.80544
548.493,175.492,-0.85576,-0.007771927,0.80487
549.293,175.7611,-0.85578,-0.00942041,0.8043
550.093,176.032,-0.85711,-0.006595686,0.80373
550.893,176.303,-0.85499,-0.008247171,0.80316
551.693,176.573,-0.8564,-0.008242324,0.80259
552.493,176.841,-0.85614,-0.00260772,0.80202
553.293,177.108,-0.85677,-0.00649521,0.80144
554.093,177.376,-0.85611,-0.00555829,0.80087
554.893,177.643,-0.85731,-0.00884488,0.80029
555.693,177.909,-0.85795,-0.00484841,0.79971
556.493,178.175,-0.85937,-0.005638535,0.79914
557.293,178.441,-0.8581,-0.004487333,0.79856
558.093,178.708,-0.85945,-0.004712248,0.79798
558.893,178.977,-0.85872,-0.0071081,0.7974
559.693,179.246,-0.85873,-0.006160717,0.79682
560.493,179.514,-0.86006,-0.00786477,0.79624
561.293,179.7819,-0.86039,-0.009992632,0.79565
562.093,180.05,-0.86073,-0.00334921,0.79507
562.893,180.317,-0.86043,-0.00819707,0.79449
563.693,180.585,-0.86138,-0.007187339,0.7939
564.493,180.851,-0.86137,-0.008057408,0.79332
565.293,181.118,-0.86154,-0.008495606,0.79273
566.093,181.385,-0.86235,-0.007507034,0.79214
566.893,181.651,-0.86069,-0.009119836,0.79155
567.693,181.918,-0.86133,-0.006683329,0.79096
568.493,182.185,-0.86373,-0.006125219,0.79037
569.293,182.454,-0.86236,-0.005022795,0.78978
570.093,182.7232,-0.86372,-0.005084453,0.78919
570.893,182.993,-0.86266,-0.00640009,0.7886
571.693,183.2637,-0.86366,-0.004186272,0.788
572.493,183.534,-0.86467,-0.008339469,0.78741
573.293,183.803,-0.86401,-0.004405989,0.78681
574.093,184.071,-0.86401,-0.003695107,0.78622
574.893,184.338,-0.86532,-0.00756587,0.78562
575.693,184.607,-0.86352,-0.0065069,0.78502
576.493,184.876,-0.86366,-0.01056514,0.78442
577.293,185.145,-0.86603,-0.005059625,0.78382
578.093,185.4127,-0.86598,-0.003852252,0.78322
578.893,185.679,-0.86626,-0.004982602,0.78262
579.693,185.947,-0.86631,-0.00329685,0.78202
580.493,186.214,-0.86796,-0.002352964,0.78141
581.293,186.48,-0.8679,-0.003995661,0.78081
582.093,186.746,-0.86796,-0.002416826,0.7802
582.893,187.012,-0.86699,-0.004585685,0.7796
583.693,187.28,-0.8696,-0.004950582,0.77899
584.493,187.547,-0.86762,0.0005034888,0.77838
585.293,187.815,-0.87025,-0.0005099282,0.77778
586.093,188.084,-0.86797,0.0002597779,0.77717
586.893,188.355,-0.86895,0.001852214,0.77656
587.693,188.626,-0.86899,-0.003474478,0.77594
588.493,188.896,-0.87026,-0.00482741,0.77533
589.293,189.165,-0.87125,0.000773948,0.77472
590.093,189.435,-0.87158,-0.001078344,0.77411
590.893,189.705,-0.87076,-0.0005894785,0.77349
591.693,189.974,-0.87161,-0.004543233,0.77288
592.493,190.243,-0.87252,-0.001357672,0.77226
593.293,190.51,-0.87453,0.001076364,0.77164
594.093,190.777,-0.87322,0.001988582,0.77103
594.893,191.044,-0.87453,0.001779916,0.77041
595.693,191.312,-0.87453,0.00273163,0.76979
596.493,191.58,-0.87675,0.001322241,0.76917
597.293,191.848,-0.87488,0.002217415,0.76855
598.093,192.116,-0.87717,0.002728845,0.76792
598.893,192.386,-0.87718,0.001796455,0.7673
599.693,192.656,-0.87816,0.004222333,0.76668
600.493,192.927,-0.87815,0.005190104,0.76605
601.293,193.197,-0.87947,0.001822601,0.76543
602.093,193.464,-0.8798,0.005828884,0.7648
602.893,193.732,-0.8798,0.0098388,0.76417
603.693,194,-0.88078,0.01146274,0.76355
604.493,194.27,-0.88104,0.00755132,0.76292
605.293,194.54,-0.88243,0.009979827,0.76229
606.093,194.811,-0.88514,0.008738385,0.76166
606.893,195.081,-0.88473,0.00461529,0.76103
607.693,195.35,-0.88473,0.003948816,0.76039
608.493,195.618,-0.88374,0.005964771,0.75976
609.293,195.885,-0.88375,0.00725474,0.75913
610.093,196.1511,-0.88573,0.007883849,0.75849
610.893,196.417,-0.88505,0.00629928,0.75786
611.693,196.6826,-0.88671,0.01000325,0.75722
612.493,196.9493,-0.88835,0.01026497,0.75658
613.293,197.218,-0.88737,0.01412207,0.75594
614.093,197.488,-0.88818,0.01005576,0.75531
614.893,197.76,-0.88935,0.009516492,0.75467
615.693,198.0324,-0.89066,0.00903427,0.75402
616.493,198.302,-0.89066,0.008780105,0.75338
617.293,198.571,-0.89198,0.009931494,0.75274
618.093,198.838,-0.89235,0.009041627,0.7521
618.893,199.105,-0.89329,0.009255483,0.75145
619.693,199.373,-0.89463,0.00944988,0.75081
620.493,199.642,-0.89494,0.01137999,0.75016
621.293,199.911,-0.89626,0.01382915,0.74952
622.093,200.18,-0.89605,0.0122315,0.74887
622.893,200.449,-0.8946,0.01416518,0.74822
623.693,200.719,-0.89789,0.01077492,0.74757
624.493,200.989,-0.8986,0.0103551,0.74692
625.293,201.26,-0.89855,0.01005728,0.74627
626.093,201.529,-0.89989,0.01086243,0.74562
626.893,201.798,-0.9012,0.01316441,0.74497
627.693,202.067,-0.90152,0.01038178,0.74432
628.493,202.335,-0.90217,0.01346734,0.74366
629.293,202.602,-0.90349,0.01135001,0.74301
630.093,202.869,-0.90293,0.008809136,0.74235
630.893,203.139,-0.90455,0.008555624,0.7417
631.693,203.408,-0.90453,0.01430354,0.74104
632.493,203.679,-0.90514,0.00889168,0.74038
633.293,203.949,-0.90645,0.01074926,0.73972
634.093,204.218,-0.90713,0.01248978,0.73906
634.893,204.485,-0.90908,0.01384199,0.7384
635.693,204.752,-0.90963,0.01103884,0.73774
636.493,205.019,-0.9112,0.01639673,0.73708
637.293,205.288,-0.91139,0.0111873,0.73642
638.093,205.558,-0.91271,0.00853986,0.73575
638.893,205.828,-0.91403,0.008486809,0.73509
639.693,206.099,-0.91468,0.0092798,0.73443
640.493,206.369,-0.91537,0.01203446,0.73376
641.293,206.639,-0.91666,0.009894397,0.73309
642.093,206.907,-0.91698,0.01171467,0.73243
642.893,207.176,-0.91697,0.009562384,0.73176
643.693,207.446,-0.91929,0.0146157,0.73109
644.493,207.715,-0.92061,0.01397662,0.73042
645.293,207.986,-0.91963,0.01075068,0.72975
646.093,208.2571,-0.92089,0.00904992,0.72908
646.893,208.529,-0.92127,0.006017065,0.7284
647.693,208.799,-0.92258,0.006500675,0.72773
648.493,209.069,-0.9229,0.008179275,0.72706
649.293,209.3387,-0.92465,0.005973331,0.72638
650.093,209.608,-0.92512,0.003156135,0.72571
650.893,209.878,-0.9262,0.004468962,0.72503
651.693,210.148,-0.92751,0.00371528,0.72435
652.493,210.418,-0.92883,0.001100988,0.72368
653.293,210.687,-0.92904,0.001325988,0.723
654.093,210.9549,-0.93013,-0.000145399,0.72232
654.893,211.223,-0.93142,0.0002371436,0.72164
655.693,211.4902,-0.93217,0.0004942484,0.72096
656.493,211.758,-0.93147,-0.0002924238,0.72028
657.293,212.026,-0.93134,-0.003126907,0.71959
658.093,212.294,-0.93276,-0.003085309,0.71891
658.893,212.564,-0.93541,-0.00412339,0.71823
659.693,212.834,-0.93673,-0.003653214,0.71754
660.493,213.104,-0.93673,-0.01006389,0.71686
661.293,213.376,-0.93798,-0.0132846,0.71617
662.093,213.649,-0.93706,-0.01274083,0.71548
662.893,213.921,-0.93837,-0.009983105,0.71479
663.693,214.192,-0.941,-0.0147003,0.71411
664.493,214.459,-0.93967,-0.01329945,0.71342
665.293,214.726,-0.94094,-0.01245237,0.71273
666.093,214.995,-0.94097,-0.01330626,0.71204
666.893,215.264,-0.94134,-0.01563416,0.71134
667.693,215.533,-0.94363,-0.01670394,0.71065
668.493,215.801,-0.94332,-0.02022918,0.70996
669.293,216.07,-0.94495,-0.02317744,0.70926
670.093,216.339,-0.94495,-0.02395939,0.70857
670.893,216.608,-0.94495,-0.02525379,0.70787
671.693,216.878,-0.94627,-0.02550662,0.70718
672.493,217.15,-0.94658,-0.02820687,0.70648
673.293,217.422,-0.9466,-0.02933415,0.70578
674.093,217.6923,-0.94738,-0.02863787,0.70509
674.893,217.964,-0.9485,-0.03210912,0.70439
675.693,218.235,-0.94858,-0.03080942,0.70369
676.493,218.504,-0.94858,-0.03330234,0.70299
677.293,218.774,-0.94858,-0.03615178,0.70228
678.093,219.042,-0.94727,-0.03640797,0.70158
678.893,219.311,-0.94959,-0.03896636,0.70088
679.693,219.581,-0.94886,-0.0346616,0.70018
680.493,219.85,-0.95055,-0.03577815,0.69947
681.293,220.119,-0.94988,-0.03887181,0.69877
682.093,220.388,-0.94858,-0.04164273,0.69806
682.893,220.659,-0.94989,-0.0390973,0.69736
683.693,220.93,-0.95121,-0.04411382,0.69665
684.493,221.199,-0.95219,-0.04300304,0.69594
685.293,221.468,-0.94947,-0.04124319,0.69523
686.093,221.738,-0.95055,-0.04537119,0.69452
686.893,222.009,-0.95123,-0.04835064,0.69381
687.693,222.28,-0.95285,-0.04732118,0.6931
688.493,222.551,-0.95286,-0.04930793,0.69239
689.293,222.821,-0.95252,-0.04922976,0.69168
690.093,223.091,-0.95252,-0.05282978,0.69096
690.893,223.361,-0.95285,-0.05051028,0.69025
691.693,223.6308,-0.95285,-0.05190905,0.68954
692.493,223.902,-0.95276,-0.048941,0.68882
693.293,224.173,-0.95318,-0.05485344,0.68811
694.093,224.444,-0.9545,-0.05428255,0.68739
694.893,224.714,-0.95344,-0.05398685,0.68667
695.693,224.984,-0.9545,-0.05213775,0.68595
696.493,225.253,-0.9529,-0.05390527,0.68524
697.293,225.522,-0.95373,-0.05335445,0.68452
698.093,225.793,-0.95333,-0.05427434,0.6838
698.893,226.065,-0.95351,-0.05678607,0.68308
699.693,226.336,-0.95383,-0.055083,0.68236
700.493,226.6049,-0.95383,-0.05189844,0.68163
701.293,226.8738,-0.95515,-0.05400207,0.68091
702.093,227.145,-0.95401,-0.05328169,0.68019
702.893,227.418,-0.95419,-0.05648495,0.67946
703.693,227.692,-0.95468,-0.05737184,0.67874
704.493,227.966,-0.95482,-0.06060273,0.67801
705.293,228.2364,-0.95516,-0.05741202,0.67729
706.093,228.506,-0.95647,-0.05953092,0.67656
706.893,228.773,-0.95549,-0.06009571,0.67583
707.693,229.04,-0.95614,-0.06168474,0.67511
708.493,229.306,-0.95758,-0.06131215,0.67438
709.293,229.5736,-0.95647,-0.06080302,0.67365
710.093,229.843,-0.95691,-0.05967352,0.67292
710.893,230.115,-0.9568,-0.05816292,0.67219
711.693,230.388,-0.95713,-0.06320999,0.67145
712.493,230.663,-0.95714,-0.06080846,0.67072
713.293,230.936,-0.95779,-0.06204888,0.66999
714.093,231.207,-0.95778,-0.062245,0.66926
714.893,231.478,-0.95713,-0.06128414,0.66852
715.693,231.749,-0.95813,-0.06096469,0.66779
716.493,232.02,-0.95779,-0.06534049,0.66705
717.293,232.291,-0.95779,-0.06616887,0.66632
718.093,232.561,-0.95778,-0.05905428,0.66558
718.893,232.831,-0.95909,-0.06203848,0.66484
719.693,233.101,-0.95779,-0.06632817,0.66411
720.493,233.371,-0.95649,-0.0619346,0.66337
721.293,233.641,-0.95844,-0.06345465,0.66263
722.093,233.91,-0.95844,-0.06224482,0.66189
722.893,234.179,-0.95977,-0.06120744,0.66115
723.693,234.448,-0.9591,-0.06414293,0.66041
724.493,234.718,-0.95778,-0.06413283,0.65966
725.293,234.988,-0.95878,-0.06307431,0.65892
726.093,235.258,-0.9598,-0.0630541,0.65818
726.893,235.529,-0.95844,-0.06275262,0.65744
727.693,235.798,-0.95745,-0.06364355,0.65669
728.493,236.068,-0.95812,-0.06371588,0.65595
729.293,236.339,-0.95812,-0.06494982,0.6552
730.093,236.6101,-0.95955,-0.05912818,0.65446
730.893,236.879,-0.95883,-0.06401344,0.65371
731.693,237.147,-0.9601,-0.06583226,0.65296
732.493,237.414,-0.96109,-0.06793871,0.65221
733.293,237.683,-0.95881,-0.06620349,0.65147
734.093,237.954,-0.9598,-0.06582323,0.65072
734.893,238.226,-0.95976,-0.06366714,0.64997
735.693,238.498,-0.96009,-0.06597797,0.64922
736.493,238.769,-0.96074,-0.0718374,0.64847
737.293,239.04,-0.96219,-0.06906171,0.64771
738.093,239.313,-0.96075,-0.06641067,0.64696
738.893,239.586,-0.96075,-0.06909302,0.64621
739.693,239.858,-0.96093,-0.06700167,0.64546
740.493,240.129,-0.96032,-0.0668088,0.6447
741.293,240.4,-0.96009,-0.06426038,0.64395
742.093,240.67,-0.96143,-0.06453719,0.64319
742.893,240.938,-0.9611,-0.06455815,0.64244
743.693,241.206,-0.95978,-0.06509699,0.64168
744.493,241.474,-0.95976,-0.06548601,0.64092
745.293,241.744,-0.96144,-0.0662496,0.64017
746.093,242.015,-0.9614,-0.06871262,0.63941
746.893,242.285,-0.96107,-0.07130287,0.63865
747.693,242.557,-0.96009,-0.07204767,0.63789
748.493,242.829,-0.96141,-0.06168145,0.63713
749.293,243.1,-0.96208,-0.06671386,0.63637
750.093,243.3704,-0.96271,-0.06914607,0.63561
750.893,243.64,-0.96207,-0.07113923,0.63485
751.693,243.913,-0.96141,-0.06920051,0.63409
752.493,244.187,-0.9624,-0.07030627,0.63333
753.293,244.459,-0.96174,-0.06818895,0.63256
754.093,244.729,-0.96174,-0.0693032,0.6318
754.893,245,-0.96174,-0.06836508,0.63104
755.693,245.27,-0.96244,-0.06984769,0.63027
756.493,245.539,-0.96173,-0.07553573,0.62951
757.293,245.808,-0.96206,-0.07228102,0.62874
758.093,246.078,-0.96206,-0.07189754,0.62797
758.893,246.349,-0.96174,-0.07400009,0.62721
759.693,246.62,-0.96239,-0.07740586,0.62644
760.493,246.893,-0.96239,-0.07137373,0.62567
761.293,247.167,-0.9614,-0.06973956,0.62491
762.093,247.441,-0.96144,-0.07390594,0.62414
762.893,247.714,-0.9639,-0.07294489,0.62337
763.693,247.986,-0.96273,-0.07201911,0.6226
764.493,248.257,-0.9624,-0.06973744,0.62183
765.293,248.528,-0.96237,-0.07280076,0.62106
766.093,248.7996,-0.9624,-0.07381392,0.62028
766.893,249.07,-0.9624,-0.07191649,0.61951
767.693,249.341,-0.9624,-0.06883472,0.61874
768.493,249.611,-0.96239,-0.0744949,0.61797
769.293,249.882,-0.96107,-0.07203069,0.61719
770.093,250.153,-0.9614,-0.07459961,0.61642
770.893,250.424,-0.96268,-0.07129292,0.61565
771.693,250.694,-0.96239,-0.07540244,0.61487
772.493,250.964,-0.96239,-0.07693168,0.6141
773.293,251.234,-0.96306,-0.07382361,0.61332
774.093,251.502,-0.96174,-0.06837675,0.61254
774.893,251.769,-0.96075,-0.0697809,0.61177
775.693,252.037,-0.96205,-0.0779881,0.61099
776.493,252.307,-0.96174,-0.07506004,0.61021
777.293,252.579,-0.96174,-0.07865881,0.60943
778.093,252.85,-0.96207,-0.07221182,0.60866
778.893,253.123,-0.96305,-0.07683885,0.60788
779.693,253.3974,-0.96204,-0.07674532,0.6071
780.493,253.6724,-0.96205,-0.07922964,0.60632
781.293,253.946,-0.96205,-0.07943187,0.60554
782.093,254.219,-0.96074,-0.08093171,0.60476
782.893,254.491,-0.96074,-0.08415962,0.60397
783.693,254.763,-0.96074,-0.07975951,0.60319
784.493,255.0347,-0.96172,-0.08166685,0.60241
785.293,255.306,-0.96174,-0.08190526,0.60163
786.093,255.576,-0.96115,-0.08446608,0.60084
786.893,255.845,-0.96174,-0.08303319,0.60006
787.693,256.114,-0.96241,-0.08265502,0.59928
788.493,256.385,-0.96273,-0.08537089,0.59849
789.293,256.655,-0.96273,-0.08394193,0.59771
790.093,256.925,-0.96174,-0.08510233,0.59692
790.893,257.195,-0.96174,-0.08710905,0.59613
791.693,257.467,-0.96308,-0.09070683,0.59535
792.493,257.739,-0.96074,-0.09076339,0.59456
793.293,258.012,-0.96204,-0.08392437,0.59377
794.093,258.285,-0.96074,-0.08762478,0.59299
794.893,258.555,-0.96173,-0.09004776,0.5922
795.693,258.826,-0.96138,-0.08998883,0.59141
796.493,259.097,-0.96075,-0.09426023,0.59062
797.293,259.369,-0.96147,-0.09191131,0.58983
798.093,259.641,-0.96156,-0.09128261,0.58904
798.893,259.913,-0.96174,-0.09141985,0.58825
799.693,260.184,-0.96174,-0.09137073,0.58746
800.493,260.4554,-0.96065,-0.09238034,0.58667
801.293,260.727,-0.96306,-0.09106016,0.58588
802.093,260.999,-0.96173,-0.09447884,0.58509
802.893,261.27,-0.95947,-0.09464708,0.5843
803.693,261.54,-0.96109,-0.095352,0.5835
804.493,261.81,-0.96108,-0.09465399,0.58271
805.293,262.081,-0.95978,-0.09613629,0.58192
806.093,262.351,-0.96229,-0.09229429,0.58112
806.893,262.622,-0.96108,-0.09310471,0.58033
807.693,262.8923,-0.95976,-0.09212003,0.57954
808.493,263.163,-0.95976,-0.09808394,0.57874
809.293,263.433,-0.96108,-0.09789024,0.57795
810.093,263.705,-0.96108,-0.09704009,0.57715
810.893,263.977,-0.96062,-0.0966849,0.57635
811.693,264.249,-0.95942,-0.10064,0.57556
812.493,264.522,-0.96071,-0.10192,0.57476
813.293,264.794,-0.95981,-0.09574506,0.57396
814.093,265.0651,-0.96176,-0.09965517,0.57317
814.893,265.336,-0.96009,-0.10287,0.57237
815.693,265.608,-0.95925,-0.1004,0.57157
816.493,265.88,-0.95877,-0.09833593,0.57077
817.293,266.152,-0.95877,-0.10127,0.56997
818.093,266.423,-0.95943,-0.09997607,0.56918
818.893,266.695,-0.95884,-0.10264,0.56838
819.693,266.967,-0.95877,-0.10651,0.56758
820.493,267.238,-0.95974,-0.1052,0.56678
821.293,267.509,-0.95949,-0.10579,0.56598
822.093,267.779,-0.95843,-0.1088,0.56518
822.893,268.051,-0.95877,-0.10703,0.56437
823.693,268.324,-0.95877,-0.10734,0.56357
824.493,268.597,-0.95976,-0.11129,0.56277
825.293,268.868,-0.95845,-0.11094,0.56197
826.093,269.14,-0.95818,-0.1107,0.56117
826.893,269.411,-0.95812,-0.10475,0.56036
827.693,269.682,-0.9591,-0.11062,0.55956
828.493,269.954,-0.95646,-0.10888,0.55876
829.293,270.227,-0.95711,-0.10758,0.55795
830.093,270.501,-0.95778,-0.11365,0.55715
830.893,270.774,-0.95778,-0.11267,0.55635
831.693,271.047,-0.95844,-0.11018,0.55554
832.493,271.319,-0.95607,-0.11384,0.55474
833.293,271.59,-0.95779,-0.11161,0.55393
834.093,271.861,-0.95703,-0.11458,0.55313
834.893,272.132,-0.95746,-0.10961,0.55232
835.693,272.402,-0.95847,-0.11363,0.55152
836.493,272.672,-0.95845,-0.11001,0.55071
837.293,272.942,-0.95845,-0.11282,0.5499
838.093,273.2129,-0.95909,-0.11447,0.5491
838.893,273.484,-0.95814,-0.11827,0.54829
839.693,273.757,-0.95943,-0.11755,0.54748
840.493,274.029,-0.95926,-0.1169,0.54668
841.293,274.301,-0.95877,-0.11715,0.54587
842.093,274.573,-0.95891,-0.122,0.54506
842.893,274.846,-0.96042,-0.1217,0.54425
843.693,275.1182,-0.95975,-0.12125,0.54344
844.493,275.39,-0.96122,-0.12228,0.54263
845.293,275.661,-0.96046,-0.12843,0.54183
846.093,275.9335,-0.96042,-0.12423,0.54102
846.893,276.207,-0.96043,-0.12495,0.54021
847.693,276.48,-0.9614,-0.12541,0.5394
848.493,276.7511,-0.96041,-0.12538,0.53859
849.293,277.02,-0.96087,-0.12396,0.53778
850.093,277.289,-0.96074,-0.1315,0.53697
850.893,277.557,-0.9602,-0.13003,0.53616
851.693,277.824,-0.96108,-0.12709,0.53535
852.493,278.095,-0.95979,-0.13239,0.53453
853.293,278.3685,-0.95999,-0.13435,0.53372
854.093,278.642,-0.96012,-0.1352,0.53291
854.893,278.915,-0.9601,-0.1374,0.5321
855.693,279.189,-0.96108,-0.13678,0.53129
856.493,279.463,-0.96108,-0.1379,0.53048
857.293,279.738,-0.96239,-0.13406,0.52966
858.093,280.0118,-0.96239,-0.133,0.52885
858.893,280.286,-0.96109,-0.13838,0.52804
859.693,280.5593,-0.96107,-0.139,0.52723
860.493,280.83,-0.96305,-0.14021,0.52641
861.293,281.101,-0.96173,-0.14127,0.5256
862.093,281.372,-0.96305,-0.14071,0.52479
862.893,281.644,-0.96107,-0.14312,0.52397
863.693,281.915,-0.96239,-0.14432,0.52316
864.493,282.185,-0.96159,-0.14583,0.52234
865.293,282.456,-0.9635,-0.14162,0.52153
866.093,282.727,-0.9616,-0.14399,0.52072
866.893,283,-0.96239,-0.14781,0.5199
867.693,283.273,-0.96239,-0.14409,0.51909
868.493,283.545,-0.96239,-0.14959,0.51827
869.293,283.82,-0.96371,-0.15391,0.51746
870.093,284.094,-0.96238,-0.15398,0.51664
870.893,284.366,-0.96239,-0.15041,0.51583
871.693,284.639,-0.96387,-0.15089,0.51501
872.493,284.913,-0.96408,-0.15846,0.5142
873.293,285.187,-0.96272,-0.15472,0.51338
874.093,285.462,-0.96272,-0.1548,0.51256
874.893,285.735,-0.96371,-0.15838,0.51175
875.693,286.008,-0.96237,-0.16123,0.51093
876.493,286.278,-0.96103,-0.15834,0.51012
877.293,286.547,-0.9624,-0.15934,0.5093
878.093,286.816,-0.96304,-0.16754,0.50848
878.893,287.085,-0.96239,-0.1643,0.50767
879.693,287.353,-0.96305,-0.16821,0.50685
880.493,287.621,-0.96296,-0.1673,0.50603
881.293,287.891,-0.96305,-0.16968,0.50522
882.093,288.164,-0.96371,-0.17349,0.5044
882.893,288.436,-0.96305,-0.17688,0.50358
883.693,288.71,-0.96172,-0.17716,0.50276
884.493,288.983,-0.96339,-0.17698,0.50195
885.293,289.256,-0.96305,-0.17478,0.50113
886.093,289.5298,-0.96269,-0.18412,0.50031
886.893,289.803,-0.96515,-0.17278,0.49949
887.693,290.077,-0.96341,-0.16842,0.49868
888.493,290.352,-0.96338,-0.17199,0.49786
889.293,290.624,-0.96371,-0.17025,0.49704
890.093,290.895,-0.96243,-0.17943,0.49622
890.893,291.166,-0.9624,-0.18306,0.4954
891.693,291.436,-0.96371,-0.17845,0.49459
892.493,291.706,-0.96305,-0.18263,0.49377
893.293,291.976,-0.96447,-0.18202,0.49295
894.093,292.248,-0.9647,-0.18761,0.49213
894.893,292.52,-0.96338,-0.18531,0.49131
895.693,292.793,-0.96404,-0.18983,0.49049
896.493,293.0671,-0.96404,-0.19121,0.48968
897.193,293.307,-0.96503,-0.19123,0.48896