File: 01_Data/Memory_Foam_Carpet_Pad/MCC/Memory_Foam_Carpet_Pad_MCC_30K_min_211102_R3.txt
Sample ID:	C:\MCC\MCC Cal\Test\Memory_Foam_Carpet_Pad_MCC_30K_min_211102_R3.txt
Sample Weight (mg):	4.25
Heating Rate (C/s):	0.5
Combustor Temp (C):	900
N2 Flow Rate (cc/min):	80
O2 Flow Rate (cc/min):	20
Calibration File:	C:\MCC\MCC Cal\Coeff1 JN10440_30_210304.txt.txt
T Correction Coefficients:	0	1.024463	0
Time Shift (s):	14
*
Time (s)	Temperature (C)	N2 flow rate (cc/min)	O2 flow rate (cc/min)	Flow Rate (cc/min)	Oxygen (%)	HRR (W/g)	Heating rate (C/s)
-0.001	108.208	80.003	19.994	103.062	20.143	-0.039	-0.000
2.000	108.201	80.004	19.995	103.060	20.145	-0.198	0.015
4.000	108.198	80.003	19.995	103.061	20.141	0.060	-0.001
6.000	108.175	80.004	19.994	103.063	20.142	-0.023	-0.034
8.000	108.139	80.003	19.994	103.065	20.138	0.315	-0.040
9.999	108.157	80.003	19.994	103.066	20.140	0.117	0.006
12.000	108.177	80.003	19.994	103.066	20.136	0.418	-0.004
13.999	108.199	80.004	19.994	103.067	20.136	0.425	0.024
15.999	108.182	80.003	19.995	103.074	20.138	0.332	-0.008
17.999	108.194	80.005	19.994	103.083	20.134	0.621	0.021
19.999	108.237	80.005	19.994	103.100	20.134	0.580	0.011
22.000	108.219	80.006	19.994	103.084	20.132	0.770	-0.012
24.000	108.283	80.004	19.994	103.112	20.129	0.960	0.013
25.999	108.327	80.004	19.996	103.172	20.125	1.288	0.028
28.000	108.401	80.005	19.994	103.210	20.116	1.983	0.067
29.999	108.548	80.004	19.996	103.235	20.112	2.278	0.066
31.999	108.708	80.004	19.996	103.250	20.106	2.745	0.076
33.999	108.897	80.004	19.994	103.245	20.108	2.551	0.115
35.999	109.125	80.005	19.995	103.249	20.104	2.893	0.124
37.999	109.388	80.003	19.996	103.243	20.103	2.951	0.116
39.999	109.711	80.005	19.995	103.236	20.107	2.641	0.148
42.000	109.968	80.005	19.995	103.231	20.104	2.879	0.148
43.999	110.291	80.007	19.993	103.244	20.103	2.939	0.158
45.999	110.633	80.008	19.995	103.240	20.101	3.098	0.187
47.999	111.028	80.007	19.993	103.223	20.105	2.772	0.198
49.999	111.372	80.006	19.994	103.221	20.103	2.991	0.175
51.999	111.798	80.005	19.994	103.224	20.099	3.222	0.226
53.999	112.202	80.005	19.993	103.236	20.103	2.942	0.232
55.999	112.632	80.003	19.993	103.236	20.102	2.995	0.192
57.999	113.062	80.003	19.994	103.254	20.100	3.149	0.221
59.999	113.466	80.004	19.994	103.256	20.100	3.165	0.194
62.000	113.998	80.005	19.994	103.260	20.100	3.159	0.266
63.999	114.497	80.002	19.995	103.259	20.097	3.419	0.268
65.999	115.000	80.003	19.994	103.265	20.095	3.581	0.274
67.999	115.501	80.004	19.994	103.279	20.094	3.651	0.247
69.999	116.105	80.003	19.994	103.285	20.094	3.616	0.312
72.000	116.650	80.003	19.994	103.296	20.094	3.666	0.284
73.999	117.244	80.004	19.992	103.288	20.093	3.678	0.301
75.999	117.863	80.005	19.995	103.292	20.090	3.955	0.334
77.999	118.460	80.004	19.994	103.296	20.093	3.678	0.301
79.999	119.097	80.002	19.994	103.299	20.090	3.965	0.317
82.001	119.747	80.004	19.995	103.301	20.091	3.897	0.353
83.999	120.443	80.003	19.994	103.301	20.089	3.984	0.367
85.999	121.037	80.004	19.995	103.301	20.087	4.173	0.318
87.999	121.841	80.002	19.994	103.308	20.090	3.913	0.390
89.999	122.519	80.001	19.994	103.301	20.086	4.238	0.355
91.999	123.284	80.002	19.994	103.299	20.089	4.029	0.383
93.999	123.994	80.004	19.994	103.299	20.088	4.097	0.351
95.999	124.758	80.003	19.995	103.295	20.086	4.252	0.383
97.999	125.502	80.003	19.995	103.290	20.087	4.161	0.369
100.000	126.289	80.006	19.995	103.304	20.087	4.180	0.413
101.999	127.065	80.004	19.994	103.299	20.089	4.025	0.403
103.999	127.869	80.005	19.994	103.296	20.086	4.265	0.392
105.999	128.700	80.006	19.995	103.296	20.086	4.226	0.417
107.999	129.503	80.006	19.993	103.299	20.087	4.168	0.442
109.999	130.354	80.005	19.995	103.300	20.084	4.413	0.414
112.000	131.156	80.004	19.994	103.310	20.082	4.546	0.394
113.999	131.990	80.005	19.994	103.311	20.082	4.529	0.406
115.999	132.865	80.004	19.995	103.320	20.081	4.599	0.422
117.999	133.716	80.003	19.995	103.309	20.079	4.748	0.430
119.999	134.572	80.003	19.995	103.301	20.084	4.374	0.442
121.999	135.498	80.004	19.996	103.308	20.081	4.601	0.474
123.999	136.358	80.004	19.995	103.300	20.082	4.516	0.418
125.999	137.200	80.004	19.995	103.298	20.084	4.430	0.415
127.999	138.143	80.004	19.994	103.298	20.085	4.293	0.480
130.000	139.053	80.004	19.994	103.298	20.086	4.266	0.490
132.000	139.954	80.005	19.995	103.306	20.079	4.752	0.450
134.000	140.911	80.005	19.993	103.308	20.081	4.611	0.501
136.000	141.789	80.005	19.993	103.302	20.083	4.504	0.420
138.000	142.750	80.005	19.994	103.300	20.081	4.611	0.458
140.000	143.718	80.002	19.993	103.299	20.080	4.681	0.484
142.000	144.647	80.002	19.994	103.300	20.081	4.611	0.474
144.000	145.591	80.003	19.994	103.301	20.081	4.650	0.500
146.000	146.524	80.004	19.994	103.302	20.078	4.890	0.462
148.000	147.483	80.003	19.994	103.298	20.074	5.136	0.464
150.000	148.457	80.003	19.994	103.296	20.075	5.096	0.500
152.000	149.447	80.004	19.994	103.296	20.078	4.846	0.461
154.000	150.400	80.003	19.994	103.297	20.078	4.867	0.490
156.000	151.390	80.003	19.994	103.296	20.077	4.933	0.481
158.000	152.332	80.005	19.993	103.297	20.076	5.036	0.473
160.000	153.267	80.003	19.995	103.295	20.078	4.881	0.465
162.000	154.221	80.004	19.994	103.296	20.073	5.249	0.464
164.000	155.189	80.005	19.995	103.285	20.074	5.147	0.483
166.000	156.164	80.003	19.995	103.293	20.074	5.145	0.499
168.000	157.187	80.003	19.994	103.290	20.076	5.029	0.504
170.000	158.145	80.004	19.993	103.288	20.074	5.175	0.475
172.000	159.117	80.004	19.996	103.291	20.070	5.443	0.499
174.000	160.092	80.004	19.994	103.286	20.072	5.271	0.516
176.000	161.091	80.005	19.995	103.272	20.070	5.432	0.511
178.000	162.053	80.003	19.994	103.273	20.070	5.444	0.486
180.000	163.091	80.004	19.993	103.283	20.069	5.566	0.551
182.000	164.049	80.002	19.994	103.293	20.068	5.628	0.509
184.000	165.051	80.005	19.994	103.285	20.066	5.747	0.490
186.000	166.042	80.005	19.995	103.278	20.066	5.760	0.476
188.000	167.045	80.005	19.994	103.278	20.068	5.607	0.494
190.000	168.021	80.005	19.995	103.274	20.066	5.766	0.478
192.000	169.057	80.005	19.994	103.272	20.067	5.712	0.511
194.000	170.054	80.004	19.995	103.272	20.067	5.712	0.497
196.000	171.026	80.004	19.994	103.276	20.065	5.820	0.501
198.000	172.009	80.003	19.994	103.276	20.063	5.976	0.484
200.000	173.049	80.004	19.994	103.271	20.065	5.859	0.510
202.000	174.055	80.004	19.993	103.270	20.061	6.158	0.492
204.000	175.053	80.003	19.994	103.266	20.061	6.106	0.483
206.000	176.059	80.004	19.994	103.269	20.060	6.217	0.495
208.000	177.074	80.004	19.995	103.265	20.059	6.312	0.504
210.000	178.064	80.005	19.994	103.269	20.059	6.259	0.500
212.000	179.072	80.005	19.993	103.260	20.058	6.360	0.506
214.000	180.063	80.005	19.995	103.260	20.054	6.680	0.468
216.000	181.077	80.005	19.994	103.258	20.054	6.632	0.467
218.000	182.111	80.004	19.995	103.257	20.056	6.548	0.497
220.000	183.106	80.004	19.995	103.260	20.056	6.525	0.517
222.000	184.089	80.004	19.995	103.257	20.053	6.775	0.499
224.000	185.120	80.003	19.994	103.257	20.051	6.897	0.537
226.000	186.146	80.003	19.994	103.257	20.049	7.080	0.506
228.000	187.185	80.004	19.995	103.258	20.048	7.148	0.504
230.000	188.177	80.003	19.995	103.258	20.045	7.334	0.508
232.000	189.152	80.004	19.994	103.258	20.044	7.410	0.492
234.000	190.173	80.003	19.994	103.261	20.042	7.549	0.515
236.000	191.198	80.004	19.994	103.254	20.044	7.450	0.524
238.000	192.192	80.004	19.994	103.252	20.038	7.893	0.523
240.000	193.202	80.005	19.995	103.256	20.038	7.895	0.492
242.000	194.196	80.004	19.995	103.252	20.038	7.877	0.512
244.000	195.194	80.004	19.995	103.254	20.037	7.945	0.495
246.000	196.205	80.002	19.994	103.254	20.035	8.132	0.497
248.000	197.165	80.004	19.994	103.252	20.030	8.521	0.501
250.000	198.187	80.003	19.995	103.246	20.030	8.495	0.520
252.000	199.191	80.003	19.994	103.254	20.029	8.538	0.511
254.000	200.181	80.003	19.994	103.250	20.027	8.737	0.510
256.000	201.171	80.004	19.994	103.245	20.026	8.756	0.481
258.000	202.163	80.002	19.995	103.243	20.026	8.802	0.499
260.000	203.113	80.002	19.994	103.232	20.024	8.916	0.479
262.000	204.125	80.002	19.994	103.241	20.025	8.887	0.487
264.000	205.113	80.002	19.994	103.245	20.021	9.177	0.496
266.000	206.137	80.004	19.994	103.246	20.017	9.461	0.527
268.000	207.103	80.003	19.994	103.258	20.014	9.711	0.475
270.000	208.159	80.005	19.994	103.250	20.011	9.949	0.533
272.000	209.138	80.004	19.993	103.243	20.006	10.336	0.492
274.000	210.101	80.004	19.994	103.242	20.007	10.218	0.459
276.000	211.116	80.006	19.993	103.243	20.004	10.433	0.514
278.000	212.110	80.004	19.995	103.244	20.000	10.773	0.501
280.000	213.096	80.003	19.995	103.242	19.998	10.941	0.495
282.000	214.087	80.005	19.995	103.244	19.996	11.053	0.533
284.000	215.085	80.003	19.994	103.242	19.990	11.482	0.509
286.000	216.007	80.004	19.996	103.232	19.991	11.429	0.499
288.000	217.019	80.003	19.995	103.239	19.984	11.953	0.503
290.000	217.989	80.004	19.995	103.234	19.981	12.218	0.493
292.000	218.982	80.005	19.994	103.235	19.977	12.520	0.476
294.000	219.966	80.005	19.995	103.231	19.974	12.730	0.491
296.000	220.967	80.006	19.994	103.234	19.969	13.072	0.502
298.000	221.923	80.005	19.994	103.236	19.965	13.395	0.474
300.000	222.973	80.007	19.994	103.235	19.958	13.918	0.532
302.000	223.927	80.006	19.994	103.240	19.955	14.181	0.465
304.000	224.968	80.005	19.994	103.219	19.951	14.464	0.494
306.000	225.924	80.003	19.994	103.227	19.944	14.997	0.503
308.000	226.935	80.003	19.995	103.233	19.938	15.485	0.510
310.000	227.924	80.002	19.995	103.246	19.931	16.000	0.457
312.000	228.924	80.003	19.995	103.248	19.926	16.388	0.490
314.000	229.912	80.002	19.995	103.240	19.921	16.773	0.518
316.000	230.880	80.002	19.995	103.246	19.913	17.387	0.471
318.000	231.884	80.003	19.995	103.236	19.909	17.635	0.512
320.000	232.828	80.002	19.996	103.237	19.902	18.184	0.484
322.000	233.845	80.004	19.994	103.246	19.896	18.650	0.479
324.000	234.821	80.003	19.995	103.237	19.888	19.254	0.464
326.000	235.844	80.005	19.995	103.235	19.880	19.896	0.525
328.000	236.810	80.004	19.993	103.244	19.874	20.314	0.478
330.000	237.765	80.004	19.994	103.252	19.865	21.020	0.508
332.000	238.775	80.002	19.995	103.243	19.856	21.645	0.498
334.000	239.718	80.003	19.994	103.257	19.847	22.373	0.476
336.000	240.673	80.003	19.995	103.261	19.838	23.059	0.465
338.000	241.659	80.003	19.994	103.263	19.829	23.753	0.485
340.000	242.661	80.002	19.994	103.268	19.819	24.456	0.487
342.000	243.681	80.002	19.995	103.266	19.813	24.912	0.502
344.000	244.624	80.003	19.995	103.262	19.800	25.922	0.476
346.000	245.628	80.004	19.995	103.269	19.791	26.585	0.474
348.000	246.634	80.002	19.995	103.265	19.779	27.498	0.524
350.000	247.620	80.004	19.994	103.264	19.767	28.395	0.471
352.000	248.607	80.003	19.995	103.262	19.757	29.158	0.493
354.000	249.613	80.005	19.994	103.264	19.747	29.972	0.515
356.000	250.667	80.005	19.994	103.279	19.734	30.915	0.505
358.000	251.650	80.005	19.995	103.287	19.722	31.848	0.503
360.000	252.660	80.006	19.993	103.280	19.709	32.800	0.507
362.000	253.636	80.005	19.994	103.284	19.698	33.668	0.481
364.000	254.632	80.006	19.994	103.293	19.684	34.761	0.508
366.000	255.624	80.005	19.994	103.297	19.672	35.652	0.518
368.000	256.588	80.005	19.994	103.296	19.655	36.914	0.474
370.000	257.628	80.004	19.996	103.300	19.643	37.874	0.509
372.000	258.624	80.005	19.994	103.301	19.630	38.859	0.503
374.000	259.617	80.005	19.994	103.299	19.616	39.870	0.503
376.000	260.608	80.006	19.995	103.304	19.608	40.520	0.502
378.000	261.593	80.005	19.995	103.309	19.594	41.567	0.477
380.000	262.619	80.006	19.994	103.310	19.582	42.468	0.504
382.000	263.595	80.006	19.995	103.310	19.567	43.626	0.465
384.000	264.578	80.006	19.995	103.328	19.557	44.391	0.512
386.000	265.582	80.006	19.995	103.325	19.545	45.315	0.516
388.000	266.579	80.005	19.995	103.325	19.534	46.159	0.510
390.000	267.619	80.003	19.995	103.326	19.524	46.859	0.495
392.000	268.611	80.003	19.995	103.332	19.514	47.660	0.510
394.000	269.622	80.004	19.994	103.336	19.503	48.495	0.483
396.000	270.706	80.003	19.995	103.336	19.495	49.045	0.539
398.000	271.674	80.003	19.995	103.336	19.490	49.450	0.487
400.000	272.708	80.003	19.995	103.337	19.487	49.674	0.486
402.000	273.710	80.003	19.995	103.338	19.483	49.972	0.490
404.000	274.739	80.002	19.995	103.339	19.489	49.552	0.530
406.000	275.748	80.002	19.995	103.336	19.492	49.329	0.525
408.000	276.754	80.003	19.995	103.331	19.503	48.464	0.521
410.000	277.743	80.002	19.995	103.306	19.511	47.863	0.490
412.000	278.754	80.002	19.995	103.312	19.525	46.812	0.492
414.000	279.750	80.002	19.995	103.326	19.540	45.623	0.500
416.000	280.741	80.002	19.995	103.325	19.558	44.285	0.492
418.000	281.761	80.004	19.996	103.310	19.573	43.143	0.496
420.000	282.756	80.002	19.994	103.302	19.589	41.907	0.497
422.000	283.721	80.002	19.994	103.313	19.604	40.805	0.502
424.000	284.710	80.002	19.995	103.302	19.616	39.900	0.485
426.000	285.716	80.004	19.993	103.314	19.618	39.726	0.492
428.000	286.708	80.003	19.994	103.310	19.620	39.552	0.476
430.000	287.711	80.004	19.994	103.305	19.623	39.344	0.494
432.000	288.718	80.002	19.995	103.297	19.622	39.409	0.524
434.000	289.680	80.003	19.995	103.297	19.625	39.194	0.520
436.000	290.690	80.004	19.994	103.295	19.623	39.386	0.539
438.000	291.684	80.006	19.994	103.294	19.620	39.614	0.549
440.000	292.652	80.007	19.993	103.301	19.615	39.938	0.505
442.000	293.666	80.006	19.994	103.299	19.610	40.359	0.504
444.000	294.666	80.004	19.994	103.311	19.606	40.682	0.537
446.000	295.647	80.003	19.993	103.315	19.607	40.541	0.517
448.000	296.653	80.005	19.994	103.298	19.604	40.803	0.506
450.000	297.679	80.005	19.994	103.298	19.604	40.806	0.520
452.000	298.694	80.005	19.995	103.305	19.605	40.711	0.484
454.000	299.648	80.003	19.994	103.304	19.604	40.818	0.490
456.000	300.641	80.003	19.994	103.304	19.601	41.043	0.506
458.000	301.634	80.005	19.994	103.303	19.596	41.417	0.501
460.000	302.641	80.008	19.996	103.303	19.596	41.422	0.480
462.000	303.666	80.005	19.994	103.308	19.597	41.339	0.492
464.000	304.709	80.006	19.994	103.301	19.596	41.378	0.535
466.000	305.735	80.005	19.995	103.299	19.596	41.410	0.501
468.000	306.677	80.007	19.993	103.310	19.595	41.503	0.478
470.000	307.754	80.007	19.994	103.299	19.599	41.194	0.520
472.000	308.740	80.004	19.994	103.301	19.606	40.627	0.509
474.000	309.726	80.004	19.995	103.297	19.609	40.416	0.521
476.000	310.762	80.003	19.994	103.296	19.604	40.793	0.519
478.000	311.822	80.004	19.996	103.298	19.619	39.669	0.537
480.000	312.841	80.003	19.995	103.296	19.613	40.116	0.530
482.000	313.826	80.004	19.994	103.287	19.614	40.017	0.512
484.000	314.842	80.003	19.994	103.291	19.615	39.947	0.543
486.000	315.822	80.006	19.995	103.292	19.617	39.801	0.489
488.000	316.947	80.003	19.994	103.292	19.612	40.178	0.575
490.000	317.961	80.003	19.994	103.295	19.615	39.959	0.466
492.000	319.009	80.006	19.996	103.292	19.608	40.484	0.469
494.000	319.900	80.002	19.995	103.295	19.602	40.936	0.372
496.000	320.936	80.003	19.995	103.293	19.599	41.178	0.539
498.000	321.904	80.004	19.995	103.294	19.591	41.745	0.541
500.000	323.034	80.003	19.995	103.275	19.592	41.686	0.528
502.000	323.929	80.006	19.996	103.280	19.581	42.549	0.505
504.000	325.028	80.003	19.996	103.275	19.576	42.913	0.505
506.000	326.016	80.001	19.996	103.284	19.567	43.630	0.505
508.000	327.042	80.002	19.996	103.281	19.565	43.719	0.497
510.000	328.033	80.002	19.996	103.267	19.557	44.365	0.494
512.000	329.028	80.002	19.996	103.266	19.550	44.884	0.502
514.000	330.052	80.004	19.996	103.271	19.544	45.300	0.532
516.000	331.001	80.001	19.995	103.282	19.537	45.843	0.479
518.000	331.986	80.004	19.994	103.284	19.531	46.344	0.470
520.000	333.029	80.005	19.994	103.285	19.527	46.641	0.504
522.000	334.042	80.004	19.994	103.284	19.522	46.996	0.500
524.000	335.069	80.007	19.994	103.274	19.517	47.413	0.508
526.000	336.074	80.005	19.995	103.264	19.510	47.888	0.520
528.000	337.107	80.004	19.994	103.270	19.506	48.209	0.530
530.000	338.067	80.003	19.994	103.274	19.501	48.553	0.495
532.000	339.101	80.003	19.992	103.266	19.501	48.595	0.507
534.000	340.144	80.005	19.995	103.262	19.492	49.270	0.521
536.000	341.165	80.004	19.993	103.260	19.490	49.382	0.521
538.000	342.144	80.005	19.994	103.261	19.488	49.584	0.525
540.000	343.115	80.005	19.995	103.258	19.491	49.341	0.461
542.000	344.126	80.005	19.994	103.256	19.488	49.567	0.481
544.000	345.161	80.005	19.995	103.251	19.484	49.885	0.503
546.000	346.134	80.006	19.995	103.251	19.481	50.108	0.511
548.000	347.130	80.007	19.994	103.252	19.481	50.097	0.491
550.000	348.103	80.007	19.994	103.245	19.476	50.487	0.513
552.000	349.107	80.007	19.994	103.243	19.475	50.574	0.492
554.000	350.149	80.006	19.995	103.245	19.471	50.817	0.502
556.000	351.112	80.004	19.994	103.246	19.469	50.962	0.482
558.000	352.100	80.004	19.995	103.243	19.463	51.444	0.505
560.000	353.102	80.004	19.994	103.237	19.455	52.033	0.488
562.000	354.110	80.004	19.994	103.240	19.449	52.525	0.518
564.000	355.065	80.004	19.995	103.235	19.442	53.025	0.506
566.000	356.006	80.003	19.994	103.225	19.435	53.614	0.461
568.000	356.982	80.003	19.995	103.234	19.427	54.194	0.490
570.000	357.948	80.005	19.994	103.238	19.414	55.172	0.497
572.000	358.922	80.004	19.995	103.235	19.400	56.265	0.470
574.000	359.887	80.004	19.995	103.238	19.387	57.192	0.482
576.000	360.807	80.003	19.995	103.241	19.371	58.453	0.480
578.000	361.769	80.004	19.995	103.252	19.350	60.037	0.488
580.000	362.749	80.005	19.996	103.239	19.332	61.382	0.468
582.000	363.738	80.005	19.995	103.244	19.313	62.801	0.470
584.000	364.685	80.003	19.995	103.241	19.290	64.574	0.464
586.000	365.640	80.003	19.995	103.225	19.265	66.455	0.471
588.000	366.602	80.004	19.994	103.226	19.239	68.453	0.463
590.000	367.541	80.003	19.995	103.242	19.212	70.511	0.470
592.000	368.498	80.003	19.995	103.238	19.181	72.811	0.488
594.000	369.444	80.001	19.995	103.236	19.154	74.885	0.495
596.000	370.469	80.002	19.995	103.246	19.121	77.412	0.469
598.000	371.476	80.003	19.994	103.247	19.088	79.884	0.514
600.000	372.443	80.002	19.996	103.238	19.052	82.636	0.471
602.000	373.520	80.003	19.996	103.242	19.020	85.016	0.517
604.000	374.533	80.004	19.994	103.240	18.982	87.940	0.518
606.000	375.535	80.005	19.995	103.246	18.941	90.999	0.501
608.000	376.560	80.007	19.995	103.249	18.902	93.952	0.530
610.000	377.603	80.006	19.994	103.245	18.863	96.935	0.524
612.000	378.658	80.005	19.994	103.253	18.818	100.340	0.542
614.000	379.716	80.004	19.995	103.254	18.777	103.412	0.527
616.000	380.786	80.005	19.994	103.242	18.732	106.833	0.508
618.000	381.849	80.005	19.995	103.243	18.692	109.865	0.521
620.000	382.911	80.005	19.994	103.230	18.639	113.864	0.526
622.000	384.001	80.005	19.995	103.227	18.595	117.261	0.524
624.000	385.052	80.007	19.994	103.233	18.549	120.720	0.583
626.000	386.102	80.006	19.994	103.227	18.503	124.211	0.513
628.000	387.165	80.006	19.994	103.222	18.458	127.578	0.542
630.000	388.247	80.007	19.994	103.219	18.413	130.966	0.526
632.000	389.305	80.006	19.995	103.221	18.369	134.324	0.536
634.000	390.368	80.007	19.995	103.223	18.328	137.419	0.526
636.000	391.440	80.006	19.995	103.220	18.295	139.878	0.554
638.000	392.523	80.004	19.995	103.217	18.262	142.420	0.558
640.000	393.591	80.006	19.994	103.214	18.225	145.211	0.547
642.000	394.650	80.003	19.994	103.200	18.204	146.746	0.536
644.000	395.729	80.004	19.994	103.205	18.186	148.076	0.545
646.000	396.772	80.003	19.993	103.184	18.169	149.393	0.528
648.000	397.829	80.002	19.995	103.182	18.159	150.122	0.528
650.000	398.894	80.005	19.993	103.173	18.159	150.096	0.538
652.000	399.942	80.003	19.993	103.155	18.163	149.780	0.505
654.000	400.990	80.004	19.994	103.145	18.176	148.847	0.517
656.000	402.045	80.003	19.994	103.144	18.194	147.461	0.528
658.000	403.116	80.004	19.993	103.131	18.225	145.128	0.546
660.000	404.123	80.003	19.994	103.132	18.259	142.538	0.502
662.000	405.174	80.005	19.994	103.120	18.297	139.667	0.487
664.000	406.198	80.005	19.994	103.111	18.340	136.392	0.515
666.000	407.231	80.003	19.995	103.108	18.387	132.834	0.516
668.000	408.257	80.003	19.994	103.107	18.448	128.214	0.517
670.000	409.291	80.003	19.994	103.103	18.509	123.603	0.500
672.000	410.361	80.005	19.996	103.103	18.572	118.855	0.515
674.000	411.381	80.003	19.995	103.100	18.636	113.953	0.519
676.000	412.379	80.004	19.995	103.100	18.704	108.870	0.522
678.000	413.398	80.004	19.995	103.100	18.770	103.857	0.476
680.000	414.383	80.004	19.995	103.100	18.837	98.788	0.501
682.000	415.410	80.004	19.994	103.102	18.900	94.007	0.514
684.000	416.408	80.004	19.995	103.103	18.966	89.028	0.481
686.000	417.451	80.007	19.994	103.103	19.034	83.894	0.507
688.000	418.454	80.006	19.995	103.104	19.097	79.116	0.497
690.000	419.461	80.006	19.996	103.103	19.158	74.506	0.481
692.000	420.446	80.006	19.995	103.106	19.219	69.901	0.484
694.000	421.451	80.005	19.997	103.104	19.279	65.319	0.498
696.000	422.412	80.005	19.995	103.100	19.332	61.335	0.472
698.000	423.378	80.005	19.995	103.107	19.382	57.561	0.460
700.000	424.406	80.005	19.993	103.105	19.428	54.022	0.507
702.000	425.387	80.006	19.995	103.119	19.478	50.264	0.499
704.000	426.379	80.007	19.996	103.115	19.521	47.006	0.493
706.000	427.357	80.006	19.995	103.123	19.567	43.552	0.485
708.000	428.419	80.005	19.995	103.135	19.608	40.460	0.514
710.000	429.354	80.007	19.994	103.136	19.645	37.632	0.500
712.000	430.321	80.007	19.995	103.130	19.676	35.292	0.473
714.000	431.341	80.006	19.995	103.137	19.710	32.694	0.495
716.000	432.313	80.008	19.992	103.139	19.737	30.641	0.473
718.000	433.315	80.006	19.991	103.146	19.765	28.544	0.490
720.000	434.359	80.006	19.994	103.145	19.787	26.886	0.526
722.000	435.372	80.004	19.994	103.144	19.805	25.492	0.515
724.000	436.370	80.003	19.993	103.148	19.831	23.582	0.501
726.000	437.346	80.004	19.994	103.153	19.843	22.658	0.488
728.000	438.369	80.003	19.994	103.157	19.860	21.373	0.464
730.000	439.359	80.005	19.994	103.165	19.874	20.298	0.498
732.000	440.357	80.004	19.995	103.156	19.887	19.302	0.485
734.000	441.371	80.004	19.995	103.151	19.901	18.280	0.491
736.000	442.346	80.003	19.994	103.158	19.907	17.802	0.504
738.000	443.388	80.005	19.993	103.164	19.912	17.416	0.498
740.000	444.383	80.005	19.994	103.167	19.922	16.655	0.482
742.000	445.410	80.004	19.994	103.153	19.932	15.918	0.505
744.000	446.392	80.005	19.994	103.148	19.939	15.381	0.513
746.000	447.419	80.004	19.994	103.164	19.944	15.031	0.489
748.000	448.421	80.005	19.994	103.153	19.951	14.430	0.518
750.000	449.402	80.006	19.996	103.160	19.954	14.204	0.486
752.000	450.430	80.006	19.994	103.174	19.958	13.919	0.499
754.000	451.458	80.005	19.995	103.163	19.959	13.825	0.534
756.000	452.446	80.003	19.994	103.169	19.959	13.828	0.478
758.000	453.448	80.002	19.995	103.161	19.964	13.470	0.492
760.000	454.491	80.005	19.995	103.169	19.966	13.296	0.515
762.000	455.536	80.004	19.996	103.163	19.967	13.261	0.538
764.000	456.547	80.004	19.995	103.165	19.965	13.366	0.487
766.000	457.557	80.004	19.994	103.156	19.966	13.354	0.479
768.000	458.570	80.006	19.995	103.163	19.967	13.249	0.504
770.000	459.623	80.007	19.995	103.162	19.964	13.463	0.522
772.000	460.638	80.006	19.995	103.148	19.964	13.507	0.518
774.000	461.667	80.006	19.994	103.156	19.960	13.818	0.515
776.000	462.626	80.005	19.993	103.157	19.962	13.609	0.489
778.000	463.658	80.005	19.995	103.148	19.957	14.013	0.496
780.000	464.647	80.004	19.994	103.149	19.954	14.227	0.484
782.000	465.704	80.005	19.997	103.151	19.952	14.360	0.514
784.000	466.708	80.004	19.996	103.156	19.951	14.494	0.505
786.000	467.726	80.005	19.996	103.149	19.948	14.681	0.522
788.000	468.713	80.004	19.997	103.146	19.946	14.827	0.503
790.000	469.719	80.006	20.000	103.147	19.943	15.034	0.503
792.000	470.729	80.005	19.996	103.155	19.943	15.044	0.501
794.000	471.743	80.005	19.995	103.146	19.939	15.374	0.494
796.000	472.764	80.007	19.995	103.144	19.938	15.451	0.498
798.000	473.795	80.007	19.994	103.142	19.934	15.773	0.527
800.000	474.789	80.006	19.994	103.142	19.933	15.828	0.525
802.000	475.796	80.007	19.995	103.143	19.931	15.951	0.509
804.000	476.776	80.006	19.994	103.141	19.928	16.169	0.485
806.000	477.786	80.006	19.994	103.146	19.925	16.430	0.499
808.000	478.852	80.005	19.995	103.149	19.927	16.299	0.532
810.000	479.821	80.005	19.993	103.146	19.926	16.346	0.486
812.000	480.828	80.004	19.994	103.143	19.928	16.208	0.516
814.000	481.886	80.004	19.995	103.149	19.931	15.969	0.515
816.000	482.926	80.005	19.995	103.155	19.931	15.975	0.521
818.000	483.920	80.005	19.993	103.159	19.935	15.669	0.535
820.000	484.909	80.005	19.994	103.152	19.937	15.530	0.505
822.000	485.958	80.004	19.996	103.143	19.939	15.361	0.505
824.000	487.027	80.005	19.996	103.153	19.944	14.959	0.540
826.000	488.046	80.006	19.996	103.152	19.950	14.562	0.499
828.000	489.118	80.005	19.994	103.147	19.957	14.005	0.527
830.000	490.145	80.005	19.995	103.144	19.965	13.424	0.508
832.000	491.219	80.005	19.992	103.139	19.971	12.937	0.519
834.000	492.268	80.003	19.995	103.141	19.976	12.575	0.525
836.000	493.323	80.004	19.994	103.146	19.983	12.009	0.546
838.000	494.371	80.006	19.993	103.149	19.991	11.436	0.520
840.000	495.439	80.004	19.995	103.157	20.001	10.640	0.529
842.000	496.474	80.003	19.992	103.167	20.008	10.123	0.519
844.000	497.564	80.003	19.994	103.158	20.011	9.884	0.506
846.000	498.608	80.003	19.995	103.159	20.023	8.997	0.528
848.000	499.614	80.004	19.994	103.165	20.027	8.731	0.497
850.000	500.667	80.004	19.995	103.162	20.036	8.018	0.507
852.000	501.715	80.003	19.995	103.165	20.037	7.936	0.554
854.000	502.769	80.005	19.994	103.163	20.047	7.173	0.551
856.000	503.781	80.005	19.995	103.145	20.050	6.972	0.483
858.000	504.795	80.005	19.997	103.159	20.054	6.679	0.493
860.000	505.812	80.006	19.997	103.168	20.058	6.401	0.537
862.000	506.845	80.005	19.995	103.162	20.054	6.631	0.497
864.000	507.879	80.004	19.995	103.161	20.060	6.220	0.504
866.000	508.865	80.003	19.994	103.163	20.060	6.223	0.485
868.000	509.880	80.005	19.994	103.092	20.064	5.876	0.493
870.000	510.920	80.005	19.995	103.197	20.062	6.022	0.526
872.000	511.928	80.004	19.995	103.186	20.066	5.783	0.510
874.000	512.915	80.006	19.994	103.167	20.068	5.621	0.503
876.000	513.927	80.006	19.995	103.151	20.065	5.817	0.529
878.000	514.940	80.007	19.995	103.160	20.067	5.648	0.492
880.000	515.954	80.007	19.996	103.171	20.068	5.574	0.490
882.000	516.954	80.006	19.996	103.169	20.070	5.482	0.483
884.000	517.992	80.007	19.995	103.161	20.071	5.391	0.516
886.000	518.993	80.007	19.995	103.153	20.071	5.389	0.495
888.000	519.988	80.005	19.995	103.148	20.069	5.511	0.493
890.000	520.959	80.004	19.995	103.159	20.070	5.474	0.468
892.000	521.955	80.005	19.994	103.165	20.070	5.472	0.478
894.000	522.951	80.004	19.996	103.168	20.073	5.244	0.493
896.000	523.971	80.005	19.995	103.165	20.070	5.416	0.507
898.000	524.982	80.002	19.994	103.165	20.070	5.424	0.505
900.000	526.022	80.004	19.994	103.173	20.066	5.764	0.527
902.000	527.018	80.004	19.994	103.161	20.069	5.548	0.503
904.000	528.019	80.004	19.994	103.165	20.072	5.298	0.517
906.000	529.030	80.004	19.994	103.162	20.071	5.374	0.483
908.000	530.096	80.004	19.995	103.166	20.073	5.236	0.540
910.000	531.101	80.004	19.995	103.162	20.071	5.391	0.519
912.000	532.150	80.005	19.995	103.168	20.068	5.625	0.540
914.000	533.116	80.005	19.995	103.164	20.070	5.446	0.513
916.000	534.142	80.004	19.995	103.168	20.067	5.659	0.508
918.000	535.160	80.005	19.994	103.156	20.072	5.315	0.521
920.000	536.202	80.003	19.994	103.157	20.071	5.406	0.494
922.000	537.232	80.005	19.994	103.175	20.068	5.614	0.517
924.000	538.232	80.004	19.994	103.166	20.072	5.270	0.483
926.000	539.262	80.005	19.994	103.157	20.074	5.185	0.492
928.000	540.299	80.003	19.996	103.177	20.066	5.752	0.515
930.000	541.296	80.004	19.993	103.173	20.071	5.401	0.512
932.000	542.332	80.005	19.994	103.169	20.072	5.298	0.504
934.000	543.330	80.006	19.995	103.169	20.074	5.176	0.506
936.000	544.325	80.006	19.994	103.165	20.067	5.652	0.468
938.000	545.388	80.005	19.993	103.158	20.070	5.477	0.528
940.000	546.367	80.006	19.995	103.166	20.069	5.514	0.528
942.000	547.373	80.006	19.994	103.158	20.069	5.547	0.500
944.000	548.397	80.005	19.993	103.156	20.071	5.411	0.505
946.000	549.403	80.006	19.995	103.155	20.074	5.127	0.526
948.000	550.434	80.006	19.995	103.152	20.073	5.247	0.527
950.000	551.410	80.006	19.995	103.144	20.072	5.276	0.487
952.000	552.444	80.005	19.995	103.146	20.078	4.868	0.494
954.000	553.445	80.005	19.996	103.153	20.072	5.308	0.514
956.000	554.441	80.006	19.995	103.169	20.069	5.500	0.508
958.000	555.517	80.007	19.995	103.164	20.072	5.328	0.496
960.000	556.492	80.008	19.995	103.173	20.075	5.071	0.482
962.000	557.539	80.007	19.994	103.155	20.073	5.234	0.510
964.000	558.503	80.008	19.994	103.155	20.069	5.562	0.484
966.000	559.529	80.008	19.995	103.159	20.068	5.634	0.516
968.000	560.481	80.007	19.995	103.152	20.069	5.517	0.471
970.000	561.516	80.007	19.996	103.155	20.075	5.083	0.486
972.000	562.534	80.006	19.994	103.162	20.073	5.249	0.504
974.000	563.536	80.005	19.994	103.158	20.072	5.287	0.469
976.000	564.521	80.005	19.996	103.164	20.072	5.267	0.493
978.000	565.517	80.004	19.996	103.161	20.075	5.111	0.515
980.000	566.515	80.004	19.996	103.163	20.072	5.263	0.478
982.000	567.576	80.004	19.996	103.158	20.072	5.289	0.517
984.000	568.588	80.004	19.995	103.165	20.071	5.400	0.526
986.000	569.609	80.004	19.995	103.153	20.073	5.222	0.515
988.000	570.619	80.002	19.995	103.164	20.070	5.480	0.482
990.000	571.612	80.004	19.995	103.164	20.072	5.278	0.479
992.000	572.658	80.006	19.996	103.171	20.071	5.373	0.521
994.000	573.724	80.004	19.994	103.179	20.071	5.403	0.500
996.000	574.743	80.004	19.994	103.171	20.072	5.319	0.532
998.000	575.780	80.006	19.995	103.167	20.071	5.373	0.512
1000.000	576.858	80.004	19.995	103.174	20.072	5.278	0.523
1002.000	577.902	80.005	19.996	103.179	20.073	5.262	0.518
1004.000	578.973	80.002	19.996	103.170	20.074	5.179	0.538
1006.000	580.001	80.004	19.994	103.162	20.070	5.466	0.505
1008.000	581.055	80.003	19.994	103.173	20.071	5.372	0.516
1010.000	582.114	80.003	19.995	103.170	20.067	5.642	0.525
1012.000	583.184	80.004	19.995	103.177	20.071	5.384	0.525
1014.000	584.255	80.004	19.995	103.173	20.071	5.360	0.522
1016.000	585.298	80.005	19.995	103.176	20.066	5.725	0.531
1018.000	586.362	80.005	19.994	103.165	20.070	5.467	0.547
1020.000	587.409	80.005	19.994	103.158	20.070	5.444	0.493
1022.000	588.449	80.005	19.995	103.154	20.072	5.283	0.509
1024.000	589.516	80.006	19.995	103.156	20.073	5.234	0.529
1025.999	590.537	80.008	19.995	103.160	20.070	5.488	0.509
1027.999	591.574	80.007	19.995	103.161	20.071	5.398	0.499
1029.999	592.613	80.006	19.994	103.161	20.070	5.425	0.509
1032.000	593.658	80.006	19.995	103.157	20.073	5.191	0.559
1033.999	594.693	80.005	19.995	103.155	20.076	5.030	0.509
1036.000	595.725	80.007	19.993	103.152	20.076	4.974	0.509
1037.999	596.736	80.006	19.993	103.170	20.073	5.255	0.512
1039.999	597.772	80.005	19.995	103.175	20.074	5.148	0.558
1041.999	598.829	80.006	19.994	103.169	20.073	5.207	0.508
1043.999	599.871	80.006	19.994	103.159	20.069	5.504	0.524
1045.999	600.930	80.005	19.994	103.172	20.076	5.007	0.526
1047.999	601.993	80.006	19.995	103.158	20.077	4.918	0.521
1049.999	603.024	80.008	19.995	103.166	20.078	4.855	0.519
1051.999	604.057	80.007	19.995	103.159	20.077	4.920	0.516
1053.999	605.062	80.006	19.995	103.157	20.075	5.060	0.484
1055.999	606.113	80.005	19.994	103.149	20.072	5.335	0.486
1057.999	607.097	80.002	19.995	103.152	20.069	5.500	0.497
1060.001	608.126	80.004	19.996	103.161	20.076	5.006	0.498
1061.999	609.126	80.005	19.995	103.155	20.070	5.457	0.495
1063.999	610.133	80.005	19.996	103.150	20.071	5.397	0.501
1066.000	611.089	80.005	19.996	103.145	20.070	5.431	0.502
1067.999	612.094	80.002	19.994	103.159	20.072	5.327	0.507
1069.999	613.088	80.003	19.995	103.170	20.074	5.182	0.514
1071.999	614.096	80.004	19.995	103.163	20.069	5.493	0.504
1074.000	615.097	80.004	19.995	103.157	20.070	5.467	0.528
1076.000	616.059	80.002	19.995	103.147	20.071	5.369	0.497
1077.999	617.071	80.004	19.995	103.157	20.073	5.216	0.500
1079.999	618.046	80.005	19.995	103.165	20.071	5.409	0.498
1081.999	619.066	80.006	19.997	103.147	20.072	5.312	0.526
1083.999	620.028	80.004	19.996	103.145	20.067	5.691	0.495
1086.000	621.004	80.004	19.994	103.162	20.070	5.415	0.475
1087.999	621.994	80.003	19.994	103.169	20.071	5.402	0.519
1089.999	622.958	80.004	19.994	103.151	20.072	5.290	0.503
1092.000	623.984	80.004	19.995	103.096	20.070	5.429	0.492
1093.999	624.938	80.003	19.994	103.212	20.074	5.158	0.478
1095.999	625.934	80.004	19.995	103.164	20.070	5.449	0.483
1098.001	626.921	80.005	19.994	103.143	20.075	5.100	0.516
1099.999	627.895	80.003	19.993	103.153	20.074	5.142	0.485
1102.000	628.935	80.005	19.994	103.154	20.079	4.779	0.503
1103.999	629.897	80.007	19.994	103.148	20.072	5.284	0.502
1105.999	630.923	80.005	19.994	103.159	20.073	5.230	0.519
1108.000	631.893	80.006	19.995	103.169	20.065	5.797	0.494
1109.999	632.877	80.006	19.995	103.164	20.075	5.051	0.504
1111.999	633.862	80.006	19.995	103.171	20.069	5.560	0.474
1113.999	634.864	80.004	19.994	103.160	20.071	5.373	0.484
1115.999	635.849	80.006	19.994	103.162	20.069	5.506	0.496
1117.999	636.918	80.004	19.994	103.156	20.069	5.496	0.541
1119.999	637.904	80.005	19.994	103.167	20.068	5.605	0.496
1122.000	638.976	80.007	19.994	103.173	20.069	5.561	0.537
1123.999	639.989	80.006	19.994	103.157	20.074	5.163	0.491
1125.999	640.993	80.006	19.994	103.168	20.072	5.316	0.506
1127.999	641.970	80.007	19.994	103.152	20.071	5.380	0.510
1129.999	642.973	80.006	19.994	103.165	20.071	5.380	0.466
1131.999	643.960	80.006	19.994	103.148	20.074	5.129	0.453
1133.999	644.975	80.007	19.994	103.146	20.069	5.550	0.487
1135.999	645.905	80.008	19.994	103.146	20.069	5.509	0.487
1137.999	646.936	80.006	19.995	103.148	20.066	5.736	0.468
1140.000	647.940	80.006	19.994	103.142	20.070	5.488	0.498
1141.999	648.881	80.004	19.994	103.162	20.070	5.449	0.517
1143.999	649.882	80.001	19.994	103.163	20.071	5.373	0.488
1145.999	650.888	80.005	19.996	103.171	20.067	5.690	0.527
1147.999	651.886	80.005	19.995	103.171	20.069	5.511	0.479
1149.999	652.928	80.006	19.994	103.167	20.074	5.185	0.585
1151.999	653.930	80.003	19.994	103.172	20.063	5.977	0.557
1154.000	654.945	80.005	19.995	103.175	20.068	5.641	0.530
1155.999	655.954	80.005	19.995	103.168	20.065	5.841	0.484
1157.999	656.948	80.005	19.995	103.168	20.068	5.581	0.460
1159.999	658.037	80.006	19.996	103.172	20.066	5.768	0.564
1161.999	658.963	80.003	19.996	103.158	20.069	5.556	0.479
1163.999	660.020	80.005	19.995	103.175	20.069	5.515	0.506
1165.999	660.995	80.003	19.995	103.178	20.069	5.549	0.492
1167.999	661.968	80.003	19.996	103.163	20.062	6.077	0.528
1169.999	663.041	80.004	19.994	103.167	20.069	5.528	0.524
1172.000	663.988	80.001	19.995	103.149	20.069	5.497	0.499
1173.999	664.958	80.003	19.994	103.165	20.068	5.631	0.467
1175.999	665.990	80.005	19.996	103.177	20.064	5.899	0.541
1178.000	667.040	80.003	19.995	103.182	20.065	5.860	0.526
1179.999	668.057	80.002	19.996	103.182	20.064	5.881	0.511
1182.001	669.079	80.003	19.995	103.181	20.064	5.942	0.529
1183.999	670.090	80.003	19.994	103.182	20.063	6.019	0.493
1186.001	671.140	80.006	19.995	103.183	20.059	6.289	0.495
1187.999	672.158	80.006	19.994	103.183	20.068	5.616	0.482
1189.999	673.246	80.004	19.994	103.181	20.067	5.682	0.524
1191.999	674.286	80.004	19.992	103.181	20.068	5.612	0.517
1193.999	675.365	80.004	19.994	103.172	20.065	5.855	0.546
1195.999	676.422	80.005	19.994	103.181	20.063	5.950	0.552
1197.999	677.457	80.006	19.994	103.172	20.068	5.637	0.507
1199.999	678.540	80.003	19.992	103.163	20.066	5.742	0.548
1201.999	679.539	80.006	19.995	103.179	20.063	5.962	0.514
1203.999	680.626	80.006	19.996	103.169	20.063	5.974	0.507
1206.000	681.654	80.006	19.995	103.156	20.064	5.898	0.503
1207.999	682.661	80.005	19.993	103.170	20.068	5.616	0.524
1210.000	683.672	80.006	19.993	103.170	20.068	5.584	0.484
1211.999	684.739	80.008	19.994	103.164	20.066	5.759	0.521
1214.000	685.727	80.007	19.993	103.152	20.065	5.846	0.497
1215.999	686.786	80.009	19.994	103.152	20.069	5.512	0.505
1217.999	687.791	80.006	19.991	103.163	20.067	5.642	0.533
1219.999	688.807	80.004	19.994	103.156	20.062	6.080	0.516
1221.999	689.790	80.003	19.994	103.150	20.070	5.416	0.510
1223.999	690.809	80.005	19.994	103.146	20.071	5.370	0.519
1225.999	691.806	80.003	19.993	103.156	20.068	5.610	0.537
1227.999	692.824	80.004	19.994	103.160	20.064	5.875	0.496
1229.999	693.848	80.006	19.995	103.160	20.067	5.691	0.520
1231.999	694.897	80.002	19.995	103.159	20.064	5.944	0.535
1233.999	695.968	80.007	19.994	103.154	20.064	5.901	0.522
1235.999	697.011	80.004	19.995	103.163	20.065	5.851	0.515
1237.999	698.087	80.006	19.995	103.167	20.052	6.781	0.522
1239.999	699.156	80.002	19.996	103.145	20.064	5.880	0.515
1241.999	700.256	80.004	19.995	103.148	20.064	5.871	0.527
1244.000	701.345	80.004	19.994	103.170	20.067	5.700	0.519
1245.999	702.430	80.005	19.993	103.168	20.067	5.693	0.544
1247.999	703.556	80.005	19.994	103.161	20.065	5.813	0.538
1249.999	704.646	80.005	19.994	103.167	20.068	5.580	0.566
1252.000	705.701	80.007	19.995	103.161	20.063	5.962	0.531
1253.999	706.875	80.003	19.994	103.159	20.065	5.867	0.581
1256.001	707.997	80.002	19.994	103.150	20.068	5.617	0.552
1258.000	709.161	80.005	19.995	103.148	20.065	5.802	0.571
1259.999	710.292	80.003	19.995	103.152	20.066	5.774	0.594
1261.999	711.383	80.003	19.996	103.168	20.066	5.730	0.536
1263.999	712.498	80.007	19.996	103.161	20.063	5.967	0.565
1265.999	713.591	80.004	19.995	103.143	20.063	6.005	0.543
1267.999	714.747	80.006	19.994	103.141	20.069	5.503	0.577
1270.000	715.887	80.004	19.995	103.154	20.064	5.940	0.566
1271.999	716.997	80.007	19.995	103.134	20.063	5.945	0.550
1273.999	718.049	80.004	19.994	103.139	20.062	6.019	0.552
1276.000	719.147	80.007	19.994	103.148	20.064	5.876	0.558
1277.999	720.240	80.005	19.993	103.138	20.068	5.621	0.547
1279.999	721.294	80.003	19.994	103.140	20.065	5.812	0.515
1281.999	722.360	80.007	19.994	103.142	20.063	5.984	0.555
1283.999	723.465	80.006	19.994	103.148	20.068	5.629	0.507
1285.999	724.491	80.007	19.995	103.140	20.062	6.050	0.499
1287.999	725.549	80.006	19.994	103.141	20.064	5.913	0.529
1289.999	726.640	80.008	19.994	103.140	20.065	5.792	0.553
1291.999	727.661	80.007	19.994	103.140	20.060	6.210	0.525
1293.999	728.720	80.007	19.994	103.137	20.063	5.953	0.522
1295.999	729.762	80.005	19.994	103.140	20.058	6.340	0.515
1297.999	730.816	80.007	19.993	103.136	20.056	6.532	0.538
1299.999	731.835	80.008	19.994	103.138	20.058	6.388	0.482
1302.000	732.874	80.006	19.993	103.139	20.062	6.060	0.524
1303.999	733.898	80.006	19.995	103.138	20.059	6.286	0.536
1305.999	734.882	80.006	19.993	103.141	20.068	5.633	0.496
1307.999	735.923	80.005	19.994	103.141	20.065	5.858	0.499
1310.000	736.915	80.005	19.994	103.143	20.062	6.037	0.521
1311.999	737.990	80.003	19.994	103.144	20.064	5.891	0.545
1313.999	738.967	80.005	19.993	103.154	20.064	5.930	0.528
1316.000	740.008	80.003	19.992	103.158	20.066	5.745	0.511
1317.999	740.997	80.005	19.994	103.141	20.066	5.784	0.493
1320.000	742.086	80.003	19.994	103.142	20.061	6.163	0.538
1321.999	743.051	80.004	19.994	103.144	20.061	6.122	0.472
1322.999	743.613	80.001	19.994	103.142	20.062	6.050	0.536