File: 01_Data/Memory_Foam_Carpet_Pad/MCC/Memory_Foam_Carpet_Pad_MCC_30K_min_211102_R1.txt
Sample ID:	C:\MCC\MCC Cal\Test\Memory_Foam_Carpet_Pad_MCC_30K_min_211102_R1.txt
Sample Weight (mg):	4.76
Heating Rate (C/s):	0.5
Combustor Temp (C):	900
N2 Flow Rate (cc/min):	80
O2 Flow Rate (cc/min):	20
Calibration File:	C:\MCC\MCC Cal\Coeff1 JN10440_30_210304.txt.txt
T Correction Coefficients:	0	1.024463	0
Time Shift (s):	14
*
Time (s)	Temperature (C)	N2 flow rate (cc/min)	O2 flow rate (cc/min)	Flow Rate (cc/min)	Oxygen (%)	HRR (W/g)	Heating rate (C/s)
0.000	107.195	80.006	19.995	103.056	20.147	-0.506	0.009
2.000	107.156	80.004	19.995	103.057	20.145	-0.386	-0.036
4.000	107.180	80.006	19.994	103.062	20.147	-0.500	0.017
6.000	107.176	80.005	19.994	103.063	20.143	-0.201	-0.006
8.000	107.172	80.005	19.994	103.061	20.144	-0.272	0.016
10.000	107.169	80.005	19.994	103.061	20.141	-0.116	0.010
12.001	107.126	80.005	19.995	103.065	20.146	-0.399	-0.004
14.000	107.141	80.006	19.994	103.062	20.145	-0.384	-0.014
16.000	107.146	80.006	19.994	103.056	20.149	-0.596	0.003
18.000	107.179	80.007	19.994	103.062	20.145	-0.331	0.008
20.000	107.167	80.006	19.994	103.063	20.141	-0.116	-0.007
22.000	107.105	80.005	19.995	103.062	20.143	-0.193	0.002
24.000	107.100	80.005	19.994	103.065	20.143	-0.245	-0.002
26.000	107.140	80.005	19.994	103.079	20.141	-0.077	0.026
28.000	107.132	80.003	19.995	103.098	20.136	0.223	0.003
30.000	107.146	80.002	19.995	103.102	20.134	0.398	0.010
32.001	107.171	80.003	19.996	103.113	20.134	0.422	0.017
34.000	107.196	80.003	19.996	103.136	20.132	0.521	0.029
36.000	107.216	80.002	19.995	103.145	20.129	0.706	0.021
38.000	107.282	80.003	19.995	103.163	20.128	0.767	0.067
40.000	107.402	80.003	19.995	103.185	20.126	0.945	0.051
42.001	107.499	80.004	19.994	103.207	20.122	1.215	0.070
44.000	107.619	80.003	19.995	103.221	20.121	1.292	0.043
46.000	107.803	80.002	19.995	103.216	20.118	1.500	0.095
48.000	108.012	80.003	19.994	103.226	20.110	2.007	0.063
50.000	108.213	80.004	19.994	103.240	20.110	2.013	0.088
52.001	108.431	80.003	19.996	103.250	20.108	2.127	0.091
54.000	108.766	80.004	19.996	103.251	20.108	2.162	0.141
56.000	109.065	80.003	19.996	103.252	20.106	2.275	0.170
58.000	109.420	80.003	19.996	103.243	20.104	2.446	0.181
60.000	109.759	80.003	19.997	103.259	20.107	2.231	0.173
62.000	110.114	80.003	19.997	103.259	20.103	2.482	0.192
64.000	110.532	80.004	19.996	103.269	20.101	2.648	0.212
66.000	110.945	80.003	19.995	103.293	20.099	2.792	0.215
68.000	111.361	80.003	19.996	103.278	20.098	2.801	0.221
70.000	111.827	80.003	19.996	103.286	20.097	2.926	0.229
72.001	112.313	80.005	19.995	103.299	20.098	2.860	0.252
74.001	112.863	80.005	19.995	103.299	20.095	3.037	0.263
76.000	113.364	80.005	19.996	103.298	20.094	3.096	0.284
78.000	113.943	80.006	19.995	103.302	20.093	3.142	0.280
80.000	114.541	80.006	19.994	103.309	20.092	3.262	0.317
82.000	115.115	80.005	19.994	103.308	20.089	3.462	0.299
84.000	115.730	80.003	19.994	103.314	20.094	3.114	0.306
86.000	116.382	80.004	19.995	103.327	20.090	3.357	0.325
88.001	116.984	80.004	19.994	103.312	20.094	3.126	0.284
90.000	117.686	80.003	19.995	103.303	20.090	3.337	0.338
92.000	118.437	80.004	19.994	103.318	20.090	3.348	0.370
94.000	119.098	80.003	19.995	103.339	20.088	3.499	0.336
96.001	119.840	80.004	19.993	103.336	20.086	3.635	0.357
98.000	120.618	80.005	19.995	103.334	20.086	3.663	0.403
100.000	121.368	80.004	19.994	103.345	20.088	3.473	0.385
102.000	122.167	80.005	19.994	103.341	20.088	3.530	0.395
104.001	122.969	80.005	19.994	103.338	20.087	3.582	0.398
106.001	123.775	80.006	19.993	103.337	20.087	3.591	0.431
108.000	124.597	80.005	19.993	103.336	20.087	3.571	0.404
110.000	125.406	80.006	19.994	103.338	20.086	3.641	0.413
112.000	126.283	80.004	19.994	103.334	20.086	3.619	0.433
114.000	127.155	80.005	19.994	103.342	20.084	3.774	0.442
116.000	128.029	80.004	19.996	103.339	20.087	3.599	0.448
118.001	128.871	80.004	19.995	103.335	20.088	3.521	0.424
120.001	129.762	80.003	19.996	103.329	20.088	3.525	0.437
122.000	130.695	80.003	19.995	103.335	20.087	3.541	0.467
124.000	131.594	80.003	19.995	103.337	20.087	3.589	0.474
126.000	132.477	80.004	19.995	103.336	20.086	3.624	0.443
128.000	133.403	80.004	19.996	103.338	20.087	3.583	0.455
130.000	134.411	80.003	19.995	103.338	20.087	3.552	0.476
132.000	135.323	80.004	19.996	103.335	20.086	3.613	0.471
134.000	136.261	80.004	19.995	103.331	20.086	3.661	0.442
136.000	137.250	80.005	19.995	103.319	20.084	3.751	0.514
138.000	138.218	80.005	19.994	103.319	20.087	3.550	0.496
140.000	139.175	80.003	19.996	103.318	20.088	3.485	0.484
142.000	140.147	80.005	19.996	103.312	20.086	3.609	0.499
144.000	141.130	80.003	19.995	103.325	20.084	3.786	0.496
146.000	142.114	80.002	19.996	103.311	20.086	3.620	0.496
148.000	143.105	80.001	19.996	103.314	20.081	3.988	0.529
150.000	144.072	80.002	19.995	103.325	20.085	3.686	0.488
152.000	145.078	80.003	19.996	103.309	20.084	3.771	0.509
154.000	146.062	80.002	19.996	103.303	20.084	3.772	0.509
156.000	147.061	80.004	19.996	103.305	20.087	3.601	0.492
158.000	148.059	80.004	19.996	103.299	20.083	3.850	0.508
160.000	149.037	80.004	19.995	103.299	20.085	3.721	0.511
162.000	150.038	80.003	19.995	103.302	20.083	3.819	0.480
164.000	151.048	80.004	19.995	103.300	20.081	3.961	0.505
166.000	152.028	80.004	19.995	103.298	20.082	3.889	0.510
168.000	153.051	80.003	19.994	103.315	20.084	3.767	0.495
170.000	154.005	80.003	19.994	103.303	20.082	3.892	0.486
172.000	154.989	80.004	19.995	103.301	20.085	3.739	0.467
174.000	155.980	80.003	19.994	103.299	20.081	3.969	0.516
176.000	156.962	80.004	19.995	103.299	20.080	4.042	0.471
178.000	157.967	80.005	19.994	103.295	20.082	3.904	0.508
180.000	158.961	80.006	19.993	103.284	20.080	4.041	0.506
182.000	159.932	80.004	19.995	103.283	20.078	4.179	0.513
184.000	160.950	80.004	19.994	103.279	20.080	4.015	0.480
186.000	161.938	80.005	19.995	103.273	20.080	4.021	0.477
188.000	162.912	80.006	19.995	103.268	20.079	4.120	0.477
190.000	163.919	80.006	19.994	103.276	20.082	3.889	0.491
192.000	164.917	80.006	19.994	103.275	20.078	4.179	0.490
194.000	165.917	80.004	19.994	103.272	20.080	4.061	0.520
196.000	166.854	80.004	19.994	103.284	20.077	4.274	0.485
198.000	167.852	80.004	19.994	103.275	20.074	4.448	0.491
200.000	168.814	80.004	19.994	103.267	20.074	4.477	0.465
202.000	169.815	80.004	19.994	103.278	20.071	4.663	0.500
204.000	170.815	80.005	19.995	103.276	20.068	4.872	0.463
206.000	171.789	80.005	19.994	103.261	20.067	4.918	0.477
208.000	172.781	80.004	19.995	103.265	20.068	4.864	0.467
210.000	173.721	80.004	19.994	103.270	20.068	4.849	0.467
212.000	174.705	80.003	19.995	103.269	20.070	4.720	0.494
214.000	175.669	80.003	19.996	103.268	20.068	4.860	0.488
216.000	176.656	80.004	19.996	103.271	20.068	4.881	0.503
218.000	177.629	80.002	19.995	103.262	20.066	5.010	0.496
220.000	178.620	80.003	19.996	103.263	20.067	4.906	0.506
222.000	179.533	80.003	19.995	103.264	20.064	5.120	0.459
224.000	180.508	80.003	19.995	103.264	20.063	5.222	0.439
226.000	181.535	80.003	19.995	103.262	20.061	5.308	0.502
228.000	182.506	80.002	19.995	103.263	20.062	5.255	0.490
230.000	183.492	80.003	19.994	103.262	20.059	5.434	0.508
232.000	184.446	80.003	19.995	103.262	20.060	5.399	0.497
234.000	185.429	80.003	19.996	103.263	20.058	5.535	0.502
236.000	186.419	80.003	19.995	103.264	20.058	5.555	0.463
238.000	187.429	80.002	19.995	103.263	20.055	5.732	0.509
240.000	188.377	80.004	19.995	103.263	20.056	5.677	0.481
242.000	189.362	80.005	19.994	103.260	20.051	5.984	0.473
244.000	190.313	80.005	19.995	103.259	20.051	6.025	0.483
246.000	191.258	80.005	19.996	103.258	20.050	6.067	0.450
248.000	192.245	80.005	19.996	103.257	20.046	6.318	0.502
250.000	193.265	80.005	19.996	103.257	20.047	6.254	0.486
252.000	194.223	80.003	19.996	103.256	20.043	6.521	0.510
254.001	195.196	80.003	19.996	103.253	20.043	6.519	0.483
256.000	196.136	80.004	19.996	103.249	20.040	6.781	0.462
258.000	197.096	80.003	19.995	103.254	20.041	6.653	0.485
260.000	198.099	80.003	19.994	103.254	20.040	6.769	0.517
262.000	199.048	80.005	19.995	103.259	20.037	6.923	0.452
264.000	200.040	80.005	19.996	103.252	20.032	7.260	0.526
266.000	200.978	80.005	19.995	103.258	20.031	7.333	0.489
268.000	202.022	80.006	19.995	103.256	20.029	7.505	0.518
270.000	202.938	80.007	19.994	103.252	20.026	7.702	0.455
272.000	203.942	80.005	19.996	103.256	20.027	7.627	0.511
274.000	204.935	80.005	19.994	103.259	20.023	7.905	0.502
276.000	205.938	80.005	19.994	103.255	20.018	8.207	0.492
278.000	206.910	80.003	19.995	103.256	20.020	8.113	0.479
280.000	207.919	80.004	19.994	103.260	20.016	8.399	0.478
282.000	208.909	80.004	19.996	103.261	20.012	8.669	0.487
284.000	209.870	80.003	19.995	103.255	20.011	8.687	0.490
286.000	210.912	80.003	19.994	103.256	20.007	8.980	0.526
288.000	211.823	80.003	19.995	103.255	20.004	9.203	0.443
290.000	212.854	80.003	19.995	103.261	19.997	9.647	0.498
292.000	213.855	80.003	19.994	103.254	19.995	9.767	0.456
294.000	214.839	80.003	19.995	103.256	19.993	9.951	0.483
296.000	215.799	80.005	19.995	103.259	19.986	10.373	0.506
298.000	216.804	80.004	19.994	103.259	19.983	10.589	0.490
300.000	217.803	80.004	19.995	103.262	19.985	10.498	0.495
302.000	218.812	80.003	19.995	103.261	19.979	10.900	0.496
304.000	219.810	80.004	19.995	103.261	19.972	11.381	0.511
306.000	220.802	80.003	19.995	103.263	19.967	11.660	0.479
308.000	221.806	80.004	19.996	103.261	19.960	12.176	0.510
310.000	222.797	80.003	19.996	103.259	19.957	12.388	0.510
312.000	223.796	80.002	19.995	103.258	19.949	12.917	0.511
314.000	224.812	80.003	19.996	103.258	19.944	13.267	0.524
316.000	225.805	80.002	19.995	103.260	19.936	13.781	0.504
318.000	226.824	80.004	19.996	103.263	19.929	14.238	0.519
320.000	227.798	80.005	19.995	103.263	19.926	14.454	0.510
322.000	228.849	80.004	19.994	103.261	19.920	14.898	0.507
324.000	229.886	80.004	19.995	103.261	19.910	15.547	0.524
326.000	230.907	80.006	19.996	103.261	19.904	15.929	0.535
328.000	231.910	80.005	19.994	103.261	19.897	16.455	0.511
330.000	232.975	80.005	19.995	103.262	19.886	17.146	0.537
332.000	233.978	80.004	19.995	103.263	19.878	17.707	0.522
334.000	235.026	80.005	19.996	103.262	19.872	18.135	0.508
336.000	236.015	80.005	19.995	103.264	19.861	18.878	0.479
338.000	237.003	80.003	19.995	103.266	19.851	19.529	0.484
340.000	238.045	80.003	19.995	103.284	19.843	20.066	0.541
342.000	239.063	80.003	19.995	103.267	19.835	20.646	0.499
344.000	240.038	80.004	19.996	103.260	19.822	21.487	0.513
346.000	241.030	80.005	19.995	103.263	19.813	22.093	0.463
348.000	242.035	80.006	19.996	103.277	19.801	22.942	0.481
350.000	243.083	80.006	19.995	103.275	19.789	23.732	0.484
352.000	244.085	80.006	19.995	103.279	19.781	24.295	0.502
354.000	245.084	80.006	19.994	103.273	19.772	24.923	0.504
356.001	246.103	80.005	19.994	103.281	19.756	26.009	0.510
358.000	247.076	80.006	19.995	103.286	19.747	26.572	0.495
360.000	248.083	80.003	19.994	103.286	19.732	27.583	0.505
362.000	249.057	80.002	19.995	103.292	19.720	28.414	0.496
364.000	250.092	80.002	19.995	103.297	19.710	29.129	0.511
366.000	251.089	80.003	19.994	103.293	19.693	30.253	0.503
368.000	252.135	80.005	19.995	103.297	19.680	31.145	0.500
370.000	253.129	80.004	19.994	103.307	19.666	32.066	0.532
372.000	254.131	80.003	19.994	103.303	19.648	33.338	0.519
374.000	255.110	80.004	19.994	103.314	19.634	34.274	0.510
376.000	256.161	80.004	19.995	103.324	19.616	35.442	0.531
378.000	257.200	80.003	19.995	103.326	19.604	36.309	0.535
380.000	258.186	80.003	19.995	103.332	19.591	37.196	0.497
382.000	259.253	80.004	19.996	103.328	19.576	38.214	0.510
384.000	260.297	80.004	19.995	103.329	19.557	39.449	0.513
386.000	261.281	80.003	19.995	103.331	19.547	40.146	0.488
388.000	262.312	80.003	19.995	103.338	19.533	41.091	0.498
390.000	263.319	80.004	19.994	103.336	19.518	42.135	0.492
392.000	264.336	80.005	19.996	103.339	19.504	43.055	0.530
394.000	265.359	80.002	19.995	103.350	19.492	43.887	0.493
396.000	266.394	80.003	19.996	103.359	19.483	44.491	0.538
398.000	267.443	80.003	19.995	103.342	19.472	45.262	0.502
400.000	268.470	80.003	19.994	103.341	19.462	45.909	0.520
402.000	269.540	80.005	19.994	103.343	19.459	46.129	0.529
404.000	270.566	80.005	19.995	103.355	19.451	46.683	0.520
406.000	271.597	80.005	19.996	103.351	19.452	46.560	0.533
408.000	272.636	80.005	19.994	103.365	19.450	46.711	0.545
410.000	273.705	80.006	19.996	103.344	19.453	46.536	0.505
412.000	274.709	80.005	19.995	103.341	19.459	46.101	0.521
414.000	275.714	80.005	19.995	103.342	19.465	45.723	0.493
416.000	276.767	80.003	19.996	103.340	19.476	44.990	0.500
418.000	277.769	80.005	19.995	103.297	19.491	43.938	0.509
420.000	278.799	80.003	19.995	103.343	19.501	43.245	0.551
422.000	279.811	80.003	19.994	103.388	19.518	42.136	0.507
424.000	280.799	80.006	19.995	103.334	19.533	41.130	0.509
426.000	281.800	80.006	19.996	103.333	19.550	39.916	0.481
428.000	282.825	80.004	19.995	103.337	19.568	38.728	0.498
430.000	283.818	80.006	19.995	103.335	19.585	37.556	0.518
432.000	284.836	80.005	19.995	103.333	19.594	36.944	0.490
434.000	285.815	80.005	19.994	103.338	19.599	36.650	0.501
436.000	286.868	80.005	19.996	103.337	19.602	36.397	0.480
438.000	287.899	80.005	19.996	103.336	19.599	36.605	0.515
440.000	288.900	80.005	19.996	103.333	19.593	37.051	0.521
442.000	289.931	80.005	19.995	103.323	19.587	37.417	0.533
444.000	290.954	80.005	19.995	103.305	19.580	37.904	0.526
446.000	292.008	80.004	19.995	103.325	19.568	38.699	0.527
448.000	293.080	80.004	19.995	103.334	19.559	39.331	0.521
450.000	294.106	80.004	19.994	103.334	19.553	39.761	0.502
452.000	295.123	80.005	19.995	103.334	19.545	40.302	0.541
454.000	296.170	80.004	19.995	103.330	19.540	40.643	0.508
456.000	297.168	80.004	19.995	103.335	19.536	40.905	0.498
458.000	298.256	80.005	19.995	103.321	19.538	40.757	0.533
460.000	299.249	80.005	19.995	103.319	19.537	40.819	0.465
462.000	300.265	80.004	19.994	103.331	19.539	40.708	0.524
464.000	301.338	80.006	19.994	103.333	19.546	40.218	0.570
466.000	302.364	80.005	19.995	103.317	19.554	39.649	0.555
468.000	303.391	80.003	19.996	103.313	19.557	39.476	0.541
470.000	304.432	80.004	19.994	103.329	19.564	38.980	0.498
472.000	305.439	80.004	19.994	103.336	19.567	38.818	0.494
474.000	306.465	80.002	19.996	103.328	19.574	38.327	0.522
476.000	307.459	80.002	19.994	103.327	19.573	38.393	0.480
478.000	308.460	80.004	19.995	103.315	19.576	38.171	0.477
480.000	309.493	80.004	19.994	103.304	19.577	38.120	0.482
482.000	310.501	80.004	19.994	103.320	19.578	38.045	0.494
484.000	311.519	80.004	19.994	103.302	19.581	37.844	0.519
486.000	312.580	80.004	19.993	103.302	19.582	37.763	0.535
488.000	313.569	80.006	19.995	103.304	19.584	37.660	0.501
490.000	314.569	80.007	19.995	103.302	19.587	37.434	0.480
492.000	315.551	80.006	19.993	103.300	19.585	37.546	0.506
494.000	316.583	80.006	19.994	103.300	19.583	37.727	0.491
496.000	317.585	80.006	19.994	103.304	19.582	37.764	0.501
498.000	318.586	80.003	19.994	103.302	19.576	38.136	0.511
500.000	319.521	80.006	19.995	103.299	19.577	38.131	0.486
502.000	320.541	80.003	19.994	103.297	19.575	38.234	0.487
504.000	321.562	80.002	19.995	103.297	19.568	38.679	0.492
506.000	322.538	80.006	19.995	103.292	19.566	38.870	0.512
508.000	323.533	80.004	19.994	103.291	19.564	38.967	0.502
510.000	324.512	80.003	19.995	103.285	19.560	39.257	0.513
512.000	325.457	80.005	19.995	103.288	19.550	39.939	0.507
514.000	326.483	80.005	19.994	103.291	19.546	40.214	0.499
516.000	327.470	80.005	19.996	103.293	19.541	40.535	0.504
518.001	328.522	80.007	19.994	103.293	19.537	40.813	0.512
520.000	329.439	80.006	19.995	103.282	19.529	41.337	0.534
522.000	330.376	80.004	19.995	103.293	19.522	41.836	0.399
524.000	331.339	80.004	19.995	103.293	19.511	42.538	0.455
526.000	332.194	80.001	19.995	103.281	19.506	42.909	0.404
528.000	333.524	80.002	19.995	103.286	19.496	43.589	0.379
530.000	334.534	80.004	19.996	103.275	19.491	43.946	0.525
532.000	335.330	80.004	19.996	103.283	19.483	44.434	0.426
534.000	336.484	80.002	19.996	103.283	19.477	44.841	0.532
536.000	337.463	80.003	19.995	103.282	19.473	45.147	0.510
538.000	338.444	80.004	19.996	103.270	19.466	45.612	0.504
540.000	339.410	80.003	19.995	103.274	19.462	45.894	0.480
542.000	340.428	80.002	19.995	103.276	19.456	46.259	0.499
544.000	341.400	80.001	19.994	103.267	19.450	46.670	0.487
546.000	342.368	80.004	19.995	103.272	19.448	46.855	0.488
548.000	343.352	80.002	19.994	103.266	19.438	47.468	0.456
550.000	344.333	80.002	19.995	103.264	19.438	47.479	0.510
552.000	345.334	80.002	19.995	103.264	19.433	47.812	0.521
554.000	346.307	80.004	19.995	103.264	19.432	47.903	0.511
556.000	347.291	80.004	19.993	103.266	19.430	48.036	0.486
558.000	348.267	80.002	19.994	103.265	19.423	48.489	0.487
560.000	349.235	80.004	19.995	103.264	19.418	48.835	0.485
562.000	350.234	80.003	19.994	103.263	19.415	49.026	0.494
564.000	351.213	80.003	19.995	103.264	19.410	49.360	0.463
566.000	352.204	80.005	19.996	103.263	19.406	49.640	0.512
568.000	353.232	80.003	19.994	103.262	19.393	50.512	0.496
570.000	354.220	80.003	19.995	103.261	19.385	51.100	0.483
572.000	355.186	80.005	19.994	103.259	19.378	51.562	0.461
574.000	356.170	80.006	19.995	103.258	19.372	51.939	0.510
576.000	357.147	80.006	19.995	103.259	19.354	53.150	0.505
578.000	358.111	80.005	19.995	103.259	19.342	54.023	0.469
580.000	359.116	80.005	19.994	103.258	19.326	55.054	0.493
582.000	360.048	80.005	19.994	103.254	19.310	56.139	0.480
584.000	361.029	80.004	19.994	103.260	19.289	57.573	0.515
586.000	362.055	80.004	19.995	103.259	19.269	58.934	0.531
588.000	362.982	80.004	19.995	103.257	19.244	60.646	0.473
590.000	363.922	80.003	19.994	103.254	19.220	62.233	0.454
592.000	364.904	80.004	19.996	103.245	19.197	63.816	0.493
594.000	365.880	80.004	19.994	103.253	19.167	65.817	0.495
596.000	366.847	80.005	19.995	103.248	19.141	67.605	0.474
598.000	367.848	80.005	19.995	103.243	19.113	69.502	0.486
600.000	368.738	80.006	19.995	103.227	19.082	71.564	0.487
602.001	369.733	80.006	19.996	103.237	19.051	73.686	0.484
604.000	370.694	80.004	19.995	103.233	19.015	76.108	0.482
606.000	371.613	80.004	19.995	103.238	18.983	78.250	0.472
608.000	372.609	80.005	19.995	103.234	18.947	80.697	0.495
610.000	373.581	80.003	19.995	103.245	18.913	83.014	0.490
612.000	374.566	80.002	19.995	103.242	18.878	85.380	0.486
614.000	375.528	80.005	19.995	103.244	18.836	88.205	0.488
616.000	376.528	80.002	19.996	103.253	18.800	90.627	0.489
618.000	377.485	80.003	19.995	103.242	18.759	93.460	0.489
620.000	378.468	80.001	19.995	103.242	18.720	96.085	0.506
622.000	379.491	80.001	19.995	103.229	18.677	99.007	0.497
624.000	380.448	80.003	19.996	103.243	18.633	101.964	0.487
626.001	381.431	80.001	19.996	103.235	18.589	104.915	0.452
628.000	382.456	80.004	19.996	103.233	18.546	107.838	0.468
630.000	383.485	80.004	19.996	103.233	18.502	110.812	0.512
632.000	384.467	80.004	19.996	103.240	18.457	113.874	0.484
634.000	385.494	80.004	19.995	103.229	18.411	116.950	0.510
636.000	386.522	80.005	19.995	103.228	18.370	119.720	0.507
638.000	387.531	80.002	19.995	103.231	18.328	122.560	0.481
640.000	388.589	80.005	19.995	103.228	18.285	125.468	0.508
642.000	389.616	80.004	19.995	103.222	18.243	128.264	0.490
644.000	390.628	80.004	19.996	103.223	18.204	130.888	0.490
646.000	391.679	80.003	19.996	103.221	18.173	133.021	0.533
648.000	392.729	80.005	19.996	103.217	18.141	135.145	0.547
650.000	393.774	80.004	19.994	103.201	18.113	137.018	0.532
652.000	394.827	80.004	19.995	103.185	18.088	138.726	0.542
654.000	395.906	80.004	19.996	103.183	18.069	140.023	0.533
656.000	396.889	80.005	19.995	103.182	18.056	140.866	0.511
658.000	397.956	80.006	19.995	103.176	18.050	141.289	0.514
660.000	398.992	80.005	19.993	103.170	18.052	141.137	0.515
662.000	400.079	80.006	19.995	103.154	18.057	140.755	0.524
664.000	401.139	80.005	19.994	103.155	18.069	139.923	0.521
666.000	402.150	80.004	19.994	103.142	18.087	138.732	0.513
668.000	403.205	80.004	19.994	103.141	18.115	136.836	0.496
670.000	404.282	80.003	19.994	103.138	18.146	134.762	0.548
672.000	405.317	80.005	19.994	103.129	18.188	131.931	0.505
674.000	406.365	80.004	19.995	103.116	18.235	128.718	0.510
676.001	407.425	80.006	19.993	103.109	18.283	125.484	0.541
678.000	408.453	80.006	19.994	103.109	18.341	121.562	0.518
680.000	409.441	80.005	19.994	103.115	18.401	117.528	0.518
682.000	410.478	80.006	19.994	103.105	18.464	113.254	0.509
684.000	411.492	80.004	19.994	103.108	18.531	108.692	0.502
686.000	412.516	80.002	19.994	103.106	18.605	103.702	0.510
688.000	413.548	80.003	19.995	103.110	18.670	99.295	0.536
690.000	414.530	80.002	19.995	103.112	18.744	94.338	0.500
692.000	415.552	80.002	19.995	103.117	18.816	89.443	0.532
694.000	416.608	80.004	19.995	103.106	18.883	84.963	0.503
696.000	417.607	80.004	19.995	103.104	18.952	80.262	0.521
698.000	418.590	80.002	19.995	103.104	19.024	75.440	0.497
700.000	419.609	80.002	19.995	103.108	19.083	71.393	0.505
702.000	420.605	80.005	19.996	103.110	19.148	67.009	0.475
704.000	421.651	80.000	19.995	103.118	19.214	62.582	0.512
706.000	422.660	80.004	19.996	103.118	19.271	58.700	0.503
708.000	423.664	80.005	19.995	103.121	19.330	54.733	0.513
710.000	424.612	80.003	19.994	103.110	19.388	50.819	0.486
712.000	425.659	80.005	19.995	103.108	19.441	47.235	0.507
714.000	426.654	80.002	19.995	103.127	19.487	44.137	0.526
716.000	427.635	80.004	19.996	103.126	19.534	40.924	0.491
718.000	428.645	80.004	19.996	103.138	19.579	37.907	0.513
720.000	429.607	80.001	19.996	103.140	19.619	35.232	0.477
722.000	430.598	80.002	19.996	103.142	19.660	32.438	0.497
724.000	431.621	79.999	19.997	103.143	19.696	29.999	0.485
726.000	432.588	80.002	19.995	103.143	19.727	27.897	0.480
728.000	433.648	80.004	19.997	103.143	19.760	25.684	0.505
730.000	434.636	80.003	19.995	103.148	19.789	23.738	0.514
732.000	435.618	80.003	19.994	103.146	19.810	22.278	0.449
734.000	436.599	80.003	19.993	103.145	19.833	20.707	0.449
736.000	437.624	80.000	19.995	103.147	19.853	19.377	0.504
738.000	438.616	80.006	19.995	103.150	19.870	18.243	0.489
740.000	439.634	80.006	19.994	103.149	19.883	17.391	0.499
742.000	440.606	80.003	19.994	103.158	19.895	16.522	0.489
744.000	441.629	80.004	19.993	103.151	19.913	15.338	0.524
746.000	442.587	80.004	19.995	103.153	19.920	14.831	0.471
748.000	443.580	80.004	19.994	103.155	19.932	14.014	0.517
750.000	444.560	80.004	19.994	103.165	19.944	13.261	0.519
752.001	445.507	80.006	19.995	103.169	19.948	12.934	0.470
754.000	446.459	80.005	19.995	103.178	19.962	11.989	0.499
756.000	447.438	80.004	19.993	103.168	19.969	11.563	0.497
758.000	448.381	80.006	19.994	103.159	19.974	11.234	0.486
760.000	449.390	80.006	19.994	103.157	19.978	10.973	0.474
762.000	450.376	80.006	19.994	103.163	19.980	10.807	0.503
764.000	451.309	80.005	19.995	103.155	19.982	10.658	0.462
766.000	452.314	80.007	19.993	103.171	19.986	10.394	0.467
768.000	453.281	80.008	19.995	103.176	19.990	10.113	0.500
770.000	454.303	80.005	19.994	103.180	19.991	10.081	0.552
772.000	455.286	80.003	19.995	103.178	19.990	10.101	0.496
774.000	456.322	80.006	19.995	103.178	19.989	10.224	0.497
776.000	457.322	80.004	19.994	103.177	19.992	9.999	0.506
778.000	458.375	80.003	19.995	103.178	19.989	10.190	0.514
780.000	459.434	80.003	19.995	103.178	19.989	10.180	0.510
782.000	460.485	80.005	19.995	103.169	19.989	10.226	0.506
784.000	461.542	80.004	19.994	103.176	19.986	10.375	0.516
786.000	462.622	80.003	19.996	103.163	19.987	10.317	0.568
788.000	463.650	80.004	19.995	103.170	19.985	10.476	0.537
790.000	464.696	80.005	19.994	103.179	19.979	10.842	0.518
792.000	465.787	80.004	19.995	103.171	19.974	11.211	0.554
794.000	466.860	80.004	19.995	103.168	19.978	10.924	0.548
796.000	467.926	80.003	19.996	103.174	19.970	11.464	0.541
798.000	469.021	80.004	19.995	103.173	19.972	11.363	0.553
800.000	470.081	80.003	19.996	103.159	19.967	11.673	0.564
802.000	471.169	80.002	19.994	103.170	19.963	11.935	0.546
804.000	472.216	80.002	19.996	103.169	19.959	12.243	0.540
806.000	473.281	80.004	19.996	103.169	19.954	12.540	0.532
808.000	474.404	80.002	19.996	103.159	19.956	12.446	0.556
810.000	475.452	80.001	19.997	103.150	19.953	12.606	0.530
812.000	476.509	80.002	19.997	103.153	19.952	12.689	0.509
814.000	477.573	80.002	19.997	103.149	19.949	12.867	0.517
816.000	478.669	80.004	19.996	103.146	19.950	12.828	0.558
818.000	479.701	80.005	19.996	103.147	19.950	12.802	0.518
820.000	480.762	80.006	19.994	103.148	19.951	12.739	0.520
822.000	481.831	80.006	19.998	103.147	19.953	12.595	0.513
824.000	482.851	80.006	19.996	103.155	19.956	12.447	0.488
826.000	483.952	80.004	19.994	103.151	19.957	12.331	0.533
828.000	484.971	80.005	19.994	103.144	19.962	12.014	0.507
830.000	486.057	80.005	19.994	103.157	19.962	12.005	0.554
832.000	487.104	80.004	19.996	103.143	19.970	11.507	0.564
834.000	488.153	80.006	19.995	103.149	19.974	11.195	0.536
836.000	489.192	80.006	19.994	103.142	19.984	10.507	0.529
838.000	490.208	80.007	19.995	103.150	19.992	9.965	0.503
840.000	491.248	80.008	19.995	103.156	19.997	9.645	0.511
842.000	492.304	80.007	19.995	103.148	20.004	9.177	0.527
844.000	493.327	80.007	19.995	103.150	20.011	8.695	0.537
846.000	494.354	80.007	19.994	103.160	20.024	7.853	0.501
848.000	495.436	80.007	19.993	103.162	20.028	7.541	0.493
850.000	496.480	80.006	19.994	103.164	20.038	6.868	0.492
852.000	497.533	80.006	19.994	103.159	20.046	6.366	0.544
854.000	498.574	80.006	19.994	103.158	20.053	5.882	0.519
856.000	499.596	80.004	19.994	103.164	20.061	5.305	0.512
858.000	500.619	80.004	19.993	103.149	20.065	5.044	0.491
860.000	501.666	80.003	19.994	103.156	20.072	4.566	0.508
862.000	502.657	80.004	19.994	103.154	20.080	4.063	0.516
864.000	503.696	80.003	19.993	103.175	20.081	3.985	0.530
866.000	504.732	80.003	19.993	103.169	20.085	3.687	0.526
868.000	505.810	80.005	19.994	103.161	20.093	3.164	0.526
870.000	506.785	80.003	19.993	103.172	20.095	3.029	0.524
872.000	507.815	80.004	19.998	103.182	20.093	3.178	0.496
874.000	508.811	80.003	19.995	103.176	20.098	2.841	0.493
876.000	509.850	80.004	19.995	103.179	20.099	2.788	0.505
878.000	510.842	80.003	19.995	103.173	20.101	2.604	0.487
880.000	511.893	80.004	19.996	103.168	20.102	2.582	0.536
882.000	512.907	80.002	19.997	103.158	20.102	2.554	0.509
884.000	513.950	80.004	19.995	103.156	20.102	2.580	0.517
886.000	514.983	80.003	19.997	103.171	20.100	2.674	0.492
888.000	516.034	80.005	19.994	103.171	20.102	2.554	0.529
890.000	517.071	80.004	19.996	103.175	20.105	2.331	0.520
892.000	518.135	80.004	19.995	103.169	20.106	2.256	0.542
894.000	519.138	80.006	19.996	103.179	20.106	2.267	0.496
896.000	520.160	80.004	19.995	103.171	20.105	2.330	0.535
898.000	521.118	80.003	19.995	103.165	20.103	2.468	0.484
900.000	522.138	80.005	19.995	103.163	20.105	2.329	0.496
902.000	523.170	80.005	19.996	103.159	20.106	2.296	0.509
904.000	524.194	80.005	19.995	103.174	20.105	2.320	0.510
906.000	525.218	80.006	19.996	103.174	20.109	2.099	0.495
908.000	526.256	80.004	19.997	103.172	20.106	2.311	0.498
910.000	527.265	80.004	19.995	103.166	20.105	2.377	0.506
912.000	528.255	80.004	19.995	103.163	20.107	2.237	0.494
914.000	529.333	80.005	19.996	103.164	20.106	2.314	0.529
916.000	530.309	80.004	19.996	103.162	20.107	2.245	0.499
918.000	531.340	80.005	19.995	103.172	20.105	2.330	0.513
920.000	532.351	80.003	19.995	103.163	20.107	2.193	0.528
922.000	533.378	80.005	19.996	103.164	20.109	2.110	0.505
924.000	534.390	80.005	19.996	103.151	20.112	1.889	0.512
926.000	535.397	80.005	19.993	103.160	20.106	2.250	0.492
928.000	536.425	80.006	19.994	103.168	20.106	2.292	0.518
930.000	537.450	80.006	19.994	103.173	20.111	1.956	0.534
932.000	538.458	80.006	19.994	103.170	20.107	2.210	0.517
934.000	539.421	80.006	19.993	103.165	20.107	2.186	0.491
936.000	540.396	80.004	19.993	103.155	20.112	1.893	0.475
938.000	541.381	80.003	19.995	103.169	20.113	1.840	0.464
940.000	542.391	80.003	19.996	103.156	20.112	1.901	0.480
942.000	543.371	80.003	19.995	103.168	20.112	1.884	0.500
944.000	544.311	80.003	19.994	103.157	20.116	1.637	0.466
946.000	545.325	80.004	19.994	103.177	20.114	1.709	0.491
948.000	546.307	80.003	19.994	103.182	20.113	1.814	0.474
950.000	547.334	80.005	19.993	103.180	20.112	1.856	0.497
952.000	548.323	80.004	19.994	103.173	20.109	2.074	0.497
954.000	549.338	80.007	19.995	103.179	20.111	1.954	0.479
956.000	550.384	80.005	19.995	103.172	20.111	1.961	0.512
958.000	551.372	80.005	19.995	103.166	20.111	1.917	0.488
960.000	552.417	80.005	19.994	103.176	20.113	1.780	0.479
962.000	553.441	80.004	19.994	103.177	20.113	1.819	0.515
964.000	554.476	80.005	19.996	103.170	20.110	1.979	0.512
966.000	555.508	80.005	19.995	103.159	20.111	1.959	0.510
968.000	556.561	80.004	19.997	103.172	20.111	1.948	0.523
970.000	557.558	80.004	19.995	103.150	20.111	1.972	0.478
972.000	558.572	80.004	19.996	103.144	20.108	2.167	0.516
974.000	559.594	80.004	19.996	103.150	20.111	1.972	0.521
976.000	560.575	80.003	19.997	103.161	20.110	2.038	0.480
978.000	561.585	80.005	19.994	103.164	20.115	1.696	0.501
980.001	562.621	80.005	19.995	103.163	20.116	1.584	0.529
982.000	563.644	80.006	19.994	103.160	20.113	1.820	0.491
984.000	564.619	80.007	19.993	103.153	20.113	1.781	0.503
986.000	565.650	80.005	19.995	103.165	20.109	2.047	0.512
988.000	566.680	80.006	19.996	103.159	20.109	2.108	0.522
990.000	567.675	80.005	19.995	103.162	20.113	1.806	0.484
992.000	568.749	80.004	19.996	103.167	20.112	1.889	0.548
994.000	569.809	80.006	19.996	103.178	20.108	2.140	0.555
996.000	570.776	80.002	19.995	103.162	20.113	1.821	0.484
998.000	571.814	80.004	19.997	103.146	20.110	2.018	0.498
1000.000	572.825	80.004	19.995	103.148	20.111	1.963	0.469
1002.000	573.896	80.004	19.996	103.158	20.111	1.913	0.542
1004.000	574.946	80.004	19.994	103.161	20.115	1.707	0.502
1006.000	576.003	80.006	19.996	103.159	20.115	1.655	0.502
1008.000	576.999	80.007	19.997	103.176	20.112	1.873	0.508
1010.000	578.041	80.006	19.995	103.163	20.116	1.628	0.537
1012.000	579.066	80.006	19.995	103.162	20.116	1.602	0.487
1014.000	580.128	80.007	19.993	103.158	20.117	1.530	0.523
1016.000	581.186	80.007	19.996	103.165	20.118	1.479	0.529
1018.000	582.223	80.005	19.995	103.162	20.112	1.895	0.517
1020.000	583.252	80.004	19.996	103.165	20.116	1.622	0.532
1022.000	584.290	80.003	19.994	103.154	20.113	1.786	0.506
1024.000	585.350	80.004	19.996	103.152	20.118	1.462	0.547
1026.001	586.381	80.004	19.995	103.154	20.116	1.609	0.519
1028.000	587.423	80.003	19.995	103.166	20.115	1.687	0.506
1030.000	588.481	80.005	19.995	103.152	20.116	1.604	0.525
1032.000	589.555	80.004	19.993	103.157	20.116	1.600	0.543
1034.000	590.574	80.004	19.995	103.162	20.119	1.420	0.524
1036.000	591.576	80.004	19.996	103.154	20.116	1.611	0.533
1038.001	592.654	80.004	19.995	103.169	20.115	1.644	0.552
1040.000	593.702	80.004	19.995	103.165	20.115	1.652	0.504
1042.000	594.749	80.004	19.994	103.154	20.117	1.537	0.536
1044.000	595.808	80.003	19.994	103.167	20.115	1.655	0.552
1046.000	596.840	80.003	19.996	103.156	20.118	1.499	0.518
1048.000	597.869	80.004	19.996	103.154	20.120	1.341	0.502
1050.000	598.911	80.003	19.994	103.150	20.113	1.838	0.489
1052.001	599.929	80.004	19.995	103.167	20.119	1.407	0.516
1054.000	600.967	80.004	19.994	103.152	20.116	1.617	0.529
1056.000	601.987	80.003	19.995	103.149	20.115	1.686	0.511
1058.001	603.014	80.003	19.995	103.156	20.113	1.810	0.502
1060.001	604.052	80.006	19.993	103.178	20.117	1.519	0.540
1062.000	605.044	80.004	19.996	103.168	20.121	1.300	0.509
1064.001	606.106	80.005	19.994	103.173	20.116	1.604	0.517
1066.000	607.126	80.005	19.993	103.148	20.119	1.436	0.492
1068.000	608.148	80.005	19.996	103.150	20.117	1.528	0.501
1070.000	609.169	80.005	19.996	103.152	20.119	1.390	0.514
1072.000	610.179	80.003	19.995	103.165	20.118	1.486	0.521
1074.000	611.233	80.005	19.994	103.165	20.120	1.341	0.538
1076.000	612.245	80.005	19.995	103.164	20.122	1.234	0.512
1078.001	613.242	80.005	19.995	103.157	20.120	1.316	0.505
1080.000	614.283	80.004	19.996	103.171	20.118	1.493	0.520
1082.000	615.306	80.006	19.995	103.172	20.121	1.291	0.512
1084.001	616.327	80.005	19.996	103.175	20.121	1.241	0.492
1086.000	617.374	80.004	19.995	103.155	20.119	1.373	0.494
1088.000	618.379	80.006	19.997	103.155	20.120	1.313	0.512
1090.000	619.456	80.006	19.997	103.146	20.120	1.359	0.520
1092.001	620.454	80.005	19.996	103.147	20.120	1.331	0.505
1094.000	621.466	80.005	19.995	103.158	20.118	1.447	0.513
1096.000	622.475	80.006	19.994	103.147	20.115	1.650	0.543
1098.000	623.488	80.005	19.996	103.147	20.116	1.572	0.497
1100.000	624.517	80.005	19.995	103.151	20.115	1.694	0.509
1102.001	625.515	80.005	19.995	103.163	20.119	1.390	0.506
1104.000	626.504	80.005	19.996	103.154	20.118	1.449	0.479
1106.001	627.536	80.005	19.996	103.146	20.120	1.339	0.510
1108.001	628.502	80.004	19.995	103.144	20.119	1.407	0.476
1110.001	629.532	80.004	19.995	103.158	20.116	1.593	0.504
1112.000	630.506	80.004	19.994	103.160	20.121	1.237	0.519
1114.000	631.498	80.005	19.995	103.160	20.120	1.341	0.503
1116.000	632.485	80.004	19.996	103.160	20.119	1.392	0.488
1118.001	633.505	80.003	19.995	103.162	20.119	1.405	0.498
1120.001	634.460	80.004	19.995	103.162	20.120	1.335	0.472
1122.001	635.482	80.005	19.994	103.146	20.124	1.090	0.519
1124.000	636.449	80.004	19.994	103.154	20.117	1.547	0.460
1126.000	637.458	80.004	19.994	103.168	20.119	1.387	0.490
1128.000	638.408	80.003	19.995	103.156	20.121	1.261	0.478
1130.001	639.381	80.003	19.995	103.155	20.122	1.206	0.482
1132.000	640.390	80.004	19.994	103.164	20.122	1.190	0.498
1134.000	641.340	80.003	19.994	103.167	20.118	1.493	0.478
1136.001	642.352	80.005	19.995	103.164	20.120	1.339	0.500
1138.000	643.297	80.004	19.995	103.153	20.117	1.550	0.502
1140.000	644.312	80.004	19.995	103.158	20.118	1.457	0.481
1142.000	645.313	80.004	19.995	103.164	20.122	1.230	0.491
1144.001	646.274	80.004	19.993	103.164	20.119	1.401	0.502
1146.001	647.218	80.006	19.996	103.163	20.114	1.737	0.488
1148.001	648.255	80.005	19.994	103.163	20.118	1.495	0.505
1150.001	649.239	80.005	19.994	103.164	20.117	1.554	0.487
1152.000	650.272	80.006	19.994	103.169	20.121	1.269	0.502
1154.000	651.279	80.005	19.994	103.171	20.117	1.571	0.491
1156.000	652.319	80.005	19.995	103.161	20.116	1.621	0.490
1158.001	653.310	80.004	19.995	103.180	20.118	1.490	0.496
1160.001	654.372	80.005	19.996	103.173	20.119	1.411	0.518
1162.000	655.367	80.003	19.995	103.174	20.117	1.547	0.512
1164.000	656.382	80.005	19.995	103.167	20.116	1.635	0.493
1166.000	657.438	80.006	19.996	103.173	20.118	1.464	0.514
1168.000	658.457	80.003	19.995	103.180	20.112	1.865	0.523
1170.000	659.481	80.006	19.995	103.179	20.116	1.608	0.502
1172.000	660.495	80.007	19.996	103.175	20.117	1.529	0.551
1174.000	661.527	80.008	19.995	103.180	20.115	1.696	0.515
1176.000	662.581	80.007	19.995	103.179	20.118	1.505	0.534
1178.001	663.573	80.008	19.993	103.165	20.119	1.387	0.529
1180.000	664.586	80.006	19.994	103.168	20.116	1.628	0.515
1182.000	665.626	80.003	19.996	103.176	20.118	1.449	0.517
1184.000	666.618	80.004	19.995	103.178	20.118	1.481	0.497
1186.000	667.640	80.003	19.994	103.181	20.116	1.626	0.519
1188.000	668.699	80.001	19.996	103.175	20.116	1.632	0.530
1190.000	669.766	80.004	19.995	103.173	20.118	1.494	0.537
1192.001	670.784	80.002	19.996	103.178	20.120	1.350	0.530
1194.000	671.791	80.003	19.995	103.181	20.118	1.494	0.527
1196.001	672.841	80.003	19.996	103.181	20.120	1.365	0.532
1198.000	673.839	80.004	19.996	103.180	20.121	1.258	0.520
1200.000	674.891	80.004	19.994	103.182	20.121	1.258	0.503
1202.000	675.918	80.004	19.994	103.183	20.120	1.368	0.528
1204.000	676.946	80.005	19.995	103.183	20.120	1.350	0.509
1206.001	677.955	80.004	19.994	103.185	20.119	1.402	0.492
1208.000	678.975	80.004	19.995	103.181	20.120	1.315	0.502
1210.000	679.962	80.004	19.995	103.184	20.120	1.364	0.506
1212.000	680.964	80.004	19.995	103.180	20.115	1.646	0.507
1214.000	682.003	80.003	19.994	103.175	20.118	1.471	0.519
1216.000	682.966	80.005	19.995	103.175	20.119	1.412	0.510
1218.000	683.933	80.005	19.995	103.172	20.119	1.436	0.463
1220.000	684.956	80.005	19.994	103.158	20.115	1.676	0.476
1222.000	685.964	80.005	19.996	103.169	20.115	1.707	0.505
1224.000	686.941	80.003	19.995	103.174	20.118	1.481	0.506
1226.000	687.877	80.006	19.995	103.164	20.117	1.547	0.470
1228.000	688.856	80.005	19.994	103.160	20.112	1.884	0.478
1230.000	689.879	80.007	19.994	103.161	20.119	1.388	0.495
1232.000	690.799	80.007	19.995	103.160	20.115	1.672	0.449
1234.000	691.809	80.007	19.994	103.172	20.114	1.724	0.499
1236.000	692.779	80.007	19.994	103.157	20.119	1.386	0.490
1238.000	693.738	80.007	19.994	103.152	20.117	1.554	0.514
1240.000	694.744	80.005	19.995	103.162	20.115	1.692	0.524
1242.000	695.700	80.005	19.993	103.153	20.118	1.491	0.483
1244.000	696.694	80.005	19.994	103.170	20.120	1.348	0.514
1246.001	697.669	80.005	19.995	103.154	20.121	1.245	0.493
1248.000	698.662	80.005	19.993	103.151	20.117	1.517	0.461
1250.000	699.645	80.006	19.995	103.162	20.115	1.640	0.486
1252.000	700.654	80.005	19.995	103.155	20.117	1.525	0.519
1254.001	701.628	80.007	19.995	103.159	20.117	1.523	0.499
1256.000	702.649	80.006	19.994	103.144	20.116	1.583	0.526
1258.000	703.628	80.007	19.995	103.148	20.116	1.580	0.474
1260.001	704.638	80.008	19.995	103.146	20.115	1.670	0.472
1262.000	705.637	80.005	19.994	103.153	20.111	1.920	0.490
1264.000	706.631	80.003	19.994	103.159	20.119	1.416	0.525
1266.000	707.643	80.004	19.995	103.158	20.113	1.823	0.510
1268.000	708.644	80.004	19.995	103.148	20.118	1.467	0.517
1270.000	709.667	80.003	19.994	103.155	20.116	1.604	0.479
1272.001	710.711	80.005	19.995	103.149	20.111	1.913	0.544
1274.000	711.690	80.004	19.994	103.155	20.114	1.709	0.498
1276.000	712.759	80.002	19.994	103.155	20.116	1.578	0.528
1278.000	713.767	80.002	19.996	103.148	20.116	1.611	0.529
1280.000	714.807	80.003	19.994	103.158	20.115	1.670	0.502
1282.000	715.860	80.004	19.996	103.150	20.116	1.617	0.542
1284.000	716.829	80.003	19.995	103.163	20.119	1.423	0.526
1286.000	717.874	80.002	19.995	103.147	20.118	1.460	0.514
1288.001	718.881	80.004	19.995	103.144	20.113	1.793	0.524
1290.000	719.938	80.004	19.995	103.154	20.116	1.635	0.555
1292.000	720.971	80.006	19.995	103.166	20.113	1.827	0.537
1294.000	721.992	80.005	19.994	103.168	20.114	1.720	0.514
1296.000	723.019	80.004	19.994	103.162	20.111	1.966	0.501
1298.000	724.052	80.004	19.996	103.160	20.117	1.534	0.520
1300.000	725.092	80.002	19.994	103.156	20.116	1.600	0.539
1302.000	726.127	80.004	19.995	103.155	20.115	1.650	0.538
1304.000	727.168	80.004	19.995	103.150	20.112	1.904	0.545
1306.000	728.183	80.005	19.995	103.148	20.108	2.123	0.504
1308.000	729.195	80.005	19.995	103.148	20.116	1.600	0.517
1310.000	730.250	80.006	19.994	103.147	20.111	1.970	0.535
1312.000	731.283	80.005	19.995	103.149	20.114	1.753	0.530
1314.000	732.274	80.007	19.995	103.151	20.109	2.053	0.478
1316.000	733.282	80.006	19.994	103.146	20.113	1.818	0.487
1318.000	734.309	80.005	19.995	103.151	20.114	1.751	0.502
1320.001	735.262	80.004	19.993	103.156	20.110	2.011	0.491
1322.000	736.303	80.005	19.995	103.146	20.113	1.836	0.517
1324.001	737.317	80.005	19.995	103.147	20.110	1.981	0.486
1326.001	738.346	80.005	19.996	103.156	20.112	1.852	0.540
1328.000	739.309	80.004	19.995	103.166	20.112	1.858	0.481
1330.000	740.352	80.004	19.995	103.148	20.110	1.997	0.512
1332.000	741.364	80.004	19.993	103.154	20.108	2.158	0.515
1334.000	742.384	80.004	19.994	103.146	20.108	2.160	0.507
1336.001	743.345	80.004	19.993	103.139	20.113	1.806	0.466
1337.000	743.850	80.005	19.992	103.143	20.108	2.134	0.498