File: 01_Data/Memory_Foam_Carpet_Pad/MCC/Memory_Foam_Carpet_Pad_MCC_30K_min_211102_R2.txt
Sample ID:	C:\MCC\MCC Cal\Test\Memory_Foam_Carpet_Pad_MCC_30K_min_211102_R2.txt
Sample Weight (mg):	4.45
Heating Rate (C/s):	0.5
Combustor Temp (C):	900
N2 Flow Rate (cc/min):	80
O2 Flow Rate (cc/min):	20
Calibration File:	C:\MCC\MCC Cal\Coeff1 JN10440_30_210304.txt.txt
T Correction Coefficients:	0	1.024463	0
Time Shift (s):	14
*
Time (s)	Temperature (C)	N2 flow rate (cc/min)	O2 flow rate (cc/min)	Flow Rate (cc/min)	Oxygen (%)	HRR (W/g)	Heating rate (C/s)
-0.001	108.284	80.004	19.995	103.051	20.151	0.087	-0.007
2.000	108.294	80.003	19.994	103.060	20.153	-0.039	0.021
4.000	108.231	80.004	19.995	103.060	20.152	0.037	-0.037
6.000	108.212	80.003	19.995	103.064	20.148	0.289	-0.051
8.000	108.236	80.003	19.995	103.066	20.152	0.024	-0.002
10.000	108.225	80.004	19.995	103.077	20.147	0.372	-0.008
12.000	108.225	80.003	19.994	103.075	20.143	0.656	0.024
14.000	108.222	80.004	19.995	103.100	20.143	0.670	0.034
16.000	108.269	80.004	19.995	103.118	20.141	0.861	0.018
18.000	108.295	80.004	19.994	103.135	20.137	1.094	0.019
20.000	108.328	80.003	19.994	103.135	20.134	1.344	0.033
22.000	108.367	80.004	19.994	103.160	20.132	1.444	0.019
24.000	108.470	80.004	19.996	103.181	20.133	1.423	0.064
26.000	108.560	80.003	19.994	103.207	20.128	1.735	0.021
28.000	108.711	80.004	19.993	103.221	20.124	2.070	0.075
30.000	108.886	80.005	19.995	103.233	20.125	1.991	0.073
32.000	109.084	80.005	19.994	103.220	20.119	2.394	0.077
33.999	109.297	80.006	19.994	103.211	20.120	2.339	0.122
35.999	109.560	80.004	19.995	103.229	20.122	2.169	0.135
37.999	109.782	80.005	19.994	103.241	20.118	2.525	0.121
39.999	110.085	80.005	19.993	103.252	20.115	2.683	0.149
41.999	110.393	80.004	19.995	103.262	20.114	2.787	0.178
43.999	110.729	80.004	19.994	103.287	20.113	2.862	0.169
45.999	111.104	80.005	19.994	103.288	20.109	3.117	0.208
47.999	111.520	80.003	19.995	103.299	20.106	3.366	0.208
50.000	111.971	80.003	19.995	103.303	20.108	3.206	0.242
52.000	112.407	80.004	19.994	103.316	20.101	3.707	0.225
54.000	112.884	80.006	19.993	103.307	20.103	3.567	0.236
55.999	113.397	80.006	19.992	103.316	20.102	3.636	0.254
57.999	113.965	80.006	19.994	103.333	20.098	3.964	0.281
59.999	114.493	80.005	19.992	103.333	20.101	3.737	0.278
61.999	115.057	80.005	19.994	103.329	20.098	3.940	0.283
63.999	115.713	80.004	19.995	103.331	20.098	3.934	0.314
65.999	116.344	80.003	19.995	103.336	20.098	3.919	0.322
67.999	116.973	80.004	19.995	103.334	20.095	4.171	0.291
69.999	117.684	80.003	19.997	103.335	20.099	3.840	0.338
71.999	118.348	80.002	19.996	103.345	20.098	3.964	0.328
73.999	119.113	80.002	19.995	103.337	20.096	4.082	0.380
75.999	119.847	80.003	19.994	103.344	20.094	4.197	0.371
77.999	120.630	80.004	19.994	103.346	20.094	4.219	0.405
80.000	121.410	80.005	19.994	103.347	20.095	4.126	0.389
81.999	122.222	80.003	19.993	103.350	20.095	4.195	0.405
83.999	123.102	80.004	19.993	103.344	20.092	4.392	0.438
85.999	123.910	80.005	19.996	103.346	20.094	4.211	0.416
87.999	124.792	80.004	19.994	103.345	20.093	4.303	0.428
89.999	125.704	80.004	19.995	103.348	20.093	4.299	0.466
91.999	126.537	80.003	19.994	103.341	20.094	4.268	0.404
93.999	127.457	80.004	19.994	103.345	20.097	4.004	0.458
95.999	128.386	80.001	19.994	103.349	20.094	4.228	0.455
97.999	129.293	80.002	19.994	103.344	20.090	4.489	0.472
99.999	130.229	80.002	19.993	103.341	20.096	4.053	0.466
101.999	131.179	80.003	19.994	103.343	20.092	4.406	0.480
103.999	132.144	80.003	19.994	103.347	20.095	4.183	0.494
105.999	133.109	80.003	19.995	103.342	20.093	4.293	0.498
107.999	134.063	80.003	19.995	103.341	20.090	4.518	0.490
109.999	135.068	80.003	19.993	103.344	20.092	4.364	0.507
112.000	136.013	80.006	19.994	103.343	20.091	4.465	0.470
113.999	137.043	80.005	19.994	103.340	20.095	4.194	0.493
115.999	138.050	80.006	19.993	103.341	20.095	4.147	0.492
118.000	139.046	80.005	19.994	103.341	20.091	4.451	0.492
119.999	140.074	80.004	19.994	103.339	20.091	4.452	0.511
121.999	141.050	80.006	19.994	103.335	20.090	4.533	0.494
123.999	142.105	80.005	19.994	103.334	20.093	4.308	0.512
126.001	143.110	80.003	19.994	103.329	20.091	4.421	0.518
127.999	144.163	80.003	19.995	103.319	20.092	4.404	0.511
130.000	145.217	80.003	19.994	103.328	20.093	4.335	0.526
132.000	146.231	80.003	19.995	103.318	20.090	4.489	0.507
134.000	147.266	80.004	19.995	103.315	20.090	4.538	0.510
136.000	148.315	80.005	19.996	103.326	20.087	4.741	0.536
138.000	149.351	80.004	19.995	103.309	20.088	4.674	0.520
140.000	150.402	80.006	19.994	103.301	20.088	4.684	0.516
142.000	151.411	80.006	19.995	103.297	20.090	4.532	0.504
144.000	152.462	80.005	19.995	103.295	20.089	4.566	0.505
146.000	153.449	80.006	19.995	103.293	20.086	4.840	0.491
148.000	154.489	80.004	19.994	103.301	20.088	4.658	0.509
150.000	155.495	80.003	19.994	103.302	20.087	4.715	0.506
152.000	156.559	80.003	19.995	103.296	20.090	4.548	0.529
154.000	157.586	80.002	19.995	103.297	20.088	4.669	0.523
156.000	158.594	80.003	19.995	103.297	20.090	4.546	0.513
158.000	159.609	80.002	19.994	103.298	20.089	4.611	0.509
160.000	160.605	80.002	19.996	103.293	20.087	4.735	0.504
162.000	161.672	80.003	19.996	103.298	20.084	4.924	0.523
164.000	162.672	80.002	19.996	103.286	20.085	4.873	0.509
166.000	163.667	80.004	19.995	103.283	20.087	4.772	0.524
168.000	164.671	80.004	19.995	103.294	20.086	4.780	0.463
170.000	165.722	80.004	19.994	103.287	20.085	4.863	0.507
172.000	166.712	80.004	19.994	103.286	20.082	5.067	0.480
174.000	167.740	80.004	19.995	103.282	20.083	4.995	0.515
176.000	168.725	80.001	19.994	103.279	20.083	5.042	0.507
178.000	169.715	80.003	19.994	103.290	20.079	5.282	0.501
180.000	170.752	80.003	19.994	103.281	20.083	5.031	0.494
182.000	171.757	80.003	19.995	103.275	20.080	5.278	0.518
184.000	172.743	80.001	19.994	103.268	20.079	5.292	0.522
186.000	173.737	80.004	19.994	103.284	20.076	5.515	0.495
188.000	174.726	80.002	19.994	103.266	20.076	5.550	0.517
190.000	175.689	80.003	19.994	103.261	20.074	5.670	0.496
192.000	176.667	80.004	19.993	103.265	20.076	5.508	0.463
194.000	177.678	80.004	19.993	103.269	20.078	5.400	0.480
196.000	178.642	80.006	19.995	103.266	20.075	5.605	0.500
198.000	179.643	80.006	19.995	103.261	20.074	5.676	0.493
200.000	180.629	80.004	19.994	103.259	20.073	5.725	0.516
202.000	181.625	80.005	19.994	103.258	20.074	5.654	0.510
204.000	182.586	80.005	19.994	103.258	20.071	5.863	0.495
206.000	183.553	80.006	19.994	103.260	20.072	5.806	0.490
208.000	184.574	80.005	19.994	103.261	20.068	6.120	0.528
210.000	185.523	80.005	19.994	103.258	20.071	5.861	0.466
212.000	186.554	80.006	19.994	103.258	20.068	6.126	0.477
214.000	187.521	80.006	19.994	103.261	20.068	6.104	0.513
216.000	188.527	80.005	19.994	103.261	20.064	6.435	0.507
218.000	189.428	80.005	19.994	103.259	20.062	6.512	0.437
220.000	190.479	80.006	19.994	103.258	20.063	6.439	0.520
222.000	191.452	80.007	19.994	103.260	20.059	6.768	0.500
224.000	192.437	80.007	19.994	103.260	20.059	6.756	0.493
226.000	193.375	80.006	19.994	103.257	20.059	6.755	0.472
228.000	194.401	80.005	19.995	103.260	20.054	7.127	0.497
230.000	195.361	80.006	19.995	103.260	20.053	7.226	0.476
232.000	196.312	80.004	19.996	103.259	20.051	7.362	0.475
234.000	197.339	80.003	19.995	103.260	20.049	7.510	0.489
236.000	198.303	80.002	19.994	103.261	20.046	7.717	0.503
238.000	199.300	80.004	19.995	103.260	20.045	7.797	0.477
240.000	200.239	80.003	19.995	103.264	20.043	7.939	0.482
242.000	201.230	80.005	19.994	103.263	20.046	7.697	0.494
244.000	202.221	80.003	19.995	103.263	20.039	8.209	0.530
246.000	203.209	80.004	19.994	103.261	20.039	8.229	0.488
248.000	204.146	80.003	19.995	103.262	20.038	8.296	0.501
250.000	205.135	80.004	19.995	103.253	20.036	8.446	0.488
252.000	206.122	80.003	19.995	103.255	20.035	8.536	0.516
254.000	207.134	80.004	19.996	103.258	20.033	8.613	0.518
256.000	208.156	80.003	19.995	103.256	20.025	9.207	0.486
258.000	209.103	80.004	19.995	103.256	20.029	8.964	0.466
260.000	210.097	80.003	19.996	103.257	20.024	9.270	0.529
262.000	211.121	80.002	19.995	103.257	20.020	9.577	0.471
264.000	212.097	80.002	19.994	103.252	20.021	9.550	0.469
266.000	213.108	80.003	19.996	103.258	20.015	9.946	0.510
268.000	214.093	80.004	19.995	103.259	20.015	9.938	0.509
270.000	215.083	80.004	19.995	103.255	20.010	10.277	0.487
272.000	216.027	80.004	19.995	103.255	20.001	10.967	0.484
274.000	217.052	80.004	19.994	103.258	19.999	11.137	0.505
276.000	218.011	80.005	19.995	103.259	19.996	11.314	0.484
278.000	219.011	80.004	19.994	103.257	19.994	11.462	0.528
280.000	219.995	80.006	19.995	103.255	19.988	11.914	0.501
282.000	221.006	80.006	19.995	103.257	19.988	11.938	0.490
284.000	221.980	80.006	19.994	103.250	19.980	12.454	0.502
286.000	222.998	80.005	19.994	103.259	19.977	12.722	0.511
288.000	223.979	80.005	19.994	103.255	19.975	12.827	0.480
290.000	224.960	80.006	19.995	103.261	19.965	13.567	0.518
292.000	225.960	80.005	19.994	103.261	19.963	13.741	0.488
294.000	226.964	80.004	19.994	103.258	19.958	14.109	0.502
296.000	227.973	80.005	19.995	103.259	19.951	14.579	0.506
298.000	229.012	80.006	19.993	103.261	19.943	15.185	0.535
300.000	230.008	80.005	19.994	103.256	19.936	15.632	0.527
302.000	231.014	80.005	19.994	103.257	19.927	16.322	0.473
304.000	231.978	80.007	19.994	103.258	19.920	16.807	0.475
306.000	232.950	80.006	19.994	103.257	19.912	17.407	0.485
308.000	233.959	80.006	19.994	103.261	19.907	17.804	0.501
310.000	234.956	80.006	19.993	103.261	19.903	18.065	0.499
312.000	235.932	80.006	19.994	103.261	19.894	18.700	0.489
314.000	236.942	80.004	19.994	103.261	19.885	19.343	0.498
316.000	237.918	80.004	19.993	103.263	19.876	20.035	0.478
318.000	238.921	80.002	19.994	103.268	19.866	20.708	0.521
320.000	239.877	80.002	19.995	103.261	19.857	21.425	0.476
322.000	240.908	80.003	19.995	103.260	19.846	22.223	0.509
324.000	241.935	80.003	19.995	103.264	19.836	22.942	0.536
326.000	242.910	80.006	19.996	103.265	19.830	23.375	0.485
328.000	243.894	80.004	19.996	103.263	19.815	24.446	0.465
330.000	244.891	80.004	19.995	103.272	19.810	24.816	0.520
332.000	245.875	80.004	19.994	103.283	19.796	25.814	0.468
334.000	246.864	80.005	19.995	103.276	19.786	26.532	0.494
336.000	247.883	80.004	19.995	103.289	19.775	27.347	0.491
338.000	248.871	80.005	19.994	103.291	19.760	28.419	0.503
340.000	249.957	80.004	19.995	103.295	19.749	29.243	0.563
342.000	250.940	80.004	19.995	103.287	19.734	30.317	0.473
344.000	251.986	80.003	19.994	103.292	19.723	31.096	0.508
346.000	252.907	80.003	19.996	103.289	19.708	32.159	0.495
348.000	253.922	80.002	19.996	103.297	19.694	33.176	0.494
350.000	254.907	80.002	19.996	103.297	19.682	34.055	0.486
352.000	255.891	80.003	19.996	103.304	19.665	35.296	0.494
354.000	256.891	80.002	19.995	103.300	19.652	36.228	0.498
356.000	257.890	80.003	19.995	103.306	19.641	37.042	0.500
358.000	258.917	80.004	19.996	103.315	19.623	38.357	0.531
360.000	259.886	80.004	19.995	103.316	19.611	39.236	0.477
362.000	260.868	80.006	19.995	103.318	19.595	40.386	0.518
364.000	261.856	80.005	19.995	103.329	19.581	41.378	0.477
366.000	262.900	80.005	19.993	103.333	19.569	42.306	0.507
368.000	263.891	80.005	19.994	103.337	19.556	43.212	0.531
370.000	264.859	80.003	19.994	103.335	19.544	44.069	0.504
372.000	265.836	80.003	19.994	103.338	19.533	44.869	0.514
374.000	266.869	80.004	19.993	103.340	19.523	45.597	0.520
376.000	267.894	80.005	19.995	103.339	19.513	46.323	0.513
378.000	268.859	80.003	19.994	103.340	19.504	46.982	0.485
380.000	269.908	80.005	19.994	103.340	19.496	47.592	0.524
382.000	270.960	80.004	19.994	103.337	19.493	47.780	0.533
384.000	271.988	80.006	19.994	103.338	19.493	47.763	0.535
386.000	272.958	80.007	19.994	103.338	19.495	47.611	0.493
388.000	273.995	80.007	19.995	103.336	19.498	47.448	0.500
390.000	274.940	80.007	19.995	103.337	19.507	46.736	0.489
392.000	275.964	80.006	19.995	103.334	19.514	46.268	0.528
394.000	276.933	80.006	19.994	103.336	19.526	45.382	0.508
396.000	277.925	80.006	19.995	103.334	19.541	44.258	0.502
398.000	278.913	80.004	19.994	103.335	19.557	43.109	0.523
400.000	279.934	80.004	19.994	103.335	19.572	42.030	0.496
402.000	280.934	80.004	19.994	103.329	19.589	40.805	0.485
404.000	281.918	80.004	19.993	103.323	19.605	39.676	0.471
406.000	282.904	80.004	19.995	103.322	19.614	39.011	0.499
408.000	283.883	80.004	19.995	103.321	19.627	38.098	0.498
410.000	284.874	80.004	19.995	103.327	19.631	37.786	0.479
412.000	285.862	80.004	19.996	103.331	19.631	37.770	0.499
414.000	286.879	80.004	19.996	103.321	19.630	37.855	0.490
416.000	287.903	80.003	19.994	103.327	19.626	38.143	0.536
418.000	288.866	80.003	19.996	103.332	19.616	38.854	0.495
420.000	289.852	80.004	19.995	103.333	19.606	39.577	0.460
422.000	290.919	80.005	19.996	103.337	19.593	40.509	0.524
424.000	291.951	80.003	19.995	103.340	19.579	41.559	0.520
426.000	292.916	80.004	19.994	103.323	19.573	41.967	0.486
428.000	293.989	80.002	19.994	103.318	19.570	42.165	0.547
430.000	294.987	80.002	19.995	103.313	19.572	42.081	0.515
432.000	295.995	80.003	19.995	103.324	19.574	41.916	0.527
434.000	297.017	80.001	19.996	103.328	19.580	41.447	0.519
436.000	298.005	80.002	19.995	103.329	19.583	41.271	0.523
438.000	299.033	80.003	19.995	103.341	19.581	41.385	0.513
440.000	300.047	80.003	19.995	103.341	19.582	41.324	0.503
442.000	301.062	80.001	19.996	103.339	19.584	41.198	0.511
444.000	302.084	80.006	19.996	103.318	19.585	41.131	0.518
446.000	303.149	80.005	19.995	103.305	19.583	41.241	0.532
448.000	304.150	80.004	19.995	103.317	19.586	40.996	0.480
450.000	305.162	80.005	19.996	103.306	19.586	41.017	0.511
452.000	306.152	80.004	19.995	103.305	19.591	40.687	0.528
454.000	307.196	80.004	19.995	103.299	19.600	40.001	0.525
456.000	308.169	80.005	19.995	103.304	19.602	39.845	0.514
458.000	309.175	80.004	19.995	103.307	19.609	39.330	0.495
460.000	310.197	80.005	19.994	103.300	19.613	39.045	0.503
462.000	311.254	80.005	19.994	103.304	19.620	38.571	0.509
464.000	312.210	80.005	19.995	103.298	19.621	38.506	0.454
466.000	313.294	80.006	19.995	103.299	19.622	38.443	0.506
468.000	314.306	80.007	19.994	103.297	19.619	38.616	0.513
470.000	315.324	80.007	19.995	103.298	19.618	38.681	0.491
472.000	316.351	80.006	19.995	103.298	19.623	38.362	0.509
474.000	317.341	80.006	19.994	103.298	19.616	38.818	0.497
476.000	318.423	80.005	19.994	103.298	19.613	39.030	0.547
478.000	319.390	80.006	19.996	103.295	19.608	39.407	0.522
480.000	320.388	80.003	19.995	103.292	19.604	39.712	0.523
482.000	321.345	80.004	19.995	103.289	19.599	40.082	0.495
484.000	322.362	80.004	19.994	103.291	19.594	40.454	0.501
486.000	323.389	80.005	19.994	103.293	19.584	41.167	0.514
488.000	324.354	80.002	19.995	103.288	19.582	41.333	0.516
490.000	325.369	80.004	19.994	103.292	19.576	41.771	0.538
492.000	326.388	80.003	19.994	103.296	19.569	42.242	0.520
494.000	327.386	80.004	19.994	103.299	19.564	42.599	0.498
496.000	328.342	80.005	19.993	103.301	19.559	42.940	0.509
498.000	329.375	80.004	19.995	103.298	19.554	43.345	0.532
500.000	330.350	80.004	19.994	103.294	19.544	44.094	0.508
502.000	331.348	80.004	19.994	103.289	19.541	44.242	0.493
504.000	332.366	80.003	19.994	103.281	19.534	44.796	0.523
506.000	333.342	80.003	19.996	103.291	19.525	45.406	0.501
508.000	334.406	80.003	19.995	103.298	19.521	45.726	0.533
510.000	335.367	80.002	19.995	103.293	19.515	46.185	0.496
512.000	336.359	80.002	19.995	103.277	19.511	46.456	0.479
514.000	337.405	80.003	19.996	103.282	19.508	46.631	0.484
516.000	338.367	80.003	19.995	103.282	19.501	47.185	0.479
518.000	339.404	80.001	19.994	103.267	19.494	47.643	0.471
520.000	340.380	80.003	19.996	103.276	19.491	47.919	0.483
522.000	341.420	80.004	19.995	103.275	19.489	48.024	0.528
524.000	342.409	80.004	19.994	103.267	19.486	48.279	0.502
526.000	343.419	80.006	19.995	103.262	19.480	48.681	0.468
528.000	344.398	80.005	19.995	103.265	19.475	49.026	0.481
530.000	345.399	80.005	19.996	103.264	19.476	49.002	0.516
532.000	346.446	80.006	19.995	103.260	19.471	49.319	0.519
534.000	347.428	80.004	19.996	103.259	19.466	49.667	0.531
536.000	348.445	80.003	19.995	103.259	19.464	49.837	0.517
538.000	349.482	80.004	19.996	103.264	19.462	49.951	0.525
540.000	350.512	80.003	19.995	103.259	19.459	50.179	0.505
542.000	351.442	80.004	19.996	103.258	19.456	50.435	0.470
544.000	352.510	80.005	19.998	103.260	19.451	50.759	0.529
546.000	353.552	80.004	19.996	103.264	19.445	51.244	0.539
548.000	354.539	80.006	19.997	103.267	19.438	51.740	0.514
550.000	355.572	80.005	19.995	103.261	19.432	52.138	0.497
552.000	356.579	80.006	19.995	103.263	19.420	53.029	0.537
554.000	357.545	80.007	19.994	103.261	19.408	53.897	0.493
556.000	358.564	80.006	19.994	103.264	19.401	54.400	0.486
558.000	359.581	80.006	19.995	103.262	19.382	55.745	0.508
560.000	360.575	80.005	19.995	103.261	19.372	56.516	0.514
562.000	361.607	80.003	19.994	103.262	19.353	57.886	0.514
564.000	362.622	80.004	19.994	103.263	19.334	59.219	0.527
566.000	363.640	80.003	19.994	103.264	19.310	60.987	0.506
568.000	364.577	80.004	19.994	103.264	19.287	62.662	0.485
570.000	365.635	80.004	19.995	103.264	19.267	64.095	0.503
572.000	366.627	80.002	19.994	103.262	19.240	66.051	0.514
574.000	367.665	80.004	19.995	103.262	19.209	68.263	0.495
576.000	368.659	80.004	19.994	103.261	19.178	70.540	0.499
578.000	369.668	80.004	19.995	103.253	19.145	72.917	0.509
580.000	370.670	80.005	19.995	103.248	19.112	75.342	0.510
582.000	371.638	80.004	19.994	103.239	19.073	78.105	0.492
584.000	372.712	80.005	19.994	103.247	19.038	80.643	0.503
586.000	373.736	80.004	19.995	103.246	19.002	83.265	0.525
588.000	374.685	80.004	19.994	103.251	18.963	86.121	0.461
590.000	375.713	80.001	19.994	103.250	18.922	89.069	0.510
592.000	376.776	80.004	19.994	103.239	18.877	92.332	0.491
594.000	377.736	80.003	19.994	103.247	18.835	95.331	0.481
596.000	378.689	80.003	19.994	103.244	18.787	98.830	0.526
598.000	379.732	80.004	19.995	103.251	18.755	101.128	0.497
600.000	380.696	80.005	19.995	103.233	18.700	105.151	0.503
602.000	381.727	80.004	19.995	103.233	18.655	108.336	0.554
604.000	382.793	80.002	19.995	103.232	18.606	111.948	0.475
606.000	383.729	80.005	19.995	103.250	18.562	115.101	0.528
608.000	384.514	80.004	19.995	103.239	18.512	118.728	0.503
610.000	385.661	80.006	19.994	103.235	18.466	122.048	0.293
612.000	387.016	80.004	19.996	103.227	18.417	125.580	0.856
614.000	387.776	80.004	19.995	103.224	18.372	128.848	0.480
616.000	388.723	80.004	19.994	103.225	18.330	131.826	0.501
618.000	389.762	80.004	19.994	103.222	18.289	134.823	0.530
620.000	390.779	80.005	19.994	103.222	18.252	137.479	0.513
622.000	391.734	80.004	19.995	103.221	18.216	140.058	0.486
624.000	392.727	80.002	19.994	103.207	18.186	142.230	0.420
626.000	393.792	80.002	19.995	103.200	18.157	144.334	0.485
628.000	394.788	80.003	19.995	103.184	18.135	145.927	0.495
630.000	395.809	80.003	19.996	103.187	18.117	147.184	0.515
632.000	396.767	80.004	19.995	103.178	18.104	148.093	0.501
634.000	397.793	80.006	19.995	103.167	18.100	148.391	0.518
636.000	398.791	80.005	19.994	103.165	18.101	148.342	0.492
638.000	399.806	80.005	19.995	103.150	18.108	147.815	0.508
640.000	400.794	80.005	19.994	103.147	18.122	146.785	0.485
642.000	401.773	80.005	19.995	103.140	18.142	145.330	0.483
644.000	402.785	80.001	19.995	103.140	18.169	143.388	0.505
646.000	403.819	80.002	19.994	103.132	18.202	141.004	0.527
648.000	404.825	80.002	19.994	103.138	18.239	138.321	0.506
650.000	405.833	80.004	19.995	103.124	18.286	134.881	0.538
652.000	406.777	80.002	19.995	103.114	18.334	131.452	0.498
654.000	407.823	80.004	19.995	103.113	18.392	127.277	0.499
656.000	408.788	80.004	19.994	103.107	18.453	122.841	0.493
658.000	409.786	80.003	19.995	103.109	18.516	118.315	0.498
660.000	410.776	80.003	19.995	103.104	18.579	113.775	0.469
662.000	411.785	80.004	19.995	103.103	18.645	108.989	0.494
664.000	412.789	80.003	19.995	103.108	18.713	104.063	0.492
666.000	413.773	80.003	19.995	103.107	18.777	99.404	0.496
668.001	414.792	80.003	19.995	103.107	18.846	94.434	0.518
670.000	415.789	80.002	19.996	103.109	18.912	89.691	0.511
672.000	416.802	80.002	19.995	103.109	18.978	84.902	0.533
674.000	417.802	80.003	19.995	103.122	19.045	80.100	0.504
676.000	418.799	80.002	19.995	103.109	19.105	75.721	0.493
678.000	419.780	80.001	19.994	103.115	19.168	71.142	0.487
680.000	420.794	80.003	19.995	103.129	19.229	66.772	0.511
682.000	421.840	80.002	19.994	103.121	19.289	62.412	0.501
684.000	422.824	80.002	19.994	103.115	19.342	58.609	0.474
686.000	423.810	80.004	19.994	103.129	19.398	54.546	0.513
688.000	424.813	80.004	19.995	103.124	19.449	50.864	0.505
690.000	425.848	80.005	19.994	103.134	19.499	47.252	0.488
692.000	426.868	80.005	19.995	103.126	19.546	43.878	0.532
694.000	427.857	80.005	19.995	103.139	19.590	40.642	0.504
696.000	428.890	80.004	19.996	103.144	19.632	37.603	0.514
698.000	429.860	80.005	19.995	103.145	19.671	34.833	0.467
700.000	430.876	80.004	19.995	103.142	19.706	32.298	0.506
702.000	431.938	80.004	19.996	103.147	19.741	29.731	0.540
704.000	432.967	80.004	19.996	103.146	19.771	27.619	0.519
706.000	433.951	80.004	19.995	103.147	19.798	25.607	0.495
708.000	435.003	80.003	19.995	103.152	19.820	24.043	0.511
710.000	436.027	80.004	19.994	103.154	19.846	22.176	0.520
712.000	437.063	80.004	19.996	103.157	19.863	20.946	0.520
714.000	438.056	80.005	19.995	103.153	19.882	19.587	0.472
716.000	439.096	80.004	19.994	103.160	19.903	18.077	0.529
718.000	440.112	80.006	19.996	103.169	19.915	17.161	0.527
720.000	441.108	80.005	19.995	103.167	19.932	15.920	0.502
722.000	442.149	80.004	19.994	103.174	19.942	15.188	0.534
724.000	443.153	80.003	19.995	103.164	19.953	14.458	0.487
726.000	444.189	80.003	19.996	103.173	19.966	13.504	0.517
728.000	445.174	80.002	19.996	103.170	19.970	13.191	0.498
730.000	446.207	80.003	19.997	103.167	19.980	12.468	0.525
732.000	447.230	80.002	19.996	103.171	19.989	11.791	0.520
734.000	448.245	80.002	19.995	103.162	19.998	11.143	0.504
736.000	449.285	80.001	19.996	103.165	20.002	10.894	0.531
738.000	450.322	80.002	19.995	103.159	20.009	10.357	0.514
740.000	451.322	80.002	19.995	103.166	20.011	10.195	0.505
742.000	452.314	80.003	19.994	103.163	20.016	9.843	0.491
744.000	453.360	80.004	19.993	103.167	20.017	9.767	0.509
746.000	454.390	80.003	19.996	103.160	20.021	9.537	0.533
748.000	455.422	80.004	19.996	103.165	20.022	9.433	0.516
750.000	456.423	80.003	19.995	103.172	20.026	9.116	0.500
752.000	457.457	80.003	19.994	103.162	20.026	9.144	0.523
754.000	458.520	80.003	19.995	103.172	20.023	9.370	0.499
756.000	459.573	80.002	19.996	103.172	20.024	9.302	0.543
758.000	460.530	80.001	19.995	103.160	20.022	9.450	0.489
760.000	461.553	80.001	19.996	103.166	20.025	9.218	0.517
762.000	462.599	80.002	19.995	103.163	20.026	9.173	0.558
764.000	463.595	80.001	19.994	103.164	20.025	9.223	0.520
766.000	464.544	80.005	19.994	103.174	20.024	9.264	0.495
768.000	465.539	80.001	19.994	103.162	20.023	9.365	0.493
770.000	466.579	80.004	19.995	103.162	20.021	9.529	0.496
772.000	467.618	80.004	19.995	103.172	20.020	9.589	0.504
774.000	468.631	80.004	19.994	103.156	20.019	9.615	0.530
776.000	469.603	80.004	19.992	103.152	20.018	9.749	0.480
778.000	470.680	80.005	19.995	103.173	20.016	9.862	0.512
780.000	471.649	80.004	19.994	103.162	20.016	9.881	0.482
782.000	472.661	80.004	19.995	103.159	20.015	9.951	0.494
784.000	473.682	80.004	19.995	103.154	20.016	9.874	0.507
786.000	474.725	80.004	19.994	103.150	20.014	10.036	0.533
788.000	475.732	80.003	19.996	103.153	20.014	10.004	0.492
790.000	476.706	80.004	19.994	103.159	20.013	10.089	0.474
792.000	477.738	80.005	19.994	103.151	20.013	10.057	0.477
794.000	478.776	80.004	19.996	103.146	20.016	9.892	0.521
796.000	479.781	80.007	19.995	103.145	20.013	10.099	0.516
798.000	480.804	80.005	19.996	103.147	20.016	9.874	0.509
800.000	481.795	80.005	19.995	103.145	20.017	9.826	0.506
802.000	482.796	80.006	19.994	103.147	20.016	9.834	0.489
804.000	483.804	80.005	19.994	103.143	20.022	9.423	0.470
806.000	484.802	80.005	19.994	103.144	20.023	9.383	0.496
808.000	485.864	80.002	19.994	103.145	20.024	9.252	0.521
810.000	486.862	80.003	19.994	103.149	20.029	8.914	0.497
812.000	487.873	80.003	19.995	103.154	20.034	8.560	0.499
814.000	488.874	80.004	19.996	103.160	20.037	8.335	0.501
816.000	489.891	80.004	19.994	103.159	20.043	7.898	0.488
818.000	490.908	80.003	19.996	103.156	20.047	7.611	0.491
820.000	491.918	80.004	19.995	103.151	20.049	7.467	0.487
822.000	492.915	80.003	19.996	103.154	20.050	7.377	0.490
824.000	493.997	80.003	19.997	103.158	20.058	6.859	0.547
826.000	495.015	80.003	19.995	103.150	20.064	6.391	0.489
828.000	496.047	80.003	19.996	103.161	20.066	6.278	0.519
830.000	497.056	80.002	19.995	103.162	20.068	6.073	0.520
832.000	498.055	80.002	19.995	103.153	20.071	5.874	0.532
834.000	499.072	80.003	19.994	103.151	20.075	5.598	0.495
836.000	500.087	80.003	19.994	103.156	20.082	5.096	0.498
838.000	501.154	80.001	19.995	103.166	20.085	4.900	0.531
840.000	502.158	80.003	19.994	103.176	20.085	4.873	0.510
842.000	503.125	80.002	19.995	103.163	20.091	4.473	0.503
844.000	504.154	80.003	19.994	103.170	20.094	4.252	0.525
846.000	505.142	79.999	19.994	103.162	20.093	4.294	0.484
848.000	506.198	80.001	19.995	103.163	20.097	4.022	0.502
850.000	507.184	80.002	19.996	103.158	20.096	4.065	0.491
852.000	508.225	80.003	19.995	103.160	20.098	3.947	0.490
854.000	509.286	80.004	19.995	103.159	20.101	3.711	0.527
856.000	510.285	80.006	19.996	103.147	20.099	3.880	0.510
858.000	511.327	80.004	19.995	103.157	20.097	4.038	0.520
860.000	512.335	80.005	19.995	103.155	20.099	3.854	0.507
862.000	513.326	80.001	19.994	103.166	20.102	3.664	0.543
864.000	514.398	80.001	19.995	103.153	20.103	3.565	0.531
866.000	515.454	80.002	19.994	103.162	20.104	3.518	0.527
868.000	516.477	80.002	19.995	103.162	20.103	3.577	0.504
870.000	517.488	80.003	19.994	103.153	20.101	3.750	0.521
872.000	518.518	80.004	19.994	103.164	20.102	3.659	0.495
874.000	519.551	80.005	19.994	103.163	20.103	3.577	0.517
876.000	520.603	80.004	19.994	103.162	20.101	3.731	0.523
878.000	521.642	80.003	19.995	103.153	20.103	3.593	0.489
880.000	522.667	80.005	19.995	103.160	20.104	3.532	0.487
882.000	523.706	80.004	19.994	103.155	20.103	3.591	0.515
884.000	524.726	80.004	19.994	103.162	20.106	3.325	0.529
886.000	525.756	80.006	19.996	103.176	20.102	3.616	0.512
888.000	526.757	80.003	19.994	103.166	20.101	3.753	0.533
890.000	527.791	80.002	19.996	103.170	20.102	3.636	0.497
892.000	528.799	80.004	19.995	103.165	20.103	3.595	0.499
894.000	529.864	80.000	19.995	103.172	20.104	3.502	0.505
896.000	530.867	80.001	19.996	103.156	20.103	3.608	0.525
898.000	531.915	80.003	19.996	103.176	20.105	3.419	0.514
900.000	532.915	80.000	19.995	103.157	20.101	3.695	0.516
902.000	533.942	80.003	19.995	103.158	20.101	3.710	0.523
904.000	534.996	80.003	19.995	103.156	20.104	3.498	0.516
906.000	535.996	80.002	19.994	103.146	20.103	3.545	0.500
908.000	537.051	80.003	19.995	103.147	20.102	3.616	0.514
910.000	538.028	80.002	19.996	103.166	20.107	3.306	0.498
912.000	539.092	80.003	19.994	103.147	20.105	3.448	0.513
914.000	540.062	80.003	19.995	103.154	20.107	3.266	0.486
916.000	541.110	80.003	19.996	103.155	20.103	3.562	0.518
918.000	542.127	80.002	19.996	103.148	20.106	3.329	0.511
920.000	543.159	80.003	19.996	103.144	20.108	3.224	0.531
922.000	544.166	80.002	19.994	103.142	20.104	3.533	0.485
924.000	545.175	80.002	19.995	103.117	20.108	3.206	0.520
926.000	546.211	80.001	19.995	103.136	20.104	3.488	0.520
928.000	547.191	80.002	19.995	103.202	20.107	3.289	0.509
930.000	548.279	80.003	19.995	103.150	20.108	3.244	0.492
932.000	549.289	80.005	19.994	103.148	20.110	3.086	0.535
934.000	550.251	80.003	19.994	103.145	20.108	3.220	0.481
936.000	551.310	80.005	19.995	103.159	20.105	3.425	0.507
938.000	552.308	80.004	19.995	103.153	20.110	3.033	0.497
940.000	553.334	80.004	19.994	103.155	20.110	3.076	0.512
942.000	554.366	80.005	19.994	103.159	20.109	3.139	0.516
944.000	555.394	80.006	19.994	103.154	20.108	3.216	0.500
946.000	556.415	80.004	19.994	103.154	20.106	3.340	0.530
948.000	557.426	80.002	19.994	103.159	20.106	3.348	0.509
950.000	558.472	80.003	19.995	103.159	20.106	3.366	0.527
952.000	559.496	80.005	19.993	103.148	20.105	3.437	0.518
954.000	560.503	80.002	19.995	103.149	20.110	3.055	0.513
956.000	561.507	80.003	19.994	103.163	20.104	3.517	0.509
958.000	562.537	80.005	19.994	103.156	20.110	3.102	0.530
960.000	563.534	80.006	19.995	103.151	20.107	3.295	0.486
962.000	564.528	80.005	19.992	103.155	20.105	3.430	0.473
964.000	565.488	80.007	19.995	103.157	20.108	3.178	0.509
966.000	566.518	80.004	19.992	103.152	20.107	3.270	0.517
968.000	567.545	80.008	19.998	103.145	20.112	2.910	0.514
970.000	568.550	80.004	19.993	103.146	20.107	3.297	0.514
972.000	569.562	80.004	19.994	103.143	20.107	3.281	0.489
974.000	570.588	80.003	19.994	103.149	20.109	3.120	0.528
976.000	571.600	80.003	19.996	103.108	20.108	3.224	0.525
978.000	572.595	80.002	19.994	103.187	20.111	2.982	0.532
980.000	573.676	80.004	19.994	103.175	20.112	2.893	0.550
982.000	574.720	80.003	19.995	103.152	20.112	2.946	0.511
984.000	575.731	80.002	19.996	103.161	20.113	2.878	0.491
986.000	576.747	80.002	19.995	103.161	20.111	3.024	0.503
988.000	577.773	80.004	19.994	103.159	20.115	2.704	0.513
990.000	578.795	80.003	19.991	103.150	20.118	2.513	0.516
992.000	579.770	80.006	19.995	103.151	20.112	2.944	0.517
994.000	580.799	80.003	19.997	103.153	20.116	2.600	0.516
996.000	581.807	80.004	19.996	103.175	20.117	2.558	0.515
998.000	582.823	80.003	19.994	103.162	20.114	2.800	0.495
1000.000	583.839	80.002	19.998	103.151	20.112	2.905	0.509
1002.000	584.841	80.004	19.997	103.149	20.116	2.665	0.488
1004.000	585.904	80.003	19.997	103.153	20.116	2.629	0.524
1006.000	586.875	80.003	19.996	103.149	20.112	2.887	0.514
1008.000	587.857	80.001	19.996	103.146	20.114	2.755	0.507
1010.000	588.862	80.003	19.998	103.150	20.113	2.848	0.484
1012.000	589.902	80.002	19.996	103.156	20.113	2.824	0.521
1014.000	590.883	80.002	19.996	103.161	20.113	2.844	0.515
1016.000	591.896	80.002	19.993	103.145	20.111	3.005	0.495
1018.000	592.938	80.004	19.995	103.154	20.113	2.834	0.526
1020.000	593.973	80.004	19.995	103.151	20.114	2.745	0.510
1022.000	594.973	80.004	19.994	103.146	20.115	2.741	0.528
1024.000	595.976	80.004	19.994	103.147	20.114	2.743	0.471
1025.999	597.018	80.004	19.994	103.157	20.112	2.932	0.535
1027.999	597.995	80.003	19.995	103.149	20.112	2.958	0.487
1029.999	598.990	80.004	19.994	103.146	20.115	2.694	0.482
1032.000	599.980	80.004	19.996	103.144	20.113	2.883	0.510
1034.000	601.023	80.004	19.996	103.150	20.115	2.733	0.526
1035.999	601.986	80.005	19.996	103.151	20.115	2.722	0.496
1037.999	603.021	80.004	19.994	103.146	20.115	2.670	0.526
1040.000	604.001	80.005	19.993	103.146	20.113	2.883	0.523
1042.000	604.976	80.003	19.995	103.144	20.113	2.883	0.500
1043.999	606.005	80.005	19.997	103.146	20.110	3.060	0.498
1045.999	607.001	80.006	19.995	103.143	20.112	2.911	0.502
1047.999	608.040	80.007	19.994	103.142	20.114	2.755	0.522
1050.001	609.012	80.006	19.993	103.143	20.114	2.785	0.520
1052.000	610.014	80.005	19.997	103.147	20.115	2.676	0.496
1053.999	610.992	80.007	19.994	103.146	20.116	2.649	0.517
1055.999	611.970	80.004	19.995	103.143	20.114	2.791	0.476
1057.999	612.970	80.003	19.993	103.151	20.118	2.521	0.510
1059.999	613.955	80.005	19.995	103.148	20.112	2.932	0.524
1061.999	614.963	80.003	19.994	103.144	20.114	2.765	0.498
1064.000	615.953	80.003	19.994	103.147	20.118	2.525	0.489
1065.999	616.938	80.004	19.994	103.144	20.121	2.296	0.469
1068.000	617.942	80.003	19.994	103.144	20.118	2.487	0.505
1069.999	618.935	80.004	19.995	103.148	20.117	2.552	0.502
1071.999	619.927	80.003	19.994	103.146	20.120	2.375	0.486
1073.999	620.896	80.002	19.993	103.146	20.116	2.667	0.504
1076.000	621.874	80.003	19.993	103.145	20.116	2.649	0.487
1078.000	622.913	80.004	19.996	103.146	20.117	2.535	0.482
1079.999	623.852	80.004	19.998	103.146	20.113	2.885	0.465
1082.000	624.840	80.003	19.997	103.146	20.117	2.541	0.483
1083.999	625.817	80.003	19.994	103.150	20.117	2.572	0.490
1086.000	626.744	80.003	19.995	103.148	20.116	2.618	0.482
1088.000	627.771	80.003	19.994	103.148	20.116	2.669	0.497
1089.999	628.718	80.002	19.994	103.151	20.120	2.348	0.493
1091.999	629.741	80.003	19.994	103.159	20.117	2.551	0.486
1093.999	630.735	80.001	19.995	103.178	20.118	2.480	0.535
1095.999	631.768	80.002	19.996	103.160	20.118	2.519	0.512
1097.999	632.799	80.003	19.995	103.165	20.117	2.596	0.526
1100.000	633.832	80.004	19.997	103.148	20.115	2.730	0.527
1101.999	634.926	80.005	19.995	103.165	20.117	2.596	0.532
1103.999	636.048	80.004	19.996	103.151	20.116	2.633	0.548
1105.999	637.069	80.005	19.996	103.152	20.117	2.544	0.567
1107.999	638.156	80.004	19.996	103.156	20.113	2.883	0.536
1109.999	639.210	80.004	19.995	103.163	20.111	3.017	0.535
1111.999	640.348	80.003	19.996	103.172	20.112	2.921	0.558
1113.999	641.346	80.003	19.994	103.163	20.113	2.870	0.509
1116.000	642.459	80.005	19.994	103.145	20.115	2.738	0.546
1118.000	643.551	80.004	19.994	103.155	20.112	2.917	0.562
1120.000	644.610	80.005	19.995	103.153	20.113	2.850	0.515
1121.999	645.648	80.006	19.993	103.151	20.113	2.826	0.523
1124.000	646.720	80.005	19.994	103.150	20.111	2.961	0.528
1125.999	647.778	80.005	19.996	103.169	20.107	3.268	0.527
1127.999	648.854	80.006	19.996	103.159	20.113	2.878	0.553
1129.999	649.972	80.006	19.995	103.162	20.108	3.248	0.550
1131.999	651.037	80.007	19.992	103.161	20.110	3.059	0.565
1133.999	652.116	80.007	19.994	103.166	20.112	2.914	0.535
1135.999	653.141	80.003	19.994	103.173	20.115	2.713	0.497
1137.999	654.237	80.004	19.997	103.161	20.112	2.929	0.537
1139.999	655.251	80.003	19.995	103.154	20.113	2.845	0.500
1141.999	656.343	80.003	19.995	103.160	20.113	2.870	0.532
1144.000	657.412	80.004	19.994	103.171	20.111	3.030	0.525
1145.999	658.442	80.004	19.994	103.180	20.110	3.073	0.544
1148.000	659.510	80.003	19.994	103.178	20.112	2.921	0.496
1149.999	660.585	80.003	19.995	103.181	20.109	3.105	0.523
1151.999	661.622	80.003	19.995	103.176	20.111	2.961	0.511
1154.000	662.615	80.003	19.995	103.168	20.110	3.061	0.507
1155.999	663.662	80.004	19.994	103.171	20.108	3.236	0.506
1158.000	664.710	80.006	19.995	103.158	20.110	3.100	0.506
1159.999	665.766	80.004	19.995	103.175	20.108	3.243	0.528
1161.999	666.803	80.005	19.995	103.181	20.106	3.345	0.504
1163.999	667.821	80.005	19.993	103.174	20.108	3.201	0.519
1165.999	668.860	80.004	19.994	103.168	20.106	3.341	0.527
1167.999	669.878	80.003	19.997	103.162	20.109	3.110	0.513
1170.000	670.884	80.002	19.996	103.168	20.112	2.954	0.542
1172.001	671.883	80.003	19.995	103.177	20.113	2.882	0.518
1173.999	672.893	80.004	19.995	103.162	20.112	2.925	0.505
1175.999	673.920	80.003	19.995	103.176	20.109	3.122	0.516
1177.999	674.969	80.002	19.995	103.168	20.114	2.779	0.516
1179.999	675.978	80.005	19.992	103.155	20.109	3.151	0.509
1181.999	676.981	80.003	19.996	103.168	20.110	3.045	0.495
1184.000	678.009	80.006	19.995	103.167	20.109	3.163	0.524
1185.999	678.995	80.005	19.994	103.174	20.113	2.838	0.515
1187.999	679.983	80.005	19.994	103.175	20.105	3.398	0.502
1189.999	680.998	80.005	19.995	103.164	20.111	2.993	0.502
1191.999	682.005	80.006	19.997	103.155	20.111	3.002	0.520
1193.999	682.973	80.003	19.995	103.153	20.107	3.311	0.471
1195.999	683.952	80.004	19.996	103.148	20.111	2.986	0.482
1197.999	684.907	80.005	19.996	103.167	20.110	3.039	0.465
1199.999	685.922	80.005	19.995	103.150	20.111	2.990	0.494
1201.999	686.935	80.004	19.994	103.156	20.113	2.864	0.496
1203.999	687.925	80.005	19.996	103.156	20.116	2.629	0.480
1205.999	688.876	80.004	19.994	103.156	20.111	2.978	0.458
1208.000	689.816	80.004	19.994	103.150	20.115	2.671	0.453
1209.999	690.864	80.006	19.994	103.161	20.115	2.683	0.492
1212.000	691.816	80.006	19.993	103.165	20.115	2.718	0.465
1213.999	692.811	80.005	19.994	103.165	20.117	2.570	0.522
1215.999	693.808	80.007	19.995	103.158	20.117	2.568	0.506
1217.999	694.832	80.005	19.996	103.161	20.116	2.657	0.498
1219.999	695.795	80.004	19.991	103.152	20.114	2.796	0.508
1221.999	696.807	80.003	19.994	103.157	20.116	2.631	0.503
1223.999	697.812	80.003	19.995	103.156	20.116	2.651	0.494
1225.999	698.783	80.004	19.994	103.154	20.117	2.588	0.457
1227.999	699.772	80.004	20.000	103.147	20.114	2.808	0.497
1229.999	700.793	80.004	19.996	103.144	20.112	2.954	0.481
1232.000	701.816	80.003	19.996	103.154	20.111	2.964	0.493
1233.999	702.851	80.003	19.995	103.147	20.112	2.916	0.525
1235.999	703.848	80.003	19.996	103.147	20.116	2.637	0.516
1237.999	704.872	80.003	19.994	103.146	20.116	2.615	0.527
1240.000	705.847	80.005	19.996	103.142	20.113	2.853	0.501
1241.999	706.816	80.004	19.996	103.146	20.112	2.930	0.496
1243.999	707.863	80.006	19.994	103.142	20.117	2.564	0.504
1245.999	708.861	80.003	19.994	103.142	20.113	2.828	0.511
1247.999	709.872	80.004	19.994	103.145	20.113	2.867	0.539
1250.000	710.894	80.005	19.994	103.143	20.114	2.802	0.514
1252.000	711.943	80.004	19.994	103.144	20.117	2.594	0.524
1253.999	712.985	80.003	19.996	103.144	20.115	2.690	0.536
1255.999	713.941	80.003	19.995	103.151	20.116	2.598	0.515
1257.999	715.070	80.006	19.995	103.143	20.120	2.369	0.566
1260.000	716.049	80.004	19.995	103.145	20.114	2.785	0.552
1261.999	717.067	80.003	19.996	103.145	20.116	2.657	0.516
1263.999	718.125	80.006	19.996	103.142	20.118	2.460	0.528
1266.000	719.120	80.005	19.996	103.144	20.110	3.034	0.493
1267.999	720.152	80.004	19.996	103.143	20.115	2.692	0.501
1269.999	721.150	80.006	19.996	103.143	20.117	2.538	0.504
1271.999	722.162	80.007	19.996	103.142	20.119	2.391	0.500
1274.001	723.182	80.005	19.993	103.143	20.115	2.670	0.517
1275.999	724.205	80.005	19.997	103.145	20.116	2.613	0.512
1277.999	725.183	80.004	19.994	103.137	20.113	2.879	0.519
1279.999	726.115	80.004	19.995	103.145	20.113	2.877	0.475
1281.999	727.157	80.004	19.995	103.146	20.113	2.867	0.489
1283.999	728.143	80.005	19.995	103.143	20.112	2.955	0.492
1285.999	729.104	80.004	19.997	103.141	20.115	2.729	0.467
1287.999	730.076	80.005	19.995	103.136	20.112	2.944	0.469
1290.000	731.051	80.006	19.996	103.128	20.115	2.672	0.526
1291.999	731.990	80.004	19.994	103.139	20.116	2.601	0.473
1293.999	732.933	80.006	19.995	103.128	20.119	2.442	0.485
1295.999	733.867	80.006	19.994	103.134	20.115	2.735	0.450
1297.999	734.782	80.007	19.996	103.139	20.111	2.989	0.458
1299.999	735.754	80.004	19.996	103.129	20.113	2.867	0.470
1301.999	736.670	80.004	19.995	103.139	20.113	2.820	0.469
1303.999	737.580	80.004	19.995	103.138	20.114	2.745	0.459
1305.999	738.549	80.003	19.996	103.142	20.113	2.883	0.493
1307.999	739.547	80.004	19.995	103.140	20.114	2.779	0.481
1309.999	740.499	80.004	19.993	103.143	20.115	2.698	0.482
1311.999	741.506	80.003	19.994	103.144	20.112	2.915	0.484
1313.999	742.510	80.003	19.995	103.144	20.112	2.946	0.476
1315.999	743.490	80.003	19.997	103.141	20.114	2.759	0.516