File: 01_Data/Luan_Panel/MCC/Luan_Panel_MCC_30K_min_211118_R2.txt
Sample ID:	C:\MCC\MCC Cal\Test\Luan_Panel_MCC_30K_min_211118_R2.txt
Sample Weight (mg):	4.51
Heating Rate (C/s):	0.5
Combustor Temp (C):	900
N2 Flow Rate (cc/min):	80
O2 Flow Rate (cc/min):	20
Calibration File:	C:\MCC\MCC Cal\Coeff1 JN10440_30_210304.txt.txt
T Correction Coefficients:	0	1.024463	0
Time Shift (s):	14
*
Time (s)	Temperature (C)	N2 flow rate (cc/min)	O2 flow rate (cc/min)	Flow Rate (cc/min)	Oxygen (%)	HRR (W/g)	Heating rate (C/s)
0.000	108.632	80.004	19.996	103.045	20.324	-0.080	-0.020
1.999	108.701	80.004	19.996	103.035	20.325	-0.099	0.030
3.999	108.678	80.004	19.996	103.030	20.328	-0.318	0.016
5.999	108.672	80.003	19.996	103.035	20.324	-0.080	0.007
7.999	108.668	80.002	19.996	103.044	20.328	-0.372	0.007
10.000	108.642	80.003	19.996	103.040	20.329	-0.378	0.002
12.000	108.642	80.003	19.997	103.039	20.329	-0.404	-0.010
13.999	108.613	80.003	19.996	103.036	20.328	-0.310	-0.008
15.999	108.624	80.004	19.997	103.045	20.324	-0.048	-0.012
17.999	108.633	80.005	19.997	103.045	20.326	-0.201	-0.000
19.999	108.628	80.005	19.997	103.065	20.321	0.193	0.014
21.999	108.659	80.004	19.996	103.078	20.320	0.233	0.013
23.999	108.662	80.002	19.996	103.057	20.317	0.426	0.005
25.999	108.712	80.004	19.996	103.067	20.319	0.331	0.044
27.999	108.761	80.002	19.994	103.181	20.318	0.373	0.031
29.999	108.858	80.001	19.995	103.115	20.315	0.604	0.045
31.999	108.877	80.002	19.995	103.127	20.310	0.936	0.011
33.999	108.953	80.003	19.995	103.163	20.305	1.331	0.031
35.999	109.099	80.002	19.995	103.156	20.305	1.270	0.106
37.999	109.244	80.003	19.995	103.187	20.303	1.461	0.025
39.999	109.425	80.003	19.994	103.204	20.300	1.686	0.081
41.999	109.630	80.004	19.996	103.196	20.298	1.774	0.111
43.999	109.825	80.003	19.996	103.212	20.297	1.886	0.085
45.999	110.066	80.001	19.995	103.239	20.295	1.984	0.098
47.999	110.311	80.002	19.994	103.225	20.293	2.181	0.111
49.999	110.596	80.003	19.995	103.226	20.288	2.484	0.155
51.999	110.889	80.002	19.996	103.248	20.286	2.628	0.160
53.999	111.266	80.003	19.995	103.263	20.286	2.638	0.144
55.999	111.648	80.002	19.995	103.263	20.282	2.961	0.225
57.999	112.025	80.001	19.994	103.268	20.282	2.916	0.193
59.999	112.448	80.003	19.995	103.276	20.281	3.042	0.228
61.999	112.883	80.003	19.995	103.260	20.279	3.186	0.225
63.999	113.343	80.003	19.995	103.262	20.278	3.210	0.227
65.999	113.861	80.003	19.995	103.274	20.280	3.063	0.264
67.999	114.358	80.003	19.995	103.276	20.277	3.280	0.247
69.999	114.899	80.003	19.995	103.306	20.281	2.987	0.293
71.999	115.449	80.005	19.995	103.319	20.279	3.176	0.292
73.999	116.018	80.004	19.995	103.291	20.278	3.212	0.264
75.999	116.624	80.003	19.995	103.287	20.280	3.120	0.326
77.999	117.211	80.004	19.995	103.283	20.276	3.372	0.318
79.999	117.871	80.003	19.996	103.277	20.279	3.164	0.297
81.999	118.539	80.003	19.996	103.269	20.283	2.887	0.325
83.999	119.165	80.003	19.996	103.267	20.278	3.206	0.338
85.999	119.812	80.002	19.995	103.264	20.281	3.035	0.326
87.999	120.514	80.002	19.996	103.266	20.280	3.079	0.326
89.999	121.193	80.003	19.995	103.273	20.283	2.891	0.356
91.999	121.921	80.003	19.995	103.269	20.280	3.105	0.344
93.999	122.613	80.005	19.995	103.272	20.279	3.196	0.327
95.999	123.387	80.005	19.995	103.266	20.284	2.816	0.369
97.999	124.076	80.005	19.994	103.267	20.282	2.969	0.339
100.000	124.817	80.005	19.995	103.269	20.281	2.989	0.356
101.999	125.571	80.006	19.995	103.275	20.281	2.995	0.346
103.999	126.306	80.006	19.995	103.265	20.282	2.941	0.350
105.999	127.057	80.004	19.996	103.264	20.281	3.033	0.374
107.999	127.777	80.005	19.996	103.274	20.282	2.927	0.349
109.999	128.551	80.002	19.997	103.274	20.283	2.872	0.373
111.999	129.334	80.003	19.997	103.282	20.281	3.041	0.395
113.999	130.115	80.002	19.996	103.276	20.282	2.967	0.392
115.999	130.908	80.002	19.996	103.285	20.282	2.931	0.399
117.999	131.704	80.002	19.996	103.280	20.281	3.013	0.387
119.999	132.509	80.003	19.995	103.278	20.281	3.029	0.434
121.999	133.314	80.003	19.995	103.293	20.279	3.145	0.397
123.999	134.166	80.002	19.995	103.283	20.281	3.018	0.392
125.999	134.943	80.003	19.996	103.278	20.279	3.143	0.415
127.999	135.791	80.003	19.995	103.266	20.277	3.303	0.431
130.000	136.621	80.003	19.995	103.267	20.278	3.237	0.423
131.999	137.517	80.003	19.995	103.274	20.278	3.231	0.429
133.999	138.335	80.002	19.995	103.296	20.279	3.165	0.452
135.999	139.184	80.003	19.996	103.298	20.276	3.363	0.413
137.999	140.069	80.003	19.996	103.293	20.275	3.440	0.442
139.999	140.937	80.002	19.996	103.295	20.280	3.103	0.437
141.999	141.800	80.003	19.996	103.299	20.280	3.111	0.430
144.000	142.673	80.001	19.997	103.291	20.278	3.221	0.447
145.999	143.562	80.002	19.995	103.295	20.277	3.324	0.430
147.999	144.514	80.003	19.994	103.298	20.279	3.141	0.457
149.999	145.405	80.003	19.995	103.296	20.280	3.097	0.431
151.999	146.267	80.003	19.995	103.281	20.280	3.117	0.407
153.999	147.203	80.003	19.994	103.286	20.278	3.263	0.465
155.999	148.114	80.005	19.995	103.283	20.279	3.165	0.480
157.999	149.023	80.004	19.995	103.287	20.281	3.035	0.445
159.999	150.002	80.005	19.995	103.287	20.278	3.210	0.471
161.999	150.912	80.005	19.995	103.287	20.276	3.410	0.467
163.999	151.864	80.003	19.994	103.296	20.276	3.365	0.482
165.999	152.860	80.003	19.994	103.290	20.278	3.243	0.504
167.999	153.750	80.004	19.995	103.300	20.275	3.444	0.442
169.999	154.662	80.003	19.995	103.279	20.280	3.061	0.457
171.999	155.635	80.005	19.995	103.276	20.279	3.166	0.491
173.999	156.568	80.004	19.995	103.296	20.277	3.338	0.487
175.999	157.501	80.004	19.997	103.300	20.280	3.123	0.471
177.999	158.432	80.005	19.994	103.296	20.280	3.065	0.460
179.999	159.402	80.004	19.996	103.283	20.280	3.055	0.481
181.999	160.317	80.005	19.995	103.280	20.280	3.085	0.473
183.999	161.321	80.006	19.995	103.267	20.280	3.124	0.471
185.999	162.266	80.005	19.996	103.287	20.279	3.163	0.448
187.999	163.237	80.005	19.995	103.287	20.278	3.224	0.462
189.999	164.247	80.004	19.997	103.271	20.278	3.258	0.487
191.999	165.252	80.003	19.996	103.289	20.277	3.308	0.518
193.999	166.206	80.003	19.995	103.272	20.276	3.348	0.469
195.999	167.193	80.003	19.995	103.273	20.277	3.284	0.482
197.999	168.170	80.002	19.996	103.283	20.274	3.502	0.504
199.999	169.149	80.004	19.996	103.279	20.278	3.262	0.507
201.999	170.102	80.003	19.996	103.276	20.274	3.529	0.486
203.999	171.070	80.002	19.997	103.275	20.275	3.475	0.503
205.999	172.036	80.003	19.997	103.267	20.276	3.386	0.486
207.999	173.019	80.002	19.996	103.281	20.276	3.346	0.506
209.999	174.003	80.002	19.996	103.272	20.275	3.424	0.490
211.999	174.970	80.003	19.996	103.272	20.276	3.350	0.475
214.000	175.975	80.002	19.996	103.266	20.276	3.360	0.471
215.999	176.963	80.003	19.996	103.263	20.278	3.205	0.490
217.999	177.954	80.004	19.995	103.269	20.277	3.288	0.491
219.999	178.929	80.004	19.995	103.274	20.276	3.352	0.492
221.999	179.915	80.005	19.995	103.275	20.278	3.205	0.487
223.999	180.899	80.003	19.994	103.279	20.276	3.360	0.484
225.999	181.842	80.003	19.994	103.295	20.272	3.638	0.470
227.999	182.832	80.003	19.995	103.288	20.272	3.683	0.478
229.999	183.864	80.001	19.995	103.269	20.274	3.490	0.528
231.999	184.802	80.003	19.995	103.289	20.273	3.611	0.488
233.999	185.863	80.004	19.995	103.278	20.272	3.671	0.525
235.999	186.844	80.003	19.997	103.280	20.269	3.902	0.480
237.999	187.894	80.005	19.995	103.299	20.269	3.846	0.513
239.999	188.866	80.004	19.994	103.282	20.270	3.798	0.471
241.999	189.828	80.005	19.994	103.281	20.272	3.685	0.480
243.999	190.849	80.005	19.995	103.265	20.271	3.736	0.506
245.999	191.806	80.005	19.994	103.270	20.271	3.751	0.473
247.999	192.777	80.005	19.995	103.280	20.268	3.956	0.488
249.999	193.790	80.004	19.995	103.265	20.265	4.173	0.511
251.999	194.800	80.005	19.997	103.270	20.266	4.109	0.505
253.999	195.778	80.006	19.995	103.270	20.267	4.034	0.499
255.999	196.745	80.005	19.995	103.265	20.265	4.129	0.448
257.999	197.752	80.004	19.995	103.271	20.268	3.918	0.507
259.999	198.735	80.006	19.995	103.267	20.265	4.161	0.479
261.999	199.733	80.007	19.994	103.266	20.261	4.420	0.479
263.999	200.659	80.007	19.995	103.269	20.259	4.574	0.439
265.999	201.699	80.004	19.995	103.273	20.261	4.420	0.457
267.999	202.712	80.005	19.995	103.265	20.259	4.572	0.499
269.999	203.692	80.005	19.995	103.267	20.256	4.781	0.485
271.999	204.725	80.004	19.995	103.270	20.258	4.630	0.507
273.999	205.731	80.004	19.995	103.268	20.258	4.672	0.530
275.999	206.714	80.002	19.995	103.268	20.253	4.993	0.520
277.999	207.738	80.005	19.994	103.270	20.250	5.226	0.494
279.999	208.702	80.003	19.994	103.264	20.249	5.322	0.500
281.999	209.715	80.003	19.995	103.267	20.246	5.516	0.501
283.999	210.722	80.003	19.994	103.276	20.246	5.514	0.520
285.999	211.685	80.004	19.995	103.270	20.241	5.884	0.472
287.999	212.733	80.002	19.995	103.270	20.240	5.974	0.518
289.999	213.713	80.002	19.995	103.272	20.238	6.074	0.529
291.999	214.743	80.003	19.996	103.275	20.237	6.137	0.502
293.999	215.703	80.003	19.995	103.285	20.233	6.438	0.515
295.999	216.677	80.003	19.996	103.271	20.233	6.481	0.482
297.999	217.724	80.001	19.995	103.275	20.228	6.807	0.518
299.999	218.691	80.004	19.996	103.279	20.227	6.851	0.505
302.000	219.651	80.001	19.996	103.271	20.226	6.937	0.463
303.999	220.659	80.004	19.997	103.267	20.219	7.426	0.510
305.999	221.678	80.003	19.995	103.275	20.219	7.447	0.530
307.999	222.648	80.004	19.995	103.278	20.215	7.724	0.486
309.999	223.644	80.004	19.995	103.267	20.214	7.827	0.497
311.999	224.602	80.003	19.995	103.267	20.212	7.948	0.465
313.999	225.619	80.003	19.995	103.287	20.206	8.346	0.523
315.999	226.644	80.004	19.995	103.265	20.207	8.330	0.504
317.999	227.605	80.003	19.994	103.264	20.201	8.719	0.456
319.999	228.585	80.003	19.995	103.264	20.202	8.637	0.497
321.999	229.583	80.005	19.995	103.258	20.200	8.819	0.475
323.999	230.642	80.005	19.995	103.256	20.199	8.908	0.511
325.999	231.599	80.005	19.996	103.263	20.198	8.947	0.483
327.999	232.585	80.004	19.995	103.265	20.196	9.123	0.511
329.999	233.568	80.002	19.995	103.269	20.196	9.073	0.495
331.999	234.528	80.006	19.995	103.266	20.193	9.279	0.465
333.999	235.530	80.005	19.995	103.263	20.191	9.452	0.500
335.999	236.524	80.005	19.995	103.264	20.190	9.515	0.487
337.999	237.506	80.003	19.995	103.281	20.185	9.848	0.501
339.999	238.491	80.006	19.994	103.272	20.186	9.813	0.470
341.999	239.501	80.005	19.995	103.274	20.180	10.229	0.488
343.999	240.448	80.004	19.995	103.290	20.181	10.128	0.464
345.999	241.442	80.005	19.994	103.276	20.176	10.544	0.487
347.999	242.461	80.007	19.994	103.269	20.173	10.701	0.521
349.999	243.451	80.007	19.994	103.275	20.171	10.878	0.478
351.999	244.400	80.006	19.994	103.277	20.168	11.106	0.483
353.999	245.381	80.006	19.995	103.272	20.165	11.330	0.468
355.999	246.351	80.004	19.994	103.281	20.164	11.380	0.476
357.999	247.330	80.005	19.994	103.279	20.159	11.709	0.472
359.999	248.353	80.002	19.995	103.294	20.156	11.940	0.531
361.999	249.367	80.002	19.995	103.286	20.152	12.235	0.570
363.999	250.111	80.001	19.996	103.272	20.146	12.654	0.326
365.999	251.385	80.004	19.995	103.273	20.146	12.643	0.636
367.999	252.307	80.002	19.995	103.282	20.143	12.891	0.512
369.999	253.263	80.001	19.996	103.279	20.137	13.310	0.505
371.999	254.218	80.002	19.995	103.285	20.131	13.754	0.466
373.999	255.242	80.003	19.995	103.274	20.125	14.156	0.490
375.999	256.137	80.001	19.996	103.298	20.119	14.581	0.471
377.999	257.141	80.003	19.995	103.303	20.115	14.900	0.503
379.999	258.089	80.002	19.994	103.307	20.108	15.413	0.475
381.999	259.096	80.001	19.995	103.309	20.101	15.850	0.514
383.999	260.080	80.003	19.996	103.313	20.098	16.118	0.496
385.999	261.083	80.004	19.994	103.308	20.088	16.842	0.502
387.999	262.094	80.005	19.995	103.311	20.087	16.880	0.523
389.999	263.031	80.003	19.996	103.333	20.076	17.674	0.485
391.999	264.068	80.004	19.996	103.333	20.065	18.484	0.495
393.999	265.071	80.002	19.997	103.320	20.061	18.757	0.484
395.999	266.100	79.999	19.997	103.337	20.059	18.923	0.538
397.999	267.159	80.003	19.997	103.339	20.048	19.701	0.527
399.999	268.178	80.003	19.995	103.341	20.040	20.252	0.499
401.999	269.203	80.005	19.997	103.341	20.038	20.389	0.515
403.999	270.231	80.004	19.995	103.339	20.030	20.965	0.535
405.999	271.291	80.006	19.994	103.341	20.023	21.467	0.500
407.999	272.310	80.006	19.994	103.348	20.017	21.915	0.518
409.999	273.356	80.006	19.994	103.355	20.008	22.573	0.524
411.999	274.377	80.004	19.994	103.340	20.005	22.750	0.504
413.999	275.414	80.006	19.995	103.344	19.998	23.266	0.522
415.999	276.436	80.001	19.995	103.342	19.988	23.963	0.526
417.999	277.511	80.005	19.994	103.353	19.983	24.308	0.531
419.999	278.533	80.006	19.995	103.348	19.975	24.898	0.511
422.000	279.586	80.004	19.994	103.366	19.972	25.116	0.513
423.999	280.619	80.003	19.994	103.349	19.964	25.692	0.510
425.999	281.624	80.005	19.994	103.357	19.962	25.837	0.523
428.000	282.652	80.004	19.995	103.348	19.951	26.627	0.519
429.999	283.664	80.005	19.995	103.345	19.948	26.855	0.484
431.999	284.697	80.008	19.995	103.346	19.942	27.262	0.482
433.999	285.672	80.004	19.994	103.345	19.933	27.888	0.477
435.999	286.734	80.005	19.995	103.348	19.927	28.354	0.503
438.000	287.717	80.005	19.994	103.370	19.922	28.721	0.489
439.999	288.764	80.004	19.995	103.350	19.914	29.230	0.517
441.999	289.756	80.006	19.994	103.365	19.908	29.719	0.508
444.000	290.748	80.002	19.996	103.355	19.900	30.256	0.452
445.999	291.735	80.002	19.995	103.353	19.895	30.626	0.454
447.999	292.758	80.003	19.995	103.358	19.885	31.314	0.517
449.999	293.696	80.003	19.995	103.354	19.878	31.861	0.506
452.000	294.711	80.004	19.996	103.355	19.869	32.459	0.492
453.999	295.658	80.005	19.995	103.349	19.867	32.635	0.461
455.999	296.630	80.003	19.995	103.363	19.859	33.183	0.494
457.999	297.569	80.004	19.997	103.364	19.851	33.743	0.515
459.999	298.513	80.003	19.995	103.365	19.843	34.353	0.466
461.999	299.444	80.002	19.996	103.374	19.837	34.754	0.462
463.999	300.419	80.004	19.996	103.380	19.832	35.109	0.483
465.999	301.352	80.003	19.995	103.377	19.824	35.696	0.511
467.999	302.239	80.001	19.995	103.381	19.817	36.205	0.474
469.999	303.208	80.004	19.995	103.383	19.809	36.782	0.460
471.999	304.115	80.003	19.996	103.384	19.803	37.180	0.458
473.999	305.049	80.005	19.995	103.382	19.793	37.929	0.477
475.999	306.022	80.004	19.996	103.382	19.789	38.190	0.473
477.999	306.949	80.002	19.996	103.379	19.782	38.739	0.490
479.999	307.868	80.005	19.995	103.384	19.771	39.542	0.457
481.999	308.772	80.004	19.995	103.383	19.761	40.239	0.454
483.999	309.732	80.003	19.996	103.388	19.756	40.566	0.452
485.999	310.669	80.005	19.996	103.386	19.748	41.157	0.469
487.999	311.618	80.002	19.995	103.392	19.739	41.810	0.470
489.999	312.576	80.003	19.996	103.407	19.733	42.252	0.462
491.999	313.544	80.004	19.996	103.420	19.725	42.823	0.481
493.999	314.520	80.005	19.996	103.422	19.714	43.570	0.488
495.999	315.470	80.003	19.996	103.422	19.705	44.234	0.473
497.999	316.446	80.003	19.995	103.421	19.693	45.073	0.473
499.999	317.412	80.003	19.996	103.423	19.683	45.799	0.467
501.999	318.385	80.005	19.995	103.429	19.675	46.385	0.490
504.000	319.399	80.002	19.995	103.428	19.665	47.124	0.501
505.999	320.401	80.005	19.994	103.432	19.654	47.904	0.485
507.999	321.417	80.005	19.996	103.436	19.645	48.535	0.511
509.999	322.384	80.005	19.995	103.447	19.634	49.302	0.500
511.999	323.396	80.006	19.994	103.457	19.623	50.100	0.496
513.999	324.388	80.006	19.995	103.450	19.613	50.845	0.503
515.999	325.409	80.008	19.994	103.457	19.600	51.745	0.508
517.999	326.476	80.004	19.994	103.458	19.595	52.119	0.539
519.999	327.454	80.006	19.995	103.460	19.582	53.082	0.496
521.999	328.484	80.005	19.996	103.471	19.567	54.132	0.485
523.999	329.488	80.003	19.994	103.480	19.557	54.840	0.529
526.000	330.497	80.002	19.995	103.492	19.545	55.745	0.496
527.999	331.533	80.002	19.996	103.472	19.530	56.757	0.502
529.999	332.617	80.005	19.995	103.471	19.520	57.507	0.500
532.000	333.619	80.004	19.995	103.472	19.507	58.459	0.539
533.999	334.681	80.005	19.996	103.488	19.494	59.402	0.527
535.999	335.716	80.004	19.996	103.481	19.489	59.720	0.489
537.999	336.720	80.006	19.994	103.488	19.478	60.536	0.490
539.999	337.705	80.006	19.994	103.494	19.470	61.060	0.497
541.999	338.765	80.004	19.995	103.491	19.461	61.727	0.524
543.999	339.784	80.004	19.995	103.494	19.456	62.061	0.509
545.999	340.798	80.003	19.995	103.498	19.453	62.300	0.509
547.999	341.796	80.002	19.995	103.484	19.444	62.928	0.498
549.999	342.845	80.002	19.996	103.492	19.441	63.120	0.495
551.999	343.843	80.003	19.996	103.484	19.439	63.284	0.527
553.999	344.855	80.004	19.995	103.486	19.442	63.075	0.515
555.999	345.899	80.001	19.996	103.472	19.447	62.689	0.535
557.999	346.949	80.002	19.995	103.471	19.451	62.408	0.516
559.999	347.968	80.002	19.996	103.463	19.454	62.181	0.523
561.999	348.979	80.000	19.996	103.462	19.466	61.349	0.487
563.999	350.078	80.003	19.995	103.458	19.464	61.462	0.557
565.999	351.087	80.003	19.995	103.432	19.480	60.304	0.538
567.999	352.085	80.004	19.996	103.425	19.494	59.270	0.506
569.999	353.192	80.004	19.994	103.419	19.504	58.549	0.568
571.999	354.212	80.005	19.995	103.396	19.525	57.048	0.501
573.999	355.194	80.005	19.996	103.383	19.546	55.533	0.483
575.999	356.224	80.003	19.995	103.380	19.571	53.769	0.515
577.999	357.250	80.004	19.995	103.355	19.600	51.685	0.499
579.999	358.253	80.005	19.996	103.342	19.624	49.921	0.508
581.999	359.299	80.005	19.996	103.342	19.656	47.682	0.503
583.999	360.261	80.004	19.996	103.332	19.686	45.519	0.478
585.999	361.346	80.003	19.996	103.305	19.718	43.199	0.532
587.999	362.331	80.003	19.997	103.301	19.751	40.868	0.491
589.999	363.374	80.003	19.996	103.273	19.786	38.394	0.504
591.999	364.406	80.003	19.997	103.267	19.821	35.845	0.517
593.999	365.393	80.005	19.997	103.262	19.855	33.405	0.499
595.999	366.456	80.006	19.995	103.262	19.890	30.928	0.533
597.999	367.449	80.005	19.995	103.247	19.920	28.809	0.514
599.999	368.493	80.005	19.994	103.227	19.950	26.660	0.490
601.999	369.519	80.004	19.995	103.226	19.984	24.194	0.498
603.999	370.502	80.002	19.995	103.225	20.012	22.187	0.488
605.999	371.576	80.002	19.995	103.218	20.037	20.419	0.503
607.999	372.574	80.003	19.995	103.222	20.062	18.641	0.519
609.999	373.616	80.002	19.996	103.204	20.083	17.129	0.494
611.999	374.617	80.005	19.995	103.218	20.103	15.752	0.524
613.999	375.633	80.003	19.995	103.206	20.120	14.479	0.502
615.999	376.669	80.004	19.995	103.196	20.137	13.315	0.519
618.000	377.636	80.003	19.995	103.196	20.149	12.436	0.452
619.999	378.664	80.001	19.996	103.191	20.157	11.838	0.504
621.999	379.696	80.002	19.994	103.194	20.171	10.854	0.510
623.999	380.671	80.001	19.996	103.191	20.174	10.673	0.471
625.999	381.680	80.003	19.996	103.192	20.178	10.356	0.477
627.999	382.677	80.004	19.996	103.190	20.184	9.972	0.487
629.999	383.723	80.003	19.995	103.190	20.191	9.441	0.473
631.999	384.713	80.003	19.996	103.189	20.197	9.000	0.508
633.999	385.725	80.003	19.995	103.187	20.198	8.946	0.531
635.999	386.732	80.001	19.995	103.188	20.203	8.593	0.508
637.999	387.717	80.003	19.995	103.190	20.210	8.103	0.520
639.999	388.745	80.003	19.995	103.197	20.208	8.224	0.514
641.999	389.755	80.003	19.994	103.193	20.208	8.200	0.523
643.999	390.719	80.002	19.994	103.193	20.212	7.975	0.499
645.999	391.750	80.002	19.995	103.195	20.212	7.908	0.559
647.999	392.761	80.001	19.996	103.187	20.216	7.683	0.523
649.999	393.766	80.002	19.995	103.187	20.216	7.686	0.518
651.999	394.780	80.002	19.994	103.184	20.219	7.454	0.447
653.999	395.769	80.003	19.996	103.190	20.222	7.226	0.474
655.999	396.765	80.005	19.996	103.192	20.226	6.975	0.475
657.999	397.813	80.006	19.995	103.196	20.222	7.248	0.500
659.999	398.777	80.004	19.996	103.202	20.224	7.063	0.484
661.999	399.790	80.004	19.996	103.207	20.225	6.985	0.504
663.999	400.817	80.003	19.995	103.191	20.225	7.017	0.516
665.999	401.847	80.003	19.995	103.194	20.226	6.939	0.517
667.999	402.866	80.004	19.996	103.192	20.230	6.663	0.498
669.999	403.828	80.002	19.995	103.193	20.234	6.405	0.459
671.999	404.812	80.004	19.996	103.188	20.233	6.409	0.455
673.999	405.847	80.004	19.996	103.187	20.233	6.463	0.491
675.999	406.890	80.005	19.997	103.188	20.228	6.794	0.558
677.999	407.919	80.005	19.997	103.197	20.232	6.504	0.508
679.999	408.944	80.004	19.996	103.192	20.233	6.429	0.504
681.999	409.907	80.006	19.996	103.186	20.235	6.326	0.515
683.999	410.932	80.005	19.995	103.186	20.235	6.296	0.513
685.999	411.936	80.005	19.996	103.187	20.235	6.266	0.502
688.000	412.915	80.003	19.996	103.182	20.238	6.105	0.497
689.999	413.887	80.002	19.995	103.180	20.236	6.192	0.477
691.999	414.864	80.001	19.995	103.189	20.239	5.995	0.518
694.000	415.911	80.006	19.994	103.192	20.240	5.959	0.497
695.999	416.861	80.004	19.996	103.191	20.239	6.015	0.497
697.999	417.897	80.004	19.996	103.189	20.242	5.785	0.527
699.999	418.893	80.003	19.995	103.194	20.241	5.901	0.477
701.999	419.913	80.003	19.995	103.184	20.246	5.486	0.505
703.999	420.918	80.004	19.997	103.184	20.241	5.905	0.520
705.999	421.903	80.002	19.995	103.186	20.245	5.572	0.478
707.999	422.891	80.004	19.995	103.183	20.247	5.469	0.475
709.999	423.916	80.002	19.995	103.181	20.248	5.363	0.502
711.999	424.914	80.003	19.995	103.180	20.250	5.234	0.490
714.000	425.955	80.002	19.995	103.172	20.248	5.393	0.493
715.999	426.935	80.002	19.995	103.178	20.251	5.156	0.519
717.999	427.938	80.004	19.995	103.185	20.252	5.120	0.498
719.999	428.959	80.005	19.995	103.184	20.251	5.136	0.499
721.999	429.987	80.003	19.995	103.184	20.257	4.742	0.501
723.999	431.029	80.002	19.995	103.185	20.254	4.907	0.492
725.999	432.013	80.004	19.995	103.181	20.258	4.670	0.502
727.999	432.991	80.003	19.994	103.186	20.261	4.427	0.506
729.999	434.051	80.004	19.996	103.181	20.257	4.726	0.521
731.999	435.082	80.003	19.995	103.187	20.259	4.584	0.537
733.999	436.047	80.005	19.995	103.187	20.260	4.498	0.470
735.999	437.091	80.007	19.994	103.178	20.265	4.157	0.510
737.999	438.073	80.003	19.994	103.186	20.259	4.554	0.497
739.999	439.097	80.005	19.995	103.183	20.259	4.586	0.527
741.999	440.108	80.004	19.996	103.183	20.262	4.343	0.526
743.999	441.103	80.005	19.995	103.185	20.260	4.528	0.499
745.999	442.113	80.005	19.995	103.172	20.262	4.337	0.503
747.999	443.100	80.005	19.995	103.161	20.261	4.436	0.511
749.999	444.110	80.004	19.996	103.181	20.260	4.538	0.474
751.999	445.122	80.003	19.994	103.180	20.265	4.192	0.528
753.999	446.143	80.002	19.995	103.178	20.260	4.520	0.539
755.999	447.110	80.003	19.995	103.185	20.262	4.367	0.501
757.999	448.132	80.004	19.995	103.174	20.259	4.572	0.516
759.999	449.177	80.004	19.995	103.164	20.265	4.182	0.541
761.999	450.187	80.005	19.995	103.176	20.264	4.239	0.515
763.999	451.187	80.004	19.995	103.182	20.264	4.231	0.485
765.999	452.272	80.005	19.996	103.169	20.268	3.968	0.542
767.999	453.261	80.004	19.995	103.184	20.270	3.799	0.491
769.999	454.333	80.002	19.995	103.183	20.271	3.723	0.546
771.999	455.347	80.003	19.995	103.183	20.266	4.095	0.524
773.999	456.358	80.002	19.996	103.171	20.271	3.717	0.515
775.999	457.380	80.002	19.996	103.162	20.273	3.614	0.510
777.999	458.432	80.001	19.997	103.171	20.271	3.763	0.518
779.999	459.422	80.003	19.997	103.183	20.272	3.671	0.508
781.999	460.451	80.002	19.996	103.164	20.272	3.673	0.485
783.999	461.469	80.003	19.996	103.173	20.273	3.600	0.517
785.999	462.477	80.004	19.995	103.173	20.276	3.351	0.500
787.999	463.511	80.004	19.995	103.178	20.272	3.689	0.499
789.999	464.496	80.007	19.996	103.172	20.275	3.408	0.527
791.999	465.492	80.004	19.995	103.166	20.279	3.143	0.487
793.999	466.511	80.003	19.996	103.166	20.278	3.263	0.515
795.999	467.508	80.003	19.995	103.175	20.282	2.932	0.488
797.999	468.459	80.003	19.996	103.169	20.282	2.958	0.466
799.999	469.527	80.003	19.995	103.176	20.279	3.149	0.501
801.999	470.560	80.003	19.994	103.173	20.280	3.054	0.526
803.999	471.570	80.002	19.995	103.163	20.277	3.283	0.503
805.999	472.596	80.003	19.996	103.163	20.279	3.138	0.501
807.999	473.590	80.003	19.995	103.161	20.283	2.877	0.515
809.999	474.643	80.003	19.995	103.169	20.275	3.409	0.537
811.999	475.651	80.002	19.995	103.170	20.277	3.277	0.499
813.999	476.623	80.001	19.995	103.166	20.281	3.028	0.483
815.999	477.633	80.005	19.994	103.181	20.282	2.944	0.503
817.999	478.623	80.004	19.994	103.180	20.278	3.203	0.475
819.999	479.615	80.005	19.994	103.186	20.285	2.739	0.480
822.000	480.662	80.004	19.994	103.172	20.282	2.956	0.520
823.999	481.658	80.005	19.994	103.184	20.282	2.962	0.482
825.999	482.638	80.005	19.995	103.182	20.278	3.201	0.493
827.999	483.632	80.004	19.995	103.171	20.282	2.932	0.479
829.999	484.648	80.005	19.996	103.164	20.280	3.121	0.529
831.999	485.637	80.005	19.994	103.166	20.286	2.689	0.525
833.999	486.622	80.004	19.995	103.166	20.285	2.701	0.491
835.999	487.648	80.005	19.995	103.165	20.284	2.815	0.540
837.999	488.627	80.003	19.995	103.168	20.284	2.804	0.494
839.999	489.643	80.006	19.995	103.151	20.286	2.689	0.514
842.000	490.694	80.005	19.994	103.154	20.284	2.797	0.530
843.999	491.707	80.007	19.995	103.167	20.281	3.031	0.524
845.999	492.719	80.006	19.995	103.169	20.284	2.833	0.518
847.999	493.812	80.006	19.995	103.168	20.277	3.304	0.557
849.999	494.844	80.005	19.995	103.164	20.283	2.906	0.514
851.999	495.889	80.004	19.995	103.178	20.285	2.729	0.525
853.999	496.876	80.003	19.995	103.155	20.285	2.717	0.472
855.999	497.883	80.003	19.995	103.170	20.285	2.731	0.490
857.999	498.947	80.004	19.995	103.162	20.286	2.652	0.520
859.999	499.946	80.003	19.996	103.152	20.284	2.805	0.494
861.999	500.970	80.003	19.995	103.152	20.286	2.685	0.514
863.999	502.008	80.004	19.996	103.157	20.288	2.533	0.540
865.999	503.067	80.003	19.996	103.170	20.293	2.179	0.516
867.999	504.068	80.002	19.995	103.178	20.288	2.496	0.517
869.999	505.067	80.002	19.997	103.184	20.290	2.404	0.500
871.999	506.122	80.003	19.996	103.158	20.289	2.448	0.508
873.999	507.139	80.004	19.996	103.151	20.290	2.390	0.506
875.999	508.152	80.003	19.996	103.150	20.287	2.619	0.497
877.999	509.194	80.002	19.996	103.156	20.289	2.450	0.504
879.999	510.224	80.003	19.995	103.155	20.286	2.625	0.499
881.999	511.266	80.004	19.994	103.171	20.292	2.223	0.526
883.999	512.247	80.003	19.994	103.164	20.294	2.061	0.503
885.999	513.230	80.002	19.996	103.158	20.288	2.531	0.503
888.000	514.280	80.003	19.995	103.164	20.288	2.509	0.506
889.999	515.306	80.002	19.995	103.157	20.291	2.332	0.525
891.999	516.357	80.003	19.995	103.153	20.293	2.169	0.473
893.999	517.396	80.003	19.995	103.150	20.290	2.398	0.525
895.999	518.425	80.004	19.995	103.156	20.292	2.245	0.520
897.999	519.478	80.004	19.994	103.154	20.286	2.635	0.524
899.999	520.510	80.005	19.994	103.149	20.296	1.954	0.496
901.999	521.532	80.004	19.995	103.148	20.294	2.107	0.516
903.999	522.575	80.006	19.995	103.150	20.293	2.183	0.531
905.999	523.624	80.004	19.994	103.162	20.294	2.069	0.496
907.999	524.657	80.004	19.995	103.163	20.297	1.856	0.515
909.999	525.722	80.004	19.996	103.175	20.293	2.167	0.532
911.999	526.759	80.004	19.993	103.157	20.298	1.828	0.558
914.000	527.767	80.004	19.994	103.148	20.294	2.093	0.527
915.999	528.746	80.005	19.994	103.143	20.295	2.039	0.523
917.999	529.859	80.005	19.995	103.144	20.306	1.245	0.548
919.999	530.839	80.005	19.994	103.146	20.293	2.191	0.547
921.999	531.844	80.005	19.994	103.150	20.291	2.310	0.503
923.999	532.847	80.006	19.993	103.151	20.290	2.348	0.492
925.999	533.877	80.007	19.995	103.150	20.297	1.844	0.514
927.999	534.904	80.005	19.994	103.148	20.293	2.129	0.536
929.999	535.918	80.005	19.995	103.149	20.299	1.729	0.502
931.999	536.907	80.005	19.996	103.148	20.292	2.264	0.505
933.999	537.958	80.004	19.995	103.149	20.296	1.976	0.490
935.999	538.914	80.003	19.995	103.151	20.293	2.131	0.525
937.999	539.924	80.003	19.995	103.150	20.295	2.011	0.467
940.000	540.944	80.004	19.995	103.148	20.294	2.067	0.510
942.000	541.973	80.003	19.996	103.149	20.293	2.157	0.477
943.999	542.958	80.005	19.995	103.148	20.296	1.944	0.471
945.999	544.039	80.002	19.995	103.150	20.296	1.950	0.591
947.999	545.027	80.002	19.995	103.150	20.298	1.820	0.519
949.999	546.008	80.003	19.996	103.150	20.299	1.755	0.462
951.999	547.033	80.002	19.995	103.152	20.295	2.021	0.517
953.999	548.019	80.002	19.996	103.154	20.294	2.085	0.511
955.999	549.060	80.005	19.995	103.152	20.299	1.729	0.527
957.999	550.033	80.003	19.995	103.149	20.299	1.747	0.506
959.999	551.037	80.004	19.996	103.150	20.296	1.960	0.487
961.999	552.045	80.004	19.995	103.150	20.298	1.777	0.488
963.999	553.051	80.002	19.995	103.146	20.296	1.932	0.497
965.999	554.071	80.002	19.996	103.147	20.296	1.960	0.542
967.999	555.058	80.001	19.996	103.146	20.296	1.942	0.512
970.000	556.065	80.002	19.997	103.156	20.300	1.685	0.513
971.999	557.086	80.002	19.997	103.170	20.298	1.781	0.536
974.000	558.128	80.003	19.995	103.151	20.292	2.261	0.497
976.000	559.229	80.004	19.995	103.148	20.292	2.223	0.538
977.999	560.271	80.005	19.995	103.153	20.294	2.052	0.538
979.999	561.361	80.007	19.995	103.159	20.296	1.914	0.544
981.999	562.423	80.005	19.995	103.161	20.293	2.175	0.544
983.999	563.560	80.006	19.996	103.162	20.293	2.131	0.563
985.999	564.645	80.005	19.995	103.176	20.295	2.006	0.563
987.999	565.714	80.006	19.995	103.171	20.295	2.000	0.510
989.999	566.869	80.004	19.994	103.166	20.295	2.004	0.565
991.999	568.005	80.005	19.994	103.164	20.296	1.962	0.554
993.999	569.145	80.005	19.996	103.152	20.293	2.161	0.564
995.999	570.285	80.004	19.995	103.152	20.301	1.615	0.560
997.999	571.435	80.005	19.994	103.157	20.296	1.962	0.575
1000.000	572.564	80.005	19.995	103.166	20.290	2.402	0.569
1001.999	573.697	80.005	19.995	103.161	20.297	1.856	0.589
1004.000	574.940	80.004	19.994	103.153	20.296	1.966	0.599
1005.999	576.114	80.007	19.994	103.157	20.297	1.904	0.600
1008.000	577.216	80.006	19.994	103.156	20.292	2.203	0.564
1009.999	578.374	80.006	19.994	103.169	20.292	2.201	0.601
1011.999	579.490	80.005	19.993	103.164	20.293	2.179	0.549
1013.999	580.606	80.006	19.994	103.167	20.294	2.111	0.590
1015.999	581.767	80.005	19.994	103.169	20.288	2.484	0.575
1017.999	582.928	80.004	19.995	103.164	20.291	2.281	0.611
1019.999	584.019	80.003	19.995	103.171	20.292	2.209	0.568
1021.999	585.148	80.003	19.994	103.163	20.294	2.057	0.575
1023.999	586.296	80.002	19.994	103.170	20.293	2.135	0.557
1025.999	587.442	80.003	19.994	103.159	20.295	2.045	0.666
1027.999	588.500	80.003	19.995	103.163	20.293	2.185	0.593
1029.999	589.641	80.005	19.995	103.163	20.286	2.663	0.568
1032.001	590.772	80.003	19.996	103.166	20.292	2.241	0.569
1033.999	591.834	80.004	19.996	103.158	20.296	1.978	0.551
1035.999	592.984	80.004	19.996	103.149	20.293	2.175	0.605
1037.999	594.084	80.004	19.996	103.149	20.294	2.103	0.549
1039.999	595.193	80.004	19.996	103.148	20.289	2.414	0.530
1042.000	596.287	80.004	19.996	103.158	20.291	2.318	0.552
1043.999	597.340	80.003	19.996	103.154	20.292	2.260	0.529
1045.999	598.376	80.005	19.995	103.147	20.298	1.810	0.532
1047.999	599.515	80.005	19.995	103.151	20.290	2.384	0.549
1049.999	600.593	80.004	19.995	103.158	20.293	2.141	0.556
1051.999	601.672	80.004	19.997	103.161	20.294	2.093	0.537
1054.000	602.720	80.004	19.995	103.153	20.293	2.171	0.524
1055.999	603.796	80.002	19.996	103.151	20.287	2.575	0.538
1058.000	604.829	80.005	19.997	103.149	20.294	2.085	0.521
1060.000	605.878	80.003	19.997	103.149	20.295	1.996	0.530
1061.999	606.892	80.006	19.996	103.151	20.290	2.406	0.507
1063.999	607.911	80.005	19.995	103.155	20.291	2.282	0.521
1065.999	608.976	80.006	19.995	103.152	20.293	2.123	0.561
1067.999	609.979	80.005	19.995	103.153	20.300	1.693	0.498
1069.999	611.008	80.005	19.995	103.154	20.291	2.318	0.492
1071.999	612.029	80.005	19.994	103.158	20.296	1.940	0.531
1074.000	613.037	80.004	19.994	103.159	20.296	1.914	0.489
1076.000	614.031	80.005	19.994	103.151	20.295	2.014	0.496
1077.999	615.080	80.005	19.994	103.152	20.297	1.894	0.514
1080.000	616.101	80.004	19.994	103.153	20.300	1.653	0.513
1081.999	617.134	80.005	19.995	103.153	20.298	1.777	0.530
1083.999	618.150	80.005	19.994	103.153	20.299	1.699	0.476
1085.999	619.129	80.005	19.995	103.153	20.295	2.025	0.509
1087.999	620.172	80.006	19.994	103.151	20.289	2.444	0.497
1089.999	621.182	80.008	19.994	103.151	20.292	2.217	0.530
1092.000	622.205	80.007	19.996	103.164	20.294	2.087	0.494
1093.999	623.221	80.006	19.995	103.152	20.293	2.139	0.501
1096.000	624.255	80.006	19.994	103.149	20.289	2.428	0.519
1097.999	625.273	80.006	19.995	103.153	20.291	2.304	0.512
1100.000	626.255	80.004	19.994	103.153	20.291	2.290	0.501
1101.999	627.248	80.003	19.994	103.152	20.293	2.125	0.467
1103.999	628.269	80.004	19.994	103.148	20.297	1.886	0.535
1106.000	629.235	80.004	19.994	103.150	20.292	2.201	0.469
1107.999	630.274	80.003	19.995	103.150	20.287	2.579	0.499
1109.999	631.288	80.004	19.995	103.148	20.299	1.711	0.509
1111.999	632.290	80.005	19.993	103.146	20.297	1.882	0.506
1114.000	633.301	80.004	19.996	103.147	20.295	2.019	0.511
1115.999	634.331	80.004	19.996	103.150	20.302	1.536	0.514
1117.999	635.311	80.005	19.995	103.151	20.300	1.639	0.497
1120.000	636.341	80.003	19.995	103.149	20.298	1.800	0.502
1121.999	637.389	80.005	19.994	103.149	20.296	1.916	0.493
1123.999	638.400	80.004	19.996	103.149	20.298	1.830	0.515
1126.000	639.357	80.004	19.996	103.149	20.296	1.946	0.483
1127.999	640.383	80.004	19.997	103.150	20.300	1.647	0.491
1130.000	641.382	80.002	19.996	103.151	20.302	1.500	0.527
1131.999	642.384	80.002	19.995	103.151	20.297	1.846	0.525
1133.999	643.382	80.003	19.995	103.152	20.296	1.958	0.479
1135.999	644.389	80.003	19.995	103.154	20.298	1.784	0.480
1137.999	645.404	80.004	19.996	103.151	20.299	1.737	0.492
1139.999	646.399	80.003	19.995	103.150	20.300	1.631	0.511
1141.999	647.412	80.004	19.996	103.153	20.299	1.733	0.518
1143.999	648.400	80.004	19.995	103.151	20.297	1.884	0.492
1145.999	649.439	80.003	19.995	103.147	20.296	1.942	0.510
1148.000	650.405	80.004	19.994	103.147	20.300	1.691	0.464
1150.000	651.380	80.006	19.996	103.151	20.293	2.125	0.470
1152.000	652.354	80.005	19.995	103.151	20.296	1.922	0.456
1154.000	653.407	80.005	19.996	103.162	20.294	2.083	0.515
1155.999	654.404	80.004	19.996	103.157	20.293	2.147	0.496
1157.999	655.400	80.004	19.996	103.148	20.296	1.916	0.512
1159.999	656.419	80.004	19.996	103.151	20.299	1.743	0.504
1162.000	657.380	80.004	19.996	103.148	20.300	1.659	0.487
1163.999	658.399	80.004	19.994	103.151	20.297	1.888	0.501
1165.999	659.384	80.005	19.995	103.156	20.296	1.926	0.486
1167.999	660.399	80.004	19.994	103.151	20.298	1.790	0.527
1170.000	661.404	80.006	19.994	103.148	20.292	2.246	0.518
1171.999	662.372	80.006	19.994	103.149	20.295	2.000	0.501
1174.000	663.402	80.007	19.994	103.153	20.291	2.314	0.503
1176.000	664.411	80.007	19.994	103.148	20.291	2.314	0.507
1178.000	665.396	80.005	19.994	103.147	20.293	2.127	0.485
1180.000	666.396	80.006	19.994	103.148	20.295	2.007	0.501
1182.000	667.435	80.005	19.995	103.150	20.293	2.193	0.496
1184.000	668.410	80.003	19.994	103.147	20.289	2.414	0.501
1186.000	669.438	80.004	19.995	103.149	20.291	2.332	0.533
1187.999	670.427	80.004	19.995	103.148	20.291	2.276	0.471
1190.000	671.454	80.003	19.995	103.145	20.297	1.874	0.487
1191.999	672.467	80.002	19.995	103.152	20.295	2.000	0.497
1193.999	673.468	80.005	19.995	103.153	20.296	1.922	0.482
1195.999	674.510	80.004	19.994	103.151	20.297	1.864	0.482
1197.999	675.534	80.004	19.995	103.152	20.295	2.031	0.512
1200.000	676.518	80.004	19.995	103.151	20.300	1.639	0.492
1201.999	677.544	80.005	19.994	103.151	20.300	1.623	0.499
1204.000	678.534	80.004	19.994	103.152	20.298	1.769	0.517
1205.999	679.552	80.005	19.995	103.155	20.291	2.314	0.477
1207.999	680.564	80.004	19.994	103.153	20.296	1.926	0.507
1210.000	681.544	80.004	19.995	103.152	20.290	2.384	0.511
1211.999	682.561	80.004	19.994	103.152	20.298	1.824	0.489
1214.000	683.624	80.002	19.995	103.153	20.294	2.093	0.549
1215.999	684.550	80.003	19.995	103.154	20.295	2.017	0.488
1218.000	685.573	80.003	19.995	103.153	20.300	1.679	0.498
1219.999	686.565	80.003	19.995	103.155	20.298	1.832	0.516
1222.000	687.565	80.003	19.994	103.151	20.303	1.424	0.517
1224.000	688.563	80.004	19.995	103.149	20.295	2.005	0.507
1225.999	689.587	80.005	19.995	103.144	20.295	2.002	0.491
1228.000	690.615	80.006	19.995	103.144	20.295	1.997	0.534
1229.999	691.627	80.005	19.995	103.145	20.295	2.029	0.502
1232.000	692.624	80.007	19.997	103.151	20.299	1.756	0.484
1233.999	693.674	80.006	19.994	103.144	20.299	1.740	0.505
1235.999	694.660	80.004	19.995	103.144	20.297	1.872	0.496
1237.999	695.706	80.003	19.995	103.148	20.302	1.531	0.505
1239.999	696.688	80.005	19.995	103.136	20.296	1.926	0.502
1241.999	697.702	80.005	19.995	103.147	20.299	1.733	0.517
1243.999	698.676	80.005	19.996	103.137	20.301	1.607	0.479
1245.999	699.693	80.004	19.996	103.139	20.296	1.916	0.516
1247.999	700.715	80.005	19.995	103.134	20.298	1.814	0.525
1249.999	701.683	80.005	19.996	103.143	20.301	1.617	0.519
1252.000	702.648	80.005	19.996	103.142	20.304	1.370	0.475
1253.999	703.669	80.007	19.996	103.144	20.304	1.350	0.497
1256.000	704.691	80.007	19.996	103.141	20.300	1.667	0.499
1257.999	705.680	80.007	19.996	103.142	20.301	1.577	0.491
1259.999	706.670	80.006	19.995	103.136	20.301	1.611	0.493
1262.000	707.677	80.005	19.994	103.145	20.297	1.866	0.485
1264.000	708.674	80.004	19.995	103.141	20.300	1.671	0.505
1266.000	709.688	80.004	19.995	103.137	20.294	2.081	0.503
1267.999	710.665	80.003	19.995	103.146	20.301	1.591	0.509
1269.999	711.676	80.004	19.995	103.137	20.300	1.673	0.502
1271.999	712.669	80.004	19.995	103.148	20.302	1.517	0.512
1273.999	713.685	80.002	19.995	103.140	20.302	1.510	0.488
1275.999	714.672	80.002	19.995	103.128	20.300	1.673	0.496
1277.999	715.683	80.004	19.994	103.143	20.301	1.613	0.486
1279.999	716.675	80.004	19.994	103.147	20.298	1.802	0.493
1282.000	717.727	80.003	19.995	103.144	20.299	1.745	0.546
1284.000	718.704	80.005	19.995	103.131	20.300	1.637	0.492
1286.000	719.749	80.005	19.996	103.146	20.301	1.591	0.519
1287.999	720.711	80.004	19.995	103.144	20.298	1.794	0.490
1289.999	721.687	80.004	19.994	103.141	20.303	1.444	0.484
1291.999	722.699	80.004	19.995	103.142	20.299	1.751	0.464
1293.999	723.652	80.004	19.995	103.138	20.301	1.617	0.488
1295.999	724.687	80.004	19.994	103.134	20.302	1.491	0.507
1297.999	725.660	80.004	19.994	103.134	20.306	1.197	0.511
1299.999	726.651	80.003	19.994	103.130	20.302	1.531	0.491
1301.999	727.693	80.004	19.995	103.148	20.304	1.352	0.548
1303.999	728.684	80.004	19.995	103.126	20.303	1.422	0.518
1305.999	729.661	80.005	19.996	103.120	20.298	1.806	0.492
1307.999	730.655	80.005	19.995	103.130	20.296	1.915	0.496
1310.000	731.654	80.005	19.995	103.146	20.303	1.477	0.508
1312.000	732.685	80.005	19.995	103.130	20.300	1.623	0.500
1314.000	733.694	80.005	19.995	103.137	20.294	2.115	0.481
1315.999	734.717	80.006	19.996	103.137	20.302	1.504	0.533
1318.000	735.666	80.004	19.997	103.130	20.298	1.818	0.458
1320.000	736.671	80.005	19.995	103.129	20.297	1.866	0.543
1322.000	737.640	80.004	19.997	103.130	20.299	1.750	0.488
1324.000	738.681	80.005	19.995	103.139	20.298	1.792	0.498
1326.000	739.690	80.004	19.995	103.147	20.298	1.816	0.498
1328.000	740.719	80.004	19.995	103.150	20.299	1.708	0.508
1330.000	741.738	80.005	19.995	103.151	20.297	1.862	0.503
1332.000	742.743	80.005	19.995	103.145	20.298	1.790	0.495
1333.999	743.788	80.006	19.994	103.138	20.300	1.627	0.544