File: 01_Data/Luan_Panel/MCC/Luan_Panel_MCC_30K_min_211118_R1.txt
Sample ID:	C:\MCC\MCC Cal\Test\Luan_Panel_MCC_30K_min_211118_R1.txt
Sample Weight (mg):	4.77
Heating Rate (C/s):	0.5
Combustor Temp (C):	900
N2 Flow Rate (cc/min):	80
O2 Flow Rate (cc/min):	20
Calibration File:	C:\MCC\MCC Cal\Coeff1 JN10440_30_210304.txt.txt
T Correction Coefficients:	0	1.024463	0
Time Shift (s):	14
*
Time (s)	Temperature (C)	N2 flow rate (cc/min)	O2 flow rate (cc/min)	Flow Rate (cc/min)	Oxygen (%)	HRR (W/g)	Heating rate (C/s)
0.000	107.497	80.003	19.996	103.035	20.240	0.243	-0.002
2.000	107.522	80.003	19.999	103.034	20.243	0.064	0.004
4.000	107.492	80.003	19.997	103.034	20.246	-0.122	-0.000
6.000	107.501	80.003	19.996	103.036	20.242	0.128	0.016
8.000	107.462	80.004	19.996	103.031	20.242	0.120	-0.045
10.000	107.449	80.002	19.996	103.030	20.241	0.175	-0.022
11.999	107.459	80.001	19.995	103.021	20.241	0.211	-0.007
13.999	107.464	80.001	19.995	103.034	20.242	0.098	-0.005
15.999	107.438	80.000	19.994	103.036	20.239	0.309	-0.020
17.999	107.502	80.000	19.994	103.040	20.240	0.271	0.050
20.000	107.473	80.001	19.995	103.049	20.238	0.373	0.007
22.000	107.498	80.001	19.994	103.058	20.239	0.326	-0.025
24.000	107.479	80.001	19.994	103.070	20.235	0.583	0.007
25.999	107.537	80.001	19.996	103.080	20.238	0.354	0.016
27.999	107.580	80.001	19.995	103.088	20.238	0.395	0.027
30.000	107.588	80.001	19.994	103.070	20.236	0.505	0.023
31.999	107.614	80.003	19.996	103.072	20.237	0.465	0.028
34.000	107.680	80.002	19.995	103.071	20.232	0.780	0.026
35.999	107.764	80.001	19.995	103.095	20.231	0.837	0.051
37.999	107.801	80.001	19.996	103.115	20.227	1.127	0.042
39.999	107.902	80.002	19.995	103.142	20.222	1.447	0.051
42.000	108.018	80.001	19.996	103.185	20.217	1.807	0.076
43.999	108.170	80.001	19.996	103.221	20.217	1.804	0.102
45.999	108.342	80.000	19.996	103.226	20.213	2.047	0.094
47.999	108.525	80.001	19.996	103.213	20.211	2.207	0.066
49.999	108.810	80.002	19.996	103.230	20.208	2.391	0.119
51.999	109.077	80.002	19.995	103.230	20.204	2.701	0.125
53.999	109.377	80.003	19.996	103.240	20.204	2.671	0.148
56.001	109.676	80.004	19.995	103.229	20.208	2.386	0.166
57.999	110.081	80.004	19.996	103.229	20.208	2.416	0.182
59.999	110.424	80.003	19.996	103.233	20.208	2.379	0.151
61.999	110.815	80.003	19.996	103.235	20.206	2.554	0.174
63.999	111.196	80.003	19.996	103.262	20.206	2.548	0.194
65.999	111.637	80.003	19.995	103.245	20.205	2.590	0.228
67.999	112.069	80.001	19.996	103.235	20.208	2.443	0.208
70.001	112.517	80.003	19.996	103.253	20.209	2.330	0.231
71.999	113.055	80.002	19.996	103.253	20.204	2.658	0.271
74.001	113.527	80.001	19.996	103.257	20.201	2.850	0.250
76.000	114.028	80.001	19.995	103.261	20.202	2.849	0.249
77.999	114.571	80.002	19.995	103.269	20.200	2.947	0.282
79.999	115.092	80.003	19.995	103.269	20.201	2.915	0.277
81.999	115.651	80.004	19.994	103.269	20.203	2.734	0.259
83.999	116.245	80.004	19.994	103.264	20.200	2.962	0.290
85.999	116.862	80.005	19.995	103.274	20.198	3.082	0.287
87.999	117.454	80.004	19.995	103.281	20.198	3.054	0.288
89.999	118.099	80.003	19.996	103.270	20.198	3.088	0.300
92.000	118.736	80.003	19.996	103.266	20.198	3.114	0.288
94.000	119.412	80.003	19.996	103.271	20.197	3.160	0.351
96.001	120.059	80.001	19.996	103.267	20.196	3.243	0.343
98.000	120.727	80.000	19.997	103.272	20.196	3.205	0.316
100.000	121.383	80.002	19.995	103.276	20.196	3.233	0.296
101.999	122.143	80.001	19.996	103.270	20.198	3.056	0.390
104.000	122.796	80.001	19.995	103.266	20.197	3.139	0.333
105.999	123.523	80.003	19.994	103.282	20.198	3.086	0.369
107.999	124.231	80.002	19.996	103.266	20.199	3.035	0.350
109.999	125.013	80.002	19.995	103.276	20.196	3.194	0.375
112.000	125.757	80.003	19.995	103.270	20.197	3.173	0.390
113.999	126.507	80.001	19.995	103.279	20.197	3.170	0.373
115.999	127.275	80.003	19.995	103.268	20.197	3.130	0.380
118.001	128.054	80.003	19.996	103.276	20.198	3.092	0.380
120.000	128.838	80.004	19.995	103.279	20.200	2.956	0.389
121.999	129.603	80.002	19.996	103.272	20.198	3.115	0.382
123.999	130.385	80.001	19.996	103.280	20.201	2.879	0.391
125.999	131.207	80.001	19.995	103.293	20.203	2.734	0.368
127.999	131.974	80.001	19.995	103.285	20.200	2.958	0.387
130.000	132.809	80.002	19.994	103.282	20.195	3.311	0.387
132.000	133.658	80.002	19.995	103.276	20.199	2.988	0.440
134.000	134.518	80.002	19.995	103.274	20.197	3.186	0.454
136.000	135.304	80.003	19.995	103.273	20.196	3.218	0.391
138.000	136.169	80.003	19.994	103.270	20.198	3.073	0.433
140.000	137.005	80.004	19.995	103.276	20.199	3.045	0.380
142.000	137.852	80.003	19.996	103.279	20.199	3.007	0.421
144.000	138.709	80.004	19.996	103.276	20.200	2.956	0.421
146.000	139.586	80.004	19.995	103.280	20.200	2.952	0.444
148.000	140.425	80.003	19.995	103.276	20.197	3.137	0.431
150.000	141.320	80.003	19.995	103.270	20.202	2.849	0.432
152.000	142.172	80.003	19.995	103.272	20.198	3.094	0.437
154.000	143.050	80.002	19.995	103.271	20.199	3.031	0.457
156.000	143.943	80.001	19.996	103.275	20.201	2.898	0.450
158.000	144.871	80.002	19.997	103.271	20.198	3.062	0.445
160.000	145.750	80.003	19.996	103.270	20.196	3.207	0.476
162.000	146.658	80.004	19.996	103.269	20.199	3.045	0.455
164.000	147.533	80.004	19.995	103.269	20.196	3.251	0.430
166.000	148.409	80.004	19.996	103.272	20.196	3.230	0.428
168.000	149.318	80.005	19.995	103.276	20.193	3.395	0.456
170.000	150.250	80.004	19.996	103.269	20.190	3.648	0.431
172.000	151.143	80.005	19.995	103.271	20.193	3.433	0.441
174.000	152.074	80.002	19.995	103.281	20.195	3.262	0.470
176.000	152.946	80.003	19.995	103.282	20.195	3.303	0.453
178.000	153.848	80.002	19.995	103.273	20.198	3.116	0.450
180.000	154.779	80.001	19.996	103.273	20.197	3.171	0.447
182.000	155.661	80.000	19.996	103.270	20.195	3.283	0.442
184.000	156.578	80.001	19.996	103.282	20.196	3.233	0.465
186.000	157.541	80.000	19.996	103.274	20.192	3.520	0.463
188.000	158.479	80.000	19.996	103.276	20.193	3.394	0.439
190.000	159.450	80.002	19.996	103.278	20.194	3.333	0.498
192.000	160.389	80.001	19.997	103.284	20.197	3.171	0.457
194.000	161.368	80.001	19.997	103.278	20.193	3.394	0.483
196.000	162.312	80.001	19.995	103.271	20.190	3.597	0.460
198.000	163.285	80.002	19.996	103.288	20.192	3.499	0.493
200.000	164.234	80.002	19.995	103.278	20.193	3.424	0.466
202.000	165.210	80.002	19.994	103.276	20.191	3.554	0.457
204.000	166.227	80.002	19.995	103.282	20.193	3.458	0.505
206.000	167.201	80.001	19.997	103.281	20.190	3.622	0.481
208.000	168.165	80.001	19.994	103.282	20.188	3.750	0.511
210.000	169.151	80.000	19.996	103.294	20.190	3.618	0.494
212.000	170.169	80.002	19.995	103.289	20.188	3.746	0.506
214.000	171.112	80.000	19.994	103.288	20.188	3.738	0.466
216.000	172.095	80.002	19.995	103.279	20.192	3.486	0.454
218.000	173.076	80.002	19.995	103.279	20.192	3.467	0.505
220.000	174.064	80.003	19.996	103.276	20.191	3.580	0.499
222.000	175.092	80.003	19.995	103.279	20.190	3.606	0.496
224.000	176.045	80.002	19.994	103.274	20.189	3.708	0.450
226.000	177.062	80.002	19.995	103.268	20.192	3.522	0.521
228.000	178.057	80.004	19.995	103.274	20.191	3.537	0.497
230.000	179.088	80.004	19.994	103.271	20.192	3.514	0.509
232.000	180.082	80.003	19.994	103.268	20.188	3.752	0.492
234.000	181.097	80.004	19.994	103.266	20.189	3.678	0.497
236.000	182.060	80.003	19.995	103.272	20.190	3.601	0.470
238.001	183.082	80.003	19.995	103.273	20.191	3.578	0.491
239.999	184.107	80.004	19.995	103.269	20.190	3.655	0.504
241.999	185.108	80.004	19.994	103.270	20.188	3.732	0.503
243.999	186.133	80.003	19.995	103.269	20.188	3.791	0.529
246.000	187.181	80.004	19.994	103.272	20.186	3.912	0.521
247.999	188.136	80.004	19.995	103.273	20.187	3.829	0.476
249.999	189.175	80.006	19.995	103.267	20.185	3.970	0.513
251.999	190.147	80.005	19.996	103.217	20.184	4.025	0.506
253.999	191.129	80.005	19.995	103.280	20.182	4.138	0.502
255.999	192.180	80.004	19.996	103.296	20.182	4.176	0.491
258.000	193.152	80.003	19.995	103.267	20.178	4.464	0.504
260.000	194.125	80.001	19.996	103.270	20.179	4.357	0.475
262.000	195.130	80.002	19.994	103.273	20.180	4.317	0.481
264.000	196.155	80.001	19.996	103.269	20.178	4.412	0.506
266.000	197.119	80.002	19.996	103.273	20.176	4.570	0.477
268.000	198.122	80.002	19.995	103.271	20.176	4.598	0.508
270.000	199.069	80.002	19.996	103.272	20.173	4.756	0.462
272.000	200.024	80.002	19.995	103.273	20.177	4.534	0.477
274.000	201.036	80.002	19.996	103.273	20.174	4.706	0.500
276.000	202.029	80.002	19.996	103.273	20.174	4.701	0.466
278.000	203.047	80.001	19.996	103.272	20.173	4.784	0.490
280.000	204.021	80.001	19.996	103.271	20.168	5.097	0.500
282.000	205.002	80.001	19.996	103.270	20.173	4.754	0.501
284.000	206.005	79.999	19.995	103.270	20.170	5.003	0.484
286.000	206.996	80.002	19.996	103.263	20.169	5.058	0.493
288.000	207.987	80.001	19.996	103.262	20.170	4.958	0.468
290.000	208.949	80.002	19.996	103.265	20.165	5.324	0.464
292.000	209.951	80.001	19.996	103.262	20.163	5.444	0.492
294.000	210.899	80.003	19.996	103.264	20.161	5.587	0.439
296.000	211.905	80.002	19.995	103.258	20.160	5.642	0.479
298.000	212.891	80.002	19.996	103.262	20.155	5.961	0.477
300.000	213.895	80.003	19.997	103.269	20.152	6.195	0.497
302.000	214.852	80.003	19.995	103.268	20.151	6.287	0.484
304.000	215.813	80.002	19.996	103.267	20.150	6.340	0.467
306.000	216.788	80.004	19.996	103.263	20.147	6.509	0.457
308.000	217.803	80.005	19.996	103.265	20.142	6.847	0.483
310.000	218.802	80.004	19.995	103.268	20.145	6.673	0.520
312.000	219.726	80.004	19.996	103.267	20.139	7.042	0.456
314.000	220.752	80.004	19.995	103.267	20.139	7.092	0.539
316.000	221.672	80.004	19.995	103.266	20.134	7.401	0.456
318.000	222.753	80.003	19.996	103.262	20.134	7.439	0.559
320.000	223.669	80.003	19.995	103.263	20.131	7.581	0.464
322.000	224.662	80.004	19.995	103.243	20.131	7.628	0.499
324.000	225.652	80.003	19.996	103.258	20.131	7.624	0.511
326.000	226.678	80.004	19.996	103.274	20.130	7.660	0.506
328.000	227.564	80.005	19.995	103.283	20.123	8.165	0.475
330.000	228.550	80.004	19.996	103.269	20.122	8.237	0.490
332.000	229.606	80.006	19.995	103.270	20.119	8.422	0.511
334.000	230.578	80.005	19.994	103.268	20.119	8.453	0.514
336.000	231.559	80.005	19.994	103.266	20.117	8.584	0.518
338.000	232.499	80.005	19.995	103.268	20.112	8.912	0.469
340.000	233.507	80.004	19.994	103.270	20.111	8.997	0.470
342.000	234.487	80.002	19.995	103.272	20.108	9.139	0.463
344.000	235.493	80.001	19.995	103.274	20.108	9.176	0.504
346.000	236.464	80.001	19.995	103.271	20.108	9.139	0.514
348.000	237.491	80.001	19.994	103.272	20.103	9.501	0.514
350.000	238.469	80.003	19.994	103.273	20.098	9.859	0.517
352.000	239.398	80.002	19.995	103.272	20.098	9.852	0.466
354.000	240.359	80.002	19.996	103.264	20.095	10.033	0.494
356.000	241.344	80.003	19.996	103.262	20.096	9.969	0.512
358.000	242.339	80.003	19.995	103.267	20.091	10.301	0.486
360.000	243.343	80.002	19.995	103.267	20.088	10.506	0.508
362.000	244.278	80.001	19.996	103.267	20.087	10.602	0.481
364.000	245.253	80.003	19.996	103.267	20.086	10.622	0.482
366.000	246.244	80.003	19.995	103.268	20.082	10.935	0.486
368.000	247.220	80.004	19.996	103.268	20.080	11.027	0.507
370.000	248.187	80.003	19.996	103.271	20.076	11.318	0.481
372.000	249.176	80.002	19.996	103.267	20.070	11.749	0.478
374.000	250.194	80.001	19.995	103.271	20.071	11.685	0.505
376.000	251.141	80.003	19.996	103.276	20.064	12.167	0.495
378.000	252.138	80.002	19.997	103.271	20.061	12.341	0.483
380.000	253.094	80.002	19.996	103.270	20.056	12.704	0.521
382.000	254.067	80.004	19.997	103.284	20.052	12.931	0.448
384.000	255.045	80.005	19.996	103.278	20.046	13.367	0.473
386.000	255.981	80.002	19.998	103.279	20.043	13.539	0.490
388.000	256.963	80.004	19.996	103.283	20.039	13.843	0.515
390.000	257.929	80.004	19.996	103.292	20.033	14.227	0.466
392.000	258.903	80.004	19.996	103.303	20.029	14.515	0.477
394.000	259.877	80.004	19.994	103.306	20.017	15.330	0.474
396.000	260.879	80.004	19.997	103.306	20.015	15.480	0.486
398.000	261.787	80.004	19.994	103.315	20.007	15.989	0.446
400.000	262.763	80.002	19.995	103.305	20.004	16.175	0.479
402.000	263.785	80.003	19.995	103.312	19.997	16.700	0.469
404.000	264.771	80.003	19.995	103.317	19.990	17.137	0.512
406.000	265.727	80.003	19.994	103.318	19.980	17.798	0.448
408.000	266.714	80.003	19.996	103.319	19.970	18.489	0.491
410.000	267.685	80.003	19.994	103.344	19.962	19.016	0.463
412.000	268.670	80.004	19.995	103.344	19.959	19.212	0.466
414.000	269.675	80.004	19.995	103.350	19.949	19.926	0.510
416.000	270.652	80.003	19.995	103.350	19.944	20.240	0.481
418.000	271.737	80.005	19.994	103.331	19.933	20.986	0.535
420.000	272.723	80.005	19.994	103.346	19.930	21.215	0.507
422.000	273.658	80.005	19.995	103.351	19.923	21.669	0.457
424.000	274.700	80.003	19.995	103.347	19.918	21.988	0.531
426.000	275.716	80.004	19.996	103.345	19.912	22.403	0.510
428.000	276.738	80.003	19.993	103.353	19.904	22.952	0.482
430.000	277.765	80.002	19.995	103.350	19.897	23.419	0.520
432.000	278.771	80.003	19.994	103.344	19.888	24.035	0.521
434.000	279.825	80.004	19.995	103.345	19.884	24.339	0.529
436.000	280.853	80.002	19.996	103.345	19.879	24.647	0.535
438.000	281.879	80.002	19.995	103.354	19.874	24.986	0.528
440.000	282.875	80.003	19.996	103.299	19.866	25.532	0.501
442.000	283.967	80.002	19.996	103.354	19.859	25.991	0.525
444.000	284.949	80.002	19.996	103.394	19.855	26.311	0.510
446.000	285.984	80.002	19.995	103.347	19.844	26.999	0.528
448.000	287.019	80.002	19.997	103.346	19.839	27.361	0.503
450.000	288.045	80.003	19.995	103.345	19.832	27.840	0.505
452.000	289.072	80.003	19.995	103.358	19.827	28.206	0.543
454.000	290.067	80.003	19.995	103.366	19.815	28.984	0.504
456.000	291.105	80.001	19.997	103.351	19.809	29.395	0.519
458.000	292.163	80.000	19.996	103.357	19.804	29.706	0.513
460.000	293.187	80.002	19.995	103.360	19.795	30.313	0.506
462.000	294.157	80.001	19.996	103.363	19.787	30.853	0.488
464.000	295.226	80.001	19.996	103.378	19.776	31.626	0.515
466.000	296.249	80.002	19.996	103.373	19.770	32.023	0.526
468.000	297.226	80.003	19.995	103.385	19.758	32.857	0.480
470.000	298.272	80.002	19.997	103.381	19.750	33.386	0.523
472.000	299.315	80.001	19.997	103.386	19.746	33.628	0.528
474.000	300.299	80.004	19.996	103.381	19.737	34.291	0.501
476.000	301.319	80.003	19.996	103.385	19.724	35.136	0.509
478.000	302.277	80.002	19.996	103.387	19.718	35.568	0.484
480.000	303.338	80.003	19.995	103.388	19.705	36.435	0.549
482.000	304.317	80.002	19.996	103.389	19.703	36.601	0.494
484.000	305.280	80.003	19.995	103.389	19.691	37.417	0.509
486.000	306.329	80.002	19.995	103.393	19.680	38.136	0.535
488.000	307.303	80.002	19.995	103.414	19.676	38.432	0.504
490.000	308.276	80.003	19.996	103.396	19.661	39.401	0.497
492.000	309.342	80.005	19.995	103.408	19.654	39.857	0.509
494.000	310.252	80.005	19.994	103.412	19.645	40.470	0.517
496.000	311.259	80.005	19.996	103.420	19.634	41.240	0.471
498.000	312.289	80.005	19.994	103.419	19.626	41.763	0.487
500.000	313.355	80.005	19.994	103.420	19.613	42.677	0.495
502.000	314.372	80.005	19.996	103.406	19.603	43.338	0.478
504.000	315.404	80.004	19.996	103.417	19.593	44.005	0.464
506.000	316.149	80.004	19.996	103.422	19.586	44.523	0.731
508.000	317.255	80.001	19.995	103.423	19.577	45.103	0.534
510.000	318.185	80.001	19.995	103.432	19.566	45.826	0.460
512.000	319.218	80.002	19.995	103.429	19.550	46.964	0.498
514.000	320.187	80.001	19.995	103.425	19.540	47.640	0.461
516.000	321.142	80.002	19.996	103.440	19.533	48.102	0.525
518.000	322.123	80.002	19.997	103.431	19.525	48.655	0.493
520.000	323.121	80.004	19.995	103.446	19.510	49.686	0.502
522.000	324.061	80.003	19.995	103.460	19.498	50.456	0.478
524.000	325.061	80.002	19.994	103.454	19.486	51.275	0.485
526.000	325.973	80.003	19.996	103.460	19.477	51.915	0.482
528.000	326.976	80.003	19.995	103.464	19.466	52.669	0.504
530.000	327.930	80.002	19.996	103.466	19.452	53.568	0.449
532.000	328.929	80.002	19.995	103.466	19.442	54.244	0.492
534.000	329.881	80.003	19.996	103.466	19.430	55.057	0.482
536.000	330.819	80.002	19.997	103.466	19.418	55.899	0.467
538.000	331.849	80.001	19.995	103.470	19.412	56.300	0.475
540.000	332.825	80.001	19.996	103.493	19.400	57.118	0.490
542.000	333.815	80.002	19.997	103.489	19.387	57.964	0.498
544.000	334.747	80.001	19.997	103.496	19.380	58.457	0.464
546.000	335.795	80.003	19.995	103.506	19.366	59.449	0.486
548.000	336.741	80.003	19.997	103.511	19.357	60.050	0.497
550.000	337.761	80.004	19.995	103.504	19.350	60.513	0.526
552.000	338.788	80.004	19.994	103.496	19.342	61.015	0.496
554.000	339.769	80.004	19.995	103.500	19.331	61.798	0.496
556.000	340.782	80.005	19.996	103.500	19.325	62.184	0.479
558.000	341.781	80.005	19.996	103.500	19.319	62.590	0.558
560.000	342.764	80.002	19.996	103.501	19.319	62.609	0.515
562.000	343.797	80.003	19.995	103.500	19.315	62.842	0.518
564.000	344.816	80.002	19.996	103.500	19.310	63.142	0.538
566.000	345.812	80.003	19.998	103.496	19.317	62.765	0.491
568.000	346.850	80.004	19.997	103.498	19.312	63.031	0.486
570.000	347.909	80.004	19.996	103.493	19.316	62.744	0.516
572.000	348.927	80.003	19.996	103.495	19.321	62.433	0.539
574.000	349.995	80.004	19.997	103.424	19.329	61.902	0.525
576.000	350.997	80.005	19.997	103.499	19.340	61.157	0.506
578.000	352.036	80.006	19.994	103.465	19.353	60.244	0.517
580.000	353.135	80.005	19.994	103.443	19.362	59.599	0.548
582.000	354.204	80.006	19.994	103.429	19.381	58.313	0.547
584.000	355.172	80.006	19.994	103.425	19.400	57.003	0.493
586.000	356.272	80.003	19.996	103.422	19.420	55.691	0.517
588.000	357.334	80.004	19.995	103.405	19.442	54.194	0.529
590.000	358.367	80.003	19.995	103.395	19.466	52.567	0.522
592.000	359.439	80.002	19.996	103.363	19.495	50.566	0.512
594.000	360.476	80.002	19.995	103.355	19.526	48.457	0.518
596.000	361.552	80.002	19.995	103.341	19.559	46.272	0.501
598.000	362.600	80.001	19.995	103.324	19.592	44.052	0.528
600.000	363.648	80.003	19.995	103.317	19.626	41.695	0.517
602.000	364.735	80.002	19.995	103.306	19.668	38.897	0.536
604.000	365.751	80.002	19.996	103.290	19.697	36.921	0.508
606.000	366.811	80.003	19.996	103.271	19.738	34.169	0.518
608.000	367.907	80.003	19.995	103.267	19.774	31.726	0.552
610.000	368.947	80.003	19.994	103.262	19.812	29.170	0.493
612.000	370.034	80.003	19.995	103.246	19.848	26.704	0.532
614.000	371.100	80.003	19.994	103.233	19.881	24.491	0.525
616.000	372.198	80.003	19.995	103.216	19.911	22.486	0.499
618.000	373.217	80.002	19.997	103.227	19.940	20.480	0.513
620.000	374.324	80.003	19.995	103.229	19.965	18.826	0.544
622.000	375.361	80.003	19.995	103.216	19.988	17.244	0.534
624.000	376.413	80.001	19.995	103.211	20.009	15.811	0.528
626.000	377.477	80.002	19.997	103.220	20.028	14.575	0.538
628.000	378.540	80.003	19.996	103.192	20.040	13.751	0.533
630.000	379.548	80.002	19.996	103.197	20.054	12.781	0.500
632.000	380.583	80.002	19.997	103.192	20.064	12.118	0.518
634.000	381.602	80.005	19.997	103.199	20.075	11.413	0.517
636.000	382.618	80.003	19.995	103.205	20.082	10.944	0.494
638.000	383.686	80.002	19.996	103.188	20.091	10.275	0.527
640.000	384.690	80.004	19.995	103.189	20.100	9.726	0.524
642.000	385.684	80.003	19.996	103.183	20.102	9.552	0.497
644.000	386.749	80.003	19.996	103.188	20.106	9.272	0.509
646.000	387.768	80.004	19.995	103.188	20.108	9.167	0.498
648.000	388.798	80.001	19.994	103.192	20.110	9.052	0.535
650.000	389.800	80.002	19.996	103.196	20.115	8.707	0.510
652.000	390.860	80.002	19.996	103.195	20.117	8.539	0.506
654.000	391.880	80.002	19.996	103.195	20.117	8.565	0.539
656.000	392.911	80.002	19.996	103.200	20.120	8.339	0.516
658.000	393.981	80.003	19.995	103.192	20.121	8.294	0.518
660.000	395.007	80.004	19.996	103.191	20.120	8.379	0.515
662.000	396.070	80.004	19.996	103.189	20.121	8.294	0.524
664.000	397.095	80.004	19.996	103.190	20.126	7.965	0.529
666.000	398.144	80.004	19.996	103.190	20.129	7.748	0.539
668.000	399.165	80.003	19.996	103.191	20.130	7.670	0.536
670.000	400.163	80.003	19.995	103.189	20.132	7.547	0.500
672.000	401.172	80.002	19.995	103.190	20.135	7.317	0.505
674.000	402.178	80.001	19.994	103.191	20.137	7.222	0.512
676.000	403.200	80.002	19.994	103.190	20.138	7.152	0.521
678.000	404.217	80.002	19.994	103.190	20.137	7.183	0.498
680.000	405.235	80.002	19.994	103.172	20.139	7.068	0.490
682.000	406.227	80.003	19.994	103.182	20.140	7.004	0.512
684.000	407.249	80.002	19.996	103.190	20.144	6.721	0.526
686.000	408.239	80.002	19.995	103.188	20.146	6.582	0.509
688.000	409.251	80.001	19.995	103.186	20.148	6.491	0.474
690.000	410.257	80.002	19.997	103.189	20.147	6.533	0.514
692.000	411.260	80.002	19.995	103.189	20.149	6.397	0.494
694.000	412.252	80.003	19.996	103.186	20.148	6.461	0.517
696.000	413.240	80.002	19.997	103.187	20.149	6.361	0.471
698.000	414.203	80.002	19.996	103.181	20.151	6.286	0.485
700.000	415.202	80.002	19.996	103.187	20.151	6.258	0.500
702.000	416.230	80.002	19.995	103.185	20.153	6.131	0.539
704.000	417.212	80.003	19.996	103.190	20.154	6.039	0.503
706.000	418.223	80.002	19.997	103.185	20.155	5.958	0.513
708.000	419.181	80.003	19.996	103.175	20.153	6.098	0.479
710.000	420.180	80.003	19.996	103.189	20.154	6.051	0.497
712.000	421.205	80.004	19.995	103.182	20.157	5.879	0.534
714.000	422.178	80.005	19.995	103.180	20.159	5.687	0.495
716.000	423.200	80.004	19.995	103.189	20.161	5.572	0.510
718.000	424.202	80.004	19.994	103.189	20.157	5.865	0.525
720.000	425.245	80.005	19.996	103.190	20.161	5.601	0.521
722.000	426.250	80.005	19.995	103.189	20.163	5.481	0.514
724.000	427.273	80.004	19.996	103.188	20.158	5.809	0.510
726.000	428.308	80.003	19.996	103.187	20.162	5.529	0.517
728.000	429.353	80.003	19.997	103.175	20.161	5.564	0.513
730.000	430.369	80.003	19.996	103.123	20.162	5.527	0.523
732.000	431.391	80.003	19.995	103.229	20.164	5.402	0.512
734.000	432.399	80.004	19.996	103.182	20.166	5.248	0.512
736.000	433.469	80.002	19.995	103.170	20.165	5.323	0.532
738.000	434.445	80.004	19.995	103.165	20.169	5.036	0.512
740.000	435.474	80.003	19.995	103.181	20.168	5.100	0.495
742.000	436.492	80.004	19.996	103.182	20.171	4.928	0.520
744.000	437.545	80.004	19.995	103.186	20.170	4.976	0.517
746.000	438.565	80.004	19.996	103.185	20.168	5.111	0.493
748.000	439.558	80.005	19.997	103.179	20.171	4.904	0.497
750.000	440.587	80.006	19.995	103.173	20.171	4.887	0.515
752.000	441.637	80.004	19.996	103.166	20.176	4.599	0.510
754.000	442.661	80.003	19.998	103.169	20.174	4.682	0.506
756.000	443.663	80.001	19.996	103.164	20.174	4.681	0.514
758.000	444.680	80.003	19.996	103.160	20.174	4.712	0.514
760.000	445.683	80.003	19.996	103.159	20.176	4.563	0.480
762.000	446.675	80.002	19.996	103.151	20.179	4.342	0.498
764.000	447.692	80.003	19.996	103.168	20.181	4.198	0.503
766.000	448.709	80.001	19.995	103.156	20.181	4.238	0.499
768.000	449.707	80.004	19.995	103.157	20.184	4.004	0.479
770.000	450.722	80.003	19.995	103.156	20.180	4.279	0.499
772.000	451.758	80.004	19.995	103.153	20.184	4.013	0.491
774.000	452.723	80.005	19.995	103.154	20.186	3.927	0.501
776.000	453.716	80.002	19.995	103.168	20.184	3.999	0.486
778.000	454.714	80.002	19.995	103.174	20.184	4.000	0.512
780.000	455.694	80.003	19.996	103.164	20.189	3.674	0.473
782.000	456.718	80.002	19.995	103.178	20.187	3.793	0.501
784.000	457.724	80.003	19.995	103.160	20.190	3.655	0.501
786.000	458.720	80.003	19.995	103.176	20.190	3.623	0.534
788.000	459.717	80.003	19.995	103.177	20.189	3.686	0.504
790.000	460.719	80.002	19.995	103.160	20.191	3.531	0.507
792.000	461.728	80.004	19.995	103.160	20.193	3.416	0.482
794.000	462.738	80.004	19.995	103.160	20.196	3.235	0.502
796.000	463.726	80.003	19.995	103.156	20.198	3.089	0.472
798.000	464.715	80.003	19.995	103.163	20.200	2.957	0.479
800.000	465.692	80.004	19.995	103.161	20.196	3.188	0.487
802.000	466.731	80.004	19.994	103.154	20.199	3.023	0.523
804.000	467.725	80.004	19.993	103.156	20.200	2.934	0.491
806.000	468.705	80.004	19.994	103.161	20.199	3.004	0.492
808.000	469.741	80.001	19.994	103.170	20.199	3.005	0.514
810.000	470.748	80.003	19.995	103.162	20.200	2.938	0.500
812.000	471.770	80.004	19.996	103.163	20.202	2.793	0.522
814.000	472.775	80.001	19.995	103.163	20.201	2.881	0.484
816.000	473.844	80.003	19.996	103.156	20.198	3.062	0.534
818.000	474.875	80.003	19.996	103.153	20.198	3.066	0.489
820.000	475.932	80.003	19.996	103.151	20.198	3.062	0.534
822.000	476.916	80.004	19.995	103.152	20.202	2.808	0.484
824.000	477.927	80.004	19.996	103.151	20.202	2.832	0.494
826.000	479.023	80.006	19.995	103.152	20.203	2.736	0.523
828.000	480.023	80.007	19.995	103.153	20.203	2.759	0.507
830.000	481.026	80.004	19.995	103.154	20.205	2.606	0.497
832.000	482.067	80.006	19.994	103.155	20.205	2.601	0.545
834.000	483.111	80.006	19.996	103.152	20.206	2.548	0.519
836.000	484.106	80.005	19.996	103.163	20.207	2.446	0.502
838.000	485.151	80.003	19.995	103.159	20.201	2.870	0.514
840.000	486.162	80.003	19.996	103.157	20.206	2.570	0.488
842.000	487.205	80.002	19.995	103.163	20.205	2.612	0.494
844.000	488.277	80.001	19.997	103.158	20.204	2.646	0.530
846.000	489.290	80.003	19.997	103.152	20.207	2.493	0.522
848.000	490.260	80.002	19.996	103.149	20.206	2.550	0.489
850.000	491.314	80.004	19.997	103.150	20.203	2.721	0.502
852.000	492.322	80.002	19.996	103.152	20.202	2.812	0.482
854.000	493.360	80.001	19.996	103.153	20.201	2.857	0.503
856.000	494.384	80.003	19.995	103.150	20.203	2.725	0.493
858.000	495.415	80.002	19.995	103.153	20.207	2.465	0.504
860.000	496.453	80.003	19.994	103.162	20.204	2.680	0.544
862.000	497.486	80.001	19.995	103.159	20.206	2.563	0.524
864.000	498.529	80.002	19.996	103.156	20.207	2.476	0.527
866.000	499.460	80.001	19.995	103.156	20.206	2.510	0.489
868.000	500.466	80.001	19.995	103.159	20.207	2.499	0.520
870.000	501.539	80.003	19.994	103.157	20.209	2.320	0.547
872.000	502.544	80.001	19.995	103.155	20.208	2.431	0.496
874.000	503.547	80.002	19.995	103.155	20.208	2.399	0.525
876.000	504.575	80.002	19.995	103.154	20.208	2.431	0.525
878.000	505.575	80.005	19.995	103.154	20.206	2.516	0.486
880.000	506.594	80.000	19.994	103.152	20.206	2.531	0.502
882.000	507.625	80.004	19.995	103.156	20.203	2.736	0.508
884.000	508.649	80.004	19.994	103.152	20.207	2.482	0.525
886.000	509.616	80.002	19.996	103.166	20.205	2.608	0.458
888.000	510.670	80.004	19.995	103.155	20.204	2.706	0.494
890.000	511.686	80.005	19.995	103.151	20.205	2.584	0.512
892.000	512.671	80.004	19.995	103.153	20.204	2.651	0.483
894.000	513.700	80.007	19.995	103.157	20.209	2.344	0.512
896.000	514.718	80.003	19.995	103.164	20.212	2.171	0.521
898.000	515.764	80.002	19.995	103.154	20.208	2.397	0.548
900.000	516.811	80.002	19.995	103.149	20.210	2.250	0.513
902.000	517.805	80.003	19.994	103.148	20.208	2.378	0.517
904.000	518.809	80.004	19.995	103.150	20.208	2.380	0.503
906.000	519.838	80.003	19.995	103.149	20.209	2.335	0.496
908.000	520.853	80.002	19.995	103.150	20.209	2.335	0.501
910.000	521.887	80.005	19.995	103.144	20.208	2.416	0.538
912.000	522.900	80.006	19.995	103.155	20.209	2.350	0.494
914.000	523.903	80.003	19.994	103.155	20.210	2.272	0.501
916.000	524.921	80.002	19.996	103.159	20.210	2.276	0.502
918.000	525.939	80.003	19.995	103.159	20.209	2.351	0.528
920.000	526.986	80.001	19.995	103.157	20.210	2.305	0.498
922.000	528.024	80.001	19.996	103.154	20.209	2.356	0.537
924.000	529.039	80.003	19.995	103.145	20.211	2.198	0.504
926.000	530.079	80.004	19.995	103.096	20.211	2.218	0.535
928.000	531.124	80.003	19.995	103.202	20.211	2.173	0.517
930.000	532.125	80.004	19.996	103.169	20.212	2.111	0.533
932.000	533.149	80.002	19.996	103.154	20.209	2.348	0.501
934.000	534.217	80.002	19.997	103.154	20.214	1.998	0.545
936.000	535.222	80.002	19.997	103.154	20.211	2.197	0.515
938.000	536.280	80.001	19.996	103.152	20.215	1.934	0.544
940.000	537.283	79.999	19.996	103.155	20.216	1.853	0.497
942.000	538.294	80.002	19.996	103.154	20.214	2.021	0.504
944.000	539.360	80.001	19.996	103.154	20.214	1.996	0.508
946.000	540.361	80.001	19.996	103.150	20.212	2.147	0.511
948.000	541.396	80.003	19.996	103.149	20.214	1.994	0.534
950.000	542.499	80.002	19.996	103.148	20.216	1.870	0.525
952.000	543.486	80.001	19.996	103.151	20.211	2.179	0.536
954.000	544.516	80.002	19.995	103.156	20.213	2.056	0.499
956.000	545.534	80.002	19.995	103.159	20.216	1.877	0.500
958.000	546.583	80.003	19.995	103.157	20.216	1.838	0.512
960.000	547.660	80.001	19.994	103.157	20.214	1.989	0.531
962.000	548.701	80.003	19.995	103.155	20.214	1.996	0.514
964.000	549.727	80.005	19.996	103.154	20.214	2.034	0.519
966.000	550.763	80.004	19.995	103.152	20.214	1.975	0.548
968.000	551.821	80.006	19.995	103.150	20.216	1.870	0.525
970.000	552.879	80.007	19.997	103.152	20.214	2.024	0.545
972.000	553.936	80.004	19.994	103.145	20.210	2.301	0.523
974.000	554.972	80.003	19.996	103.146	20.213	2.038	0.505
976.000	556.039	80.004	19.996	103.149	20.215	1.928	0.541
978.000	557.034	80.003	19.995	103.150	20.214	2.028	0.495
980.000	558.088	80.004	19.995	103.151	20.218	1.763	0.554
982.000	559.138	80.005	19.995	103.152	20.216	1.864	0.506
984.000	560.184	80.004	19.994	103.153	20.220	1.616	0.506
986.000	561.205	80.004	19.995	103.153	20.216	1.879	0.513
988.000	562.269	80.007	19.994	103.152	20.217	1.796	0.534
990.000	563.316	80.004	19.994	103.152	20.220	1.587	0.536
992.000	564.332	80.005	19.994	103.152	20.217	1.781	0.530
994.000	565.392	80.005	19.995	103.156	20.217	1.785	0.537
996.000	566.431	80.004	19.994	103.156	20.217	1.834	0.523
998.000	567.499	80.003	19.994	103.153	20.212	2.163	0.532
1000.000	568.487	80.001	19.995	103.153	20.216	1.874	0.499
1002.000	569.562	80.002	19.995	103.152	20.215	1.962	0.542
1004.000	570.596	80.002	19.995	103.154	20.216	1.898	0.546
1006.000	571.604	80.003	19.996	103.150	20.217	1.828	0.511
1008.000	572.636	80.004	19.996	103.136	20.217	1.776	0.500
1010.000	573.670	80.002	19.996	103.147	20.213	2.060	0.500
1012.000	574.766	80.004	19.997	103.151	20.215	1.910	0.524
1014.000	575.807	80.004	19.996	103.147	20.217	1.789	0.521
1016.000	576.769	80.001	19.995	103.152	20.215	1.949	0.487
1018.000	577.873	80.002	19.996	103.149	20.213	2.054	0.537
1020.000	578.890	80.003	19.996	103.133	20.215	1.940	0.531
1022.000	579.910	80.003	19.996	103.158	20.221	1.548	0.513
1024.000	580.852	80.003	19.995	103.162	20.222	1.484	0.480
1026.000	581.903	80.005	19.997	103.148	20.219	1.653	0.510
1027.999	582.871	80.003	19.996	103.142	20.220	1.614	0.465
1030.000	583.912	80.002	19.996	103.146	20.217	1.787	0.505
1031.999	584.897	80.004	19.997	103.149	20.216	1.851	0.490
1033.999	585.908	80.002	19.997	103.148	20.217	1.770	0.526
1035.999	586.909	80.000	19.997	103.152	20.218	1.735	0.474
1037.999	587.929	80.002	19.999	103.147	20.214	1.991	0.496
1040.001	588.930	80.003	19.997	103.150	20.214	2.021	0.491
1041.999	589.891	80.004	19.996	103.141	20.217	1.804	0.504
1043.999	590.926	80.004	19.995	103.141	20.215	1.934	0.516
1045.999	591.917	80.003	19.997	103.149	20.216	1.889	0.478
1048.000	592.919	80.005	19.995	103.183	20.215	1.951	0.504
1049.999	593.885	80.004	19.996	103.163	20.217	1.815	0.487
1052.000	594.883	80.004	19.995	103.154	20.217	1.808	0.467
1054.000	595.908	80.004	19.995	103.149	20.216	1.843	0.508
1056.000	596.939	80.002	19.995	103.156	20.215	1.941	0.507
1057.999	597.856	80.002	19.995	103.168	20.225	1.245	0.477
1060.000	598.869	80.003	19.994	103.151	20.222	1.444	0.509
1062.000	599.864	80.003	19.996	103.148	20.220	1.591	0.520
1064.000	600.837	80.003	19.995	103.138	20.221	1.561	0.491
1066.001	601.798	80.004	19.995	103.153	20.217	1.797	0.477
1068.000	602.795	80.004	19.994	103.153	20.220	1.589	0.485
1070.000	603.766	80.006	19.995	103.155	20.220	1.627	0.480
1071.999	604.788	80.004	19.995	103.157	20.217	1.827	0.526
1073.999	605.792	80.007	19.995	103.154	20.214	1.975	0.517
1076.000	606.822	80.005	19.994	103.162	20.218	1.746	0.509
1077.999	607.840	80.004	19.995	103.157	20.218	1.712	0.515
1079.999	608.925	80.003	19.996	103.157	20.214	1.987	0.533
1082.000	609.981	80.004	19.996	103.169	20.216	1.847	0.551
1083.999	611.130	80.004	19.995	103.155	20.214	1.985	0.575
1086.000	612.227	80.002	19.995	103.150	20.214	2.002	0.586
1087.999	613.288	80.004	19.994	103.164	20.213	2.064	0.561
1090.001	614.355	80.003	19.994	103.161	20.216	1.896	0.546
1092.000	615.556	80.003	19.996	103.151	20.213	2.103	0.585
1094.001	616.650	80.003	19.995	103.152	20.214	2.024	0.542
1096.001	617.761	80.004	19.996	103.154	20.215	1.964	0.555
1098.000	618.899	80.002	19.995	103.153	20.213	2.039	0.550
1099.999	620.020	80.004	19.996	103.150	20.214	1.975	0.555
1102.001	621.130	80.004	19.995	103.149	20.213	2.058	0.551
1103.999	622.299	80.003	19.996	103.148	20.213	2.071	0.561
1105.999	623.427	80.003	19.996	103.150	20.219	1.689	0.573
1108.000	624.544	80.002	19.997	103.152	20.218	1.729	0.531
1109.999	625.703	80.003	19.996	103.150	20.220	1.588	0.574
1112.000	626.815	80.002	19.995	103.151	20.220	1.593	0.559
1114.000	627.921	80.003	19.996	103.153	20.218	1.717	0.564
1115.999	629.042	80.002	19.995	103.162	20.217	1.823	0.551
1117.999	630.165	80.002	19.995	103.162	20.217	1.804	0.559
1119.999	631.302	80.003	19.996	103.159	20.219	1.667	0.548
1121.999	632.410	80.003	19.996	103.158	20.219	1.695	0.567
1124.000	633.507	80.003	19.996	103.150	20.219	1.676	0.546
1126.000	634.616	80.002	19.995	103.153	20.220	1.569	0.570
1128.000	635.700	80.002	19.995	103.155	20.220	1.572	0.512
1129.999	636.786	80.001	19.995	103.168	20.221	1.510	0.549
1131.999	637.879	80.002	19.996	103.166	20.218	1.721	0.536
1133.999	638.998	80.003	19.994	103.164	20.221	1.508	0.538
1136.000	640.079	80.003	19.996	103.160	20.220	1.606	0.537
1138.000	641.120	80.003	19.995	103.149	20.221	1.512	0.523
1140.001	642.156	80.003	19.995	103.149	20.218	1.755	0.520
1142.000	643.245	80.003	19.996	103.150	20.221	1.522	0.532
1143.999	644.304	80.004	19.995	103.158	20.220	1.618	0.550
1145.999	645.288	80.003	19.995	103.154	20.216	1.868	0.482
1147.999	646.364	80.005	19.995	103.152	20.219	1.642	0.497
1149.999	647.420	80.004	19.995	103.148	20.218	1.725	0.539
1152.001	648.464	80.005	19.994	103.155	20.219	1.634	0.527
1154.001	649.465	80.004	19.995	103.152	20.218	1.708	0.525
1155.999	650.557	80.006	19.996	103.149	20.218	1.732	0.537
1157.999	651.543	80.006	19.995	103.156	20.221	1.559	0.491
1160.000	652.529	80.005	19.996	103.152	20.222	1.431	0.491
1161.999	653.581	80.003	19.995	103.148	20.221	1.518	0.513
1164.000	654.617	80.003	19.995	103.150	20.220	1.578	0.520
1165.999	655.627	80.003	19.997	103.151	20.221	1.507	0.517
1167.999	656.653	80.002	19.995	103.159	20.223	1.397	0.497
1169.999	657.661	80.002	19.995	103.159	20.221	1.557	0.530
1171.999	658.679	80.002	19.995	103.153	20.222	1.488	0.524
1174.000	659.719	80.003	19.995	103.160	20.224	1.324	0.506
1175.999	660.765	80.003	19.994	103.162	20.223	1.410	0.538
1178.000	661.752	80.004	19.994	103.153	20.221	1.520	0.482
1180.000	662.721	80.004	19.995	103.153	20.225	1.235	0.493
1181.999	663.767	80.004	19.994	103.153	20.223	1.397	0.496
1183.999	664.775	80.002	19.995	103.153	20.222	1.433	0.521
1185.999	665.765	80.002	19.995	103.148	20.224	1.339	0.509
1188.000	666.822	80.004	19.994	103.153	20.225	1.280	0.527
1190.000	667.798	80.002	19.996	103.152	20.223	1.427	0.480
1191.999	668.773	80.001	19.996	103.152	20.221	1.540	0.517
1193.999	669.827	80.002	19.995	103.153	20.224	1.316	0.518
1196.000	670.800	80.001	19.996	103.161	20.222	1.473	0.537
1198.001	671.782	80.001	19.996	103.151	20.220	1.610	0.463
1200.001	672.830	80.000	19.995	103.153	20.220	1.633	0.495
1202.000	673.822	80.003	19.996	103.154	20.217	1.819	0.510
1204.000	674.888	80.002	19.995	103.154	20.217	1.811	0.524
1206.000	675.851	80.004	19.997	103.155	20.218	1.727	0.505
1208.001	676.909	80.004	19.995	103.149	20.220	1.610	0.507
1210.000	677.894	80.003	19.996	103.148	20.217	1.783	0.511
1212.000	678.869	80.004	19.996	103.156	20.219	1.642	0.490
1214.000	679.897	80.003	19.995	103.148	20.220	1.602	0.496
1216.000	680.907	80.003	19.995	103.149	20.219	1.655	0.494
1218.000	681.896	80.002	19.996	103.149	20.218	1.704	0.479
1220.000	682.934	80.002	19.996	103.149	20.219	1.665	0.520
1222.000	683.891	80.003	19.995	103.148	20.220	1.584	0.501
1224.000	684.943	80.002	19.997	103.149	20.222	1.478	0.526
1226.000	685.912	80.004	19.995	103.147	20.223	1.388	0.516
1228.000	686.931	80.003	19.997	103.148	20.223	1.395	0.526
1230.000	687.897	80.004	19.995	103.148	20.219	1.634	0.510
1232.000	688.895	80.005	19.996	103.147	20.220	1.587	0.503
1234.000	689.910	80.006	19.994	103.148	20.222	1.488	0.497
1236.000	690.884	80.005	19.994	103.144	20.219	1.642	0.496
1238.000	691.889	80.005	19.995	103.149	20.218	1.727	0.495
1240.000	692.891	80.005	19.995	103.152	20.222	1.456	0.507
1242.000	693.842	80.005	19.995	103.149	20.222	1.454	0.459
1244.000	694.867	80.002	19.994	103.150	20.220	1.604	0.520
1246.000	695.851	80.004	19.996	103.151	20.221	1.563	0.496
1248.000	696.883	80.003	19.995	103.151	20.217	1.774	0.500
1250.000	697.880	80.002	19.994	103.151	20.219	1.682	0.483
1252.000	698.838	80.001	19.995	103.152	20.218	1.727	0.511
1254.000	699.828	80.002	19.995	103.153	20.223	1.369	0.468
1256.000	700.848	80.003	19.995	103.152	20.221	1.521	0.512
1258.000	701.853	80.002	19.995	103.152	20.220	1.608	0.508
1260.000	702.875	80.003	19.996	103.140	20.220	1.600	0.537
1262.000	703.777	80.002	19.997	103.148	20.221	1.529	0.489
1264.000	704.764	80.002	19.995	103.133	20.221	1.559	0.475
1266.000	705.760	80.003	19.994	103.139	20.222	1.452	0.473
1268.000	706.717	80.002	19.995	103.142	20.222	1.476	0.493
1270.000	707.694	80.002	19.995	103.145	20.222	1.489	0.487
1272.001	708.690	80.003	19.994	103.144	20.221	1.544	0.475
1274.000	709.689	80.003	19.994	103.147	20.221	1.525	0.490
1276.000	710.677	80.001	19.994	103.143	20.220	1.571	0.487
1278.000	711.715	80.002	19.995	103.148	20.223	1.414	0.552
1280.000	712.680	80.003	19.995	103.150	20.224	1.335	0.497
1282.000	713.665	80.003	19.996	103.149	20.224	1.329	0.510
1284.001	714.698	80.003	19.995	103.150	20.224	1.312	0.509
1286.001	715.729	80.002	19.996	103.153	20.224	1.318	0.528
1288.000	716.750	80.003	19.996	103.154	20.222	1.439	0.510
1290.000	717.743	80.004	19.995	103.150	20.222	1.431	0.494
1292.000	718.760	80.005	19.996	103.152	20.221	1.553	0.507
1294.000	719.763	80.005	19.996	103.147	20.219	1.659	0.505
1296.000	720.785	80.004	19.996	103.116	20.222	1.484	0.510
1298.000	721.777	80.005	19.994	103.130	20.225	1.252	0.492
1300.000	722.805	80.004	19.993	103.200	20.225	1.294	0.495
1302.000	723.805	80.004	19.995	103.148	20.222	1.440	0.486
1304.000	724.824	80.003	19.995	103.149	20.225	1.275	0.503
1306.000	725.864	80.004	19.996	103.148	20.225	1.254	0.484
1308.000	726.853	80.002	19.996	103.149	20.227	1.143	0.493
1310.000	727.933	80.003	19.997	103.149	20.225	1.256	0.520
1312.000	728.939	80.003	19.996	103.149	20.221	1.540	0.497
1314.000	729.967	80.003	19.995	103.145	20.224	1.326	0.519
1316.000	730.989	80.004	19.995	103.140	20.225	1.264	0.519
1318.000	732.046	80.005	19.997	103.147	20.224	1.350	0.538
1320.000	733.018	80.004	19.994	103.145	20.226	1.216	0.501
1322.000	734.076	80.005	19.995	103.144	20.223	1.375	0.520
1324.000	735.073	80.004	19.996	103.149	20.221	1.552	0.483
1326.000	736.059	80.003	19.997	103.150	20.221	1.552	0.487
1328.000	737.065	80.002	19.995	103.150	20.222	1.461	0.493
1330.000	738.110	80.003	19.994	103.144	20.223	1.412	0.536
1332.000	739.084	80.002	19.994	103.152	20.225	1.247	0.479
1334.000	740.129	80.002	19.994	103.154	20.224	1.331	0.500
1336.000	741.132	80.003	19.996	103.151	20.226	1.201	0.499
1338.000	742.177	80.003	19.996	103.150	20.223	1.367	0.520
1340.001	743.179	80.003	19.996	103.149	20.221	1.523	0.489
1341.000	743.670	80.002	19.994	103.149	20.227	1.128	0.490