File: 01_Data/Luan_Panel/MCC/Luan_Panel_MCC_30K_min_211118_R3.txt
Sample ID:	C:\MCC\MCC Cal\Test\Luan_Panel_MCC_30K_min_211118_R3.txt
Sample Weight (mg):	4.15
Heating Rate (C/s):	0.5
Combustor Temp (C):	900
N2 Flow Rate (cc/min):	80
O2 Flow Rate (cc/min):	20
Calibration File:	C:\MCC\MCC Cal\Coeff1 JN10440_30_210304.txt.txt
T Correction Coefficients:	0	1.024463	0
Time Shift (s):	14
*
Time (s)	Temperature (C)	N2 flow rate (cc/min)	O2 flow rate (cc/min)	Flow Rate (cc/min)	Oxygen (%)	HRR (W/g)	Heating rate (C/s)
-0.001	106.233	80.002	19.996	103.025	19.952	0.298	-0.013
2.000	106.254	80.004	19.996	103.025	19.956	0.019	0.031
4.000	106.234	80.003	19.996	103.025	19.955	0.080	0.023
6.000	106.247	80.003	19.996	103.026	19.953	0.196	0.031
8.000	106.233	80.004	19.996	103.025	19.958	-0.133	0.006
10.000	106.247	80.004	19.996	103.025	19.956	-0.038	0.022
12.000	106.222	80.004	19.995	103.023	19.956	-0.049	0.002
14.001	106.225	80.003	19.996	103.025	19.957	-0.127	-0.007
16.000	106.200	80.005	19.994	103.028	19.958	-0.142	0.000
18.000	106.189	80.004	19.995	103.032	19.955	0.078	0.003
20.000	106.227	80.004	19.995	103.051	19.955	0.032	0.012
22.000	106.254	80.005	19.993	103.073	19.949	0.514	0.028
24.000	106.276	80.005	19.993	103.099	19.943	0.992	0.011
26.000	106.319	80.005	19.994	103.107	19.940	1.215	0.005
28.000	106.396	80.005	19.993	103.115	19.942	1.056	0.034
30.000	106.470	80.005	19.994	103.144	19.936	1.545	0.044
32.000	106.586	80.005	19.994	103.145	19.933	1.783	0.063
33.999	106.750	80.004	19.994	103.164	19.930	1.999	0.093
35.999	106.893	80.004	19.994	103.218	19.926	2.301	0.097
38.000	107.068	80.002	19.994	103.224	19.923	2.543	0.109
39.999	107.264	80.003	19.993	103.252	19.917	3.026	0.082
41.999	107.545	80.003	19.994	103.264	19.919	2.891	0.118
43.999	107.860	80.003	19.994	103.267	19.915	3.192	0.175
46.000	108.153	80.002	19.995	103.269	19.911	3.469	0.173
47.999	108.505	80.003	19.995	103.271	19.913	3.359	0.193
49.999	108.873	80.002	19.995	103.279	19.909	3.636	0.190
51.999	109.341	80.003	19.994	103.294	19.906	3.850	0.204
53.999	109.769	80.003	19.994	103.301	19.909	3.641	0.215
55.999	110.282	80.004	19.995	103.304	19.906	3.909	0.236
57.999	110.831	80.004	19.994	103.299	19.904	4.005	0.286
59.999	111.351	80.004	19.995	103.302	19.904	4.030	0.246
61.999	111.940	80.004	19.995	103.302	19.906	3.899	0.291
63.999	112.533	80.004	19.995	103.304	19.907	3.772	0.322
65.999	113.143	80.004	19.993	103.302	19.905	3.952	0.295
68.000	113.841	80.003	19.994	103.303	19.906	3.835	0.313
70.000	114.481	80.003	19.995	103.301	19.902	4.151	0.331
72.000	115.166	80.003	19.995	103.303	19.905	3.945	0.382
73.999	115.865	80.003	19.995	103.300	19.906	3.892	0.356
76.000	116.591	80.003	19.995	103.301	19.900	4.348	0.370
77.999	117.339	80.004	19.995	103.302	19.901	4.291	0.370
79.999	118.109	80.006	19.995	103.310	19.902	4.185	0.383
82.000	118.873	80.003	19.994	103.301	19.901	4.252	0.375
84.001	119.669	80.006	19.995	103.300	19.900	4.348	0.420
85.999	120.452	80.006	19.994	103.300	19.904	4.041	0.422
88.000	121.291	80.004	19.995	103.300	19.907	3.827	0.428
90.000	122.083	80.005	19.994	103.300	19.904	4.005	0.406
91.999	122.942	80.005	19.994	103.302	19.903	4.089	0.416
93.999	123.776	80.003	19.995	103.296	19.905	3.922	0.434
95.999	124.611	80.003	19.996	103.298	19.905	3.935	0.432
98.000	125.550	80.002	19.995	103.302	19.908	3.746	0.440
100.000	126.395	80.003	19.997	103.301	19.903	4.130	0.446
101.999	127.291	80.003	19.995	103.299	19.908	3.706	0.484
103.999	128.153	80.003	19.995	103.301	19.905	3.986	0.423
105.999	129.100	80.004	19.995	103.302	19.903	4.142	0.480
107.999	129.994	80.007	19.994	103.302	19.902	4.172	0.427
110.000	130.930	80.006	19.994	103.301	19.905	3.931	0.458
111.999	131.830	80.005	19.994	103.302	19.904	4.051	0.469
114.000	132.744	80.006	19.994	103.303	19.902	4.191	0.459
115.999	133.708	80.005	19.995	103.303	19.905	3.947	0.498
117.999	134.624	80.003	19.993	103.304	19.903	4.117	0.440
119.999	135.612	80.004	19.994	103.304	19.903	4.066	0.493
121.999	136.535	80.004	19.994	103.303	19.901	4.246	0.484
124.000	137.502	80.004	19.994	103.301	19.906	3.888	0.443
125.999	138.511	80.004	19.995	103.299	19.903	4.074	0.510
127.999	139.445	80.002	19.994	103.300	19.903	4.127	0.464
130.000	140.462	80.004	19.994	103.297	19.902	4.216	0.520
132.000	141.454	80.005	19.996	103.299	19.903	4.134	0.518
134.000	142.443	80.003	19.995	103.301	19.901	4.252	0.528
136.000	143.480	80.005	19.995	103.297	19.904	4.002	0.536
138.000	144.481	80.005	19.994	103.299	19.905	3.964	0.528
140.000	145.520	80.004	19.994	103.300	19.906	3.905	0.503
142.000	146.504	80.004	19.994	103.299	19.904	4.063	0.530
144.000	147.462	80.004	19.994	103.289	19.908	3.680	0.478
146.000	148.466	80.004	19.994	103.298	19.907	3.766	0.497
148.000	149.507	80.003	19.994	103.281	19.909	3.639	0.518
150.000	150.526	80.004	19.994	103.291	19.910	3.578	0.551
152.000	151.504	80.004	19.995	103.282	19.908	3.699	0.454
154.000	152.526	80.002	19.995	103.280	19.910	3.567	0.479
156.000	153.536	80.005	19.994	103.269	19.907	3.760	0.527
158.000	154.506	80.004	19.995	103.267	19.906	3.844	0.479
160.000	155.507	80.002	19.995	103.268	19.908	3.751	0.491
162.000	156.531	80.004	19.995	103.266	19.906	3.838	0.521
164.000	157.500	80.005	19.996	103.270	19.906	3.887	0.508
166.000	158.495	80.004	19.996	103.268	19.909	3.616	0.483
168.000	159.471	80.005	19.996	103.266	19.908	3.736	0.484
170.000	160.474	80.006	19.995	103.263	19.912	3.431	0.494
172.000	161.489	80.004	19.995	103.261	19.909	3.622	0.523
174.000	162.426	80.005	19.994	103.264	19.909	3.667	0.469
176.000	163.403	80.004	19.994	103.264	19.910	3.561	0.491
178.000	164.406	80.003	19.995	103.260	19.908	3.692	0.469
180.000	165.353	80.004	19.994	103.257	19.909	3.662	0.492
182.000	166.320	80.005	19.994	103.260	19.906	3.861	0.505
184.000	167.323	80.004	19.994	103.263	19.906	3.861	0.502
186.000	168.229	80.005	19.995	103.262	19.907	3.825	0.480
188.000	169.218	80.006	19.995	103.262	19.910	3.597	0.485
190.000	170.171	80.006	19.995	103.259	19.903	4.075	0.484
192.000	171.142	80.007	19.996	103.258	19.905	3.954	0.474
194.000	172.092	80.005	19.994	103.258	19.904	3.992	0.461
196.000	173.049	80.005	19.995	103.258	19.904	4.022	0.463
198.000	174.017	80.005	19.996	103.257	19.904	3.992	0.501
200.000	174.966	80.003	19.997	103.256	19.904	4.035	0.496
202.000	175.937	80.004	19.994	103.250	19.903	4.094	0.492
204.000	176.878	80.003	19.994	103.259	19.901	4.285	0.487
206.000	177.791	80.003	19.994	103.255	19.900	4.322	0.454
208.000	178.776	80.004	19.995	103.259	19.898	4.492	0.460
210.000	179.735	80.003	19.995	103.254	19.902	4.194	0.480
212.000	180.687	80.005	19.995	103.254	19.902	4.193	0.472
214.000	181.646	80.003	19.994	103.262	19.901	4.261	0.489
216.000	182.573	80.004	19.995	103.259	19.904	4.062	0.471
218.000	183.482	80.004	19.994	103.248	19.899	4.413	0.462
220.000	184.457	80.004	19.994	103.254	19.900	4.306	0.481
222.000	185.392	80.005	19.994	103.255	19.900	4.367	0.471
224.000	186.436	80.004	19.994	103.259	19.902	4.217	0.474
226.000	187.358	80.005	19.994	103.263	19.897	4.547	0.472
228.000	188.345	80.005	19.996	103.259	19.900	4.297	0.509
230.000	189.334	80.003	19.996	103.253	19.898	4.522	0.469
232.000	190.262	80.003	19.994	103.263	19.899	4.412	0.454
234.000	191.265	80.004	19.995	103.264	19.900	4.354	0.462
236.000	192.168	80.004	19.994	103.265	19.899	4.378	0.473
238.000	193.163	80.005	19.994	103.262	19.895	4.734	0.492
240.000	194.164	80.004	19.993	103.264	19.896	4.637	0.469
242.000	195.084	80.005	19.994	103.264	19.896	4.649	0.471
244.000	196.098	80.005	19.994	103.263	19.897	4.603	0.478
246.000	197.022	80.006	19.994	103.256	19.896	4.681	0.462
248.000	198.030	80.023	19.999	103.269	19.893	4.888	0.490
250.000	199.015	80.025	20.002	103.272	19.891	5.059	0.473
252.000	199.963	80.023	20.002	103.277	19.894	4.778	0.485
254.001	200.924	80.024	20.002	103.268	19.897	4.590	0.470
256.000	201.953	80.025	20.001	103.275	19.897	4.562	0.527
258.000	202.936	80.024	20.001	103.265	19.894	4.820	0.518
260.000	203.931	80.026	20.001	103.261	19.891	5.072	0.507
262.000	204.896	80.026	19.999	103.262	19.892	4.969	0.486
264.000	205.873	80.025	20.000	103.262	19.890	5.128	0.501
266.000	206.892	80.025	20.000	103.264	19.889	5.167	0.517
268.000	207.929	80.024	19.999	103.263	19.887	5.352	0.557
270.000	208.908	80.026	19.999	103.262	19.885	5.485	0.532
272.000	209.853	80.025	19.999	103.264	19.885	5.491	0.518
274.000	210.893	80.025	20.000	103.273	19.882	5.729	0.499
276.000	211.879	80.026	19.999	103.262	19.881	5.824	0.524
278.000	212.828	80.025	20.002	103.261	19.876	6.165	0.494
280.000	213.866	80.023	20.002	103.261	19.875	6.256	0.502
282.000	214.838	80.021	20.003	103.262	19.875	6.304	0.468
284.000	215.841	80.022	20.001	103.268	19.875	6.281	0.474
286.000	216.889	80.021	20.001	103.265	19.871	6.567	0.489
288.000	217.866	80.023	20.001	103.269	19.868	6.830	0.496
290.000	218.861	80.021	20.000	103.264	19.866	6.948	0.472
292.000	219.841	80.019	19.995	103.263	19.860	7.460	0.510
294.000	220.855	80.022	19.999	103.265	19.857	7.636	0.511
296.000	221.887	80.023	20.001	103.265	19.856	7.742	0.536
298.000	222.919	80.024	20.001	103.265	19.854	7.876	0.535
300.000	223.900	80.024	19.999	103.267	19.854	7.945	0.516
302.000	224.908	80.022	19.998	103.265	19.850	8.225	0.498
304.000	225.891	80.022	19.998	103.265	19.847	8.470	0.510
306.000	226.906	80.022	20.001	103.267	19.843	8.769	0.480
308.000	227.910	80.022	19.999	103.270	19.840	8.982	0.527
310.000	228.912	80.021	20.000	103.270	19.843	8.762	0.494
312.000	229.944	80.022	19.999	103.267	19.837	9.260	0.515
314.000	231.013	80.023	20.001	103.265	19.837	9.196	0.535
316.000	231.964	80.021	20.000	103.267	19.834	9.463	0.480
318.000	232.937	80.023	20.001	103.266	19.832	9.619	0.497
320.000	233.941	80.023	20.000	103.264	19.828	9.914	0.497
322.000	234.949	80.023	20.001	103.264	19.828	9.943	0.498
324.000	235.966	80.025	19.999	103.263	19.829	9.810	0.521
326.000	236.931	80.025	19.999	103.263	19.827	10.020	0.520
328.000	237.966	80.024	20.000	103.263	19.823	10.278	0.520
330.000	238.956	80.025	20.000	103.262	19.819	10.594	0.475
332.000	239.893	80.024	19.998	103.263	19.815	10.908	0.483
334.000	240.881	80.024	19.999	103.262	19.817	10.804	0.478
336.000	241.864	80.025	20.002	103.269	19.813	11.074	0.506
338.000	242.861	80.025	20.000	103.262	19.814	11.036	0.448
340.000	243.886	80.025	20.000	103.267	19.808	11.510	0.496
342.000	244.853	80.025	20.002	103.273	19.808	11.486	0.455
344.000	245.839	80.023	20.000	103.266	19.804	11.806	0.488
346.000	246.815	80.024	20.000	103.283	19.801	11.987	0.477
348.000	247.871	80.024	20.000	103.270	19.800	12.128	0.501
350.000	248.848	80.025	20.000	103.268	19.796	12.384	0.515
352.000	249.858	80.025	19.999	103.273	19.789	12.972	0.521
354.000	250.887	80.024	20.000	103.272	19.788	13.030	0.514
356.000	251.881	80.026	19.999	103.279	19.780	13.647	0.511
358.000	252.888	80.025	20.000	103.297	19.780	13.655	0.480
360.000	253.855	80.024	20.000	103.280	19.775	14.050	0.488
362.000	254.837	80.023	20.000	103.287	19.770	14.397	0.472
364.000	255.882	80.023	19.999	103.295	19.768	14.574	0.521
366.000	256.816	80.022	19.999	103.289	19.761	15.106	0.471
368.000	257.851	80.022	20.000	103.283	19.757	15.471	0.496
370.000	258.817	80.023	20.000	103.294	19.750	15.971	0.494
372.000	259.863	80.022	20.003	103.296	19.746	16.273	0.506
374.000	260.835	80.022	19.998	103.304	19.738	16.893	0.501
376.000	261.850	80.002	19.997	103.295	19.736	17.043	0.520
378.000	262.897	80.002	19.996	103.288	19.731	17.445	0.518
380.000	263.855	80.003	19.996	103.295	19.726	17.861	0.498
382.000	264.863	80.003	19.998	103.301	19.722	18.163	0.468
384.000	265.869	80.005	19.997	103.299	19.715	18.685	0.490
386.000	266.858	80.004	19.996	103.295	19.711	19.002	0.493
388.000	267.887	80.002	19.995	103.292	19.706	19.409	0.513
390.000	268.903	80.004	19.996	103.298	19.700	19.896	0.520
392.000	269.954	80.003	19.994	103.298	19.694	20.354	0.540
394.000	270.988	80.003	19.994	103.300	19.686	20.970	0.535
396.000	271.980	80.004	19.995	103.300	19.681	21.332	0.494
398.000	273.013	80.004	19.994	103.300	19.678	21.574	0.486
400.000	274.020	80.003	19.995	103.300	19.667	22.450	0.526
402.000	275.014	80.004	19.995	103.300	19.667	22.459	0.494
404.000	276.052	80.004	19.994	103.303	19.661	22.879	0.509
406.000	277.045	80.006	19.995	103.299	19.651	23.657	0.489
408.000	278.042	80.006	19.996	103.300	19.649	23.806	0.469
410.000	279.006	80.006	19.995	103.301	19.643	24.267	0.468
412.000	280.049	80.006	19.995	103.300	19.640	24.512	0.511
414.000	281.006	80.005	19.994	103.303	19.628	25.444	0.495
416.000	282.000	80.006	19.995	103.304	19.623	25.860	0.483
418.000	282.999	80.004	19.994	103.307	19.619	26.166	0.475
420.000	284.004	80.005	19.992	103.308	19.610	26.832	0.501
422.000	285.003	80.005	19.994	103.308	19.605	27.292	0.464
424.000	285.978	80.006	19.992	103.318	19.595	27.996	0.490
426.000	286.978	80.005	19.995	103.319	19.593	28.155	0.507
428.000	287.946	80.006	19.994	103.309	19.585	28.845	0.482
430.000	288.959	80.006	19.994	103.319	19.577	29.443	0.510
432.000	289.948	80.007	19.994	103.327	19.570	29.959	0.522
434.000	290.897	80.006	19.994	103.322	19.562	30.632	0.480
436.000	291.912	80.007	19.996	103.330	19.557	30.950	0.520
438.000	292.899	80.006	19.994	103.333	19.548	31.691	0.507
440.000	293.919	80.005	19.995	103.335	19.540	32.276	0.507
442.000	294.895	80.004	19.993	103.336	19.535	32.666	0.478
444.000	295.853	80.004	19.996	103.339	19.531	33.001	0.482
446.000	296.861	80.003	19.994	103.339	19.523	33.650	0.493
448.000	297.825	80.004	19.996	103.340	19.514	34.315	0.493
450.000	298.850	80.004	19.996	103.339	19.507	34.903	0.504
452.000	299.795	80.003	19.996	103.339	19.497	35.614	0.495
454.000	300.776	80.004	19.995	103.341	19.493	35.951	0.481
456.000	301.772	80.004	19.995	103.340	19.484	36.696	0.493
458.000	302.796	80.004	19.996	103.349	19.480	36.942	0.500
460.000	303.725	80.004	19.996	103.341	19.471	37.656	0.475
462.000	304.731	80.003	19.996	103.339	19.461	38.471	0.498
464.000	305.685	80.004	19.995	103.349	19.458	38.719	0.462
466.000	306.666	80.004	19.995	103.344	19.449	39.418	0.476
468.000	307.686	80.003	19.996	103.352	19.444	39.765	0.489
470.000	308.676	80.003	19.998	103.362	19.433	40.636	0.490
472.000	309.669	80.003	19.996	103.362	19.424	41.305	0.510
474.000	310.675	80.003	19.996	103.363	19.416	41.968	0.488
476.000	311.693	80.002	19.997	103.359	19.407	42.625	0.503
478.000	312.663	80.003	19.996	103.372	19.399	43.282	0.485
480.000	313.702	80.003	19.996	103.367	19.394	43.669	0.486
482.000	314.692	80.004	19.995	103.366	19.384	44.429	0.471
484.000	315.729	80.005	19.993	103.372	19.372	45.353	0.502
486.000	316.697	80.004	19.995	103.380	19.366	45.874	0.492
488.000	317.697	80.004	19.994	103.385	19.353	46.864	0.510
490.000	318.693	80.005	19.993	103.383	19.347	47.323	0.525
492.000	319.671	80.004	19.996	103.382	19.337	48.138	0.502
494.000	320.684	80.005	19.995	103.392	19.327	48.902	0.486
496.000	321.705	80.005	19.995	103.385	19.317	49.677	0.507
498.000	322.673	80.004	19.995	103.386	19.305	50.583	0.478
500.000	323.662	80.003	19.995	103.399	19.300	50.977	0.473
502.000	324.659	80.003	19.994	103.403	19.288	51.978	0.528
504.000	325.668	80.003	19.995	103.414	19.279	52.657	0.505
506.000	326.658	80.003	19.997	103.419	19.268	53.460	0.519
508.000	327.620	80.004	19.992	103.416	19.260	54.128	0.449
510.000	328.665	80.024	19.999	103.423	19.247	55.105	0.500
512.000	329.664	80.026	20.002	103.451	19.237	55.869	0.516
514.000	330.728	80.007	19.997	103.440	19.225	56.836	0.533
516.000	331.674	80.006	19.995	103.420	19.213	57.780	0.498
518.000	332.734	80.007	19.995	103.425	19.204	58.513	0.518
520.000	333.749	80.007	19.995	103.429	19.192	59.401	0.513
522.000	334.790	80.006	19.995	103.439	19.183	60.129	0.497
524.000	335.800	80.004	19.997	103.442	19.172	60.990	0.530
526.000	336.788	80.005	19.994	103.452	19.166	61.466	0.477
528.000	337.865	80.004	19.993	103.455	19.158	62.026	0.492
530.000	338.891	80.004	19.994	103.454	19.143	63.218	0.519
532.000	339.949	80.004	19.996	103.445	19.138	63.625	0.553
534.000	340.910	80.003	19.995	103.456	19.136	63.757	0.516
536.000	342.015	80.003	19.995	103.456	19.127	64.428	0.497
538.000	343.054	80.003	19.995	103.450	19.127	64.464	0.480
540.000	344.229	80.004	19.995	103.455	19.124	64.698	0.662
542.000	345.487	80.003	19.994	103.445	19.121	64.933	0.774
544.000	345.954	80.003	19.997	103.444	19.120	65.004	0.252
546.000	347.346	80.005	19.993	103.431	19.120	64.971	0.613
548.000	348.462	80.004	19.995	103.421	19.124	64.663	0.462
550.000	349.222	80.004	19.995	103.421	19.130	64.216	0.529
552.000	350.385	80.003	19.994	103.420	19.134	63.879	0.552
554.000	351.394	80.003	19.995	103.414	19.146	62.909	0.475
556.000	352.557	80.003	19.998	103.409	19.153	62.376	0.559
558.000	353.578	80.003	19.996	103.390	19.167	61.291	0.523
560.000	354.580	80.002	19.996	103.383	19.180	60.300	0.544
562.000	355.602	80.002	19.996	103.381	19.201	58.612	0.540
564.000	356.584	80.002	19.994	103.364	19.223	56.895	0.509
566.000	357.604	80.004	19.996	103.347	19.241	55.533	0.510
568.000	358.635	80.004	19.996	103.342	19.268	53.411	0.513
570.000	359.664	80.003	19.994	103.338	19.292	51.528	0.483
572.000	360.665	80.005	19.995	103.321	19.323	49.103	0.477
574.000	361.681	80.004	19.995	103.303	19.355	46.639	0.480
576.000	362.749	80.005	19.994	103.297	19.384	44.376	0.526
578.000	363.770	80.005	19.994	103.276	19.419	41.652	0.538
580.000	364.755	80.005	19.992	103.269	19.449	39.361	0.508
582.000	365.744	80.003	19.994	103.255	19.482	36.750	0.482
584.000	366.781	80.003	19.995	103.254	19.517	34.055	0.475
586.000	367.816	80.004	19.997	103.232	19.553	31.265	0.507
588.000	368.794	80.003	19.995	103.223	19.584	28.856	0.490
590.000	369.853	80.005	19.995	103.222	19.609	26.921	0.503
592.000	370.882	80.004	19.995	103.206	19.639	24.614	0.511
594.000	371.923	80.007	19.996	103.200	19.666	22.509	0.486
596.000	372.931	80.006	19.995	103.190	19.690	20.625	0.499
598.000	373.965	80.007	19.992	103.190	19.713	18.824	0.513
600.000	375.011	80.007	19.996	103.203	19.731	17.479	0.524
602.000	376.018	80.006	19.995	103.182	19.747	16.240	0.498
604.000	376.991	80.006	19.994	103.180	19.760	15.172	0.488
606.000	377.997	80.006	19.994	103.184	19.771	14.311	0.491
608.000	379.032	80.005	19.994	103.182	19.783	13.426	0.496
610.000	380.063	80.004	19.996	103.182	19.791	12.751	0.524
612.000	381.060	80.003	19.994	103.185	19.800	12.057	0.515
614.000	382.025	80.004	19.994	103.185	19.805	11.716	0.527
616.000	383.033	80.004	19.993	103.187	19.808	11.463	0.489
618.000	384.039	80.003	19.994	103.184	19.812	11.169	0.498
620.000	385.049	80.003	19.994	103.182	19.818	10.695	0.512
622.000	386.055	80.003	19.995	103.183	19.818	10.676	0.512
624.000	387.046	80.004	19.995	103.176	19.820	10.511	0.509
626.000	388.060	80.003	19.995	103.183	19.826	10.086	0.494
628.000	389.048	80.004	19.996	103.184	19.825	10.126	0.506
630.000	389.993	80.004	19.993	103.182	19.829	9.839	0.471
632.000	391.034	80.003	19.995	103.179	19.831	9.703	0.505
634.000	391.988	80.003	19.995	103.184	19.830	9.780	0.490
636.000	393.023	80.004	19.993	103.183	19.832	9.634	0.504
638.000	394.009	80.002	19.995	103.183	19.838	9.117	0.508
640.000	395.040	80.003	19.995	103.182	19.837	9.250	0.520
642.000	396.029	80.002	19.996	103.184	19.840	8.979	0.541
644.000	396.964	80.003	19.998	103.176	19.843	8.734	0.462
646.000	397.978	80.004	19.997	103.164	19.843	8.717	0.492
648.000	398.942	80.004	19.995	103.175	19.843	8.778	0.463
650.000	399.940	80.005	19.995	103.180	19.844	8.694	0.485
652.000	400.940	80.005	19.995	103.179	19.843	8.725	0.512
654.000	401.955	80.005	19.995	103.181	19.844	8.659	0.492
656.000	402.951	80.004	19.998	103.175	19.847	8.469	0.484
658.000	403.954	80.006	19.997	103.176	19.848	8.372	0.492
660.000	404.899	80.004	19.996	103.177	19.849	8.273	0.510
662.000	405.875	80.003	19.995	103.179	19.846	8.497	0.501
664.000	406.891	80.003	19.995	103.171	19.848	8.349	0.510
666.000	407.864	80.005	19.995	103.174	19.847	8.410	0.493
668.000	408.910	80.005	19.994	103.174	19.850	8.188	0.514
670.000	409.914	80.005	19.994	103.178	19.851	8.154	0.504
672.000	410.931	80.005	19.994	103.181	19.850	8.197	0.496
674.000	411.958	80.008	19.994	103.174	19.851	8.140	0.498
676.000	412.985	80.006	19.994	103.179	19.853	8.002	0.501
678.000	413.957	80.006	19.994	103.180	19.853	7.951	0.467
680.000	414.977	80.007	19.994	103.181	19.855	7.827	0.504
682.000	415.980	80.007	19.993	103.180	19.858	7.602	0.487
684.000	416.998	80.005	19.994	103.182	19.859	7.545	0.519
686.000	418.029	80.003	19.993	103.179	19.857	7.668	0.519
688.000	419.036	80.004	19.995	103.181	19.858	7.615	0.501
690.000	420.109	80.003	19.996	103.181	19.858	7.560	0.554
692.000	421.123	80.003	19.996	103.180	19.854	7.873	0.488
694.000	422.195	80.002	19.996	103.185	19.862	7.270	0.500
696.000	423.254	80.004	19.995	103.180	19.861	7.353	0.540
698.000	424.301	80.003	19.994	103.177	19.862	7.308	0.504
700.000	425.331	80.003	19.997	103.180	19.862	7.260	0.501
702.000	426.359	80.002	19.993	103.177	19.863	7.189	0.521
704.000	427.436	80.004	19.995	103.183	19.860	7.432	0.506
706.000	428.484	80.003	19.993	103.183	19.863	7.220	0.511
708.000	429.571	80.004	19.994	103.182	19.864	7.108	0.560
710.000	430.591	80.004	19.995	103.169	19.859	7.508	0.505
712.000	431.620	80.005	19.994	103.154	19.866	6.965	0.517
714.000	432.645	80.005	19.995	103.177	19.863	7.167	0.506
716.000	433.737	80.003	19.995	103.162	19.864	7.087	0.498
718.000	434.732	80.004	19.993	103.166	19.865	7.082	0.514
720.000	435.795	80.004	19.996	103.159	19.867	6.895	0.510
722.000	436.831	80.004	19.996	103.169	19.864	7.119	0.523
724.000	437.832	80.003	19.995	103.172	19.865	7.033	0.503
726.000	438.880	80.004	19.995	103.152	19.866	6.956	0.519
728.000	439.935	80.003	19.992	103.157	19.864	7.103	0.529
730.000	440.987	80.004	19.995	103.147	19.871	6.589	0.528
732.000	441.969	80.005	19.996	103.171	19.865	7.025	0.497
734.000	443.031	80.006	19.996	103.159	19.872	6.524	0.526
736.000	444.050	80.005	19.996	103.150	19.870	6.677	0.487
738.000	445.037	80.006	19.997	103.157	19.876	6.210	0.506
740.000	446.056	80.004	19.997	103.146	19.872	6.526	0.529
742.000	447.058	80.004	19.995	103.156	19.870	6.628	0.519
744.000	448.101	80.005	19.995	103.149	19.876	6.207	0.535
746.000	449.082	80.003	19.996	103.152	19.875	6.268	0.527
748.000	450.100	80.004	19.996	103.171	19.874	6.361	0.499
750.000	451.170	80.004	19.995	103.157	19.875	6.238	0.551
752.000	452.175	80.005	19.995	103.160	19.875	6.270	0.509
754.000	453.179	80.006	19.996	103.152	19.877	6.114	0.500
756.000	454.201	80.005	19.995	103.150	19.880	5.910	0.525
758.000	455.233	80.004	19.995	103.147	19.880	5.919	0.494
760.000	456.276	80.006	19.996	103.144	19.877	6.088	0.539
762.000	457.248	80.004	19.997	103.144	19.882	5.765	0.486
764.000	458.253	80.005	19.995	103.156	19.880	5.902	0.492
766.000	459.231	80.005	19.994	103.150	19.884	5.583	0.496
768.000	460.270	80.003	19.993	103.149	19.885	5.506	0.516
770.000	461.247	80.004	19.995	103.148	19.883	5.629	0.501
772.000	462.277	80.003	19.995	103.155	19.883	5.669	0.498
774.000	463.253	80.004	19.995	103.149	19.882	5.690	0.495
776.000	464.250	80.003	19.995	103.148	19.884	5.576	0.476
778.000	465.273	80.005	19.996	103.145	19.884	5.601	0.536
780.000	466.264	80.004	19.995	103.150	19.886	5.451	0.517
782.000	467.237	80.004	19.995	103.147	19.886	5.445	0.513
784.000	468.256	80.005	19.996	103.145	19.885	5.504	0.503
786.000	469.252	80.004	19.994	103.145	19.887	5.358	0.498
788.000	470.272	80.004	19.996	103.144	19.887	5.318	0.505
790.000	471.264	80.004	19.993	103.145	19.889	5.151	0.506
792.000	472.248	80.004	19.994	103.144	19.886	5.422	0.493
794.000	473.279	80.005	19.995	103.150	19.887	5.308	0.495
796.000	474.340	80.004	19.994	103.147	19.888	5.264	0.521
798.000	475.348	80.003	19.993	103.145	19.890	5.115	0.528
800.000	476.361	80.003	19.996	103.144	19.887	5.348	0.504
802.000	477.363	80.003	19.994	103.149	19.889	5.164	0.505
804.000	478.416	80.004	19.994	103.153	19.888	5.293	0.505
806.000	479.460	80.004	19.994	103.153	19.891	5.029	0.516
808.000	480.466	80.004	19.993	103.149	19.892	4.982	0.509
810.000	481.458	80.006	19.993	103.147	19.889	5.202	0.497
812.000	482.457	80.005	19.995	103.146	19.892	4.931	0.518
814.000	483.469	80.005	19.994	103.146	19.892	4.969	0.524
816.000	484.497	80.005	19.996	103.147	19.894	4.777	0.508
818.000	485.566	80.004	19.994	103.148	19.893	4.864	0.539
820.000	486.560	80.005	19.995	103.143	19.896	4.629	0.521
822.000	487.583	80.003	19.995	103.144	19.898	4.515	0.511
824.000	488.578	80.004	19.994	103.147	19.898	4.504	0.504
826.000	489.596	80.004	19.996	103.146	19.897	4.589	0.521
828.000	490.602	80.004	19.995	103.149	19.896	4.620	0.514
830.000	491.639	80.005	19.995	103.150	19.897	4.557	0.513
832.000	492.649	80.005	19.994	103.148	19.894	4.769	0.519
834.000	493.679	80.005	19.995	103.147	19.896	4.618	0.495
836.000	494.721	80.007	19.995	103.151	19.896	4.637	0.504
838.000	495.752	80.007	19.995	103.145	19.898	4.481	0.523
840.000	496.775	80.007	19.994	103.144	19.893	4.861	0.500
842.000	497.799	80.006	19.997	103.149	19.896	4.675	0.509
844.000	498.787	80.005	19.992	103.147	19.894	4.794	0.500
846.000	499.835	80.004	19.995	103.143	19.894	4.781	0.515
848.000	500.873	80.004	19.996	103.144	19.893	4.891	0.510
850.000	501.901	80.003	19.995	103.143	19.893	4.859	0.496
852.000	502.936	80.003	19.997	103.143	19.894	4.817	0.532
854.000	503.953	80.002	19.994	103.143	19.899	4.443	0.519
856.000	504.948	80.004	19.996	103.145	19.897	4.565	0.509
858.000	505.947	80.004	19.995	103.144	19.895	4.690	0.484
860.000	506.959	80.004	19.994	103.145	19.897	4.525	0.489
862.000	507.976	80.003	19.992	103.144	19.902	4.178	0.511
864.000	508.991	80.003	19.995	103.143	19.897	4.574	0.504
866.000	509.976	80.003	19.994	103.145	19.895	4.745	0.494
868.000	511.001	80.005	19.994	103.144	19.898	4.479	0.485
870.000	512.005	80.004	19.995	103.143	19.897	4.557	0.512
872.000	513.025	80.004	19.995	103.142	19.899	4.373	0.536
874.000	514.063	80.006	19.994	103.144	19.899	4.439	0.549
876.000	515.155	80.004	19.995	103.146	19.897	4.534	0.543
878.000	516.146	80.002	19.995	103.147	19.896	4.608	0.510
880.000	517.212	80.003	19.995	103.148	19.899	4.420	0.536
882.000	518.288	80.004	19.995	103.148	19.898	4.517	0.544
884.000	519.400	80.003	19.994	103.162	19.897	4.540	0.535
886.000	520.541	80.004	19.994	103.155	19.897	4.563	0.593
888.000	521.621	80.003	19.995	103.151	19.896	4.669	0.546
890.000	522.750	80.003	19.995	103.161	19.893	4.861	0.564
892.000	523.886	80.005	19.995	103.149	19.895	4.709	0.592
894.000	525.015	80.004	19.995	103.155	19.900	4.312	0.561
896.000	526.226	80.005	19.993	103.153	19.898	4.479	0.585
898.000	527.351	80.005	19.993	103.148	19.896	4.608	0.540
900.000	528.510	80.005	19.994	103.149	19.896	4.665	0.582
902.000	529.709	80.006	19.994	103.148	19.897	4.563	0.580
904.000	530.878	80.005	19.996	103.147	19.900	4.320	0.594
906.000	532.119	80.006	19.995	103.144	19.896	4.654	0.616
908.000	533.260	80.005	19.995	103.143	19.897	4.590	0.595
910.000	534.457	80.006	19.997	103.142	19.896	4.662	0.608
912.000	535.638	80.005	19.995	103.143	19.898	4.523	0.572
914.000	536.802	80.006	19.994	103.142	19.894	4.800	0.588
916.000	537.975	80.006	19.996	103.143	19.895	4.705	0.568
918.000	539.190	80.006	19.995	103.137	19.901	4.246	0.594
920.000	540.337	80.007	19.995	103.134	19.899	4.421	0.546
922.000	541.472	80.006	19.994	103.128	19.899	4.438	0.552
924.000	542.669	80.006	19.995	103.140	19.902	4.176	0.616
926.000	543.846	80.006	19.995	103.141	19.902	4.204	0.586
928.000	544.953	80.005	19.996	103.138	19.899	4.387	0.607
930.000	546.083	80.005	19.996	103.138	19.903	4.085	0.568
932.000	547.222	80.004	19.995	103.139	19.902	4.168	0.576
934.000	548.395	80.004	19.995	103.141	19.900	4.345	0.599
936.000	549.508	80.003	19.996	103.139	19.902	4.176	0.563
938.000	550.651	80.002	19.995	103.141	19.900	4.324	0.561
940.000	551.771	80.005	19.996	103.137	19.897	4.542	0.546
942.000	552.835	80.003	19.996	103.141	19.902	4.148	0.552
944.000	553.939	80.003	19.994	103.143	19.903	4.078	0.530
946.000	555.067	80.004	19.996	103.143	19.902	4.199	0.569
948.000	556.141	80.003	19.996	103.123	19.902	4.155	0.524
950.000	557.214	80.005	19.995	103.138	19.900	4.292	0.557
952.000	558.297	80.005	19.995	103.139	19.898	4.496	0.528
954.000	559.369	80.003	19.995	103.132	19.902	4.140	0.522
956.000	560.430	80.005	19.995	103.132	19.900	4.315	0.565
958.000	561.488	80.005	19.994	103.138	19.902	4.189	0.506
960.000	562.568	80.004	19.993	103.137	19.901	4.265	0.516
962.000	563.618	80.003	19.991	103.145	19.900	4.349	0.511
964.000	564.682	80.005	19.994	103.146	19.898	4.495	0.537
966.000	565.708	80.003	19.994	103.133	19.902	4.214	0.506
968.000	566.754	80.004	19.995	103.140	19.901	4.252	0.518
970.000	567.785	80.003	19.995	103.142	19.903	4.072	0.521
972.000	568.812	80.004	19.994	103.129	19.901	4.242	0.507
974.000	569.841	80.005	19.993	103.137	19.901	4.258	0.535
976.000	570.860	80.006	19.996	103.135	19.901	4.258	0.482
978.000	571.910	80.006	19.995	103.138	19.900	4.362	0.555
980.000	572.943	80.005	19.993	103.126	19.901	4.231	0.511
982.000	573.975	80.006	19.994	103.141	19.899	4.376	0.528
984.000	575.073	80.006	19.995	103.143	19.905	3.964	0.524
986.000	576.046	80.007	19.994	103.137	19.905	3.956	0.531
988.000	577.055	80.006	19.992	103.138	19.901	4.235	0.511
990.000	578.107	80.007	19.995	103.140	19.903	4.062	0.521
992.000	579.076	80.007	19.994	103.133	19.905	3.980	0.488
994.000	580.135	80.006	19.994	103.127	19.900	4.300	0.521
996.000	581.109	80.006	19.995	103.124	19.902	4.159	0.487
998.000	582.172	80.006	19.995	103.130	19.903	4.131	0.517
1000.000	583.179	80.007	19.996	103.129	19.902	4.155	0.490
1002.000	584.167	80.005	19.996	103.143	19.902	4.212	0.497
1004.000	585.184	80.006	19.996	103.140	19.899	4.411	0.524
1006.000	586.174	80.006	19.996	103.120	19.896	4.651	0.480
1008.000	587.175	80.005	19.997	103.133	19.900	4.341	0.475
1010.000	588.188	80.004	19.996	103.132	19.897	4.527	0.495
1012.000	589.205	80.007	19.995	103.135	19.899	4.432	0.520
1014.000	590.206	80.004	19.994	103.139	19.896	4.675	0.501
1016.000	591.201	80.003	19.996	103.143	19.901	4.267	0.492
1018.000	592.224	80.004	19.994	103.129	19.902	4.214	0.475
1020.000	593.238	80.002	19.995	103.139	19.898	4.485	0.497
1022.000	594.236	80.004	19.995	103.142	19.903	4.129	0.517
1024.000	595.309	80.004	19.994	103.141	19.898	4.455	0.535
1026.000	596.303	80.003	19.997	103.146	19.902	4.203	0.510
1027.999	597.322	80.003	19.996	103.143	19.899	4.445	0.529
1029.999	598.333	80.004	19.995	103.128	19.896	4.629	0.505
1031.999	599.353	80.005	19.996	103.144	19.898	4.493	0.507
1033.999	600.389	80.001	19.998	103.137	19.897	4.567	0.523
1035.999	601.419	80.002	19.997	103.141	19.900	4.326	0.532
1037.999	602.404	80.003	19.995	103.137	19.900	4.305	0.491
1040.000	603.431	80.006	19.995	103.142	19.901	4.229	0.511
1041.999	604.408	80.002	19.995	103.135	19.899	4.413	0.495
1043.999	605.417	80.003	19.994	103.139	19.900	4.318	0.491
1045.999	606.468	80.003	19.994	103.132	19.898	4.518	0.551
1047.999	607.443	80.003	19.996	103.136	19.899	4.415	0.483
1049.999	608.498	80.005	19.994	103.144	19.897	4.544	0.511
1051.999	609.524	80.005	19.996	103.141	19.899	4.392	0.502
1053.999	610.548	80.006	19.995	103.142	19.892	4.984	0.500
1055.999	611.560	80.006	19.997	103.138	19.896	4.629	0.518
1058.000	612.564	80.007	19.996	103.133	19.893	4.863	0.485
1060.000	613.626	80.006	19.997	103.139	19.892	4.950	0.541
1061.999	614.639	80.005	19.995	103.140	19.896	4.652	0.516
1063.999	615.679	80.005	19.995	103.142	19.894	4.768	0.527
1065.999	616.693	80.005	19.996	103.144	19.890	5.145	0.507
1067.999	617.722	80.005	19.996	103.142	19.895	4.735	0.513
1069.999	618.738	80.005	19.994	103.137	19.895	4.701	0.525
1072.001	619.755	80.005	19.994	103.133	19.895	4.737	0.491
1073.999	620.777	80.004	19.994	103.145	19.895	4.732	0.519
1076.000	621.821	80.004	19.993	103.146	19.892	4.963	0.542
1077.999	622.820	80.006	19.994	103.146	19.892	4.916	0.491
1080.000	623.882	80.006	19.993	103.146	19.894	4.817	0.529
1081.999	624.922	80.008	19.993	103.153	19.895	4.730	0.531
1083.999	625.947	80.007	19.992	103.144	19.897	4.574	0.515
1085.999	626.963	80.007	19.993	103.144	19.893	4.855	0.521
1087.999	627.948	80.008	19.995	103.145	19.893	4.874	0.511
1089.999	629.002	80.006	19.994	103.147	19.894	4.760	0.508
1091.999	629.963	80.004	19.995	103.148	19.893	4.838	0.506
1093.999	631.023	80.003	19.994	103.146	19.891	5.035	0.518
1095.999	632.032	80.005	19.995	103.146	19.894	4.762	0.505
1098.000	633.085	80.005	19.997	103.147	19.895	4.734	0.515
1099.999	634.114	80.005	19.995	103.146	19.895	4.739	0.520
1101.999	635.171	80.005	19.996	103.145	19.895	4.754	0.548
1103.999	636.150	80.006	19.995	103.145	19.896	4.675	0.498
1105.999	637.153	80.006	19.995	103.143	19.893	4.891	0.510
1107.999	638.223	80.007	19.995	103.145	19.894	4.830	0.515
1109.999	639.251	80.005	19.995	103.145	19.895	4.690	0.522
1111.999	640.238	80.004	19.995	103.145	19.890	5.128	0.506
1113.999	641.255	80.005	19.995	103.145	19.892	4.971	0.508
1115.999	642.247	80.005	19.995	103.144	19.892	4.920	0.489
1118.000	643.302	80.005	19.995	103.143	19.891	5.036	0.528
1120.000	644.315	80.005	19.995	103.143	19.892	4.986	0.514
1121.999	645.324	80.004	19.993	103.144	19.892	4.950	0.508
1123.999	646.353	80.004	19.997	103.144	19.892	4.937	0.532
1125.999	647.363	80.001	19.995	103.141	19.890	5.077	0.541
1127.999	648.403	80.004	19.994	103.133	19.894	4.815	0.524
1129.999	649.459	80.004	19.995	103.143	19.892	4.942	0.557
1132.001	650.459	80.005	19.997	103.143	19.889	5.147	0.490
1134.000	651.476	80.004	19.995	103.144	19.890	5.121	0.494
1135.999	652.502	80.005	19.995	103.137	19.892	4.971	0.517
1137.999	653.514	80.006	19.993	103.145	19.893	4.908	0.512
1140.000	654.550	80.005	19.993	103.146	19.890	5.130	0.496
1141.999	655.614	80.005	19.994	103.146	19.891	5.027	0.516
1144.000	656.577	80.007	19.995	103.146	19.888	5.247	0.485
1145.999	657.595	80.004	19.994	103.146	19.888	5.259	0.498
1148.001	658.591	80.005	19.991	103.146	19.888	5.289	0.518
1149.999	659.586	80.006	19.994	103.148	19.889	5.196	0.482
1152.000	660.616	80.006	19.995	103.146	19.886	5.390	0.511
1153.999	661.603	80.007	19.994	103.157	19.889	5.193	0.491
1155.999	662.669	80.006	19.996	103.150	19.892	4.933	0.547
1157.999	663.661	80.006	19.995	103.149	19.890	5.092	0.504
1160.000	664.671	80.008	19.994	103.149	19.889	5.219	0.481
1162.000	665.679	80.007	19.993	103.146	19.888	5.253	0.516
1163.999	666.666	80.008	19.995	103.145	19.890	5.102	0.502
1165.999	667.692	80.004	19.995	103.145	19.890	5.088	0.490
1167.999	668.703	80.005	19.995	103.147	19.883	5.631	0.476
1169.999	669.743	80.006	19.995	103.143	19.884	5.578	0.526
1171.999	670.740	80.004	19.995	103.144	19.885	5.523	0.482
1174.000	671.748	80.005	19.994	103.144	19.889	5.151	0.534
1175.999	672.752	80.005	19.995	103.145	19.889	5.157	0.511
1178.000	673.789	80.005	19.994	103.143	19.887	5.314	0.486
1179.999	674.794	80.005	19.995	103.138	19.885	5.470	0.496
1181.999	675.761	80.004	19.995	103.148	19.888	5.278	0.478
1184.000	676.798	80.004	19.995	103.147	19.886	5.424	0.508
1185.999	677.821	80.005	19.995	103.148	19.884	5.599	0.516
1187.999	678.832	80.005	19.995	103.146	19.889	5.215	0.485
1189.999	679.856	80.006	19.994	103.146	19.887	5.312	0.545
1192.000	680.827	80.005	19.996	103.145	19.885	5.521	0.474
1194.000	681.821	80.005	19.995	103.145	19.888	5.278	0.492
1195.999	682.804	80.005	19.995	103.145	19.890	5.125	0.482
1197.999	683.795	80.004	19.995	103.146	19.886	5.439	0.497
1199.999	684.785	80.004	19.995	103.149	19.883	5.642	0.477
1201.999	685.739	80.004	19.994	103.146	19.885	5.468	0.490
1203.999	686.744	80.004	19.994	103.147	19.885	5.487	0.494
1205.999	687.718	80.003	19.995	103.141	19.884	5.549	0.513
1208.000	688.656	80.004	19.996	103.145	19.884	5.597	0.435
1209.999	689.617	80.004	19.996	103.148	19.884	5.595	0.489
1211.999	690.609	80.005	19.996	103.146	19.885	5.489	0.491
1213.999	691.510	80.003	19.995	103.147	19.882	5.715	0.474
1215.999	692.425	80.004	19.996	103.145	19.888	5.293	0.443
1217.999	693.398	80.005	19.995	103.148	19.887	5.315	0.458
1219.999	694.356	80.006	19.995	103.146	19.884	5.544	0.494
1221.999	695.278	80.005	19.995	103.146	19.887	5.337	0.467
1224.001	696.262	80.006	19.995	103.141	19.888	5.280	0.476
1225.999	697.167	80.005	19.996	103.143	19.883	5.645	0.505
1227.999	698.133	80.005	19.996	103.135	19.885	5.455	0.482
1229.999	699.054	80.004	19.996	103.135	19.883	5.648	0.467
1231.999	700.030	80.005	19.994	103.140	19.886	5.381	0.459
1233.999	700.962	80.005	19.994	103.137	19.884	5.556	0.459
1236.000	702.001	80.005	19.994	103.137	19.887	5.348	0.511
1238.000	702.929	80.005	19.994	103.137	19.882	5.701	0.466
1239.999	703.903	80.005	19.994	103.137	19.883	5.650	0.472
1241.999	704.887	80.006	19.994	103.138	19.884	5.552	0.501
1243.999	705.889	80.006	19.994	103.126	19.886	5.404	0.517
1245.999	706.858	80.007	19.995	103.136	19.886	5.424	0.490
1247.999	707.855	80.006	19.995	103.144	19.883	5.640	0.505
1249.999	708.834	80.006	19.994	103.143	19.888	5.292	0.473
1251.999	709.844	80.004	19.995	103.135	19.887	5.352	0.508
1253.999	710.805	80.004	19.995	103.125	19.888	5.275	0.513
1255.999	711.781	80.005	19.995	103.132	19.889	5.210	0.507
1257.999	712.754	80.005	19.996	103.144	19.887	5.354	0.477
1259.999	713.732	80.005	19.995	103.148	19.889	5.193	0.496
1261.999	714.723	80.005	19.995	103.134	19.885	5.506	0.497
1264.000	715.766	80.005	19.995	103.138	19.887	5.316	0.523
1265.999	716.751	80.006	19.995	103.140	19.884	5.574	0.529
1267.999	717.781	80.005	19.995	103.147	19.889	5.189	0.529
1269.999	718.754	80.004	19.994	103.146	19.883	5.665	0.469
1272.000	719.760	80.005	19.995	103.138	19.885	5.529	0.522
1274.000	720.812	80.007	19.993	103.140	19.883	5.639	0.584
1275.999	721.692	80.004	19.994	103.146	19.884	5.553	0.506
1278.000	722.689	80.005	19.995	103.146	19.884	5.588	0.509
1280.000	723.684	80.003	19.994	103.144	19.881	5.823	0.505
1282.000	724.683	80.003	19.996	103.147	19.882	5.762	0.499
1283.999	725.710	80.002	19.995	103.140	19.882	5.692	0.528
1286.001	726.674	80.001	19.994	103.148	19.881	5.785	0.489
1288.000	727.657	80.004	19.994	103.144	19.878	6.003	0.504
1289.999	728.662	80.004	19.995	103.128	19.880	5.895	0.512
1291.999	729.652	80.004	19.995	103.139	19.882	5.709	0.508
1293.999	730.690	80.006	19.996	103.142	19.878	6.005	0.457
1296.000	731.680	80.006	19.995	103.141	19.887	5.322	0.491
1298.001	732.668	80.006	19.995	103.140	19.883	5.671	0.510
1299.999	733.685	80.007	19.996	103.128	19.884	5.591	0.493
1302.000	734.698	80.004	19.993	103.139	19.879	5.990	0.499
1303.999	735.686	80.005	19.994	103.141	19.882	5.736	0.491
1305.999	736.709	80.004	19.996	103.143	19.881	5.823	0.513
1307.999	737.695	80.006	19.995	103.133	19.879	5.988	0.505
1309.999	738.723	80.005	19.996	103.140	19.876	6.184	0.513
1311.999	739.718	80.004	19.996	103.139	19.877	6.098	0.522
1313.999	740.717	80.004	19.995	103.140	19.878	6.028	0.514
1315.999	741.730	80.007	19.995	103.139	19.877	6.131	0.507
1317.999	742.730	80.006	19.996	103.141	19.876	6.157	0.496
1319.999	743.752	80.008	19.995	103.135	19.881	5.827	0.516
1321.999	744.714	80.009	19.995	103.128	19.876	6.178	0.503
1322.499	744.990	80.006	19.996	103.131	19.875	6.257	0.510