File: 01_Data/Pine_Lap_Siding_Wood/STA/N2/10K_min/Pine_Lap_Siding_Wood_STA_N2_10KData_220318_R3.csv
##Temp./Â°C,Time/min,Mass loss(subtr.2)/mg,DSC(subtr.2)/(mW/mg),Sensit./(uV/mW)
49.663,10.01,-0.06647,0.01962347,1.07517
50.263,10.72992,-0.0686752,0.04310465,1.07486
50.863,10.91792,-0.06856541,0.06460482,1.07455
51.463,11.0577,-0.06940127,0.08462702,1.07424
52.063,11.1765,-0.06973158,0.1006,1.07392
52.663,11.28261,-0.07187973,0.11535,1.07361
53.263,11.37894,-0.07249421,0.12401,1.0733
53.863,11.46893,-0.07207992,0.13513,1.07299
54.463,11.55454,-0.07341064,0.14525,1.07267
55.063,11.63658,-0.07167062,0.15561,1.07236
55.663,11.71578,-0.0719117,0.16444,1.07205
56.263,11.7925,-0.07262133,0.16954,1.07174
56.863,11.8672,-0.07461068,0.177,1.07143
57.463,11.9402,-0.0748354,0.18453,1.07111
58.063,12.01224,-0.07519024,0.18997,1.0708
58.663,12.083,-0.07527682,0.19391,1.07049
59.263,12.15306,-0.07648323,0.19777,1.07018
59.863,12.2216,-0.0768709,0.20181,1.06987
60.463,12.29036,-0.0762289,0.20804,1.06955
61.063,12.358,-0.07787906,0.21154,1.06924
61.663,12.42557,-0.07760986,0.21659,1.06893
62.263,12.49191,-0.07821119,0.21916,1.06862
62.863,12.5578,-0.0780768,0.22242,1.06831
63.463,12.6237,-0.07811216,0.2257,1.068
64.063,12.68934,-0.07739514,0.22781,1.06768
64.663,12.75502,-0.07799855,0.23299,1.06737
65.263,12.8202,-0.07931016,0.23409,1.06706
65.863,12.88539,-0.07961864,0.2374,1.06675
66.463,12.95043,-0.07931629,0.23978,1.06644
67.063,13.01517,-0.08090313,0.24537,1.06613
67.663,13.07987,-0.08063225,0.24869,1.06582
68.263,13.1443,-0.08193727,0.25021,1.0655
68.863,13.20876,-0.08325131,0.25358,1.06519
69.463,13.2732,-0.08326788,0.25549,1.06488
70.063,13.3374,-0.08325976,0.2576,1.06457
70.663,13.40165,-0.08460765,0.26171,1.06426
71.263,13.46558,-0.08420602,0.26476,1.06395
71.863,13.5295,-0.08457819,0.26657,1.06364
72.463,13.5929,-0.08588651,0.26928,1.06333
73.063,13.65615,-0.08720906,0.27055,1.06302
73.663,13.7195,-0.08589041,0.27359,1.06271
74.263,13.7829,-0.0872099,0.27311,1.0624
74.863,13.84619,-0.08585119,0.27638,1.06209
75.463,13.90934,-0.08720574,0.27775,1.06178
76.063,13.9727,-0.08852639,0.27974,1.06147
76.663,14.0362,-0.08851118,0.28114,1.06116
77.263,14.09946,-0.08852918,0.2837,1.06085
77.863,14.162,-0.0885285,0.2851,1.06054
78.463,14.22434,-0.0894426,0.28727,1.06023
79.063,14.28665,-0.0897216,0.28525,1.05992
79.663,14.34888,-0.09104935,0.28797,1.05961
80.263,14.4112,-0.09236408,0.28992,1.0593
80.863,14.47323,-0.092508,0.29172,1.05899
81.463,14.53505,-0.09368025,0.29012,1.05868
82.063,14.59663,-0.09369366,0.29249,1.05837
82.663,14.65795,-0.0950015,0.29375,1.05806
83.263,14.7193,-0.095,0.29651,1.05775
83.863,14.78072,-0.09500171,0.29269,1.05744
84.463,14.84208,-0.09631299,0.29713,1.05713
85.063,14.9032,-0.09729463,0.29601,1.05682
85.663,14.9639,-0.09631085,0.29481,1.05651
86.263,15.02436,-0.09766933,0.29418,1.0562
86.863,15.08508,-0.09762002,0.29609,1.05589
87.463,15.1458,-0.09762,0.29483,1.05558
88.063,15.20686,-0.09761952,0.29206,1.05527
88.663,15.26745,-0.09892759,0.29407,1.05496
89.263,15.3279,-0.10028,0.2923,1.05465
89.863,15.3882,-0.10027,0.29283,1.05434
90.463,15.44847,-0.10027,0.29097,1.05404
91.063,15.50875,-0.10026,0.28951,1.05373
91.663,15.56874,-0.1015,0.28671,1.05342
92.263,15.62855,-0.10015,0.28678,1.05311
92.863,15.6884,-0.10015,0.28815,1.0528
93.463,15.74802,-0.10147,0.28388,1.05249
94.063,15.80764,-0.10281,0.28493,1.05218
94.663,15.8671,-0.10408,0.28183,1.05188
95.263,15.9265,-0.1041,0.28044,1.05157
95.863,15.98603,-0.1054,0.27926,1.05126
96.463,16.0454,-0.10542,0.27959,1.05095
97.063,16.10465,-0.10446,0.27502,1.05064
97.663,16.16405,-0.10443,0.27307,1.05033
98.263,16.22339,-0.10542,0.27227,1.05002
98.863,16.28245,-0.10573,0.26979,1.04972
99.463,16.34153,-0.1067,0.2692,1.04941
100.063,16.40032,-0.10673,0.26771,1.0491
100.663,16.4591,-0.10704,0.26711,1.04879
101.263,16.518,-0.10677,0.26646,1.04848
101.863,16.5767,-0.10673,0.26185,1.04818
102.463,16.63557,-0.10681,0.26304,1.04787
103.063,16.6947,-0.10804,0.26237,1.04756
103.663,16.75376,-0.10804,0.26077,1.04725
104.263,16.81271,-0.10805,0.26144,1.04695
104.863,16.87143,-0.10936,0.25976,1.04664
105.463,16.93028,-0.10805,0.2583,1.04633
106.063,16.98922,-0.10805,0.25614,1.04602
106.663,17.04805,-0.10937,0.25533,1.04572
107.263,17.1067,-0.10937,0.25702,1.04541
107.863,17.16532,-0.10937,0.25675,1.0451
108.463,17.22371,-0.10943,0.25387,1.04479
109.063,17.28225,-0.10932,0.25331,1.04449
109.663,17.34096,-0.11068,0.24967,1.04418
110.263,17.39966,-0.11068,0.25155,1.04387
110.863,17.45867,-0.11065,0.24994,1.04357
111.463,17.51744,-0.11067,0.24943,1.04326
112.063,17.57604,-0.11067,0.24817,1.04295
112.663,17.6349,-0.11136,0.24817,1.04264
113.263,17.69398,-0.11034,0.25044,1.04234
113.863,17.7529,-0.11071,0.24775,1.04203
114.463,17.81168,-0.11068,0.24948,1.04172
115.063,17.8702,-0.11101,0.25033,1.04142
115.663,17.9286,-0.11206,0.24842,1.04111
116.263,17.98715,-0.11068,0.24971,1.0408
116.863,18.04578,-0.11162,0.2488,1.0405
117.463,18.10429,-0.11199,0.25054,1.04019
118.063,18.16296,-0.11199,0.24873,1.03989
118.663,18.2216,-0.11199,0.24999,1.03958
119.263,18.28025,-0.11332,0.24921,1.03927
119.863,18.33896,-0.11331,0.25132,1.03897
120.463,18.39741,-0.11463,0.24987,1.03866
121.063,18.45549,-0.11415,0.25069,1.03835
121.663,18.5141,-0.11495,0.25175,1.03805
122.263,18.57264,-0.11492,0.25001,1.03774
122.863,18.63162,-0.11596,0.25279,1.03744
123.463,18.6902,-0.11595,0.25176,1.03713
124.063,18.7486,-0.11463,0.25259,1.03682
124.663,18.8072,-0.11463,0.25272,1.03652
125.263,18.8655,-0.11463,0.25216,1.03621
125.863,18.92385,-0.11463,0.25245,1.03591
126.463,18.98222,-0.11467,0.25378,1.0356
127.063,19.04055,-0.11333,0.25345,1.0353
127.663,19.099,-0.11462,0.25503,1.03499
128.263,19.15718,-0.11594,0.25501,1.03468
128.863,19.21539,-0.11599,0.25745,1.03438
129.463,19.27381,-0.11604,0.25789,1.03407
130.063,19.33234,-0.11539,0.25602,1.03377
130.663,19.39079,-0.11565,0.25922,1.03346
131.263,19.44888,-0.12165,0.25867,1.03316
131.863,19.5072,-0.12582,0.25981,1.03285
132.463,19.5654,-0.1249,0.26028,1.03255
133.063,19.62351,-0.12207,0.26057,1.03224
133.663,19.68159,-0.12117,0.26106,1.03194
134.263,19.73958,-0.12043,0.26164,1.03163
134.863,19.7977,-0.11912,0.26078,1.03133
135.463,19.8558,-0.11913,0.25992,1.03102
136.063,19.91375,-0.11909,0.26117,1.03072
136.663,19.97179,-0.11781,0.26409,1.03041
137.263,20.0298,-0.11575,0.26138,1.03011
137.863,20.08785,-0.11187,0.26188,1.0298
138.463,20.14603,-0.11035,0.26206,1.0295
139.063,20.20422,-0.11172,0.26225,1.02919
139.663,20.26205,-0.11298,0.26506,1.02889
140.263,20.3199,-0.11528,0.26502,1.02858
140.863,20.37792,-0.11528,0.26539,1.02828
141.463,20.43595,-0.11525,0.26742,1.02797
142.063,20.49382,-0.11561,0.26744,1.02767
142.663,20.55172,-0.11561,0.26674,1.02736
143.263,20.60952,-0.11561,0.26707,1.02706
143.863,20.6672,-0.1163,0.26907,1.02676
144.463,20.72501,-0.11754,0.26715,1.02645
145.063,20.7827,-0.11956,0.26854,1.02615
145.663,20.84038,-0.11957,0.27065,1.02584
146.263,20.89844,-0.11953,0.27159,1.02554
146.863,20.95634,-0.12087,0.27304,1.02523
147.463,21.01405,-0.12224,0.27411,1.02493
148.063,21.07163,-0.12088,0.27494,1.02463
148.663,21.12908,-0.11949,0.27436,1.02432
149.263,21.18692,-0.11751,0.27569,1.02402
149.863,21.24447,-0.11668,0.27353,1.02371
150.463,21.30225,-0.11628,0.2763,1.02341
151.063,21.35955,-0.11661,0.27525,1.02311
151.663,21.41675,-0.11523,0.27667,1.0228
152.263,21.4744,-0.11343,0.27573,1.0225
152.863,21.532,-0.11077,0.27754,1.02219
153.463,21.59029,-0.11079,0.27781,1.02189
154.063,21.64795,-0.11127,0.28012,1.02159
154.663,21.70574,-0.11321,0.28126,1.02128
155.263,21.76339,-0.11435,0.28111,1.02098
155.863,21.82096,-0.11547,0.28332,1.02068
156.463,21.8783,-0.11737,0.28415,1.02037
157.063,21.9356,-0.11727,0.28575,1.02007
157.663,21.9927,-0.11869,0.28771,1.01976
158.263,22.04999,-0.11869,0.28679,1.01946
158.863,22.1074,-0.11864,0.28934,1.01916
159.463,22.1648,-0.12001,0.29061,1.01885
160.063,22.22257,-0.12001,0.28942,1.01855
160.663,22.27992,-0.12132,0.29193,1.01825
161.263,22.3374,-0.12132,0.28985,1.01794
161.863,22.39505,-0.12132,0.2921,1.01764
162.463,22.45249,-0.12132,0.29208,1.01734
163.063,22.51002,-0.12099,0.29192,1.01703
163.663,22.56719,-0.12099,0.29252,1.01673
164.263,22.62453,-0.11981,0.29247,1.01643
164.863,22.68202,-0.12132,0.29314,1.01612
165.463,22.73948,-0.12132,0.29351,1.01582
166.063,22.79707,-0.12261,0.29585,1.01552
166.663,22.8545,-0.12263,0.29349,1.01522
167.263,22.912,-0.12263,0.29704,1.01491
167.863,22.96953,-0.12262,0.29636,1.01461
168.463,23.02701,-0.12198,0.29683,1.01431
169.063,23.0844,-0.12198,0.29741,1.014
169.663,23.14174,-0.12435,0.30007,1.0137
170.263,23.1993,-0.12429,0.2992,1.0134
170.863,23.2567,-0.1256,0.30148,1.01309
171.463,23.31409,-0.1256,0.29866,1.01279
172.063,23.37151,-0.1245,0.30138,1.01249
172.663,23.4289,-0.12428,0.30145,1.01219
173.263,23.48641,-0.12428,0.30152,1.01188
173.863,23.54402,-0.12428,0.30349,1.01158
174.463,23.60153,-0.12428,0.30439,1.01128
175.063,23.65881,-0.12425,0.30262,1.01097
175.663,23.71621,-0.12559,0.30547,1.01067
176.263,23.77338,-0.12559,0.30625,1.01037
176.863,23.83074,-0.12559,0.30827,1.01007
177.463,23.88825,-0.12559,0.30722,1.00976
178.063,23.94575,-0.12692,0.30824,1.00946
178.663,24.00339,-0.12691,0.30753,1.00916
179.263,24.06093,-0.12691,0.30905,1.00886
179.863,24.1184,-0.12713,0.30908,1.00855
180.463,24.17612,-0.12692,0.30873,1.00825
181.063,24.23343,-0.12554,0.31161,1.00795
181.663,24.29092,-0.12797,0.31085,1.00765
182.263,24.3482,-0.12823,0.31241,1.00734
182.863,24.40551,-0.12823,0.31423,1.00704
183.463,24.46283,-0.1281,0.31415,1.00674
184.063,24.5203,-0.12692,0.31444,1.00644
184.663,24.57787,-0.12694,0.31469,1.00613
185.263,24.63545,-0.1269,0.31669,1.00583
185.863,24.6929,-0.12691,0.31541,1.00553
186.463,24.75044,-0.12691,0.31658,1.00523
187.063,24.8078,-0.12685,0.31582,1.00492
187.663,24.86528,-0.12757,0.31907,1.00462
188.263,24.92274,-0.12758,0.31733,1.00432
188.863,24.98003,-0.12823,0.31915,1.00402
189.463,25.03728,-0.12953,0.31992,1.00371
190.063,25.09485,-0.12955,0.32059,1.00341
190.663,25.15237,-0.12955,0.32128,1.00311
191.263,25.2102,-0.13086,0.32289,1.00281
191.863,25.26775,-0.12956,0.32388,1.0025
192.463,25.3251,-0.12954,0.3217,1.0022
193.063,25.3823,-0.13033,0.32396,1.0019
193.663,25.4395,-0.13053,0.32546,1.0016
194.263,25.49664,-0.12922,0.32691,1.00129
194.863,25.55369,-0.12992,0.32396,1.00099
195.463,25.61085,-0.13053,0.32831,1.00069
196.063,25.6681,-0.13053,0.32611,1.00039
196.663,25.72541,-0.13071,0.32851,1.00009
197.263,25.78265,-0.13223,0.328,0.99978
197.863,25.8399,-0.13218,0.3289,0.99948
198.463,25.897,-0.13348,0.33001,0.99918
199.063,25.95447,-0.13345,0.32908,0.99888
199.663,26.01174,-0.13348,0.33137,0.99857
200.263,26.06897,-0.13258,0.33289,0.99827
200.863,26.1263,-0.13251,0.33231,0.99797
201.463,26.18346,-0.13251,0.33457,0.99767
202.063,26.2408,-0.13514,0.33411,0.99737
202.663,26.2981,-0.13514,0.33669,0.99706
203.263,26.3555,-0.13514,0.33485,0.99676
203.863,26.41212,-0.13514,0.33764,0.99646
204.463,26.46915,-0.13514,0.33718,0.99616
205.063,26.5264,-0.13514,0.33951,0.99585
205.663,26.58395,-0.13548,0.34189,0.99555
206.263,26.64215,-0.13646,0.3411,0.99525
206.863,26.69939,-0.13777,0.34199,0.99495
207.463,26.75672,-0.13739,0.34247,0.99464
208.063,26.81397,-0.13646,0.34238,0.99434
208.663,26.87107,-0.13646,0.34498,0.99404
209.263,26.92807,-0.13776,0.34611,0.99374
209.863,26.98521,-0.13777,0.34884,0.99344
210.463,27.0423,-0.1381,0.34855,0.99313
211.063,27.09941,-0.13843,0.34946,0.99283
211.663,27.1565,-0.13854,0.35174,0.99253
212.263,27.2135,-0.14131,0.3506,0.99223
212.863,27.27044,-0.14006,0.35405,0.99192
213.463,27.3275,-0.13908,0.35361,0.99162
214.063,27.38443,-0.13908,0.35455,0.99132
214.663,27.4414,-0.1404,0.35386,0.99102
215.263,27.49833,-0.14175,0.3548,0.99071
215.863,27.5555,-0.1419,0.35733,0.99041
216.463,27.6126,-0.14205,0.35875,0.99011
217.063,27.6697,-0.14269,0.36024,0.98981
217.663,27.72673,-0.14304,0.35982,0.9895
218.263,27.78383,-0.14304,0.36077,0.9892
218.863,27.84099,-0.14304,0.36198,0.9889
219.463,27.8982,-0.14304,0.36163,0.9886
220.063,27.9553,-0.14304,0.36307,0.98829
220.663,28.01227,-0.14444,0.36404,0.98799
221.263,28.06912,-0.14462,0.36453,0.98769
221.863,28.1261,-0.14568,0.36568,0.98739
222.463,28.1832,-0.14698,0.36514,0.98708
223.063,28.24032,-0.14698,0.36913,0.98678
223.663,28.29747,-0.14686,0.36894,0.98648
224.263,28.3546,-0.14666,0.36928,0.98618
224.863,28.41187,-0.1475,0.36983,0.98587
225.463,28.46895,-0.14961,0.37192,0.98557
226.063,28.526,-0.14961,0.3727,0.98527
226.663,28.58312,-0.14987,0.37416,0.98497
227.263,28.6401,-0.15093,0.37747,0.98466
227.863,28.6972,-0.15093,0.37673,0.98436
228.463,28.75425,-0.15016,0.37923,0.98406
229.063,28.81145,-0.15159,0.37936,0.98375
229.663,28.8685,-0.15181,0.37987,0.98345
230.263,28.92571,-0.15291,0.3798,0.98315
230.863,28.98285,-0.15387,0.38436,0.98285
231.463,29.03981,-0.15521,0.38233,0.98254
232.063,29.0971,-0.15427,0.38471,0.98224
232.663,29.1545,-0.15524,0.3839,0.98194
233.263,29.21214,-0.15667,0.38609,0.98163
233.863,29.2694,-0.15685,0.38492,0.98133
234.463,29.32654,-0.15814,0.38468,0.98103
235.063,29.38359,-0.15887,0.38648,0.98072
235.663,29.44026,-0.15949,0.38811,0.98042
236.263,29.4971,-0.16021,0.38877,0.98012
236.863,29.55382,-0.16212,0.38901,0.97982
237.463,29.6106,-0.16211,0.3921,0.97951
238.063,29.6679,-0.16345,0.39231,0.97921
238.663,29.7252,-0.16338,0.39385,0.97891
239.263,29.783,-0.16475,0.39334,0.9786
239.863,29.8408,-0.1668,0.3965,0.9783
240.463,29.8986,-0.16739,0.3975,0.978
241.063,29.9561,-0.16797,0.39831,0.97769
241.663,30.01333,-0.1687,0.39925,0.97739
242.263,30.0704,-0.16907,0.39936,0.97709
242.863,30.12755,-0.17021,0.40178,0.97678
243.463,30.1847,-0.17266,0.40406,0.97648
244.063,30.242,-0.17378,0.40346,0.97617
244.663,30.29925,-0.17397,0.40691,0.97587
245.263,30.3565,-0.1753,0.40684,0.97557
245.863,30.41367,-0.1766,0.40781,0.97526
246.463,30.47086,-0.1789,0.40707,0.97496
247.063,30.5281,-0.18054,0.40858,0.97466
247.663,30.58532,-0.18177,0.41057,0.97435
248.263,30.64211,-0.18314,0.41009,0.97405
248.863,30.69913,-0.1854,0.41099,0.97374
249.463,30.75615,-0.1864,0.40984,0.97344
250.063,30.8136,-0.18781,0.41183,0.97314
250.663,30.87081,-0.18845,0.41237,0.97283
251.263,30.928,-0.18979,0.41243,0.97253
251.863,30.9852,-0.19064,0.41223,0.97222
252.463,31.0424,-0.19248,0.40994,0.97192
253.063,31.0995,-0.19372,0.41246,0.97161
253.663,31.1568,-0.1964,0.41289,0.97131
254.263,31.21428,-0.20019,0.41437,0.97101
254.863,31.2716,-0.20187,0.41397,0.9707
255.463,31.32922,-0.20316,0.41357,0.9704
256.063,31.3864,-0.20604,0.41558,0.97009
256.663,31.4437,-0.20754,0.41648,0.96979
257.263,31.5007,-0.20933,0.41604,0.96948
257.863,31.5579,-0.2102,0.41506,0.96918
258.463,31.61523,-0.21241,0.41661,0.96887
259.063,31.67261,-0.21541,0.41631,0.96857
259.663,31.73012,-0.21709,0.41634,0.96826
260.263,31.7875,-0.22019,0.41491,0.96796
260.863,31.84507,-0.22135,0.4171,0.96765
261.463,31.9024,-0.2244,0.41595,0.96735
262.063,31.9598,-0.22693,0.41785,0.96704
262.663,32.01728,-0.23003,0.41656,0.96674
263.263,32.07479,-0.23255,0.41831,0.96643
263.863,32.13232,-0.23534,0.41696,0.96613
264.463,32.1899,-0.23945,0.41879,0.96582
265.063,32.2476,-0.24075,0.41946,0.96552
265.663,32.30523,-0.24376,0.41959,0.96521
266.263,32.3628,-0.24807,0.42104,0.96491
266.863,32.42028,-0.25126,0.41993,0.9646
267.463,32.47793,-0.25316,0.42135,0.96429
268.063,32.53539,-0.25647,0.4207,0.96399
268.663,32.59313,-0.25896,0.42173,0.96368
269.263,32.65063,-0.26213,0.42526,0.96338
269.863,32.70802,-0.26623,0.42405,0.96307
270.463,32.76556,-0.26964,0.42332,0.96276
271.063,32.82278,-0.27281,0.4227,0.96246
271.663,32.8803,-0.27676,0.42626,0.96215
272.263,32.93781,-0.27821,0.42567,0.96185
272.863,32.99516,-0.28243,0.42609,0.96154
273.463,33.0526,-0.28586,0.42603,0.96123
274.063,33.11005,-0.28913,0.42757,0.96093
274.663,33.16738,-0.29359,0.42538,0.96062
275.263,33.22423,-0.29733,0.42971,0.96031
275.863,33.2813,-0.30138,0.43055,0.96001
276.463,33.3386,-0.30487,0.42956,0.9597
277.063,33.39612,-0.30893,0.43045,0.95939
277.663,33.4539,-0.31368,0.43308,0.95909
278.263,33.51142,-0.31804,0.43164,0.95878
278.863,33.56889,-0.32182,0.43006,0.95847
279.463,33.62637,-0.32674,0.43446,0.95817
280.063,33.68376,-0.33042,0.43479,0.95786
280.663,33.74112,-0.33446,0.43626,0.95755
281.263,33.7984,-0.33842,0.43803,0.95724
281.863,33.85562,-0.34177,0.43788,0.95694
282.463,33.91292,-0.34606,0.43966,0.95663
283.063,33.97019,-0.35278,0.43851,0.95632
283.663,34.0276,-0.35838,0.43889,0.95601
284.263,34.08517,-0.36313,0.43627,0.9557
284.863,34.1426,-0.36978,0.43916,0.9554
285.463,34.19998,-0.37447,0.44162,0.95509
286.063,34.25716,-0.37928,0.44013,0.95478
286.663,34.31451,-0.38398,0.44261,0.95447
287.263,34.37184,-0.38998,0.44109,0.95416
287.863,34.42933,-0.39557,0.44193,0.95386
288.463,34.48682,-0.40176,0.44181,0.95355
289.063,34.5443,-0.40675,0.44598,0.95324
289.663,34.60174,-0.4126,0.44502,0.95293
290.263,34.65909,-0.41902,0.44658,0.95262
290.863,34.71646,-0.42463,0.44973,0.95231
291.463,34.77385,-0.43047,0.45106,0.952
292.063,34.83133,-0.43897,0.45061,0.9517
292.663,34.88875,-0.44354,0.45425,0.95139
293.263,34.94625,-0.44987,0.4559,0.95108
293.863,35.00369,-0.4571,0.45624,0.95077
294.463,35.06103,-0.46374,0.45663,0.95046
295.063,35.11825,-0.47047,0.45954,0.95015
295.663,35.1755,-0.47648,0.46303,0.94984
296.263,35.2327,-0.48329,0.46419,0.94953
296.863,35.29005,-0.49053,0.46797,0.94922
297.463,35.3474,-0.49781,0.47126,0.94891
298.063,35.4047,-0.50627,0.47007,0.9486
298.663,35.46205,-0.51411,0.47279,0.94829
299.263,35.51951,-0.52379,0.47508,0.94798
299.863,35.57707,-0.53043,0.47791,0.94767
300.463,35.63462,-0.53732,0.48048,0.94736
301.063,35.69212,-0.54635,0.48283,0.94705
301.663,35.74962,-0.55169,0.48274,0.94674
302.263,35.80722,-0.55979,0.48861,0.94643
302.863,35.86481,-0.5689,0.49006,0.94612
303.463,35.92241,-0.57881,0.49378,0.94581
304.063,35.97991,-0.58758,0.4973,0.94549
304.663,36.03735,-0.59707,0.49923,0.94518
305.263,36.09487,-0.6067,0.50224,0.94487
305.863,36.15238,-0.61504,0.50398,0.94456
306.463,36.20994,-0.6262,0.50753,0.94425
307.063,36.26775,-0.63541,0.51167,0.94394
307.663,36.32543,-0.64371,0.51571,0.94363
308.263,36.3832,-0.65218,0.51772,0.94331
308.863,36.4408,-0.66174,0.52206,0.943
309.463,36.49836,-0.67118,0.52657,0.94269
310.063,36.55591,-0.68239,0.52884,0.94238
310.663,36.61347,-0.69259,0.53203,0.94207
311.263,36.67099,-0.70358,0.53504,0.94175
311.863,36.72876,-0.71566,0.53909,0.94144
312.463,36.7865,-0.72618,0.54258,0.94113
313.063,36.8444,-0.73874,0.54613,0.94082
313.663,36.9024,-0.75072,0.54625,0.9405
314.263,36.96024,-0.7638,0.55148,0.94019
314.863,37.01807,-0.77475,0.55788,0.93988
315.463,37.07573,-0.7864,0.55952,0.93956
316.063,37.13342,-0.79837,0.56448,0.93925
316.663,37.1912,-0.80934,0.5697,0.93894
317.263,37.24915,-0.82124,0.57287,0.93862
317.863,37.3069,-0.83437,0.57737,0.93831
318.463,37.3646,-0.84633,0.58129,0.938
319.063,37.42214,-0.85913,0.58369,0.93768
319.663,37.47975,-0.87328,0.58903,0.93737
320.263,37.53731,-0.88611,0.59144,0.93705
320.863,37.59499,-0.8994,0.59537,0.93674
321.463,37.6526,-0.91208,0.59953,0.93643
322.063,37.7102,-0.92579,0.60189,0.93611
322.663,37.7678,-0.93993,0.60444,0.9358
323.263,37.8254,-0.95327,0.60796,0.93548
323.863,37.8831,-0.96798,0.61469,0.93517
324.463,37.94088,-0.98066,0.61681,0.93485
325.063,37.99868,-0.99585,0.61946,0.93454
325.663,38.05638,-1.00845,0.62252,0.93422
326.263,38.1139,-1.02343,0.62353,0.93391
326.863,38.17145,-1.03851,0.62654,0.93359
327.463,38.2292,-1.0524,0.63104,0.93327
328.063,38.28683,-1.06929,0.63432,0.93296
328.663,38.3446,-1.08423,0.63434,0.93264
329.263,38.40201,-1.10023,0.63597,0.93233
329.863,38.45963,-1.11498,0.63875,0.93201
330.463,38.5174,-1.13239,0.6421,0.93169
331.063,38.5756,-1.14645,0.644,0.93138
331.663,38.6336,-1.16203,0.64734,0.93106
332.263,38.69141,-1.17737,0.64842,0.93074
332.863,38.74926,-1.19174,0.64982,0.93043
333.463,38.80703,-1.20756,0.65388,0.93011
334.063,38.86508,-1.22294,0.654,0.92979
334.663,38.92282,-1.24046,0.65686,0.92947
335.263,38.981,-1.2556,0.6583,0.92916
335.863,39.0392,-1.27265,0.65764,0.92884
336.463,39.0973,-1.28875,0.66022,0.92852
337.063,39.15531,-1.30527,0.66422,0.9282
337.663,39.2128,-1.32175,0.66499,0.92789
338.263,39.2703,-1.3363,0.6702,0.92757
338.863,39.32821,-1.35324,0.67088,0.92725
339.463,39.38677,-1.37146,0.67342,0.92693
340.063,39.44534,-1.38782,0.67684,0.92661
340.663,39.5037,-1.40532,0.67976,0.92629
341.263,39.5617,-1.42244,0.68192,0.92597
341.863,39.61949,-1.43827,0.68721,0.92565
342.463,39.6772,-1.45663,0.68912,0.92533
343.063,39.73496,-1.47291,0.69581,0.92501
343.663,39.79292,-1.49117,0.69786,0.9247
344.263,39.85105,-1.50845,0.70352,0.92438
344.863,39.90913,-1.52631,0.70891,0.92406
345.463,39.96705,-1.54469,0.71301,0.92374
346.063,40.02499,-1.56006,0.7207,0.92341
346.663,40.08297,-1.57909,0.72603,0.92309
347.263,40.14105,-1.59788,0.73364,0.92277
347.863,40.19903,-1.61754,0.74158,0.92245
348.463,40.25708,-1.63493,0.74617,0.92213
349.063,40.31515,-1.65516,0.75414,0.92181
349.663,40.37341,-1.67348,0.76258,0.92149
350.263,40.4317,-1.69323,0.77209,0.92117
350.863,40.48992,-1.71285,0.77718,0.92085
351.463,40.5482,-1.73278,0.78718,0.92052
352.063,40.60627,-1.7541,0.79849,0.9202
352.663,40.66437,-1.77427,0.80803,0.91988
353.263,40.7224,-1.79569,0.81898,0.91956
353.863,40.78069,-1.81422,0.82999,0.91924
354.463,40.83916,-1.83738,0.83984,0.91891
355.063,40.89777,-1.85845,0.85086,0.91859
355.663,40.95627,-1.88297,0.86016,0.91827
356.263,41.0145,-1.90579,0.87438,0.91794
356.863,41.07287,-1.92661,0.88675,0.91762
357.463,41.1313,-1.94942,0.89732,0.9173
358.063,41.1892,-1.97376,0.90851,0.91697
358.663,41.24759,-1.99852,0.91897,0.91665
359.263,41.30591,-2.02262,0.929,0.91633
359.863,41.36432,-2.04778,0.9406,0.916
360.463,41.42289,-2.06935,0.94894,0.91568
361.063,41.48134,-2.09646,0.96091,0.91535
361.663,41.53976,-2.12101,0.96921,0.91503
362.263,41.59841,-2.148,0.98088,0.9147
362.863,41.6569,-2.17498,0.98765,0.91438
363.463,41.71544,-2.20129,0.99689,0.91405
364.063,41.7738,-2.22749,1.0029,0.91373
364.663,41.83177,-2.25341,1.00697,0.9134
365.263,41.8895,-2.28108,1.00974,0.91308
365.863,41.9473,-2.30664,1.01337,0.91275
366.463,42.00544,-2.33464,1.01629,0.91243
367.063,42.0638,-2.36042,1.01433,0.9121
367.663,42.12235,-2.38985,1.01223,0.91177
368.263,42.18063,-2.41701,1.0098,0.91145
368.863,42.23903,-2.44445,1.0018,0.91112
369.463,42.29759,-2.47072,0.99327,0.91079
370.063,42.3564,-2.49707,0.98193,0.91047
370.663,42.4154,-2.52352,0.96905,0.91014
371.263,42.47415,-2.54938,0.95496,0.90981
371.863,42.5325,-2.57375,0.93676,0.90948
372.463,42.59095,-2.59983,0.91872,0.90916
373.063,42.6492,-2.62355,0.89595,0.90883
373.663,42.70756,-2.64759,0.87255,0.9085
374.263,42.76615,-2.67165,0.84542,0.90817
374.863,42.82447,-2.69459,0.81758,0.90784
375.463,42.88281,-2.71833,0.78458,0.90751
376.063,42.94108,-2.739,0.75588,0.90718
376.663,42.9993,-2.76055,0.72194,0.90685
377.263,43.05755,-2.77903,0.68638,0.90652
377.863,43.11577,-2.7978,0.65148,0.9062
378.463,43.1738,-2.81437,0.61564,0.90587
379.063,43.23193,-2.82998,0.57735,0.90554
379.663,43.28998,-2.84526,0.5386,0.9052
380.263,43.34786,-2.86011,0.5026,0.90487
380.863,43.4059,-2.87254,0.46576,0.90454
381.463,43.46378,-2.88506,0.42883,0.90421
382.063,43.52155,-2.89821,0.39357,0.90388
382.663,43.57962,-2.9074,0.35825,0.90355
383.263,43.6374,-2.91768,0.32627,0.90322
383.863,43.6952,-2.92592,0.29292,0.90289
384.463,43.75318,-2.93377,0.2641,0.90256
385.063,43.811,-2.94217,0.2374,0.90222
385.663,43.86911,-2.94696,0.20932,0.90189
386.263,43.92694,-2.95374,0.18543,0.90156
386.863,43.98492,-2.95963,0.16471,0.90123
387.463,44.043,-2.96644,0.14635,0.90089
388.063,44.10107,-2.97046,0.12979,0.90056
388.663,44.15913,-2.97592,0.1116,0.90023
389.263,44.217,-2.97917,0.09750802,0.89989
389.863,44.2751,-2.98196,0.08926214,0.89956
390.463,44.3329,-2.98452,0.07723513,0.89923
391.063,44.3911,-2.98682,0.07009672,0.89889
391.663,44.44914,-2.98963,0.06000185,0.89856
392.263,44.50732,-2.99176,0.05680655,0.89822
392.863,44.56576,-2.99369,0.05352585,0.89789
393.463,44.62409,-2.99604,0.04664018,0.89755
394.063,44.68258,-2.99886,0.04338528,0.89722
394.663,44.74091,-2.99959,0.04235802,0.89688
395.263,44.79943,-3.00229,0.04122695,0.89655
395.863,44.85778,-3.00355,0.03726755,0.89621
396.463,44.9163,-3.00563,0.03461734,0.89588
397.063,44.97488,-3.00658,0.03501347,0.89554
397.663,45.03337,-3.00955,0.03289991,0.8952
398.263,45.09186,-3.01315,0.03027886,0.89487
398.863,45.15031,-3.01506,0.0305814,0.89453
399.463,45.20872,-3.01753,0.02522039,0.89419
400.063,45.26722,-3.02037,0.02654055,0.89386
400.663,45.3258,-3.02163,0.02593547,0.89352
401.263,45.38445,-3.02368,0.02378477,0.89318
401.863,45.44295,-3.02436,0.02364647,0.89284
402.463,45.50158,-3.02617,0.02281655,0.8925
403.063,45.5595,-3.02796,0.01998955,0.89217
403.663,45.6182,-3.02978,0.01825293,0.89183
404.263,45.677,-3.03098,0.01374639,0.89149
404.863,45.73588,-3.03271,0.01338906,0.89115
405.463,45.79473,-3.03535,0.01291948,0.89081
406.063,45.85327,-3.03652,0.00916668,0.89047
406.663,45.91193,-3.03773,0.01029562,0.89013
407.263,45.9708,-3.03951,0.0071639,0.88979
407.863,46.02946,-3.04216,0.007311818,0.88945
408.463,46.088,-3.04368,0.007768211,0.88911
409.063,46.1464,-3.04359,0.006186604,0.88877
409.663,46.2049,-3.04629,0.002013696,0.88843
410.263,46.26347,-3.04929,0.00154799,0.88809
410.863,46.32235,-3.05069,0.001094729,0.88775
411.463,46.381,-3.05324,-0.0002205021,0.8874
412.063,46.4396,-3.05421,0.00269337,0.88706
412.663,46.49816,-3.0557,0.0002017916,0.88672
413.263,46.5567,-3.05736,-0.00348455,0.88638
413.863,46.6155,-3.05879,-0.004328255,0.88604
414.463,46.67445,-3.06129,-0.00555895,0.88569
415.063,46.7333,-3.06404,-0.007043076,0.88535
415.663,46.79202,-3.06536,-0.00688795,0.88501
416.263,46.85047,-3.06599,-0.009386548,0.88466
416.863,46.90912,-3.0679,-0.01407753,0.88432
417.463,46.9679,-3.06792,-0.01271461,0.88398
418.063,47.0269,-3.06919,-0.01399612,0.88363
418.663,47.08586,-3.07185,-0.01463964,0.88329
419.263,47.14437,-3.07346,-0.01653421,0.88294
419.863,47.20267,-3.07602,-0.01759406,0.8826
420.463,47.2611,-3.07761,-0.01942468,0.88225
421.063,47.31966,-3.07952,-0.02174133,0.88191
421.663,47.37879,-3.08053,-0.02244687,0.88156
422.263,47.43786,-3.08187,-0.02353033,0.88122
422.863,47.49682,-3.08317,-0.02479305,0.88087
423.463,47.5558,-3.08504,-0.02553136,0.88052
424.063,47.61485,-3.08705,-0.03014211,0.88018
424.663,47.674,-3.08857,-0.0304291,0.87983
425.263,47.73337,-3.0899,-0.03002794,0.87948
425.863,47.79272,-3.09259,-0.03054245,0.87914
426.463,47.85171,-3.09388,-0.03137509,0.87879
427.063,47.91081,-3.09588,-0.03130547,0.87844
427.663,47.96979,-3.09577,-0.03437753,0.87809
428.263,48.0289,-3.098,-0.03301802,0.87774
428.863,48.08802,-3.10055,-0.03555987,0.8774
429.463,48.14696,-3.1024,-0.03766182,0.87705
430.063,48.20583,-3.10423,-0.03739711,0.8767
430.663,48.26457,-3.1066,-0.03791385,0.87635
431.263,48.3236,-3.10813,-0.03887876,0.876
431.863,48.38273,-3.11024,-0.04098112,0.87565
432.463,48.4418,-3.11146,-0.03941138,0.8753
433.063,48.5008,-3.1122,-0.03983617,0.87495
433.663,48.55965,-3.11421,-0.03895766,0.8746
434.263,48.6185,-3.11498,-0.04053248,0.87425
434.863,48.67739,-3.11631,-0.03920318,0.8739
435.463,48.73638,-3.11763,-0.04062372,0.87354
436.063,48.79504,-3.11894,-0.03834307,0.87319
436.663,48.8541,-3.12028,-0.03997777,0.87284
437.263,48.91312,-3.12263,-0.03916322,0.87249
437.863,48.97209,-3.12533,-0.03825639,0.87214
438.463,49.03131,-3.1266,-0.04030987,0.87178
439.063,49.0904,-3.12691,-0.04061987,0.87143
439.663,49.1494,-3.12789,-0.03946413,0.87108
440.263,49.20857,-3.13066,-0.03980917,0.87073
440.863,49.2675,-3.13196,-0.03924089,0.87037
441.463,49.3264,-3.13336,-0.0387842,0.87002
442.063,49.38524,-3.13481,-0.03505099,0.86966
442.663,49.444,-3.13707,-0.03865779,0.86931
443.263,49.503,-3.13832,-0.03383844,0.86895
443.863,49.562,-3.13962,-0.03496332,0.8686
444.463,49.62099,-3.14097,-0.03629481,0.86824
445.063,49.68002,-3.14262,-0.03126019,0.86789
445.663,49.7389,-3.14372,-0.03407239,0.86753
446.263,49.79776,-3.14498,-0.03160627,0.86718
446.863,49.85669,-3.14674,-0.02794168,0.86682
447.463,49.9156,-3.14896,-0.02752153,0.86646
448.063,49.97452,-3.14864,-0.02829901,0.86611
448.663,50.0335,-3.1499,-0.02701673,0.86575
449.263,50.0924,-3.15123,-0.02632154,0.86539
449.863,50.15142,-3.15258,-0.02555567,0.86504
450.463,50.21047,-3.15527,-0.0228699,0.86468
451.063,50.26955,-3.15523,-0.02240977,0.86432
451.663,50.32863,-3.15633,-0.02169951,0.86396
452.263,50.38774,-3.15732,-0.02124047,0.8636
452.863,50.44696,-3.16059,-0.01847532,0.86324
453.463,50.50614,-3.16045,-0.01822639,0.86288
454.063,50.56511,-3.16279,-0.01534368,0.86252
454.663,50.62426,-3.16447,-0.01499495,0.86217
455.263,50.68325,-3.16459,-0.01157907,0.8618
455.863,50.7425,-3.16705,-0.01001962,0.86144
456.463,50.80147,-3.16782,-0.008073014,0.86108
457.063,50.86063,-3.1673,-0.00845184,0.86072
457.663,50.91993,-3.16916,-0.004596124,0.86036
458.263,50.97907,-3.17262,-0.00329468,0.86
458.863,51.03826,-3.173,-0.002892195,0.85964
459.463,51.09748,-3.17432,-0.001528334,0.85928
460.063,51.15664,-3.17548,0.00157067,0.85892
460.663,51.2159,-3.17562,0.002614841,0.85855
461.263,51.27528,-3.17666,0.004343406,0.85819
461.863,51.3346,-3.17719,0.006876349,0.85783
462.463,51.39387,-3.17823,0.005853619,0.85746
463.063,51.45315,-3.17959,0.007016896,0.8571
463.663,51.5123,-3.18095,0.007719706,0.85674
464.263,51.5717,-3.18101,0.01105758,0.85637
464.863,51.63078,-3.18353,0.0107177,0.85601
465.463,51.68999,-3.18321,0.01276638,0.85564
466.063,51.74924,-3.18526,0.01411404,0.85528
466.663,51.80849,-3.1865,0.01369547,0.85491
467.263,51.86728,-3.1866,0.01546363,0.85455
467.863,51.92653,-3.18895,0.01579524,0.85418
468.463,51.9857,-3.18924,0.01801085,0.85381
469.063,52.04511,-3.18971,0.01814013,0.85345
469.663,52.10453,-3.19056,0.02044448,0.85308
470.263,52.16385,-3.19181,0.02143179,0.85271
470.863,52.22323,-3.19346,0.02483029,0.85235
471.463,52.28247,-3.19583,0.02344164,0.85198
472.063,52.34156,-3.19547,0.02511503,0.85161
472.663,52.4005,-3.19549,0.02607084,0.85124
473.263,52.45981,-3.19549,0.02505056,0.85087
473.863,52.5192,-3.19681,0.02761191,0.85051
474.463,52.57884,-3.19911,0.02770521,0.85014
475.063,52.63794,-3.1996,0.02818958,0.84977
475.663,52.69724,-3.20044,0.0308297,0.8494
476.263,52.7566,-3.20011,0.03079357,0.84903
476.863,52.8157,-3.20042,0.03110794,0.84866
477.463,52.8752,-3.20178,0.03203764,0.84829
478.063,52.93467,-3.20305,0.0330246,0.84792
478.663,52.99416,-3.2044,0.03373947,0.84755
479.263,53.05379,-3.20506,0.03470358,0.84717
479.863,53.1133,-3.20635,0.03428161,0.8468
480.463,53.1726,-3.20656,0.03551867,0.84643
481.063,53.2319,-3.20862,0.03545918,0.84606
481.663,53.2912,-3.20997,0.03644421,0.84569
482.263,53.35043,-3.21129,0.03629583,0.84531
482.863,53.4098,-3.20996,0.03855309,0.84494
483.463,53.469,-3.21129,0.03694127,0.84457
484.063,53.5283,-3.2126,0.0395523,0.84419
484.663,53.5875,-3.2126,0.03915205,0.84382
485.263,53.6468,-3.21263,0.04124923,0.84345
485.863,53.70626,-3.21392,0.04368627,0.84307
486.463,53.7657,-3.21383,0.04057403,0.8427
487.063,53.825,-3.21437,0.0420243,0.84232
487.663,53.8843,-3.21523,0.04233653,0.84195
488.263,53.94361,-3.2166,0.04143843,0.84157
488.863,54.0031,-3.21655,0.04188657,0.84119
489.463,54.0628,-3.21762,0.04194649,0.84082
490.063,54.1226,-3.21792,0.04000638,0.84044
490.663,54.18254,-3.2205,0.04099558,0.84006
491.263,54.24235,-3.22181,0.0430797,0.83969
491.863,54.302,-3.2205,0.04396079,0.83931
492.463,54.36152,-3.22179,0.04297684,0.83893
493.063,54.42105,-3.22313,0.04315029,0.83855
493.663,54.4807,-3.22313,0.04461082,0.83817
494.263,54.54031,-3.22313,0.04456064,0.8378
494.863,54.6,-3.22444,0.04544736,0.83742
495.463,54.65955,-3.22444,0.044292,0.83704
496.063,54.71918,-3.22576,0.04574408,0.83666
496.663,54.77879,-3.22646,0.04575355,0.83628
497.263,54.83849,-3.22763,0.04636069,0.8359
497.863,54.89812,-3.22775,0.04681126,0.83552
498.463,54.95771,-3.22906,0.04767109,0.83514
499.063,55.01726,-3.22908,0.04533613,0.83475
499.663,55.07659,-3.23037,0.04869915,0.83437
500.263,55.1361,-3.23037,0.0498753,0.83399
500.863,55.1957,-3.2317,0.04970506,0.83361
501.463,55.2551,-3.23275,0.05100531,0.83323
502.063,55.3147,-3.23301,0.05344032,0.83284
502.663,55.37401,-3.23429,0.05408449,0.83246
503.263,55.4334,-3.23424,0.05790079,0.83208
503.863,55.4926,-3.23498,0.05956476,0.83169
504.463,55.55199,-3.23631,0.06291358,0.83131
505.063,55.6113,-3.23675,0.0650708,0.83093
505.663,55.6707,-3.23761,0.07011491,0.83054
506.263,55.7303,-3.23893,0.07154104,0.83016
506.863,55.78969,-3.23893,0.07650921,0.82977
507.463,55.849,-3.23893,0.07653352,0.82939
508.063,55.90781,-3.24028,0.07981305,0.829
508.663,55.96711,-3.23925,0.08203732,0.82861
509.263,56.02612,-3.23915,0.08292144,0.82823
509.863,56.0854,-3.24057,0.08634398,0.82784
510.463,56.1446,-3.24161,0.08786388,0.82745
511.063,56.20386,-3.24057,0.08929404,0.82707
511.663,56.26327,-3.24192,0.08674346,0.82668
512.263,56.3228,-3.24197,0.08767002,0.82629
512.863,56.38228,-3.24186,0.09072487,0.8259
513.463,56.44161,-3.2432,0.0929714,0.82551
514.063,56.50102,-3.24499,0.09210472,0.82512
514.663,56.56046,-3.24584,0.0910515,0.82473
515.263,56.61988,-3.24584,0.09186922,0.82435
515.863,56.6792,-3.24726,0.09638341,0.82396
516.463,56.7385,-3.24857,0.09611566,0.82357
517.063,56.7982,-3.24853,0.10078,0.82317
517.663,56.858,-3.24924,0.09696746,0.82278
518.263,56.9178,-3.24924,0.10029,0.82239
518.863,56.9774,-3.24988,0.10081,0.822
519.463,57.0369,-3.25029,0.10372,0.82161
520.063,57.09627,-3.24989,0.10412,0.82122
520.663,57.15566,-3.25129,0.10862,0.82082
521.263,57.21495,-3.25121,0.1074,0.82043
521.863,57.2743,-3.25121,0.11017,0.82004
522.463,57.3338,-3.25247,0.11008,0.81965
523.063,57.3934,-3.25389,0.11287,0.81925
523.663,57.45315,-3.25384,0.11117,0.81886
524.263,57.51285,-3.25384,0.11223,0.81846
524.863,57.57244,-3.25514,0.11814,0.81807
525.463,57.63215,-3.25651,0.11562,0.81767
526.063,57.69178,-3.25759,0.1177,0.81728
526.663,57.7514,-3.25779,0.11458,0.81688
527.263,57.8109,-3.25911,0.1154,0.81649
527.863,57.8705,-3.26042,0.11516,0.81609
528.463,57.9301,-3.26042,0.11734,0.81569
529.063,57.98981,-3.26042,0.11508,0.8153
529.663,58.0494,-3.25976,0.11658,0.8149
530.263,58.10885,-3.25977,0.11815,0.8145
530.863,58.1685,-3.26108,0.11736,0.81411
531.463,58.2283,-3.26109,0.11776,0.81371
532.063,58.288,-3.26239,0.11788,0.81331
532.663,58.34805,-3.2629,0.11782,0.81291
533.263,58.4078,-3.2637,0.11703,0.81251
533.863,58.46776,-3.26438,0.12003,0.81211
534.463,58.5275,-3.26438,0.11586,0.81171
535.063,58.58727,-3.26572,0.11156,0.81131
535.663,58.64699,-3.26569,0.10557,0.81091
536.263,58.70674,-3.26569,0.10109,0.81051
536.863,58.7665,-3.26698,0.10128,0.81011
537.463,58.8263,-3.26831,0.09781676,0.80971
538.063,58.88615,-3.26832,0.09604365,0.80931
538.663,58.94608,-3.26901,0.0950034,0.8089
539.263,59.0062,-3.26963,0.09392887,0.8085
539.863,59.0659,-3.26962,0.09182119,0.8081
540.463,59.12576,-3.26969,0.09257058,0.8077
541.063,59.18557,-3.26964,0.08955598,0.80729
541.663,59.2455,-3.27056,0.08895384,0.80689
542.263,59.3054,-3.27043,0.09042386,0.80648
542.863,59.3653,-3.27161,0.08831013,0.80608
543.463,59.425,-3.27302,0.08544187,0.80568
544.063,59.4848,-3.27365,0.08729058,0.80527
544.663,59.54452,-3.27524,0.08832875,0.80486
545.263,59.6042,-3.27525,0.08566798,0.80446
545.863,59.6639,-3.27392,0.08646314,0.80405
546.463,59.7234,-3.27392,0.08410568,0.80365
547.063,59.78321,-3.27392,0.08367948,0.80324
547.663,59.8428,-3.27404,0.08401325,0.80283
548.263,59.90249,-3.27589,0.08263361,0.80243
548.863,59.9623,-3.27704,0.08216758,0.80202
549.463,60.02214,-3.27721,0.08386309,0.80161
550.063,60.08201,-3.2786,0.08519846,0.8012
550.663,60.14175,-3.27914,0.08214895,0.80079
551.263,60.2015,-3.27993,0.08357731,0.80038
551.863,60.26119,-3.28132,0.08275557,0.79998
552.463,60.32095,-3.28127,0.08438383,0.79957
553.063,60.3804,-3.28028,0.08027723,0.79916
553.663,60.4401,-3.28028,0.08444185,0.79875
554.263,60.49991,-3.28159,0.08356073,0.79833
554.863,60.55992,-3.28159,0.08380273,0.79792
555.463,60.61971,-3.28291,0.08195258,0.79751
556.063,60.67952,-3.28291,0.08273771,0.7971
556.663,60.7394,-3.28292,0.08211811,0.79669
557.263,60.79915,-3.28422,0.08371893,0.79628
557.863,60.8589,-3.28422,0.08634521,0.79586
558.463,60.9187,-3.28545,0.0864915,0.79545
559.063,60.9786,-3.28554,0.08772037,0.79504
559.663,61.0387,-3.28677,0.08662963,0.79462
560.263,61.0985,-3.28769,0.08469829,0.79421
560.863,61.15829,-3.28784,0.08589866,0.7938
561.463,61.2182,-3.28784,0.08456344,0.79338
562.063,61.278,-3.28784,0.08968991,0.79297
562.663,61.338,-3.28863,0.08473837,0.79255
563.263,61.39785,-3.28916,0.08468356,0.79214
563.863,61.45774,-3.28915,0.09024004,0.79172
564.463,61.51786,-3.29048,0.08518444,0.7913
565.063,61.5781,-3.29048,0.08597915,0.79089
565.663,61.6383,-3.29048,0.08572402,0.79047
566.263,61.69846,-3.29017,0.08636656,0.79005
566.863,61.75855,-3.29051,0.0857676,0.78964
567.463,61.8185,-3.29042,0.08876977,0.78922
568.063,61.8787,-3.29148,0.08636091,0.7888
568.663,61.93865,-3.29311,0.08517709,0.78838
569.263,61.99876,-3.29345,0.08614891,0.78796
569.863,62.0588,-3.29344,0.0849967,0.78754
570.463,62.11897,-3.29476,0.08428753,0.78712
571.063,62.1791,-3.29476,0.08130007,0.7867
571.663,62.23925,-3.29608,0.08590442,0.78628
572.263,62.2997,-3.2961,0.08472405,0.78586
572.863,62.35989,-3.29541,0.08272659,0.78544
573.463,62.42006,-3.29607,0.08374865,0.78502
574.063,62.4802,-3.29607,0.08330583,0.7846
574.663,62.54025,-3.29609,0.08237132,0.78418
575.263,62.60043,-3.29607,0.0837111,0.78375
575.863,62.6606,-3.29742,0.08560524,0.78333
576.463,62.72081,-3.29738,0.08204605,0.78291
577.063,62.78088,-3.29871,0.08420513,0.78249
577.663,62.8405,-3.2987,0.08448766,0.78206
578.263,62.9001,-3.30002,0.08266949,0.78164
578.863,62.9598,-3.30002,0.08147467,0.78121
579.463,63.01987,-3.30134,0.08325359,0.78079
580.063,63.07974,-3.30134,0.08111189,0.78037
580.663,63.1397,-3.30265,0.08192071,0.77994
581.263,63.1996,-3.30265,0.08465051,0.77951
581.863,63.2597,-3.30265,0.0846686,0.77909
582.463,63.31984,-3.30265,0.08393577,0.77866
583.063,63.3798,-3.30397,0.08421971,0.77824
583.663,63.4398,-3.30397,0.08470816,0.77781
584.263,63.49975,-3.30397,0.08576743,0.77738
584.863,63.55981,-3.30397,0.08681951,0.77695
585.463,63.61984,-3.30397,0.08369349,0.77653
586.063,63.67989,-3.3066,0.08348723,0.7761
586.663,63.74005,-3.30627,0.08209682,0.77567
587.263,63.80016,-3.30463,0.08359301,0.77524
587.863,63.8602,-3.30563,0.08333316,0.77481
588.463,63.9204,-3.3053,0.0834444,0.77438
589.063,63.98035,-3.3066,0.08683336,0.77395
589.663,64.0403,-3.30792,0.08632153,0.77352
590.263,64.10025,-3.30945,0.08575515,0.77309
590.863,64.1601,-3.30682,0.08605591,0.77266
591.463,64.2201,-3.30791,0.08195142,0.77223
592.063,64.28005,-3.30825,0.08591338,0.7718
592.663,64.3405,-3.30825,0.08611879,0.77136
593.263,64.40098,-3.30957,0.08785063,0.77093
593.863,64.46159,-3.30957,0.08261937,0.7705
594.463,64.52207,-3.30957,0.08351131,0.77007
595.063,64.58235,-3.31089,0.08395864,0.76963
595.663,64.64256,-3.31088,0.08371113,0.7692
596.263,64.70268,-3.31088,0.08383756,0.76877
596.863,64.76285,-3.31083,0.08425027,0.76833
597.463,64.82306,-3.31404,0.08435029,0.7679
598.063,64.88331,-3.31584,0.08670699,0.76746
598.663,64.9435,-3.31341,0.0873574,0.76703
599.263,65.00366,-3.31345,0.08405314,0.76659
599.863,65.06387,-3.31473,0.08578586,0.76615
600.463,65.12411,-3.3134,0.08483371,0.76572
601.063,65.18445,-3.31481,0.08493561,0.76528
601.663,65.24464,-3.31472,0.08783613,0.76484
602.263,65.30495,-3.31577,0.08880504,0.76441
602.863,65.36506,-3.31606,0.08720894,0.76397
603.463,65.4255,-3.31736,0.08944387,0.76353
604.063,65.48589,-3.31733,0.08955989,0.76309
604.663,65.54634,-3.31604,0.0885656,0.76265
605.263,65.60641,-3.31718,0.09016984,0.76222
605.863,65.66659,-3.31735,0.09067368,0.76178
606.463,65.72697,-3.31735,0.09188486,0.76134
607.063,65.7876,-3.31734,0.09496708,0.7609
607.663,65.8481,-3.31901,0.09444372,0.76046
608.263,65.90844,-3.31924,0.09440312,0.76002
608.863,65.96868,-3.31999,0.0950965,0.75957
609.463,66.02909,-3.31999,0.09658326,0.75913
610.063,66.08949,-3.3213,0.09810604,0.75869
610.663,66.15007,-3.32262,0.09863602,0.75825
611.263,66.21064,-3.32223,0.09894004,0.75781
611.863,66.27127,-3.32083,0.0996419,0.75736
612.463,66.3318,-3.3213,0.09853874,0.75692
613.063,66.39234,-3.3213,0.09712492,0.75648
613.663,66.45275,-3.32209,0.09900626,0.75603
614.263,66.5132,-3.32261,0.0961354,0.75559
614.863,66.5736,-3.32261,0.09872398,0.75515
615.463,66.63417,-3.32258,0.10016,0.7547
616.063,66.6947,-3.32294,0.10191,0.75426
616.663,66.75516,-3.32294,0.10229,0.75381
617.263,66.8155,-3.32288,0.10348,0.75337
617.863,66.87581,-3.32393,0.10612,0.75292
618.463,66.93625,-3.32471,0.10944,0.75247
619.063,66.99641,-3.32488,0.1069,0.75203
619.663,67.05679,-3.32537,0.10822,0.75158
620.263,67.11706,-3.32656,0.10706,0.75113
620.863,67.17747,-3.32656,0.11057,0.75068
621.463,67.238,-3.32725,0.10705,0.75024
622.063,67.29799,-3.32657,0.1096,0.74979
622.663,67.35849,-3.32657,0.10917,0.74934
623.263,67.4185,-3.32657,0.10911,0.74889
623.863,67.4789,-3.32788,0.10707,0.74844
624.463,67.539,-3.32789,0.1117,0.74799
625.063,67.59916,-3.33048,0.11272,0.74754
625.663,67.6593,-3.33051,0.11407,0.74709
626.263,67.7196,-3.33051,0.11378,0.74664
626.863,67.77988,-3.33118,0.11663,0.74619
627.463,67.84028,-3.33118,0.11439,0.74574
628.063,67.90058,-3.33216,0.11464,0.74529
628.663,67.96083,-3.33216,0.11273,0.74483
629.263,68.02122,-3.33216,0.11216,0.74438
629.863,68.08158,-3.33215,0.11125,0.74393
630.463,68.14191,-3.33257,0.11175,0.74348
631.063,68.20222,-3.33381,0.11094,0.74302
631.663,68.2627,-3.33317,0.114,0.74257
632.263,68.32307,-3.33315,0.11526,0.74212
632.863,68.3835,-3.33315,0.11719,0.74166
633.463,68.44389,-3.33311,0.11618,0.74121
634.063,68.5041,-3.33382,0.11616,0.74075
634.663,68.5645,-3.3338,0.11657,0.7403
635.263,68.62505,-3.33387,0.11692,0.73984
635.863,68.68536,-3.33512,0.12192,0.73938
636.463,68.74602,-3.33512,0.12128,0.73893
637.063,68.80663,-3.3365,0.11715,0.73847
637.663,68.86731,-3.33743,0.12003,0.73801
638.263,68.92774,-3.33873,0.12566,0.73756
638.863,68.98823,-3.33878,0.12645,0.7371
639.463,69.04887,-3.33676,0.12627,0.73664
640.063,69.1096,-3.33677,0.12633,0.73618
640.663,69.17024,-3.33677,0.12697,0.73572
641.263,69.23085,-3.33808,0.12942,0.73527
641.863,69.29123,-3.33808,0.13012,0.73481
642.463,69.3515,-3.33909,0.13076,0.73435
643.063,69.41184,-3.33841,0.13328,0.73389
643.663,69.47216,-3.33808,0.13169,0.73343
644.263,69.53265,-3.33939,0.13609,0.73297
644.863,69.5932,-3.33939,0.13716,0.73251
645.463,69.65337,-3.33939,0.13925,0.73204
646.063,69.71378,-3.33957,0.1363,0.73158
646.663,69.77401,-3.34171,0.13818,0.73112
647.263,69.83452,-3.3417,0.13714,0.73066
647.863,69.89515,-3.3417,0.14232,0.7302
648.463,69.95565,-3.3417,0.14271,0.72973
649.063,70.0162,-3.34105,0.14098,0.72927
649.663,70.0767,-3.34172,0.13825,0.72881
650.263,70.13719,-3.34241,0.141,0.72834
650.863,70.19766,-3.34302,0.1432,0.72788
651.463,70.2582,-3.34302,0.14026,0.72741
652.063,70.31854,-3.34302,0.14598,0.72695
652.663,70.37889,-3.34302,0.14564,0.72648
653.263,70.4392,-3.34434,0.14417,0.72602
653.863,70.49954,-3.34434,0.14656,0.72555
654.463,70.5599,-3.34434,0.1471,0.72509
655.063,70.6203,-3.34434,0.14864,0.72462
655.663,70.68079,-3.345,0.1471,0.72415
656.263,70.74127,-3.34467,0.14922,0.72369
656.863,70.80173,-3.34533,0.14947,0.72322
657.463,70.8621,-3.34672,0.15097,0.72275
658.063,70.92235,-3.34663,0.15073,0.72228
658.663,70.9827,-3.34565,0.1532,0.72182
659.263,71.04315,-3.34665,0.15204,0.72135
659.863,71.10378,-3.34697,0.15109,0.72088
660.463,71.16419,-3.34697,0.15089,0.72041
661.063,71.22468,-3.34697,0.15206,0.71994
661.663,71.2851,-3.34697,0.15326,0.71947
662.263,71.34562,-3.34696,0.1536,0.719
662.863,71.40624,-3.34565,0.15501,0.71853
663.463,71.46685,-3.34701,0.15192,0.71806
664.063,71.52735,-3.34828,0.15363,0.71759
664.663,71.58807,-3.34696,0.15423,0.71712
665.263,71.64871,-3.34696,0.15286,0.71664
665.863,71.70923,-3.34696,0.15491,0.71617
666.463,71.76986,-3.34696,0.15662,0.7157
667.063,71.83038,-3.34828,0.15965,0.71523
667.663,71.891,-3.3496,0.15798,0.71475
668.263,71.9517,-3.34959,0.15762,0.71428
668.863,72.01219,-3.34828,0.15624,0.71381
669.463,72.07279,-3.34828,0.15909,0.71333
670.063,72.1335,-3.34828,0.16001,0.71286
670.663,72.19416,-3.34961,0.16065,0.71238
671.263,72.25482,-3.34836,0.16153,0.71191
671.863,72.31521,-3.34829,0.15819,0.71143
672.463,72.37572,-3.34829,0.16175,0.71096
673.063,72.43629,-3.34966,0.16281,0.71048
673.663,72.4971,-3.35091,0.16285,0.71001
674.263,72.55767,-3.35091,0.16266,0.70953
674.863,72.61819,-3.35091,0.16097,0.70905
675.463,72.67875,-3.35091,0.16749,0.70857
676.063,72.7395,-3.35223,0.16408,0.7081
676.663,72.80014,-3.35092,0.16876,0.70762
677.263,72.86073,-3.35092,0.16747,0.70714
677.863,72.92118,-3.35223,0.16808,0.70666
678.463,72.9817,-3.35224,0.16897,0.70618
679.063,73.04234,-3.35224,0.16923,0.70571
679.663,73.10316,-3.35217,0.16916,0.70523
680.263,73.16375,-3.35157,0.17033,0.70475
680.863,73.2243,-3.35225,0.1736,0.70427
681.463,73.28496,-3.35268,0.17607,0.70379
682.063,73.3456,-3.35445,0.17135,0.70331
682.663,73.4062,-3.35322,0.17058,0.70282
683.263,73.46676,-3.35322,0.17367,0.70234
683.863,73.52717,-3.35202,0.1742,0.70186
684.463,73.5877,-3.35207,0.17394,0.70138
685.063,73.64838,-3.35322,0.17799,0.7009
685.663,73.70904,-3.35322,0.17825,0.70042
686.263,73.76977,-3.35387,0.17758,0.69993
686.863,73.83059,-3.35453,0.17927,0.69945
687.463,73.89152,-3.35453,0.17848,0.69897
688.063,73.9521,-3.35453,0.17882,0.69848
688.663,74.01286,-3.35514,0.17847,0.698
689.263,74.0736,-3.35453,0.18427,0.69752
689.863,74.1344,-3.35453,0.18166,0.69703
690.463,74.1955,-3.35453,0.18336,0.69655
691.063,74.25616,-3.35546,0.1832,0.69606
691.663,74.31685,-3.35552,0.18488,0.69558
692.263,74.37773,-3.35552,0.18615,0.69509
692.863,74.43863,-3.35546,0.18374,0.6946
693.463,74.49954,-3.35556,0.18738,0.69412
694.063,74.56025,-3.35553,0.18928,0.69363
694.663,74.62098,-3.35553,0.18788,0.69314
695.263,74.6815,-3.35684,0.18706,0.69266
695.863,74.742,-3.35715,0.19053,0.69217
696.463,74.8025,-3.35719,0.18996,0.69168
697.063,74.8631,-3.35585,0.18767,0.69119
697.663,74.92392,-3.35682,0.18731,0.6907
698.263,74.98461,-3.35716,0.18742,0.69022
698.863,75.0454,-3.35716,0.19075,0.68973
699.463,75.1061,-3.35716,0.19187,0.68924
700.063,75.16691,-3.35716,0.18948,0.68875
700.663,75.22759,-3.35848,0.18921,0.68826
701.263,75.28838,-3.35848,0.19015,0.68777
701.863,75.34935,-3.35981,0.189,0.68728
702.463,75.41023,-3.35948,0.19202,0.68679
703.063,75.47105,-3.3598,0.19193,0.6863
703.663,75.53169,-3.3598,0.19122,0.6858
704.263,75.5922,-3.35848,0.18682,0.68531
704.863,75.6528,-3.35849,0.19033,0.68482
705.463,75.71356,-3.3599,0.19024,0.68433
706.063,75.7744,-3.3598,0.19253,0.68384
706.663,75.83501,-3.36103,0.1901,0.68334
707.263,75.89569,-3.3598,0.19251,0.68285
707.863,75.95636,-3.3598,0.19407,0.68236
708.463,76.0171,-3.3598,0.19407,0.68186
709.063,76.07799,-3.35999,0.19135,0.68137
709.663,76.1387,-3.36107,0.18916,0.68087
710.263,76.19964,-3.36309,0.19098,0.68038
710.863,76.26043,-3.36309,0.19223,0.67989
711.463,76.3214,-3.36309,0.19351,0.67939
712.063,76.3821,-3.36309,0.1931,0.67889
712.663,76.44301,-3.36309,0.19669,0.6784
713.263,76.50375,-3.36331,0.19422,0.6779
713.863,76.56447,-3.36342,0.19529,0.67741
714.463,76.62523,-3.36342,0.19619,0.67691
715.063,76.6859,-3.36342,0.19498,0.67641
715.663,76.7466,-3.36342,0.1931,0.67592
716.263,76.8074,-3.36342,0.19609,0.67542
716.863,76.86805,-3.36342,0.19825,0.67492
717.463,76.9288,-3.36346,0.19257,0.67442
718.063,76.98959,-3.36343,0.19699,0.67393
718.663,77.05035,-3.36542,0.19636,0.67343
719.263,77.11142,-3.3657,0.19704,0.67293
719.863,77.1725,-3.36605,0.19986,0.67243
720.463,77.23347,-3.36606,0.20123,0.67193
721.063,77.29449,-3.36606,0.2003,0.67143
721.663,77.35536,-3.36606,0.20001,0.67093
722.263,77.41622,-3.36606,0.19803,0.67043
722.863,77.4773,-3.36496,0.19718,0.66993
723.463,77.53817,-3.36474,0.19819,0.66943
724.063,77.59909,-3.36474,0.19411,0.66893
724.663,77.6601,-3.36474,0.19755,0.66843
725.263,77.7209,-3.36606,0.19908,0.66792
725.863,77.7817,-3.36606,0.19483,0.66742
726.463,77.84259,-3.36739,0.19939,0.66692
727.063,77.90334,-3.36868,0.20042,0.66642
727.663,77.96425,-3.37009,0.19761,0.66592
728.263,78.02531,-3.36869,0.19695,0.66541
728.863,78.08634,-3.36869,0.19752,0.66491
729.463,78.14741,-3.36803,0.19909,0.66441
730.063,78.20821,-3.36803,0.19918,0.6639
730.663,78.269,-3.36671,0.19732,0.6634
731.263,78.32986,-3.36803,0.19862,0.66289
731.863,78.39073,-3.36934,0.19469,0.66239
732.463,78.45165,-3.36934,0.19865,0.66188
733.063,78.51258,-3.36802,0.1998,0.66138
733.663,78.57337,-3.36818,0.19967,0.66087
734.263,78.63433,-3.36934,0.19861,0.66037
734.863,78.6951,-3.36934,0.19911,0.65986
735.463,78.75565,-3.37027,0.19865,0.65936
736.063,78.81628,-3.37057,0.20106,0.65885
736.663,78.87688,-3.37198,0.20528,0.65834
737.263,78.93795,-3.37328,0.19872,0.65784
737.863,78.9996,-3.37266,0.19884,0.65733
738.463,79.0609,-3.37198,0.1991,0.65682
739.063,79.12193,-3.37198,0.20214,0.65631
739.663,79.1829,-3.37298,0.201,0.65581
740.263,79.244,-3.37186,0.20062,0.6553
740.863,79.3049,-3.37197,0.20344,0.65479
741.463,79.3657,-3.37197,0.20135,0.65428
742.063,79.42634,-3.37197,0.20227,0.65377
742.663,79.4869,-3.37197,0.20363,0.65326
743.263,79.54762,-3.37197,0.20328,0.65275
743.863,79.60839,-3.37296,0.2044,0.65224
744.463,79.6692,-3.37165,0.20639,0.65173
745.063,79.72976,-3.37165,0.20211,0.65122
745.663,79.79041,-3.37264,0.20302,0.65071
746.263,79.8509,-3.37264,0.20611,0.6502
746.863,79.91152,-3.37262,0.20365,0.64969
747.463,79.97216,-3.37362,0.20505,0.64918
747.663,79.99229,-3.37362,0.20029,0.64901