File: 01_Data/Pine_Lap_Siding_Wood/STA/N2/10K_min/Pine_Lap_Siding_Wood_STA_N2_10KData_220318_R1.csv
##Temp./Â°C,Time/min,Mass loss(subtr.2)/mg,DSC(subtr.2)/(mW/mg),Sensit./(uV/mW)
49.604,10.01,0.00033,0.01596114,1.07521
50.204,10.7212,0.001598144,0.04858398,1.07489
50.804,10.90928,0.001392921,0.07670861,1.07458
51.404,11.04973,0.00227548,0.09846785,1.07427
52.004,11.16797,0.002244833,0.11783,1.07395
52.604,11.27315,0.00187143,0.13256,1.07364
53.204,11.36995,0.003505763,0.14649,1.07333
53.804,11.46062,0.00220837,0.15776,1.07302
54.404,11.5461,0.002243855,0.16634,1.0727
55.004,11.62764,0.003582643,0.17828,1.07239
55.604,11.70604,0.00452387,0.18788,1.07208
56.204,11.7825,0.00451105,0.19261,1.07177
56.804,11.85697,0.00449543,0.20171,1.07146
57.404,11.9299,0.004390632,0.20932,1.07114
58.004,12.0015,0.004392701,0.2159,1.07083
58.604,12.0723,0.003637687,0.22157,1.07052
59.204,12.14218,0.003804658,0.22711,1.07021
59.804,12.21143,0.00263806,0.23206,1.0699
60.404,12.2799,0.00262619,0.23754,1.06958
61.004,12.34781,0.002624575,0.24099,1.06927
61.604,12.41493,0.002626238,0.2445,1.06896
62.204,12.48108,0.002631212,0.25054,1.06865
62.804,12.54785,0.001291067,0.25296,1.06834
63.404,12.61448,0.001261046,0.25717,1.06803
64.004,12.6815,0.002159476,0.26139,1.06771
64.604,12.74735,0.002628122,0.2665,1.0674
65.204,12.81276,0.0027342,0.27091,1.06709
65.804,12.87809,0.001464297,0.27117,1.06678
66.404,12.94314,0.0023695,0.27311,1.06647
67.004,13.00798,0.002106303,0.27863,1.06616
67.604,13.07245,0.00206245,0.28152,1.06585
68.204,13.137,0.001320062,0.28476,1.06554
68.804,13.20111,0.001359304,0.28727,1.06522
69.404,13.26544,0.002628412,0.29076,1.06491
70.004,13.32954,0.001309193,0.29363,1.0646
70.604,13.39339,0.0003007887,0.29636,1.06429
71.204,13.4576,0.00132007,0.30032,1.06398
71.804,13.5212,0.001629026,0.30164,1.06367
72.404,13.5848,0.00106208,0.30386,1.06336
73.004,13.6483,-1.008614e-05,0.30839,1.06305
73.604,13.71158,-9.952968e-06,0.31086,1.06274
74.204,13.7748,0.00144836,0.31456,1.06243
74.804,13.83769,5.013473e-07,0.31738,1.06212
75.404,13.9002,-6.427864e-06,0.32081,1.06181
76.004,13.96279,-0.0003272552,0.32299,1.0615
76.604,14.02564,-0.00164585,0.32632,1.06119
77.204,14.08885,-0.001643286,0.32747,1.06088
77.804,14.1514,-0.002644449,0.33081,1.06057
78.404,14.21374,-0.002630008,0.33363,1.06026
79.004,14.2762,-0.002629539,0.33476,1.05995
79.604,14.3385,-0.003947126,0.33886,1.05964
80.204,14.4005,-0.002639839,0.33958,1.05933
80.804,14.46243,-0.00245835,0.34229,1.05902
81.404,14.5242,-0.00263371,0.34439,1.05871
82.004,14.58579,-0.00262951,0.34455,1.0584
82.604,14.64671,-0.003921225,0.34625,1.05809
83.204,14.70791,-0.003949996,0.34917,1.05778
83.804,14.7693,-0.003950002,0.3498,1.05747
84.404,14.8308,-0.003940118,0.35133,1.05716
85.004,14.89141,-0.00394,0.34999,1.05685
85.604,14.9522,-0.003939992,0.35214,1.05654
86.204,15.0128,-0.003910645,0.35152,1.05623
86.804,15.07355,-0.005292853,0.35113,1.05592
87.404,15.1342,-0.0065805,0.35454,1.05561
88.004,15.19491,-0.00664289,0.35309,1.0553
88.604,15.25518,-0.0065742,0.3535,1.05499
89.204,15.3155,-0.006579998,0.35163,1.05468
89.804,15.3757,-0.006579456,0.35146,1.05438
90.404,15.43586,-0.00765483,0.3512,1.05407
91.004,15.496,-0.007902064,0.34962,1.05376
91.604,15.55608,-0.007899999,0.35039,1.05345
92.204,15.61604,-0.007896199,0.34905,1.05314
92.804,15.67596,-0.008876016,0.34899,1.05283
93.404,15.73569,-0.007899765,0.34898,1.05252
94.004,15.7955,-0.007900004,0.34646,1.05221
94.604,15.8545,-0.007912507,0.34508,1.05191
95.204,15.914,-0.009213743,0.3432,1.0516
95.804,15.97369,-0.00920839,0.34138,1.05129
96.404,16.0332,-0.00882539,0.34041,1.05098
97.004,16.0932,-0.008982809,0.3388,1.05067
97.604,16.15268,-0.009870899,0.33826,1.05036
98.204,16.21207,-0.01117879,0.33744,1.05006
98.804,16.27148,-0.01118024,0.3356,1.04975
99.404,16.33064,-0.01117523,0.334,1.04944
100.004,16.38968,-0.01118992,0.3315,1.04913
100.604,16.44872,-0.01052377,0.32884,1.04882
101.204,16.50775,-0.01053007,0.32989,1.04852
101.804,16.56673,-0.01094751,0.3271,1.04821
102.404,16.62526,-0.01119056,0.32443,1.0479
103.004,16.6841,-0.01083012,0.32422,1.04759
103.604,16.74294,-0.00987997,0.32221,1.04728
104.204,16.80195,-0.0098807,0.3197,1.04698
104.804,16.86119,-0.01119545,0.31881,1.04667
105.404,16.92002,-0.009870098,0.31679,1.04636
106.004,16.97875,-0.01112697,0.31717,1.04605
106.604,17.0375,-0.01218021,0.31796,1.04575
107.204,17.09625,-0.0118252,0.31498,1.04544
107.804,17.15492,-0.01088392,0.31431,1.04513
108.404,17.21379,-0.01217901,0.31632,1.04482
109.004,17.27228,-0.0113973,0.3135,1.04452
109.604,17.33108,-0.01216993,0.31154,1.04421
110.204,17.38981,-0.01217,0.3106,1.0439
110.804,17.44838,-0.01217317,0.31015,1.0436
111.404,17.5072,-0.01161999,0.31004,1.04329
112.004,17.56571,-0.01251275,0.31112,1.04298
112.604,17.6244,-0.01218023,0.31024,1.04268
113.204,17.6831,-0.01215866,0.30786,1.04237
113.804,17.74165,-0.01217,0.30905,1.04206
114.404,17.80051,-0.01217,0.30554,1.04175
115.004,17.8593,-0.01216861,0.30479,1.04145
115.604,17.91825,-0.01355767,0.30471,1.04114
116.204,17.9772,-0.01217007,0.30393,1.04083
116.804,18.03577,-0.01216999,0.30569,1.04053
117.404,18.09451,-0.01215578,0.30737,1.04022
118.004,18.15299,-0.01119039,0.30582,1.03992
118.604,18.21181,-0.01086294,0.30429,1.03961
119.204,18.27045,-0.01218054,0.30588,1.0393
119.804,18.32913,-0.01251729,0.30392,1.039
120.404,18.38775,-0.01250018,0.30468,1.03869
121.004,18.44666,-0.01214613,0.30395,1.03838
121.604,18.50542,-0.01216535,0.30653,1.03808
122.204,18.56393,-0.01216503,0.30522,1.03777
122.804,18.62249,-0.01243893,0.30544,1.03747
123.404,18.68056,-0.01218001,0.30544,1.03716
124.004,18.73895,-0.01217992,0.30666,1.03685
124.604,18.7974,-0.011395,0.30757,1.03655
125.204,18.8558,-0.01217457,0.3088,1.03624
125.804,18.9146,-0.01118564,0.30941,1.03594
126.404,18.97278,-0.01106783,0.31024,1.03563
127.004,19.031,-0.009875369,0.31141,1.03533
127.604,19.08918,-0.01117973,0.31099,1.03502
128.204,19.14734,-0.01118173,0.31047,1.03471
128.804,19.2055,-0.01251281,0.31241,1.03441
129.404,19.2636,-0.01119183,0.31365,1.0341
130.004,19.32175,-0.01119,0.31427,1.0338
130.604,19.37999,-0.01119,0.3137,1.03349
131.204,19.43777,-0.009963619,0.31481,1.03319
131.804,19.496,-0.0109948,0.31785,1.03288
132.404,19.55416,-0.009828783,0.31586,1.03258
133.004,19.61264,-0.009880504,0.31914,1.03227
133.604,19.67086,-0.0112122,0.32039,1.03197
134.204,19.72879,-0.01119948,0.31969,1.03166
134.804,19.7868,-0.01020077,0.3201,1.03136
135.404,19.8447,-0.0102,0.31921,1.03105
136.004,19.90266,-0.01019652,0.32102,1.03075
136.604,19.9606,-0.01117746,0.32097,1.03044
137.204,20.01865,-0.0111901,0.32122,1.03014
137.804,20.0767,-0.01060825,0.32048,1.02983
138.404,20.13477,-0.009876836,0.3217,1.02953
139.004,20.19272,-0.01128005,0.32232,1.02922
139.604,20.25061,-0.01119001,0.32512,1.02892
140.204,20.30838,-0.01118858,0.32504,1.02861
140.804,20.36613,-0.01023187,0.32438,1.02831
141.404,20.424,-0.01021015,0.32699,1.028
142.004,20.48174,-0.009851287,0.32742,1.0277
142.604,20.5395,-0.00988748,0.32851,1.02739
143.204,20.59737,-0.009771869,0.32884,1.02709
143.804,20.65525,-0.0108587,0.32882,1.02679
144.404,20.71323,-0.01151309,0.32903,1.02648
145.004,20.77125,-0.0114976,0.32884,1.02618
145.604,20.82914,-0.01086006,0.32951,1.02587
146.204,20.8871,-0.01086007,0.33068,1.02557
146.804,20.94473,-0.01084992,0.33015,1.02526
147.404,21.00239,-0.01085,0.33188,1.02496
148.004,21.06055,-0.01085,0.33398,1.02466
148.604,21.11845,-0.01085,0.33425,1.02435
149.204,21.17673,-0.01083623,0.33377,1.02405
149.804,21.2345,-0.01055506,0.3366,1.02374
150.404,21.29195,-0.01085994,0.33563,1.02344
151.004,21.34991,-0.01086,0.33819,1.02314
151.604,21.40774,-0.01062339,0.33674,1.02283
152.204,21.4659,-0.01019993,0.33851,1.02253
152.804,21.5239,-0.009465524,0.3393,1.02222
153.404,21.58165,-0.01019019,0.3399,1.02192
154.004,21.63939,-0.0102,0.33957,1.02162
154.604,21.6972,-0.01019512,0.34094,1.02131
155.204,21.7552,-0.01086465,0.34123,1.02101
155.804,21.81285,-0.01086,0.34377,1.02071
156.404,21.87067,-0.01085919,0.34357,1.0204
157.004,21.92822,-0.01021231,0.34254,1.0201
157.604,21.98586,-0.01020974,0.34354,1.01979
158.204,22.04346,-0.01114093,0.3449,1.01949
158.804,22.10118,-0.01076241,0.34758,1.01919
159.404,22.1588,-0.009206344,0.34718,1.01888
160.004,22.2166,-0.009210262,0.34806,1.01858
160.604,22.2743,-0.00820545,0.35029,1.01828
161.204,22.33186,-0.009249285,0.34829,1.01797
161.804,22.38954,-0.009209985,0.35092,1.01767
162.404,22.44707,-0.009117375,0.34902,1.01737
163.004,22.50456,-0.01052987,0.34841,1.01706
163.604,22.56198,-0.01053,0.35165,1.01676
164.204,22.6196,-0.01053,0.35226,1.01646
164.804,22.67727,-0.01053451,0.35332,1.01615
165.404,22.73483,-0.01020408,0.35479,1.01585
166.004,22.79231,-0.01087627,0.35511,1.01555
166.604,22.84995,-0.00954349,0.35534,1.01524
167.204,22.9074,-0.009540076,0.35631,1.01494
167.804,22.96507,-0.00954,0.35745,1.01464
168.404,23.02254,-0.00954,0.35897,1.01434
169.004,23.08006,-0.00954,0.35926,1.01403
169.604,23.13755,-0.009572035,0.36081,1.01373
170.204,23.1951,-0.009809776,0.36159,1.01343
170.804,23.25258,-0.00920963,0.35925,1.01312
171.404,23.31,-0.00921,0.36338,1.01282
172.004,23.36727,-0.00921,0.36231,1.01252
172.604,23.4246,-0.00921,0.36537,1.01222
173.204,23.48207,-0.009209946,0.36659,1.01191
173.804,23.53949,-0.00923657,0.36701,1.01161
174.404,23.59712,-0.008575097,0.36998,1.01131
175.004,23.65458,-0.008558348,0.37031,1.011
175.604,23.71209,-0.009214324,0.36828,1.0107
176.204,23.76961,-0.009220001,0.36865,1.0104
176.804,23.8269,-0.009220072,0.37025,1.0101
177.404,23.88443,-0.009418757,0.37188,1.00979
178.004,23.94182,-0.008879682,0.37136,1.00949
178.604,23.99931,-0.008883458,0.37486,1.00919
179.204,24.0568,-0.00920956,0.3726,1.00889
179.804,24.11415,-0.00921,0.37257,1.00858
180.404,24.1716,-0.009210008,0.37556,1.00828
181.004,24.229,-0.00920085,0.37373,1.00798
181.604,24.28622,-0.008557896,0.37421,1.00768
182.204,24.34349,-0.00899644,0.37646,1.00737
182.804,24.40091,-0.00855005,0.37615,1.00707
183.404,24.45819,-0.008530855,0.37643,1.00677
184.004,24.5153,-0.009708042,0.37694,1.00646
184.604,24.57246,-0.009903981,0.3774,1.00616
185.204,24.6294,-0.00922015,0.37719,1.00586
185.804,24.6865,-0.00923443,0.3777,1.00556
186.404,24.7438,-0.01053366,0.37945,1.00526
187.004,24.80122,-0.01052373,0.38026,1.00495
187.604,24.8584,-0.00921055,0.37941,1.00465
188.204,24.9157,-0.009207452,0.37984,1.00435
188.804,24.97316,-0.009542494,0.38113,1.00405
189.404,25.03079,-0.00954396,0.38558,1.00374
190.004,25.0882,-0.01053265,0.38158,1.00344
190.604,25.1458,-0.0105387,0.38469,1.00314
191.204,25.20298,-0.01053838,0.38239,1.00284
191.804,25.26026,-0.01052013,0.38555,1.00253
192.404,25.31771,-0.009540144,0.38497,1.00223
193.004,25.37552,-0.00954007,0.38793,1.00193
193.604,25.43352,-0.00970537,0.38735,1.00163
194.204,25.49144,-0.01086017,0.38667,1.00132
194.804,25.54917,-0.01086,0.38938,1.00102
195.404,25.60653,-0.01086,0.38712,1.00072
196.004,25.66391,-0.01086,0.3881,1.00042
196.604,25.72125,-0.01086322,0.38999,1.00012
197.204,25.77852,-0.01218069,0.3913,0.99981
197.804,25.83588,-0.01084214,0.39074,0.99951
198.404,25.89317,-0.0113906,0.39267,0.99921
199.004,25.95072,-0.01152,0.39531,0.99891
199.604,26.0082,-0.01152139,0.39531,0.9986
200.204,26.06559,-0.01283616,0.39701,0.9983
200.804,26.123,-0.01283,0.39657,0.998
201.404,26.1803,-0.01283,0.39849,0.9977
202.004,26.23767,-0.01283,0.39874,0.99739
202.604,26.29502,-0.01283,0.3973,0.99709
203.204,26.35196,-0.01282956,0.39968,0.99679
203.804,26.4093,-0.01184489,0.39968,0.99649
204.404,26.46655,-0.01315874,0.40233,0.99619
205.004,26.5238,-0.01316,0.40251,0.99588
205.604,26.58127,-0.01316,0.40598,0.99558
206.204,26.6384,-0.01316,0.40549,0.99528
206.804,26.69557,-0.01316,0.40485,0.99498
207.404,26.7526,-0.01316,0.4076,0.99467
208.004,26.8098,-0.01316,0.4067,0.99437
208.604,26.8669,-0.01316067,0.40996,0.99407
209.204,26.92408,-0.01348043,0.41258,0.99377
209.804,26.9813,-0.0134883,0.4123,0.99347
210.404,27.03841,-0.01481211,0.41338,0.99316
211.004,27.0956,-0.01481,0.41456,0.99286
211.604,27.15253,-0.01481,0.41619,0.99256
212.204,27.2097,-0.01481,0.41696,0.99226
212.804,27.26683,-0.01481014,0.41595,0.99195
213.404,27.32406,-0.01519482,0.41757,0.99165
214.004,27.3814,-0.01579991,0.4178,0.99135
214.604,27.4386,-0.01579565,0.4201,0.99105
215.204,27.4957,-0.01710844,0.42145,0.99074
215.804,27.55282,-0.01711,0.42179,0.99044
216.404,27.6099,-0.01710998,0.42278,0.99014
217.004,27.66687,-0.01742598,0.42293,0.98984
217.604,27.72393,-0.01842327,0.42508,0.98953
218.204,27.78094,-0.01843,0.42671,0.98923
218.804,27.83788,-0.01843,0.42863,0.98893
219.404,27.8951,-0.01843,0.42764,0.98863
220.004,27.95249,-0.01843,0.42868,0.98832
220.604,28.00974,-0.01842946,0.42817,0.98802
221.204,28.067,-0.01973984,0.42829,0.98772
221.804,28.1242,-0.01842286,0.42997,0.98742
222.404,28.18151,-0.01841001,0.42908,0.98711
223.004,28.23883,-0.0210597,0.43072,0.98681
223.604,28.29595,-0.02106,0.43161,0.98651
224.204,28.353,-0.02105573,0.43302,0.98621
224.804,28.4103,-0.02237972,0.43477,0.9859
225.404,28.46746,-0.02238,0.43418,0.9856
226.004,28.52497,-0.02238,0.43536,0.9853
226.604,28.58241,-0.02237976,0.437,0.985
227.204,28.6397,-0.02333789,0.43512,0.98469
227.804,28.697,-0.02501414,0.43618,0.98439
228.404,28.7541,-0.02501,0.43791,0.98409
229.004,28.81135,-0.02501047,0.43977,0.98378
229.604,28.8686,-0.02632337,0.43816,0.98348
230.204,28.92577,-0.02632999,0.44046,0.98318
230.804,28.98327,-0.02633001,0.44192,0.98288
231.404,29.04076,-0.02633349,0.4436,0.98257
232.004,29.09818,-0.02764934,0.44527,0.98227
232.604,29.1557,-0.02857085,0.44505,0.98197
233.204,29.21302,-0.02896109,0.44683,0.98166
233.804,29.2702,-0.03027086,0.44784,0.98136
234.404,29.32746,-0.03026976,0.44952,0.98106
235.004,29.38467,-0.03132851,0.4498,0.98075
235.604,29.44202,-0.03257827,0.44915,0.98045
236.204,29.4993,-0.03258957,0.45321,0.98015
236.804,29.55665,-0.03390034,0.4543,0.97985
237.404,29.6141,-0.03385855,0.4565,0.97954
238.004,29.6715,-0.03520736,0.45832,0.97924
238.604,29.72897,-0.03653127,0.45702,0.97894
239.204,29.7861,-0.03647813,0.45958,0.97863
239.804,29.84325,-0.03784027,0.45939,0.97833
240.404,29.9003,-0.03916119,0.46041,0.97803
241.004,29.95778,-0.03916005,0.46521,0.97772
241.604,30.01502,-0.03942489,0.46231,0.97742
242.204,30.07242,-0.0404868,0.46371,0.97711
242.804,30.1297,-0.0417893,0.46655,0.97681
243.404,30.18685,-0.04284898,0.46771,0.97651
244.004,30.24398,-0.04409161,0.46868,0.9762
244.604,30.3012,-0.04443531,0.46906,0.9759
245.204,30.3584,-0.04573729,0.4691,0.9756
245.804,30.4155,-0.04736533,0.47068,0.97529
246.404,30.47281,-0.04997392,0.4719,0.97499
247.004,30.53002,-0.05133008,0.47118,0.97469
247.604,30.58734,-0.05253451,0.4715,0.97438
248.204,30.6445,-0.05270304,0.47146,0.97408
248.804,30.7018,-0.05477237,0.47176,0.97377
249.404,30.7592,-0.0558736,0.47415,0.97347
250.004,30.8166,-0.05658312,0.47345,0.97317
250.604,30.87395,-0.05794932,0.47427,0.97286
251.204,30.93127,-0.06000674,0.47211,0.97256
251.804,30.9887,-0.0619448,0.47356,0.97225
252.404,31.04598,-0.06394986,0.4757,0.97195
253.004,31.10353,-0.06657493,0.47551,0.97164
253.604,31.16092,-0.06774927,0.47475,0.97134
254.204,31.2184,-0.06948912,0.47457,0.97104
254.804,31.2756,-0.07124346,0.47454,0.97073
255.404,31.3325,-0.07262156,0.47405,0.97043
256.004,31.38972,-0.07545718,0.47591,0.97012
256.604,31.4471,-0.07677759,0.47668,0.96982
257.204,31.50455,-0.07824721,0.47415,0.96951
257.804,31.5624,-0.08110523,0.47872,0.96921
258.404,31.6199,-0.08247629,0.47574,0.9689
259.004,31.67717,-0.08510443,0.47545,0.9686
259.604,31.73445,-0.0860711,0.47855,0.96829
260.204,31.7917,-0.08878623,0.47993,0.96799
260.804,31.84915,-0.09179101,0.47837,0.96768
261.404,31.90662,-0.09446697,0.47817,0.96738
262.004,31.9641,-0.0970052,0.48294,0.96707
262.604,32.02166,-0.09890028,0.47999,0.96677
263.204,32.0792,-0.10165,0.4784,0.96646
263.804,32.13665,-0.10446,0.47891,0.96616
264.404,32.19419,-0.10677,0.48166,0.96585
265.004,32.25164,-0.10922,0.47963,0.96555
265.604,32.3091,-0.11275,0.47921,0.96524
266.204,32.36674,-0.11565,0.48246,0.96494
266.804,32.42433,-0.11925,0.48237,0.96463
267.404,32.48178,-0.1203,0.4824,0.96432
268.004,32.5392,-0.12216,0.48153,0.96402
268.604,32.59656,-0.12526,0.48009,0.96371
269.204,32.6541,-0.12955,0.48132,0.96341
269.804,32.71176,-0.13259,0.48229,0.9631
270.404,32.7695,-0.1358,0.48301,0.96279
271.004,32.827,-0.13924,0.48455,0.96249
271.604,32.88456,-0.14164,0.48398,0.96218
272.204,32.942,-0.14527,0.48571,0.96188
272.804,32.99946,-0.14968,0.48492,0.96157
273.404,33.05693,-0.1534,0.48514,0.96126
274.004,33.11436,-0.15482,0.48566,0.96096
274.604,33.17192,-0.15985,0.4832,0.96065
275.204,33.22938,-0.16438,0.48642,0.96034
275.804,33.28689,-0.1677,0.48689,0.96004
276.404,33.3444,-0.1712,0.48752,0.95973
277.004,33.40144,-0.17589,0.48613,0.95942
277.604,33.45899,-0.17908,0.48697,0.95912
278.204,33.51654,-0.1822,0.48863,0.95881
278.804,33.57424,-0.18707,0.48679,0.9585
279.404,33.63172,-0.19178,0.48657,0.9582
280.004,33.68891,-0.19531,0.48965,0.95789
280.604,33.7463,-0.20087,0.49179,0.95758
281.204,33.8038,-0.20521,0.49156,0.95727
281.804,33.86138,-0.21043,0.49318,0.95697
282.404,33.9189,-0.21418,0.49376,0.95666
283.004,33.97634,-0.21929,0.49334,0.95635
283.604,34.0338,-0.22342,0.49552,0.95604
284.204,34.09152,-0.22865,0.49388,0.95574
284.804,34.1492,-0.23353,0.4966,0.95543
285.404,34.2068,-0.23825,0.49616,0.95512
286.004,34.2643,-0.24367,0.49862,0.95481
286.604,34.32177,-0.24809,0.49889,0.9545
287.204,34.37934,-0.25431,0.50078,0.95419
287.804,34.43692,-0.25878,0.50047,0.95389
288.404,34.4942,-0.26545,0.50287,0.95358
289.004,34.55168,-0.27106,0.50595,0.95327
289.604,34.60904,-0.27617,0.5064,0.95296
290.204,34.66661,-0.28119,0.50701,0.95265
290.804,34.72419,-0.28899,0.50843,0.95234
291.404,34.7817,-0.29458,0.50811,0.95203
292.004,34.83899,-0.30066,0.50959,0.95173
292.604,34.89647,-0.30628,0.51108,0.95142
293.204,34.95393,-0.31339,0.51165,0.95111
293.804,35.0113,-0.31885,0.51242,0.9508
294.404,35.06889,-0.32543,0.51641,0.95049
295.004,35.1263,-0.33196,0.51847,0.95018
295.604,35.18399,-0.33896,0.5181,0.94987
296.204,35.24175,-0.34676,0.5179,0.94956
296.804,35.29927,-0.35439,0.51965,0.94925
297.404,35.35667,-0.36245,0.52307,0.94894
298.004,35.414,-0.36787,0.52609,0.94863
298.604,35.47148,-0.37436,0.52647,0.94832
299.204,35.5291,-0.38353,0.52934,0.94801
299.804,35.5869,-0.39068,0.53084,0.9477
300.404,35.64455,-0.39784,0.53327,0.94739
301.004,35.7022,-0.40567,0.53437,0.94708
301.604,35.7599,-0.41448,0.53568,0.94677
302.204,35.81746,-0.42279,0.53754,0.94646
302.804,35.8752,-0.4309,0.54035,0.94615
303.404,35.933,-0.44034,0.54037,0.94584
304.004,35.99057,-0.45001,0.54554,0.94553
304.604,36.04827,-0.45854,0.54818,0.94521
305.204,36.10581,-0.46645,0.55126,0.9449
305.804,36.16361,-0.47545,0.55372,0.94459
306.404,36.22135,-0.48326,0.55482,0.94428
307.004,36.2793,-0.49226,0.55901,0.94397
307.604,36.3369,-0.50255,0.56279,0.94366
308.204,36.3947,-0.51388,0.5659,0.94335
308.804,36.45237,-0.52257,0.56974,0.94303
309.404,36.51,-0.53275,0.57323,0.94272
310.004,36.56777,-0.54324,0.57551,0.94241
310.604,36.62556,-0.55392,0.5782,0.9421
311.204,36.68345,-0.56379,0.5829,0.94178
311.804,36.7413,-0.57484,0.58543,0.94147
312.404,36.79935,-0.58511,0.58714,0.94116
313.004,36.85716,-0.59691,0.5925,0.94085
313.604,36.91506,-0.60875,0.59412,0.94053
314.204,36.97291,-0.62039,0.59896,0.94022
314.804,37.03068,-0.63108,0.60401,0.93991
315.404,37.08853,-0.64308,0.60462,0.9396
316.004,37.1464,-0.65406,0.60927,0.93928
316.604,37.2042,-0.66454,0.6163,0.93897
317.204,37.2619,-0.67828,0.61876,0.93866
317.804,37.31947,-0.6917,0.62143,0.93834
318.404,37.37722,-0.7032,0.62419,0.93803
319.004,37.43469,-0.71646,0.62773,0.93771
319.604,37.4924,-0.72992,0.63256,0.9374
320.204,37.54999,-0.74279,0.6368,0.93709
320.804,37.6077,-0.75592,0.64125,0.93677
321.404,37.66572,-0.76996,0.64545,0.93646
322.004,37.72361,-0.78299,0.65073,0.93614
322.604,37.78141,-0.79635,0.65099,0.93583
323.204,37.8393,-0.80932,0.65454,0.93551
323.804,37.89687,-0.82359,0.65922,0.9352
324.404,37.95471,-0.8379,0.66112,0.93488
325.004,38.01247,-0.85208,0.6655,0.93457
325.604,38.07028,-0.86692,0.66805,0.93425
326.204,38.12828,-0.88083,0.66869,0.93394
326.804,38.18619,-0.89519,0.67438,0.93362
327.404,38.24416,-0.90959,0.67627,0.93331
328.004,38.30209,-0.9256,0.67905,0.93299
328.604,38.3601,-0.9409,0.68343,0.93267
329.204,38.41793,-0.95485,0.68595,0.93236
329.804,38.47566,-0.97116,0.68923,0.93204
330.404,38.53321,-0.98586,0.69124,0.93172
331.004,38.59091,-1.00276,0.69514,0.93141
331.604,38.64865,-1.01797,0.69751,0.93109
332.204,38.70685,-1.03453,0.69753,0.93077
332.804,38.7646,-1.04881,0.70161,0.93046
333.404,38.8223,-1.06461,0.70522,0.93014
334.004,38.88013,-1.0811,0.70759,0.92982
334.604,38.93807,-1.09681,0.70837,0.92951
335.204,38.996,-1.11368,0.71068,0.92919
335.804,39.05415,-1.12947,0.71767,0.92887
336.404,39.11238,-1.14638,0.71789,0.92855
337.004,39.1704,-1.1618,0.72024,0.92823
337.604,39.2286,-1.18015,0.71985,0.92792
338.204,39.28668,-1.19527,0.72718,0.9276
338.804,39.34454,-1.21303,0.7299,0.92728
339.404,39.4024,-1.23008,0.73358,0.92696
340.004,39.46043,-1.24587,0.73538,0.92664
340.604,39.51829,-1.26419,0.74067,0.92632
341.204,39.57631,-1.28104,0.74378,0.926
341.804,39.63438,-1.29913,0.74878,0.92569
342.404,39.69243,-1.31532,0.75357,0.92537
343.004,39.75057,-1.33428,0.75802,0.92505
343.604,39.80862,-1.35228,0.76209,0.92473
344.204,39.8666,-1.37138,0.76958,0.92441
344.804,39.92463,-1.3886,0.77443,0.92409
345.404,39.98263,-1.4059,0.78044,0.92377
346.004,40.04056,-1.42389,0.78818,0.92345
346.604,40.09838,-1.44202,0.79206,0.92313
347.204,40.15627,-1.46105,0.79826,0.92281
347.804,40.2141,-1.48057,0.8067,0.92248
348.404,40.2722,-1.50017,0.81446,0.92216
349.004,40.33043,-1.51921,0.82215,0.92184
349.604,40.38852,-1.53915,0.83206,0.92152
350.204,40.44685,-1.55839,0.83929,0.9212
350.804,40.5049,-1.57997,0.8444,0.92088
351.404,40.5632,-1.59974,0.8531,0.92056
352.004,40.62122,-1.62017,0.86426,0.92023
352.604,40.67917,-1.64142,0.87092,0.91991
353.204,40.737,-1.6622,0.8854,0.91959
353.804,40.79473,-1.68395,0.89278,0.91927
354.404,40.85286,-1.70503,0.90347,0.91895
355.004,40.91109,-1.72865,0.91539,0.91862
355.604,40.96938,-1.74927,0.92881,0.9183
356.204,41.02787,-1.77399,0.93615,0.91798
356.804,41.08659,-1.7958,0.94761,0.91765
357.404,41.1453,-1.82028,0.96044,0.91733
358.004,41.20406,-1.84414,0.96976,0.91701
358.604,41.26266,-1.86832,0.98247,0.91668
359.204,41.3211,-1.89421,0.9953,0.91636
359.804,41.37959,-1.92487,1.00708,0.91603
360.404,41.43806,-1.95153,1.01668,0.91571
361.004,41.49635,-1.97653,1.02143,0.91539
361.604,41.55475,-2.00303,1.03363,0.91506
362.204,41.61327,-2.02741,1.04285,0.91474
362.804,41.6715,-2.05622,1.04781,0.91441
363.404,41.72975,-2.07976,1.05679,0.91409
364.004,41.78815,-2.10564,1.05988,0.91376
364.604,41.84648,-2.13017,1.06346,0.91344
365.204,41.9054,-2.15712,1.0668,0.91311
365.804,41.9638,-2.17726,1.06683,0.91278
366.404,42.02203,-2.2035,1.06476,0.91246
367.004,42.08,-2.23003,1.06282,0.91213
367.604,42.13813,-2.25617,1.05846,0.91181
368.204,42.19636,-2.28453,1.05528,0.91148
368.804,42.25457,-2.31066,1.04505,0.91115
369.404,42.3127,-2.33892,1.03918,0.91082
370.004,42.3705,-2.36415,1.0252,0.9105
370.604,42.42853,-2.38872,1.01718,0.91017
371.204,42.48641,-2.41123,1.00072,0.90984
371.804,42.5447,-2.43747,0.98325,0.90952
372.404,42.60261,-2.46472,0.96234,0.90919
373.004,42.66052,-2.49059,0.94017,0.90886
373.604,42.71849,-2.51643,0.91705,0.90853
374.204,42.77649,-2.54201,0.89131,0.9082
374.804,42.83455,-2.56441,0.86361,0.90787
375.404,42.892,-2.58593,0.83337,0.90754
376.004,42.94964,-2.60678,0.80208,0.90722
376.604,43.0074,-2.6279,0.76805,0.90689
377.204,43.06525,-2.64706,0.7335,0.90656
377.804,43.12368,-2.66342,0.70084,0.90623
378.404,43.1817,-2.68235,0.66523,0.9059
379.004,43.23955,-2.69948,0.62932,0.90557
379.604,43.2972,-2.71481,0.5923,0.90524
380.204,43.35483,-2.72893,0.55969,0.90491
380.804,43.4127,-2.7426,0.51986,0.90458
381.404,43.47055,-2.75441,0.48423,0.90425
382.004,43.5286,-2.76418,0.4493,0.90391
382.604,43.58659,-2.77674,0.4158,0.90358
383.204,43.64458,-2.78583,0.3857,0.90325
383.804,43.70252,-2.79536,0.35352,0.90292
384.404,43.76052,-2.80418,0.32557,0.90259
385.004,43.81855,-2.80995,0.3005,0.90226
385.604,43.87634,-2.81651,0.27771,0.90192
386.204,43.93397,-2.82291,0.25605,0.90159
386.804,43.99151,-2.82786,0.23819,0.90126
387.404,44.0492,-2.83251,0.21795,0.90093
388.004,44.1071,-2.83661,0.20348,0.90059
388.604,44.16517,-2.84052,0.19017,0.90026
389.204,44.2233,-2.8442,0.17889,0.89993
389.804,44.28135,-2.84857,0.16546,0.89959
390.404,44.33938,-2.85078,0.15769,0.89926
391.004,44.39757,-2.85422,0.15118,0.89893
391.604,44.45576,-2.85565,0.14324,0.89859
392.204,44.5142,-2.85846,0.14045,0.89826
392.804,44.57264,-2.86127,0.13517,0.89792
393.404,44.6311,-2.86356,0.13335,0.89759
394.004,44.68953,-2.86563,0.12954,0.89725
394.604,44.748,-2.86878,0.1254,0.89692
395.204,44.80655,-2.86998,0.12249,0.89658
395.804,44.8651,-2.87254,0.12007,0.89625
396.404,44.92353,-2.8749,0.11959,0.89591
397.004,44.98192,-2.87666,0.11857,0.89557
397.604,45.04017,-2.87862,0.1148,0.89524
398.204,45.09841,-2.8799,0.11471,0.8949
398.804,45.15668,-2.88113,0.114,0.89456
399.404,45.21497,-2.88397,0.11243,0.89423
400.004,45.27328,-2.88539,0.11273,0.89389
400.604,45.33162,-2.8883,0.10705,0.89355
401.204,45.3898,-2.88944,0.10611,0.89321
401.804,45.44813,-2.892,0.10891,0.89288
402.404,45.50651,-2.89325,0.1038,0.89254
403.004,45.56472,-2.89575,0.1034,0.8922
403.604,45.62325,-2.8979,0.10151,0.89186
404.204,45.6815,-2.8997,0.10104,0.89152
404.804,45.7399,-2.90208,0.10004,0.89118
405.404,45.79833,-2.90391,0.10106,0.89084
406.004,45.8567,-2.90606,0.09542513,0.8905
406.604,45.91502,-2.9067,0.09671644,0.89016
407.204,45.97331,-2.90814,0.09289861,0.88982
407.804,46.03178,-2.90955,0.09069437,0.88948
408.404,46.0903,-2.9111,0.09234356,0.88914
409.004,46.1488,-2.91339,0.09223659,0.8888
409.604,46.20714,-2.91469,0.08795292,0.88846
410.204,46.26553,-2.9172,0.08610392,0.88812
410.804,46.32391,-2.91816,0.08399676,0.88778
411.404,46.3824,-2.92009,0.08430307,0.88744
412.004,46.44095,-2.92203,0.08023693,0.8871
412.604,46.4994,-2.92333,0.07981404,0.88675
413.204,46.55809,-2.92546,0.080399,0.88641
413.804,46.6167,-2.92607,0.07540323,0.88607
414.404,46.67542,-2.92883,0.07647523,0.88573
415.004,46.7341,-2.93047,0.07454229,0.88538
415.604,46.79274,-2.93276,0.07377786,0.88504
416.204,46.8514,-2.93416,0.07155344,0.8847
416.804,46.9101,-2.93576,0.07023896,0.88435
417.404,46.9685,-2.9383,0.06962235,0.88401
418.004,47.02715,-2.93959,0.06725056,0.88367
418.604,47.08597,-2.9409,0.06551493,0.88332
419.204,47.14479,-2.94239,0.06342221,0.88298
419.804,47.20369,-2.94501,0.06128374,0.88263
420.404,47.26271,-2.94586,0.06293902,0.88229
421.004,47.32175,-2.94715,0.06051363,0.88194
421.604,47.38054,-2.94896,0.06195351,0.8816
422.204,47.43958,-2.95062,0.0605759,0.88125
422.804,47.4985,-2.95226,0.05622357,0.8809
423.404,47.55775,-2.95418,0.05483909,0.88056
424.004,47.61676,-2.95549,0.05245412,0.88021
424.604,47.67559,-2.95786,0.05232998,0.87986
425.204,47.7346,-2.96011,0.05117927,0.87952
425.804,47.7936,-2.96151,0.05004847,0.87917
426.404,47.8525,-2.96286,0.054239,0.87882
427.004,47.91151,-2.96426,0.05162985,0.87847
427.604,47.97039,-2.96692,0.04826232,0.87813
428.204,48.02912,-2.96834,0.04836724,0.87778
428.804,48.08753,-2.96964,0.04973176,0.87743
429.404,48.1463,-2.97156,0.04733774,0.87708
430.004,48.20493,-2.9736,0.04685706,0.87673
430.604,48.2637,-2.97483,0.04506839,0.87638
431.204,48.3227,-2.97644,0.04731491,0.87603
431.804,48.3815,-2.979,0.04411571,0.87568
432.404,48.44025,-2.98028,0.04368021,0.87533
433.004,48.49927,-2.9816,0.04737815,0.87498
433.604,48.55823,-2.98209,0.04774126,0.87463
434.204,48.61695,-2.9845,0.0460654,0.87428
434.804,48.6753,-2.98631,0.04751544,0.87393
435.404,48.73411,-2.98862,0.04783796,0.87358
436.004,48.7929,-2.98855,0.04763948,0.87323
436.604,48.85164,-2.99005,0.04664303,0.87288
437.204,48.91052,-2.99269,0.04690626,0.87252
437.804,48.96927,-2.99408,0.04966482,0.87217
438.404,49.0281,-2.99704,0.05105238,0.87182
439.004,49.08697,-2.99852,0.05079115,0.87147
439.604,49.14595,-2.99984,0.05079581,0.87111
440.204,49.2049,-3.0011,0.05167306,0.87076
440.804,49.26365,-3.00243,0.0523259,0.87041
441.404,49.32241,-3.00374,0.05361697,0.87005
442.004,49.38106,-3.00374,0.05337341,0.8697
442.604,49.4397,-3.00637,0.05452987,0.86934
443.204,49.49857,-3.00771,0.05636371,0.86899
443.804,49.55741,-3.00946,0.0553938,0.86863
444.404,49.61637,-3.01199,0.06307172,0.86828
445.004,49.6753,-3.0132,0.05800905,0.86792
445.604,49.73438,-3.0145,0.06122101,0.86757
446.204,49.7937,-3.01575,0.06260281,0.86721
446.804,49.85275,-3.01725,0.06361285,0.86686
447.404,49.91189,-3.01853,0.06719115,0.8665
448.004,49.97096,-3.01983,0.06355774,0.86614
448.604,50.0301,-3.02207,0.06827609,0.86579
449.204,50.08935,-3.02502,0.07047869,0.86543
449.804,50.1485,-3.02506,0.07427769,0.86507
450.404,50.2076,-3.02633,0.07302508,0.86471
451.004,50.26663,-3.02772,0.07499313,0.86435
451.604,50.32571,-3.02775,0.07671329,0.864
452.204,50.38501,-3.03004,0.07800269,0.86364
452.804,50.44428,-3.03157,0.07854895,0.86328
453.404,50.50359,-3.03301,0.07988929,0.86292
454.004,50.5629,-3.03435,0.08424317,0.86256
454.604,50.62223,-3.03568,0.0855121,0.8622
455.204,50.68145,-3.03564,0.08523907,0.86184
455.804,50.74068,-3.03738,0.08702948,0.86148
456.404,50.79997,-3.03962,0.08902546,0.86112
457.004,50.8591,-3.04093,0.09145404,0.86076
457.604,50.9182,-3.04228,0.09352495,0.8604
458.204,50.97736,-3.04269,0.0943104,0.86004
458.804,51.03653,-3.0436,0.09584286,0.85967
459.404,51.0959,-3.04487,0.09706819,0.85931
460.004,51.15509,-3.04611,0.09910506,0.85895
460.604,51.21419,-3.04744,0.1007,0.85859
461.204,51.27325,-3.04883,0.10171,0.85823
461.804,51.33238,-3.04963,0.1022,0.85786
462.404,51.39164,-3.05153,0.10524,0.8575
463.004,51.45092,-3.05278,0.10562,0.85714
463.604,51.5099,-3.05409,0.10842,0.85677
464.204,51.56902,-3.05411,0.10836,0.85641
464.804,51.62832,-3.05541,0.10975,0.85604
465.404,51.68738,-3.05671,0.11133,0.85568
466.004,51.747,-3.05745,0.11567,0.85531
466.604,51.80615,-3.05838,0.11579,0.85495
467.204,51.8654,-3.059,0.11875,0.85458
467.804,51.92457,-3.06051,0.11912,0.85422
468.404,51.9837,-3.06068,0.1187,0.85385
469.004,52.043,-3.06288,0.1206,0.85348
469.604,52.10226,-3.06331,0.12311,0.85312
470.204,52.16165,-3.06365,0.12404,0.85275
470.804,52.221,-3.06463,0.12679,0.85238
471.404,52.28025,-3.06595,0.12846,0.85202
472.004,52.33952,-3.06825,0.12547,0.85165
472.604,52.39869,-3.06825,0.12747,0.85128
473.204,52.4577,-3.06958,0.12656,0.85091
473.804,52.51687,-3.06977,0.1297,0.85054
474.404,52.5761,-3.06957,0.1315,0.85017
475.004,52.6355,-3.07048,0.13189,0.8498
475.604,52.69486,-3.07088,0.13258,0.84943
476.204,52.75407,-3.07085,0.13462,0.84906
476.804,52.8133,-3.07353,0.13709,0.84869
477.404,52.87254,-3.07483,0.13373,0.84832
478.004,52.9321,-3.07618,0.13641,0.84795
478.604,52.9914,-3.07723,0.13723,0.84758
479.204,53.0508,-3.07788,0.13813,0.84721
479.804,53.11017,-3.07747,0.13966,0.84684
480.404,53.1695,-3.07907,0.14023,0.84647
481.004,53.22883,-3.08004,0.1414,0.8461
481.604,53.2883,-3.0814,0.14318,0.84572
482.204,53.34765,-3.08206,0.14339,0.84535
482.804,53.40701,-3.08342,0.14471,0.84498
483.404,53.4664,-3.08339,0.14558,0.8446
484.004,53.5256,-3.08339,0.14916,0.84423
484.604,53.585,-3.08472,0.14711,0.84386
485.204,53.64427,-3.08476,0.14864,0.84348
485.804,53.70366,-3.08633,0.15053,0.84311
486.404,53.7629,-3.08734,0.15003,0.84273
487.004,53.82225,-3.08867,0.15212,0.84236
487.604,53.88166,-3.08866,0.15215,0.84198
488.204,53.94104,-3.08997,0.15339,0.84161
488.804,54.00054,-3.08998,0.15214,0.84123
489.404,54.06,-3.09063,0.15396,0.84085
490.004,54.11945,-3.09194,0.15377,0.84048
490.604,54.1788,-3.09195,0.15589,0.8401
491.204,54.23817,-3.09427,0.15686,0.83972
491.804,54.29758,-3.09547,0.15565,0.83935
492.404,54.357,-3.09559,0.15609,0.83897
493.004,54.41636,-3.09688,0.15595,0.83859
493.604,54.47583,-3.09829,0.15969,0.83821
494.204,54.5352,-3.09688,0.16083,0.83783
494.804,54.59449,-3.09688,0.15831,0.83745
495.404,54.65404,-3.0982,0.16161,0.83707
496.004,54.7137,-3.0995,0.16348,0.83669
496.604,54.7735,-3.10019,0.16182,0.83631
497.204,54.833,-3.10149,0.16182,0.83593
497.804,54.8922,-3.1015,0.16244,0.83555
498.404,54.95145,-3.10209,0.1646,0.83517
499.004,55.01073,-3.10214,0.16354,0.83479
499.604,55.0702,-3.10346,0.16573,0.83441
500.204,55.12961,-3.10478,0.16671,0.83403
500.804,55.18916,-3.10478,0.16245,0.83365
501.404,55.2484,-3.10609,0.16629,0.83326
502.004,55.3078,-3.10609,0.1662,0.83288
502.604,55.3673,-3.1074,0.16627,0.8325
503.204,55.4269,-3.10736,0.16662,0.83212
503.804,55.486,-3.10873,0.16922,0.83173
504.404,55.54498,-3.10872,0.17102,0.83135
505.004,55.60397,-3.11004,0.16953,0.83096
505.604,55.6633,-3.11004,0.17271,0.83058
506.204,55.7234,-3.11032,0.17528,0.83019
506.804,55.78334,-3.11139,0.17772,0.82981
507.404,55.84332,-3.11267,0.18097,0.82942
508.004,55.90311,-3.11331,0.18412,0.82904
508.604,55.9626,-3.11399,0.18642,0.82865
509.204,56.0223,-3.11531,0.19139,0.82826
509.804,56.08184,-3.11661,0.19174,0.82788
510.404,56.1412,-3.11697,0.19486,0.82749
511.004,56.20069,-3.11695,0.1961,0.8271
511.604,56.26039,-3.11731,0.20021,0.82672
512.204,56.31989,-3.11827,0.20362,0.82633
512.804,56.37965,-3.1196,0.20627,0.82594
513.404,56.43915,-3.11959,0.20564,0.82555
514.004,56.49865,-3.12013,0.20897,0.82516
514.604,56.55822,-3.1209,0.21216,0.82477
515.204,56.61781,-3.12173,0.21227,0.82438
515.804,56.6774,-3.12189,0.21208,0.82399
516.404,56.7369,-3.12323,0.21376,0.8236
517.004,56.79635,-3.1232,0.21722,0.82321
517.604,56.85586,-3.12448,0.21597,0.82282
518.204,56.9154,-3.12447,0.21505,0.82243
518.804,56.9751,-3.12584,0.21786,0.82204
519.404,57.0347,-3.12584,0.2206,0.82165
520.004,57.0944,-3.1258,0.22167,0.82126
520.604,57.15421,-3.12715,0.22276,0.82086
521.204,57.2139,-3.12739,0.22438,0.82047
521.804,57.27346,-3.12848,0.22493,0.82008
522.404,57.33299,-3.12869,0.2285,0.81968
523.004,57.3926,-3.12847,0.22743,0.81929
523.604,57.4521,-3.12979,0.23035,0.8189
524.204,57.51149,-3.1311,0.23314,0.8185
524.804,57.5711,-3.13114,0.23181,0.81811
525.404,57.63051,-3.13242,0.23428,0.81771
526.004,57.6901,-3.13242,0.23737,0.81732
526.604,57.74971,-3.13241,0.23771,0.81692
527.204,57.8093,-3.13373,0.24064,0.81653
527.804,57.869,-3.13373,0.23867,0.81613
528.404,57.9286,-3.13459,0.23968,0.81573
529.004,57.98805,-3.13505,0.24255,0.81534
529.604,58.0477,-3.13583,0.24454,0.81494
530.204,58.10736,-3.13702,0.24665,0.81454
530.804,58.1671,-3.13769,0.24838,0.81414
531.404,58.2266,-3.13872,0.24803,0.81375
532.004,58.28615,-3.13965,0.24744,0.81335
532.604,58.3459,-3.13965,0.24826,0.81295
533.204,58.40569,-3.13965,0.25105,0.81255
533.804,58.46561,-3.13975,0.25018,0.81215
534.404,58.52536,-3.13998,0.25264,0.81175
535.004,58.58506,-3.14124,0.25142,0.81135
535.604,58.6448,-3.1413,0.24999,0.81095
536.204,58.70456,-3.1414,0.25453,0.81055
536.804,58.7643,-3.14294,0.25354,0.81015
537.404,58.82394,-3.14294,0.25446,0.80975
538.004,58.88354,-3.14297,0.25344,0.80935
538.604,58.94305,-3.14426,0.25272,0.80894
539.204,59.0027,-3.14556,0.25357,0.80854
539.804,59.0623,-3.14558,0.25315,0.80814
540.404,59.12206,-3.14559,0.25053,0.80774
541.004,59.18179,-3.14689,0.25231,0.80733
541.604,59.24139,-3.14767,0.24876,0.80693
542.204,59.30101,-3.14821,0.24598,0.80652
542.804,59.36071,-3.14821,0.24261,0.80612
543.404,59.42055,-3.14951,0.24018,0.80572
544.004,59.4802,-3.14952,0.23698,0.80531
544.604,59.53997,-3.15084,0.23569,0.8049
545.204,59.59956,-3.1515,0.2388,0.8045
545.804,59.6594,-3.1515,0.23469,0.80409
546.404,59.71911,-3.15284,0.2322,0.80369
547.004,59.7789,-3.15412,0.23514,0.80328
547.604,59.8384,-3.15413,0.23474,0.80287
548.204,59.89773,-3.15299,0.2321,0.80247
548.804,59.9572,-3.15416,0.23205,0.80206
549.404,60.0168,-3.15545,0.23183,0.80165
550.004,60.0768,-3.15676,0.23022,0.80124
550.604,60.1369,-3.1568,0.22971,0.80083
551.204,60.19698,-3.15563,0.2298,0.80042
551.804,60.25695,-3.15613,0.22938,0.80002
552.404,60.3168,-3.15676,0.22884,0.79961
553.004,60.3767,-3.15666,0.22949,0.7992
553.604,60.4366,-3.1594,0.22881,0.79879
554.204,60.49663,-3.1594,0.22966,0.79838
554.804,60.5565,-3.15807,0.2266,0.79796
555.404,60.6166,-3.15937,0.22883,0.79755
556.004,60.6768,-3.16006,0.23108,0.79714
556.604,60.7369,-3.16071,0.2308,0.79673
557.204,60.79691,-3.16064,0.22857,0.79632
557.804,60.8568,-3.16196,0.232,0.79591
558.404,60.91675,-3.16203,0.22975,0.79549
559.004,60.9767,-3.16107,0.23043,0.79508
559.604,61.0367,-3.16118,0.22916,0.79467
560.204,61.0966,-3.16236,0.2285,0.79425
560.804,61.1562,-3.16235,0.22816,0.79384
561.404,61.21594,-3.16368,0.22763,0.79342
562.004,61.2758,-3.16362,0.22675,0.79301
562.604,61.33583,-3.16468,0.22579,0.79259
563.204,61.3961,-3.165,0.22725,0.79218
563.804,61.45644,-3.16671,0.23068,0.79176
564.404,61.51667,-3.16664,0.23026,0.79135
565.004,61.57691,-3.16795,0.22972,0.79093
565.604,61.63705,-3.16796,0.22731,0.79051
566.204,61.6973,-3.16796,0.22685,0.79009
566.804,61.7575,-3.1679,0.22705,0.78968
567.404,61.81775,-3.16795,0.22745,0.78926
568.004,61.8782,-3.16815,0.22631,0.78884
568.604,61.9388,-3.16927,0.2275,0.78842
569.204,61.9991,-3.16927,0.22636,0.788
569.804,62.0595,-3.16927,0.23027,0.78758
570.404,62.11942,-3.17191,0.22755,0.78716
571.004,62.17932,-3.17191,0.22637,0.78674
571.604,62.2391,-3.17059,0.22548,0.78632
572.204,62.299,-3.17054,0.22814,0.7859
572.804,62.359,-3.1719,0.22658,0.78548
573.404,62.41882,-3.17322,0.22785,0.78506
574.004,62.47883,-3.17322,0.22608,0.78464
574.604,62.5388,-3.17322,0.22566,0.78422
575.204,62.5988,-3.1741,0.22969,0.7838
575.804,62.6586,-3.17454,0.22689,0.78337
576.404,62.71865,-3.17476,0.22896,0.78295
577.004,62.7785,-3.17585,0.22967,0.78253
577.604,62.8385,-3.17585,0.22762,0.7821
578.204,62.8986,-3.17582,0.22813,0.78168
578.804,62.9587,-3.17717,0.22992,0.78126
579.404,63.0188,-3.17717,0.22766,0.78083
580.004,63.0788,-3.17773,0.22657,0.78041
580.604,63.13854,-3.17848,0.22765,0.77998
581.204,63.19856,-3.17849,0.2295,0.77956
581.804,63.2586,-3.17803,0.22838,0.77913
582.404,63.3187,-3.17881,0.22929,0.7787
583.004,63.37871,-3.18012,0.22755,0.77828
583.604,63.43871,-3.18013,0.22715,0.77785
584.204,63.4988,-3.18013,0.23032,0.77742
584.804,63.55885,-3.18013,0.22757,0.777
585.404,63.6188,-3.18013,0.23117,0.77657
586.004,63.6786,-3.18144,0.23088,0.77614
586.604,63.73831,-3.1814,0.2316,0.77571
587.204,63.79838,-3.18241,0.23113,0.77528
587.804,63.8584,-3.18368,0.23058,0.77485
588.404,63.91899,-3.18507,0.23226,0.77442
589.004,63.9791,-3.18374,0.23054,0.77399
589.604,64.0393,-3.18374,0.22927,0.77356
590.204,64.09952,-3.1857,0.23075,0.77313
590.804,64.1597,-3.18572,0.22767,0.7727
591.404,64.21984,-3.18572,0.22656,0.77227
592.004,64.28012,-3.18704,0.22981,0.77184
592.604,64.34048,-3.18704,0.23111,0.77141
593.204,64.401,-3.1884,0.23019,0.77097
593.804,64.46095,-3.18835,0.23079,0.77054
594.404,64.52073,-3.18835,0.2302,0.77011
595.004,64.58094,-3.18834,0.22981,0.76968
595.604,64.6412,-3.18835,0.23402,0.76924
596.204,64.70185,-3.18917,0.23155,0.76881
596.804,64.7623,-3.18968,0.23022,0.76837
597.404,64.82245,-3.18966,0.23175,0.76794
598.004,64.88271,-3.19,0.22763,0.7675
598.604,64.9428,-3.19132,0.23187,0.76707
599.204,65.00286,-3.19268,0.23123,0.76663
599.804,65.063,-3.19263,0.23555,0.7662
600.404,65.1229,-3.19263,0.23172,0.76576
601.004,65.18281,-3.19263,0.23434,0.76532
601.604,65.24269,-3.19263,0.23313,0.76489
602.204,65.3027,-3.1938,0.23621,0.76445
602.804,65.3627,-3.19418,0.23496,0.76401
603.404,65.42268,-3.19494,0.23701,0.76357
604.004,65.48283,-3.19398,0.23785,0.76314
604.604,65.5429,-3.19459,0.23782,0.7627
605.204,65.60307,-3.19658,0.23691,0.76226
605.804,65.6631,-3.19658,0.23592,0.76182
606.404,65.7233,-3.19658,0.23655,0.76138
607.004,65.78339,-3.19735,0.23982,0.76094
607.604,65.8435,-3.19793,0.23894,0.7605
608.204,65.9036,-3.1982,0.24152,0.76006
608.804,65.9635,-3.19905,0.2436,0.75962
609.404,66.02375,-3.1979,0.24095,0.75918
610.004,66.08371,-3.19825,0.24248,0.75874
610.604,66.144,-3.19889,0.242,0.75829
611.204,66.2042,-3.20022,0.24108,0.75785
611.804,66.26419,-3.20042,0.24392,0.75741
612.404,66.3244,-3.20152,0.24388,0.75697
613.004,66.38465,-3.20152,0.24389,0.75652
613.604,66.44505,-3.20258,0.24355,0.75608
614.204,66.50482,-3.20259,0.24553,0.75563
614.804,66.5647,-3.20152,0.24576,0.75519
615.404,66.62437,-3.20152,0.24964,0.75475
616.004,66.6846,-3.20281,0.24731,0.7543
616.604,66.74486,-3.20281,0.24666,0.75385
617.204,66.80521,-3.20316,0.24959,0.75341
617.804,66.86572,-3.20316,0.24652,0.75296
618.404,66.9261,-3.2033,0.249,0.75252
619.004,66.98631,-3.20414,0.24868,0.75207
619.604,67.04674,-3.20547,0.25172,0.75162
620.204,67.1075,-3.20547,0.25008,0.75118
620.804,67.16845,-3.20576,0.25231,0.75073
621.404,67.22917,-3.2064,0.25169,0.75028
622.004,67.2895,-3.2068,0.25562,0.74983
622.604,67.34942,-3.20546,0.25432,0.74938
623.204,67.4095,-3.20678,0.25358,0.74893
623.804,67.46976,-3.20744,0.25523,0.74849
624.404,67.53002,-3.20777,0.2546,0.74804
625.004,67.5903,-3.20777,0.25873,0.74759
625.604,67.65048,-3.20942,0.25721,0.74714
626.204,67.71078,-3.20942,0.25789,0.74668
626.804,67.771,-3.20942,0.26023,0.74623
627.404,67.8314,-3.20974,0.25908,0.74578
628.004,67.89153,-3.20974,0.26105,0.74533
628.604,67.95189,-3.20941,0.26105,0.74488
629.204,68.01209,-3.21081,0.26074,0.74443
629.804,68.07254,-3.21074,0.26163,0.74397
630.404,68.1329,-3.21009,0.26124,0.74352
631.004,68.19334,-3.21139,0.26164,0.74307
631.604,68.25367,-3.21139,0.26177,0.74261
632.204,68.3141,-3.21144,0.25986,0.74216
632.804,68.37456,-3.21402,0.26363,0.74171
633.404,68.435,-3.21402,0.26113,0.74125
634.004,68.49544,-3.2127,0.26379,0.7408
634.604,68.55593,-3.21271,0.26381,0.74034
635.204,68.61646,-3.21414,0.2635,0.73989
635.804,68.6772,-3.21501,0.26209,0.73943
636.404,68.73783,-3.21542,0.26294,0.73897
637.004,68.79861,-3.21403,0.26207,0.73852
637.604,68.8592,-3.21598,0.26094,0.73806
638.204,68.91975,-3.21599,0.262,0.7376
638.804,68.98039,-3.21733,0.26116,0.73714
639.404,69.04091,-3.21596,0.26189,0.73669
640.004,69.10164,-3.216,0.26097,0.73623
640.604,69.1623,-3.21602,0.26219,0.73577
641.204,69.22301,-3.21731,0.26175,0.73531
641.804,69.28368,-3.21866,0.2659,0.73485
642.404,69.34428,-3.21765,0.26214,0.73439
643.004,69.40482,-3.21771,0.26541,0.73393
643.604,69.4654,-3.21896,0.26671,0.73347
644.204,69.52597,-3.21896,0.26371,0.73301
644.804,69.58665,-3.21896,0.26594,0.73255
645.404,69.64731,-3.22033,0.26472,0.73209
646.004,69.7079,-3.22028,0.26759,0.73163
646.604,69.76856,-3.22028,0.26655,0.73117
647.204,69.82929,-3.22126,0.26642,0.7307
647.804,69.88996,-3.22126,0.26695,0.73024
648.404,69.9508,-3.22257,0.26456,0.72978
649.004,70.01148,-3.22192,0.26875,0.72932
649.604,70.07206,-3.22128,0.26924,0.72885
650.204,70.13287,-3.22258,0.27192,0.72839
650.804,70.19343,-3.22258,0.27519,0.72792
651.404,70.25402,-3.22185,0.27304,0.72746
652.004,70.3145,-3.22192,0.27655,0.727
652.604,70.3751,-3.22191,0.27207,0.72653
653.204,70.43541,-3.22324,0.27674,0.72607
653.804,70.4956,-3.22324,0.27635,0.7256
654.404,70.55586,-3.22324,0.27619,0.72513
655.004,70.61609,-3.22454,0.27654,0.72467
655.604,70.6764,-3.22587,0.27603,0.7242
656.204,70.73671,-3.22594,0.27694,0.72373
656.804,70.7971,-3.22455,0.27601,0.72327
657.404,70.85732,-3.2259,0.27807,0.7228
658.004,70.91766,-3.22587,0.28092,0.72233
658.604,70.97798,-3.22587,0.28209,0.72186
659.204,71.03834,-3.22718,0.28266,0.72139
659.804,71.09878,-3.22719,0.28299,0.72092
660.404,71.1592,-3.22719,0.28541,0.72046
661.004,71.21979,-3.22719,0.28346,0.71999
661.604,71.2805,-3.22719,0.28428,0.71952
662.204,71.3413,-3.2285,0.28606,0.71905
662.804,71.40194,-3.2285,0.28937,0.71858
663.404,71.46245,-3.2285,0.28969,0.7181
664.004,71.52287,-3.2285,0.29041,0.71763
664.604,71.58346,-3.2285,0.28877,0.71716
665.204,71.64397,-3.2285,0.29005,0.71669
665.804,71.70458,-3.22887,0.28884,0.71622
666.404,71.76513,-3.22916,0.29295,0.71575
667.004,71.82567,-3.22916,0.29513,0.71527
667.604,71.88627,-3.22916,0.29386,0.7148
668.204,71.94678,-3.22906,0.29663,0.71433
668.804,72.0073,-3.23047,0.29789,0.71385
669.404,72.06772,-3.23039,0.2986,0.71338
670.004,72.12825,-3.23179,0.29457,0.7129
670.604,72.18851,-3.23179,0.29503,0.71243
671.204,72.24857,-3.23179,0.29659,0.71195
671.804,72.30885,-3.23179,0.29557,0.71148
672.404,72.36912,-3.23179,0.29862,0.711
673.004,72.42992,-3.23245,0.29981,0.71053
673.604,72.4901,-3.23245,0.30107,0.71005
674.204,72.55036,-3.23245,0.30285,0.70958
674.804,72.6104,-3.23245,0.30538,0.7091
675.404,72.67034,-3.23245,0.30652,0.70862
676.004,72.73048,-3.23248,0.30347,0.70814
676.604,72.7909,-3.23244,0.30647,0.70767
677.204,72.85173,-3.23278,0.30644,0.70719
677.804,72.9124,-3.23278,0.31109,0.70671
678.404,72.97284,-3.23274,0.31064,0.70623
679.004,73.03349,-3.23389,0.31239,0.70575
679.604,73.09415,-3.23479,0.30961,0.70527
680.204,73.15468,-3.23607,0.31012,0.70479
680.804,73.21511,-3.23607,0.31252,0.70431
681.404,73.27561,-3.23606,0.31226,0.70383
682.004,73.3361,-3.23476,0.31283,0.70335
682.604,73.39659,-3.23466,0.31433,0.70287
683.204,73.45716,-3.23607,0.31669,0.70239
683.804,73.5176,-3.23607,0.31641,0.70191
684.404,73.57817,-3.23509,0.31843,0.70143
685.004,73.63855,-3.2364,0.31878,0.70095
685.604,73.69898,-3.2364,0.31689,0.70046
686.204,73.75907,-3.2364,0.31878,0.69998
686.804,73.8193,-3.23641,0.32077,0.6995
687.404,73.87975,-3.23772,0.32129,0.69901
688.004,73.94014,-3.23772,0.31917,0.69853
688.604,74.00131,-3.23772,0.32072,0.69805
689.204,74.06189,-3.23739,0.32117,0.69756
689.804,74.1225,-3.23741,0.32202,0.69708
690.404,74.1832,-3.23498,0.31975,0.69659
691.004,74.24367,-3.23183,0.31933,0.69611
691.604,74.30425,-3.22854,0.32247,0.69562
692.204,74.36475,-3.22771,0.32291,0.69514
692.804,74.4254,-3.22929,0.32329,0.69465
693.404,74.48613,-3.23224,0.32453,0.69416
694.004,74.54675,-3.23345,0.32201,0.69368
694.604,74.60745,-3.23666,0.32452,0.69319
695.204,74.66803,-3.23726,0.32561,0.6927
695.804,74.72875,-3.23982,0.32855,0.69222
696.404,74.78954,-3.24173,0.32809,0.69173
697.004,74.85036,-3.24276,0.33353,0.69124
697.604,74.9115,-3.24147,0.32982,0.69075
698.204,74.97247,-3.24352,0.33411,0.69026
698.804,75.03365,-3.24592,0.33782,0.68977
699.404,75.09467,-3.24693,0.33751,0.68929
700.004,75.1558,-3.24632,0.34205,0.6888
700.604,75.21704,-3.24526,0.3409,0.68831
701.204,75.27826,-3.24449,0.34012,0.68782
701.804,75.33963,-3.2432,0.34242,0.68733
702.404,75.40087,-3.2432,0.34517,0.68683
703.004,75.46211,-3.2432,0.3459,0.68634
703.604,75.52336,-3.242,0.34475,0.68585
704.204,75.5845,-3.24188,0.34097,0.68536
704.804,75.64536,-3.24318,0.34366,0.68487
705.404,75.70648,-3.24287,0.3408,0.68438
706.004,75.76736,-3.24287,0.3431,0.68388
706.604,75.82848,-3.24221,0.34413,0.68339
707.204,75.88905,-3.24221,0.34621,0.6829
707.804,75.95008,-3.24287,0.34769,0.6824
708.404,76.01131,-3.24419,0.34657,0.68191
709.004,76.07249,-3.24287,0.34797,0.68142
709.604,76.13385,-3.24288,0.34737,0.68092
710.204,76.1948,-3.24331,0.3493,0.68043
710.804,76.25565,-3.24548,0.35022,0.67993
711.404,76.31664,-3.24419,0.34904,0.67944
712.004,76.37729,-3.24463,0.34757,0.67894
712.604,76.43815,-3.24551,0.35127,0.67845
713.204,76.499,-3.24551,0.35427,0.67795
713.804,76.56003,-3.24551,0.35492,0.67746
714.404,76.6211,-3.24551,0.35278,0.67696
715.004,76.6816,-3.24618,0.34925,0.67646
715.604,76.74225,-3.24535,0.3538,0.67597
716.204,76.80265,-3.24518,0.35243,0.67547
716.804,76.86301,-3.24544,0.35295,0.67497
717.404,76.92371,-3.24819,0.35359,0.67447
718.004,76.98436,-3.24814,0.35426,0.67397
718.604,77.04517,-3.24814,0.35475,0.67348
719.204,77.10591,-3.24811,0.35698,0.67298
719.804,77.16657,-3.24682,0.35367,0.67248
720.404,77.2273,-3.24817,0.3558,0.67198
721.004,77.288,-3.24813,0.35448,0.67148
721.604,77.349,-3.24946,0.35374,0.67098
722.204,77.40997,-3.24814,0.35194,0.67048
722.804,77.47095,-3.24814,0.35188,0.66998
723.404,77.53191,-3.24814,0.35546,0.66948
724.004,77.59272,-3.2477,0.354,0.66898
724.604,77.6536,-3.24888,0.35546,0.66848
725.204,77.71444,-3.24879,0.35386,0.66797
725.804,77.77531,-3.24947,0.35506,0.66747
726.404,77.83641,-3.25044,0.35518,0.66697
727.004,77.89745,-3.25044,0.35576,0.66647
727.604,77.95838,-3.25044,0.35728,0.66597
728.204,78.01921,-3.25044,0.35688,0.66546
728.804,78.07998,-3.25044,0.35571,0.66496
729.404,78.14064,-3.25175,0.35766,0.66446
730.004,78.20149,-3.25172,0.35713,0.66395
730.604,78.26231,-3.25222,0.35372,0.66345
731.204,78.3234,-3.25243,0.35722,0.66294
731.804,78.38439,-3.25303,0.35727,0.66244
732.404,78.44495,-3.25436,0.3544,0.66193
733.004,78.50567,-3.25307,0.35706,0.66143
733.604,78.56649,-3.25307,0.35762,0.66092
734.204,78.6274,-3.25394,0.35892,0.66042
734.804,78.68826,-3.25307,0.35884,0.65991
735.404,78.74901,-3.25307,0.35799,0.65941
736.004,78.80971,-3.25241,0.35873,0.6589
736.604,78.87051,-3.25241,0.35575,0.65839
737.204,78.93135,-3.25242,0.35642,0.65789
737.804,78.9923,-3.25373,0.36293,0.65738
738.404,79.05322,-3.25374,0.36205,0.65687
739.004,79.11415,-3.25503,0.36322,0.65636
739.604,79.1747,-3.25406,0.36077,0.65586
740.204,79.23531,-3.25514,0.36159,0.65535
740.804,79.29597,-3.25543,0.36216,0.65484
741.404,79.35667,-3.25406,0.36753,0.65433
742.004,79.4174,-3.25406,0.36507,0.65382
742.604,79.4782,-3.25476,0.36605,0.65331
743.204,79.53886,-3.25669,0.36635,0.6528
743.804,79.5994,-3.2567,0.36445,0.65229
744.404,79.65998,-3.25636,0.36347,0.65178
745.004,79.7205,-3.25636,0.36741,0.65127
745.604,79.78139,-3.25638,0.36662,0.65076
746.204,79.8424,-3.25538,0.36756,0.65025
746.804,79.90321,-3.25538,0.36579,0.64974
747.404,79.96374,-3.25634,0.3684,0.64923
747.704,79.99299,-3.25669,0.36869,0.64897