File: 01_Data/Pine_Lap_Siding_Wood/STA/N2/10K_min/Pine_Lap_Siding_Wood_STA_N2_10KData_220318_R2.csv
##Temp./Â°C,Time/min,Mass loss(subtr.2)/mg,DSC(subtr.2)/(mW/mg),Sensit./(uV/mW)
49.691,10.01,-0.01536,0.02628186,1.07516
50.291,10.7241,-0.01654104,0.05859345,1.07485
50.891,10.91207,-0.01806106,0.0823217,1.07453
51.491,11.05565,-0.01648026,0.10274,1.07422
52.091,11.17597,-0.01637311,0.1206,1.07391
52.691,11.2822,-0.0174129,0.13687,1.0736
53.291,11.37845,-0.01698109,0.15265,1.07328
53.891,11.46855,-0.01801914,0.16432,1.07297
54.491,11.55464,-0.01820732,0.17573,1.07266
55.091,11.63659,-0.01658884,0.18519,1.07235
55.691,11.7159,-0.0178229,0.19454,1.07203
56.291,11.79306,-0.01973439,0.20062,1.07172
56.891,11.86806,-0.01913683,0.21076,1.07141
57.491,11.94163,-0.01995857,0.21702,1.0711
58.091,12.01332,-0.01928828,0.222,1.07079
58.691,12.08433,-0.01999513,0.22698,1.07047
59.291,12.1543,-0.02027046,0.23234,1.07016
59.891,12.2241,-0.01982308,0.2387,1.06985
60.491,12.29298,-0.01972103,0.24392,1.06954
61.091,12.36111,-0.01980251,0.24777,1.06923
61.691,12.4285,-0.0197504,0.25351,1.06892
62.291,12.49495,-0.01993433,0.25862,1.0686
62.891,12.56135,-0.02116754,0.26043,1.06829
63.491,12.6275,-0.02074958,0.26482,1.06798
64.091,12.69367,-0.01986112,0.26931,1.06767
64.691,12.75967,-0.02053207,0.27206,1.06736
65.291,12.8253,-0.02115357,0.2742,1.06705
65.891,12.89047,-0.02115204,0.27691,1.06674
66.491,12.95549,-0.02118363,0.28168,1.06642
67.091,13.02028,-0.02214572,0.28499,1.06611
67.691,13.0852,-0.02257799,0.28795,1.0658
68.291,13.14983,-0.02117107,0.28906,1.06549
68.891,13.21408,-0.02249068,0.29454,1.06518
69.491,13.2781,-0.02381859,0.29965,1.06487
70.091,13.34179,-0.0239094,0.30009,1.06456
70.691,13.40565,-0.02469028,0.30381,1.06425
71.291,13.4695,-0.02469453,0.30861,1.06394
71.891,13.53329,-0.02237406,0.30975,1.06363
72.491,13.59709,-0.02334689,0.31274,1.06331
73.091,13.66053,-0.02334537,0.31471,1.063
73.691,13.72396,-0.02335919,0.31676,1.06269
74.291,13.7875,-0.02597379,0.31949,1.06238
74.891,13.8505,-0.02600078,0.32167,1.06207
75.491,13.9138,-0.02600889,0.32529,1.06176
76.091,13.9767,-0.02638608,0.32987,1.06145
76.691,14.03953,-0.02731015,0.33113,1.06114
77.291,14.10203,-0.02651875,0.33495,1.06083
77.891,14.1639,-0.0272795,0.33833,1.06052
78.491,14.2262,-0.02862549,0.3399,1.06021
79.091,14.2885,-0.02994563,0.33945,1.0599
79.691,14.35085,-0.03127784,0.34276,1.05959
80.291,14.4128,-0.02995012,0.34407,1.05928
80.891,14.47468,-0.02995,0.34832,1.05897
81.491,14.53651,-0.02994293,0.34857,1.05866
82.091,14.5983,-0.03126939,0.34999,1.05835
82.691,14.65974,-0.03127,0.35147,1.05804
83.291,14.72093,-0.03126882,0.35266,1.05773
83.891,14.7821,-0.03257848,0.35241,1.05742
84.491,14.8432,-0.03257999,0.35546,1.05711
85.091,14.9042,-0.03341103,0.35381,1.0568
85.691,14.96526,-0.03634948,0.35695,1.05649
86.291,15.0262,-0.03631655,0.36021,1.05619
86.891,15.0871,-0.03455997,0.3593,1.05588
87.491,15.1479,-0.03455985,0.35785,1.05557
88.091,15.20849,-0.0348978,0.3594,1.05526
88.691,15.26879,-0.03677522,0.35949,1.05495
89.291,15.3289,-0.0385008,0.3599,1.05464
89.891,15.389,-0.03725685,0.35894,1.05433
90.491,15.449,-0.03714171,0.36023,1.05402
91.091,15.509,-0.0375251,0.35883,1.05371
91.691,15.569,-0.038847,0.35649,1.0534
92.291,15.62905,-0.03883064,0.35597,1.05309
92.891,15.68888,-0.03948607,0.35622,1.05279
93.491,15.7486,-0.03946994,0.3544,1.05248
94.091,15.80809,-0.0378342,0.35265,1.05217
94.691,15.8674,-0.03916077,0.35052,1.05186
95.291,15.927,-0.04155903,0.35186,1.05155
95.891,15.9863,-0.04179994,0.34826,1.05124
96.491,16.04569,-0.04086483,0.3479,1.05094
97.091,16.1051,-0.04183895,0.34843,1.05063
97.691,16.1643,-0.04179002,0.34554,1.05032
98.291,16.22381,-0.04179,0.34195,1.05001
98.891,16.28291,-0.04178943,0.34109,1.0497
99.491,16.3419,-0.04044591,0.33962,1.04939
100.091,16.40121,-0.04147067,0.33697,1.04909
100.691,16.4604,-0.04147,0.33698,1.04878
101.291,16.51969,-0.04146379,0.33505,1.04847
101.891,16.57904,-0.04179657,0.33414,1.04816
102.491,16.63801,-0.04310927,0.33281,1.04785
103.091,16.69674,-0.0430564,0.33153,1.04755
103.691,16.7557,-0.04545498,0.32955,1.04724
104.291,16.81456,-0.04404983,0.32911,1.04693
104.891,16.87356,-0.04409998,0.32588,1.04662
105.491,16.93267,-0.0441,0.32731,1.04632
106.091,16.9918,-0.04409999,0.32312,1.04601
106.691,17.0506,-0.04408955,0.32287,1.0457
107.291,17.10933,-0.04542006,0.32131,1.04539
107.891,17.16795,-0.04544902,0.32081,1.04509
108.491,17.2267,-0.04507596,0.32062,1.04478
109.091,17.2854,-0.04505396,0.31914,1.04447
109.691,17.34422,-0.04529073,0.31735,1.04417
110.291,17.40294,-0.04616276,0.31573,1.04386
110.891,17.46174,-0.04508997,0.31386,1.04355
111.491,17.52055,-0.04509019,0.3149,1.04324
112.091,17.57941,-0.04639676,0.31251,1.04294
112.691,17.63782,-0.04392957,0.31398,1.04263
113.291,17.69661,-0.04389211,0.31101,1.04232
113.891,17.75528,-0.04508044,0.31146,1.04202
114.491,17.81396,-0.04508001,0.31128,1.04171
115.091,17.87283,-0.04509492,0.30991,1.0414
115.691,17.93158,-0.04640033,0.31176,1.0411
116.291,17.9906,-0.04639754,0.30995,1.04079
116.891,18.04932,-0.0450902,0.31157,1.04048
117.491,18.10793,-0.04508805,0.31153,1.04018
118.091,18.16639,-0.04447616,0.31034,1.03987
118.691,18.2249,-0.04495458,0.31171,1.03956
119.291,18.28343,-0.04508996,0.31338,1.03926
119.891,18.34188,-0.04508721,0.31467,1.03895
120.491,18.4004,-0.04639962,0.3143,1.03865
121.091,18.45899,-0.04640025,0.31396,1.03834
121.691,18.51761,-0.04509628,0.31569,1.03803
122.291,18.57617,-0.04507997,0.31434,1.03773
122.891,18.63437,-0.04499735,0.31572,1.03742
123.491,18.69275,-0.04639604,0.31636,1.03712
124.091,18.75102,-0.04770917,0.31692,1.03681
124.691,18.80957,-0.04771,0.31586,1.0365
125.291,18.86797,-0.04770871,0.31828,1.0362
125.891,18.92631,-0.04639529,0.31551,1.03589
126.491,18.98467,-0.0459577,0.31947,1.03559
127.091,19.0431,-0.04673014,0.31889,1.03528
127.691,19.1014,-0.04811147,0.31858,1.03498
128.291,19.1599,-0.04771944,0.31898,1.03467
128.891,19.2183,-0.04772001,0.32077,1.03436
129.491,19.27672,-0.04777118,0.32143,1.03406
130.091,19.3353,-0.04640095,0.3213,1.03375
130.691,19.39366,-0.04647348,0.31941,1.03345
131.291,19.45208,-0.04640122,0.32169,1.03314
131.891,19.51043,-0.04676665,0.32209,1.03284
132.491,19.5687,-0.04771012,0.32134,1.03253
133.091,19.6267,-0.04771688,0.32074,1.03223
133.691,19.685,-0.04640173,0.32433,1.03192
134.291,19.74295,-0.04639577,0.32261,1.03162
134.891,19.80086,-0.0477192,0.32482,1.03131
135.491,19.85901,-0.04772,0.32539,1.03101
136.091,19.91716,-0.04772,0.32637,1.0307
136.691,19.97525,-0.04771636,0.32948,1.0304
137.291,20.03349,-0.0490261,0.32738,1.03009
137.891,20.0915,-0.04903175,0.3269,1.02979
138.491,20.14959,-0.04772012,0.32927,1.02948
139.091,20.20758,-0.04763772,0.32938,1.02918
139.691,20.26541,-0.04773198,0.32906,1.02887
140.291,20.32336,-0.04772001,0.32865,1.02857
140.891,20.38129,-0.04772619,0.33159,1.02826
141.491,20.4396,-0.04902944,0.33187,1.02796
142.091,20.49769,-0.04771687,0.33157,1.02765
142.691,20.55574,-0.04772013,0.33269,1.02735
143.291,20.61385,-0.04913691,0.33287,1.02705
143.891,20.67162,-0.0490704,0.33319,1.02674
144.491,20.72965,-0.04771814,0.33215,1.02644
145.091,20.78752,-0.04738912,0.33599,1.02613
145.691,20.8452,-0.04674713,0.33607,1.02583
146.291,20.90307,-0.04673001,0.33755,1.02552
146.891,20.96087,-0.04672996,0.33689,1.02522
147.491,21.0187,-0.0472821,0.33881,1.02492
148.091,21.07668,-0.04805018,0.33875,1.02461
148.691,21.13459,-0.04805028,0.34076,1.02431
149.291,21.1925,-0.0490779,0.34206,1.024
149.891,21.2503,-0.04770929,0.34321,1.0237
150.491,21.30799,-0.04851507,0.34196,1.0234
151.091,21.3658,-0.04936392,0.34393,1.02309
151.691,21.42363,-0.05032856,0.34319,1.02279
152.291,21.48149,-0.05069501,0.34335,1.02248
152.891,21.53915,-0.0506496,0.34622,1.02218
153.491,21.59662,-0.05029589,0.34466,1.02188
154.091,21.65416,-0.04936014,0.34735,1.02157
154.691,21.71173,-0.04825618,0.34994,1.02127
155.291,21.76942,-0.04802007,0.35161,1.02096
155.891,21.82728,-0.04946044,0.35263,1.02066
156.491,21.88512,-0.04805013,0.35177,1.02036
157.091,21.9427,-0.04804592,0.35498,1.02005
157.691,22.00045,-0.04903187,0.35332,1.01975
158.291,22.05799,-0.04902999,0.35315,1.01945
158.891,22.11557,-0.04903,0.35618,1.01914
159.491,22.173,-0.04903,0.35454,1.01884
160.091,22.23046,-0.04903034,0.35799,1.01854
160.691,22.28814,-0.04803406,0.35802,1.01823
161.291,22.34593,-0.04803999,0.35936,1.01793
161.891,22.40356,-0.04804,0.35948,1.01763
162.491,22.4612,-0.04804,0.36116,1.01732
163.091,22.5185,-0.04804005,0.36147,1.01702
163.691,22.57594,-0.0483719,0.36144,1.01672
164.291,22.6335,-0.04936354,0.3644,1.01641
164.891,22.6911,-0.04960269,0.36476,1.01611
165.491,22.74889,-0.04936046,0.36559,1.01581
166.091,22.80656,-0.04935934,0.36549,1.0155
166.691,22.8641,-0.04904564,0.36546,1.0152
167.291,22.92139,-0.05002719,0.3665,1.0149
167.891,22.97891,-0.05002365,0.36952,1.01459
168.491,23.0363,-0.04984343,0.36968,1.01429
169.091,23.09382,-0.04935987,0.36958,1.01399
169.691,23.1513,-0.04936,0.36826,1.01369
170.291,23.20893,-0.04936,0.36836,1.01338
170.891,23.26664,-0.04935998,0.37154,1.01308
171.491,23.3241,-0.04931767,0.37298,1.01278
172.091,23.3815,-0.05067933,0.37274,1.01247
172.691,23.4388,-0.05068,0.37165,1.01217
173.291,23.49618,-0.05068004,0.37315,1.01187
173.891,23.55382,-0.05075413,0.37325,1.01157
174.491,23.61134,-0.04936008,0.37737,1.01126
175.091,23.66884,-0.04936,0.37639,1.01096
175.691,23.72632,-0.04936,0.37721,1.01066
176.291,23.78369,-0.04936,0.37621,1.01035
176.891,23.84105,-0.04936266,0.38068,1.01005
177.491,23.8984,-0.05067579,0.37879,1.00975
178.091,23.95591,-0.05068,0.37877,1.00945
178.691,24.01343,-0.05068,0.38006,1.00914
179.291,24.07099,-0.05068,0.38089,1.00884
179.891,24.12829,-0.05067929,0.38218,1.00854
180.491,24.18535,-0.04932402,0.38215,1.00824
181.091,24.24233,-0.04936998,0.38294,1.00793
181.691,24.29948,-0.04937013,0.38202,1.00763
182.291,24.3564,-0.05200859,0.38375,1.00733
182.891,24.41379,-0.05198998,0.3841,1.00703
183.491,24.47108,-0.05197048,0.38618,1.00672
184.091,24.52892,-0.05136661,0.38685,1.00642
184.691,24.58697,-0.05067978,0.38557,1.00612
185.291,24.6451,-0.05068,0.38638,1.00582
185.891,24.70266,-0.05068,0.38512,1.00551
186.491,24.75996,-0.05068,0.38887,1.00521
187.091,24.81723,-0.05068175,0.39,1.00491
187.691,24.87442,-0.05200678,0.38835,1.00461
188.291,24.93158,-0.05198014,0.39,1.0043
188.891,24.9888,-0.05104053,0.39033,1.004
189.491,25.0459,-0.04969129,0.39192,1.0037
190.091,25.1034,-0.05235568,0.3938,1.0034
190.691,25.16075,-0.05233,0.39694,1.00309
191.291,25.21816,-0.05233,0.39622,1.00279
191.891,25.27561,-0.05233026,0.3981,1.00249
192.491,25.33267,-0.05145051,0.39851,1.00219
193.091,25.38984,-0.05232077,0.39842,1.00189
193.691,25.44705,-0.05114283,0.39856,1.00158
194.291,25.50431,-0.05114814,0.40031,1.00128
194.891,25.56183,-0.05133996,0.40181,1.00098
195.491,25.61916,-0.05133977,0.4007,1.00068
196.091,25.6763,-0.0524252,0.40238,1.00037
196.691,25.7334,-0.05332122,0.40515,1.00007
197.291,25.7906,-0.05332003,0.40462,0.99977
197.891,25.84786,-0.0541994,0.40563,0.99947
198.491,25.9051,-0.05462108,0.40698,0.99916
199.091,25.96257,-0.05463,0.40745,0.99886
199.691,26.01981,-0.05463,0.4088,0.99856
200.291,26.07689,-0.05463,0.41019,0.99826
200.891,26.1342,-0.05462849,0.40818,0.99796
201.491,26.19118,-0.05331577,0.41024,0.99765
202.091,26.24812,-0.05332001,0.41183,0.99735
202.691,26.30537,-0.05332001,0.4106,0.99705
203.291,26.36255,-0.05333914,0.41219,0.99675
203.891,26.41992,-0.05462834,0.414,0.99644
204.491,26.4772,-0.05594116,0.41303,0.99614
205.091,26.5344,-0.05521964,0.4144,0.99584
205.691,26.5915,-0.0556439,0.41623,0.99554
206.291,26.64889,-0.05590156,0.41671,0.99524
206.891,26.7062,-0.0575799,0.41555,0.99493
207.491,26.76363,-0.05759,0.41908,0.99463
208.091,26.82088,-0.05759008,0.41763,0.99433
208.691,26.8781,-0.05820442,0.41925,0.99403
209.291,26.9353,-0.05823997,0.42075,0.99372
209.891,26.9924,-0.05824,0.41931,0.99342
210.491,27.0497,-0.0582411,0.4209,0.99312
211.091,27.10678,-0.06088132,0.42205,0.99282
211.691,27.16406,-0.06087849,0.42486,0.99251
212.291,27.2214,-0.0615356,0.42422,0.99221
212.891,27.2787,-0.06154,0.42652,0.99191
213.491,27.33615,-0.06154,0.42643,0.99161
214.091,27.39347,-0.06154,0.42646,0.9913
214.691,27.4507,-0.06154,0.42721,0.991
215.291,27.5079,-0.06154,0.42869,0.9907
215.891,27.56513,-0.06154,0.42772,0.9904
216.491,27.6224,-0.06154006,0.43125,0.9901
217.091,27.67979,-0.06152874,0.43166,0.98979
217.691,27.7371,-0.06334912,0.43258,0.98949
218.291,27.79438,-0.06351423,0.43408,0.98919
218.891,27.85173,-0.064902,0.43635,0.98889
219.491,27.9091,-0.06757136,0.4341,0.98858
220.091,27.9664,-0.06699225,0.43683,0.98828
220.691,28.02376,-0.06558345,0.43748,0.98798
221.291,28.08095,-0.06559,0.43837,0.98768
221.891,28.1382,-0.06558964,0.43797,0.98737
222.491,28.19535,-0.06688674,0.43816,0.98707
223.091,28.25252,-0.06691015,0.43969,0.98677
223.691,28.3098,-0.06789252,0.44173,0.98647
224.291,28.3672,-0.06789978,0.44166,0.98616
224.891,28.4248,-0.06826378,0.44225,0.98586
225.491,28.4822,-0.06822268,0.44389,0.98556
226.091,28.5397,-0.07086009,0.44341,0.98525
226.691,28.5971,-0.07086,0.44545,0.98495
227.291,28.65431,-0.07085973,0.44772,0.98465
227.891,28.7117,-0.07161675,0.44924,0.98435
228.491,28.76916,-0.07185001,0.44865,0.98404
229.091,28.82654,-0.07184982,0.45011,0.98374
229.691,28.8842,-0.07221694,0.44817,0.98344
230.291,28.94177,-0.07349447,0.45251,0.98313
230.891,28.99932,-0.07376611,0.45018,0.98283
231.491,29.0568,-0.07481217,0.45214,0.98253
232.091,29.1143,-0.07613681,0.45368,0.98223
232.691,29.17169,-0.07613,0.45583,0.98192
233.291,29.229,-0.07612998,0.45916,0.98162
233.891,29.28645,-0.07714798,0.45827,0.98132
234.491,29.34388,-0.07744948,0.46074,0.98101
235.091,29.4012,-0.07874567,0.46206,0.98071
235.691,29.45856,-0.07898426,0.46202,0.98041
236.291,29.51595,-0.0804137,0.46275,0.9801
236.891,29.57327,-0.08207579,0.46456,0.9798
237.491,29.63075,-0.08276248,0.46619,0.9795
238.091,29.68818,-0.08335481,0.47051,0.97919
238.691,29.74555,-0.08467841,0.46938,0.97889
239.291,29.803,-0.08468583,0.47005,0.97859
239.891,29.86042,-0.08635128,0.46992,0.97828
240.491,29.91785,-0.08660428,0.46908,0.97798
241.091,29.97543,-0.0883266,0.47415,0.97768
241.691,30.03295,-0.08962046,0.47623,0.97737
242.291,30.09055,-0.08999689,0.47632,0.97707
242.891,30.1479,-0.09192861,0.47718,0.97677
243.491,30.2053,-0.09286449,0.47848,0.97646
244.091,30.2627,-0.09323628,0.47974,0.97616
244.691,30.32,-0.09455,0.48144,0.97586
245.291,30.3775,-0.09441766,0.47892,0.97555
245.891,30.435,-0.09720182,0.48294,0.97525
246.491,30.49258,-0.09855004,0.4804,0.97495
247.091,30.55023,-0.09849256,0.48244,0.97464
247.691,30.60773,-0.10115,0.48289,0.97434
248.291,30.66522,-0.10384,0.48145,0.97403
248.891,30.72275,-0.10508,0.48244,0.97373
249.491,30.78029,-0.1064,0.48343,0.97343
250.091,30.8377,-0.10578,0.48586,0.97312
250.691,30.89505,-0.1068,0.48708,0.97282
251.291,30.95222,-0.10859,0.48489,0.97251
251.891,31.00958,-0.11128,0.4868,0.97221
252.491,31.06707,-0.1134,0.48612,0.9719
253.091,31.12445,-0.11626,0.48648,0.9716
253.691,31.18192,-0.11783,0.48562,0.9713
254.291,31.23927,-0.12008,0.48771,0.97099
254.891,31.2967,-0.12065,0.48689,0.97069
255.491,31.35418,-0.12201,0.48693,0.97038
256.091,31.41157,-0.12467,0.48542,0.97008
256.691,31.4689,-0.12681,0.48394,0.96977
257.291,31.5262,-0.12874,0.48519,0.96947
257.891,31.5838,-0.1312,0.48495,0.96916
258.491,31.64125,-0.13304,0.48349,0.96886
259.091,31.69872,-0.13534,0.48656,0.96855
259.691,31.75603,-0.13613,0.4862,0.96825
260.291,31.8134,-0.13869,0.48735,0.96794
260.891,31.8708,-0.14184,0.48526,0.96764
261.491,31.9283,-0.14388,0.48841,0.96733
262.091,31.98576,-0.14763,0.4891,0.96703
262.691,32.04305,-0.15061,0.48898,0.96672
263.291,32.10031,-0.1527,0.49085,0.96642
263.891,32.15763,-0.15383,0.48918,0.96611
264.491,32.2149,-0.15481,0.49053,0.96581
265.091,32.27221,-0.16153,0.49071,0.9655
265.691,32.32946,-0.16581,0.49096,0.9652
266.291,32.38665,-0.16785,0.49484,0.96489
266.891,32.4439,-0.17028,0.49337,0.96459
267.491,32.50093,-0.17295,0.496,0.96428
268.091,32.558,-0.17582,0.49505,0.96397
268.691,32.61529,-0.17843,0.49481,0.96367
269.291,32.67255,-0.18105,0.4962,0.96336
269.891,32.73002,-0.18439,0.49567,0.96306
270.491,32.7874,-0.18743,0.4956,0.96275
271.091,32.84471,-0.18859,0.49467,0.96244
271.691,32.90202,-0.19237,0.49413,0.96214
272.291,32.95915,-0.19705,0.49438,0.96183
272.891,33.01645,-0.20028,0.49598,0.96153
273.491,33.0735,-0.20506,0.49622,0.96122
274.091,33.13074,-0.20697,0.49434,0.96091
274.691,33.18823,-0.21021,0.49881,0.96061
275.291,33.2456,-0.21418,0.49693,0.9603
275.891,33.30321,-0.2182,0.49802,0.95999
276.491,33.3607,-0.22277,0.49682,0.95969
277.091,33.4182,-0.22726,0.49903,0.95938
277.691,33.47571,-0.2306,0.50123,0.95907
278.291,33.53322,-0.23438,0.49911,0.95877
278.891,33.5908,-0.23875,0.4991,0.95846
279.491,33.64835,-0.24175,0.4998,0.95815
280.091,33.7057,-0.24572,0.50135,0.95784
280.691,33.76265,-0.24943,0.4999,0.95754
281.291,33.82,-0.25426,0.50046,0.95723
281.891,33.87753,-0.25891,0.5015,0.95692
282.491,33.93553,-0.26395,0.50179,0.95661
283.091,33.99346,-0.27099,0.50012,0.95631
283.691,34.05072,-0.27495,0.50084,0.956
284.291,34.1074,-0.27998,0.4999,0.95569
284.891,34.16498,-0.28442,0.50266,0.95538
285.491,34.22303,-0.28881,0.50294,0.95507
286.091,34.2815,-0.29423,0.50403,0.95477
286.691,34.33984,-0.29997,0.50565,0.95446
287.291,34.39734,-0.30607,0.50687,0.95415
287.891,34.45495,-0.3099,0.50812,0.95384
288.491,34.5126,-0.31591,0.51087,0.95353
289.091,34.5702,-0.32338,0.51222,0.95322
289.691,34.62792,-0.32925,0.51162,0.95292
290.291,34.68554,-0.33502,0.51397,0.95261
290.891,34.74305,-0.34047,0.51385,0.9523
291.491,34.80066,-0.34626,0.51679,0.95199
292.091,34.8583,-0.35184,0.51828,0.95168
292.691,34.91579,-0.358,0.52043,0.95137
293.291,34.97315,-0.36483,0.52316,0.95106
293.891,35.03031,-0.37144,0.52523,0.95075
294.491,35.08767,-0.3773,0.52621,0.95044
295.091,35.14516,-0.38435,0.52692,0.95013
295.691,35.20264,-0.39071,0.5296,0.94982
296.291,35.2602,-0.3972,0.53311,0.94952
296.891,35.3176,-0.40459,0.53315,0.94921
297.491,35.375,-0.41138,0.5369,0.9489
298.091,35.4324,-0.41858,0.53856,0.94859
298.691,35.48992,-0.4258,0.53956,0.94828
299.291,35.54743,-0.4308,0.54359,0.94797
299.891,35.60487,-0.44303,0.5439,0.94766
300.491,35.6624,-0.45004,0.54479,0.94734
301.091,35.71973,-0.4579,0.54918,0.94703
301.691,35.77726,-0.46527,0.55195,0.94672
302.291,35.8348,-0.47332,0.55397,0.94641
302.891,35.8921,-0.48269,0.55866,0.9461
303.491,35.9499,-0.48744,0.55848,0.94579
304.091,36.0075,-0.49961,0.56034,0.94548
304.691,36.06524,-0.50969,0.5633,0.94517
305.291,36.12283,-0.51782,0.56637,0.94486
305.891,36.1802,-0.52619,0.56761,0.94455
306.491,36.23773,-0.53482,0.57227,0.94424
307.091,36.29528,-0.54372,0.57474,0.94392
307.691,36.35298,-0.55378,0.57777,0.94361
308.291,36.41085,-0.56342,0.58076,0.9433
308.891,36.46868,-0.57484,0.58222,0.94299
309.491,36.5266,-0.58508,0.58655,0.94268
310.091,36.58429,-0.5946,0.59018,0.94236
310.691,36.6421,-0.60438,0.59146,0.94205
311.291,36.7001,-0.61448,0.59528,0.94174
311.891,36.75783,-0.6246,0.59985,0.94143
312.491,36.8158,-0.63579,0.60259,0.94111
313.091,36.87372,-0.64834,0.60533,0.9408
313.691,36.93161,-0.65747,0.6107,0.94049
314.291,36.98943,-0.66862,0.61148,0.94018
314.891,37.04746,-0.68202,0.61679,0.93986
315.491,37.1053,-0.6935,0.62015,0.93955
316.091,37.1632,-0.70676,0.62637,0.93924
316.691,37.22139,-0.71778,0.62565,0.93892
317.291,37.2793,-0.72824,0.63132,0.93861
317.891,37.33741,-0.73999,0.63434,0.9383
318.491,37.39508,-0.75513,0.63753,0.93798
319.091,37.4529,-0.76835,0.64187,0.93767
319.691,37.5109,-0.78202,0.64602,0.93735
320.291,37.5692,-0.79468,0.64954,0.93704
320.891,37.6273,-0.80849,0.65276,0.93673
321.491,37.68545,-0.82329,0.65441,0.93641
322.091,37.74348,-0.83586,0.65969,0.9361
322.691,37.80124,-0.84909,0.66379,0.93578
323.291,37.8593,-0.86254,0.66465,0.93547
323.891,37.9172,-0.87741,0.66693,0.93515
324.491,37.97529,-0.89277,0.67396,0.93484
325.091,38.03351,-0.9039,0.67584,0.93452
325.691,38.09138,-0.91904,0.67844,0.93421
326.291,38.14954,-0.93147,0.6824,0.93389
326.891,38.20754,-0.94723,0.68496,0.93358
327.491,38.2655,-0.96171,0.68749,0.93326
328.091,38.32352,-0.97736,0.69047,0.93294
328.691,38.38165,-0.99259,0.69309,0.93263
329.291,38.43954,-1.00952,0.69523,0.93231
329.891,38.49767,-1.02409,0.70078,0.932
330.491,38.55551,-1.03896,0.69956,0.93168
331.091,38.61343,-1.05497,0.70334,0.93136
331.691,38.67154,-1.07019,0.70446,0.93105
332.291,38.72987,-1.0864,0.70898,0.93073
332.891,38.7879,-1.10122,0.70955,0.93041
333.491,38.84592,-1.11735,0.71507,0.93009
334.091,38.90378,-1.13346,0.71732,0.92978
334.691,38.9615,-1.14939,0.71773,0.92946
335.291,39.01917,-1.16535,0.71973,0.92914
335.891,39.07715,-1.18197,0.72345,0.92882
336.491,39.1351,-1.19745,0.72594,0.92851
337.091,39.19296,-1.2146,0.72987,0.92819
337.691,39.2511,-1.23175,0.73083,0.92787
338.291,39.30907,-1.24686,0.7336,0.92755
338.891,39.36683,-1.26415,0.73782,0.92723
339.491,39.42476,-1.27944,0.7406,0.92691
340.091,39.48239,-1.2972,0.74394,0.9266
340.691,39.54003,-1.3135,0.74882,0.92628
341.291,39.59779,-1.32952,0.75214,0.92596
341.891,39.6554,-1.34789,0.75757,0.92564
342.491,39.71313,-1.36428,0.76057,0.92532
343.091,39.77091,-1.38231,0.76445,0.925
343.691,39.8287,-1.40217,0.77045,0.92468
344.291,39.88643,-1.41863,0.77631,0.92436
344.891,39.94422,-1.43743,0.78272,0.92404
345.491,40.00199,-1.45465,0.78694,0.92372
346.091,40.05996,-1.47297,0.79441,0.9234
346.691,40.1179,-1.49166,0.80047,0.92308
347.291,40.17584,-1.50897,0.80749,0.92276
347.891,40.23365,-1.52855,0.81501,0.92244
348.491,40.29166,-1.5459,0.82042,0.92212
349.091,40.34967,-1.56697,0.82901,0.9218
349.691,40.40783,-1.5856,0.83967,0.92147
350.291,40.4657,-1.6068,0.84779,0.92115
350.891,40.5238,-1.62717,0.85542,0.92083
351.491,40.58162,-1.64729,0.8642,0.92051
352.091,40.6398,-1.66817,0.87351,0.92019
352.691,40.69805,-1.68884,0.88626,0.91987
353.291,40.75635,-1.71002,0.89494,0.91954
353.891,40.81457,-1.73027,0.90701,0.91922
354.491,40.87277,-1.75338,0.91888,0.9189
355.091,40.93088,-1.77473,0.92918,0.91858
355.691,40.98908,-1.79882,0.93952,0.91825
356.291,41.04732,-1.82038,0.95272,0.91793
356.891,41.1055,-1.84387,0.96456,0.91761
357.491,41.1638,-1.86698,0.97483,0.91728
358.091,41.22186,-1.8935,0.9862,0.91696
358.691,41.27994,-1.91642,0.99816,0.91664
359.291,41.3381,-1.93503,1.00722,0.91631
359.891,41.39605,-1.96582,1.01861,0.91599
360.491,41.45394,-1.99175,1.02948,0.91566
361.091,41.5122,-2.0175,1.03872,0.91534
361.691,41.57035,-2.04141,1.05081,0.91501
362.291,41.62839,-2.06912,1.05821,0.91469
362.891,41.68652,-2.09368,1.06424,0.91436
363.491,41.74467,-2.1203,1.07092,0.91404
364.091,41.80258,-2.14595,1.07781,0.91371
364.691,41.8613,-2.17448,1.08025,0.91339
365.291,41.91953,-2.19785,1.08393,0.91306
365.891,41.97755,-2.23037,1.08582,0.91274
366.491,42.03598,-2.25831,1.08589,0.91241
367.091,42.09407,-2.283,1.08675,0.91208
367.691,42.15217,-2.31116,1.07976,0.91176
368.291,42.21031,-2.33689,1.07536,0.91143
368.891,42.2687,-2.3644,1.06738,0.9111
369.491,42.327,-2.39128,1.05844,0.91078
370.091,42.38528,-2.41911,1.04446,0.91045
370.691,42.4434,-2.44319,1.02968,0.91012
371.291,42.50121,-2.46986,1.01208,0.9098
371.891,42.5595,-2.49583,0.99216,0.90947
372.491,42.6175,-2.52032,0.97223,0.90914
373.091,42.67576,-2.54534,0.94858,0.90881
373.691,42.73413,-2.56883,0.92367,0.90848
374.291,42.79226,-2.59176,0.89325,0.90815
374.891,42.85053,-2.61326,0.86632,0.90783
375.491,42.90867,-2.63489,0.83269,0.9075
376.091,42.96678,-2.65528,0.80018,0.90717
376.691,43.0248,-2.67698,0.76467,0.90684
377.291,43.08286,-2.6943,0.73002,0.90651
377.891,43.14073,-2.71192,0.69565,0.90618
378.491,43.19867,-2.72999,0.65715,0.90585
379.091,43.25683,-2.74596,0.6168,0.90552
379.691,43.31504,-2.76132,0.58259,0.90519
380.291,43.37348,-2.77549,0.54492,0.90486
380.891,43.43132,-2.78938,0.51186,0.90453
381.491,43.48914,-2.80131,0.47677,0.9042
382.091,43.54705,-2.80998,0.44019,0.90387
382.691,43.6049,-2.81977,0.40779,0.90354
383.291,43.66284,-2.82991,0.37801,0.9032
383.891,43.7207,-2.83833,0.34886,0.90287
384.491,43.77867,-2.84523,0.32194,0.90254
385.091,43.83677,-2.8515,0.29434,0.90221
385.691,43.89495,-2.85861,0.26922,0.90188
386.291,43.95309,-2.86428,0.24805,0.90154
386.891,44.01123,-2.86967,0.23051,0.90121
387.491,44.06922,-2.87456,0.21211,0.90088
388.091,44.1272,-2.87858,0.19993,0.90055
388.691,44.18522,-2.88224,0.1843,0.90021
389.291,44.24315,-2.88607,0.17355,0.89988
389.891,44.30086,-2.88919,0.16415,0.89954
390.491,44.3592,-2.89219,0.15604,0.89921
391.091,44.4174,-2.89527,0.14592,0.89888
391.691,44.4761,-2.89855,0.14176,0.89854
392.291,44.5345,-2.89891,0.13663,0.89821
392.891,44.59283,-2.90152,0.13268,0.89787
393.491,44.65106,-2.90142,0.1297,0.89754
394.091,44.70932,-2.9041,0.12632,0.8972
394.691,44.7676,-2.90883,0.12236,0.89687
395.291,44.82587,-2.91021,0.12261,0.89653
395.891,44.88405,-2.91411,0.12161,0.8962
396.491,44.94233,-2.91625,0.1195,0.89586
397.091,45.00063,-2.91842,0.11654,0.89552
397.691,45.0587,-2.9206,0.11498,0.89519
398.291,45.1174,-2.92268,0.11143,0.89485
398.891,45.1757,-2.92519,0.10985,0.89451
399.491,45.2343,-2.92692,0.11037,0.89418
400.091,45.29267,-2.92946,0.10808,0.89384
400.691,45.35109,-2.93096,0.10653,0.8935
401.291,45.40964,-2.93225,0.10545,0.89316
401.891,45.46808,-2.93301,0.10713,0.89283
402.491,45.52645,-2.9341,0.10341,0.89249
403.091,45.58467,-2.93695,0.10338,0.89215
403.691,45.643,-2.93816,0.10199,0.89181
404.291,45.70131,-2.9408,0.10245,0.89147
404.891,45.7598,-2.9421,0.10015,0.89113
405.491,45.81836,-2.94388,0.09929227,0.89079
406.091,45.87682,-2.94566,0.10052,0.89045
406.691,45.93535,-2.94814,0.0983644,0.89011
407.291,45.9938,-2.94939,0.09625028,0.88977
407.891,46.0521,-2.95131,0.09472323,0.88943
408.491,46.11057,-2.95412,0.09402587,0.88909
409.091,46.16908,-2.95584,0.09327955,0.88875
409.691,46.2278,-2.95747,0.08996007,0.88841
410.291,46.28638,-2.96048,0.0895,0.88807
410.891,46.34499,-2.96183,0.0884345,0.88773
411.491,46.40359,-2.96335,0.08628913,0.88739
412.091,46.46208,-2.96458,0.08414017,0.88705
412.691,46.5208,-2.96621,0.08418079,0.8867
413.291,46.57942,-2.96845,0.08200076,0.88636
413.891,46.63799,-2.96978,0.07940464,0.88602
414.491,46.69663,-2.97144,0.07910245,0.88568
415.091,46.75516,-2.97396,0.07375383,0.88533
415.691,46.8138,-2.97616,0.07382837,0.88499
416.291,46.87265,-2.97754,0.07350504,0.88465
416.891,46.9313,-2.97869,0.0723098,0.8843
417.491,46.9901,-2.98106,0.07139954,0.88396
418.091,47.04895,-2.9814,0.06905373,0.88362
418.691,47.10774,-2.98498,0.06756904,0.88327
419.291,47.16664,-2.98783,0.06655657,0.88293
419.891,47.22565,-2.9903,0.06631611,0.88258
420.491,47.2845,-2.99266,0.06500141,0.88224
421.091,47.3434,-2.99352,0.06307966,0.88189
421.691,47.40207,-2.99508,0.06297918,0.88155
422.291,47.4608,-2.99718,0.06054142,0.8812
422.891,47.51967,-2.99718,0.05817584,0.88085
423.491,47.57855,-2.9967,0.06046407,0.88051
424.091,47.63742,-3.00075,0.05791031,0.88016
424.691,47.69619,-3.00285,0.05388253,0.87981
425.291,47.75509,-3.0055,0.05315165,0.87947
425.891,47.814,-3.00739,0.05123289,0.87912
426.491,47.873,-3.0098,0.05187073,0.87877
427.091,47.93199,-3.01063,0.05108195,0.87842
427.691,47.99069,-3.01252,0.04976401,0.87808
428.291,48.0494,-3.01253,0.05067944,0.87773
428.891,48.108,-3.01384,0.05035342,0.87738
429.491,48.16665,-3.01517,0.04993902,0.87703
430.091,48.22545,-3.01704,0.04845187,0.87668
430.691,48.28427,-3.02105,0.04652798,0.87633
431.291,48.34299,-3.02383,0.04413076,0.87598
431.891,48.4015,-3.02383,0.04504192,0.87563
432.491,48.46026,-3.02515,0.04539936,0.87528
433.091,48.51912,-3.02647,0.0439961,0.87493
433.691,48.57832,-3.02778,0.04478361,0.87458
434.291,48.6374,-3.02808,0.04489158,0.87423
434.891,48.69635,-3.02988,0.04619885,0.87388
435.491,48.75516,-3.03243,0.04505697,0.87353
436.091,48.81391,-3.03362,0.04440642,0.87318
436.691,48.87281,-3.03673,0.04435708,0.87282
437.291,48.9317,-3.0389,0.04698114,0.87247
437.891,48.99048,-3.03989,0.04597202,0.87212
438.491,49.04933,-3.04161,0.04738105,0.87177
439.091,49.10822,-3.04285,0.04664448,0.87142
439.691,49.16709,-3.04531,0.04912694,0.87106
440.291,49.22602,-3.04635,0.04711592,0.87071
440.891,49.28475,-3.04745,0.0477064,0.87035
441.491,49.34357,-3.04892,0.04879236,0.87
442.091,49.40247,-3.05107,0.0530007,0.86965
442.691,49.46139,-3.05329,0.05144045,0.86929
443.291,49.52035,-3.05158,0.05374234,0.86894
443.891,49.5793,-3.05514,0.05750522,0.86858
444.491,49.63843,-3.05816,0.05656949,0.86823
445.091,49.69763,-3.05971,0.05653584,0.86787
445.691,49.75677,-3.06105,0.05876294,0.86752
446.291,49.8153,-3.06233,0.06200076,0.86716
446.891,49.87415,-3.06365,0.06097816,0.8668
447.491,49.93319,-3.06497,0.06196469,0.86645
448.091,49.9923,-3.06633,0.06546026,0.86609
448.691,50.05186,-3.0676,0.06735974,0.86573
449.291,50.11104,-3.06891,0.06495933,0.86538
449.891,50.17035,-3.07022,0.06832747,0.86502
450.491,50.2296,-3.07053,0.07029576,0.86466
451.091,50.2889,-3.07222,0.07230467,0.8643
451.691,50.34817,-3.07418,0.07385525,0.86394
452.291,50.40722,-3.0755,0.07638778,0.86359
452.891,50.46633,-3.07681,0.07666355,0.86323
453.491,50.52547,-3.07813,0.07773183,0.86287
454.091,50.5845,-3.07941,0.07908779,0.86251
454.691,50.64387,-3.0811,0.08335907,0.86215
455.291,50.7031,-3.08361,0.08540887,0.86179
455.891,50.7622,-3.08351,0.08746434,0.86143
456.491,50.82132,-3.08483,0.08792424,0.86107
457.091,50.88037,-3.0868,0.0893555,0.86071
457.691,50.93967,-3.08709,0.09014067,0.86035
458.291,50.99885,-3.08808,0.09305136,0.85998
458.891,51.05811,-3.09087,0.09497561,0.85962
459.491,51.11714,-3.0911,0.09679708,0.85926
460.091,51.17604,-3.09218,0.09810065,0.8589
460.691,51.23503,-3.09366,0.09943521,0.85854
461.291,51.29392,-3.09473,0.10252,0.85817
461.891,51.353,-3.09493,0.10232,0.85781
462.491,51.41192,-3.09733,0.10893,0.85745
463.091,51.47092,-3.09886,0.11156,0.85708
463.691,51.52997,-3.09885,0.11125,0.85672
464.291,51.58905,-3.10019,0.11077,0.85635
464.891,51.6482,-3.10136,0.11311,0.85599
465.491,51.7074,-3.10222,0.11642,0.85563
466.091,51.76644,-3.1028,0.1144,0.85526
466.691,51.8255,-3.10413,0.11862,0.85489
467.291,51.88467,-3.10494,0.11906,0.85453
467.891,51.944,-3.10617,0.11969,0.85416
468.491,52.0034,-3.10675,0.11992,0.8538
469.091,52.06285,-3.10807,0.12109,0.85343
469.691,52.12216,-3.10937,0.12452,0.85306
470.291,52.1815,-3.10936,0.12625,0.8527
470.891,52.2408,-3.10939,0.1286,0.85233
471.491,52.3,-3.11071,0.12891,0.85196
472.091,52.35933,-3.11071,0.13017,0.85159
472.691,52.41855,-3.11202,0.1304,0.85123
473.291,52.47789,-3.11333,0.13222,0.85086
473.891,52.53739,-3.11508,0.13216,0.85049
474.491,52.59665,-3.117,0.13436,0.85012
475.091,52.65582,-3.11728,0.13375,0.84975
475.691,52.71521,-3.11776,0.13504,0.84938
476.291,52.77437,-3.11961,0.13699,0.84901
476.891,52.8338,-3.1199,0.13788,0.84864
477.491,52.8933,-3.12123,0.13916,0.84827
478.091,52.95227,-3.12169,0.13888,0.8479
478.691,53.0116,-3.12234,0.13753,0.84753
479.291,53.07107,-3.12253,0.13879,0.84716
479.891,53.13069,-3.12387,0.14258,0.84679
480.491,53.1902,-3.12387,0.14158,0.84641
481.091,53.2494,-3.12387,0.14187,0.84604
481.691,53.30849,-3.12358,0.14363,0.84567
482.291,53.3676,-3.12632,0.14523,0.8453
482.891,53.42705,-3.12944,0.14205,0.84492
483.491,53.48676,-3.13073,0.14443,0.84455
484.091,53.54623,-3.12959,0.14574,0.84418
484.691,53.6057,-3.13087,0.14673,0.8438
485.291,53.6651,-3.13089,0.14949,0.84343
485.891,53.72441,-3.1322,0.14766,0.84305
486.491,53.78366,-3.13351,0.15065,0.84268
487.091,53.843,-3.13443,0.1499,0.8423
487.691,53.90212,-3.13485,0.14769,0.84193
488.291,53.96167,-3.13618,0.15264,0.84155
488.891,54.02098,-3.13483,0.14902,0.84118
489.491,54.0805,-3.13747,0.14993,0.8408
490.091,54.13995,-3.13747,0.15198,0.84042
490.691,54.19944,-3.13879,0.15294,0.84005
491.291,54.2589,-3.1401,0.15337,0.83967
491.891,54.31845,-3.14063,0.15372,0.83929
492.491,54.37785,-3.1422,0.15327,0.83891
493.091,54.43714,-3.14382,0.15578,0.83854
493.691,54.49655,-3.1436,0.15219,0.83816
494.291,54.55601,-3.14303,0.15274,0.83778
494.891,54.6156,-3.14306,0.1536,0.8374
495.491,54.6751,-3.14443,0.15476,0.83702
496.091,54.73457,-3.14439,0.15338,0.83664
496.691,54.7944,-3.14607,0.15532,0.83626
497.291,54.85422,-3.14832,0.15601,0.83588
497.891,54.9144,-3.14974,0.15653,0.8355
498.491,54.9741,-3.15107,0.15572,0.83512
499.091,55.0337,-3.14979,0.15786,0.83474
499.691,55.09325,-3.15003,0.15669,0.83436
500.291,55.1528,-3.15079,0.15597,0.83397
500.891,55.21246,-3.15108,0.15846,0.83359
501.491,55.27199,-3.15238,0.15954,0.83321
502.091,55.3315,-3.15238,0.15964,0.83283
502.691,55.3911,-3.15375,0.16287,0.83244
503.291,55.4505,-3.1537,0.15995,0.83206
503.891,55.51005,-3.15502,0.16468,0.83168
504.491,55.56945,-3.15502,0.16701,0.83129
505.091,55.62899,-3.15635,0.17049,0.83091
505.691,55.68845,-3.15635,0.17344,0.83052
506.291,55.74794,-3.15766,0.17136,0.83014
506.891,55.8074,-3.15888,0.17533,0.82975
507.491,55.867,-3.16008,0.17989,0.82937
508.091,55.9266,-3.16094,0.17807,0.82898
508.691,55.9862,-3.16094,0.18227,0.8286
509.291,56.04575,-3.16095,0.18584,0.82821
509.891,56.10541,-3.16197,0.18614,0.82782
510.491,56.165,-3.16323,0.18969,0.82744
511.091,56.22481,-3.16291,0.19212,0.82705
511.691,56.28447,-3.16422,0.19325,0.82666
512.291,56.3441,-3.1656,0.19624,0.82627
512.891,56.4036,-3.16566,0.195,0.82588
513.491,56.4633,-3.16554,0.19527,0.8255
514.091,56.5231,-3.16554,0.19715,0.82511
514.691,56.58283,-3.16554,0.19524,0.82472
515.291,56.6424,-3.16552,0.19783,0.82433
515.891,56.702,-3.16821,0.19747,0.82394
516.491,56.7614,-3.16844,0.20143,0.82355
517.091,56.8212,-3.16971,0.20329,0.82316
517.691,56.88091,-3.17123,0.20109,0.82277
518.291,56.9408,-3.17139,0.20049,0.82237
518.891,57.00055,-3.17103,0.20304,0.82198
519.491,57.0604,-3.17005,0.20468,0.82159
520.091,57.12,-3.17136,0.20646,0.8212
520.691,57.17985,-3.17135,0.20669,0.82081
521.291,57.2394,-3.17268,0.20964,0.82041
521.891,57.29895,-3.17268,0.21242,0.82002
522.491,57.35835,-3.17532,0.21287,0.81963
523.091,57.4178,-3.17531,0.21313,0.81923
523.691,57.4773,-3.17378,0.21522,0.81884
524.291,57.53666,-3.17727,0.21976,0.81845
524.891,57.5963,-3.1786,0.21795,0.81805
525.491,57.65577,-3.18087,0.219,0.81766
526.091,57.71529,-3.18145,0.21916,0.81726
526.691,57.77474,-3.17936,0.2188,0.81686
527.291,57.83413,-3.17936,0.21808,0.81647
527.891,57.89374,-3.17969,0.2212,0.81607
528.491,57.95324,-3.18101,0.22173,0.81568
529.091,58.01279,-3.18101,0.22181,0.81528
529.691,58.07226,-3.18233,0.22057,0.81488
530.291,58.1318,-3.18078,0.22189,0.81448
530.891,58.19135,-3.1823,0.22359,0.81409
531.491,58.2509,-3.1847,0.22192,0.81369
532.091,58.3104,-3.18497,0.22786,0.81329
532.691,58.36994,-3.18365,0.22687,0.81289
533.291,58.4295,-3.18497,0.22612,0.81249
533.891,58.4891,-3.18594,0.22539,0.81209
534.491,58.5488,-3.18594,0.22619,0.81169
535.091,58.60847,-3.18726,0.22381,0.81129
535.691,58.66805,-3.18727,0.22596,0.81089
536.291,58.72758,-3.18858,0.22286,0.81049
536.891,58.7873,-3.18858,0.2254,0.81009
537.491,58.847,-3.18816,0.22937,0.80969
538.091,58.9067,-3.18853,0.22643,0.80929
538.691,58.96631,-3.18989,0.22513,0.80888
539.291,59.026,-3.19122,0.22454,0.80848
539.891,59.08566,-3.1926,0.21945,0.80808
540.491,59.14549,-3.19252,0.21826,0.80768
541.091,59.20521,-3.19359,0.21163,0.80727
541.691,59.2649,-3.19384,0.21073,0.80687
542.291,59.32455,-3.19514,0.20693,0.80647
542.891,59.38443,-3.19652,0.20585,0.80606
543.491,59.44426,-3.19655,0.20413,0.80566
544.091,59.5042,-3.19647,0.20089,0.80525
544.691,59.5639,-3.19641,0.20001,0.80485
545.291,59.62367,-3.19779,0.19893,0.80444
545.891,59.68342,-3.19862,0.19918,0.80403
546.491,59.74334,-3.19911,0.1933,0.80363
547.091,59.80299,-3.19912,0.19384,0.80322
547.691,59.86263,-3.20172,0.1937,0.80281
548.291,59.92216,-3.20043,0.19125,0.80241
548.891,59.9818,-3.20042,0.19044,0.802
549.491,60.0417,-3.20043,0.19209,0.80159
550.091,60.10162,-3.20174,0.1871,0.80118
550.691,60.1615,-3.20174,0.18855,0.80077
551.291,60.22145,-3.20305,0.1891,0.80037
551.891,60.28134,-3.20304,0.18825,0.79996
552.491,60.3411,-3.20174,0.18794,0.79955
553.091,60.40087,-3.20376,0.18921,0.79914
553.691,60.4607,-3.20404,0.18404,0.79873
554.291,60.52045,-3.20405,0.18378,0.79832
554.891,60.5804,-3.20591,0.18524,0.7979
555.491,60.6404,-3.20685,0.18529,0.79749
556.091,60.7001,-3.207,0.18695,0.79708
556.691,60.7599,-3.20602,0.18467,0.79667
557.291,60.8193,-3.20735,0.18453,0.79626
557.891,60.87896,-3.20729,0.18481,0.79585
558.491,60.9388,-3.20866,0.18498,0.79543
559.091,60.9985,-3.20986,0.18433,0.79502
559.691,61.05834,-3.20997,0.18625,0.79461
560.291,61.11825,-3.20998,0.18198,0.79419
560.891,61.17816,-3.21129,0.18242,0.79378
561.491,61.23806,-3.21129,0.18557,0.79336
562.091,61.29764,-3.21259,0.18366,0.79295
562.691,61.35722,-3.21227,0.18453,0.79253
563.291,61.417,-3.21227,0.18357,0.79212
563.891,61.47685,-3.21227,0.18341,0.7917
564.491,61.5373,-3.21226,0.18443,0.79128
565.091,61.5973,-3.21293,0.1831,0.79087
565.691,61.6576,-3.21284,0.18392,0.79045
566.291,61.7177,-3.21425,0.18017,0.79003
566.891,61.7778,-3.21424,0.18231,0.78962
567.491,61.83785,-3.21604,0.18074,0.7892
568.091,61.89776,-3.21688,0.1795,0.78878
568.691,61.95776,-3.21688,0.1811,0.78836
569.291,62.0178,-3.21688,0.18288,0.78794
569.891,62.07796,-3.21688,0.18371,0.78752
570.491,62.1381,-3.21688,0.18091,0.7871
571.091,62.19809,-3.21688,0.18214,0.78668
571.691,62.25806,-3.21687,0.18252,0.78626
572.291,62.31811,-3.21821,0.17763,0.78584
572.891,62.3781,-3.21951,0.18154,0.78542
573.491,62.438,-3.22018,0.17969,0.785
574.091,62.4983,-3.22085,0.1787,0.78458
574.691,62.55849,-3.22083,0.17584,0.78416
575.291,62.61871,-3.22083,0.17763,0.78374
575.891,62.6789,-3.22214,0.17875,0.78331
576.491,62.73901,-3.22214,0.17935,0.78289
577.091,62.79903,-3.22214,0.17867,0.78247
577.691,62.85909,-3.22313,0.18057,0.78204
578.291,62.919,-3.22313,0.17864,0.78162
578.891,62.97911,-3.22313,0.1784,0.78119
579.491,63.0391,-3.22316,0.17925,0.78077
580.091,63.0992,-3.22412,0.17476,0.78035
580.691,63.1593,-3.22412,0.18132,0.77992
581.291,63.21906,-3.2255,0.18043,0.77949
581.891,63.2794,-3.22686,0.18156,0.77907
582.491,63.3397,-3.22686,0.17875,0.77864
583.091,63.4,-3.22818,0.18154,0.77822
583.691,63.4603,-3.22686,0.179,0.77779
584.291,63.5205,-3.22788,0.18016,0.77736
584.891,63.5805,-3.22686,0.17694,0.77693
585.491,63.64071,-3.22686,0.17592,0.77651
586.091,63.70091,-3.22744,0.17842,0.77608
586.691,63.76124,-3.22815,0.17749,0.77565
587.291,63.82173,-3.22949,0.17575,0.77522
587.891,63.88221,-3.23033,0.17713,0.77479
588.491,63.9427,-3.23081,0.17728,0.77436
589.091,64.00286,-3.23081,0.17576,0.77393
589.691,64.06308,-3.23081,0.17558,0.7735
590.291,64.12321,-3.23185,0.18027,0.77307
590.891,64.18349,-3.23081,0.17673,0.77264
591.491,64.24374,-3.23074,0.17547,0.77221
592.091,64.304,-3.23213,0.1779,0.77178
592.691,64.36442,-3.23341,0.17683,0.77134
593.291,64.42478,-3.23344,0.17774,0.77091
593.891,64.48522,-3.23504,0.17633,0.77048
594.491,64.54568,-3.23455,0.17509,0.77005
595.091,64.6062,-3.23336,0.17383,0.76961
595.691,64.66666,-3.23464,0.17336,0.76918
596.291,64.72709,-3.23465,0.17375,0.76875
596.891,64.7876,-3.23465,0.17308,0.76831
597.491,64.84782,-3.23596,0.17495,0.76788
598.091,64.90827,-3.23597,0.17587,0.76744
598.691,64.96857,-3.23656,0.17182,0.76701
599.291,65.02903,-3.23728,0.17287,0.76657
599.891,65.08951,-3.23858,0.17647,0.76613
600.491,65.14996,-3.2386,0.17222,0.7657
601.091,65.21045,-3.2386,0.17486,0.76526
601.691,65.27091,-3.23864,0.1738,0.76482
602.291,65.33104,-3.23994,0.17454,0.76439
602.891,65.3913,-3.23992,0.1779,0.76395
603.491,65.4515,-3.23992,0.17584,0.76351
604.091,65.51188,-3.23998,0.17818,0.76307
604.691,65.5727,-3.23988,0.17828,0.76263
605.291,65.63293,-3.24256,0.17869,0.7622
605.891,65.69332,-3.24255,0.18018,0.76176
606.491,65.75366,-3.24391,0.18143,0.76132
607.091,65.8137,-3.24311,0.1782,0.76088
607.691,65.87414,-3.24243,0.18196,0.76044
608.291,65.9343,-3.24244,0.18223,0.76
608.891,65.99489,-3.24243,0.18414,0.75955
609.491,66.0547,-3.24112,0.18287,0.75911
610.091,66.1143,-3.24278,0.18444,0.75867
610.691,66.17435,-3.24354,0.18526,0.75823
611.291,66.23441,-3.24408,0.18782,0.75779
611.891,66.29465,-3.24403,0.18633,0.75734
612.491,66.3551,-3.24541,0.19059,0.7569
613.091,66.41549,-3.24671,0.18862,0.75646
613.691,66.47586,-3.2468,0.18652,0.75601
614.291,66.5363,-3.24803,0.18938,0.75557
614.891,66.59689,-3.24802,0.18941,0.75513
615.491,66.6577,-3.24636,0.19092,0.75468
616.091,66.7182,-3.24769,0.19315,0.75424
616.691,66.7789,-3.2477,0.19331,0.75379
617.291,66.83899,-3.24771,0.1907,0.75334
617.891,66.8991,-3.24902,0.19387,0.7529
618.491,66.95939,-3.24902,0.19341,0.75245
619.091,67.01947,-3.24931,0.19789,0.75201
619.691,67.07977,-3.25033,0.19679,0.75156
620.291,67.13973,-3.25033,0.19813,0.75111
620.891,67.1999,-3.25231,0.19976,0.75066
621.491,67.26,-3.25231,0.19836,0.75022
622.091,67.32,-3.25231,0.201,0.74977
622.691,67.37994,-3.2533,0.19962,0.74932
623.291,67.43983,-3.2533,0.2025,0.74887
623.891,67.49978,-3.25571,0.20182,0.74842
624.491,67.56,-3.25319,0.20174,0.74797
625.091,67.62007,-3.25417,0.20716,0.74752
625.691,67.68025,-3.25417,0.20726,0.74707
626.291,67.74044,-3.25417,0.2086,0.74662
626.891,67.80063,-3.25417,0.20588,0.74617
627.491,67.86086,-3.25548,0.20796,0.74572
628.091,67.9212,-3.25549,0.20821,0.74527
628.691,67.98144,-3.25549,0.20987,0.74481
629.291,68.0418,-3.2566,0.21142,0.74436
629.891,68.10205,-3.2568,0.21092,0.74391
630.491,68.16235,-3.2568,0.21561,0.74346
631.091,68.22278,-3.2568,0.21597,0.743
631.691,68.28319,-3.25812,0.21282,0.74255
632.291,68.3438,-3.25791,0.21335,0.74209
632.891,68.40426,-3.25713,0.21268,0.74164
633.491,68.4648,-3.25886,0.21452,0.74118
634.091,68.52478,-3.25927,0.21641,0.74073
634.691,68.5853,-3.2585,0.21447,0.74027
635.291,68.6456,-3.25747,0.2153,0.73982
635.891,68.70625,-3.25737,0.2128,0.73936
636.491,68.76709,-3.25879,0.21505,0.73891
637.091,68.82736,-3.25943,0.21019,0.73845
637.691,68.88769,-3.26075,0.21464,0.73799
638.291,68.94795,-3.26141,0.2158,0.73754
638.891,69.0083,-3.26141,0.21881,0.73708
639.491,69.06854,-3.26141,0.21746,0.73662
640.091,69.12889,-3.2614,0.21934,0.73616
640.691,69.18926,-3.26075,0.21898,0.7357
641.291,69.2496,-3.2601,0.22339,0.73524
641.891,69.30979,-3.26141,0.22429,0.73479
642.491,69.37003,-3.26306,0.22242,0.73433
643.091,69.43019,-3.26447,0.22387,0.73387
643.691,69.49006,-3.26306,0.22577,0.73341
644.291,69.55,-3.26306,0.22772,0.73295
644.891,69.6099,-3.26437,0.22913,0.73248
645.491,69.67017,-3.26438,0.22851,0.73202
646.091,69.73075,-3.26438,0.22995,0.73156
646.691,69.79133,-3.26438,0.23121,0.7311
647.291,69.85211,-3.26307,0.23304,0.73064
647.891,69.91292,-3.26533,0.23137,0.73017
648.491,69.9734,-3.26544,0.23125,0.72971
649.091,70.03408,-3.26566,0.23406,0.72925
649.691,70.09467,-3.26672,0.2335,0.72879
650.291,70.1554,-3.26701,0.23183,0.72832
650.891,70.21563,-3.26571,0.23517,0.72786
651.491,70.27636,-3.26569,0.23545,0.72739
652.091,70.33704,-3.26569,0.23555,0.72693
652.691,70.39777,-3.26646,0.23711,0.72646
653.291,70.45846,-3.26701,0.23474,0.726
653.891,70.51899,-3.26698,0.23645,0.72553
654.491,70.57933,-3.26766,0.23659,0.72507
655.091,70.63985,-3.26766,0.23789,0.7246
655.691,70.70028,-3.26766,0.23569,0.72413
656.291,70.76097,-3.2676,0.23457,0.72367
656.891,70.82143,-3.26634,0.23841,0.7232
657.491,70.882,-3.267,0.2401,0.72273
658.091,70.94282,-3.26949,0.24024,0.72226
658.691,71.0035,-3.26964,0.23758,0.72179
659.291,71.0645,-3.2684,0.24045,0.72133
659.891,71.12519,-3.26832,0.23836,0.72086
660.491,71.18576,-3.26833,0.2374,0.72039
661.091,71.24633,-3.27002,0.2391,0.71992
661.691,71.30711,-3.27063,0.24052,0.71945
662.291,71.3674,-3.27063,0.24147,0.71898
662.891,71.428,-3.27063,0.24161,0.71851
663.491,71.48858,-3.27063,0.24183,0.71804
664.091,71.54965,-3.27063,0.24051,0.71756
664.691,71.61033,-3.27063,0.24543,0.71709
665.291,71.6713,-3.2706,0.2459,0.71662
665.891,71.73174,-3.27095,0.24532,0.71615
666.491,71.79224,-3.27058,0.24653,0.71568
667.091,71.85263,-3.27194,0.24651,0.7152
667.691,71.91293,-3.27256,0.24938,0.71473
668.291,71.97329,-3.27325,0.2511,0.71426
668.891,72.0338,-3.27332,0.24918,0.71378
669.491,72.09411,-3.27194,0.25261,0.71331
670.091,72.15438,-3.27194,0.25124,0.71284
670.691,72.21461,-3.27224,0.25475,0.71236
671.291,72.27497,-3.2726,0.25674,0.71189
671.891,72.33546,-3.2726,0.25552,0.71141
672.491,72.396,-3.27325,0.25287,0.71094
673.091,72.45651,-3.27326,0.25257,0.71046
673.691,72.5169,-3.27457,0.25571,0.70998
674.291,72.57744,-3.27457,0.25199,0.70951
674.891,72.63784,-3.27269,0.25319,0.70903
675.491,72.69849,-3.2726,0.25624,0.70855
676.091,72.7591,-3.27483,0.25776,0.70807
676.691,72.81959,-3.27521,0.25917,0.7076
677.291,72.8802,-3.27654,0.26163,0.70712
677.891,72.9409,-3.27654,0.26293,0.70664
678.491,73.00156,-3.2757,0.26583,0.70616
679.091,73.06215,-3.27522,0.26411,0.70568
679.691,73.1228,-3.2752,0.26664,0.7052
680.291,73.18349,-3.27655,0.26775,0.70472
680.891,73.2447,-3.27655,0.26378,0.70424
681.491,73.30548,-3.27515,0.26532,0.70376
682.091,73.36622,-3.27523,0.26839,0.70328
682.691,73.4269,-3.27564,0.26844,0.7028
683.291,73.48761,-3.27655,0.2683,0.70232
683.891,73.54833,-3.27852,0.26761,0.70184
684.491,73.6091,-3.27721,0.26835,0.70136
685.091,73.67,-3.2782,0.26663,0.70088
685.691,73.73054,-3.27722,0.2642,0.70039
686.291,73.79129,-3.27852,0.26785,0.69991
686.891,73.85213,-3.27852,0.26811,0.69943
687.491,73.91288,-3.27981,0.26514,0.69894
688.091,73.97367,-3.27984,0.26578,0.69846
688.691,74.03446,-3.27984,0.26863,0.69798
689.291,74.09506,-3.27955,0.26963,0.69749
689.891,74.15564,-3.27904,0.27116,0.69701
690.491,74.2162,-3.27918,0.26884,0.69652
691.091,74.2766,-3.28017,0.27125,0.69604
691.691,74.33703,-3.28017,0.27102,0.69555
692.291,74.39742,-3.28017,0.27343,0.69507
692.891,74.458,-3.28113,0.2754,0.69458
693.491,74.5189,-3.27984,0.27519,0.69409
694.091,74.57982,-3.27984,0.27758,0.69361
694.691,74.64065,-3.28116,0.27833,0.69312
695.291,74.7012,-3.28247,0.27748,0.69263
695.891,74.76175,-3.28283,0.27845,0.69215
696.491,74.8223,-3.2828,0.27987,0.69166
697.091,74.88293,-3.2828,0.27816,0.69117
697.691,74.94377,-3.28417,0.27959,0.69068
698.291,75.00458,-3.28412,0.28242,0.69019
698.891,75.06549,-3.28412,0.28025,0.6897
699.491,75.126,-3.28427,0.28124,0.68921
700.091,75.18651,-3.28707,0.28481,0.68873
700.691,75.24723,-3.2852,0.28072,0.68824
701.291,75.30771,-3.28166,0.28431,0.68774
701.891,75.36876,-3.28302,0.28231,0.68725
702.491,75.4293,-3.28269,0.2879,0.68676
703.091,75.49022,-3.28269,0.28855,0.68627
703.691,75.551,-3.28401,0.28936,0.68578
704.291,75.6117,-3.28401,0.28881,0.68529
704.891,75.6725,-3.28401,0.2912,0.6848
705.491,75.73326,-3.28402,0.28931,0.68431
706.091,75.79419,-3.28532,0.29221,0.68381
706.691,75.85504,-3.28557,0.29138,0.68332
707.291,75.91587,-3.28533,0.29466,0.68283
707.891,75.9766,-3.28533,0.29464,0.68233
708.491,76.03741,-3.28533,0.29299,0.68184
709.091,76.09813,-3.28533,0.29636,0.68135
709.691,76.15905,-3.28369,0.29508,0.68085
710.291,76.2196,-3.28333,0.29409,0.68036
710.891,76.28045,-3.2862,0.29512,0.67986
711.491,76.3412,-3.28755,0.29624,0.67937
712.091,76.4015,-3.28752,0.29605,0.67887
712.691,76.46206,-3.28752,0.29477,0.67838
713.291,76.5223,-3.28752,0.29666,0.67788
713.891,76.58289,-3.28752,0.29889,0.67738
714.491,76.6443,-3.28752,0.29866,0.67689
715.091,76.70558,-3.28721,0.29765,0.67639
715.691,76.76684,-3.2861,0.29747,0.67589
716.291,76.828,-3.28752,0.30065,0.6754
716.891,76.889,-3.28884,0.30032,0.6749
717.491,76.9499,-3.28884,0.30029,0.6744
718.091,77.01084,-3.28886,0.3014,0.6739
718.691,77.07157,-3.28916,0.30238,0.6734
719.291,77.1323,-3.28916,0.30524,0.6729
719.891,77.1931,-3.28883,0.30007,0.67241
720.491,77.25399,-3.28879,0.30659,0.67191
721.091,77.3149,-3.29015,0.30684,0.67141
721.691,77.37591,-3.29015,0.30349,0.67091
722.291,77.43689,-3.29109,0.30696,0.67041
722.891,77.49781,-3.29114,0.30429,0.66991
723.491,77.5587,-3.28982,0.3059,0.66941
724.091,77.61961,-3.29078,0.3055,0.6689
724.691,77.68043,-3.29081,0.30657,0.6684
725.291,77.7414,-3.2908,0.30437,0.6679
725.891,77.80251,-3.29113,0.30128,0.6674
726.491,77.86329,-3.29179,0.30545,0.6669
727.091,77.92426,-3.29245,0.30297,0.6664
727.691,77.985,-3.29245,0.29977,0.66589
728.291,78.04581,-3.29245,0.29778,0.66539
728.891,78.10683,-3.29245,0.29706,0.66489
729.491,78.1678,-3.29245,0.30188,0.66438
730.091,78.22885,-3.29245,0.30063,0.66388
730.691,78.2897,-3.29245,0.3024,0.66338
731.291,78.35067,-3.29377,0.30465,0.66287
731.891,78.41156,-3.29377,0.30683,0.66237
732.491,78.47244,-3.29377,0.30409,0.66186
733.091,78.53344,-3.2947,0.30502,0.66136
733.691,78.5945,-3.2942,0.30761,0.66085
734.291,78.65554,-3.29378,0.30792,0.66035
734.891,78.7165,-3.29377,0.30479,0.65984
735.491,78.77735,-3.29463,0.3064,0.65933
736.091,78.83792,-3.29476,0.30886,0.65883
736.691,78.89878,-3.29476,0.30972,0.65832
737.291,78.95965,-3.29476,0.30614,0.65781
737.891,79.0209,-3.29443,0.31232,0.65731
738.491,79.08207,-3.29443,0.30822,0.6568
739.091,79.14313,-3.29443,0.31264,0.65629
739.691,79.20403,-3.29443,0.30954,0.65578
740.291,79.26487,-3.29479,0.31012,0.65527
740.891,79.3257,-3.2953,0.30692,0.65477
741.491,79.3864,-3.29608,0.30937,0.65426
742.091,79.44745,-3.29608,0.3101,0.65375
742.691,79.50842,-3.29608,0.30677,0.65324
743.291,79.56956,-3.29608,0.3071,0.65273
743.891,79.63061,-3.29608,0.31119,0.65222
744.491,79.69149,-3.29739,0.30826,0.65171
745.091,79.75229,-3.29738,0.30523,0.6512
745.691,79.81331,-3.2964,0.31048,0.65069
746.291,79.8741,-3.29773,0.31225,0.65018
746.891,79.93503,-3.29773,0.3138,0.64967
747.491,79.9958,-3.29777,0.31193,0.64916