File: 01_Data/Pine_Lap_Siding_Wood/STA/N2/30K_min/Pine_Lap_Siding_Wood_STA_N2_30KData_220321_R3.csv
##Temp./Â°C,Time/min,Mass loss(subtr.2)/mg,DSC(subtr.2)/(mW/mg),Sensit./(uV/mW)
48.836,10.00917,-0.06954,0.02095224,1.08886
49.536,10.54605,-0.07289265,0.06237382,1.08827
50.236,10.67105,-0.07309816,0.10097,1.08768
50.936,10.76028,-0.07248692,0.13531,1.08709
51.636,10.8339,-0.07144843,0.16624,1.0865
52.336,10.89632,-0.07360125,0.19465,1.08591
53.036,10.9529,-0.07467124,0.22113,1.08532
53.736,11.00507,-0.0743223,0.24678,1.08474
54.436,11.0527,-0.07459396,0.26863,1.08415
55.136,11.0975,-0.07485916,0.29235,1.08357
55.836,11.14022,-0.07444008,0.31479,1.08299
56.536,11.1808,-0.07612561,0.33411,1.0824
57.236,11.2193,-0.07480356,0.35334,1.08182
57.936,11.25666,-0.07535561,0.37212,1.08124
58.636,11.29275,-0.0757976,0.39154,1.08066
59.336,11.32801,-0.07520235,0.40925,1.08008
60.036,11.362,-0.07677124,0.42576,1.0795
60.736,11.39526,-0.07585784,0.44132,1.07893
61.436,11.42774,-0.07629637,0.4583,1.07835
62.136,11.45962,-0.07856392,0.4735,1.07778
62.836,11.49083,-0.0801648,0.4886,1.0772
63.536,11.52157,-0.07778226,0.50445,1.07663
64.236,11.55185,-0.07689781,0.51854,1.07605
64.936,11.58174,-0.07737104,0.53207,1.07548
65.636,11.6111,-0.07743719,0.54511,1.07491
66.336,11.63996,-0.07650305,0.55962,1.07434
67.036,11.6686,-0.07593403,0.57376,1.07377
67.736,11.69704,-0.07719934,0.58456,1.0732
68.436,11.7252,-0.07899056,0.59602,1.07263
69.136,11.7531,-0.08054589,0.60855,1.07206
69.836,11.78063,-0.08213256,0.62082,1.0715
70.536,11.80792,-0.08230514,0.63169,1.07093
71.236,11.83511,-0.08191832,0.6434,1.07037
71.936,11.862,-0.08157119,0.65652,1.0698
72.636,11.88888,-0.08185074,0.66565,1.06924
73.336,11.9154,-0.08220028,0.67798,1.06868
74.036,11.94183,-0.08243144,0.68804,1.06812
74.736,11.9681,-0.08202822,0.6978,1.06756
75.436,11.9941,-0.08205002,0.70681,1.067
76.136,12.02007,-0.08220894,0.71904,1.06644
76.836,12.04588,-0.08242659,0.72738,1.06588
77.536,12.07162,-0.08377778,0.73807,1.06532
78.236,12.09714,-0.08454184,0.74795,1.06477
78.936,12.12272,-0.08341183,0.75656,1.06421
79.636,12.14813,-0.08357806,0.76662,1.06366
80.336,12.17343,-0.0845426,0.77538,1.0631
81.036,12.19864,-0.08529101,0.78682,1.06255
81.736,12.22378,-0.08528002,0.7946,1.062
82.436,12.24873,-0.08611066,0.80357,1.06145
83.136,12.2737,-0.08670053,0.81193,1.0609
83.836,12.29854,-0.08726592,0.81957,1.06035
84.536,12.32325,-0.08829087,0.82869,1.0598
85.236,12.34788,-0.08825014,0.8392,1.05925
85.936,12.3725,-0.08683075,0.8477,1.0587
86.636,12.39696,-0.08814392,0.85381,1.05816
87.336,12.4213,-0.08678822,0.86156,1.05761
88.036,12.4457,-0.08814033,0.8714,1.05707
88.736,12.47005,-0.08782973,0.87745,1.05652
89.436,12.4944,-0.08822125,0.88593,1.05598
90.136,12.5188,-0.08849057,0.89164,1.05544
90.836,12.54293,-0.08948382,0.90155,1.0549
91.536,12.56701,-0.08951094,0.90707,1.05436
92.236,12.59106,-0.09001727,0.91363,1.05382
92.936,12.61496,-0.09075251,0.92054,1.05328
93.636,12.63898,-0.09235044,0.92699,1.05274
94.336,12.6629,-0.09197405,0.93152,1.0522
95.036,12.68685,-0.09236441,0.94062,1.05167
95.736,12.71089,-0.09235985,0.94267,1.05113
96.436,12.7348,-0.09375249,0.9485,1.0506
97.136,12.75873,-0.09367052,0.95224,1.05006
97.836,12.78248,-0.09366981,0.95565,1.04953
98.536,12.80613,-0.0936688,0.96173,1.049
99.236,12.82981,-0.09367712,0.96533,1.04847
99.936,12.85355,-0.09372736,0.97064,1.04794
100.636,12.87722,-0.09431907,0.97239,1.04741
101.336,12.901,-0.09431229,0.97695,1.04688
102.036,12.9247,-0.09541564,0.97846,1.04635
102.736,12.9483,-0.09563831,0.9797,1.04582
103.436,12.972,-0.09627606,0.98219,1.0453
104.136,12.99554,-0.09706282,0.9838,1.04477
104.836,13.01914,-0.09772811,0.98793,1.04425
105.536,13.0426,-0.09837632,0.98537,1.04372
106.236,13.0661,-0.09839034,0.98744,1.0432
106.936,13.08967,-0.09838565,0.98454,1.04268
107.636,13.1132,-0.09936601,0.98661,1.04216
108.336,13.13689,-0.09969515,0.98794,1.04164
109.036,13.1604,-0.10014,0.98665,1.04112
109.736,13.18394,-0.101,0.98729,1.0406
110.436,13.20742,-0.10102,0.98564,1.04008
111.136,13.2309,-0.10102,0.98433,1.03956
111.836,13.25438,-0.1013,0.98458,1.03904
112.536,13.27786,-0.10234,0.98106,1.03853
113.236,13.30134,-0.10233,0.98064,1.03801
113.936,13.32475,-0.10233,0.97787,1.0375
114.636,13.34809,-0.10234,0.9765,1.03699
115.336,13.3715,-0.10348,0.97422,1.03647
116.036,13.39475,-0.10365,0.9709,1.03596
116.736,13.41811,-0.10365,0.96813,1.03545
117.436,13.44144,-0.10365,0.96657,1.03494
118.136,13.46469,-0.10365,0.96398,1.03443
118.836,13.48806,-0.10365,0.96058,1.03392
119.536,13.5114,-0.10367,0.95797,1.03342
120.236,13.5346,-0.10538,0.95262,1.03291
120.936,13.55785,-0.10597,0.95368,1.0324
121.636,13.581,-0.10596,0.95098,1.0319
122.336,13.6041,-0.10595,0.9484,1.03139
123.036,13.6273,-0.10713,0.94542,1.03089
123.736,13.6504,-0.10728,0.94147,1.03039
124.436,13.6736,-0.10735,0.93918,1.02988
125.136,13.6967,-0.10597,0.93878,1.02938
125.836,13.71984,-0.10595,0.93597,1.02888
126.536,13.7429,-0.1062,0.93438,1.02838
127.236,13.7659,-0.10602,0.93264,1.02788
127.936,13.7889,-0.10596,0.9325,1.02738
128.636,13.8118,-0.10597,0.92873,1.02689
129.336,13.83472,-0.10648,0.92767,1.02639
130.036,13.85759,-0.10728,0.9274,1.02589
130.736,13.88045,-0.10728,0.92504,1.0254
131.436,13.9034,-0.10728,0.92551,1.0249
132.136,13.9262,-0.10727,0.9245,1.02441
132.836,13.94907,-0.10858,0.9259,1.02392
133.536,13.97194,-0.10863,0.92579,1.02343
134.236,13.9947,-0.1075,0.92509,1.02294
134.936,14.0175,-0.10727,0.9239,1.02244
135.636,14.0402,-0.10727,0.92446,1.02196
136.336,14.0629,-0.10723,0.92334,1.02147
137.036,14.08554,-0.10842,0.92788,1.02098
137.736,14.1082,-0.10859,0.92803,1.02049
138.436,14.13081,-0.10859,0.92809,1.02
139.136,14.1534,-0.10782,0.92924,1.01952
139.836,14.17598,-0.10729,0.93146,1.01903
140.536,14.19847,-0.10727,0.93242,1.01855
141.236,14.22101,-0.10731,0.93339,1.01807
141.936,14.24356,-0.10617,0.93678,1.01758
142.636,14.2661,-0.10734,0.93764,1.0171
143.336,14.2886,-0.1076,0.93772,1.01662
144.036,14.31104,-0.1076,0.94236,1.01614
144.736,14.33336,-0.1076,0.94262,1.01566
145.436,14.35573,-0.1076,0.94681,1.01518
146.136,14.3781,-0.1076,0.94927,1.0147
146.836,14.40042,-0.1076,0.9523,1.01423
147.536,14.4228,-0.10755,0.95503,1.01375
148.236,14.4452,-0.10849,0.95639,1.01327
148.936,14.46744,-0.10921,0.96128,1.0128
149.636,14.4897,-0.10924,0.96264,1.01232
150.336,14.51185,-0.10924,0.96702,1.01185
151.036,14.53405,-0.10924,0.96914,1.01138
151.736,14.5562,-0.10924,0.97163,1.0109
152.436,14.5784,-0.10924,0.97377,1.01043
153.136,14.6006,-0.10924,0.97668,1.00996
153.836,14.6228,-0.10927,0.97993,1.00949
154.536,14.6451,-0.11064,0.98271,1.00902
155.236,14.66729,-0.11056,0.98481,1.00855
155.936,14.68949,-0.11056,0.98686,1.00809
156.636,14.71159,-0.11056,0.99048,1.00762
157.336,14.73375,-0.11056,0.995,1.00715
158.036,14.75581,-0.11056,0.99794,1.00669
158.736,14.77784,-0.11056,0.99905,1.00622
159.436,14.79999,-0.11056,1.00241,1.00576
160.136,14.82201,-0.1105,1.00623,1.0053
160.836,14.8441,-0.11181,1.00802,1.00483
161.536,14.8662,-0.11188,1.01185,1.00437
162.236,14.88821,-0.11188,1.01447,1.00391
162.936,14.9102,-0.11188,1.01794,1.00345
163.636,14.9321,-0.11188,1.02052,1.00299
164.336,14.9541,-0.11188,1.02545,1.00253
165.036,14.97604,-0.11188,1.02854,1.00207
165.736,14.998,-0.11188,1.03395,1.00161
166.436,15.01997,-0.11188,1.03485,1.00116
167.136,15.0419,-0.11188,1.03741,1.0007
167.836,15.06378,-0.11188,1.03889,1.00025
168.536,15.0857,-0.11188,1.04414,0.99979
169.236,15.1076,-0.11188,1.04489,0.99934
169.936,15.1296,-0.11188,1.05023,0.99888
170.636,15.1515,-0.11104,1.0517,0.99843
171.336,15.17334,-0.11058,1.05492,0.99798
172.036,15.1952,-0.11057,1.05793,0.99753
172.736,15.21694,-0.11057,1.06151,0.99708
173.436,15.23879,-0.11057,1.0652,0.99663
174.136,15.26055,-0.11126,1.06622,0.99618
174.836,15.28241,-0.11188,1.06969,0.99573
175.536,15.30429,-0.11244,1.07311,0.99528
176.236,15.32605,-0.11324,1.07699,0.99484
176.936,15.3479,-0.11322,1.08004,0.99439
177.636,15.3697,-0.1119,1.08212,0.99394
178.336,15.39141,-0.1132,1.08363,0.9935
179.036,15.4132,-0.1132,1.08704,0.99305
179.736,15.43488,-0.1132,1.09107,0.99261
180.436,15.4565,-0.1132,1.09376,0.99217
181.136,15.4782,-0.11295,1.09642,0.99172
181.836,15.4998,-0.11189,1.10022,0.99128
182.536,15.5215,-0.11201,1.10088,0.99084
183.236,15.54313,-0.11252,1.1023,0.9904
183.936,15.5647,-0.11255,1.10558,0.98996
184.636,15.58635,-0.11297,1.11031,0.98952
185.336,15.6079,-0.11387,1.11313,0.98908
186.036,15.6294,-0.11386,1.11466,0.98865
186.736,15.65094,-0.11386,1.12013,0.98821
187.436,15.6725,-0.11386,1.12248,0.98777
188.136,15.69403,-0.11386,1.12497,0.98734
188.836,15.7156,-0.11388,1.12834,0.9869
189.536,15.7372,-0.11441,1.13191,0.98647
190.236,15.75875,-0.11451,1.1319,0.98604
190.936,15.7803,-0.11451,1.1336,0.9856
191.636,15.8018,-0.11451,1.13678,0.98517
192.336,15.8232,-0.11443,1.13944,0.98474
193.036,15.8447,-0.11579,1.14178,0.98431
193.736,15.86614,-0.11607,1.14361,0.98388
194.436,15.88754,-0.11616,1.14603,0.98345
195.136,15.90903,-0.11616,1.15105,0.98302
195.836,15.93043,-0.11616,1.15293,0.98259
196.536,15.95186,-0.11616,1.15564,0.98216
197.236,15.9733,-0.1161,1.15854,0.98173
197.936,15.9948,-0.11685,1.1624,0.98131
198.636,16.0162,-0.11717,1.16354,0.98088
199.336,16.03756,-0.11715,1.16597,0.98046
200.036,16.05896,-0.11715,1.16752,0.98003
200.736,16.0804,-0.11823,1.17337,0.97961
201.436,16.1019,-0.11847,1.17611,0.97918
202.136,16.1233,-0.11848,1.17815,0.97876
202.836,16.14472,-0.11856,1.1817,0.97834
203.536,16.1661,-0.11718,1.18378,0.97792
204.236,16.18739,-0.11715,1.18667,0.9775
204.936,16.20876,-0.11715,1.19011,0.97707
205.636,16.2301,-0.11788,1.1918,0.97666
206.336,16.2514,-0.11845,1.19401,0.97624
207.036,16.27276,-0.11845,1.19769,0.97582
207.736,16.29414,-0.11922,1.202,0.9754
208.436,16.3155,-0.12104,1.204,0.97498
209.136,16.3368,-0.1211,1.2056,0.97456
209.836,16.358,-0.1211,1.20828,0.97415
210.536,16.37929,-0.1211,1.21119,0.97373
211.236,16.40063,-0.1211,1.21375,0.97332
211.936,16.422,-0.1211,1.21575,0.9729
212.636,16.44345,-0.1211,1.21949,0.97249
213.336,16.46479,-0.1211,1.22419,0.97208
214.036,16.48609,-0.1211,1.22465,0.97166
214.736,16.50745,-0.12112,1.22844,0.97125
215.436,16.52882,-0.12205,1.23118,0.97084
216.136,16.55016,-0.12241,1.23529,0.97043
216.836,16.5715,-0.12241,1.23789,0.97002
217.536,16.59282,-0.12242,1.23954,0.96961
218.236,16.6141,-0.12267,1.24151,0.9692
218.936,16.63541,-0.12377,1.24686,0.96879
219.636,16.6567,-0.12373,1.24917,0.96838
220.336,16.67791,-0.12373,1.25173,0.96798
221.036,16.6992,-0.12373,1.25409,0.96757
221.736,16.72041,-0.12374,1.25657,0.96716
222.436,16.74169,-0.12513,1.26184,0.96676
223.136,16.76298,-0.12507,1.26392,0.96635
223.836,16.78424,-0.12551,1.26503,0.96595
224.536,16.8055,-0.12636,1.26841,0.96554
225.236,16.82682,-0.12748,1.27024,0.96514
225.936,16.84805,-0.12761,1.27429,0.96474
226.636,16.8693,-0.12899,1.27673,0.96433
227.336,16.8905,-0.12899,1.27805,0.96393
228.036,16.91168,-0.12899,1.28312,0.96353
228.736,16.9329,-0.12902,1.28493,0.96313
229.436,16.95413,-0.12876,1.28769,0.96273
230.136,16.9754,-0.12934,1.29184,0.96233
230.836,16.99663,-0.12932,1.29268,0.96193
231.536,17.01785,-0.12932,1.29441,0.96153
232.236,17.0391,-0.12932,1.29476,0.96113
232.936,17.06034,-0.12933,1.30044,0.96074
233.636,17.08162,-0.12951,1.30115,0.96034
234.336,17.1028,-0.13065,1.30784,0.95994
235.036,17.12405,-0.1307,1.30859,0.95955
235.736,17.14515,-0.13203,1.31127,0.95915
236.436,17.16627,-0.13209,1.3143,0.95875
237.136,17.18742,-0.13323,1.31923,0.95836
237.836,17.20861,-0.13467,1.31718,0.95797
238.536,17.22981,-0.13601,1.32333,0.95757
239.236,17.25102,-0.13601,1.32272,0.95718
239.936,17.2722,-0.13598,1.32946,0.95679
240.636,17.29336,-0.1359,1.33039,0.95639
241.336,17.31455,-0.13591,1.3325,0.956
242.036,17.33571,-0.13489,1.33845,0.95561
242.736,17.35689,-0.13507,1.33877,0.95522
243.436,17.37805,-0.13591,1.33943,0.95483
244.136,17.39921,-0.1359,1.34324,0.95444
244.836,17.42039,-0.13733,1.34534,0.95405
245.536,17.44152,-0.13821,1.34988,0.95366
246.236,17.46272,-0.13871,1.3526,0.95328
246.936,17.48382,-0.13978,1.35463,0.95289
247.636,17.5049,-0.14003,1.35791,0.9525
248.336,17.52596,-0.14188,1.36172,0.95211
249.036,17.54712,-0.14273,1.36354,0.95173
249.736,17.56833,-0.14433,1.36797,0.95134
250.436,17.58953,-0.14471,1.37137,0.95096
251.136,17.61081,-0.14596,1.37218,0.95057
251.836,17.63195,-0.14812,1.37763,0.95019
252.536,17.65308,-0.14853,1.3791,0.9498
253.236,17.67419,-0.15008,1.38414,0.94942
253.936,17.69531,-0.15081,1.38793,0.94904
254.636,17.71644,-0.15184,1.39169,0.94866
255.336,17.73757,-0.15465,1.39298,0.94827
256.036,17.75874,-0.15616,1.39695,0.94789
256.736,17.77986,-0.15655,1.40026,0.94751
257.436,17.80098,-0.15624,1.40391,0.94713
258.136,17.82214,-0.1569,1.40735,0.94675
258.836,17.84321,-0.15726,1.41019,0.94637
259.536,17.86429,-0.15795,1.41273,0.94599
260.236,17.88544,-0.15951,1.41581,0.94561
260.936,17.90656,-0.16098,1.41942,0.94523
261.636,17.92766,-0.16305,1.42261,0.94485
262.336,17.9488,-0.16407,1.4269,0.94448
263.036,17.96998,-0.16578,1.43086,0.9441
263.736,17.99111,-0.16766,1.43153,0.94372
264.436,18.0122,-0.16973,1.43563,0.94335
265.136,18.0333,-0.17172,1.43972,0.94297
265.836,18.05435,-0.1737,1.44317,0.94259
266.536,18.07539,-0.17529,1.44608,0.94222
267.236,18.09652,-0.17674,1.44896,0.94184
267.936,18.1176,-0.17827,1.45101,0.94147
268.636,18.13874,-0.18047,1.45261,0.9411
269.336,18.1599,-0.18268,1.45493,0.94072
270.036,18.18101,-0.18452,1.45923,0.94035
270.736,18.20211,-0.18647,1.46097,0.93998
271.436,18.22328,-0.18851,1.46452,0.9396
272.136,18.24436,-0.19049,1.466,0.93923
272.836,18.26547,-0.19252,1.46839,0.93886
273.536,18.28657,-0.19363,1.46987,0.93849
274.236,18.3077,-0.19566,1.47107,0.93812
274.936,18.32876,-0.19763,1.47508,0.93775
275.636,18.34986,-0.20007,1.47732,0.93738
276.336,18.37102,-0.20291,1.47602,0.93701
277.036,18.3921,-0.20632,1.47791,0.93664
277.736,18.41319,-0.20936,1.48057,0.93627
278.436,18.43435,-0.21166,1.48194,0.9359
279.136,18.4555,-0.2136,1.48476,0.93553
279.836,18.4766,-0.21585,1.48459,0.93517
280.536,18.4978,-0.21829,1.48418,0.9348
281.236,18.51888,-0.22142,1.48567,0.93443
281.936,18.53999,-0.22555,1.487,0.93406
282.636,18.5612,-0.2284,1.48885,0.9337
283.336,18.58223,-0.23055,1.49004,0.93333
284.036,18.60331,-0.23336,1.49222,0.93297
284.736,18.62446,-0.23601,1.49219,0.9326
285.436,18.64559,-0.23964,1.49274,0.93224
286.136,18.6668,-0.24461,1.49528,0.93187
286.836,18.68804,-0.24796,1.49501,0.93151
287.536,18.70918,-0.25184,1.49613,0.93114
288.236,18.73029,-0.25494,1.49861,0.93078
288.936,18.75146,-0.25865,1.49674,0.93042
289.636,18.77261,-0.26167,1.49838,0.93005
290.336,18.79376,-0.26609,1.49942,0.92969
291.036,18.81489,-0.27022,1.49977,0.92933
291.736,18.83604,-0.27368,1.49893,0.92896
292.436,18.85714,-0.27781,1.50148,0.9286
293.136,18.87827,-0.28192,1.50181,0.92824
293.836,18.89948,-0.2868,1.50323,0.92788
294.536,18.92059,-0.29122,1.50457,0.92752
295.236,18.9418,-0.29592,1.50607,0.92716
295.936,18.96292,-0.30047,1.50525,0.9268
296.636,18.98406,-0.30528,1.50339,0.92644
297.336,19.0053,-0.30923,1.50369,0.92608
298.036,19.02652,-0.31311,1.50604,0.92572
298.736,19.04768,-0.31822,1.50552,0.92536
299.436,19.06888,-0.32361,1.5066,0.925
300.136,19.08991,-0.32814,1.51038,0.92464
300.836,19.11105,-0.33403,1.50864,0.92429
301.536,19.1323,-0.33896,1.50886,0.92393
302.236,19.15346,-0.3451,1.51214,0.92357
302.936,19.1748,-0.35015,1.51168,0.92321
303.636,19.19589,-0.35614,1.51268,0.92286
304.336,19.21696,-0.36103,1.51415,0.9225
305.036,19.2381,-0.36644,1.51453,0.92214
305.736,19.25927,-0.3723,1.51499,0.92179
306.436,19.28049,-0.37874,1.51768,0.92143
307.136,19.30186,-0.38454,1.51915,0.92108
307.836,19.32306,-0.39013,1.5199,0.92072
308.536,19.34427,-0.39743,1.52272,0.92037
309.236,19.36542,-0.40359,1.52329,0.92001
309.936,19.38661,-0.41076,1.52553,0.91966
310.636,19.40781,-0.41682,1.52806,0.9193
311.336,19.42896,-0.42442,1.52979,0.91895
312.036,19.4502,-0.43052,1.53101,0.91859
312.736,19.47145,-0.43639,1.53354,0.91824
313.436,19.49269,-0.44293,1.53711,0.91789
314.136,19.51391,-0.45084,1.53734,0.91753
314.836,19.53515,-0.45727,1.54194,0.91718
315.536,19.55637,-0.46484,1.54581,0.91683
316.236,19.5776,-0.47362,1.54702,0.91647
316.936,19.59882,-0.48196,1.5515,0.91612
317.636,19.62004,-0.49029,1.55436,0.91577
318.336,19.6413,-0.49868,1.56103,0.91542
319.036,19.66253,-0.507,1.56162,0.91507
319.736,19.68376,-0.51417,1.56752,0.91472
320.436,19.70501,-0.52219,1.57273,0.91436
321.136,19.72627,-0.52931,1.57397,0.91401
321.836,19.7475,-0.53902,1.58396,0.91366
322.536,19.76877,-0.54683,1.58995,0.91331
323.236,19.78999,-0.557,1.59542,0.91296
323.936,19.81126,-0.56523,1.60047,0.91261
324.636,19.83251,-0.57578,1.60659,0.91226
325.336,19.85377,-0.58436,1.61225,0.91191
326.036,19.87508,-0.59657,1.61765,0.91156
326.736,19.89636,-0.6061,1.62782,0.91121
327.436,19.91767,-0.61715,1.63431,0.91086
328.136,19.939,-0.62872,1.64331,0.91051
328.836,19.96023,-0.63927,1.64963,0.91017
329.536,19.9815,-0.65039,1.65999,0.90982
330.236,20.00281,-0.66139,1.66556,0.90947
330.936,20.02394,-0.67374,1.67511,0.90912
331.636,20.0451,-0.68511,1.68437,0.90877
332.336,20.06625,-0.69867,1.69274,0.90842
333.036,20.08754,-0.70976,1.69891,0.90808
333.736,20.109,-0.72284,1.71061,0.90773
334.436,20.13045,-0.73331,1.72045,0.90738
335.136,20.15188,-0.7468,1.7297,0.90703
335.836,20.1732,-0.75786,1.73952,0.90669
336.536,20.19454,-0.77106,1.74989,0.90634
337.236,20.21583,-0.78347,1.75969,0.90599
337.936,20.23726,-0.79817,1.76994,0.90565
338.636,20.25865,-0.81183,1.77849,0.9053
339.336,20.28,-0.82595,1.78723,0.90495
340.036,20.30145,-0.84062,1.79959,0.90461
340.736,20.3228,-0.85455,1.80768,0.90426
341.436,20.3442,-0.87019,1.81471,0.90392
342.136,20.36559,-0.88458,1.8274,0.90357
342.836,20.38699,-0.90114,1.83314,0.90322
343.536,20.40841,-0.91511,1.84396,0.90288
344.236,20.4298,-0.93303,1.85155,0.90253
344.936,20.45126,-0.94762,1.86171,0.90219
345.636,20.4726,-0.96488,1.86764,0.90184
346.336,20.49401,-0.97901,1.87649,0.9015
347.036,20.51543,-0.99634,1.88452,0.90115
347.736,20.53687,-1.01161,1.89071,0.90081
348.436,20.5583,-1.02863,1.90017,0.90046
349.136,20.57976,-1.04542,1.90409,0.90012
349.836,20.60125,-1.06217,1.91303,0.89977
350.536,20.62265,-1.07952,1.92131,0.89943
351.236,20.64408,-1.09737,1.92638,0.89908
351.936,20.6656,-1.11676,1.93652,0.89874
352.636,20.68704,-1.13277,1.94086,0.89839
353.336,20.70855,-1.15216,1.94906,0.89805
354.036,20.73,-1.16818,1.9585,0.89771
354.736,20.75146,-1.18827,1.9638,0.89736
355.436,20.77286,-1.20521,1.96809,0.89702
356.136,20.79431,-1.22471,1.97802,0.89667
356.836,20.81588,-1.2413,1.9825,0.89633
357.536,20.83739,-1.26027,1.98995,0.89599
358.236,20.85896,-1.27862,1.99716,0.89564
358.936,20.88046,-1.29801,2.0048,0.8953
359.636,20.90181,-1.31753,2.0143,0.89496
360.336,20.92334,-1.33556,2.02139,0.89461
361.036,20.9449,-1.35595,2.03486,0.89427
361.736,20.96645,-1.37409,2.0418,0.89393
362.436,20.98818,-1.39663,2.05368,0.89358
363.136,21.0096,-1.4146,2.06127,0.89324
363.836,21.03117,-1.43654,2.07759,0.8929
364.536,21.0528,-1.45402,2.08829,0.89255
365.236,21.07433,-1.47573,2.10255,0.89221
365.936,21.09592,-1.49514,2.11586,0.89187
366.636,21.11743,-1.51639,2.13126,0.89152
367.336,21.13889,-1.53617,2.14866,0.89118
368.036,21.16045,-1.55696,2.16593,0.89084
368.736,21.182,-1.57893,2.18559,0.89049
369.436,21.2037,-1.59971,2.20485,0.89015
370.136,21.22537,-1.62334,2.22491,0.88981
370.836,21.24689,-1.64321,2.24798,0.88947
371.536,21.26847,-1.66821,2.27201,0.88912
372.236,21.29006,-1.6882,2.29688,0.88878
372.936,21.31172,-1.71283,2.32225,0.88844
373.636,21.33343,-1.73324,2.34859,0.88809
374.336,21.35507,-1.75827,2.37644,0.88775
375.036,21.37676,-1.78149,2.40501,0.88741
375.736,21.3984,-1.80724,2.43214,0.88707
376.436,21.4201,-1.83211,2.46353,0.88672
377.136,21.44179,-1.85636,2.49483,0.88638
377.836,21.46348,-1.88288,2.52322,0.88604
378.536,21.48519,-1.90758,2.55522,0.8857
379.236,21.50688,-1.93643,2.58332,0.88535
379.936,21.5286,-1.96015,2.6175,0.88501
380.636,21.5503,-1.98956,2.64595,0.88467
381.336,21.572,-2.01411,2.67417,0.88432
382.036,21.59372,-2.04424,2.70173,0.88398
382.736,21.61542,-2.06968,2.729,0.88364
383.436,21.63713,-2.09964,2.7537,0.8833
384.136,21.6588,-2.12749,2.77465,0.88295
384.836,21.68061,-2.157,2.79768,0.88261
385.536,21.7024,-2.18769,2.81627,0.88227
386.236,21.72417,-2.21628,2.83304,0.88192
386.936,21.7459,-2.24861,2.84259,0.88158
387.636,21.76764,-2.27578,2.85095,0.88124
388.336,21.7894,-2.30916,2.85645,0.88089
389.036,21.8111,-2.33631,2.85338,0.88055
389.736,21.83284,-2.37017,2.84778,0.88021
390.436,21.85461,-2.39818,2.83379,0.87986
391.136,21.8764,-2.43022,2.81852,0.87952
391.836,21.89815,-2.45864,2.7926,0.87918
392.536,21.91992,-2.48921,2.76347,0.87883
393.236,21.9417,-2.5198,2.72815,0.87849
393.936,21.96343,-2.54804,2.68674,0.87815
394.636,21.9851,-2.57864,2.63495,0.8778
395.336,22.0068,-2.6049,2.57936,0.87746
396.036,22.02856,-2.63625,2.51456,0.87711
396.736,22.0503,-2.66104,2.44535,0.87677
397.436,22.07206,-2.69045,2.37092,0.87643
398.136,22.09376,-2.71314,2.28867,0.87608
398.836,22.1155,-2.73885,2.20411,0.87574
399.536,22.1372,-2.76036,2.11362,0.87539
400.236,22.15886,-2.78369,2.01848,0.87505
400.936,22.18058,-2.8052,1.91835,0.87471
401.636,22.2022,-2.82494,1.81917,0.87436
402.336,22.22383,-2.84506,1.7175,0.87402
403.036,22.24537,-2.86136,1.61239,0.87367
403.736,22.26698,-2.87936,1.50902,0.87333
404.436,22.2886,-2.89366,1.40637,0.87298
405.136,22.31028,-2.91025,1.30317,0.87264
405.836,22.33192,-2.92237,1.20148,0.87229
406.536,22.35355,-2.93615,1.10694,0.87195
407.236,22.37515,-2.94753,1.01298,0.8716
407.936,22.3967,-2.96,0.9207,0.87126
408.636,22.41832,-2.96969,0.83679,0.87091
409.336,22.43996,-2.97766,0.75529,0.87056
410.036,22.46159,-2.98511,0.68047,0.87022
410.736,22.48321,-2.99102,0.61113,0.86987
411.436,22.50487,-2.99723,0.54899,0.86953
412.136,22.52658,-3.00211,0.48926,0.86918
412.836,22.54825,-3.00813,0.43661,0.86883
413.536,22.56995,-3.01269,0.3884,0.86849
414.236,22.59151,-3.01743,0.34956,0.86814
414.936,22.61315,-3.02189,0.31145,0.86779
415.636,22.63482,-3.02571,0.28068,0.86745
416.336,22.65655,-3.02966,0.25385,0.8671
417.036,22.67839,-3.03282,0.22914,0.86675
417.736,22.7001,-3.03599,0.2075,0.86641
418.436,22.72191,-3.03941,0.19039,0.86606
419.136,22.74359,-3.04371,0.17563,0.86571
419.836,22.76537,-3.04605,0.16069,0.86536
420.536,22.78716,-3.04848,0.14877,0.86501
421.236,22.80895,-3.05134,0.13678,0.86467
421.936,22.83077,-3.05496,0.12613,0.86432
422.636,22.85249,-3.0578,0.11673,0.86397
423.336,22.87424,-3.05867,0.10946,0.86362
424.036,22.89602,-3.06027,0.10034,0.86327
424.736,22.91781,-3.06209,0.09296781,0.86292
425.436,22.93962,-3.06469,0.08508855,0.86257
426.136,22.96153,-3.06706,0.08008104,0.86222
426.836,22.9834,-3.06929,0.07314847,0.86188
427.536,23.00538,-3.07217,0.06558747,0.86153
428.236,23.02735,-3.07538,0.05841063,0.86118
428.936,23.0493,-3.07682,0.05490998,0.86083
429.636,23.07113,-3.07784,0.04882229,0.86047
430.336,23.093,-3.07987,0.04229026,0.86012
431.036,23.11497,-3.08223,0.03892124,0.85977
431.736,23.1369,-3.08535,0.03189057,0.85942
432.436,23.15886,-3.08872,0.02620385,0.85907
433.136,23.18074,-3.09118,0.02304864,0.85872
433.836,23.20263,-3.09343,0.01524742,0.85837
434.536,23.22455,-3.09543,0.009249407,0.85802
435.236,23.2465,-3.09769,0.003796548,0.85767
435.936,23.26846,-3.1002,-0.003625057,0.85731
436.636,23.2904,-3.1027,-0.005224348,0.85696
437.336,23.31241,-3.10422,-0.01114155,0.85661
438.036,23.33447,-3.10671,-0.01900226,0.85626
438.736,23.3565,-3.10992,-0.0213585,0.8559
439.436,23.37846,-3.11204,-0.02687072,0.85555
440.136,23.40044,-3.11223,-0.03146873,0.8552
440.836,23.42237,-3.11384,-0.03628324,0.85484
441.536,23.44435,-3.1162,-0.04138331,0.85449
442.236,23.46633,-3.11802,-0.04315559,0.85413
442.936,23.4883,-3.11988,-0.0493102,0.85378
443.636,23.5103,-3.12182,-0.05247445,0.85342
444.336,23.5323,-3.12373,-0.05840239,0.85307
445.036,23.55432,-3.1254,-0.06055964,0.85271
445.736,23.57635,-3.12717,-0.06264464,0.85236
446.436,23.59842,-3.128,-0.06818201,0.852
447.136,23.62048,-3.13026,-0.07171414,0.85165
447.836,23.6425,-3.13261,-0.07703421,0.85129
448.536,23.66457,-3.13509,-0.07926399,0.85094
449.236,23.68662,-3.13788,-0.08445022,0.85058
449.936,23.7087,-3.1396,-0.08683262,0.85022
450.636,23.73078,-3.14162,-0.08827228,0.84986
451.336,23.75287,-3.14399,-0.09168774,0.84951
452.036,23.7749,-3.14645,-0.0917299,0.84915
452.736,23.79684,-3.14811,-0.09377142,0.84879
453.436,23.81874,-3.14969,-0.09403778,0.84843
454.136,23.84074,-3.15189,-0.09740397,0.84808
454.836,23.86288,-3.15417,-0.09827865,0.84772
455.536,23.88512,-3.15612,-0.0987598,0.84736
456.236,23.90739,-3.15721,-0.09813059,0.847
456.936,23.9296,-3.1589,-0.09896347,0.84664
457.636,23.9517,-3.16061,-0.09874585,0.84628
458.336,23.97385,-3.16291,-0.09751756,0.84592
459.036,23.99596,-3.16534,-0.10033,0.84556
459.736,24.0181,-3.16704,-0.09741557,0.8452
460.436,24.04026,-3.16902,-0.09646044,0.84484
461.136,24.06244,-3.17135,-0.09354903,0.84447
461.836,24.08469,-3.1729,-0.09347152,0.84411
462.536,24.10687,-3.17461,-0.09065102,0.84375
463.236,24.12901,-3.17617,-0.08849035,0.84339
463.936,24.15115,-3.1772,-0.08706753,0.84303
464.636,24.17326,-3.17887,-0.08265153,0.84266
465.336,24.1954,-3.17989,-0.08151367,0.8423
466.036,24.2177,-3.18115,-0.07963608,0.84194
466.736,24.23989,-3.18184,-0.07566243,0.84157
467.436,24.26217,-3.18274,-0.07481766,0.84121
468.136,24.28442,-3.18489,-0.0678992,0.84084
468.836,24.30666,-3.18784,-0.06386863,0.84048
469.536,24.32891,-3.19008,-0.0583949,0.84011
470.236,24.35114,-3.19268,-0.05518323,0.83975
470.936,24.3734,-3.19446,-0.05116093,0.83938
471.636,24.39565,-3.19599,-0.04651582,0.83902
472.336,24.41791,-3.19749,-0.04298056,0.83865
473.036,24.44023,-3.19974,-0.03685845,0.83828
473.736,24.46252,-3.20243,-0.03239498,0.83792
474.436,24.48477,-3.20382,-0.02487995,0.83755
475.136,24.50713,-3.20403,-0.02360955,0.83718
475.836,24.5294,-3.2056,-0.01559821,0.83681
476.536,24.55173,-3.20602,-0.009602214,0.83645
477.236,24.57404,-3.20672,-0.00414959,0.83608
477.936,24.5963,-3.20846,0.00182257,0.83571
478.636,24.61861,-3.21013,0.006609748,0.83534
479.336,24.64096,-3.21175,0.01125009,0.83497
480.036,24.6633,-3.2133,0.01788225,0.8346
480.736,24.68562,-3.21457,0.02163098,0.83423
481.436,24.7079,-3.21533,0.03124994,0.83386
482.136,24.73016,-3.21632,0.03264207,0.83349
482.836,24.75239,-3.21633,0.03998773,0.83311
483.536,24.77476,-3.21634,0.04412031,0.83274
484.236,24.79713,-3.21848,0.04752895,0.83237
484.936,24.81952,-3.22252,0.05404734,0.832
485.636,24.84197,-3.22455,0.05823727,0.83162
486.336,24.86429,-3.22616,0.06418842,0.83125
487.036,24.8867,-3.22771,0.0691412,0.83088
487.736,24.9091,-3.22861,0.07496749,0.8305
488.436,24.93148,-3.22902,0.07792574,0.83013
489.136,24.954,-3.23051,0.08298034,0.82975
489.836,24.97636,-3.23184,0.08526559,0.82938
490.536,24.99868,-3.23199,0.09197876,0.829
491.236,25.02092,-3.2333,0.09754757,0.82863
491.936,25.0432,-3.2347,0.10054,0.82825
492.636,25.06551,-3.23673,0.10183,0.82787
493.336,25.0879,-3.23788,0.10713,0.8275
494.036,25.11048,-3.23934,0.10924,0.82712
494.736,25.1329,-3.24087,0.11413,0.82674
495.436,25.1554,-3.24165,0.11639,0.82636
496.136,25.17784,-3.24247,0.12256,0.82598
496.836,25.20024,-3.2443,0.1232,0.8256
497.536,25.22276,-3.24595,0.12684,0.82522
498.236,25.24525,-3.24699,0.12795,0.82484
498.936,25.26771,-3.24855,0.13274,0.82446
499.636,25.2901,-3.25022,0.13474,0.82408
500.336,25.31249,-3.25144,0.13479,0.8237
501.036,25.33491,-3.2528,0.1396,0.82332
501.736,25.35738,-3.25285,0.14296,0.82294
502.436,25.3799,-3.25285,0.14216,0.82256
503.136,25.40243,-3.25285,0.14731,0.82217
503.836,25.42494,-3.25379,0.15005,0.82179
504.536,25.44748,-3.25416,0.1507,0.82141
505.236,25.46998,-3.2542,0.15162,0.82102
505.936,25.49246,-3.25565,0.15321,0.82064
506.636,25.51497,-3.25667,0.15492,0.82025
507.336,25.53745,-3.25705,0.16029,0.81987
508.036,25.55987,-3.25856,0.16217,0.81948
508.736,25.58241,-3.25954,0.16212,0.8191
509.436,25.6049,-3.25998,0.16594,0.81871
510.136,25.62735,-3.26139,0.16366,0.81832
510.836,25.64988,-3.26146,0.16557,0.81793
511.536,25.67236,-3.26292,0.16701,0.81755
512.236,25.6949,-3.26404,0.16873,0.81716
512.936,25.71736,-3.26425,0.16834,0.81677
513.636,25.73984,-3.26562,0.17061,0.81638
514.336,25.76241,-3.26572,0.17217,0.81599
515.036,25.7849,-3.26717,0.17096,0.8156
515.736,25.8074,-3.2685,0.17232,0.81521
516.436,25.82992,-3.26938,0.17204,0.81482
517.136,25.85247,-3.2701,0.17119,0.81443
517.836,25.87501,-3.27146,0.17659,0.81403
518.536,25.89755,-3.27151,0.17622,0.81364
519.236,25.92012,-3.27226,0.17979,0.81325
519.936,25.94262,-3.27315,0.18117,0.81286
520.636,25.96516,-3.27458,0.1765,0.81246
521.336,25.98772,-3.27603,0.17949,0.81207
522.036,26.01021,-3.27618,0.18247,0.81167
522.736,26.03275,-3.2779,0.18094,0.81128
523.436,26.0553,-3.27808,0.18447,0.81088
524.136,26.0779,-3.27809,0.18404,0.81049
524.836,26.10051,-3.27885,0.18526,0.81009
525.536,26.1231,-3.27942,0.18351,0.80969
526.236,26.14563,-3.28072,0.18473,0.80929
526.936,26.1682,-3.28199,0.18491,0.8089
527.636,26.19079,-3.28209,0.1863,0.8085
528.336,26.21336,-3.28218,0.1865,0.8081
529.036,26.236,-3.28359,0.18616,0.8077
529.736,26.2585,-3.28438,0.18844,0.8073
530.436,26.2812,-3.2852,0.18685,0.8069
531.136,26.30381,-3.28686,0.18495,0.8065
531.836,26.3264,-3.2867,0.18851,0.8061
532.536,26.34902,-3.28805,0.18731,0.80569
533.236,26.3716,-3.28901,0.1868,0.80529
533.936,26.39418,-3.29036,0.19086,0.80489
534.636,26.4168,-3.2909,0.18908,0.80449
535.336,26.4394,-3.29201,0.19047,0.80408
536.036,26.462,-3.29352,0.19123,0.80368
536.736,26.48455,-3.29462,0.189,0.80327
537.436,26.50712,-3.29482,0.19261,0.80287
538.136,26.5297,-3.29664,0.18913,0.80246
538.836,26.55238,-3.29688,0.19186,0.80205
539.536,26.575,-3.29793,0.19016,0.80165
540.236,26.5978,-3.29924,0.19086,0.80124
540.936,26.6204,-3.29936,0.19032,0.80083
541.636,26.6431,-3.30077,0.18963,0.80042
542.336,26.6658,-3.30067,0.18942,0.80002
543.036,26.68845,-3.30067,0.19168,0.79961
543.736,26.71112,-3.30067,0.18588,0.7992
544.436,26.73377,-3.30088,0.18871,0.79879
545.136,26.7564,-3.30224,0.18797,0.79837
545.836,26.7791,-3.30352,0.18724,0.79796
546.536,26.8018,-3.30354,0.18824,0.79755
547.236,26.82445,-3.30402,0.18737,0.79714
547.936,26.84713,-3.30486,0.18767,0.79673
548.636,26.86982,-3.30589,0.18767,0.79631
549.336,26.8925,-3.30625,0.18507,0.7959
550.036,26.9153,-3.30727,0.18662,0.79548
550.736,26.93805,-3.30848,0.18304,0.79507
551.436,26.96081,-3.30855,0.18473,0.79465
552.136,26.98353,-3.30981,0.18481,0.79424
552.836,27.0062,-3.30988,0.18689,0.79382
553.536,27.0289,-3.31129,0.1812,0.7934
554.236,27.0516,-3.3114,0.1845,0.79298
554.936,27.0744,-3.31233,0.18319,0.79257
555.636,27.09716,-3.31191,0.18637,0.79215
556.336,27.12,-3.31272,0.18555,0.79173
557.036,27.14266,-3.31272,0.18595,0.79131
557.736,27.1654,-3.31373,0.18492,0.79089
558.436,27.1882,-3.31406,0.18416,0.79047
559.136,27.211,-3.31524,0.1869,0.79005
559.836,27.23372,-3.31676,0.18905,0.78962
560.536,27.25647,-3.3174,0.19328,0.7892
561.236,27.27925,-3.31811,0.19297,0.78878
561.936,27.302,-3.31916,0.19517,0.78835
562.636,27.3248,-3.31808,0.19684,0.78793
563.336,27.34755,-3.31863,0.20083,0.78751
564.036,27.3703,-3.31952,0.2,0.78708
564.736,27.39307,-3.32055,0.20382,0.78665
565.436,27.41586,-3.32097,0.20664,0.78623
566.136,27.4386,-3.3219,0.20572,0.7858
566.836,27.46149,-3.32248,0.20375,0.78537
567.536,27.48425,-3.32389,0.2085,0.78495
568.236,27.50705,-3.32468,0.20726,0.78452
568.936,27.52989,-3.32534,0.21201,0.78409
569.636,27.5526,-3.32655,0.21053,0.78366
570.336,27.5755,-3.32666,0.21199,0.78323
571.036,27.5983,-3.32663,0.21196,0.7828
571.736,27.6211,-3.32798,0.21489,0.78236
572.436,27.64397,-3.32789,0.21314,0.78193
573.136,27.66678,-3.32928,0.21706,0.7815
573.836,27.68961,-3.3293,0.21466,0.78107
574.536,27.7125,-3.33071,0.21623,0.78063
575.236,27.7354,-3.33064,0.2162,0.7802
575.936,27.75825,-3.33153,0.2191,0.77976
576.636,27.7811,-3.33305,0.22077,0.77933
577.336,27.8039,-3.33324,0.22268,0.77889
578.036,27.82667,-3.33316,0.22321,0.77846
578.736,27.8495,-3.33457,0.22201,0.77802
579.436,27.87238,-3.33401,0.22237,0.77758
580.136,27.8953,-3.33361,0.2261,0.77714
580.836,27.9181,-3.33414,0.22645,0.7767
581.536,27.94102,-3.33488,0.23006,0.77627
582.236,27.9639,-3.3348,0.22962,0.77583
582.936,27.9867,-3.33619,0.2299,0.77538
583.636,28.00962,-3.3362,0.23147,0.77494
584.336,28.0325,-3.3374,0.23073,0.7745
585.036,28.0554,-3.33761,0.23604,0.77406
585.736,28.0783,-3.33896,0.23454,0.77362
586.436,28.1011,-3.33924,0.23371,0.77317
587.136,28.12407,-3.3416,0.23605,0.77273
587.836,28.147,-3.34159,0.23543,0.77228
588.536,28.17,-3.34159,0.23531,0.77184
589.236,28.1929,-3.34159,0.23406,0.77139
589.936,28.21588,-3.34172,0.23564,0.77095
590.636,28.23885,-3.34291,0.23566,0.7705
591.336,28.26175,-3.34291,0.23657,0.77005
592.036,28.2847,-3.3432,0.23702,0.7696
592.736,28.30763,-3.34424,0.23614,0.76916
593.436,28.33057,-3.34422,0.23668,0.76871
594.136,28.35355,-3.34491,0.23254,0.76826
594.836,28.3765,-3.3453,0.23544,0.76781
595.536,28.3994,-3.34664,0.23635,0.76735
596.236,28.42241,-3.34664,0.23397,0.7669
596.936,28.44535,-3.34663,0.23267,0.76645
597.636,28.4683,-3.34663,0.23179,0.766
598.336,28.49134,-3.34717,0.23024,0.76554
599.036,28.5143,-3.34795,0.22773,0.76509
599.736,28.5373,-3.34876,0.22582,0.76464
600.436,28.56025,-3.34926,0.22536,0.76418
601.136,28.5832,-3.35092,0.22362,0.76372
601.836,28.60626,-3.35197,0.21839,0.76327
602.536,28.6293,-3.35223,0.21718,0.76281
603.236,28.65237,-3.35364,0.21303,0.76235
603.936,28.67543,-3.35355,0.21103,0.76189
604.636,28.6985,-3.35354,0.20842,0.76144
605.336,28.72162,-3.35354,0.2053,0.76098
606.036,28.74472,-3.35354,0.20228,0.76052
606.736,28.76768,-3.35356,0.19945,0.76006
607.436,28.79073,-3.35464,0.19864,0.75959
608.136,28.81376,-3.35486,0.19551,0.75913
608.836,28.83675,-3.35486,0.19269,0.75867
609.536,28.85993,-3.35486,0.19299,0.75821
610.236,28.883,-3.35488,0.18952,0.75774
610.936,28.9062,-3.35649,0.18656,0.75728
611.636,28.9292,-3.35749,0.18457,0.75681
612.336,28.9522,-3.35806,0.18302,0.75635
613.036,28.97532,-3.35943,0.18437,0.75588
613.736,28.99839,-3.36027,0.17934,0.75541
614.436,29.02153,-3.36067,0.18034,0.75495
615.136,29.0446,-3.36075,0.17958,0.75448
615.836,29.06765,-3.36202,0.17831,0.75401
616.536,29.09072,-3.36205,0.17678,0.75354
617.236,29.1138,-3.36335,0.17656,0.75307
617.936,29.1369,-3.36331,0.17529,0.7526
618.636,29.16,-3.36403,0.17473,0.75213
619.336,29.1831,-3.36461,0.17385,0.75166
620.036,29.2062,-3.36462,0.17208,0.75119
620.736,29.2293,-3.36462,0.16986,0.75071
621.436,29.2524,-3.36528,0.16735,0.75024
622.136,29.2755,-3.36595,0.16722,0.74976
622.836,29.2987,-3.36688,0.16741,0.74929
623.536,29.32185,-3.36721,0.16767,0.74881
624.236,29.345,-3.36616,0.16406,0.74834
624.936,29.3681,-3.36754,0.16331,0.74786
625.636,29.39119,-3.3676,0.15976,0.74738
626.336,29.41435,-3.36899,0.16286,0.74691
627.036,29.43745,-3.3689,0.15899,0.74643
627.736,29.46061,-3.3689,0.16124,0.74595
628.436,29.48372,-3.3697,0.16067,0.74547
629.136,29.5068,-3.37019,0.1586,0.74499
629.836,29.52992,-3.37157,0.1569,0.74451
630.536,29.55302,-3.37153,0.15368,0.74402
631.236,29.5762,-3.37261,0.15238,0.74354
631.936,29.5994,-3.37285,0.15347,0.74306
632.636,29.62262,-3.37314,0.15211,0.74258
633.336,29.6458,-3.37412,0.15234,0.74209
634.036,29.6689,-3.37547,0.15281,0.74161
634.736,29.6921,-3.37542,0.15553,0.74112
635.436,29.71527,-3.3767,0.15297,0.74063
636.136,29.73845,-3.37839,0.1513,0.74015
636.836,29.7616,-3.37981,0.14982,0.73966
637.536,29.7848,-3.37976,0.14885,0.73917
638.236,29.8079,-3.38076,0.14889,0.73868
638.936,29.8311,-3.37957,0.14711,0.73819
639.636,29.85428,-3.37777,0.1472,0.7377
640.336,29.8774,-3.37768,0.14494,0.73721
641.036,29.9006,-3.37657,0.14523,0.73672
641.736,29.92375,-3.37761,0.14635,0.73623
642.436,29.9469,-3.37836,0.14193,0.73574
643.136,29.97011,-3.3792,0.14086,0.73525
643.836,29.9933,-3.37923,0.1389,0.73475
644.536,30.01646,-3.37994,0.13741,0.73426
645.236,30.0396,-3.3805,0.13646,0.73376
645.936,30.06277,-3.37985,0.13794,0.73327
646.636,30.0859,-3.3805,0.13414,0.73277
647.336,30.1091,-3.38052,0.13459,0.73227
648.036,30.13229,-3.38193,0.13483,0.73178
648.736,30.15533,-3.3818,0.13318,0.73128
649.436,30.1786,-3.38323,0.13186,0.73078
650.136,30.20175,-3.38338,0.12923,0.73028
650.836,30.225,-3.38462,0.13065,0.72978
651.536,30.24825,-3.38458,0.12856,0.72928
652.236,30.27147,-3.38468,0.12765,0.72878
652.936,30.29467,-3.38595,0.12598,0.72828
653.636,30.31788,-3.38591,0.12653,0.72777
654.336,30.34109,-3.38672,0.12587,0.72727
655.036,30.3642,-3.38723,0.12565,0.72677
655.736,30.38733,-3.38803,0.12515,0.72626
656.436,30.4105,-3.38854,0.1252,0.72576
657.136,30.4336,-3.38916,0.12105,0.72525
657.836,30.4569,-3.39119,0.12347,0.72474
658.536,30.48015,-3.3912,0.11972,0.72424
659.236,30.50337,-3.39253,0.11758,0.72373
659.936,30.52658,-3.39251,0.12035,0.72322
660.636,30.5498,-3.39215,0.11715,0.72271
661.336,30.57297,-3.39227,0.11863,0.7222
662.036,30.5961,-3.39247,0.11529,0.72169
662.736,30.6193,-3.39248,0.11798,0.72118
663.436,30.64245,-3.39248,0.1165,0.72067
664.136,30.6656,-3.3935,0.11165,0.72016
664.836,30.6888,-3.3938,0.11458,0.71965
665.536,30.71208,-3.3938,0.11088,0.71913
666.236,30.7353,-3.39478,0.10836,0.71862
666.936,30.75852,-3.39511,0.11007,0.7181
667.636,30.7818,-3.39511,0.10871,0.71759
668.336,30.8049,-3.39605,0.10727,0.71707
669.036,30.8282,-3.39643,0.10855,0.71656
669.736,30.8514,-3.39643,0.10623,0.71604
670.436,30.87455,-3.39651,0.10476,0.71552
671.136,30.8978,-3.39778,0.104,0.715
671.836,30.92093,-3.39775,0.10373,0.71448
672.536,30.9441,-3.39859,0.10141,0.71396
673.236,30.9672,-3.39905,0.10385,0.71344
673.936,30.99045,-3.39906,0.09889764,0.71292
674.636,31.0136,-3.39906,0.09782204,0.7124
675.336,31.0367,-3.39906,0.09722356,0.71188
676.036,31.05985,-3.39906,0.09511401,0.71135
676.736,31.08298,-3.39907,0.09810914,0.71083
677.436,31.10622,-3.39948,0.0961269,0.71031
678.136,31.12955,-3.40038,0.09813917,0.70978
678.836,31.1528,-3.40031,0.09524361,0.70926
679.536,31.176,-3.40167,0.09429295,0.70873
680.236,31.19916,-3.40169,0.09399899,0.7082
680.936,31.22235,-3.40169,0.09104087,0.70768
681.636,31.24555,-3.40169,0.09320999,0.70715
682.336,31.26878,-3.40169,0.09112805,0.70662
683.036,31.292,-3.4008,0.09118353,0.70609
683.736,31.3152,-3.40038,0.08875316,0.70556
684.436,31.3384,-3.40037,0.09137213,0.70503
685.136,31.36161,-3.40037,0.08713406,0.7045
685.836,31.38485,-3.40037,0.08689942,0.70397
686.536,31.40816,-3.40037,0.08572735,0.70343
687.236,31.4314,-3.40037,0.08586224,0.7029
687.936,31.45464,-3.40028,0.08664411,0.70237
688.636,31.47782,-3.40168,0.08624061,0.70183
689.336,31.501,-3.40169,0.08487921,0.7013
690.036,31.5243,-3.40171,0.08767252,0.70076
690.736,31.5475,-3.40252,0.08509366,0.70023
691.436,31.5708,-3.40299,0.08875789,0.69969
692.136,31.594,-3.40361,0.08445401,0.69915
692.836,31.6172,-3.403,0.08427658,0.69861
693.536,31.64047,-3.40346,0.08105492,0.69807
694.236,31.66375,-3.40432,0.08346937,0.69753
694.936,31.68696,-3.40481,0.08099971,0.69699
695.636,31.7102,-3.40565,0.08136267,0.69645
696.336,31.7335,-3.40586,0.08122109,0.69591
697.036,31.75662,-3.4081,0.07921206,0.69537
697.736,31.7798,-3.40827,0.07925836,0.69483
698.436,31.8031,-3.40827,0.07810936,0.69428
699.136,31.8263,-3.40814,0.07970801,0.69374
699.836,31.8496,-3.40767,0.07940399,0.6932
700.536,31.8729,-3.40827,0.07557368,0.69265
701.236,31.8962,-3.40829,0.07613577,0.6921
701.936,31.91948,-3.40694,0.07297302,0.69156
702.636,31.9427,-3.40695,0.07053169,0.69101
703.336,31.96596,-3.40696,0.07428284,0.69046
704.036,31.9891,-3.40729,0.06966562,0.68992
704.736,32.01233,-3.40825,0.06884032,0.68937
705.436,32.03555,-3.40828,0.06917633,0.68882
706.136,32.05876,-3.40828,0.06903158,0.68827
706.836,32.082,-3.40828,0.06902691,0.68772
707.536,32.10535,-3.40828,0.06533665,0.68717
708.236,32.12855,-3.40828,0.06424737,0.68661
708.936,32.1518,-3.40839,0.06636333,0.68606
709.636,32.17502,-3.40963,0.06513989,0.68551
710.336,32.19833,-3.4096,0.06594384,0.68495
711.036,32.22173,-3.41075,0.06260065,0.6844
711.736,32.24505,-3.41091,0.06085452,0.68384
712.436,32.26832,-3.41118,0.05747454,0.68329
713.136,32.2916,-3.41257,0.05779264,0.68273
713.836,32.31487,-3.41256,0.06110242,0.68217
714.536,32.33818,-3.41256,0.0566377,0.68162
715.236,32.36145,-3.41256,0.05953856,0.68106
715.936,32.38473,-3.41257,0.05782449,0.6805
716.636,32.408,-3.41311,0.05540522,0.67994
717.336,32.43128,-3.41386,0.05603123,0.67938
718.036,32.45458,-3.41387,0.05412636,0.67882
718.736,32.47788,-3.41387,0.05307423,0.67826
719.436,32.50119,-3.41387,0.05578489,0.6777
720.136,32.5244,-3.41387,0.04987245,0.67713
720.836,32.5477,-3.41389,0.05280821,0.67657
721.536,32.57094,-3.41499,0.05157985,0.67601
722.236,32.59415,-3.41519,0.05005939,0.67544
722.936,32.61745,-3.41518,0.05147735,0.67488
723.636,32.64079,-3.4144,0.04906629,0.67431
724.336,32.66409,-3.41395,0.04763793,0.67375
725.036,32.68741,-3.41522,0.04862698,0.67318
725.736,32.71075,-3.41519,0.04675218,0.67261
726.436,32.73408,-3.41519,0.04411019,0.67204
727.136,32.75744,-3.41521,0.04368347,0.67148
727.836,32.78079,-3.41629,0.04543407,0.67091
728.536,32.8041,-3.4165,0.04084118,0.67034
729.236,32.82745,-3.4165,0.04015253,0.66977
729.936,32.85078,-3.4165,0.0416263,0.6692
730.636,32.87413,-3.4165,0.04198009,0.66862
731.336,32.8975,-3.4165,0.04045346,0.66805
732.036,32.92087,-3.41647,0.03945358,0.66748
732.736,32.9443,-3.41806,0.0410228,0.66691
733.436,32.9677,-3.41881,0.0394748,0.66633
734.136,32.991,-3.4188,0.03782742,0.66576
734.836,33.0144,-3.41827,0.03732535,0.66518
735.536,33.03775,-3.41875,0.03811598,0.66461
736.236,33.06115,-3.4188,0.03178134,0.66403
736.936,33.0845,-3.4188,0.03190068,0.66345
737.636,33.10785,-3.4188,0.02780698,0.66287
738.336,33.13123,-3.41933,0.02292288,0.6623
739.036,33.15468,-3.4201,0.02256687,0.66172
739.736,33.17817,-3.42012,0.0302933,0.66114
740.436,33.20156,-3.42006,0.02851639,0.66056
741.136,33.22493,-3.41999,0.0262504,0.65998
741.836,33.2483,-3.42012,0.0233145,0.6594
742.536,33.27165,-3.42007,0.02797623,0.65881
743.236,33.29506,-3.42107,0.02569139,0.65823
743.936,33.31855,-3.42012,0.02447477,0.65765
744.636,33.342,-3.42013,0.02493394,0.65707
745.336,33.36547,-3.42013,0.0251912,0.65648
746.036,33.3889,-3.42013,0.02507618,0.6559
746.736,33.4124,-3.42013,0.02034077,0.65531
747.436,33.43587,-3.42026,0.02370008,0.65473
748.136,33.4593,-3.42144,0.02488481,0.65414
748.836,33.48271,-3.4214,0.0214858,0.65355
749.536,33.5061,-3.42262,0.02206267,0.65296
750.236,33.5295,-3.42277,0.02031978,0.65238
750.936,33.55298,-3.42376,0.01814848,0.65179
751.636,33.57647,-3.42374,0.01564566,0.6512
752.336,33.5999,-3.42374,0.01594854,0.65061
753.036,33.6234,-3.42374,0.01699511,0.65002
753.736,33.64683,-3.42374,0.01652751,0.64943
754.436,33.67024,-3.42374,0.01515327,0.64884
755.136,33.6937,-3.42397,0.0152577,0.64824
755.836,33.7172,-3.42508,0.01375155,0.64765
756.536,33.74072,-3.42509,0.0138303,0.64706
757.236,33.76423,-3.42382,0.01326118,0.64646
757.936,33.7877,-3.42376,0.01484115,0.64587
758.636,33.81115,-3.42456,0.01193966,0.64527
759.336,33.83463,-3.42505,0.01277987,0.64468
760.036,33.85808,-3.42506,0.0112919,0.64408
760.736,33.88155,-3.42506,0.00914315,0.64348
761.436,33.90497,-3.42506,0.007927936,0.64289
762.136,33.92837,-3.42506,0.009381998,0.64229
762.836,33.95183,-3.42503,0.0069974,0.64169
763.536,33.97529,-3.42619,0.008468221,0.64109
764.236,33.99882,-3.42638,0.00605956,0.64049
764.936,34.02231,-3.42635,0.00571514,0.63989
765.636,34.0458,-3.4249,0.005853385,0.63929
766.336,34.06923,-3.42637,0.005301076,0.63869
767.036,34.09265,-3.42637,0.00389424,0.63809
767.736,34.11606,-3.42637,0.00284178,0.63749
768.436,34.1395,-3.42637,0.003184316,0.63688
769.136,34.163,-3.42637,0.001795184,0.63628
769.836,34.18651,-3.42632,0.0004585417,0.63568
770.536,34.21,-3.42771,0.00092663,0.63507
771.236,34.23346,-3.42796,-0.0007976273,0.63447
771.936,34.25694,-3.42949,0.00199268,0.63386
772.636,34.2804,-3.42966,0.002422411,0.63325
773.336,34.30399,-3.43034,-8.089905e-05,0.63265
774.036,34.32745,-3.43181,-0.001804179,0.63204
774.736,34.351,-3.43329,0.001001322,0.63143
775.436,34.37444,-3.43222,0.001409751,0.63082
776.136,34.39795,-3.43168,-0.00172198,0.63021
776.836,34.4215,-3.43027,-0.006230222,0.6296
777.536,34.44492,-3.43029,-0.003195452,0.62899
778.236,34.46837,-3.4294,-0.004974269,0.62838
778.936,34.49185,-3.429,-0.005787367,0.62777
779.636,34.51536,-3.429,-0.01044248,0.62716
780.336,34.53887,-3.429,-0.01071455,0.62655
781.036,34.5625,-3.429,-0.006732438,0.62594
781.736,34.58599,-3.42901,-0.009611207,0.62532
782.436,34.60954,-3.42969,-0.01121738,0.62471
783.136,34.63308,-3.4305,-0.009489859,0.62409
783.836,34.6566,-3.43167,-0.01047547,0.62348
784.536,34.68016,-3.43164,-0.007629009,0.62286
785.236,34.70366,-3.43164,-0.006967318,0.62225
785.936,34.72718,-3.43166,-0.007615711,0.62163
786.636,34.75072,-3.43271,-0.004016496,0.62101
787.336,34.77428,-3.43281,-0.00812461,0.6204
788.036,34.79793,-3.43296,-0.005045077,0.61978
788.736,34.82152,-3.43296,-0.004611706,0.61916
789.436,34.84509,-3.43305,-0.009051574,0.61854
790.136,34.86869,-3.43428,-0.00951223,0.61792
790.836,34.89229,-3.43429,-0.007057973,0.6173
791.536,34.9159,-3.43395,-0.007777779,0.61668
792.236,34.93951,-3.43361,-0.01062345,0.61606
792.936,34.96302,-3.43434,-0.009004522,0.61544
793.636,34.98637,-3.43491,-0.01003569,0.61482
793.936,34.99647,-3.43494,-0.01142373,0.61455