File: 01_Data/Pine_Lap_Siding_Wood/STA/N2/30K_min/Pine_Lap_Siding_Wood_STA_N2_30KData_220317_R1.csv
##Temp./Â°C,Time/min,Mass loss(subtr.2)/mg,DSC(subtr.2)/(mW/mg),Sensit./(uV/mW)
48.888,10.01,-0.05429,0.03310892,1.08881
49.588,10.54856,-0.05435799,0.07505228,1.08822
50.288,10.67637,-0.05657165,0.11374,1.08763
50.988,10.76525,-0.05656802,0.14899,1.08704
51.688,10.8381,-0.05813881,0.17956,1.08646
52.388,10.9008,-0.05876747,0.20636,1.08587
53.088,10.95744,-0.05731058,0.23565,1.08528
53.788,11.00911,-0.05788197,0.25832,1.0847
54.488,11.05682,-0.05829573,0.28306,1.08411
55.188,11.1017,-0.05867342,0.3053,1.08353
55.888,11.14415,-0.05916217,0.32524,1.08294
56.588,11.1848,-0.06079674,0.34775,1.08236
57.288,11.22376,-0.05909751,0.36684,1.08178
57.988,11.26125,-0.0587527,0.38519,1.0812
58.688,11.29733,-0.05902711,0.40359,1.08062
59.388,11.3324,-0.05927685,0.42199,1.08004
60.088,11.36662,-0.05788403,0.43897,1.07946
60.788,11.39995,-0.06031798,0.45451,1.07888
61.488,11.43261,-0.05975046,0.47115,1.07831
62.188,11.4647,-0.05967715,0.48617,1.07773
62.888,11.49618,-0.0597916,0.50242,1.07716
63.588,11.52693,-0.0607213,0.5149,1.07658
64.288,11.5571,-0.06107587,0.52782,1.07601
64.988,11.587,-0.0616759,0.5423,1.07544
65.688,11.61642,-0.06061293,0.5553,1.07487
66.388,11.6455,-0.05962596,0.56838,1.0743
67.088,11.67417,-0.05997954,0.583,1.07373
67.788,11.70246,-0.06060032,0.59569,1.07316
68.488,11.73049,-0.06098084,0.60547,1.07259
69.188,11.7584,-0.0604871,0.6187,1.07202
69.888,11.78614,-0.06000889,0.63173,1.07146
70.588,11.81363,-0.06045842,0.64486,1.07089
71.288,11.84085,-0.06143683,0.6551,1.07033
71.988,11.86771,-0.06303044,0.66812,1.06976
72.688,11.89443,-0.06351999,0.67672,1.0692
73.388,11.92106,-0.06356538,0.68754,1.06864
74.088,11.94759,-0.06376701,0.70029,1.06808
74.788,11.9739,-0.0643911,0.7106,1.06752
75.488,11.99997,-0.06360752,0.72291,1.06696
76.188,12.02594,-0.06435697,0.7321,1.0664
76.888,12.0518,-0.06454025,0.74296,1.06584
77.588,12.0778,-0.0644562,0.75315,1.06528
78.288,12.1035,-0.06481697,0.76028,1.06473
78.988,12.12906,-0.06608355,0.77257,1.06417
79.688,12.15447,-0.06476685,0.78404,1.06362
80.388,12.17971,-0.06462033,0.79474,1.06306
81.088,12.2049,-0.06524764,0.80296,1.06251
81.788,12.22998,-0.06536771,0.81343,1.06196
82.488,12.25513,-0.06673834,0.82454,1.06141
83.188,12.2801,-0.06636378,0.83483,1.06086
83.888,12.30494,-0.06838618,0.8422,1.06031
84.588,12.32971,-0.07038218,0.85086,1.05976
85.288,12.3544,-0.07046589,0.86087,1.05921
85.988,12.37904,-0.07046885,0.86803,1.05866
86.688,12.40354,-0.06768209,0.87741,1.05812
87.388,12.428,-0.06785385,0.88512,1.05757
88.088,12.45215,-0.06810029,0.89337,1.05703
88.788,12.4763,-0.06835785,0.90183,1.05648
89.488,12.50053,-0.06941858,0.9089,1.05594
90.188,12.52458,-0.0691413,0.91848,1.0554
90.888,12.54877,-0.06986753,0.92467,1.05486
91.588,12.57292,-0.0711632,0.93397,1.05432
92.288,12.59706,-0.07127187,0.94013,1.05378
92.988,12.62139,-0.0713169,0.94892,1.05324
93.688,12.64552,-0.07188048,0.95352,1.0527
94.388,12.66962,-0.07307384,0.96048,1.05216
95.088,12.6937,-0.07343319,0.96604,1.05163
95.788,12.71762,-0.07402785,0.97306,1.05109
96.488,12.74156,-0.07404081,0.97888,1.05056
97.188,12.76535,-0.07411043,0.9827,1.05002
97.888,12.78921,-0.07536358,0.98875,1.04949
98.588,12.81298,-0.0753441,0.9932,1.04896
99.288,12.83675,-0.07639826,0.9986,1.04843
99.988,12.86045,-0.07667172,1.00238,1.0479
100.688,12.88413,-0.0766721,1.00566,1.04737
101.388,12.9078,-0.07684967,1.007,1.04684
102.088,12.93144,-0.07796324,1.00994,1.04631
102.788,12.95503,-0.077978,1.01441,1.04578
103.488,12.97861,-0.07797762,1.01636,1.04526
104.188,13.00226,-0.07807426,1.01567,1.04473
104.888,13.02582,-0.07934265,1.01642,1.04421
105.588,13.04946,-0.07930034,1.01889,1.04368
106.288,13.073,-0.07929994,1.02093,1.04316
106.988,13.09653,-0.07930013,1.01906,1.04264
107.688,13.12013,-0.07929986,1.01945,1.04212
108.388,13.14365,-0.08000663,1.01748,1.0416
109.088,13.16721,-0.08075357,1.01814,1.04108
109.788,13.19075,-0.08192017,1.01689,1.04056
110.488,13.2142,-0.0819283,1.01385,1.04004
111.188,13.2376,-0.08193158,1.01481,1.03952
111.888,13.26105,-0.08235571,1.01226,1.03901
112.588,13.2845,-0.08324699,1.01163,1.03849
113.288,13.3079,-0.0840368,1.00823,1.03798
113.988,13.33133,-0.08456714,1.00438,1.03746
114.688,13.3547,-0.08539454,1.00227,1.03695
115.388,13.3781,-0.08588567,1.00015,1.03644
116.088,13.40143,-0.08450773,0.99638,1.03592
116.788,13.4248,-0.08456006,0.99382,1.03541
117.488,13.4482,-0.08453141,0.99011,1.0349
118.188,13.47155,-0.08591564,0.98695,1.03439
118.888,13.4949,-0.08588359,0.98389,1.03389
119.588,13.5181,-0.08588015,0.98038,1.03338
120.288,13.5414,-0.08587906,0.97738,1.03287
120.988,13.56435,-0.08583587,0.97373,1.03236
121.688,13.58733,-0.08708357,0.9686,1.03186
122.388,13.6104,-0.08720077,0.96608,1.03135
123.088,13.6333,-0.08720027,0.96421,1.03085
123.788,13.6565,-0.08720001,0.95967,1.03035
124.488,13.67963,-0.0872,0.95708,1.02985
125.188,13.70265,-0.0872,0.9542,1.02934
125.888,13.7257,-0.0872,0.95219,1.02884
126.588,13.74869,-0.0872,0.94888,1.02834
127.288,13.77164,-0.0872,0.94694,1.02785
127.988,13.79461,-0.08719989,0.94362,1.02735
128.688,13.8176,-0.08719847,0.94193,1.02685
129.388,13.8406,-0.08720932,0.94271,1.02635
130.088,13.86355,-0.08592479,0.93967,1.02586
130.788,13.88633,-0.08715909,0.94097,1.02536
131.488,13.90905,-0.08718975,0.9364,1.02487
132.188,13.93175,-0.08719002,0.93935,1.02437
132.888,13.9544,-0.08718977,0.93727,1.02388
133.588,13.97722,-0.0871865,0.93758,1.02339
134.288,14.0001,-0.08719203,0.93701,1.0229
134.988,14.0228,-0.08855869,0.93342,1.02241
135.688,14.0457,-0.08851315,0.93747,1.02192
136.388,14.06838,-0.08851045,0.93739,1.02143
137.088,14.09097,-0.08850504,0.93891,1.02094
137.788,14.1136,-0.08710319,0.93793,1.02045
138.488,14.13618,-0.08719469,0.93895,1.01997
139.188,14.1587,-0.08719996,0.94159,1.01948
139.888,14.1812,-0.08719844,0.94296,1.019
140.588,14.20365,-0.08790315,0.94352,1.01851
141.288,14.226,-0.08849965,0.94456,1.01803
141.988,14.2485,-0.08851947,0.9468,1.01755
142.688,14.2709,-0.08852001,0.94752,1.01707
143.388,14.29328,-0.08852,0.95135,1.01658
144.088,14.3157,-0.08852007,0.95282,1.0161
144.788,14.33804,-0.08852077,0.95409,1.01562
145.488,14.36038,-0.0885168,0.95764,1.01515
146.188,14.3827,-0.08939261,0.96049,1.01467
146.888,14.40489,-0.08991498,0.96234,1.01419
147.588,14.42712,-0.08877741,0.96387,1.01371
148.288,14.4494,-0.08883916,0.96618,1.01324
148.988,14.47158,-0.0888401,0.97085,1.01276
149.688,14.4938,-0.08884001,0.97419,1.01229
150.388,14.516,-0.08884,0.97557,1.01181
151.088,14.5381,-0.08884,0.97866,1.01134
151.788,14.5603,-0.08884,0.97912,1.01087
152.488,14.58234,-0.08884,0.98562,1.0104
153.188,14.6045,-0.08884006,0.98665,1.00993
153.888,14.62667,-0.08884099,0.98738,1.00946
154.588,14.6488,-0.08884804,0.99223,1.00899
155.288,14.67085,-0.08957151,0.99187,1.00852
155.988,14.6929,-0.0901672,0.99696,1.00805
156.688,14.71485,-0.08979565,0.99959,1.00759
157.388,14.73686,-0.08982827,1.00251,1.00712
158.088,14.75889,-0.0898292,1.00597,1.00665
158.788,14.78095,-0.08984267,1.01027,1.00619
159.488,14.80305,-0.08912033,1.01228,1.00572
160.188,14.82513,-0.08875417,1.01522,1.00526
160.888,14.84719,-0.09003383,1.01861,1.0048
161.588,14.86922,-0.090158,1.02192,1.00434
162.288,14.891,-0.09016013,1.02476,1.00388
162.988,14.9129,-0.09016002,1.02674,1.00342
163.688,14.9348,-0.09016,1.02958,1.00296
164.388,14.9568,-0.09016,1.03159,1.0025
165.088,14.97901,-0.09016,1.03445,1.00204
165.788,15.00105,-0.09016,1.039,1.00158
166.488,15.0229,-0.09016,1.04149,1.00112
167.188,15.0448,-0.09016,1.04402,1.00067
167.888,15.06662,-0.09016,1.04851,1.00021
168.588,15.0884,-0.09016,1.04843,0.99976
169.288,15.11021,-0.09016,1.05248,0.9993
169.988,15.13197,-0.09016,1.05744,0.99885
170.688,15.1538,-0.09016,1.0564,0.9984
171.388,15.17569,-0.09016,1.06074,0.99795
172.088,15.1975,-0.09015998,1.06515,0.99749
172.788,15.21941,-0.0901599,1.06819,0.99704
173.488,15.2413,-0.09016379,1.07258,0.99659
174.188,15.26304,-0.09031594,1.07215,0.99615
174.888,15.28483,-0.09115367,1.07768,0.9957
175.588,15.3066,-0.09110571,1.07903,0.99525
176.288,15.32831,-0.09148161,1.08267,0.9948
176.988,15.3501,-0.09146996,1.08473,0.99436
177.688,15.372,-0.0914664,1.08642,0.99391
178.388,15.39385,-0.09135284,1.09173,0.99347
179.088,15.4157,-0.09115405,1.09506,0.99302
179.788,15.4376,-0.09110413,1.09728,0.99258
180.488,15.45931,-0.09244612,1.0992,0.99213
181.188,15.48104,-0.09247321,1.10024,0.99169
181.888,15.50271,-0.09252272,1.10564,0.99125
182.588,15.5243,-0.09123588,1.1083,0.99081
183.288,15.5459,-0.09115152,1.10887,0.99037
183.988,15.56744,-0.09115007,1.11414,0.98993
184.688,15.589,-0.09115,1.11503,0.98949
185.388,15.6107,-0.09115,1.11549,0.98905
186.088,15.6323,-0.09115,1.12042,0.98861
186.788,15.6538,-0.09115,1.12477,0.98818
187.488,15.6754,-0.09115001,1.12631,0.98774
188.188,15.69687,-0.09115011,1.1286,0.98731
188.888,15.71846,-0.09115107,1.13332,0.98687
189.588,15.74,-0.09147,1.13655,0.98644
190.288,15.7616,-0.09244182,1.1376,0.986
190.988,15.7831,-0.09245816,1.14007,0.98557
191.688,15.8046,-0.09245987,1.14276,0.98514
192.388,15.8261,-0.09245999,1.14688,0.98471
193.088,15.8475,-0.09246,1.14883,0.98427
193.788,15.869,-0.09246001,1.15221,0.98384
194.488,15.89047,-0.09245989,1.15399,0.98341
195.188,15.9119,-0.09245281,1.15686,0.98299
195.888,15.93341,-0.09225234,1.15892,0.98256
196.588,15.95488,-0.09181772,1.15992,0.98213
197.288,15.97631,-0.09179421,1.16615,0.9817
197.988,15.9978,-0.09171905,1.16597,0.98128
198.688,16.01918,-0.09312676,1.1686,0.98085
199.388,16.0406,-0.09415709,1.17424,0.98042
200.088,16.06204,-0.09443848,1.17748,0.98
200.788,16.08343,-0.09443986,1.17712,0.97958
201.488,16.10489,-0.09443998,1.18023,0.97915
202.188,16.12625,-0.09443986,1.1844,0.97873
202.888,16.14767,-0.09443831,1.18729,0.97831
203.588,16.1691,-0.09418055,1.18841,0.97789
204.288,16.19043,-0.09312552,1.19051,0.97746
204.988,16.2119,-0.09362909,1.19467,0.97704
205.688,16.23324,-0.09440022,1.19857,0.97662
206.388,16.2546,-0.09523915,1.20174,0.9762
207.088,16.27595,-0.09572916,1.20556,0.97579
207.788,16.29724,-0.09575067,1.20653,0.97537
208.488,16.31854,-0.09597263,1.21261,0.97495
209.188,16.33989,-0.09707175,1.21228,0.97453
209.888,16.36127,-0.0970689,1.21573,0.97412
210.588,16.3826,-0.09706988,1.217,0.9737
211.288,16.40399,-0.09706999,1.2203,0.97329
211.988,16.42537,-0.09707,1.2223,0.97287
212.688,16.44665,-0.09707001,1.2278,0.97246
213.388,16.46796,-0.09707006,1.22884,0.97205
214.088,16.4892,-0.09707041,1.23137,0.97163
214.788,16.51047,-0.09706593,1.23475,0.97122
215.488,16.53185,-0.09787269,1.23848,0.97081
216.188,16.5532,-0.09836624,1.2387,0.9704
216.888,16.5745,-0.09837902,1.24307,0.96999
217.588,16.5958,-0.09837994,1.24775,0.96958
218.288,16.61709,-0.09838001,1.25134,0.96917
218.988,16.6384,-0.0983801,1.25148,0.96876
219.688,16.65975,-0.09838026,1.25564,0.96835
220.388,16.68112,-0.0988117,1.26033,0.96795
221.088,16.7024,-0.09967682,1.26194,0.96754
221.788,16.7237,-0.09969818,1.26248,0.96713
222.488,16.74495,-0.0997008,1.26713,0.96673
223.188,16.76626,-0.09971412,1.26993,0.96632
223.888,16.78752,-0.10016,1.27241,0.96592
224.588,16.80884,-0.10102,1.2743,0.96551
225.288,16.83014,-0.10101,1.27567,0.96511
225.988,16.85135,-0.10101,1.27953,0.96471
226.688,16.87265,-0.10104,1.28153,0.9643
227.388,16.89391,-0.10172,1.2842,0.9639
228.088,16.91519,-0.1033,1.28721,0.9635
228.788,16.93644,-0.10332,1.28849,0.9631
229.488,16.9577,-0.10329,1.2935,0.9627
230.188,16.97899,-0.10365,1.29545,0.9623
230.888,17.0002,-0.1033,1.29784,0.9619
231.588,17.02153,-0.10314,1.30008,0.9615
232.288,17.04273,-0.10396,1.3049,0.9611
232.988,17.06397,-0.10397,1.30664,0.96071
233.688,17.08519,-0.10389,1.3108,0.96031
234.388,17.10639,-0.10525,1.31142,0.95991
235.088,17.12763,-0.10529,1.31574,0.95952
235.788,17.1489,-0.10529,1.31757,0.95912
236.488,17.17012,-0.10563,1.32063,0.95873
237.188,17.1913,-0.10659,1.31971,0.95833
237.888,17.21237,-0.10661,1.32586,0.95794
238.588,17.23347,-0.1066,1.32882,0.95754
239.288,17.2547,-0.10906,1.32897,0.95715
239.988,17.276,-0.10924,1.33327,0.95676
240.688,17.29738,-0.1092,1.33729,0.95637
241.388,17.31878,-0.11051,1.33783,0.95597
242.088,17.34004,-0.11056,1.34252,0.95558
242.788,17.36133,-0.11057,1.34415,0.95519
243.488,17.38257,-0.11197,1.34763,0.9548
244.188,17.40375,-0.11189,1.35114,0.95441
244.888,17.42493,-0.11187,1.35325,0.95402
245.588,17.44612,-0.11285,1.35534,0.95364
246.288,17.46728,-0.11313,1.35806,0.95325
246.988,17.48852,-0.11459,1.36029,0.95286
247.688,17.5097,-0.11362,1.36274,0.95247
248.388,17.53085,-0.11509,1.36633,0.95209
249.088,17.55207,-0.11521,1.37057,0.9517
249.788,17.57329,-0.11647,1.37238,0.95131
250.488,17.5945,-0.11751,1.37258,0.95093
251.188,17.61574,-0.11811,1.37645,0.95054
251.888,17.6369,-0.11928,1.38283,0.95016
252.588,17.65802,-0.1206,1.38454,0.94978
253.288,17.6792,-0.12145,1.386,0.94939
253.988,17.70031,-0.12199,1.3876,0.94901
254.688,17.72144,-0.1234,1.39437,0.94863
255.388,17.7426,-0.12431,1.39619,0.94824
256.088,17.76378,-0.12516,1.39985,0.94786
256.788,17.7849,-0.12642,1.40061,0.94748
257.488,17.8061,-0.12801,1.40647,0.9471
258.188,17.82724,-0.12868,1.40779,0.94672
258.888,17.84839,-0.12936,1.41299,0.94634
259.588,17.8695,-0.13096,1.41535,0.94596
260.288,17.89051,-0.13222,1.4215,0.94558
260.988,17.91155,-0.13312,1.42299,0.9452
261.688,17.9326,-0.13435,1.42629,0.94483
262.388,17.95366,-0.13587,1.4291,0.94445
263.088,17.97476,-0.13742,1.43013,0.94407
263.788,17.99586,-0.13909,1.43345,0.94369
264.488,18.01696,-0.14067,1.43761,0.94332
265.188,18.03804,-0.14151,1.43965,0.94294
265.888,18.0592,-0.14256,1.442,0.94257
266.588,18.08036,-0.14414,1.44537,0.94219
267.288,18.10141,-0.14592,1.44972,0.94182
267.988,18.12254,-0.14804,1.45092,0.94144
268.688,18.14355,-0.15103,1.45289,0.94107
269.388,18.16459,-0.15297,1.45688,0.94069
270.088,18.18571,-0.15482,1.4571,0.94032
270.788,18.2068,-0.15638,1.45878,0.93995
271.488,18.22791,-0.15812,1.46101,0.93958
272.188,18.24917,-0.16015,1.46389,0.9392
272.888,18.27037,-0.16258,1.46693,0.93883
273.588,18.29157,-0.16429,1.46656,0.93846
274.288,18.31287,-0.1657,1.46867,0.93809
274.988,18.33401,-0.16806,1.46997,0.93772
275.688,18.3552,-0.17096,1.47116,0.93735
276.388,18.37635,-0.17341,1.47452,0.93698
277.088,18.39742,-0.1756,1.47498,0.93661
277.788,18.41856,-0.17763,1.47394,0.93624
278.488,18.4396,-0.17974,1.47721,0.93587
279.188,18.4607,-0.18231,1.47916,0.93551
279.888,18.48186,-0.18636,1.48239,0.93514
280.588,18.50297,-0.18956,1.48274,0.93477
281.288,18.52413,-0.19214,1.48351,0.9344
281.988,18.54524,-0.19469,1.48248,0.93404
282.688,18.56635,-0.19762,1.48389,0.93367
283.388,18.58752,-0.20042,1.48613,0.9333
284.088,18.6086,-0.20356,1.48597,0.93294
284.788,18.62977,-0.2067,1.4899,0.93257
285.488,18.651,-0.21025,1.49087,0.93221
286.188,18.67215,-0.21323,1.49142,0.93184
286.888,18.69331,-0.21575,1.49363,0.93148
287.588,18.7145,-0.21919,1.49284,0.93112
288.288,18.73561,-0.2222,1.49484,0.93075
288.988,18.7568,-0.2254,1.49452,0.93039
289.688,18.77798,-0.22859,1.49484,0.93003
290.388,18.7991,-0.23214,1.49745,0.92966
291.088,18.82024,-0.23596,1.49955,0.9293
291.788,18.84134,-0.23985,1.49932,0.92894
292.488,18.8625,-0.24433,1.50233,0.92858
293.188,18.88368,-0.24782,1.50387,0.92821
293.888,18.90486,-0.25161,1.50133,0.92785
294.588,18.92604,-0.255,1.50401,0.92749
295.288,18.9472,-0.25884,1.50412,0.92713
295.988,18.96838,-0.26318,1.5074,0.92677
296.688,18.98953,-0.26744,1.50684,0.92641
297.388,19.0107,-0.27227,1.50774,0.92605
298.088,19.03181,-0.27635,1.5086,0.92569
298.788,19.05295,-0.28131,1.51159,0.92533
299.488,19.07413,-0.28592,1.51017,0.92498
300.188,19.09533,-0.29056,1.51212,0.92462
300.888,19.1165,-0.29519,1.51378,0.92426
301.588,19.13772,-0.29983,1.5156,0.9239
302.288,19.15897,-0.30474,1.51529,0.92354
302.988,19.18016,-0.31044,1.51606,0.92319
303.688,19.20135,-0.31644,1.51759,0.92283
304.388,19.2226,-0.32195,1.51897,0.92247
305.088,19.24379,-0.32767,1.52094,0.92212
305.788,19.265,-0.33245,1.52391,0.92176
306.488,19.28612,-0.33829,1.52244,0.9214
307.188,19.30732,-0.34374,1.52585,0.92105
307.888,19.32848,-0.35044,1.52607,0.92069
308.588,19.34974,-0.35564,1.53009,0.92034
309.288,19.371,-0.36232,1.53198,0.91998
309.988,19.3922,-0.3685,1.53338,0.91963
310.688,19.41346,-0.37568,1.5359,0.91927
311.388,19.43471,-0.38169,1.5384,0.91892
312.088,19.4559,-0.3883,1.54225,0.91857
312.788,19.47721,-0.39404,1.545,0.91821
313.488,19.49844,-0.40083,1.54813,0.91786
314.188,19.51967,-0.40746,1.55051,0.91751
314.888,19.54095,-0.41501,1.5541,0.91715
315.588,19.5622,-0.42279,1.55927,0.9168
316.288,19.58349,-0.42963,1.56137,0.91645
316.988,19.6048,-0.43719,1.56878,0.9161
317.688,19.6261,-0.44397,1.57416,0.91574
318.388,19.64738,-0.45211,1.57624,0.91539
319.088,19.66863,-0.45886,1.58181,0.91504
319.788,19.68995,-0.46834,1.58684,0.91469
320.488,19.71123,-0.47645,1.59448,0.91434
321.188,19.73251,-0.4858,1.59816,0.91399
321.888,19.75381,-0.49294,1.60519,0.91364
322.588,19.7751,-0.50197,1.60925,0.91329
323.288,19.79648,-0.51143,1.6189,0.91294
323.988,19.81782,-0.52131,1.62527,0.91259
324.688,19.83919,-0.53047,1.63286,0.91224
325.388,19.86052,-0.53985,1.63822,0.91189
326.088,19.88182,-0.54938,1.64717,0.91154
326.788,19.90314,-0.55871,1.65146,0.91119
327.488,19.92445,-0.56957,1.66368,0.91084
328.188,19.9458,-0.57962,1.67136,0.91049
328.888,19.96721,-0.59079,1.67948,0.91014
329.588,19.98858,-0.60003,1.6905,0.90979
330.288,20.01,-0.61029,1.69879,0.90944
330.988,20.03134,-0.61986,1.70665,0.90909
331.688,20.05273,-0.6324,1.71454,0.90875
332.388,20.07414,-0.64268,1.72394,0.9084
333.088,20.0955,-0.65527,1.73564,0.90805
333.788,20.1169,-0.66643,1.74437,0.9077
334.488,20.1383,-0.67917,1.75432,0.90736
335.188,20.15971,-0.69072,1.76445,0.90701
335.888,20.18112,-0.70325,1.7747,0.90666
336.588,20.20263,-0.71766,1.78122,0.90631
337.288,20.2241,-0.73009,1.79411,0.90597
337.988,20.24547,-0.74415,1.80599,0.90562
338.688,20.2669,-0.75534,1.81473,0.90527
339.388,20.2883,-0.76967,1.82237,0.90493
340.088,20.30973,-0.78178,1.83095,0.90458
340.788,20.33124,-0.79734,1.84174,0.90424
341.488,20.3527,-0.81032,1.85208,0.90389
342.188,20.37424,-0.82638,1.86082,0.90354
342.888,20.39573,-0.84,1.86832,0.9032
343.588,20.41725,-0.8555,1.8783,0.90285
344.288,20.43872,-0.86945,1.88876,0.90251
344.988,20.4602,-0.88605,1.8965,0.90216
345.688,20.4817,-0.90254,1.90237,0.90182
346.388,20.50315,-0.91776,1.91352,0.90147
347.088,20.52461,-0.93437,1.91995,0.90113
347.788,20.54606,-0.94906,1.92924,0.90078
348.488,20.56759,-0.96652,1.93571,0.90044
349.188,20.58914,-0.98137,1.94402,0.90009
349.888,20.61065,-0.99998,1.95057,0.89975
350.588,20.63216,-1.01532,1.95797,0.8994
351.288,20.65373,-1.03387,1.96329,0.89906
351.988,20.67522,-1.04876,1.97275,0.89871
352.688,20.69678,-1.06634,1.97933,0.89837
353.388,20.71836,-1.08264,1.98454,0.89802
354.088,20.7399,-1.10009,1.99129,0.89768
354.788,20.76153,-1.1174,1.99837,0.89734
355.488,20.78314,-1.1344,2.00565,0.89699
356.188,20.8048,-1.15217,2.01417,0.89665
356.888,20.82634,-1.16887,2.0187,0.8963
357.588,20.84797,-1.18898,2.02779,0.89596
358.288,20.8695,-1.20637,2.03447,0.89562
358.988,20.89109,-1.22606,2.04199,0.89527
359.688,20.9127,-1.24171,2.05022,0.89493
360.388,20.93411,-1.26125,2.0598,0.89459
361.088,20.95561,-1.27812,2.06622,0.89424
361.788,20.97704,-1.299,2.07745,0.8939
362.488,20.99844,-1.31717,2.08667,0.89356
363.188,21.01998,-1.3365,2.10226,0.89321
363.888,21.0416,-1.35527,2.11622,0.89287
364.588,21.06307,-1.37352,2.12668,0.89253
365.288,21.08476,-1.39368,2.14179,0.89218
365.988,21.10645,-1.41179,2.15657,0.89184
366.688,21.12813,-1.43357,2.17373,0.8915
367.388,21.1499,-1.44999,2.19182,0.89116
368.088,21.17158,-1.4721,2.21093,0.89081
368.788,21.1932,-1.49062,2.23135,0.89047
369.488,21.2149,-1.51349,2.25265,0.89013
370.188,21.2366,-1.53276,2.27645,0.88978
370.888,21.25838,-1.55484,2.29949,0.88944
371.588,21.2802,-1.57563,2.32585,0.8891
372.288,21.30185,-1.59684,2.35384,0.88876
372.988,21.32357,-1.61919,2.3794,0.88841
373.688,21.34524,-1.64058,2.41308,0.88807
374.388,21.36691,-1.6652,2.44086,0.88773
375.088,21.3887,-1.68645,2.47121,0.88738
375.788,21.41038,-1.71262,2.49934,0.88704
376.488,21.43208,-1.73413,2.53594,0.8867
377.188,21.45381,-1.76105,2.5677,0.88636
377.888,21.47544,-1.78293,2.59965,0.88601
378.588,21.49719,-1.80931,2.63335,0.88567
379.288,21.51894,-1.83391,2.66601,0.88533
379.988,21.5407,-1.86054,2.69645,0.88498
380.688,21.56246,-1.88759,2.72949,0.88464
381.388,21.5842,-1.91316,2.76143,0.8843
382.088,21.60599,-1.94178,2.78994,0.88396
382.788,21.62779,-1.9675,2.81797,0.88361
383.488,21.64956,-1.9979,2.84299,0.88327
384.188,21.6713,-2.023,2.86787,0.88293
384.888,21.69305,-2.05491,2.88799,0.88258
385.588,21.7148,-2.08106,2.90897,0.88224
386.288,21.73657,-2.11292,2.92114,0.8819
386.988,21.75838,-2.14053,2.93392,0.88155
387.688,21.7802,-2.17109,2.93912,0.88121
388.388,21.80196,-2.20086,2.94009,0.88087
389.088,21.82374,-2.22943,2.9365,0.88052
389.788,21.8455,-2.26109,2.92654,0.88018
390.488,21.8673,-2.2884,2.91071,0.87984
391.188,21.88907,-2.32055,2.89082,0.87949
391.888,21.9108,-2.34606,2.86127,0.87915
392.588,21.9326,-2.37782,2.82665,0.87881
393.288,21.9544,-2.40358,2.78833,0.87846
393.988,21.97615,-2.43401,2.73936,0.87812
394.688,21.99792,-2.46014,2.68185,0.87778
395.388,22.01974,-2.48819,2.62261,0.87743
396.088,22.04148,-2.5147,2.55442,0.87709
396.788,22.06329,-2.53954,2.47758,0.87675
397.488,22.085,-2.56547,2.39697,0.8764
398.188,22.10665,-2.58728,2.31665,0.87606
398.888,22.1283,-2.61245,2.22276,0.87571
399.588,22.1498,-2.63219,2.12978,0.87537
400.288,22.1714,-2.65499,2.03403,0.87502
400.988,22.19298,-2.67224,1.93463,0.87468
401.688,22.21463,-2.69247,1.83104,0.87434
402.388,22.23645,-2.70933,1.72637,0.87399
403.088,22.25827,-2.72749,1.62058,0.87365
403.788,22.28006,-2.74319,1.51677,0.8733
404.488,22.3018,-2.75767,1.41557,0.87296
405.188,22.32348,-2.77223,1.3139,0.87261
405.888,22.345,-2.78402,1.2216,0.87227
406.588,22.36644,-2.79632,1.12606,0.87192
407.288,22.38809,-2.8057,1.03691,0.87158
407.988,22.40973,-2.81596,0.95295,0.87123
408.688,22.4315,-2.82379,0.87027,0.87088
409.388,22.45335,-2.83293,0.79628,0.87054
410.088,22.4751,-2.83807,0.72459,0.87019
410.788,22.49674,-2.8446,0.66114,0.86985
411.488,22.51837,-2.84993,0.60586,0.8695
412.188,22.54005,-2.85646,0.54983,0.86915
412.888,22.56168,-2.86215,0.50327,0.86881
413.588,22.58332,-2.86609,0.46315,0.86846
414.288,22.605,-2.86973,0.42318,0.86812
414.988,22.62666,-2.87303,0.3918,0.86777
415.688,22.64834,-2.87632,0.36238,0.86742
416.388,22.67008,-2.87949,0.33869,0.86707
417.088,22.6918,-2.88165,0.31442,0.86673
417.788,22.71354,-2.8844,0.29819,0.86638
418.488,22.73532,-2.88719,0.28185,0.86603
419.188,22.75712,-2.88958,0.26902,0.86568
419.888,22.7789,-2.89247,0.2564,0.86534
420.588,22.8007,-2.89558,0.24381,0.86499
421.288,22.82251,-2.89823,0.2325,0.86464
421.988,22.84431,-2.90049,0.22418,0.86429
422.688,22.86616,-2.90309,0.21623,0.86394
423.388,22.88795,-2.90547,0.20735,0.8636
424.088,22.9098,-2.90754,0.20158,0.86325
424.788,22.93163,-2.90945,0.19368,0.8629
425.488,22.95348,-2.91163,0.18624,0.86255
426.188,22.9753,-2.91422,0.18089,0.8622
426.888,22.99716,-2.91694,0.17615,0.86185
427.588,23.01905,-2.92054,0.16825,0.8615
428.288,23.0409,-2.92292,0.16592,0.86115
428.988,23.06276,-2.92531,0.15811,0.8608
429.688,23.0847,-2.92754,0.15412,0.86045
430.388,23.1066,-2.92844,0.14947,0.8601
431.088,23.12852,-2.92996,0.14566,0.85975
431.788,23.1505,-2.93152,0.13979,0.8594
432.488,23.17248,-2.93367,0.13562,0.85905
433.188,23.19442,-2.93571,0.13133,0.85869
433.888,23.21631,-2.93806,0.12657,0.85834
434.588,23.23829,-2.94018,0.1202,0.85799
435.288,23.2602,-2.94201,0.11424,0.85764
435.988,23.28205,-2.94417,0.11019,0.85729
436.688,23.304,-2.94668,0.10672,0.85693
437.388,23.32597,-2.94814,0.09997395,0.85658
438.088,23.34796,-2.94985,0.09609961,0.85623
438.788,23.36996,-2.95187,0.09138419,0.85588
439.488,23.39191,-2.95411,0.08630004,0.85552
440.188,23.41392,-2.95688,0.08299727,0.85517
440.888,23.43593,-2.95984,0.08135351,0.85482
441.588,23.4579,-2.96184,0.0755333,0.85446
442.288,23.47997,-2.96317,0.07213404,0.85411
442.988,23.50198,-2.96524,0.06804025,0.85375
443.688,23.52405,-2.9669,0.06167814,0.8534
444.388,23.54607,-2.96904,0.06030961,0.85304
445.088,23.56816,-2.97093,0.05329776,0.85269
445.788,23.59023,-2.97272,0.05073534,0.85233
446.488,23.61224,-2.97491,0.04859693,0.85198
447.188,23.63433,-2.9771,0.04473677,0.85162
447.888,23.65639,-2.97876,0.04202125,0.85127
448.588,23.67851,-2.98052,0.03706434,0.85091
449.288,23.7006,-2.98204,0.03273731,0.85055
449.988,23.72261,-2.98332,0.03127673,0.8502
450.688,23.74471,-2.98488,0.02823523,0.84984
451.388,23.76673,-2.98679,0.02718255,0.84948
452.088,23.7888,-2.98937,0.02215031,0.84912
452.788,23.8109,-2.99153,0.02279509,0.84877
453.488,23.83304,-2.99305,0.0207725,0.84841
454.188,23.85515,-2.99466,0.01844344,0.84805
454.888,23.87721,-2.99695,0.02108981,0.84769
455.588,23.89932,-2.99976,0.01740876,0.84733
456.288,23.9214,-3.00101,0.01615113,0.84697
456.988,23.94346,-3.00293,0.01724193,0.84661
457.688,23.96562,-3.00474,0.01784185,0.84625
458.388,23.9878,-3.00677,0.01741215,0.84589
459.088,24.0099,-3.00868,0.01806151,0.84553
459.788,24.03206,-3.01065,0.0210252,0.84517
460.488,24.05425,-3.01213,0.0166723,0.84481
461.188,24.07635,-3.01364,0.01889255,0.84445
461.888,24.09852,-3.0152,0.02206999,0.84409
462.588,24.12063,-3.0172,0.02257577,0.84372
463.288,24.1428,-3.01879,0.0244058,0.84336
463.988,24.1649,-3.02051,0.0281982,0.843
464.688,24.18701,-3.02199,0.03058614,0.84264
465.388,24.2092,-3.02419,0.03339511,0.84227
466.088,24.23141,-3.02574,0.0364995,0.84191
466.788,24.2536,-3.02671,0.03929266,0.84155
467.488,24.2759,-3.02806,0.04305966,0.84118
468.188,24.2981,-3.02957,0.04565548,0.84082
468.888,24.32028,-3.03099,0.05152949,0.84045
469.588,24.34248,-3.03258,0.05533737,0.84009
470.288,24.36468,-3.0345,0.05769617,0.83972
470.988,24.38694,-3.03622,0.06393059,0.83936
471.688,24.40915,-3.03779,0.06504002,0.83899
472.388,24.43135,-3.03884,0.0705698,0.83862
473.088,24.45359,-3.04052,0.07648507,0.83826
473.788,24.47581,-3.04226,0.08115179,0.83789
474.488,24.498,-3.04397,0.08702997,0.83752
475.188,24.52027,-3.04556,0.09379489,0.83716
475.888,24.5425,-3.04579,0.09481116,0.83679
476.588,24.56474,-3.04724,0.10114,0.83642
477.288,24.58704,-3.0488,0.11051,0.83605
477.988,24.60933,-3.05,0.11772,0.83568
478.688,24.6316,-3.05058,0.1207,0.83531
479.388,24.65392,-3.05203,0.12677,0.83494
480.088,24.67621,-3.05332,0.13292,0.83457
480.788,24.6983,-3.05529,0.13534,0.8342
481.488,24.72052,-3.05761,0.14258,0.83383
482.188,24.74267,-3.0595,0.14953,0.83346
482.888,24.76482,-3.06103,0.15431,0.83309
483.588,24.78714,-3.0627,0.15955,0.83272
484.288,24.80943,-3.06304,0.16475,0.83234
484.988,24.83172,-3.06415,0.16989,0.83197
485.688,24.85405,-3.06509,0.17409,0.8316
486.388,24.87635,-3.06561,0.18231,0.83122
487.088,24.89878,-3.06685,0.18514,0.83085
487.788,24.92125,-3.06803,0.18942,0.83048
488.488,24.94365,-3.06868,0.19527,0.8301
489.188,24.9661,-3.06979,0.20209,0.82973
489.888,24.9884,-3.07154,0.20534,0.82935
490.588,25.0108,-3.07282,0.21064,0.82898
491.288,25.03315,-3.07319,0.21333,0.8286
491.988,25.05555,-3.07483,0.21771,0.82822
492.688,25.0779,-3.07518,0.2215,0.82785
493.388,25.1003,-3.07625,0.2253,0.82747
494.088,25.1227,-3.07814,0.22959,0.82709
494.788,25.145,-3.07979,0.23422,0.82671
495.488,25.16734,-3.08082,0.23693,0.82633
496.188,25.18968,-3.08196,0.23756,0.82596
496.888,25.212,-3.08335,0.24363,0.82558
497.588,25.2344,-3.08324,0.24688,0.8252
498.288,25.25686,-3.0846,0.25224,0.82482
498.988,25.2793,-3.08506,0.25663,0.82444
499.688,25.30176,-3.08662,0.25736,0.82406
500.388,25.32424,-3.08771,0.25891,0.82367
501.088,25.34665,-3.08817,0.2646,0.82329
501.788,25.3691,-3.08977,0.26677,0.82291
502.488,25.39151,-3.09124,0.27016,0.82253
503.188,25.41385,-3.09194,0.2707,0.82215
503.888,25.43628,-3.09248,0.27388,0.82176
504.588,25.45869,-3.0939,0.27777,0.82138
505.288,25.48118,-3.09399,0.28029,0.82099
505.988,25.50367,-3.09528,0.28239,0.82061
506.688,25.52615,-3.09681,0.28543,0.82022
507.388,25.5486,-3.0971,0.28847,0.81984
508.088,25.57103,-3.09892,0.28886,0.81945
508.788,25.59349,-3.09953,0.29298,0.81907
509.488,25.61599,-3.10092,0.29395,0.81868
510.188,25.63852,-3.10137,0.29754,0.81829
510.888,25.66101,-3.10213,0.29742,0.81791
511.588,25.6835,-3.10238,0.29788,0.81752
512.288,25.70594,-3.10345,0.30172,0.81713
512.988,25.7284,-3.10384,0.3029,0.81674
513.688,25.75089,-3.10523,0.30481,0.81635
514.388,25.77339,-3.10514,0.3084,0.81596
515.088,25.79583,-3.10667,0.30785,0.81557
515.788,25.8184,-3.10696,0.30711,0.81518
516.488,25.84095,-3.10814,0.31085,0.81479
517.188,25.8635,-3.10954,0.3104,0.8144
517.888,25.88626,-3.11007,0.30961,0.814
518.588,25.9088,-3.11105,0.31457,0.81361
519.288,25.93135,-3.11212,0.3166,0.81322
519.988,25.95393,-3.11247,0.31763,0.81283
520.688,25.97646,-3.11498,0.31692,0.81243
521.388,25.99899,-3.11519,0.31678,0.81204
522.088,26.02159,-3.11657,0.31856,0.81164
522.788,26.04417,-3.11644,0.31803,0.81125
523.488,26.06677,-3.1178,0.32232,0.81085
524.188,26.0894,-3.11783,0.31979,0.81046
524.888,26.112,-3.11796,0.3234,0.81006
525.588,26.13465,-3.11787,0.32291,0.80966
526.288,26.15723,-3.11836,0.3227,0.80926
526.988,26.17987,-3.11925,0.32515,0.80887
527.688,26.20247,-3.12015,0.32242,0.80847
528.388,26.22506,-3.12203,0.32484,0.80807
529.088,26.2477,-3.12321,0.32386,0.80767
529.788,26.2703,-3.12332,0.3255,0.80727
530.488,26.2929,-3.12494,0.32616,0.80687
531.188,26.3155,-3.12537,0.32692,0.80647
531.888,26.3381,-3.12617,0.32456,0.80607
532.588,26.36058,-3.12687,0.32473,0.80566
533.288,26.3833,-3.12746,0.32441,0.80526
533.988,26.40602,-3.12738,0.32725,0.80486
534.688,26.42874,-3.12879,0.3271,0.80446
535.388,26.45158,-3.1293,0.325,0.80405
536.088,26.4743,-3.13026,0.32659,0.80365
536.788,26.4969,-3.13167,0.32838,0.80324
537.488,26.51956,-3.13187,0.32984,0.80284
538.188,26.5422,-3.13271,0.32909,0.80243
538.888,26.5648,-3.13316,0.32877,0.80202
539.588,26.58748,-3.13314,0.33001,0.80162
540.288,26.6102,-3.13462,0.32995,0.80121
540.988,26.6329,-3.13456,0.3259,0.8008
541.688,26.6556,-3.13588,0.32967,0.80039
542.388,26.6783,-3.13592,0.32873,0.79998
543.088,26.70089,-3.13599,0.32819,0.79958
543.788,26.7235,-3.13725,0.33024,0.79917
544.488,26.7463,-3.13839,0.32816,0.79875
545.188,26.76905,-3.13877,0.32691,0.79834
545.888,26.79182,-3.14016,0.32837,0.79793
546.588,26.81458,-3.14005,0.32702,0.79752
547.288,26.8372,-3.14129,0.32516,0.79711
547.988,26.86,-3.14141,0.32895,0.79669
548.688,26.88275,-3.14261,0.3276,0.79628
549.388,26.90547,-3.14283,0.32842,0.79587
550.088,26.9281,-3.1428,0.32766,0.79545
550.788,26.95082,-3.14417,0.32723,0.79504
551.488,26.97335,-3.14415,0.32534,0.79462
552.188,26.9961,-3.14405,0.32359,0.79421
552.888,27.01887,-3.14546,0.32511,0.79379
553.588,27.04167,-3.14545,0.32584,0.79337
554.288,27.06455,-3.14649,0.32372,0.79295
554.988,27.0873,-3.14678,0.3247,0.79254
555.688,27.1101,-3.14822,0.32435,0.79212
556.388,27.13287,-3.14844,0.31999,0.7917
557.088,27.1556,-3.14965,0.32224,0.79128
557.788,27.1783,-3.15093,0.32195,0.79086
558.488,27.20103,-3.15105,0.31808,0.79044
559.188,27.22373,-3.15202,0.31877,0.79001
559.888,27.2465,-3.15339,0.32125,0.78959
560.588,27.26929,-3.15368,0.32342,0.78917
561.288,27.29208,-3.15509,0.32034,0.78875
561.988,27.3148,-3.15502,0.32773,0.78832
562.688,27.3376,-3.15501,0.32632,0.7879
563.388,27.36038,-3.15634,0.32947,0.78747
564.088,27.38315,-3.15492,0.33056,0.78705
564.788,27.40591,-3.15491,0.33104,0.78662
565.488,27.42865,-3.15632,0.33169,0.7862
566.188,27.45141,-3.15638,0.33521,0.78577
566.888,27.47417,-3.15782,0.33478,0.78534
567.588,27.4968,-3.15801,0.33545,0.78491
568.288,27.5196,-3.16039,0.33629,0.78448
568.988,27.5424,-3.16056,0.33763,0.78406
569.688,27.5651,-3.1617,0.3375,0.78363
570.388,27.5879,-3.16165,0.34006,0.7832
571.088,27.6107,-3.16231,0.33868,0.78276
571.788,27.6335,-3.16174,0.33922,0.78233
572.488,27.65633,-3.16231,0.34011,0.7819
573.188,27.6792,-3.16302,0.34186,0.78147
573.888,27.70192,-3.16316,0.33911,0.78104
574.588,27.7247,-3.16435,0.34259,0.7806
575.288,27.7475,-3.1645,0.34106,0.78017
575.988,27.7703,-3.16565,0.33808,0.77973
576.688,27.79311,-3.16566,0.34122,0.7793
577.388,27.81591,-3.16598,0.3384,0.77886
578.088,27.8387,-3.16698,0.34109,0.77842
578.788,27.86155,-3.16697,0.3414,0.77799
579.488,27.8844,-3.16699,0.34378,0.77755
580.188,27.9072,-3.16768,0.3417,0.77711
580.888,27.93005,-3.16828,0.34332,0.77667
581.588,27.95285,-3.16841,0.34107,0.77623
582.288,27.9757,-3.16966,0.34084,0.77579
582.988,27.99855,-3.17014,0.34302,0.77535
583.688,28.0214,-3.17092,0.34223,0.77491
584.388,28.04425,-3.17129,0.34324,0.77447
585.088,28.0671,-3.17331,0.34052,0.77403
585.788,28.09,-3.17354,0.34074,0.77358
586.488,28.1129,-3.17494,0.34301,0.77314
587.188,28.13584,-3.17454,0.3394,0.7727
587.888,28.15874,-3.17354,0.34044,0.77225
588.588,28.18158,-3.17361,0.33741,0.77181
589.288,28.20448,-3.17492,0.33903,0.77136
589.988,28.22741,-3.17502,0.33693,0.77091
590.688,28.2503,-3.17618,0.33914,0.77047
591.388,28.2732,-3.17621,0.33694,0.77002
592.088,28.29611,-3.17757,0.33541,0.76957
592.788,28.319,-3.1775,0.33595,0.76912
593.488,28.3419,-3.17801,0.33762,0.76867
594.188,28.36482,-3.17878,0.33802,0.76822
594.888,28.38777,-3.17873,0.33472,0.76777
595.588,28.41067,-3.18013,0.33497,0.76732
596.288,28.43348,-3.18029,0.33343,0.76687
596.988,28.4564,-3.18149,0.33431,0.76642
597.688,28.47932,-3.18145,0.33466,0.76596
598.388,28.50197,-3.18153,0.3282,0.76551
599.088,28.5248,-3.18281,0.32793,0.76506
599.788,28.54764,-3.18278,0.32839,0.7646
600.488,28.5705,-3.18379,0.32423,0.76415
601.188,28.5935,-3.18408,0.32213,0.76369
601.888,28.61637,-3.18411,0.32285,0.76323
602.588,28.6392,-3.185,0.31794,0.76278
603.288,28.6621,-3.18537,0.31741,0.76232
603.988,28.6853,-3.187,0.31483,0.76186
604.688,28.70853,-3.18735,0.31362,0.7614
605.388,28.7317,-3.18736,0.31112,0.76094
606.088,28.7547,-3.18818,0.30864,0.76048
606.788,28.7777,-3.18866,0.306,0.76002
607.488,28.80065,-3.1887,0.30365,0.75956
608.188,28.8236,-3.19004,0.30181,0.7591
608.888,28.8466,-3.18999,0.30053,0.75864
609.588,28.8696,-3.18998,0.29909,0.75817
610.288,28.8927,-3.19135,0.29598,0.75771
610.988,28.9158,-3.19122,0.29471,0.75724
611.688,28.93882,-3.19262,0.29164,0.75678
612.388,28.9618,-3.19263,0.29267,0.75631
613.088,28.9848,-3.19346,0.28782,0.75585
613.788,29.00785,-3.19393,0.28744,0.75538
614.488,29.0309,-3.19395,0.28666,0.75491
615.188,29.0539,-3.19317,0.28557,0.75444
615.888,29.07695,-3.19399,0.28461,0.75398
616.588,29.1,-3.19395,0.28148,0.75351
617.288,29.1231,-3.19513,0.2813,0.75304
617.988,29.1463,-3.19526,0.27969,0.75257
618.688,29.16927,-3.19527,0.27875,0.75209
619.388,29.19218,-3.1961,0.27862,0.75162
620.088,29.21521,-3.19658,0.27835,0.75115
620.788,29.23831,-3.1971,0.27372,0.75068
621.488,29.26155,-3.19789,0.27363,0.7502
622.188,29.28483,-3.19791,0.27137,0.74973
622.888,29.3079,-3.19839,0.26754,0.74925
623.588,29.33105,-3.1992,0.2699,0.74878
624.288,29.3541,-3.1992,0.26761,0.7483
624.988,29.3773,-3.20031,0.26448,0.74783
625.688,29.40053,-3.20053,0.26182,0.74735
626.388,29.42375,-3.20054,0.26121,0.74687
627.088,29.44698,-3.20097,0.2603,0.74639
627.788,29.47017,-3.20285,0.25725,0.74591
628.488,29.49332,-3.20316,0.25568,0.74543
629.188,29.51647,-3.20317,0.25254,0.74495
629.888,29.53967,-3.20378,0.25327,0.74447
630.588,29.56285,-3.20446,0.25144,0.74399
631.288,29.586,-3.20449,0.24794,0.74351
631.988,29.60918,-3.2051,0.24884,0.74302
632.688,29.63232,-3.20515,0.2467,0.74254
633.388,29.65547,-3.20517,0.24133,0.74206
634.088,29.6787,-3.20601,0.24083,0.74157
634.788,29.70182,-3.20645,0.23859,0.74108
635.488,29.725,-3.20647,0.24068,0.7406
636.188,29.74815,-3.20726,0.23795,0.74011
636.888,29.7713,-3.20777,0.23748,0.73962
637.588,29.79437,-3.20779,0.23741,0.73914
638.288,29.8175,-3.20829,0.23545,0.73865
638.988,29.8407,-3.20842,0.23343,0.73816
639.688,29.86385,-3.20964,0.23287,0.73767
640.388,29.887,-3.20974,0.23159,0.73718
641.088,29.9101,-3.20974,0.22966,0.73669
641.788,29.9332,-3.21,0.22781,0.73619
642.488,29.9564,-3.21106,0.22712,0.7357
643.188,29.9796,-3.21106,0.22691,0.73521
643.888,30.00283,-3.21106,0.22399,0.73472
644.588,30.026,-3.21203,0.22299,0.73422
645.288,30.0491,-3.21238,0.22036,0.73373
645.988,30.0722,-3.21239,0.21987,0.73323
646.688,30.0954,-3.21289,0.21731,0.73273
647.388,30.11866,-3.21369,0.21779,0.73224
648.088,30.1418,-3.21369,0.21421,0.73174
648.788,30.16491,-3.21368,0.21236,0.73124
649.488,30.18807,-3.21361,0.21307,0.73074
650.188,30.21126,-3.21501,0.21239,0.73024
650.888,30.2345,-3.21503,0.21286,0.72974
651.588,30.2577,-3.21578,0.21528,0.72924
652.288,30.28087,-3.21632,0.21196,0.72874
652.988,30.304,-3.21609,0.21137,0.72824
653.688,30.3272,-3.21535,0.21115,0.72774
654.388,30.35035,-3.21635,0.20938,0.72723
655.088,30.3735,-3.21665,0.20669,0.72673
655.788,30.39674,-3.21665,0.20672,0.72622
656.488,30.4198,-3.21665,0.2047,0.72572
657.188,30.44306,-3.21802,0.20567,0.72521
657.888,30.46622,-3.21787,0.20397,0.72471
658.588,30.4894,-3.21897,0.20333,0.7242
659.288,30.5127,-3.21895,0.19858,0.72369
659.988,30.53585,-3.21991,0.19786,0.72318
660.688,30.55899,-3.22027,0.2019,0.72267
661.388,30.58212,-3.22027,0.19453,0.72216
662.088,30.6053,-3.22117,0.19497,0.72165
662.788,30.62848,-3.22037,0.19613,0.72114
663.488,30.6517,-3.22027,0.19319,0.72063
664.188,30.6749,-3.22072,0.19301,0.72012
664.888,30.6981,-3.22159,0.19461,0.71961
665.588,30.72127,-3.22159,0.18895,0.71909
666.288,30.7445,-3.2216,0.19432,0.71858
666.988,30.76769,-3.22205,0.18844,0.71806
667.688,30.79087,-3.22289,0.18889,0.71755
668.388,30.8141,-3.22389,0.18677,0.71703
669.088,30.83728,-3.22421,0.18648,0.71652
669.788,30.8604,-3.22425,0.18562,0.716
670.488,30.88362,-3.22555,0.18468,0.71548
671.188,30.90675,-3.22554,0.18431,0.71496
671.888,30.9299,-3.22522,0.18421,0.71444
672.588,30.9531,-3.22418,0.18256,0.71392
673.288,30.97628,-3.2255,0.18347,0.7134
673.988,30.9995,-3.22553,0.18336,0.71288
674.688,31.02275,-3.22565,0.18371,0.71236
675.388,31.0459,-3.22689,0.1817,0.71184
676.088,31.06908,-3.22685,0.17936,0.71132
676.788,31.09225,-3.22685,0.18201,0.71079
677.488,31.11535,-3.22693,0.17771,0.71027
678.188,31.13856,-3.2282,0.17784,0.70974
678.888,31.16173,-3.22817,0.18006,0.70922
679.588,31.185,-3.22817,0.17587,0.70869
680.288,31.2082,-3.22817,0.17709,0.70816
680.988,31.2314,-3.22817,0.17627,0.70764
681.688,31.2546,-3.22823,0.17547,0.70711
682.388,31.27777,-3.22952,0.17524,0.70658
683.088,31.301,-3.22948,0.17337,0.70605
683.788,31.32418,-3.22944,0.17067,0.70552
684.488,31.3474,-3.23069,0.17271,0.70499
685.188,31.37063,-3.2308,0.17253,0.70446
685.888,31.39388,-3.23079,0.16717,0.70393
686.588,31.41712,-3.23071,0.17111,0.70339
687.288,31.44042,-3.23212,0.1696,0.70286
687.988,31.46357,-3.23212,0.169,0.70233
688.688,31.4867,-3.23202,0.16785,0.70179
689.388,31.5098,-3.23343,0.16785,0.70126
690.088,31.533,-3.23343,0.16861,0.70072
690.788,31.55627,-3.23343,0.16274,0.70019
691.488,31.57964,-3.23343,0.16606,0.69965
692.188,31.6029,-3.2334,0.16231,0.69911
692.888,31.62622,-3.23457,0.16681,0.69857
693.588,31.6495,-3.23475,0.16353,0.69803
694.288,31.6727,-3.23479,0.16516,0.69749
694.988,31.6959,-3.23401,0.16281,0.69695
695.688,31.7191,-3.23348,0.16066,0.69641
696.388,31.74237,-3.23344,0.16016,0.69587
697.088,31.76567,-3.23344,0.16139,0.69533
697.788,31.78893,-3.23369,0.15868,0.69479
698.488,31.81223,-3.23473,0.16039,0.69424
699.188,31.83545,-3.23475,0.16189,0.6937
699.888,31.8587,-3.23475,0.16055,0.69316
700.588,31.88185,-3.23476,0.15942,0.69261
701.288,31.9051,-3.23522,0.16038,0.69206
701.988,31.9283,-3.23607,0.15872,0.69152
702.688,31.95157,-3.23607,0.15836,0.69097
703.388,31.97474,-3.23607,0.15904,0.69042
704.088,31.99795,-3.23607,0.15791,0.68987
704.788,32.0212,-3.23605,0.15443,0.68933
705.488,32.04445,-3.23731,0.15399,0.68878
706.188,32.0678,-3.23739,0.15528,0.68823
706.888,32.09109,-3.23737,0.15453,0.68768
707.588,32.11435,-3.23861,0.15413,0.68712
708.288,32.13765,-3.2387,0.15757,0.68657
708.988,32.16081,-3.2387,0.16006,0.68602
709.688,32.1841,-3.23866,0.15562,0.68547
710.388,32.20738,-3.23991,0.15503,0.68491
711.088,32.2306,-3.24002,0.15393,0.68436
711.788,32.25392,-3.24004,0.15642,0.6838
712.488,32.27717,-3.2407,0.1557,0.68325
713.188,32.30039,-3.24146,0.15656,0.68269
713.888,32.32366,-3.24277,0.15526,0.68213
714.588,32.34695,-3.24167,0.1562,0.68158
715.288,32.37007,-3.2422,0.1574,0.68102
715.988,32.3934,-3.24125,0.15483,0.68046
716.688,32.4167,-3.24111,0.15704,0.6799
717.388,32.44003,-3.23991,0.15329,0.67934
718.088,32.46358,-3.24008,0.15971,0.67878
718.788,32.48687,-3.24125,0.15509,0.67822
719.488,32.51021,-3.24122,0.15593,0.67766
720.188,32.5335,-3.24122,0.15331,0.67709
720.888,32.5567,-3.24122,0.15704,0.67653
721.588,32.58005,-3.24122,0.15632,0.67597
722.288,32.6034,-3.2415,0.15562,0.6754
722.988,32.62676,-3.24254,0.15477,0.67484
723.688,32.65017,-3.24254,0.15392,0.67427
724.388,32.67354,-3.24254,0.15805,0.6737
725.088,32.69679,-3.24254,0.1599,0.67314
725.788,32.72016,-3.24254,0.15538,0.67257
726.488,32.74351,-3.24271,0.15823,0.672
727.188,32.7669,-3.24388,0.15505,0.67143
727.888,32.7904,-3.24385,0.15769,0.67086
728.588,32.81378,-3.24385,0.15748,0.67029
729.288,32.83717,-3.24385,0.15989,0.66972
729.988,32.86057,-3.24385,0.16114,0.66915
730.688,32.88395,-3.24527,0.16144,0.66858
731.388,32.90729,-3.24517,0.16425,0.66801
732.088,32.9307,-3.24517,0.16065,0.66744
732.788,32.95412,-3.24517,0.16549,0.66686
733.488,32.97755,-3.24517,0.16283,0.66629
734.188,33.00097,-3.2452,0.1669,0.66571
734.888,33.0244,-3.24654,0.16081,0.66514
735.588,33.04788,-3.24649,0.16337,0.66456
736.288,33.07132,-3.24649,0.15972,0.66399
736.988,33.0948,-3.2465,0.15994,0.66341
737.688,33.1182,-3.24656,0.16068,0.66283
738.388,33.14156,-3.24517,0.16206,0.66225
739.088,33.16495,-3.2452,0.16011,0.66167
739.788,33.1883,-3.24602,0.16301,0.6611
740.488,33.21177,-3.24623,0.1628,0.66052
741.188,33.23515,-3.24752,0.16248,0.65993
741.888,33.2586,-3.24747,0.16312,0.65935
742.588,33.28205,-3.24747,0.16202,0.65877
743.288,33.3054,-3.24765,0.1626,0.65819
743.988,33.32887,-3.24781,0.16005,0.65761
744.688,33.35228,-3.24855,0.16415,0.65702
745.388,33.37572,-3.24774,0.16077,0.65644
746.088,33.3992,-3.2478,0.16134,0.65585
746.788,33.42262,-3.24777,0.16263,0.65527
747.488,33.44603,-3.24893,0.16228,0.65468
748.188,33.4695,-3.24912,0.16675,0.6541
748.888,33.49297,-3.2491,0.16515,0.65351
749.588,33.51637,-3.24961,0.16514,0.65292
750.288,33.53974,-3.25043,0.16429,0.65233
750.988,33.5632,-3.25043,0.16411,0.65174
751.688,33.58667,-3.25031,0.16336,0.65115
752.388,33.61014,-3.24912,0.16533,0.65056
753.088,33.63365,-3.25033,0.16581,0.64997
753.788,33.6571,-3.25044,0.164,0.64938
754.488,33.6805,-3.25044,0.16631,0.64879
755.188,33.70394,-3.25044,0.16513,0.6482
755.888,33.72741,-3.25043,0.16669,0.64761
756.588,33.7509,-3.25186,0.1645,0.64701
757.288,33.7744,-3.25271,0.16697,0.64642
757.988,33.79786,-3.25273,0.16771,0.64582
758.688,33.82131,-3.25273,0.16705,0.64523
759.388,33.84479,-3.25273,0.16844,0.64463
760.088,33.86826,-3.25273,0.16924,0.64404
760.788,33.8917,-3.25273,0.16951,0.64344
761.488,33.91519,-3.25273,0.16798,0.64284
762.188,33.93864,-3.25272,0.16508,0.64224
762.888,33.9621,-3.25415,0.16951,0.64165
763.588,33.98563,-3.25297,0.16955,0.64105
764.288,34.00908,-3.25274,0.17219,0.64045
764.988,34.03253,-3.25285,0.16957,0.63985
765.688,34.05594,-3.2541,0.1726,0.63925
766.388,34.0794,-3.25406,0.17184,0.63865
767.088,34.10298,-3.25406,0.17036,0.63804
767.788,34.1265,-3.25406,0.17177,0.63744
768.488,34.14994,-3.25406,0.17102,0.63684
769.188,34.17333,-3.25308,0.17264,0.63623
769.888,34.19681,-3.25444,0.17484,0.63563
770.588,34.2203,-3.25438,0.17308,0.63503
771.288,34.244,-3.25438,0.17102,0.63442
771.988,34.2675,-3.25438,0.17202,0.63381
772.688,34.29107,-3.25439,0.1715,0.63321
773.388,34.3146,-3.25579,0.17349,0.6326
774.088,34.3381,-3.2557,0.17628,0.63199
774.788,34.36159,-3.2557,0.1758,0.63139
775.488,34.3851,-3.2557,0.17666,0.63078
776.188,34.4086,-3.2557,0.17383,0.63017
776.888,34.43207,-3.25572,0.17428,0.62956
777.588,34.45563,-3.25537,0.17441,0.62895
778.288,34.47907,-3.25628,0.17996,0.62834
778.988,34.50262,-3.25668,0.1798,0.62773
779.688,34.526,-3.25659,0.17894,0.62712
780.388,34.5495,-3.258,0.1803,0.6265
781.088,34.57307,-3.258,0.17876,0.62589
781.788,34.59665,-3.258,0.17845,0.62528
782.488,34.6203,-3.258,0.18209,0.62466
783.188,34.64386,-3.25799,0.18449,0.62405
783.888,34.66737,-3.25911,0.18179,0.62343
784.588,34.69092,-3.25932,0.18533,0.62282
785.288,34.7145,-3.25932,0.1854,0.6222
785.988,34.73806,-3.25938,0.18802,0.62159
786.688,34.76157,-3.25867,0.18754,0.62097
787.388,34.78503,-3.25866,0.19176,0.62035
788.088,34.80852,-3.25866,0.18856,0.61973
788.788,34.83198,-3.25867,0.19289,0.61911
789.488,34.85559,-3.25922,0.18871,0.6185
790.188,34.87919,-3.25964,0.19066,0.61788
790.888,34.9028,-3.25964,0.19188,0.61726
791.588,34.92633,-3.25964,0.19349,0.61664
792.288,34.9498,-3.25964,0.19377,0.61601
792.988,34.97331,-3.25997,0.19249,0.61539
793.688,34.99686,-3.26037,0.19586,0.61477
794.388,35.02039,-3.26129,0.1954,0.61415
795.088,35.04397,-3.2612,0.19868,0.61352
795.788,35.06753,-3.26062,0.20061,0.6129
796.488,35.0911,-3.26068,0.19861,0.61228
797.188,35.1147,-3.26119,0.19578,0.61165
797.888,35.1382,-3.26065,0.19778,0.61103
798.588,35.16178,-3.26064,0.20129,0.6104
799.288,35.18531,-3.26064,0.20225,0.60977
799.988,35.2089,-3.26064,0.20273,0.60915
800.688,35.23242,-3.26066,0.20342,0.60852
801.388,35.256,-3.26203,0.2059,0.60789
802.088,35.27949,-3.26195,0.20719,0.60726
802.788,35.30311,-3.26195,0.20586,0.60664
803.488,35.32667,-3.26195,0.21053,0.60601
804.188,35.35022,-3.26195,0.20983,0.60538
804.888,35.3738,-3.26195,0.20976,0.60475
805.588,35.39731,-3.26195,0.20944,0.60412
806.288,35.42095,-3.26195,0.20815,0.60349
806.988,35.44451,-3.26194,0.20948,0.60285
807.688,35.46796,-3.26312,0.20996,0.60222
808.388,35.49156,-3.26327,0.20742,0.60159
809.088,35.5152,-3.26327,0.20969,0.60096
809.788,35.53887,-3.26326,0.21033,0.60032
810.488,35.56258,-3.2624,0.20742,0.59969
811.188,35.58617,-3.26196,0.21397,0.59905
811.888,35.60971,-3.26195,0.21205,0.59842
812.588,35.6333,-3.26203,0.21477,0.59778
813.288,35.6569,-3.26262,0.2147,0.59715
813.988,35.68056,-3.26262,0.22056,0.59651
814.688,35.7042,-3.2629,0.219,0.59587
815.388,35.72775,-3.26329,0.22038,0.59524
816.088,35.75127,-3.26327,0.2196,0.5946
816.788,35.7748,-3.26327,0.21953,0.59396
817.488,35.79834,-3.26326,0.22134,0.59332
818.188,35.8219,-3.26341,0.22199,0.59268
818.888,35.84554,-3.26459,0.22476,0.59204
819.588,35.8692,-3.26458,0.2254,0.5914
820.288,35.89282,-3.26458,0.22431,0.59076
820.988,35.91642,-3.26469,0.22615,0.59012
821.688,35.94001,-3.2659,0.22746,0.58948
822.388,35.96351,-3.2656,0.22846,0.58884
823.088,35.987,-3.26459,0.22964,0.5882
823.788,36.01054,-3.26459,0.23235,0.58755
824.488,36.0341,-3.26459,0.23432,0.58691
825.188,36.05766,-3.26459,0.23506,0.58627
825.888,36.08127,-3.26459,0.2356,0.58562
826.588,36.10491,-3.26462,0.23603,0.58498
827.288,36.12854,-3.26425,0.23617,0.58433
827.988,36.15218,-3.26426,0.23399,0.58369
828.688,36.17575,-3.26416,0.23743,0.58304
829.388,36.19936,-3.26557,0.23888,0.58239
830.088,36.22299,-3.26557,0.23873,0.58175
830.788,36.24661,-3.26557,0.24101,0.5811
831.488,36.2703,-3.26557,0.24322,0.58045
832.188,36.2939,-3.26699,0.24555,0.5798
832.888,36.31757,-3.26687,0.24404,0.57916
833.588,36.3412,-3.26584,0.24982,0.57851
834.288,36.36483,-3.26589,0.24908,0.57786
834.988,36.38852,-3.26587,0.25255,0.57721
835.688,36.4122,-3.26726,0.25228,0.57656
836.388,36.43588,-3.26722,0.25309,0.57591
837.088,36.45963,-3.26722,0.25295,0.57526
837.788,36.48344,-3.26722,0.25469,0.5746
838.488,36.50721,-3.26722,0.25496,0.57395
839.188,36.53098,-3.26722,0.25717,0.5733
839.888,36.55466,-3.26722,0.26063,0.57265
840.588,36.57833,-3.26722,0.26558,0.572
841.288,36.60201,-3.26722,0.26636,0.57134
841.988,36.62594,-3.26719,0.26789,0.57069
842.688,36.6501,-3.26942,0.26771,0.57003
843.188,36.66639,-3.27007,0.26839,0.56957