File: 01_Data/Pine_Lap_Siding_Wood/STA/N2/30K_min/Pine_Lap_Siding_Wood_STA_N2_30KData_220321_R2.csv
##Temp./Â°C,Time/min,Mass loss(subtr.2)/mg,DSC(subtr.2)/(mW/mg),Sensit./(uV/mW)
48.745,10.01,0.00262,0.01076581,1.08893
49.445,10.54946,0.002213929,0.05308047,1.08834
50.145,10.67459,0.00177616,0.08867764,1.08775
50.845,10.7638,0.001800839,0.12258,1.08716
51.545,10.83479,0.003170128,0.1496,1.08658
52.245,10.89873,0.00174817,0.17685,1.08599
52.945,10.95542,0.002878006,0.20621,1.0854
53.645,11.0068,0.001978368,0.22937,1.08482
54.345,11.05438,0.00263193,0.25482,1.08423
55.045,11.09888,0.003455958,0.27547,1.08365
55.745,11.14118,0.00271626,0.29639,1.08306
56.445,11.18169,0.00141682,0.3185,1.08248
57.145,11.22032,0.0008798984,0.33745,1.0819
57.845,11.25769,0.00156553,0.35682,1.08132
58.545,11.2941,0.001405309,0.37478,1.08074
59.245,11.32923,0.00175233,0.39168,1.08016
59.945,11.3634,0.00223588,0.40826,1.07958
60.645,11.39667,0.002166959,0.42471,1.079
61.345,11.4292,0.001653746,0.43939,1.07843
62.045,11.46105,0.003169515,0.45405,1.07785
62.745,11.49233,0.003105675,0.46977,1.07728
63.445,11.523,0.003039698,0.48457,1.0767
64.145,11.5532,0.00288413,0.49725,1.07613
64.845,11.58296,0.002134343,0.50918,1.07556
65.545,11.6122,0.001960631,0.52364,1.07498
66.245,11.64125,0.001225788,0.5366,1.07441
66.945,11.67004,0.000539263,0.54847,1.07384
67.645,11.69865,7.39074e-05,0.55988,1.07327
68.345,11.72674,0.000615294,0.56929,1.07271
69.045,11.75451,0.000941116,0.58354,1.07214
69.745,11.782,0.00141691,0.59523,1.07157
70.445,11.8093,0.00270694,0.60551,1.07101
71.145,11.8363,0.002126041,0.6166,1.07044
71.845,11.86315,0.001192495,0.62539,1.06988
72.545,11.8898,0.0001160537,0.63943,1.06931
73.245,11.91634,-0.0001084232,0.64724,1.06875
73.945,11.94299,-0.0003532047,0.6574,1.06819
74.645,11.96926,-0.001182791,0.66855,1.06763
75.345,11.99542,-0.0008272375,0.6786,1.06707
76.045,12.02139,-0.0002184559,0.68791,1.06651
76.745,12.04729,-0.001811285,0.69707,1.06595
77.445,12.073,-0.001984089,0.7072,1.0654
78.145,12.09863,-0.001845044,0.7165,1.06484
78.845,12.12403,-0.00284046,0.72519,1.06428
79.545,12.1495,-0.00173989,0.73565,1.06373
80.245,12.1748,-0.001525731,0.7429,1.06318
80.945,12.20001,-0.00154035,0.75266,1.06262
81.645,12.22519,-0.001809076,0.76296,1.06207
82.345,12.25024,-0.002613962,0.77013,1.06152
83.045,12.2753,-0.00290589,0.77784,1.06097
83.745,12.3001,-0.00198307,0.78653,1.06042
84.445,12.32489,-0.003157467,0.79607,1.05987
85.145,12.3496,-0.003720189,0.80251,1.05932
85.845,12.37434,-0.00303611,0.81046,1.05877
86.545,12.39897,-0.0039645,0.8212,1.05823
87.245,12.42352,-0.003105611,0.82699,1.05768
87.945,12.44791,-0.003954269,0.83601,1.05714
88.645,12.47232,-0.003372,0.84421,1.05659
89.345,12.49659,-0.00383407,0.85005,1.05605
90.045,12.52087,-0.00450866,0.8584,1.05551
90.745,12.54504,-0.004468173,0.86619,1.05497
91.445,12.56913,-0.005914505,0.8724,1.05443
92.145,12.59309,-0.005261592,0.87917,1.05389
92.845,12.6171,-0.006038326,0.88492,1.05335
93.545,12.64118,-0.007450593,0.89091,1.05281
94.245,12.66516,-0.006426309,0.89903,1.05227
94.945,12.6892,-0.00647987,0.9029,1.05174
95.645,12.71312,-0.006441451,0.90877,1.0512
96.345,12.73695,-0.007422376,0.91421,1.05067
97.045,12.76079,-0.007474145,0.92133,1.05013
97.745,12.78461,-0.007888812,0.92476,1.0496
98.445,12.80836,-0.008794679,0.93034,1.04907
99.145,12.8321,-0.00870457,0.93341,1.04854
99.845,12.85576,-0.007452089,0.93806,1.04801
100.545,12.87934,-0.008391391,0.94306,1.04748
101.245,12.90291,-0.00877605,0.94504,1.04695
101.945,12.9266,-0.008728566,0.94892,1.04642
102.645,12.9502,-0.01010747,0.95046,1.04589
103.345,12.9739,-0.01022784,0.95289,1.04537
104.045,12.9976,-0.01042727,0.95595,1.04484
104.745,13.02121,-0.01040859,0.95725,1.04431
105.445,13.04487,-0.01167537,0.95965,1.04379
106.145,13.06847,-0.01173482,0.96059,1.04327
106.845,13.0921,-0.01189774,0.96099,1.04275
107.545,13.1157,-0.01306549,0.9617,1.04222
108.245,13.13923,-0.01305805,0.96435,1.0417
108.945,13.16275,-0.01321957,0.9629,1.04118
109.645,13.18615,-0.01370538,0.9638,1.04066
110.345,13.20955,-0.01371983,0.96094,1.04015
111.045,13.23301,-0.01372849,0.96104,1.03963
111.745,13.2565,-0.01409208,0.95841,1.03911
112.445,13.2799,-0.01504083,0.95801,1.0386
113.145,13.30335,-0.01504162,0.95718,1.03808
113.845,13.32673,-0.01509329,0.95469,1.03757
114.545,13.35009,-0.01371597,0.95385,1.03705
115.245,13.3734,-0.01490617,0.95173,1.03654
115.945,13.39674,-0.01502854,0.94932,1.03603
116.645,13.42004,-0.01503,0.94648,1.03552
117.345,13.44333,-0.0150342,0.9451,1.03501
118.045,13.46665,-0.01531073,0.94151,1.0345
118.745,13.48996,-0.01734094,0.94033,1.03399
119.445,13.5132,-0.01733697,0.93881,1.03348
120.145,13.5365,-0.01733971,0.93367,1.03297
120.845,13.55971,-0.01733969,0.93218,1.03247
121.545,13.58293,-0.01739721,0.92958,1.03196
122.245,13.60612,-0.0160589,0.92781,1.03146
122.945,13.6292,-0.01602026,0.92537,1.03095
123.645,13.6522,-0.01601997,0.92228,1.03045
124.345,13.6753,-0.01602013,0.91819,1.02995
125.045,13.69829,-0.01602137,0.91634,1.02945
125.745,13.7214,-0.01647984,0.91771,1.02895
126.445,13.74439,-0.01731391,0.91329,1.02845
127.145,13.76709,-0.01734067,0.91173,1.02795
127.845,13.79,-0.01767214,0.91027,1.02745
128.545,13.81299,-0.01863496,0.90654,1.02695
129.245,13.83601,-0.01865858,0.90487,1.02645
129.945,13.8591,-0.01866019,0.90232,1.02596
130.645,13.8819,-0.01864802,0.90111,1.02546
131.345,13.9048,-0.01724744,0.90135,1.02497
132.045,13.92755,-0.01733659,0.90215,1.02448
132.745,13.95035,-0.01734003,0.90029,1.02398
133.445,13.97323,-0.0173399,0.89943,1.02349
134.145,13.99593,-0.01733751,0.90059,1.023
134.845,14.01869,-0.01710291,0.90033,1.02251
135.545,14.04146,-0.01614831,0.90151,1.02202
136.245,14.06415,-0.01734937,0.90024,1.02153
136.945,14.0868,-0.01734782,0.90231,1.02104
137.645,14.10948,-0.01736956,0.90275,1.02055
138.345,14.13204,-0.01637322,0.90118,1.02007
139.045,14.1546,-0.01635035,0.90359,1.01958
139.745,14.1771,-0.01632537,0.90598,1.0191
140.445,14.1996,-0.01700384,0.90773,1.01861
141.145,14.2222,-0.01701214,0.90726,1.01813
141.845,14.2447,-0.01702723,0.91052,1.01765
142.545,14.26719,-0.01750576,0.91299,1.01716
143.245,14.2896,-0.01766883,0.91387,1.01668
143.945,14.31206,-0.0176701,0.91497,1.0162
144.645,14.33448,-0.01766402,0.91892,1.01572
145.345,14.35682,-0.01872692,0.92027,1.01524
146.045,14.3792,-0.01898608,0.91937,1.01477
146.745,14.40155,-0.01900571,0.9216,1.01429
147.445,14.4238,-0.01802033,0.92281,1.01381
148.145,14.44617,-0.0176812,0.92631,1.01333
148.845,14.46834,-0.01767537,0.92944,1.01286
149.545,14.4906,-0.01763202,0.93368,1.01238
150.245,14.5129,-0.01634075,0.93761,1.01191
150.945,14.5351,-0.01629113,0.93894,1.01144
151.645,14.55746,-0.01730316,0.94179,1.01097
152.345,14.57976,-0.01733982,0.94081,1.01049
153.045,14.60193,-0.01734007,0.94557,1.01002
153.745,14.6241,-0.01734001,0.94921,1.00955
154.445,14.6462,-0.01734,0.95112,1.00908
155.145,14.66835,-0.01734,0.95499,1.00862
155.845,14.69051,-0.01734,0.95571,1.00815
156.545,14.71269,-0.01734,0.95894,1.00768
157.245,14.73485,-0.01734,0.96424,1.00721
157.945,14.7569,-0.01733993,0.96559,1.00675
158.645,14.779,-0.01733953,0.96814,1.00628
159.345,14.8011,-0.01735043,0.97135,1.00582
160.045,14.82324,-0.01642575,0.97594,1.00536
160.745,14.84534,-0.01604253,0.97767,1.00489
161.445,14.8675,-0.01603051,0.9808,1.00443
162.145,14.8895,-0.01603001,0.98292,1.00397
162.845,14.91148,-0.01602995,0.98673,1.00351
163.545,14.93348,-0.01602828,0.98709,1.00305
164.245,14.95546,-0.01599655,0.98887,1.00259
164.945,14.97749,-0.01636713,0.99484,1.00213
165.645,14.9995,-0.01635022,0.99543,1.00167
166.345,15.0214,-0.01634997,0.99847,1.00122
167.045,15.04336,-0.01634999,1.0029,1.00076
167.745,15.0652,-0.01634998,1.00411,1.00031
168.445,15.08707,-0.01634974,1.00873,0.99985
169.145,15.10896,-0.01634809,1.00964,0.9994
169.845,15.1308,-0.01637886,1.01479,0.99894
170.545,15.15285,-0.01771989,1.01523,0.99849
171.245,15.1748,-0.01767397,1.01911,0.99804
171.945,15.1966,-0.01767521,1.02134,0.99759
172.645,15.2185,-0.01771692,1.02437,0.99714
173.345,15.2402,-0.01701174,1.02614,0.99669
174.045,15.26196,-0.01701109,1.03084,0.99624
174.745,15.28374,-0.0170101,1.0337,0.99579
175.445,15.3055,-0.01701001,1.03719,0.99534
176.145,15.32736,-0.01701,1.04135,0.99489
176.845,15.3492,-0.01701,1.04102,0.99445
177.545,15.37103,-0.01701,1.04468,0.994
178.245,15.3928,-0.01701,1.04619,0.99356
178.945,15.41456,-0.01701001,1.04994,0.99311
179.645,15.4363,-0.01701013,1.05246,0.99267
180.345,15.458,-0.01701149,1.05292,0.99222
181.045,15.4797,-0.01701385,1.05888,0.99178
181.745,15.50135,-0.01810016,1.0602,0.99134
182.445,15.5229,-0.01832824,1.0633,0.9909
183.145,15.54456,-0.01832987,1.06544,0.99046
183.845,15.5662,-0.01832999,1.06809,0.99002
184.545,15.5878,-0.01832997,1.07086,0.98958
185.245,15.60939,-0.01832984,1.07229,0.98914
185.945,15.63095,-0.01833439,1.07576,0.9887
186.645,15.6525,-0.01789746,1.07856,0.98827
187.345,15.67397,-0.01767697,1.07976,0.98783
188.045,15.69544,-0.01767044,1.08513,0.98739
188.745,15.7169,-0.01767002,1.08802,0.98696
189.445,15.73831,-0.01767,1.08981,0.98653
190.145,15.75978,-0.01767,1.09275,0.98609
190.845,15.78129,-0.01767,1.09544,0.98566
191.545,15.8029,-0.01767016,1.09841,0.98523
192.245,15.82435,-0.0176732,1.10224,0.98479
192.945,15.84578,-0.01772173,1.10251,0.98436
193.645,15.8673,-0.01647098,1.10756,0.98393
194.345,15.8887,-0.01636665,1.10856,0.9835
195.045,15.91029,-0.01737277,1.11336,0.98307
195.745,15.93191,-0.01902937,1.11664,0.98264
196.445,15.95341,-0.0189936,1.11988,0.98222
197.145,15.9749,-0.01899025,1.12196,0.98179
197.845,15.9961,-0.01899001,1.12557,0.98136
198.545,16.01734,-0.01898997,1.12802,0.98094
199.245,16.0387,-0.0189897,1.13153,0.98051
199.945,16.0601,-0.01899053,1.13199,0.98009
200.645,16.08164,-0.01859179,1.13758,0.97966
201.345,16.1032,-0.01833372,1.1398,0.97924
202.045,16.12455,-0.01826902,1.14281,0.97882
202.745,16.1459,-0.01903678,1.14537,0.97839
203.445,16.1673,-0.01898271,1.14716,0.97797
204.145,16.1887,-0.01898009,1.14991,0.97755
204.845,16.21,-0.01898,1.15405,0.97713
205.545,16.2314,-0.01897869,1.15765,0.97671
206.245,16.25272,-0.01894122,1.16071,0.97629
206.945,16.2741,-0.01971057,1.16441,0.97587
207.645,16.29553,-0.0196444,1.16706,0.97545
208.345,16.3169,-0.01964021,1.17031,0.97504
209.045,16.33821,-0.01963981,1.1727,0.97462
209.745,16.35949,-0.01963898,1.17336,0.9742
210.445,16.3808,-0.01966635,1.1777,0.97379
211.145,16.40211,-0.02100318,1.17992,0.97337
211.845,16.4234,-0.02096374,1.18206,0.97296
212.545,16.4448,-0.02096032,1.18448,0.97254
213.245,16.46613,-0.02096102,1.18845,0.97213
213.945,16.48742,-0.02097293,1.19321,0.97172
214.645,16.50871,-0.0215128,1.1976,0.97131
215.345,16.53,-0.02226997,1.2,0.97089
216.045,16.55126,-0.02226942,1.20091,0.97048
216.745,16.5726,-0.02226997,1.20446,0.97007
217.445,16.59383,-0.02227075,1.20845,0.96966
218.145,16.61514,-0.02228304,1.2124,0.96925
218.845,16.63642,-0.02263816,1.21487,0.96884
219.545,16.65767,-0.02361395,1.2188,0.96844
220.245,16.67892,-0.02359074,1.22148,0.96803
220.945,16.70017,-0.02358999,1.22216,0.96762
221.645,16.72146,-0.02358999,1.22703,0.96722
222.345,16.7427,-0.02358974,1.23005,0.96681
223.045,16.76393,-0.02358476,1.23245,0.9664
223.745,16.78516,-0.02446846,1.2353,0.966
224.445,16.80641,-0.02500454,1.23862,0.9656
225.145,16.82765,-0.02627388,1.24057,0.96519
225.845,16.84893,-0.02623132,1.24749,0.96479
226.545,16.8702,-0.02623002,1.24732,0.96439
227.245,16.89135,-0.02623346,1.24854,0.96398
227.945,16.91248,-0.02633353,1.2537,0.96358
228.645,16.93364,-0.02759241,1.25689,0.96318
229.345,16.95478,-0.02754385,1.25936,0.96278
230.045,16.976,-0.02754468,1.26151,0.96238
230.745,16.99725,-0.02772346,1.2653,0.96198
231.445,17.01848,-0.02854757,1.26884,0.96158
232.145,17.0397,-0.02852904,1.2713,0.96118
232.845,17.0609,-0.02858891,1.27236,0.96079
233.545,17.08215,-0.02985587,1.27768,0.96039
234.245,17.10331,-0.02985058,1.27643,0.95999
234.945,17.12454,-0.02985164,1.28004,0.9596
235.645,17.14566,-0.02987524,1.28391,0.9592
236.345,17.16685,-0.0305133,1.2855,0.95881
237.045,17.18799,-0.03114933,1.28847,0.95841
237.745,17.20909,-0.03055799,1.28989,0.95802
238.445,17.23031,-0.03018068,1.29134,0.95762
239.145,17.25141,-0.03152335,1.29506,0.95723
239.845,17.27251,-0.03149072,1.29956,0.95684
240.545,17.2937,-0.03221374,1.29963,0.95645
241.245,17.3148,-0.03322678,1.30414,0.95605
241.945,17.33588,-0.03445215,1.30688,0.95566
242.645,17.35706,-0.03547306,1.31,0.95527
243.345,17.37816,-0.03546111,1.31113,0.95488
244.045,17.39933,-0.03637062,1.31495,0.95449
244.745,17.4205,-0.03676451,1.31882,0.9541
245.445,17.4417,-0.0364969,1.32,0.95371
246.145,17.46286,-0.03718181,1.3243,0.95333
246.845,17.48394,-0.03872235,1.32501,0.95294
247.545,17.505,-0.03853605,1.3247,0.95255
248.245,17.5261,-0.03989183,1.32906,0.95216
248.945,17.5473,-0.03988356,1.32857,0.95178
249.645,17.56846,-0.041288,1.33516,0.95139
250.345,17.58967,-0.04135889,1.3333,0.95101
251.045,17.61082,-0.04295422,1.33719,0.95062
251.745,17.63194,-0.04306138,1.34121,0.95024
252.445,17.65306,-0.04441707,1.34321,0.94985
253.145,17.67415,-0.04548244,1.34467,0.94947
253.845,17.69528,-0.04616138,1.34881,0.94909
254.545,17.71639,-0.04750142,1.35122,0.9487
255.245,17.73754,-0.04880128,1.35488,0.94832
255.945,17.75871,-0.04889713,1.357,0.94794
256.645,17.77986,-0.05034567,1.35656,0.94756
257.345,17.80101,-0.05111881,1.35966,0.94718
258.045,17.82214,-0.05206965,1.36255,0.9468
258.745,17.84321,-0.05379905,1.36624,0.94642
259.445,17.86433,-0.05521636,1.36743,0.94604
260.145,17.88541,-0.05634192,1.37242,0.94566
260.845,17.90651,-0.05693996,1.37414,0.94528
261.545,17.9276,-0.05828473,1.38029,0.9449
262.245,17.94874,-0.05997199,1.38207,0.94453
262.945,17.96989,-0.06186612,1.38516,0.94415
263.645,17.99101,-0.06342807,1.38392,0.94377
264.345,18.01211,-0.06483276,1.38908,0.94339
265.045,18.03322,-0.0655172,1.39171,0.94302
265.745,18.05433,-0.06652592,1.3926,0.94264
266.445,18.07537,-0.06784842,1.39359,0.94227
267.145,18.0965,-0.06952266,1.39736,0.94189
267.845,18.11768,-0.07129521,1.40106,0.94152
268.545,18.13883,-0.07337722,1.40099,0.94114
269.245,18.16,-0.07547165,1.40338,0.94077
269.945,18.18114,-0.07755694,1.40452,0.9404
270.645,18.20213,-0.07949545,1.40795,0.94002
271.345,18.22327,-0.0813152,1.41087,0.93965
272.045,18.24439,-0.08347552,1.41423,0.93928
272.745,18.26556,-0.08625578,1.41489,0.93891
273.445,18.2867,-0.08905884,1.4148,0.93854
274.145,18.3079,-0.09115822,1.41835,0.93817
274.845,18.3291,-0.09245921,1.41921,0.9378
275.545,18.3502,-0.09445883,1.42087,0.93743
276.245,18.37144,-0.09656025,1.42096,0.93706
276.945,18.39264,-0.09887637,1.42323,0.93669
277.645,18.41377,-0.10153,1.42551,0.93632
278.345,18.43488,-0.10416,1.42565,0.93595
279.045,18.45598,-0.10723,1.42537,0.93558
279.745,18.4771,-0.11022,1.42831,0.93521
280.445,18.49827,-0.11307,1.42738,0.93485
281.145,18.5195,-0.11522,1.43021,0.93448
281.845,18.5407,-0.1177,1.43013,0.93411
282.545,18.56188,-0.12041,1.42841,0.93374
283.245,18.58305,-0.12348,1.42969,0.93338
283.945,18.60422,-0.12749,1.42896,0.93301
284.645,18.6253,-0.13055,1.43363,0.93265
285.345,18.64651,-0.13374,1.43234,0.93228
286.045,18.6677,-0.13648,1.43426,0.93192
286.745,18.6889,-0.1391,1.43748,0.93155
287.445,18.71009,-0.14272,1.43522,0.93119
288.145,18.73131,-0.14569,1.43668,0.93083
288.845,18.75251,-0.14931,1.43512,0.93046
289.545,18.77368,-0.15234,1.43926,0.9301
290.245,18.7948,-0.15618,1.43922,0.92974
290.945,18.816,-0.15988,1.43902,0.92937
291.645,18.83719,-0.16372,1.44014,0.92901
292.345,18.8584,-0.16755,1.43844,0.92865
293.045,18.87971,-0.17152,1.44167,0.92829
293.745,18.90097,-0.17698,1.44119,0.92793
294.445,18.92217,-0.18127,1.44214,0.92757
295.145,18.94341,-0.1855,1.44243,0.92721
295.845,18.9646,-0.18962,1.4444,0.92685
296.545,18.98578,-0.19442,1.44582,0.92649
297.245,19.00702,-0.19917,1.44521,0.92613
297.945,19.02824,-0.20368,1.44501,0.92577
298.645,19.04947,-0.20832,1.44676,0.92541
299.345,19.07068,-0.21146,1.44577,0.92505
300.045,19.0919,-0.21612,1.44642,0.92469
300.745,19.11315,-0.22086,1.44621,0.92433
301.445,19.1343,-0.22636,1.4473,0.92397
302.145,19.15561,-0.23172,1.44818,0.92362
302.845,19.17685,-0.23763,1.44914,0.92326
303.545,19.19812,-0.24366,1.44946,0.9229
304.245,19.2194,-0.24951,1.4537,0.92255
304.945,19.24061,-0.25557,1.45295,0.92219
305.645,19.26184,-0.26186,1.45458,0.92183
306.345,19.28302,-0.26796,1.45543,0.92148
307.045,19.3043,-0.27355,1.45426,0.92112
307.745,19.32549,-0.27981,1.45838,0.92077
308.445,19.3466,-0.28434,1.45707,0.92041
309.145,19.3678,-0.29046,1.46026,0.92006
309.845,19.38909,-0.29621,1.46131,0.9197
310.545,19.41037,-0.30351,1.46117,0.91935
311.245,19.4318,-0.30934,1.46333,0.91899
311.945,19.45319,-0.31666,1.46668,0.91864
312.645,19.4744,-0.32464,1.46868,0.91829
313.345,19.49577,-0.33277,1.47342,0.91793
314.045,19.51701,-0.3393,1.4737,0.91758
314.745,19.53829,-0.34597,1.47768,0.91723
315.445,19.55961,-0.35231,1.48017,0.91687
316.145,19.5808,-0.35907,1.48566,0.91652
316.845,19.60206,-0.36735,1.48788,0.91617
317.545,19.62335,-0.3754,1.48883,0.91582
318.245,19.64463,-0.38373,1.49387,0.91546
318.945,19.66589,-0.39054,1.49885,0.91511
319.645,19.68723,-0.39905,1.50152,0.91476
320.345,19.7086,-0.40692,1.50757,0.91441
321.045,19.72989,-0.41666,1.514,0.91406
321.745,19.75123,-0.42432,1.51979,0.91371
322.445,19.77253,-0.43534,1.52511,0.91336
323.145,19.79382,-0.44362,1.53123,0.91301
323.845,19.81508,-0.45356,1.53524,0.91266
324.545,19.83638,-0.46112,1.54263,0.91231
325.245,19.8577,-0.47126,1.55248,0.91196
325.945,19.879,-0.48065,1.55572,0.91161
326.645,19.90031,-0.49087,1.56485,0.91126
327.345,19.92158,-0.50148,1.57049,0.91091
328.045,19.94291,-0.51213,1.57943,0.91056
328.745,19.9643,-0.5237,1.58685,0.91021
329.445,19.9856,-0.53364,1.59447,0.90986
330.145,20.00691,-0.54573,1.60123,0.90951
330.845,20.02822,-0.55594,1.61126,0.90917
331.545,20.04951,-0.5689,1.62249,0.90882
332.245,20.07089,-0.57944,1.62938,0.90847
332.945,20.0922,-0.59286,1.639,0.90812
333.645,20.11361,-0.60382,1.64551,0.90777
334.345,20.13504,-0.61719,1.65677,0.90743
335.045,20.15642,-0.62873,1.66576,0.90708
335.745,20.17785,-0.64214,1.67556,0.90673
336.445,20.1992,-0.65471,1.68246,0.90639
337.145,20.22051,-0.66838,1.69349,0.90604
337.845,20.24186,-0.68252,1.70157,0.90569
338.545,20.2633,-0.6962,1.7132,0.90534
339.245,20.2847,-0.71076,1.72049,0.905
339.945,20.3061,-0.72383,1.73397,0.90465
340.645,20.32747,-0.73959,1.7404,0.90431
341.345,20.34881,-0.75317,1.74874,0.90396
342.045,20.37022,-0.76972,1.75797,0.90361
342.745,20.39164,-0.78261,1.7696,0.90327
343.445,20.41309,-0.79851,1.78057,0.90292
344.145,20.43451,-0.81238,1.78557,0.90258
344.845,20.45595,-0.82972,1.79356,0.90223
345.545,20.4774,-0.8441,1.80277,0.90189
346.245,20.4988,-0.86102,1.81183,0.90154
346.945,20.5203,-0.87704,1.82193,0.9012
347.645,20.54179,-0.89408,1.83166,0.90085
348.345,20.5632,-0.91161,1.83852,0.90051
349.045,20.58471,-0.92732,1.84604,0.90016
349.745,20.60618,-0.94493,1.85602,0.89982
350.445,20.62764,-0.96139,1.86119,0.89947
351.145,20.6492,-0.98096,1.87053,0.89913
351.845,20.67063,-0.99691,1.87914,0.89878
352.545,20.69216,-1.01623,1.88489,0.89844
353.245,20.71367,-1.03175,1.89323,0.89809
353.945,20.73519,-1.05114,1.89921,0.89775
354.645,20.75671,-1.06772,1.90749,0.89741
355.345,20.77821,-1.0863,1.91597,0.89706
356.045,20.79972,-1.10491,1.92362,0.89672
356.745,20.82122,-1.12442,1.92907,0.89638
357.445,20.84277,-1.14326,1.93999,0.89603
358.145,20.86422,-1.16061,1.94699,0.89569
358.845,20.88564,-1.18096,1.95657,0.89534
359.545,20.90718,-1.1989,1.96644,0.895
360.245,20.9287,-1.22043,1.9749,0.89466
360.945,20.95034,-1.23689,1.98578,0.89431
361.645,20.97208,-1.25882,1.99726,0.89397
362.345,20.9937,-1.27616,2.00805,0.89363
363.045,21.01531,-1.29739,2.02016,0.89328
363.745,21.03689,-1.31539,2.03017,0.89294
364.445,21.0585,-1.33616,2.0441,0.8926
365.145,21.0801,-1.35629,2.06055,0.89225
365.845,21.10175,-1.37689,2.07728,0.89191
366.545,21.12324,-1.39782,2.08966,0.89157
367.245,21.14485,-1.41704,2.10936,0.89123
367.945,21.16646,-1.43939,2.12638,0.89088
368.645,21.18807,-1.45893,2.14785,0.89054
369.345,21.20976,-1.48306,2.1662,0.8902
370.045,21.23141,-1.50222,2.18649,0.88985
370.745,21.25307,-1.52589,2.21105,0.88951
371.445,21.27468,-1.54599,2.23444,0.88917
372.145,21.29635,-1.57092,2.25962,0.88883
372.845,21.318,-1.5926,2.28549,0.88848
373.545,21.33953,-1.61648,2.3121,0.88814
374.245,21.36123,-1.6399,2.33839,0.8878
374.945,21.3829,-1.66347,2.36747,0.88745
375.645,21.40465,-1.68883,2.39703,0.88711
376.345,21.4264,-1.7119,2.42864,0.88677
377.045,21.44803,-1.73965,2.45822,0.88643
377.745,21.46965,-1.76258,2.48906,0.88608
378.445,21.49132,-1.79119,2.51824,0.88574
379.145,21.51305,-1.81453,2.55145,0.8854
379.845,21.53481,-1.84356,2.57993,0.88505
380.545,21.55656,-1.86823,2.61144,0.88471
381.245,21.57828,-1.89773,2.64147,0.88437
381.945,21.60002,-1.92569,2.67248,0.88403
382.645,21.62173,-1.954,2.69699,0.88368
383.345,21.64349,-1.98342,2.72457,0.88334
384.045,21.66528,-2.01058,2.74925,0.883
384.745,21.68705,-2.04223,2.77028,0.88265
385.445,21.70886,-2.06893,2.79202,0.88231
386.145,21.73065,-2.10147,2.80812,0.88197
386.845,21.75241,-2.12676,2.82213,0.88162
387.545,21.77415,-2.16023,2.82767,0.88128
388.245,21.7959,-2.18785,2.83372,0.88094
388.945,21.81764,-2.2198,2.83417,0.8806
389.645,21.83943,-2.2497,2.83091,0.88025
390.345,21.86124,-2.28107,2.82199,0.87991
391.045,21.883,-2.31372,2.80533,0.87957
391.745,21.90475,-2.34251,2.78472,0.87922
392.445,21.92652,-2.37525,2.75943,0.87888
393.145,21.94825,-2.40273,2.72178,0.87853
393.845,21.96996,-2.43541,2.68287,0.87819
394.545,21.99172,-2.46087,2.63614,0.87785
395.245,22.01347,-2.49215,2.58066,0.8775
395.945,22.03518,-2.51747,2.52052,0.87716
396.645,22.05698,-2.54645,2.45084,0.87682
397.345,22.0788,-2.57145,2.37802,0.87647
398.045,22.10052,-2.59766,2.29798,0.87613
398.745,22.1223,-2.62349,2.21128,0.87578
399.445,22.14402,-2.64669,2.1234,0.87544
400.145,22.16568,-2.67132,2.02915,0.87509
400.845,22.18739,-2.69144,1.93309,0.87475
401.545,22.20913,-2.71476,1.82963,0.87441
402.245,22.23079,-2.73255,1.72529,0.87406
402.945,22.25246,-2.75296,1.62365,0.87372
403.645,22.2741,-2.76827,1.51813,0.87337
404.345,22.29571,-2.78633,1.41389,0.87303
405.045,22.31733,-2.80126,1.3147,0.87268
405.745,22.33894,-2.81558,1.21288,0.87234
406.445,22.36049,-2.82759,1.11616,0.87199
407.145,22.3821,-2.83919,1.01851,0.87165
407.845,22.40367,-2.85078,0.9272,0.8713
408.545,22.42529,-2.8601,0.84067,0.87096
409.245,22.44699,-2.87001,0.75902,0.87061
409.945,22.4686,-2.87754,0.68181,0.87026
410.645,22.49025,-2.88626,0.61055,0.86992
411.345,22.5119,-2.89243,0.54364,0.86957
412.045,22.53347,-2.89868,0.48185,0.86923
412.745,22.55511,-2.90331,0.4297,0.86888
413.445,22.5768,-2.90884,0.3816,0.86853
414.145,22.59844,-2.91354,0.33996,0.86819
414.845,22.62011,-2.91691,0.30389,0.86784
415.545,22.64175,-2.92078,0.2703,0.86749
416.245,22.6634,-2.92414,0.24095,0.86715
416.945,22.68511,-2.92768,0.21638,0.8668
417.645,22.7069,-2.93149,0.19563,0.86645
418.345,22.7286,-2.93463,0.17221,0.8661
419.045,22.75039,-2.93745,0.15891,0.86576
419.745,22.7722,-2.94006,0.14479,0.86541
420.445,22.7939,-2.94321,0.12718,0.86506
421.145,22.81561,-2.94572,0.11955,0.86471
421.845,22.8374,-2.94824,0.10752,0.86436
422.545,22.8592,-2.95127,0.10056,0.86401
423.245,22.88104,-2.95365,0.09154734,0.86367
423.945,22.9028,-2.95545,0.08295815,0.86332
424.645,22.92463,-2.95762,0.07441976,0.86297
425.345,22.94641,-2.96009,0.0675445,0.86262
426.045,22.96829,-2.96273,0.06141929,0.86227
426.745,22.99014,-2.96505,0.05759308,0.86192
427.445,23.012,-2.96732,0.04781295,0.86157
428.145,23.03395,-2.96989,0.04401111,0.86122
428.845,23.05583,-2.97174,0.0353664,0.86087
429.545,23.07777,-2.97363,0.03199581,0.86052
430.245,23.0997,-2.97575,0.03009903,0.86017
430.945,23.12161,-2.97804,0.02013262,0.85982
431.645,23.14349,-2.98021,0.01449563,0.85947
432.345,23.16538,-2.98254,0.01028164,0.85912
433.045,23.18735,-2.98464,0.00379746,0.85877
433.745,23.20929,-2.9868,-0.0019434,0.85841
434.445,23.2312,-2.98896,-0.0071761,0.85806
435.145,23.25316,-2.9913,-0.01047611,0.85771
435.845,23.27506,-2.9934,-0.01772525,0.85736
436.545,23.297,-2.99551,-0.02249891,0.85701
437.245,23.31899,-2.99753,-0.0269245,0.85665
437.945,23.341,-2.99905,-0.03026691,0.8563
438.645,23.36296,-3.00075,-0.03563749,0.85595
439.345,23.38499,-3.0031,-0.03883301,0.8556
440.045,23.40704,-3.0056,-0.04535245,0.85524
440.745,23.42907,-3.00749,-0.04887582,0.85489
441.445,23.45104,-3.00928,-0.05457156,0.85453
442.145,23.47304,-3.01297,-0.05958292,0.85418
442.845,23.495,-3.01546,-0.06524984,0.85383
443.545,23.51701,-3.01785,-0.0679099,0.85347
444.245,23.53912,-3.01945,-0.07248763,0.85312
444.945,23.56118,-3.02124,-0.07603396,0.85276
445.645,23.58323,-3.0236,-0.08182461,0.85241
446.345,23.60528,-3.0259,-0.0825542,0.85205
447.045,23.62729,-3.02786,-0.08904859,0.85169
447.745,23.64934,-3.02832,-0.09178436,0.85134
448.445,23.6714,-3.02937,-0.0946582,0.85098
449.145,23.69343,-3.03106,-0.09855678,0.85063
449.845,23.71554,-3.0333,-0.10188,0.85027
450.545,23.73774,-3.03541,-0.10189,0.84991
451.245,23.7599,-3.03764,-0.10773,0.84955
451.945,23.78199,-3.03976,-0.10685,0.8492
452.645,23.80407,-3.04168,-0.1098,0.84884
453.345,23.8261,-3.04335,-0.11092,0.84848
454.045,23.84821,-3.04551,-0.11389,0.84812
454.745,23.87031,-3.04831,-0.11436,0.84776
455.445,23.8924,-3.04998,-0.11747,0.8474
456.145,23.91459,-3.05178,-0.11532,0.84704
456.845,23.93671,-3.05384,-0.11777,0.84669
457.545,23.95885,-3.05597,-0.11863,0.84633
458.245,23.98102,-3.0575,-0.11773,0.84597
458.945,24.00314,-3.05922,-0.11725,0.8456
459.645,24.0253,-3.06126,-0.11466,0.84524
460.345,24.04747,-3.06333,-0.11461,0.84488
461.045,24.06965,-3.06517,-0.11373,0.84452
461.745,24.09185,-3.06713,-0.1142,0.84416
462.445,24.1141,-3.06871,-0.1127,0.8438
463.145,24.13627,-3.0702,-0.10792,0.84344
463.845,24.15845,-3.07215,-0.1048,0.84307
464.545,24.18064,-3.0731,-0.10493,0.84271
465.245,24.20281,-3.07393,-0.10071,0.84235
465.945,24.2251,-3.07546,-0.09532414,0.84198
466.645,24.2473,-3.07613,-0.09550487,0.84162
467.345,24.2696,-3.0778,-0.08874572,0.84126
468.045,24.29178,-3.07981,-0.08585166,0.84089
468.745,24.31394,-3.08282,-0.08424824,0.84053
469.445,24.33615,-3.08436,-0.07755706,0.84016
470.145,24.35836,-3.08596,-0.07334599,0.8398
470.845,24.38048,-3.08728,-0.06748552,0.83943
471.545,24.4027,-3.0885,-0.06568549,0.83907
472.245,24.425,-3.09011,-0.0624091,0.8387
472.945,24.4472,-3.09195,-0.05455324,0.83833
473.645,24.46963,-3.09377,-0.05044417,0.83797
474.345,24.492,-3.09547,-0.04514787,0.8376
475.045,24.5143,-3.09681,-0.04159917,0.83723
475.745,24.53661,-3.09862,-0.0349042,0.83686
476.445,24.5589,-3.09983,-0.02827077,0.83649
477.145,24.5812,-3.10088,-0.02246839,0.83613
477.845,24.6035,-3.10251,-0.01675534,0.83576
478.545,24.62582,-3.10432,-0.01156156,0.83539
479.245,24.64813,-3.10554,-0.00654534,0.83502
479.945,24.6704,-3.10721,-0.002816209,0.83465
480.645,24.69272,-3.10851,0.002958267,0.83428
481.345,24.71504,-3.10969,0.009633986,0.83391
482.045,24.7374,-3.11016,0.01488586,0.83353
482.745,24.7597,-3.1118,0.02183058,0.83316
483.445,24.78209,-3.11272,0.02817694,0.83279
484.145,24.80451,-3.11313,0.03334743,0.83242
484.845,24.82689,-3.11431,0.03784743,0.83205
485.545,24.84928,-3.11552,0.04209736,0.83167
486.245,24.8716,-3.11733,0.04704075,0.8313
486.945,24.89378,-3.11899,0.05299902,0.83093
487.645,24.91602,-3.12043,0.05657013,0.83055
488.345,24.93835,-3.12162,0.06176897,0.83018
489.045,24.96069,-3.123,0.06704493,0.8298
489.745,24.98319,-3.12445,0.07260858,0.82943
490.445,25.0057,-3.12565,0.07976525,0.82905
491.145,25.02806,-3.12642,0.07959532,0.82868
491.845,25.05046,-3.1275,0.08526581,0.8283
492.545,25.0728,-3.12919,0.08836227,0.82792
493.245,25.0952,-3.13001,0.09496165,0.82755
493.945,25.11761,-3.13031,0.09646601,0.82717
494.645,25.14005,-3.13231,0.10039,0.82679
495.345,25.16252,-3.13323,0.10415,0.82641
496.045,25.1849,-3.13387,0.10891,0.82603
496.745,25.20739,-3.13544,0.11376,0.82565
497.445,25.2298,-3.1369,0.11705,0.82527
498.145,25.2521,-3.13689,0.1181,0.82489
498.845,25.27457,-3.13819,0.12193,0.82451
499.545,25.29694,-3.13786,0.12716,0.82413
500.245,25.31938,-3.13888,0.1289,0.82375
500.945,25.34187,-3.14047,0.13116,0.82337
501.645,25.3643,-3.14153,0.13484,0.82299
502.345,25.3868,-3.14206,0.13622,0.82261
503.045,25.40925,-3.14341,0.13918,0.82222
503.745,25.4317,-3.14423,0.14058,0.82184
504.445,25.45415,-3.14508,0.14277,0.82146
505.145,25.47642,-3.14646,0.14665,0.82107
505.845,25.49885,-3.14908,0.14968,0.82069
506.545,25.52127,-3.14922,0.15124,0.8203
507.245,25.54382,-3.15073,0.15537,0.81992
507.945,25.56645,-3.15054,0.15577,0.81953
508.645,25.58898,-3.15205,0.15861,0.81915
509.345,25.61149,-3.15253,0.16012,0.81876
510.045,25.63397,-3.1533,0.16229,0.81837
510.745,25.65648,-3.15452,0.16331,0.81798
511.445,25.67899,-3.15466,0.16733,0.8176
512.145,25.70147,-3.15605,0.16856,0.81721
512.845,25.72396,-3.15619,0.16798,0.81682
513.545,25.7465,-3.15747,0.17076,0.81643
514.245,25.76899,-3.15889,0.17361,0.81604
514.945,25.7915,-3.15903,0.17219,0.81565
515.645,25.814,-3.16046,0.17476,0.81526
516.345,25.83654,-3.16077,0.17427,0.81487
517.045,25.85909,-3.16172,0.1798,0.81448
517.745,25.88169,-3.16172,0.17673,0.81408
518.445,25.90431,-3.16315,0.17884,0.81369
519.145,25.92685,-3.16376,0.18044,0.8133
519.845,25.9494,-3.16455,0.18279,0.81291
520.545,25.97182,-3.16617,0.18249,0.81251
521.245,25.9942,-3.16648,0.18219,0.81212
521.945,26.01681,-3.16741,0.18557,0.81172
522.645,26.03937,-3.16738,0.18544,0.81133
523.345,26.06201,-3.16874,0.18603,0.81093
524.045,26.08471,-3.16896,0.18539,0.81054
524.745,26.1072,-3.17014,0.18386,0.81014
525.445,26.12978,-3.17179,0.1836,0.80974
526.145,26.15232,-3.17178,0.18839,0.80935
526.845,26.17493,-3.17285,0.19118,0.80895
527.545,26.1976,-3.17327,0.19075,0.80855
528.245,26.22022,-3.17463,0.18814,0.80815
528.945,26.2428,-3.17498,0.19037,0.80775
529.645,26.2654,-3.17489,0.19119,0.80735
530.345,26.28805,-3.17537,0.18897,0.80695
531.045,26.3107,-3.17619,0.18873,0.80655
531.745,26.33335,-3.17647,0.18842,0.80615
532.445,26.35603,-3.17752,0.18805,0.80575
533.145,26.37865,-3.17804,0.18873,0.80534
533.845,26.4013,-3.17889,0.18879,0.80494
534.545,26.424,-3.18068,0.1899,0.80454
535.245,26.4466,-3.18095,0.19052,0.80413
535.945,26.46927,-3.18228,0.18808,0.80373
536.645,26.4919,-3.18299,0.18906,0.80332
537.345,26.51458,-3.1844,0.18861,0.80292
538.045,26.5373,-3.18433,0.18997,0.80251
538.745,26.55998,-3.18496,0.18837,0.80211
539.445,26.5826,-3.1853,0.19026,0.8017
540.145,26.60525,-3.18574,0.19011,0.80129
540.845,26.62789,-3.18591,0.18989,0.80089
541.545,26.6505,-3.18718,0.18915,0.80048
542.245,26.6732,-3.18717,0.18895,0.80007
542.945,26.69598,-3.18772,0.18855,0.79966
543.645,26.71868,-3.18847,0.18713,0.79925
544.345,26.7414,-3.18848,0.18984,0.79884
545.045,26.76407,-3.18989,0.19062,0.79843
545.745,26.7867,-3.18992,0.18927,0.79802
546.445,26.8094,-3.19112,0.1878,0.7976
547.145,26.83225,-3.19238,0.1877,0.79719
547.845,26.8551,-3.19266,0.18851,0.79678
548.545,26.8778,-3.19342,0.18708,0.79637
549.245,26.9006,-3.19395,0.19041,0.79595
549.945,26.92328,-3.19396,0.18863,0.79554
550.645,26.9458,-3.19428,0.18934,0.79512
551.345,26.96865,-3.19529,0.18765,0.79471
552.045,26.99147,-3.19606,0.18822,0.79429
552.745,27.01432,-3.19668,0.18647,0.79387
553.445,27.0373,-3.1978,0.18702,0.79346
554.145,27.0601,-3.19801,0.18794,0.79304
554.845,27.0828,-3.19942,0.18636,0.79262
555.545,27.10555,-3.19936,0.18624,0.7922
556.245,27.1283,-3.20016,0.18465,0.79178
556.945,27.15107,-3.20062,0.18363,0.79136
557.645,27.17385,-3.20287,0.18718,0.79094
558.345,27.1967,-3.2034,0.18355,0.79052
559.045,27.2196,-3.20435,0.18423,0.7901
559.745,27.2424,-3.20451,0.18445,0.78968
560.445,27.26533,-3.20329,0.18529,0.78926
561.145,27.28815,-3.20469,0.18075,0.78883
561.845,27.311,-3.2047,0.18363,0.78841
562.545,27.33383,-3.20489,0.17932,0.78799
563.245,27.3567,-3.20606,0.18322,0.78756
563.945,27.37953,-3.20602,0.18096,0.78714
564.645,27.4024,-3.2069,0.17928,0.78671
565.345,27.42525,-3.20735,0.18254,0.78628
566.045,27.44815,-3.20884,0.18161,0.78586
566.745,27.4709,-3.20929,0.18331,0.78543
567.445,27.4937,-3.21011,0.1847,0.785
568.145,27.51655,-3.20958,0.18881,0.78457
568.845,27.53935,-3.2103,0.18666,0.78414
569.545,27.56222,-3.21032,0.1897,0.78371
570.245,27.5851,-3.21177,0.19084,0.78328
570.945,27.60799,-3.21297,0.19323,0.78285
571.645,27.6308,-3.21293,0.19454,0.78242
572.345,27.65372,-3.21293,0.19556,0.78199
573.045,27.6765,-3.21288,0.19681,0.78156
573.745,27.6993,-3.21422,0.1982,0.78112
574.445,27.72216,-3.21434,0.20215,0.78069
575.145,27.745,-3.21561,0.19819,0.78026
575.845,27.76786,-3.21556,0.19795,0.77982
576.545,27.79073,-3.21692,0.2011,0.77939
577.245,27.8136,-3.21685,0.20349,0.77895
577.945,27.8365,-3.21801,0.20109,0.77851
578.645,27.85933,-3.21756,0.20188,0.77808
579.345,27.88222,-3.2189,0.20404,0.77764
580.045,27.90513,-3.21886,0.19943,0.7772
580.745,27.92812,-3.21888,0.20217,0.77676
581.445,27.951,-3.21993,0.20242,0.77632
582.145,27.974,-3.22019,0.20094,0.77588
582.845,27.9969,-3.22059,0.20158,0.77544
583.545,28.0198,-3.22149,0.20048,0.775
584.245,28.04278,-3.22149,0.20012,0.77456
584.945,28.06568,-3.22144,0.2037,0.77412
585.645,28.0886,-3.22276,0.20442,0.77367
586.345,28.1115,-3.22279,0.2045,0.77323
587.045,28.13437,-3.22405,0.20419,0.77279
587.745,28.1573,-3.22415,0.20633,0.77234
588.445,28.18031,-3.22513,0.20857,0.7719
589.145,28.20324,-3.22538,0.20826,0.77145
589.845,28.2262,-3.22672,0.20866,0.77101
590.545,28.2491,-3.22676,0.20883,0.77056
591.245,28.2719,-3.22727,0.21012,0.77011
591.945,28.29485,-3.22804,0.20843,0.76966
592.645,28.31778,-3.22799,0.20952,0.76921
593.345,28.34072,-3.22939,0.21219,0.76876
594.045,28.36372,-3.22957,0.21014,0.76832
594.745,28.38669,-3.23086,0.21042,0.76786
595.445,28.4097,-3.23202,0.21144,0.76741
596.145,28.4327,-3.23223,0.21134,0.76696
596.845,28.4557,-3.23333,0.21245,0.76651
597.545,28.4786,-3.2333,0.20857,0.76606
598.245,28.5016,-3.2347,0.212,0.7656
598.945,28.52464,-3.23362,0.20951,0.76515
599.645,28.54767,-3.23326,0.20778,0.76469
600.345,28.57071,-3.23478,0.20824,0.76424
601.045,28.5937,-3.2348,0.20494,0.76378
601.745,28.6167,-3.23614,0.2059,0.76333
602.445,28.6396,-3.23608,0.20644,0.76287
603.145,28.66258,-3.23608,0.19999,0.76241
603.845,28.6856,-3.237,0.20246,0.76195
604.545,28.7086,-3.23739,0.20139,0.7615
605.245,28.7317,-3.23747,0.20051,0.76104
605.945,28.75478,-3.23876,0.19782,0.76058
606.645,28.77778,-3.23872,0.19449,0.76012
607.345,28.8008,-3.23944,0.19122,0.75965
608.045,28.82375,-3.24003,0.19364,0.75919
608.745,28.8468,-3.24042,0.19029,0.75873
609.445,28.86985,-3.24135,0.18508,0.75827
610.145,28.8929,-3.24135,0.18113,0.7578
610.845,28.9159,-3.24135,0.18103,0.75734
611.545,28.93879,-3.24135,0.17562,0.75687
612.245,28.96185,-3.24285,0.17094,0.75641
612.945,28.9849,-3.24282,0.17184,0.75594
613.645,29.00807,-3.24437,0.1673,0.75548
614.345,29.03128,-3.24507,0.16462,0.75501
615.045,29.05438,-3.24561,0.16104,0.75454
615.745,29.07742,-3.24562,0.15946,0.75407
616.445,29.10047,-3.24564,0.15866,0.7536
617.145,29.1235,-3.24699,0.15297,0.75313
617.845,29.1466,-3.24694,0.15177,0.75266
618.545,29.1696,-3.24724,0.15119,0.75219
619.245,29.1927,-3.24824,0.1486,0.75172
619.945,29.2157,-3.24826,0.14655,0.75125
620.645,29.23876,-3.24827,0.14158,0.75077
621.345,29.2618,-3.24937,0.14245,0.7503
622.045,29.28489,-3.24958,0.13827,0.74983
622.745,29.30798,-3.25006,0.13806,0.74935
623.445,29.331,-3.25088,0.13434,0.74888
624.145,29.35408,-3.25091,0.13568,0.7484
624.845,29.37718,-3.25165,0.13339,0.74792
625.545,29.4002,-3.25088,0.12778,0.74745
626.245,29.42326,-3.25089,0.12584,0.74697
626.945,29.44629,-3.25089,0.12387,0.74649
627.645,29.46927,-3.25115,0.12396,0.74601
628.345,29.4923,-3.25217,0.12262,0.74553
629.045,29.5155,-3.2521,0.12156,0.74505
629.745,29.53861,-3.25351,0.1159,0.74457
630.445,29.5617,-3.25352,0.1138,0.74409
631.145,29.58486,-3.25354,0.11109,0.7436
631.845,29.60792,-3.25431,0.11171,0.74312
632.545,29.631,-3.25483,0.1093,0.74264
633.245,29.65405,-3.25617,0.10562,0.74215
633.945,29.67713,-3.25745,0.10554,0.74167
634.645,29.70021,-3.25747,0.10266,0.74118
635.345,29.7233,-3.25747,0.09883965,0.7407
636.045,29.74648,-3.25737,0.09553403,0.74021
636.745,29.7696,-3.25879,0.09510751,0.73972
637.445,29.7927,-3.25896,0.09551253,0.73924
638.145,29.81581,-3.25886,0.09264139,0.73875
638.845,29.83885,-3.25873,0.08936356,0.73826
639.545,29.8619,-3.26011,0.08710564,0.73777
640.245,29.88498,-3.2601,0.08814068,0.73728
640.945,29.90812,-3.2601,0.08588266,0.73679
641.645,29.9313,-3.26015,0.08474437,0.7363
642.345,29.95444,-3.26147,0.08178276,0.7358
643.045,29.9776,-3.26143,0.07834791,0.73531
643.745,30.0007,-3.26213,0.07608345,0.73482
644.445,30.02385,-3.26272,0.0739994,0.73432
645.145,30.04697,-3.26273,0.07414229,0.73383
645.845,30.0701,-3.26273,0.0723446,0.73333
646.545,30.09323,-3.26458,0.07214773,0.73284
647.245,30.11632,-3.26534,0.06712343,0.73234
647.945,30.1394,-3.26534,0.06708967,0.73184
648.645,30.1625,-3.26669,0.06291673,0.73134
649.345,30.1856,-3.26576,0.06213609,0.73084
650.045,30.2088,-3.26536,0.06143287,0.73034
650.745,30.23187,-3.26675,0.06023951,0.72984
651.445,30.25505,-3.26668,0.0561272,0.72934
652.145,30.27822,-3.26787,0.05503618,0.72884
652.845,30.3012,-3.268,0.05365474,0.72834
653.545,30.3243,-3.268,0.05125131,0.72784
654.245,30.34735,-3.26802,0.05151382,0.72734
654.945,30.37043,-3.26901,0.05065976,0.72683
655.645,30.3936,-3.26932,0.04741823,0.72633
656.345,30.4168,-3.26971,0.04719013,0.72582
657.045,30.44006,-3.27063,0.04309812,0.72532
657.745,30.4632,-3.27063,0.04612857,0.72481
658.445,30.4864,-3.27063,0.04130835,0.7243
659.145,30.50957,-3.27064,0.04002767,0.7238
659.845,30.5327,-3.2718,0.0389582,0.72329
660.545,30.55582,-3.27194,0.03887557,0.72278
661.245,30.57897,-3.2719,0.03651049,0.72227
661.945,30.60207,-3.27327,0.03243459,0.72176
662.645,30.6252,-3.27326,0.02855728,0.72125
663.345,30.64835,-3.27326,0.02674996,0.72074
664.045,30.67145,-3.27326,0.0260786,0.72022
664.745,30.6946,-3.27326,0.02385799,0.71971
665.445,30.7178,-3.27326,0.02329657,0.7192
666.145,30.7409,-3.27326,0.02093541,0.71868
666.845,30.764,-3.27326,0.01747006,0.71817
667.545,30.78717,-3.27321,0.01734921,0.71765
668.245,30.8103,-3.27458,0.01814204,0.71714
668.945,30.8335,-3.27451,0.01471317,0.71662
669.645,30.8567,-3.27586,0.01359623,0.71611
670.345,30.87983,-3.27589,0.01193695,0.71559
671.045,30.90297,-3.27591,0.008560346,0.71507
671.745,30.9261,-3.27729,0.00681426,0.71455
672.445,30.9493,-3.27722,0.00494964,0.71403
673.145,30.9724,-3.27841,0.003468275,0.71351
673.845,30.9956,-3.27728,0.003355992,0.71299
674.545,31.01875,-3.27808,0.001605963,0.71247
675.245,31.0419,-3.27852,0.001309089,0.71194
675.945,31.0651,-3.27852,0.0001507458,0.71142
676.645,31.08833,-3.27852,-0.00283774,0.7109
677.345,31.1115,-3.27852,-0.003997465,0.71037
678.045,31.13464,-3.27858,-0.006238481,0.70985
678.745,31.15783,-3.27988,-0.00662773,0.70932
679.445,31.181,-3.27984,-0.00764252,0.7088
680.145,31.2043,-3.27985,-0.00955488,0.70827
680.845,31.2275,-3.28007,-0.01312298,0.70774
681.545,31.2507,-3.2805,-0.01722564,0.70722
682.245,31.27389,-3.28054,-0.01414077,0.70669
682.945,31.29705,-3.28187,-0.01571832,0.70616
683.645,31.32017,-3.28181,-0.01660374,0.70563
684.345,31.3433,-3.28181,-0.0188546,0.7051
685.045,31.36645,-3.28181,-0.02181529,0.70457
685.745,31.38965,-3.28181,-0.02157635,0.70403
686.445,31.41285,-3.28181,-0.02213187,0.7035
687.145,31.43608,-3.28279,-0.02535129,0.70297
687.845,31.4593,-3.28313,-0.02567989,0.70244
688.545,31.4825,-3.28313,-0.02919067,0.7019
689.245,31.50572,-3.28313,-0.02866441,0.70137
689.945,31.5289,-3.28313,-0.03189966,0.70083
690.645,31.5521,-3.28452,-0.03128471,0.70029
691.345,31.57537,-3.28445,-0.03394729,0.69976
692.045,31.59853,-3.28444,-0.03446746,0.69922
692.745,31.6217,-3.28445,-0.03866774,0.69868
693.445,31.64487,-3.28489,-0.03901612,0.69814
694.145,31.6681,-3.28576,-0.04245511,0.6976
694.845,31.6914,-3.28576,-0.04251231,0.69706
695.545,31.7146,-3.28576,-0.04662261,0.69652
696.245,31.7379,-3.28576,-0.04382241,0.69598
696.945,31.761,-3.28574,-0.04801908,0.69544
697.645,31.78418,-3.285,-0.04747145,0.6949
698.345,31.8072,-3.28641,-0.04968044,0.69435
699.045,31.83042,-3.28643,-0.05096165,0.69381
699.745,31.8537,-3.28642,-0.05386157,0.69327
700.445,31.877,-3.28634,-0.05458778,0.69272
701.145,31.9004,-3.28774,-0.05481949,0.69218
701.845,31.92372,-3.28774,-0.05550419,0.69163
702.545,31.94701,-3.28773,-0.0563897,0.69108
703.245,31.9703,-3.28776,-0.05983463,0.69054
703.945,31.9936,-3.28907,-0.05954533,0.68999
704.645,32.01684,-3.28906,-0.06509659,0.68944
705.345,32.04015,-3.28906,-0.06489651,0.68889
706.045,32.0634,-3.28906,-0.06685032,0.68834
706.745,32.08672,-3.28907,-0.06822867,0.68779
707.445,32.10999,-3.28906,-0.06823107,0.68724
708.145,32.13327,-3.28839,-0.06770133,0.68668
708.845,32.15659,-3.28904,-0.07061091,0.68613
709.545,32.17995,-3.28906,-0.07435581,0.68558
710.245,32.20327,-3.28906,-0.07184355,0.68503
710.945,32.22655,-3.28905,-0.07527379,0.68447
711.645,32.2498,-3.28905,-0.07833103,0.68392
712.345,32.2731,-3.29038,-0.07890767,0.68336
713.045,32.29643,-3.29037,-0.07791843,0.6828
713.745,32.31975,-3.29036,-0.07989864,0.68225
714.445,32.34304,-3.29174,-0.0827621,0.68169
715.145,32.36637,-3.29169,-0.08418772,0.68113
715.845,32.38963,-3.29169,-0.08417012,0.68057
716.545,32.41294,-3.29169,-0.08468439,0.68001
717.245,32.43625,-3.29169,-0.08795292,0.67945
717.945,32.4596,-3.29169,-0.09065501,0.67889
718.645,32.48303,-3.29196,-0.09296894,0.67833
719.345,32.50642,-3.29266,-0.09286436,0.67777
720.045,32.52984,-3.29268,-0.09427702,0.67721
720.745,32.55323,-3.29277,-0.09530346,0.67664
721.445,32.57655,-3.29298,-0.09962723,0.67608
722.145,32.59989,-3.29235,-0.09971026,0.67552
722.845,32.62322,-3.29201,-0.10091,0.67495
723.545,32.64659,-3.29201,-0.10044,0.67439
724.245,32.6699,-3.29201,-0.10162,0.67382
724.945,32.69332,-3.29294,-0.10525,0.67325
725.645,32.71668,-3.29332,-0.10703,0.67269
726.345,32.7401,-3.29333,-0.10881,0.67212
727.045,32.76343,-3.29427,-0.10783,0.67155
727.745,32.78685,-3.29464,-0.10934,0.67098
728.445,32.8103,-3.29465,-0.11525,0.67041
729.145,32.8337,-3.29458,-0.11,0.66984
729.845,32.85717,-3.29594,-0.11328,0.66927
730.545,32.88053,-3.29596,-0.11457,0.6687
731.245,32.9039,-3.29596,-0.11739,0.66813
731.945,32.92726,-3.29596,-0.11784,0.66755
732.645,32.95067,-3.29596,-0.12123,0.66698
733.345,32.9741,-3.29597,-0.11894,0.66641
734.045,32.99742,-3.29641,-0.12346,0.66583
734.745,33.02077,-3.29727,-0.1245,0.66526
735.445,33.04421,-3.29728,-0.12989,0.66468
736.145,33.06766,-3.29728,-0.12913,0.6641
736.845,33.0911,-3.29726,-0.13071,0.66353
737.545,33.1145,-3.29852,-0.13008,0.66295
738.245,33.13779,-3.2986,-0.13284,0.66237
738.945,33.16115,-3.2986,-0.13036,0.66179
739.645,33.18456,-3.29845,-0.13198,0.66121
740.345,33.208,-3.29827,-0.13103,0.66063
741.045,33.23151,-3.29827,-0.13844,0.66005
741.745,33.25495,-3.29828,-0.13531,0.65947
742.445,33.27834,-3.29833,-0.13664,0.65889
743.145,33.30174,-3.29834,-0.13881,0.65831
743.845,33.3251,-3.29828,-0.13953,0.65773
744.545,33.34851,-3.29827,-0.14553,0.65714
745.245,33.37185,-3.29828,-0.1442,0.65656
745.945,33.39516,-3.29875,-0.14611,0.65597
746.645,33.4186,-3.29959,-0.14825,0.65539
747.345,33.442,-3.29959,-0.14925,0.6548
748.045,33.46563,-3.29959,-0.15125,0.65422
748.745,33.4892,-3.2996,-0.14977,0.65363
749.445,33.51262,-3.30046,-0.15254,0.65304
750.145,33.53608,-3.30089,-0.15035,0.65245
750.845,33.5595,-3.3009,-0.15336,0.65186
751.545,33.58291,-3.3009,-0.15567,0.65128
752.245,33.60629,-3.3009,-0.15338,0.65069
752.945,33.6297,-3.3009,-0.15483,0.65009
753.645,33.65315,-3.29998,-0.15388,0.6495
754.345,33.6765,-3.30061,-0.155,0.64891
755.045,33.70004,-3.3009,-0.15729,0.64832
755.745,33.7235,-3.30106,-0.15682,0.64773
756.445,33.747,-3.30225,-0.15948,0.64713
757.145,33.7705,-3.30222,-0.15854,0.64654
757.845,33.79398,-3.30222,-0.16169,0.64595
758.545,33.8175,-3.30222,-0.16494,0.64535
759.245,33.8409,-3.30222,-0.16283,0.64475
759.945,33.86439,-3.30216,-0.16461,0.64416
760.645,33.8879,-3.30293,-0.16572,0.64356
761.345,33.91131,-3.30396,-0.16517,0.64296
762.045,33.93472,-3.30419,-0.16287,0.64237
762.745,33.95817,-3.30419,-0.16983,0.64177
763.445,33.9816,-3.30417,-0.16812,0.64117
764.145,34.0051,-3.30525,-0.16649,0.64057
764.845,34.02859,-3.30551,-0.16641,0.63997
765.545,34.05199,-3.30551,-0.16705,0.63937
766.245,34.0754,-3.30551,-0.17079,0.63877
766.945,34.09884,-3.30548,-0.1676,0.63817
767.645,34.12233,-3.30651,-0.1713,0.63756
768.345,34.14582,-3.30652,-0.17227,0.63696
769.045,34.1693,-3.30554,-0.17105,0.63636
769.745,34.1927,-3.30551,-0.17454,0.63575
770.445,34.21613,-3.30551,-0.17438,0.63515
771.145,34.23958,-3.30551,-0.17467,0.63454
771.845,34.26307,-3.30551,-0.17341,0.63394
772.545,34.2866,-3.30551,-0.17357,0.63333
773.245,34.31004,-3.30551,-0.17586,0.63273
773.945,34.3335,-3.30547,-0.17398,0.63212
774.645,34.357,-3.30669,-0.17606,0.63151
775.345,34.38049,-3.30682,-0.17397,0.6309
776.045,34.4039,-3.30678,-0.17843,0.63029
776.745,34.42745,-3.30803,-0.17826,0.62968
777.445,34.4509,-3.30814,-0.18143,0.62907
778.145,34.4745,-3.30898,-0.17884,0.62846
778.845,34.49801,-3.30954,-0.18087,0.62785
779.545,34.5215,-3.31095,-0.17854,0.62724
780.245,34.54501,-3.31089,-0.18018,0.62663
780.945,34.5685,-3.31088,-0.18546,0.62602
781.645,34.59197,-3.31088,-0.18141,0.6254
782.345,34.6155,-3.31085,-0.18641,0.62479
783.045,34.63909,-3.30998,-0.18565,0.62417
783.745,34.66263,-3.30957,-0.18129,0.62356
784.445,34.68619,-3.30957,-0.18531,0.62294
785.145,34.7097,-3.30957,-0.18509,0.62233
785.845,34.73319,-3.30957,-0.18662,0.62171
786.545,34.75667,-3.30957,-0.18934,0.6211
787.245,34.78022,-3.30957,-0.18986,0.62048
787.945,34.80376,-3.30953,-0.18852,0.61986
788.645,34.82727,-3.31077,-0.18863,0.61924
789.345,34.8508,-3.31089,-0.18909,0.61862
790.045,34.87429,-3.31089,-0.18818,0.618
790.745,34.89782,-3.31089,-0.18899,0.61738
791.445,34.9214,-3.31089,-0.18934,0.61676
792.145,34.94493,-3.31087,-0.18812,0.61614
792.845,34.96846,-3.31004,-0.19013,0.61552
793.545,34.9919,-3.31096,-0.18765,0.6149
793.745,34.99865,-3.31092,-0.18543,0.61472