File: 01_Data/Scott_HT_SCBA/Cone/Scott_HT_SCBA_Cone_HF100-FrameScan_201103_R1.csv
Names,Time,Stack TC,Smoke TC,Exh Press,Smoke Comp,Smoke Meas,CO Meter,CO2 Meter,O2 Meter,Sample Mass,Ext Coeff,Start Test,Flame Verif
Chan Gain,,500,500,1,1,1,1,1,1,1,1,1.0,1.0
Offset,,0,0,0.134413,0,0,0,0,0,0,0,0.0,0.0
Gain,,1,1,25.011,13.8462,17.0661,1,1,1,1.0009,1.04998,1.0,1.0
Units,sec,C,C,Pa,%,%,%,%,%,g,/m,,
Baseline,,43.0487,48.4416,172.362,102.339,104.436,0.00383836,0.0811048,20.98,-936.269,-0.186784,,
2,0.25,40.4998,43.9442,170.931,102.433,104.271,0.00510193,0.109214,20.9483,13.9325,-0.1638,0.0,0.0
4,0.75,39.9018,43.2358,174.538,102.439,104.133,0.00520637,0.108725,20.9478,13.9825,-0.151107,0.0,0.0
6,1.25,39.5921,43.167,168.525,102.429,104.501,0.00529097,0.107547,20.9477,13.8324,-0.184445,0.0,0.0
8,1.75,39.5535,43.139,173.311,102.434,104.79,0.00532088,0.105889,20.9482,13.9425,-0.209384,0.0,0.0
10,2.25,39.5024,43.3884,170.505,102.424,104.796,0.0053451,0.104547,20.9492,13.8724,-0.210807,0.0,0.0
12,2.75,39.8672,43.3745,173.415,102.438,105.033,0.00530945,0.102363,20.9513,13.9125,-0.230479,0.0,0.0
14,3.25,39.9259,43.3526,169.479,102.418,104.114,0.00528057,0.100595,20.953,13.8824,-0.151301,0.0,0.0
16,3.75,39.8412,44.0305,171.819,102.416,104.636,0.00519299,0.099162,20.955,13.8824,-0.197511,0.0,0.0
18,4.25,40.4675,44.3027,171.488,102.415,104.199,0.00512206,0.097195,20.9573,13.8524,-0.159036,0.0,0.0
20,4.75,39.6765,44.241,166.504,102.431,104.17,0.00503902,0.0956016,20.9592,13.9025,-0.155014,0.0,0.0
22,5.25,39.9615,44.4091,176.909,102.408,104.11,0.00494875,0.0939561,20.9616,13.8824,-0.151814,0.0,0.0
24,5.75,40.0441,44.8805,174.643,102.402,104.819,0.00487563,0.0926232,20.9635,13.8624,-0.214798,0.0,0.0
26,6.25,40.0531,44.8375,172.687,102.399,104.51,0.00476264,0.0912843,20.9651,13.8724,-0.187969,0.0,0.0
28,6.75,40.4882,45.1536,173.059,102.395,104.085,0.00467111,0.0901999,20.9665,13.8724,-0.150735,0.0,0.0
30,7.25,41.035,45.2205,171.196,102.408,103.956,0.00457074,0.0891169,20.9677,13.8524,-0.13812,0.0,0.0
32,7.75,40.9794,45.1993,172.659,102.395,104.266,0.00446583,0.0882397,20.969,13.8424,-0.166797,0.0,0.0
34,8.25,40.466,45.6957,175.128,102.398,103.797,0.00438084,0.0875292,20.9701,13.8424,-0.125032,0.0,0.0
36,8.75,40.6476,45.299,170.864,102.395,103.241,0.00428519,0.0867636,20.971,13.8224,-0.0757236,0.0,0.0
38,9.25,40.9646,46.0275,173.865,102.389,103.096,0.00421309,0.0861435,20.9718,13.8324,-0.063368,0.0,0.0
40,9.75,41.245,46.0413,175.516,102.386,103.042,0.00415952,0.085591,20.9723,13.8424,-0.0588778,0.0,0.0
42,10.25,40.4278,45.7289,173.713,102.376,102.916,0.004139,0.0850983,20.9728,13.8324,-0.048442,0.0,0.0
44,10.75,40.8383,46.2412,173.967,102.374,102.822,0.00414295,0.0846992,20.9732,13.8524,-0.0402387,0.0,0.0
46,11.25,41.1576,46.2213,167.747,102.375,102.627,0.00418791,0.0851804,20.9722,13.8624,-0.0226123,0.0,0.0
48,11.75,41.6206,46.2124,167.362,102.369,101.698,0.00426191,0.0855702,20.9714,13.8324,0.0604974,0.0,0.0
50,12.25,41.5157,46.0352,173.487,102.367,102.011,0.00432185,0.0900702,20.968,13.7723,0.032041,0.0,0.0
52,12.75,41.856,46.346,169.067,102.366,99.7871,0.00447856,0.0937152,20.9627,13.7523,0.235024,0.0,0.0
54,13.25,41.5508,46.9185,168.498,102.362,100.215,0.00470285,0.103207,20.9585,13.7323,0.195261,0.0,1.0
56,13.75,41.6959,47.0245,159.832,102.364,101.091,0.00503009,0.11399,20.9472,13.7323,0.115205,0.0,1.0
58,14.25,42.4672,47.2117,167.448,102.361,99.059,0.00542616,0.125509,20.938,13.5121,0.301981,0.0,1.0
60,14.75,42.1679,47.8468,170.718,102.356,97.7653,0.00595901,0.134839,20.9184,13.6823,0.422681,0.0,1.0
62,15.25,42.3557,48.9861,167.788,102.353,92.7331,0.00658144,0.151856,20.9025,13.412,0.909087,0.0,1.0
64,15.75,42.8804,49.2682,166.6,102.337,86.9797,0.0070856,0.165641,20.8813,13.6622,1.49754,0.0,1.0
66,16.25,42.976,49.3016,161.688,102.35,82.9574,0.00812778,0.183707,20.8567,13.6422,1.93481,0.0,1.0
68,16.75,43.7372,49.8343,163.329,102.336,74.2962,0.00897195,0.204552,20.8248,13.5622,2.9492,0.0,1.0
70,17.25,43.6089,51.1383,156.357,102.353,68.3802,0.0103281,0.229435,20.7881,13.5622,3.71492,0.0,1.0
72,17.75,44.1185,51.7431,156.959,102.346,63.4986,0.0114266,0.256789,20.7583,13.432,4.39649,0.0,1.0
74,18.25,45.6497,50.453,153.817,102.329,60.8872,0.0128497,0.278945,20.7111,13.402,4.78179,0.0,1.0
76,18.75,44.6826,52.6439,151.99,102.352,56.0759,0.0144824,0.315939,20.6729,13.3219,5.54198,0.0,0.0
78,19.25,46.0912,54.4523,156.106,102.329,56.7228,0.0158048,0.345904,20.6276,13.3219,5.43433,0.0,0.0
80,19.75,46.4294,56.3828,154.834,102.33,51.8677,0.0175444,0.387812,20.5782,13.2018,6.25854,0.0,0.0
82,20.25,47.9143,58.1189,153.607,102.329,46.7949,0.019555,0.421758,20.5381,13.1218,7.20641,0.0,0.0
84,20.75,48.6196,58.9304,150.756,102.334,46.9564,0.021514,0.461556,20.4808,13.0317,7.17507,0.0,0.0
86,21.25,49.1798,60.5522,151.171,102.332,47.0663,0.0233983,0.504862,20.4343,12.9416,7.15343,0.0,0.0
88,21.75,50.7162,63.0095,151.07,102.326,43.8992,0.0249246,0.539941,20.3784,12.8715,7.79442,0.0,0.0
90,22.25,51.6732,64.3273,142.256,102.326,44.8731,0.0262594,0.59137,20.333,12.7314,7.59236,0.0,0.0
92,22.75,53.2039,66.3199,149.099,102.321,42.3367,0.0273406,0.633027,20.2963,12.5913,8.12779,0.0,0.0
94,23.25,54.1752,68.6655,135.142,102.334,41.7289,0.0276858,0.666317,20.2666,12.4211,8.26216,0.0,0.0
96,23.75,55.5379,70.853,142.862,102.318,42.306,0.0279654,0.692874,20.2425,12.321,8.13425,0.0,0.0
98,24.25,57.1097,72.7519,142.575,102.321,41.4232,0.0281919,0.695155,20.223,12.4311,8.32874,0.0,0.0
100,24.75,58.0964,74.7494,152.391,102.308,61.2299,0.0277063,0.679696,20.2072,12.0508,4.72816,0.0,0.0
102,25.25,59.5151,77.0664,169.458,102.305,88.5957,0.0267107,0.667174,20.1944,12.4311,1.32517,0.0,0.0
104,25.75,59.7275,77.0123,175.057,102.316,95.9856,0.0259042,0.616967,20.2332,-461.894,0.588233,0.0,0.0
106,26.25,59.7987,76.1034,173.823,102.31,98.0449,0.0243093,0.576299,20.2647,-940.062,0.392148,0.0,0.0
108,26.75,59.0378,74.5502,172.104,102.312,99.6022,0.0230174,0.52422,20.3069,-939.932,0.247201,0.0,0.0
110,27.25,58.4406,73.4832,177.149,102.309,98.9725,0.021505,0.482037,20.3562,-939.922,0.305346,0.0,0.0
112,27.75,57.0567,71.8464,175.612,102.309,100.577,0.0198608,0.447868,20.3962,-939.912,0.157301,0.0,0.0
114,28.25,56.7722,70.7097,173.453,102.311,97.9861,0.018529,0.403748,20.4419,-939.972,0.397793,0.0,0.0
116,28.75,55.82,69.3216,176.745,102.326,100.089,0.0169785,0.368011,20.4909,-939.872,0.203658,0.0,0.0
118,29.25,55.6081,68.1868,176.73,102.345,101.386,0.0157225,0.339064,20.5423,-939.962,0.086751,0.0,0.0
120,29.75,54.5326,66.8268,172.231,102.36,102.471,0.0145264,0.305156,20.5945,-940.052,-0.00994799,0.0,0.0
122,30.25,53.7415,65.9579,179.114,102.383,103.496,0.0133966,0.27769,20.6368,-939.522,-0.0996493,0.0,0.0
124,30.75,53.0298,64.656,168.882,102.394,103.417,0.0123567,0.255443,20.6815,-939.992,-0.0915289,0.0,0.0
126,31.25,52.1005,63.3931,172.443,102.422,103.758,0.0114022,0.231617,20.7216,-939.942,-0.119353,0.0,0.0
128,31.75,51.8525,62.5016,171.265,102.432,103.515,0.0105444,0.212319,20.7577,-939.942,-0.0967867,0.0,0.0
130,32.25,50.8515,61.616,175.221,102.455,103.181,0.00977348,0.194228,20.7868,-939.942,-0.0650215,0.0,0.0
132,32.75,50.8285,60.9876,168.81,102.481,103.9,0.00908925,0.179575,20.814,-939.912,-0.126731,0.0,0.0
134,33.25,50.6549,60.4359,174.952,102.5,103.85,0.0084812,0.166898,20.8359,-939.952,-0.120543,0.0,0.0
136,33.75,49.4823,60.0694,173.346,102.513,104.133,0.00798868,0.155904,20.8564,-939.962,-0.14446,0.0,0.0
138,34.25,49.8362,59.1712,167.101,102.534,104.053,0.00751455,0.146375,20.8729,-939.982,-0.135465,0.0,0.0
140,34.75,49.588,58.8571,170.081,102.547,104.279,0.00706285,0.138096,20.8863,-939.992,-0.154228,0.0,0.0
142,35.25,49.4715,58.4037,169.85,102.569,104.355,0.00665374,0.131006,20.8989,-939.972,-0.159007,0.0,0.0
144,35.75,48.9249,57.6964,173.249,102.59,103.642,0.00628347,0.124919,20.9091,-939.962,-0.0939261,0.0,0.0
146,36.25,48.3139,56.9784,171.314,102.603,104.212,0.00598355,0.119635,20.9181,-939.962,-0.143293,0.0,0.0
148,36.75,48.843,56.8955,170.789,102.611,104.454,0.0056561,0.115037,20.9259,-939.992,-0.163943,0.0,0.0
150,37.25,48.3567,56.9486,170.683,102.644,104.503,0.00539088,0.111312,20.9326,-939.972,-0.165347,0.0,0.0
152,37.75,48.3017,56.502,171.125,102.651,105.053,0.00512875,0.107927,20.9381,-939.972,-0.213041,0.0,0.0
154,38.25,48.0911,55.9441,172.527,102.675,104.575,0.00491643,0.104855,20.9433,-939.982,-0.168881,0.0,0.0
156,38.75,47.8712,55.9402,170.279,102.691,104.4,0.00472899,0.102158,20.9481,-939.942,-0.152091,0.0,0.0
158,39.25,47.9643,56.0328,170.869,102.715,105.622,0.00456325,0.0997857,20.9523,-939.962,-0.257015,0.0,0.0
160,39.75,47.4879,55.1072,165.862,102.728,104.852,0.00442565,0.0978641,20.9558,-939.942,-0.188508,0.0,0.0
162,40.25,47.3403,55.289,170.199,102.741,104.868,0.00431116,0.0959524,20.9587,-939.942,-0.188752,0.0,0.0
164,40.75,47.1114,54.7361,170.8,102.751,104.343,0.00421843,0.094404,20.9615,-939.932,-0.14161,0.0,0.0
166,41.25,46.8585,54.3083,171.464,102.789,105.014,0.00415481,0.0929178,20.9637,-939.942,-0.197271,0.0,0.0
168,41.75,47.0917,54.3037,171.569,102.788,105.209,0.00410327,0.0917139,20.9656,-939.932,-0.214377,0.0,0.0
170,42.25,46.3108,53.8286,170.34,102.813,104.449,0.0040669,0.0904796,20.967,-939.922,-0.145463,0.0,0.0
172,42.75,46.9887,53.7039,170.951,102.833,104.574,0.00404228,0.0894799,20.9691,-939.912,-0.154654,0.0,0.0
174,43.25,46.3242,54.2301,172.382,102.849,104.66,0.00402637,0.0885553,20.9708,-939.922,-0.160782,0.0,0.0
176,43.75,46.4708,53.6679,173.124,102.861,104.87,0.00401711,0.087703,20.9721,-939.912,-0.178137,0.0,0.0
178,44.25,46.323,53.2109,170.229,102.867,104.86,0.0040123,0.0870127,20.9732,-939.932,-0.176746,0.0,0.0
180,44.75,46.0668,53.3885,168.448,102.893,104.775,0.00401083,0.0864033,20.9741,-939.932,-0.166941,0.0,0.0
182,45.25,46.1397,52.9903,172.897,102.907,104.774,0.00401031,0.0858646,20.9748,-939.922,-0.165631,0.0,0.0
184,45.75,46.2444,52.4374,168.736,102.922,104.783,0.00401049,0.0853995,20.9754,-939.942,-0.165056,0.0,0.0
186,46.25,45.6333,52.1717,169.579,102.934,104.918,0.00400996,0.0849969,20.9759,-939.942,-0.175838,0.0,0.0
188,46.75,46.1939,52.3618,172.87,102.953,104.783,0.00400893,0.0846207,20.9763,-939.952,-0.162213,0.0,0.0
190,47.25,45.8184,52.2896,175.617,102.959,104.879,0.0040081,0.0842707,20.9766,-939.952,-0.170224,0.0,0.0
192,47.75,45.9724,51.9876,167.245,102.977,105.013,0.00400742,0.0839873,20.9768,-939.952,-0.180346,0.0,0.0
194,48.25,45.4831,51.523,177.172,102.98,104.8,0.00400687,0.0836896,20.977,-939.942,-0.161388,0.0,0.0
196,48.75,45.1613,51.0115,164.974,102.995,104.679,0.00398472,0.0834485,20.9772,-939.942,-0.149393,0.0,0.0
198,49.25,45.0626,51.682,165.736,103.006,105.421,0.00396678,0.0832396,20.9773,-939.962,-0.213444,0.0,0.0
200,49.75,45.3868,51.179,166.18,103.023,104.879,0.00395224,0.0830703,20.9773,-939.962,-0.164397,0.0,0.0
202,50.25,45.3361,51.0753,173.836,103.032,105.085,0.00392771,0.0829333,20.9774,-939.952,-0.181736,0.0,0.0
204,50.75,45.1375,51.2979,172.565,103.038,105.061,0.00390447,0.0828222,20.9774,-939.972,-0.179115,0.0,0.0
206,51.25,44.2571,50.9196,176.572,103.055,104.748,0.00388263,0.082637,20.9774,-939.982,-0.150038,0.0,0.0
208,51.75,44.5945,50.4392,173.797,103.078,104.897,0.00386494,0.0824869,20.9775,-939.972,-0.161088,0.0,0.0
210,52.25,44.9131,50.4781,169.642,103.073,104.992,0.00384679,0.082351,20.9775,-939.962,-0.169898,0.0,0.0
212,52.75,44.7957,50.478,170.199,103.086,104.882,0.00383208,0.0822281,20.9775,-939.942,-0.159128,0.0,0.0
214,53.25,44.508,50.2012,170.779,103.093,105.184,0.00380613,0.0821285,20.9778,-939.952,-0.184975,0.0,0.0
216,53.75,44.2731,50.7152,168.98,103.093,105.668,0.00378512,0.0820069,20.9782,-939.962,-0.227283,0.0,0.0
218,54.25,44.3901,50.1996,173.343,103.111,105.051,0.00375789,0.0819085,20.9785,-939.962,-0.171753,0.0,0.0
220,54.75,44.2415,49.7441,171.575,103.109,104.648,0.00373584,0.0818152,20.9788,-939.972,-0.136447,0.0,0.0
222,55.25,44.5136,50.0773,170.738,103.117,104.609,0.00371798,0.0817396,20.979,-939.982,-0.132291,0.0,0.0
224,55.75,44.3655,49.9933,168.862,103.133,105.109,0.00369459,0.0816647,20.9791,-939.962,-0.174774,0.0,0.0
226,56.25,43.8993,49.7198,173.51,103.156,105.414,0.00367564,0.0816041,20.9793,-939.962,-0.199441,0.0,0.0
228,56.75,43.9452,49.931,169.778,103.143,105.635,0.00364882,0.0815263,20.9794,-939.962,-0.219893,0.0,0.0
230,57.25,44.2459,49.4908,176.124,103.142,105.758,0.0036271,0.0814375,20.9795,-939.962,-0.230634,0.0,0.0
232,57.75,43.8869,49.5176,168.361,103.154,106.122,0.00359743,0.0813656,20.9796,-939.982,-0.261311,0.0,0.0
234,58.25,43.4409,49.2409,174.937,103.161,105.163,0.00357907,0.0812529,20.9796,-939.982,-0.177075,0.0,0.0
236,58.75,44.0996,49.1147,174.558,103.168,104.981,0.00354767,0.0811617,20.9797,-939.992,-0.160492,0.0,0.0
238,59.25,44.2987,49.7805,168.613,103.172,105.346,0.00350186,0.0810519,20.9797,-939.992,-0.192128,0.0,0.0
240,59.75,44.7037,49.5717,172.402,103.174,105.302,0.00346476,0.0809308,20.9797,-939.982,-0.187992,0.0,0.0
242,60.25,43.9701,49.8081,172.616,103.184,104.892,0.00343069,0.0808255,20.9798,-940.012,-0.151204,0.0,0.0
244,60.75,43.7876,49.2478,169.302,103.192,105.958,0.00339947,0.0807338,20.9798,-939.992,-0.243622,0.0,0.0
246,61.25,43.7063,49.3183,167.762,103.186,105.282,0.00337552,0.0806947,20.9798,-939.992,-0.185205,0.0,0.0
248,61.75,43.5375,49.5722,170.255,103.196,104.961,0.00335733,0.0806006,20.9798,-939.972,-0.156228,0.0,0.0
250,62.25,43.3602,49.1146,174.5,103.207,104.852,0.0033426,0.0805244,20.9798,-939.972,-0.145608,0.0,0.0
252,62.75,43.4493,49.0289,175.538,103.206,105.668,0.00334085,0.0804341,20.9798,-939.972,-0.217125,0.0,0.0
254,63.25,44.2519,49.2739,169.577,103.197,105.401,0.00333943,0.0803351,20.9799,-939.982,-0.194607,0.0,0.0
256,63.75,44.0332,49.3233,172.436,103.216,105.683,0.00335611,0.0802621,20.9799,-940.002,-0.217582,0.0,0.0
258,64.25,43.7525,49.3173,173.738,103.204,105.06,0.00336962,0.0802094,20.9799,-939.982,-0.164145,0.0,0.0
260,64.75,43.7355,49.4495,177.609,103.21,106.14,0.00341114,0.0801667,20.9799,-939.992,-0.257832,0.0,0.0
262,65.25,44.0351,49.1169,173.662,103.208,105.312,0.00344477,0.080105,20.9799,-940.002,-0.185887,0.0,0.0
264,65.75,43.633,49.3092,173.549,103.216,105.229,0.00350262,0.0800549,20.9801,-939.982,-0.177917,0.0,0.0
266,66.25,43.3139,49.5952,168.748,103.207,105.266,0.00354948,0.0799464,20.9805,-939.992,-0.181899,0.0,0.0
268,66.75,43.8052,49.2277,175.528,103.2,105.711,0.0036104,0.0798584,20.9806,-940.002,-0.221427,0.0,0.0
270,67.25,43.3631,49.5034,168.259,103.207,105,0.00365975,0.0798015,20.9805,-940.002,-0.158637,0.0,0.0
272,67.75,43.5636,49.224,172.296,103.21,105.058,0.0037051,0.0797683,20.9803,-939.982,-0.163435,0.0,0.0
274,68.25,44.0647,49.183,169.112,103.206,105.095,0.00374666,0.0797486,20.9803,-939.972,-0.167061,0.0,0.0
276,68.75,44.0914,49.0177,170.812,103.229,105.178,0.00378034,0.0797391,20.9802,-939.992,-0.172279,0.0,0.0
278,69.25,44.0128,49.1229,172.204,103.215,105.146,0.00381506,0.0797385,20.9801,-940.012,-0.170696,0.0,0.0
280,69.75,43.7656,49.0985,170.129,103.207,106.043,0.00384989,0.0797445,20.9802,-940.002,-0.249678,0.0,0.0
282,70.25,43.8501,49.3568,172.017,103.206,105.311,0.00387811,0.0797422,20.9803,-940.002,-0.185939,0.0,0.0
284,70.75,43.7404,49.0718,167.83,103.196,105.233,0.00390862,0.0797338,20.9804,-940.002,-0.180008,0.0,0.0
286,71.25,43.8528,48.719,171.923,103.216,105.561,0.00393334,0.0797271,20.9805,-940.022,-0.206872,0.0,0.0
288,71.75,43.599,48.8864,177.883,103.209,105.677,0.00395337,0.0797496,20.9805,-940.002,-0.217641,0.0,0.0
290,72.25,43.7442,49.2961,173.145,103.21,104.929,0.00396575,0.0797678,20.9803,-940.002,-0.152142,0.0,0.0
292,72.75,43.6685,48.9336,174.12,103.172,105.377,0.00397578,0.0797825,20.9799,-940.012,-0.194815,0.0,0.0
294,73.25,43.6478,49.2029,171.103,103.174,105.28,0.00398189,0.0797944,20.9796,-940.022,-0.186034,0.0,0.0
296,73.75,44.0118,48.9205,171.296,103.186,105.323,0.00398503,0.0798041,20.9793,-940.002,-0.188841,0.0,0.0
298,74.25,43.7532,49.2934,169.312,103.183,105.17,0.00398084,0.0798119,20.9791,-940.012,-0.17566,0.0,0.0
300,74.75,44.0315,49.5714,173.468,103.172,105.781,0.0039714,0.0798455,20.979,-940.012,-0.229996,0.0,0.0
302,75.25,43.7468,48.9763,172.653,103.171,104.961,0.00395435,0.0798727,20.9788,-939.992,-0.158446,0.0,0.0
304,75.75,43.6568,49.6022,173.249,103.182,105.116,0.00393208,0.0799018,20.9783,-940.022,-0.171074,0.0,0.0
306,76.25,43.4709,49.5444,175.946,103.161,105.337,0.00391403,0.0799319,20.9778,-940.002,-0.192335,0.0,0.0
308,76.75,43.5995,49.0988,174.58,103.16,104.878,0.00388464,0.0799563,20.9775,-940.022,-0.152074,0.0,0.0
310,77.25,43.2499,49.2296,169.473,103.146,105.653,0.00384754,0.079976,20.9772,-940.032,-0.221165,0.0,0.0
312,77.75,43.4047,49.3471,171.792,103.147,104.76,0.00381615,0.079992,20.9769,-940.042,-0.142901,0.0,0.0
314,78.25,43.9192,49.1983,174.787,103.139,105.194,0.00378951,0.0800185,20.9768,-940.032,-0.181644,0.0,0.0
316,78.75,43.5961,49.1753,170.46,103.132,105.201,0.00376793,0.0800401,20.9766,-940.022,-0.182962,0.0,0.0
318,79.25,43.9527,49.0793,169.569,103.122,105.054,0.00375683,0.0800718,20.9765,-940.052,-0.171,0.0,0.0
320,79.75,43.5796,49.1988,168.651,103.113,105.071,0.00374784,0.0801104,20.9764,-940.032,-0.173299,0.0,0.0
322,80.25,43.9848,49.4663,170.539,103.104,105.235,0.00374822,0.0801417,20.9765,-940.012,-0.188378,0.0,0.0
324,80.75,43.9051,49.1606,172.281,103.094,105.003,0.00374852,0.0801806,20.9768,-940.012,-0.168969,0.0,0.0
326,81.25,43.8912,49.0949,169.857,103.079,106.383,0.00374876,0.0802121,20.9771,-940.022,-0.290564,0.0,0.0
328,81.75,43.6957,49.202,172.144,103.072,105.384,0.00374896,0.0802592,20.9773,-940.032,-0.204321,0.0,0.0
330,82.25,44.2125,48.847,168.729,103.062,105.924,0.00374509,0.0803166,20.9775,-940.042,-0.252347,0.0,0.0
332,82.75,43.6157,49.1385,169.899,103.055,105.01,0.00373833,0.0803703,20.9776,-940.012,-0.173045,0.0,0.0
334,83.25,43.7808,48.9894,168.103,103.047,105.003,0.00373285,0.0804202,20.9778,-940.022,-0.173161,0.0,0.0
336,83.75,43.917,48.8514,172.186,103.033,105.238,0.00372037,0.0804606,20.9778,-940.002,-0.195117,0.0,0.0
338,84.25,43.7201,48.997,172.322,103.024,105.404,0.003703,0.0804934,20.9779,-940.012,-0.21031,0.0,0.0
340,84.75,43.5394,48.9502,170.953,103.013,105.384,0.00368357,0.0805199,20.978,-940.012,-0.209608,0.0,0.0
342,85.25,43.6023,49.2214,166.075,102.989,105.169,0.003663,0.0805414,20.978,-939.972,-0.19286,0.0,0.0
344,85.75,43.4997,49.381,174.191,102.981,104.706,0.00364634,0.0805588,20.9781,-939.972,-0.153015,0.0,0.0
346,86.25,43.464,48.9043,173.94,102.979,105.437,0.00362264,0.0806137,20.9781,-939.992,-0.217273,0.0,0.0
348,86.75,43.7176,48.4381,179.927,102.966,104.68,0.00360345,0.0806582,20.9781,-940.002,-0.152055,0.0,0.0
350,87.25,43.7431,49.2415,173.809,102.947,104.491,0.00358663,0.0806513,20.9777,-939.992,-0.137061,0.0,0.0
352,87.75,43.6355,48.8299,172.913,102.948,104.354,0.00357301,0.080607,20.9774,-939.992,-0.124987,0.0,0.0
354,88.25,43.6422,48.9446,172.141,102.919,104.546,0.00356835,0.0805711,20.9771,-939.952,-0.144505,0.0,0.0
356,88.75,43.6904,48.4194,166.548,102.91,104.967,0.00356457,0.0805285,20.9769,-939.952,-0.182253,0.0,0.0
358,89.25,42.7952,48.4293,171.014,102.891,105.352,0.00357936,0.0804939,20.9767,-939.962,-0.217748,0.0,0.0
360,89.75,43.1557,48.5294,168.485,102.881,104.89,0.00359133,0.0805067,20.9766,-939.972,-0.178142,0.0,0.0
362,90.25,43.2597,48.7732,170.341,102.885,104.702,0.00360104,0.0805171,20.9764,-939.972,-0.161232,0.0,0.0
364,90.75,43.1543,48.4758,173.874,102.842,104.641,0.0036343,0.0805392,20.9763,-939.992,-0.159775,0.0,0.0
366,91.25,43.2899,48.2335,172.336,102.823,104.93,0.00366124,0.080557,20.976,-939.972,-0.186801,0.0,0.0
368,91.75,43.0549,48.2702,175.818,102.805,104.903,0.00368507,0.0805306,20.9759,-939.982,-0.18606,0.0,0.0
370,92.25,42.8287,48.5635,175.103,102.789,104.944,0.0037062,0.0805093,20.9761,-940.012,-0.19111,0.0,0.0
372,92.75,43.1712,48.1433,169.136,102.774,104.925,0.00371659,0.080492,20.9764,-940.012,-0.190744,0.0,0.0
374,93.25,42.6561,47.9563,171.088,102.766,105.235,0.00371896,0.0804636,20.9766,-940.022,-0.218672,0.0,0.0
376,93.75,42.2466,48.5134,171.509,102.74,104.729,0.00370948,0.0804407,20.9767,-940.012,-0.176605,0.0,0.0
378,94.25,42.9345,48.2214,173.779,102.73,104.795,0.00369153,0.0804078,20.9769,-939.992,-0.183292,0.0,0.0
380,94.75,42.9073,48.3944,167.607,102.714,105.112,0.00367698,0.0803682,20.977,-940.012,-0.212559,0.0,0.0
382,95.25,42.8488,48.1138,172.49,102.705,105.067,0.00366521,0.0803362,20.977,-940.012,-0.209467,0.0,0.0
384,95.75,42.9604,48.3869,171.489,102.69,105.532,0.00361744,0.0802966,20.9773,-940.002,-0.251436,0.0,0.0
386,96.25,42.8005,48.3771,172.593,102.66,104.831,0.00357875,0.0802646,20.9777,-939.982,-0.192779,0.0,0.0
388,96.75,43.0908,48.145,167.929,102.639,104.565,0.00353722,0.0802522,20.9779,-939.992,-0.171179,0.0,0.0
390,97.25,42.6493,47.9499,170.984,102.627,104.638,0.00350358,0.0802422,20.9777,-940.012,-0.178752,0.0,0.0
392,97.75,43.4307,48.2058,170.756,102.599,104.85,0.00347634,0.0802341,20.9776,-940.012,-0.19997,0.0,0.0
394,98.25,43.0729,47.9373,173.466,102.582,104.763,0.00346191,0.0801596,20.9776,-940.002,-0.193761,0.0,0.0
396,98.75,43.1201,47.8097,173.764,102.566,104.216,0.00345022,0.0800991,20.9775,-940.002,-0.146953,0.0,0.0
398,99.25,43.8088,48.1146,172.338,102.558,104.331,0.0034484,0.0800502,20.9775,-940.032,-0.15784,0.0,0.0
400,99.75,43.4438,47.8263,170.068,102.565,104.644,0.00344692,0.0800106,20.9774,-940.042,-0.184871,0.0,0.0
402,100.25,42.7923,47.7881,168.806,102.577,104.803,0.00344036,0.0799785,20.9774,-940.032,-0.197696,0.0,0.0
404,100.75,43.1958,48.426,171.859,102.573,105.012,0.00343022,0.0799252,20.9774,-940.042,-0.216464,0.0,0.0
406,101.25,42.6962,48.0029,170.627,102.578,104.382,0.00341865,0.0798821,20.9773,-940.042,-0.160608,0.0,0.0
408,101.75,42.5121,47.9877,175.801,102.577,104.703,0.00340627,0.0797792,20.9773,-940.032,-0.188865,0.0,0.0
410,102.25,42.6608,48.1693,169.462,102.583,105.148,0.00339624,0.0796959,20.9773,-940.052,-0.227468,0.0,0.0
412,102.75,42.7547,48.0101,173.544,102.593,104.632,0.00338557,0.0796283,20.9775,-940.072,-0.181313,0.0,0.0
414,103.25,43.138,48.1664,173.368,102.598,104.669,0.00337693,0.0796008,20.9779,-940.042,-0.184066,0.0,0.0
416,103.75,42.7294,48.0112,176.154,102.602,105.033,0.00337757,0.0795786,20.978,-940.042,-0.215705,0.0,0.0
418,104.25,42.9426,48.0448,174.046,102.619,104.698,0.00337808,0.0795605,20.9779,-940.052,-0.184743,0.0,0.0
420,104.75,42.9416,48.4124,168.737,102.616,105.058,0.00338923,0.0795459,20.9777,-940.082,-0.216614,0.0,0.0
422,105.25,43.0048,48.0872,174.207,102.622,104.672,0.00340791,0.0795477,20.9781,-940.082,-0.182179,0.0,0.0
424,105.75,43.2613,48.0619,164.777,102.63,104.71,0.00342304,0.0795491,20.9784,-940.062,-0.184811,0.0,0.0
426,106.25,43.0891,47.9923,177.67,102.633,104.622,0.00345186,0.0795231,20.9786,-940.072,-0.1768,0.0,0.0
428,106.75,43.0308,48.0659,177.801,102.645,104.582,0.00347521,0.079502,20.9788,-940.052,-0.172245,0.0,0.0
430,107.25,42.9446,48.0543,170.725,102.656,104.698,0.00351324,0.0794706,20.9789,-940.052,-0.181445,0.0,0.0
432,107.75,43.0662,48.1838,171.376,102.651,104.861,0.00352946,0.0794323,20.979,-940.072,-0.196229,0.0,0.0
434,108.25,43.1124,47.8141,171.724,102.662,105.244,0.0035686,0.0794012,20.9791,-940.082,-0.228798,0.0,0.0
436,108.75,43.2035,48.1121,169.257,102.652,104.642,0.00361057,0.0793897,20.9792,-940.082,-0.176828,0.0,0.0
438,109.25,43.2405,48.3193,172.655,102.67,104.911,0.00365868,0.0793803,20.9792,-940.052,-0.198906,0.0,0.0
440,109.75,42.7765,48.2835,170.066,102.68,105.37,0.00371035,0.0794408,20.9793,-940.072,-0.238236,0.0,0.0
442,110.25,42.7391,48.2198,171.888,102.683,104.664,0.00376435,0.0794897,20.9794,-940.062,-0.176032,0.0,0.0
444,110.75,42.4753,47.8943,170.899,102.685,105.035,0.00381904,0.0795392,20.9794,-940.062,-0.208417,0.0,0.0
446,111.25,43.1475,48.1336,169.515,102.686,104.714,0.00386333,0.0796239,20.9794,-940.062,-0.180128,0.0,0.0
448,111.75,43.114,48.5324,175.065,102.707,105.109,0.00390258,0.0797068,20.9794,-940.062,-0.212937,0.0,0.0
450,112.25,43.1978,48.5744,172.732,102.715,105.203,0.00393739,0.0797868,20.9796,-940.062,-0.22042,0.0,0.0
452,112.75,43.2487,48.1115,170.202,102.722,104.972,0.00396559,0.0798588,20.9798,-940.092,-0.199555,0.0,0.0
454,113.25,43.0219,48.1026,171.072,102.735,105.658,0.0039731,0.0799235,20.9799,-940.072,-0.258368,0.0,0.0
456,113.75,43.3066,48.7198,170.181,102.728,104.578,0.00397918,0.079976,20.98,-940.072,-0.164374,0.0,0.0
458,114.25,43.1607,48.7017,172.734,102.731,104.419,0.00395984,0.0800117,20.9801,-940.072,-0.150108,0.0,0.0
460,114.75,43.3795,48.1027,166.126,102.735,104.931,0.00394418,0.0800345,20.9801,-940.062,-0.194815,0.0,0.0
462,115.25,43.6787,48.5192,170.444,102.749,104.42,0.00390725,0.080053,20.98,-940.072,-0.148571,0.0,0.0
464,115.75,42.9535,48.6477,169.722,102.763,105.169,0.00387733,0.0800951,20.9796,-940.062,-0.213183,0.0,0.0
466,116.25,43.2197,48.8197,171.327,102.752,104.608,0.00384162,0.0801293,20.9793,-940.062,-0.164875,0.0,0.0
468,116.75,42.9878,48.6949,172.387,102.77,105.077,0.00381269,0.080157,20.9791,-940.072,-0.2045,0.0,0.0
470,117.25,43.0963,48.2883,172.038,102.767,105.035,0.00378034,0.0801794,20.9789,-940.052,-0.201113,0.0,0.0
472,117.75,43.3261,48.726,166.623,102.779,104.502,0.00375413,0.0801703,20.9788,-940.062,-0.153092,0.0,0.0
474,118.25,43.3666,48.118,169.736,102.797,105.371,0.0037329,0.080163,20.9786,-940.052,-0.227789,0.0,0.0
476,118.75,43.0624,48.1948,175.554,102.806,104.449,0.00372385,0.0801843,20.9786,-940.062,-0.146061,0.0,0.0
478,119.25,43.2558,48.3022,168.316,102.806,104.836,0.00370233,0.0802015,20.9785,-940.042,-0.180121,0.0,0.0
480,119.75,43.2399,48.3723,176.061,102.807,104.866,0.00367947,0.0802298,20.9785,-940.022,-0.182623,0.0,0.0
482,120.25,43.0958,48.0377,170.592,102.812,104.62,0.00366833,0.0802656,20.9785,-940.012,-0.160545,0.0,0.0
484,120.75,43.348,48.5787,174.553,102.829,104.744,0.00366596,0.0802946,20.9785,-940.042,-0.169899,0.0,0.0
486,121.25,42.5426,48.2486,168.588,102.829,104.649,0.00366403,0.0802894,20.9785,-940.032,-0.161644,0.0,0.0
488,121.75,43.3833,48.5964,168.101,102.839,105.388,0.00368405,0.0802737,20.9785,-940.042,-0.225589,0.0,0.0
490,122.25,42.9057,48.2643,172.018,102.845,105.136,0.00370026,0.0802467,20.9785,-940.072,-0.202882,0.0,0.0
492,122.75,43.4386,48.2326,173.527,102.857,104.865,0.00372743,0.080189,20.9787,-940.082,-0.178103,0.0,0.0
494,123.25,43.0168,48.6058,175.444,102.856,104.806,0.00374944,0.0801101,20.9789,-940.042,-0.172972,0.0,0.0
496,123.75,42.8264,48.4784,164.245,102.872,104.943,0.00378769,0.0800462,20.9791,-940.072,-0.1836,0.0,0.0
498,124.25,43.0487,48.6271,175.201,102.869,104.627,0.00381867,0.0799726,20.9793,-940.062,-0.156039,0.0,0.0
500,124.75,43.2772,48.4226,167.864,102.875,105.398,0.00385271,0.0798933,20.9794,-940.052,-0.2232,0.0,0.0
502,125.25,43.1726,48.8734,172.153,102.896,105.188,0.00388028,0.0798155,20.9795,-940.062,-0.202948,0.0,0.0
504,125.75,42.9803,48.526,171.014,102.905,104.795,0.00390261,0.0797524,20.9796,-940.082,-0.167659,0.0,0.0
506,126.25,42.9816,48.5924,172.745,102.893,104.559,0.00390155,0.0797157,20.9797,-940.092,-0.147876,0.0,0.0
508,126.75,43.4846,48.7382,170.305,102.907,104.725,0.00390068,0.0796988,20.9798,-940.082,-0.161334,0.0,0.0
510,127.25,42.823,48.463,173.399,102.91,104.713,0.00387318,0.0796493,20.9798,-940.092,-0.159978,0.0,0.0
512,127.75,42.8979,48.323,177.282,102.914,105.102,0.00385091,0.079577,20.9798,-940.062,-0.193704,0.0,0.0
514,128.25,42.7693,48.8057,169.375,102.929,104.976,0.00380736,0.0795042,20.9799,-940.062,-0.181336,0.0,0.0
516,128.75,42.9235,48.6026,167.714,102.929,105.106,0.00377208,0.0794323,20.9799,-940.072,-0.192707,0.0,0.0
518,129.25,42.8228,48.8426,170.873,102.941,104.653,0.00372567,0.079374,20.9799,-940.052,-0.151895,0.0,0.0
520,129.75,42.8938,48.7729,173.113,102.956,104.944,0.00368807,0.0793269,20.9799,-940.062,-0.176082,0.0,0.0
522,130.25,43.4412,48.9095,171.592,102.959,105.65,0.00365359,0.0792886,20.9799,-940.062,-0.237713,0.0,0.0
524,130.75,43.1404,48.7933,178.102,102.972,104.921,0.00362204,0.0792577,20.98,-940.072,-0.172711,0.0,0.0
526,131.25,43.439,48.8497,171.061,102.97,105.451,0.00360185,0.0792326,20.98,-940.092,-0.219324,0.0,0.0
528,131.75,43.633,48.8716,166.045,102.972,105.383,0.00359033,0.0792051,20.98,-940.092,-0.213175,0.0,0.0
530,132.25,43.4385,48.9615,175.502,102.97,105.06,0.00358099,0.0791765,20.98,-940.122,-0.185098,0.0,0.0
532,132.75,43.9762,48.8865,171.431,102.982,104.929,0.00359289,0.0791389,20.98,-940.102,-0.172452,0.0,0.0
534,133.25,43.4195,48.4336,173.247,102.997,105.041,0.00362005,0.0790956,20.98,-940.102,-0.180998,0.0,0.0
536,133.75,42.9177,48.7626,174.094,103.008,105.304,0.00364204,0.079082,20.98,-940.102,-0.203041,0.0,0.0
538,134.25,43.4806,48.6543,172.073,103.008,105.292,0.00370581,0.0790903,20.98,-940.102,-0.202001,0.0,0.0
540,134.75,43.5247,48.5236,169.353,103.02,104.728,0.00375746,0.0790971,20.98,-940.082,-0.151434,0.0,0.0
542,135.25,43.2428,48.3526,170.02,103.02,104.82,0.00382229,0.0790753,20.98,-940.092,-0.159491,0.0,0.0
544,135.75,43.3892,48.8567,175.394,103.027,105.045,0.0038748,0.0790577,20.98,-940.082,-0.178598,0.0,0.0
546,136.25,43.0507,48.7875,170.354,103.027,104.85,0.0039199,0.0790434,20.98,-940.102,-0.161541,0.0,0.0
548,136.75,43.5771,48.838,171.598,103.051,105.266,0.00395642,0.0790319,20.98,-940.082,-0.19587,0.0,0.0
550,137.25,43.004,48.9037,169.696,103.06,105.084,0.00396939,0.0790225,20.9798,-940.092,-0.179198,0.0,0.0
552,137.75,42.7839,48.8113,169.724,103.056,105.109,0.0039799,0.0789741,20.9794,-940.092,-0.181645,0.0,0.0
554,138.25,43.1402,49.3198,174.888,103.063,105.026,0.00396543,0.078935,20.9793,-940.082,-0.173789,0.0,0.0
556,138.75,42.8423,48.7896,169.654,103.073,104.941,0.00395371,0.0789304,20.9794,-940.072,-0.165382,0.0,0.0
558,139.25,43.4593,48.3816,172.43,103.078,105.329,0.00393749,0.0789267,20.9795,-940.082,-0.198921,0.0,0.0
560,139.75,43.0569,48.8069,174.083,103.095,105.048,,0.0789509,,-940.112,-0.172914,0.0,0.0
562,140.25,43.1586,48.6226,176.641,103.084,105.252,,0.0789706,,-940.112,-0.191694,0.0,0.0
564,140.75,43.0301,49.264,172.354,103.101,105.31,,0.0790136,,-940.122,-0.195325,0.0,0.0
566,141.25,43.3671,48.6212,176.334,103.11,105.581,,0.0790485,,-940.092,-0.218067,0.0,0.0
568,141.75,43.3278,48.8636,170.212,103.117,105.019,,0.0790482,,-940.082,-0.168272,0.0,0.0
570,142.25,43.3554,48.7535,169.11,103.124,105.417,,0.0790221,,-940.082,-0.202537,0.0,0.0
572,142.75,43.467,49.0093,169.061,103.133,104.746,,,,-940.082,-0.142872,0.0,0.0
574,143.25,42.9776,48.6806,168.006,103.124,105.346,,,,-940.102,-0.196392,0.0,0.0
576,143.75,42.893,48.8891,170.24,103.136,104.832,,,,-940.092,-0.150244,0.0,0.0
578,144.25,42.987,48.6575,165.866,103.153,104.842,,,,-940.092,-0.149559,0.0,0.0
580,144.75,43.0718,48.4425,173.801,103.15,105.133,,,,-940.122,-0.175326,0.0,0.0
582,145.25,43.597,48.8536,180.039,103.163,105.169,,,,-940.122,-0.177342,0.0,0.0
584,145.75,43.028,48.6149,174.322,103.158,105.088,,,,-940.122,-0.170723,0.0,0.0
586,146.25,43.5123,48.7041,174.779,103.176,104.798,,,,-940.122,-0.143686,0.0,0.0
588,146.75,43.3299,48.7085,174.285,103.179,105.583,,,,-940.112,-0.212137,0.0,0.0
590,147.25,43.4368,48.8133,170.38,103.175,105.309,,,,-940.112,-0.18851,0.0,0.0
592,147.75,43.4247,48.5976,168.786,103.199,105.709,,,,-940.112,-0.221277,0.0,0.0
594,148.25,42.8514,48.5578,172.248,103.161,105.047,,,,-940.102,-0.16689,0.0,0.0
596,148.75,43.0723,48.8104,168.964,103.199,105.026,,,,-940.112,-0.161676,0.0,0.0
598,149.25,43.0921,48.9915,170.147,103.213,104.792,,,,-940.122,-0.139855,0.0,0.0
600,149.75,43.2018,48.5088,166.694,103.211,105.122,,,,-940.132,-0.168936,0.0,0.0
602,150.25,43.152,48.5317,173.642,103.226,105.453,,,,-940.112,-0.19651,0.0,0.0