File: 01_Data/Scott_HT_SCBA/Cone/Scott_HT_SCBA_Cone_HF75-Frame+GridScan_201103_R1.csv
Names,Time,Stack TC,Smoke TC,Exh Press,Smoke Comp,Smoke Meas,CO Meter,CO2 Meter,O2 Meter,Sample Mass,Ext Coeff,Start Test,Flame Verif
Chan Gain,,500,500,1,1,1,1,1,1,1,1,1.0,1.0
Offset,,0,0,0.134413,0,0,0,0,0,0,0,0.0,0.0
Gain,,1,1,25.011,13.8462,17.0661,1,1,1,1.0009,1.04998,1.0,1.0
Units,sec,C,C,Pa,%,%,%,%,%,g,/m,,
Baseline,,30.9925,34.7518,179.832,102.054,103.85,0.00369947,0.0650862,20.9971,-937.438,-0.160654,,
2,0.25,31.2171,35.0742,184.226,101.943,103.458,0.00370646,0.072346,20.9908,41.0268,-0.135884,0.0,0.0
4,0.75,30.9022,34.2421,179.701,101.936,103.265,0.0037399,0.0736463,20.9894,40.9567,-0.119268,0.0,0.0
6,1.25,30.7779,34.5918,180.575,101.917,103.554,0.00376698,0.0746996,20.9882,41.0167,-0.146732,0.0,0.0
8,1.75,31.0588,34.4002,177.143,101.907,103.507,0.00381445,0.0759882,20.9873,40.9767,-0.143525,0.0,0.0
10,2.25,30.4326,34.2816,176.441,101.874,104.769,0.00385291,0.0770319,20.9866,40.9967,-0.258079,0.0,0.0
12,2.75,31.11,34.9421,178.545,101.864,103.276,0.00389556,0.078136,20.986,40.9567,-0.126775,0.0,0.0
14,3.25,31.0914,34.4141,175.071,101.835,103.43,0.0039301,0.0790303,20.9852,40.9667,-0.143158,0.0,0.0
16,3.75,31.2556,34.6277,177.115,101.832,103.805,0.00395808,0.079805,20.9845,40.9667,-0.176797,0.0,0.0
18,4.25,30.9492,34.3238,182.713,101.81,102.882,0.00398713,0.0804776,20.9841,40.9767,-0.0965321,0.0,0.0
20,4.75,31.2581,34.6826,181.194,101.788,104.507,0.00401067,0.0810224,20.984,40.9667,-0.242816,0.0,0.0
22,5.25,31.187,34.6042,176.35,101.76,103.318,0.00403995,0.0812593,20.9839,40.9467,-0.139902,0.0,0.0
24,5.75,31.3042,34.733,177.75,101.741,103.585,0.00406367,0.0814513,20.9839,40.9267,-0.165495,0.0,0.0
26,6.25,30.751,34.6817,176.896,101.715,103.572,0.00408558,0.0816068,20.9839,40.9367,-0.166586,0.0,0.0
28,6.75,30.8132,34.9533,178.119,101.719,103.543,0.00410575,0.0813788,20.9843,40.9267,-0.163649,0.0,0.0
30,7.25,30.9215,34.3153,182.483,101.704,103.158,0.00411199,0.0811942,20.9846,40.9367,-0.130733,0.0,0.0
32,7.75,31.3444,34.5531,180.526,101.672,103.401,0.00410797,0.0808814,20.9848,40.9367,-0.155325,0.0,0.0
34,8.25,31.2973,34.6319,175.682,101.651,103.137,0.00410471,0.080628,20.9851,40.9267,-0.133734,0.0,0.0
36,8.75,31.0781,34.9672,173.243,101.637,103.512,0.00407854,0.080246,20.9852,40.9167,-0.168424,0.0,0.0
38,9.25,31.2259,34.7748,180.007,101.609,102.88,0.00403618,0.0799366,20.9858,40.9267,-0.114483,0.0,0.0
40,9.75,31.5573,34.8522,176.693,101.585,103.411,0.00398574,0.0795285,20.9863,40.9167,-0.164141,0.0,0.0
42,10.25,30.8899,34.7888,177.197,101.566,103.333,0.00393039,0.0790564,20.9871,40.8966,-0.158858,0.0,0.0
44,10.75,30.9613,34.9228,178.814,101.562,103.203,0.0038775,0.078674,20.9878,40.8766,-0.14759,0.0,0.0
46,11.25,31.3434,34.7913,177.11,101.51,103.815,0.00382741,0.078207,20.9883,40.9267,-0.206797,0.0,0.0
48,11.75,31.3173,34.8675,180.507,101.502,103.418,0.00378617,0.0776872,20.9887,40.9367,-0.172294,0.0,0.0
50,12.25,31.1457,34.9564,179.436,101.47,104.296,0.00375216,0.0772661,20.9891,40.9367,-0.252998,0.0,0.0
52,12.75,31.13,35.1163,176.797,101.447,103.255,0.00372595,0.0769251,20.9894,40.9367,-0.162704,0.0,0.0
54,13.25,31.1691,34.4513,180.593,101.434,103.367,0.00370593,0.0766488,20.9892,40.9267,-0.173846,0.0,0.0
56,13.75,31.3785,34.6017,176.072,101.414,103.543,0.00368703,0.0766152,20.989,40.9267,-0.191353,0.0,0.0
58,14.25,30.5977,34.3677,181.117,101.383,103.298,0.00366931,0.0765879,20.9884,40.9367,-0.172354,0.0,0.0
60,14.75,30.7726,34.4549,178.53,101.362,103.078,0.00365495,0.0769463,20.988,40.9367,-0.154656,0.0,0.0
62,15.25,31.2493,34.4085,178.008,101.342,103.023,0.0036279,0.0772366,20.9876,40.9267,-0.151527,0.0,0.0
64,15.75,31.2471,34.6592,180.099,101.337,102.94,0.0035921,0.0779615,20.9864,40.9267,-0.144496,0.0,0.0
66,16.25,31.1112,35.0417,177.718,101.302,102.97,0.00355171,0.0785486,20.9855,40.8766,-0.150426,0.0,0.0
68,16.75,31.4712,34.5281,186.086,101.275,102.806,0.00350875,0.0792692,20.9847,40.8766,-0.138206,0.0,0.0
70,17.25,30.995,34.3034,181.993,101.242,103.489,0.00347395,0.0798529,20.9841,40.8966,-0.202173,0.0,0.0
72,17.75,31.1817,35.4441,176.41,101.216,103.158,0.0034483,0.0804074,20.9835,40.8966,-0.174991,0.0,0.0
74,18.25,30.9115,35.3368,178.252,101.202,102.984,0.00342753,0.0808566,20.9831,40.9267,-0.160839,0.0,0.0
76,18.75,31.0361,35.0057,183.16,101.166,102.708,0.00342478,0.0811559,20.9828,40.9066,-0.139342,0.0,0.0
78,19.25,30.8995,34.7364,174.693,101.131,102.761,0.00343522,0.0813403,20.983,40.9066,-0.147268,0.0,0.0
80,19.75,31.2027,35.0929,176.236,101.105,103.014,0.00344368,0.0814896,20.9831,40.9167,-0.17222,0.0,0.0
82,20.25,31.1036,35.2096,179.243,101.098,103.343,0.00347346,0.0814472,20.9832,40.8966,-0.202296,0.0,0.0
84,20.75,31.2962,34.8489,175.291,101.062,102.674,0.00349759,0.0814129,20.9833,40.9167,-0.145782,0.0,0.0
86,21.25,31.2953,34.9498,177.066,101.057,102.803,0.00352351,0.0813851,20.9838,40.9066,-0.157777,0.0,0.0
88,21.75,31.2836,35.399,179.566,101.011,103.123,0.0035445,0.0811312,20.9842,40.9066,-0.190619,0.0,0.0
90,22.25,31.3392,34.8605,175.847,100.982,102.817,0.00356084,0.0809256,20.9846,40.8766,-0.165848,0.0,0.0
92,22.75,31.4815,35.8448,175.947,100.973,102.41,0.00357346,0.0804326,20.9848,40.8866,-0.130186,0.0,0.0
94,23.25,31.5082,35.7339,178.959,100.94,102.102,0.00358503,0.0800334,20.985,40.8666,-0.105391,0.0,0.0
96,23.75,31.9376,35.1431,177.631,100.912,103.308,0.00359561,0.0793567,20.9857,40.8866,-0.216147,0.0,0.0
98,24.25,31.4757,35.4692,177.551,100.89,102.995,0.00360485,0.0788085,20.9862,40.8966,-0.190242,0.0,0.0
100,24.75,31.1098,35.5132,176.655,100.872,102.457,0.00361294,0.0780115,20.9866,40.8966,-0.143664,0.0,0.0
102,25.25,31.0618,35.5506,180.539,100.837,102.26,0.00362083,0.0773659,20.9869,40.9066,-0.129067,0.0,0.0
104,25.75,31.4929,35.6778,173.075,100.811,102.317,0.00362484,0.0767859,20.987,40.8866,-0.136533,0.0,0.0
106,26.25,31.8924,35.4945,182.812,100.783,103.234,0.00363459,0.0762646,20.9878,40.8866,-0.221313,0.0,0.0
108,26.75,31.7618,35.2969,180.012,100.745,102.069,0.00363722,0.0758781,20.9881,40.8666,-0.120299,0.0,0.0
110,27.25,31.4574,35.1638,184.03,100.733,102.304,0.00364238,0.0755972,20.9886,40.8466,-0.142591,0.0,0.0
112,27.75,31.4167,35.4418,177.729,100.723,102.557,0.00364716,0.0754339,20.9892,40.8566,-0.166193,0.0,0.0
114,28.25,32.2526,35.6876,177.964,100.698,102.547,0.00365104,0.0753595,20.9897,40.8566,-0.167546,0.0,0.0
116,28.75,31.6285,35.5187,180.354,100.681,102.459,0.00366055,0.0753278,20.9899,40.8666,-0.161183,0.0,0.0
118,29.25,31.479,35.5146,184.097,100.651,102.618,0.00366826,0.0752505,20.9898,40.8766,-0.178243,0.0,0.0
120,29.75,31.3837,35.4944,177.255,100.62,101.552,0.0036745,0.0753011,20.9898,40.8766,-0.0849076,0.0,0.0
122,30.25,31.0004,36.0639,178.027,100.61,101.421,0.00369487,0.0753877,20.9897,40.8766,-0.0739807,0.0,0.0
124,30.75,31.7741,35.0894,176.535,100.572,101.181,0.00371203,0.0754722,20.9897,40.8666,-0.0555943,0.0,0.0
126,31.25,31.5069,35.5442,177.388,100.573,101.248,0.00372654,0.0755534,20.9897,40.8566,-0.0616302,0.0,0.0
128,31.75,31.6947,35.8749,181.915,100.536,101.27,0.00373829,0.0756193,20.9897,40.8566,-0.0669877,0.0,0.0
130,32.25,32.0049,35.5633,178.315,100.523,101.452,0.00374909,0.0756368,20.9897,40.8466,-0.0847431,0.0,0.0
132,32.75,31.2506,35.5328,178.679,100.511,100.854,0.00375783,0.0756189,20.9896,40.8666,-0.0314246,0.0,0.0
134,33.25,32.1338,35.3132,186.595,100.488,100.91,0.0037713,0.0756044,20.9896,40.8566,-0.0386034,0.0,0.0
136,33.75,31.503,35.3577,177.235,100.471,100.838,0.0037822,0.0754026,20.9896,40.8566,-0.0335814,0.0,0.0
138,34.25,31.6818,35.2965,179.976,100.454,100.661,0.00380111,0.0752392,20.9896,40.8466,-0.0189907,0.0,0.0
140,34.75,31.7569,35.2892,184.125,100.442,100.556,0.0038255,0.0750118,20.9896,40.8466,-0.0104525,0.0,0.0
142,35.25,31.4602,35.2358,178.258,100.418,99.7996,0.0038661,0.0748276,20.9896,40.8466,0.0568754,0.0,0.0
144,35.75,31.6789,35.6122,179.461,100.401,99.9433,0.00391774,0.0754725,20.9874,40.8366,0.0421072,0.0,0.0
146,36.25,31.5442,35.6113,176.763,100.388,99.9116,0.00395957,0.0767095,20.9856,40.8066,0.0438328,0.0,0.0
148,36.75,31.5463,35.8332,177.651,100.367,99.9464,0.00404532,0.079597,20.9812,40.8066,0.0386396,0.0,0.0
150,37.25,31.6821,35.4854,177.281,100.361,100.421,0.00416145,0.083633,20.975,40.7965,-0.00548432,0.0,1.0
152,37.75,31.3724,35.6042,181.632,100.335,99.5647,0.00433052,0.0894775,20.9699,40.7765,0.0709793,0.0,1.0
154,38.25,31.64,35.4943,171.642,100.323,98.0033,0.00453497,0.0965293,20.9597,40.7565,0.21544,0.0,1.0
156,38.75,31.824,36.2497,168.316,100.303,95.1955,0.00470057,0.102241,20.9514,40.7265,0.481341,0.0,1.0
158,39.25,31.9308,36.0816,176.788,100.297,95.0429,0.005032,0.112959,20.9408,40.7065,0.495614,0.0,1.0
160,39.75,32.264,36.3903,172.062,100.277,91.7722,0.00530046,0.12164,20.9287,40.7265,0.816331,0.0,1.0
162,40.25,32.9445,37.4752,173.912,100.283,88.9697,0.0057227,0.131975,20.9139,41.1268,1.10248,0.0,1.0
164,40.75,33.0702,37.9945,172.994,100.258,86.8088,0.00606471,0.14332,20.8973,39.9458,1.32669,0.0,1.0
166,41.25,32.6837,37.6619,171.218,100.247,81.8829,0.0065842,0.152509,20.8788,40.7565,1.86366,0.0,1.0
168,41.75,33.4483,38.9687,169.775,100.215,80.1392,0.00700499,0.165738,20.8593,40.6564,2.05896,0.0,1.0
170,42.25,33.6685,39.0789,167.392,100.215,79.5471,0.00747977,0.176454,20.8435,40.5764,2.12735,0.0,0.0
172,42.75,34.0188,39.5073,169.112,100.193,75.7045,0.00798487,0.190944,20.8225,40.6664,2.58131,0.0,0.0
174,43.25,33.9239,39.6746,168.42,100.193,76.468,0.00839401,0.202681,20.8054,40.5163,2.48885,0.0,0.0
176,43.75,34.4004,40.8594,173.908,100.187,73.8962,0.00877864,0.215059,20.7981,40.5363,2.80344,0.0,0.0
178,44.25,35.1009,41.6919,168.897,100.177,73.3144,0.00943634,0.227669,20.7778,40.4562,2.8753,0.0,0.0
180,44.75,35.9838,42.0167,163.194,100.165,68.4979,0.0101299,0.241098,20.7614,40.4462,3.50006,0.0,0.0
182,45.25,35.8935,43.0298,171.773,100.17,69.3047,0.0108363,0.254869,20.7393,40.3762,3.39272,0.0,0.0
184,45.75,35.9557,43.4926,161.903,100.151,68.6625,0.0115663,0.266023,20.7215,40.3461,3.47667,0.0,0.0
186,46.25,37.0174,44.8606,162.676,100.149,64.5809,0.0122995,0.282457,20.6979,40.2561,4.04102,0.0,0.0
188,46.75,37.0633,44.3042,171.736,100.144,65.822,0.0128934,0.289463,20.6788,40.226,3.86523,0.0,0.0
190,47.25,37.1338,45.3361,166.849,100.14,64.485,0.0135637,0.305366,20.6626,40.166,4.05384,0.0,0.0
192,47.75,37.6096,46.3834,162.741,100.133,62.1195,0.0141067,0.321778,20.6489,40.166,4.39744,0.0,0.0
194,48.25,38.9152,47.0246,173.086,100.135,66.2438,0.0145275,0.337568,20.6377,40.0959,3.80557,0.0,0.0
196,48.75,39.0966,48.6556,157.016,100.13,57.4962,0.0148684,0.352604,20.6287,40.0159,5.10944,0.0,0.0
198,49.25,40.0203,49.2589,164.787,100.137,53.3239,0.0151445,0.361785,20.6214,39.7456,5.80399,0.0,0.0
200,49.75,40.3894,49.2749,161.166,100.132,57.5675,0.015039,0.366522,20.6155,40.146,5.09825,0.0,0.0
202,50.25,40.8249,50.2037,157.666,100.135,63.0991,0.0149535,0.37036,20.6107,-551.344,4.25344,0.0,0.0
204,50.75,41.518,50.8934,175.302,100.13,89.7624,0.0148843,0.356384,20.6069,-759.28,1.00677,0.0,0.0
206,51.25,41.1128,51.0216,179.446,100.135,98.4454,0.0144491,0.345064,20.6037,-937.49,0.156697,0.0,0.0
208,51.75,40.9396,50.3275,187.727,100.13,95.6898,0.0137552,0.327486,20.6253,-937.47,0.417722,0.0,0.0
210,52.25,40.893,49.662,180.078,100.138,96.5101,0.013003,0.30568,20.6427,-937.14,0.339881,0.0,0.0
212,52.75,40.2327,49.3535,182.964,100.135,98.2366,0.0122225,0.288017,20.6743,-937.2,0.176297,0.0,0.0
214,53.25,39.6689,48.6042,178.684,100.161,100.121,0.0115903,0.27371,20.6999,-937.53,0.00371147,0.0,0.0
216,53.75,39.4313,47.657,184.285,100.141,100.757,0.0107863,0.255075,20.7355,-937.57,-0.0564692,0.0,0.0
218,54.25,38.9693,46.8705,182.419,100.151,100.566,0.0100294,0.233639,20.7642,-937.55,-0.0380477,0.0,0.0
220,54.75,38.5709,46.1602,179.578,100.16,101.437,0.00965669,0.213804,20.7765,-937.55,-0.116681,0.0,0.0
222,55.25,37.7784,45.962,181.452,100.163,100.585,0.00901931,0.195513,20.8067,-937.5,-0.0387241,0.0,0.0
224,55.75,37.7471,44.6939,179.436,100.17,101.315,0.00835476,0.180696,20.8311,-937.51,-0.104637,0.0,0.0
226,56.25,37.0574,44.415,178.116,100.179,102.46,0.00781648,0.16661,20.8539,-937.81,-0.207399,0.0,0.0
228,56.75,36.8366,44.3447,181.57,100.194,101.081,0.00729434,0.1552,20.8724,-937.59,-0.0811778,0.0,0.0
230,57.25,36.9181,43.351,178.642,100.212,101.373,0.0068714,0.144693,20.8891,-937.57,-0.106179,0.0,0.0
232,57.75,36.4854,42.3501,183.405,100.22,101.777,0.00652883,0.140214,20.9027,-937.55,-0.141993,0.0,0.0
234,58.25,35.747,42.1769,180.221,100.235,101.497,0.00619745,0.132078,20.9141,-937.54,-0.115298,0.0,0.0
236,58.75,35.7575,41.8781,185.699,100.25,101.539,0.00592903,0.125059,20.9238,-937.54,-0.117594,0.0,0.0
238,59.25,35.0418,41.2213,176.965,100.279,101.733,0.00568868,0.118977,20.9316,-937.54,-0.132598,0.0,0.0
240,59.75,35.0637,40.2646,181.779,100.289,102.178,0.00547336,0.113695,20.9397,-937.53,-0.171855,0.0,0.0
242,60.25,34.9079,40.7998,179.814,100.305,102.357,0.00529895,0.109416,20.9462,-937.54,-0.186508,0.0,0.0
244,60.75,34.7908,40.3935,177.501,100.317,102.483,0.00507963,0.105049,20.952,-937.56,-0.196764,0.0,0.0
246,61.25,34.8379,40.4013,180.814,100.355,101.447,0.00490198,0.101511,20.9571,-937.57,-0.0996532,0.0,0.0
248,61.75,34.1548,40.3571,178.575,100.373,101.83,0.00470826,0.098323,20.9614,-937.57,-0.132752,0.0,0.0
250,62.25,33.9295,39.9207,174.637,100.383,101.784,0.00455136,0.0954499,20.9652,-937.58,-0.127723,0.0,0.0
252,62.75,34.3087,39.4695,176.596,100.397,101.903,0.00439109,0.0931227,20.9686,-937.57,-0.137144,0.0,0.0
254,63.25,34.2225,39.6514,177.898,100.424,102.003,0.00426127,0.0905843,20.9719,-937.58,-0.143735,0.0,0.0
256,63.75,33.7413,39.2151,175.136,100.437,102.318,0.00413826,0.0885282,20.9749,-937.57,-0.170942,0.0,0.0
258,64.25,34.2496,39.2116,176.109,100.48,102.069,0.00403863,0.0864276,20.9774,-937.54,-0.144506,0.0,0.0
260,64.75,33.6078,39.1368,178.162,100.49,101.761,0.00395524,0.0847262,20.9794,-937.54,-0.115806,0.0,0.0
262,65.25,33.746,38.8129,183.093,100.52,101.872,0.00388528,0.0830085,20.9819,-937.53,-0.123131,0.0,0.0
264,65.75,33.7354,38.6474,173.641,100.541,102.405,0.0038313,0.0816171,20.9839,-937.53,-0.169241,0.0,0.0
266,66.25,33.37,38.4207,169.457,100.565,102.213,0.00378999,0.0802322,20.9856,-937.53,-0.149648,0.0,0.0
268,66.75,32.7925,38.3531,175.974,100.621,102.416,0.00375119,0.0791104,20.9877,-937.55,-0.162864,0.0,0.0
270,67.25,33.526,38.1104,182.032,100.623,102.159,0.00374215,0.0779033,20.9884,-937.57,-0.139512,0.0,0.0
272,67.75,33.7496,37.9519,175.651,100.648,102.3,0.00372872,0.0769256,20.9896,-937.57,-0.149946,0.0,0.0
274,68.25,33.5156,37.9842,177.154,100.681,102.935,0.00371965,0.0761336,20.9906,-937.57,-0.203922,0.0,0.0
276,68.75,33.361,37.9332,182.023,100.713,102.404,0.00371163,0.0752209,20.9914,-937.56,-0.153359,0.0,0.0
278,69.25,33.0928,38.13,179.201,100.732,102.534,0.00370453,0.0744817,20.9925,-937.56,-0.163323,0.0,0.0
280,69.75,33.0425,37.8876,180.065,100.757,103.165,0.00369878,0.0732798,20.9934,-937.58,-0.217572,0.0,0.0
282,70.25,33.0151,37.8409,176.584,100.786,102.016,0.0036853,0.0729564,20.9941,-937.57,-0.111672,0.0,0.0
284,70.75,32.9806,37.2993,180.346,100.813,102.519,0.00367439,0.0722817,20.9951,-937.57,-0.15456,0.0,0.0
286,71.25,32.7791,36.955,184.139,100.83,103.205,0.00366555,0.0717351,20.9959,-937.56,-0.214387,0.0,0.0
288,71.75,32.731,37.2686,177.262,100.886,102.623,0.00365235,0.0712111,20.9967,-937.55,-0.157314,0.0,0.0
290,72.25,32.7498,37.3097,175.667,100.907,103.04,0.00363622,0.0707867,20.9973,-937.55,-0.192658,0.0,0.0
292,72.75,32.5171,36.7748,175.288,100.931,103.002,0.00361424,0.0703482,20.9979,-937.56,-0.187068,0.0,0.0
294,73.25,32.6499,36.6384,175.017,100.961,102.348,0.00359643,0.069993,20.9984,-937.56,-0.125689,0.0,0.0
296,73.75,32.5511,36.6639,182.674,100.99,102.881,0.00358201,0.0697052,20.9987,-937.55,-0.170899,0.0,0.0
298,74.25,32.4004,36.4166,178.212,101.027,102.646,0.00357251,0.0693375,20.9989,-937.56,-0.146456,0.0,0.0
300,74.75,32.0862,36.4262,178.826,101.051,102.49,0.00355626,0.0690396,20.9993,-937.56,-0.130183,0.0,0.0
302,75.25,32.177,36.7348,182.426,101.086,102.919,0.00353706,0.0687627,20.9996,-937.57,-0.165558,0.0,0.0
304,75.75,32.2256,36.7877,181.28,101.109,102.378,0.00351609,0.0685064,20.9999,-937.59,-0.114925,0.0,0.0
306,76.25,32.153,36.454,176.812,101.134,102.563,0.00349909,0.0682987,21.0001,-937.59,-0.129273,0.0,0.0
308,76.75,32.2496,36.4517,177.425,101.174,102.54,0.0034675,0.068095,21.0003,-937.58,-0.123521,0.0,0.0
310,77.25,32.4867,35.9768,181.174,101.189,103.064,0.00344191,0.0679912,21.0004,-937.59,-0.169078,0.0,0.0
312,77.75,32.0057,36.4157,179.089,101.249,103.088,0.0034161,0.0678138,21.0008,-937.59,-0.165798,0.0,0.0
314,78.25,31.3869,35.9059,180.691,101.247,102.818,0.00339518,0.0676431,21.0012,-937.58,-0.141769,0.0,0.0
316,78.75,31.5296,35.7365,175.51,101.289,102.767,0.00337824,0.0675048,21.0016,-937.58,-0.133391,0.0,0.0
318,79.25,31.8447,35.6652,181.667,101.307,103.047,0.00338107,0.0673657,21.002,-937.57,-0.156818,0.0,0.0
320,79.75,32.0629,35.7243,178.957,101.344,103.136,0.00338337,0.067253,21.0022,-937.56,-0.161441,0.0,0.0
322,80.25,32.6467,36.0736,176.162,101.368,103.17,0.00339589,0.0671347,21.0024,-937.55,-0.162305,0.0,0.0
324,80.75,31.9327,35.5338,180.315,101.389,104.112,0.00341564,0.0670389,21.0026,-937.56,-0.244161,0.0,0.0
326,81.25,32.0101,36.1922,181.327,101.415,103.437,0.00343432,0.0669256,21.0027,-937.55,-0.181912,0.0,0.0
328,81.75,32.554,35.9642,177.132,101.439,103.469,0.00345187,0.0668019,21.0023,-937.55,-0.182507,0.0,0.0
330,82.25,31.5846,35.4237,178.98,101.446,103.005,0.00346139,0.0667017,21.0019,-937.54,-0.140463,0.0,0.0
332,82.75,31.5716,35.3531,179.386,101.494,103.499,0.00346487,0.0666418,21.0015,-937.55,-0.180209,0.0,0.0
334,83.25,32.1426,35.6799,180.094,101.508,103.517,0.0034677,0.0666126,21.0013,-937.55,-0.180528,0.0,0.0
336,83.75,32.2498,35.6657,173.261,101.541,103.622,0.0034547,0.0665743,21.0011,-937.54,-0.186856,0.0,0.0
338,84.25,32.0329,35.5244,174.103,101.56,102.847,0.00344417,0.0665302,21.0009,-937.54,-0.116027,0.0,0.0
340,84.75,32.174,35.4992,180.699,101.595,102.984,0.00342927,0.0664945,21.001,-937.56,-0.125106,0.0,0.0
342,85.25,31.4948,35.0839,180.618,101.599,103.261,0.00341721,0.0663979,21.0013,-937.56,-0.149469,0.0,0.0
344,85.75,32.313,35.2831,177.433,101.628,102.782,0.00340744,0.0663197,21.0015,-937.55,-0.103989,0.0,0.0
346,86.25,30.9377,34.4727,183.149,101.642,103.537,0.00340589,0.0662699,21.0017,-937.55,-0.170151,0.0,0.0
348,86.75,31.3016,34.8625,178.48,101.673,103.17,0.00340463,0.0662295,21.0018,-937.55,-0.134589,0.0,0.0
350,87.25,31.897,35.0268,172.757,101.683,103.407,0.00341381,0.0661562,21.002,-937.55,-0.154848,0.0,0.0
352,87.75,31.6377,35.2484,178.408,101.711,102.902,0.00342124,0.0660969,21.0021,-937.56,-0.107253,0.0,0.0
354,88.25,31.565,35.1877,178.828,101.718,103.679,0.00344127,0.0660274,21.0021,-937.56,-0.175847,0.0,0.0
356,88.75,31.8743,35.061,175.55,101.74,103.974,0.00345749,0.065952,21.0022,-937.56,-0.2001,0.0,0.0
358,89.25,31.6102,34.7363,181.913,101.754,103.362,0.00348721,0.0658909,21.0023,-937.57,-0.144421,0.0,0.0
360,89.75,31.8681,35.1909,175.285,101.789,102.983,0.00351127,0.065882,21.0023,-937.57,-0.107437,0.0,0.0
362,90.25,31.4143,34.9493,175.045,101.805,102.964,0.00354607,0.0658747,21.0023,-937.57,-0.10427,0.0,0.0
364,90.75,31.4879,34.9179,174.855,101.8,103.639,0.00357425,0.0659094,21.0024,-937.58,-0.16491,0.0,0.0
366,91.25,31.946,34.8965,178.127,101.819,103.64,0.00360312,0.0659375,21.0024,-937.57,-0.163244,0.0,0.0
368,91.75,31.1882,34.7868,176.934,101.842,103.097,0.00363194,0.0660009,21.0024,-937.57,-0.112863,0.0,0.0
370,92.25,31.496,35.1225,178.828,101.865,103.031,0.00365529,0.0660522,21.0024,-937.57,-0.104805,0.0,0.0
372,92.75,31.3693,35.2354,177.189,101.878,103.277,0.0036742,0.0661073,21.0024,-937.56,-0.125654,0.0,0.0
374,93.25,31.6834,35.0697,178.111,101.898,103.686,0.00368187,0.0661519,21.0024,-937.55,-0.160247,0.0,0.0
376,93.75,31.6207,35.2641,180.685,101.911,103.479,0.0036827,0.0662094,21.0024,-937.55,-0.140678,0.0,0.0
378,94.25,31.2875,34.9622,177.216,101.92,103.688,0.00367855,0.0662752,21.002,-937.54,-0.15837,0.0,0.0
380,94.75,31.5091,35.183,180.654,101.93,103.923,0.00367519,0.0663285,21.0017,-937.55,-0.178379,0.0,0.0
382,95.25,31.884,35.0515,177.772,101.944,103.151,0.00365844,0.0663716,21.0014,-937.55,-0.108403,0.0,0.0
384,95.75,31.5577,34.9611,179.727,101.955,104.161,0.00363816,0.0664066,21.0012,-937.54,-0.197113,0.0,0.0
386,96.25,31.8027,35.0241,181.501,101.967,104.086,0.00361571,0.0664349,21.001,-937.54,-0.189411,0.0,0.0
388,96.75,31.7617,35.0104,175.244,101.98,103.614,0.00359751,0.0664985,21.0008,-937.53,-0.14637,0.0,0.0
390,97.25,31.6566,35.188,180.243,101.982,104.667,0.00358278,0.0665499,21.0007,-937.54,-0.239402,0.0,0.0
392,97.75,31.3873,35.3531,174.576,101.999,103.68,0.00354155,0.0665781,21.0008,-937.54,-0.150569,0.0,0.0
394,98.25,31.4966,34.7191,180.487,102.004,103.893,0.00350815,0.0666009,21.001,-937.56,-0.169061,0.0,0.0
396,98.75,31.4388,34.6975,176.835,102.023,103.731,0.00346455,0.0666058,21.0012,-937.53,-0.152851,0.0,0.0
398,99.25,31.5555,34.7615,181.908,102.042,103.574,0.00342924,0.0666098,21.0018,-937.53,-0.13728,0.0,0.0
400,99.75,31.1958,34.9742,175.765,102.047,103.97,0.00340063,0.066613,21.0023,-937.56,-0.171916,0.0,0.0
402,100.25,31.3812,34.9916,176.428,102.046,103.834,0.00337491,0.0665751,21.0027,-937.56,-0.159981,0.0,0.0
404,100.75,31.3126,34.5746,172.901,102.045,103.529,0.00335409,0.0665444,21.003,-937.57,-0.132991,0.0,0.0
406,101.25,31.0526,34.9453,179.495,102.069,103.931,0.00334056,0.0665266,21.0032,-937.58,-0.166518,0.0,0.0
408,101.75,30.879,34.7752,178.483,102.067,103.662,0.00333262,0.0665186,21.0034,-937.59,-0.142901,0.0,0.0
410,102.25,31.1895,34.7122,181.026,102.082,103.557,0.00332619,0.0665121,21.0036,-937.59,-0.132091,0.0,0.0
412,102.75,31.5102,34.7896,176.476,102.082,103.585,0.0033248,0.0664257,21.0037,-937.59,-0.134638,0.0,0.0
414,103.25,31.376,35.3377,175.271,102.081,103.696,0.00332368,0.0663557,21.0039,-937.59,-0.144612,0.0,0.0
416,103.75,30.6842,34.7697,181.183,102.086,104.124,0.00332404,0.0663133,21.0039,-937.57,-0.182055,0.0,0.0
418,104.25,31.8058,34.4829,181.311,102.096,103.76,0.00332433,0.0662917,21.004,-937.58,-0.148965,0.0,0.0
420,104.75,31.1854,34.8997,179.847,102.102,103.765,0.00332457,0.0662529,21.0038,-937.59,-0.148763,0.0,0.0
422,105.25,31.6325,35.1624,178.588,102.112,104.18,0.00332476,0.0662022,21.0035,-937.57,-0.184658,0.0,0.0
424,105.75,31.3698,35.0715,177.347,102.113,104.57,0.00332746,0.0661612,21.0034,-937.56,-0.219051,0.0,0.0
426,106.25,31.5546,34.9027,179.677,102.118,104.224,0.00332965,0.0661009,21.0036,-937.57,-0.188046,0.0,0.0
428,106.75,31.2575,34.6918,179.214,102.116,104.509,0.00333058,0.0660521,21.0037,-937.57,-0.213293,0.0,0.0
430,107.25,31.4561,35.0169,178.705,102.111,103.557,0.00333285,0.0659855,21.0034,-937.58,-0.129461,0.0,0.0
432,107.75,31.5422,34.9038,178.646,102.121,104.172,0.00333402,0.0659315,21.0032,-937.58,-0.183137,0.0,0.0
434,108.25,31.657,34.6039,176.682,102.129,104.546,0.00333585,0.0658736,21.003,-937.58,-0.215408,0.0,0.0
436,108.75,31.4907,34.7447,179.518,102.125,103.589,0.00333899,0.0658139,21.0028,-937.59,-0.131113,0.0,0.0
438,109.25,31.1374,35.2751,181.949,102.127,103.535,0.00334489,0.0657726,21.0027,-937.58,-0.12619,0.0,0.0
440,109.75,31.3218,34.8099,180.157,102.124,104.192,0.00335267,0.0657584,21.0026,-937.57,-0.184696,0.0,0.0
442,110.25,31.638,34.6193,180.066,102.126,103.898,0.00336301,0.0657237,21.0025,-937.57,-0.158464,0.0,0.0
444,110.75,31.6198,34.7329,176.061,102.121,103.563,0.00337499,0.0657286,21.0024,-937.56,-0.129102,0.0,0.0
446,111.25,30.8065,35.1503,176.578,102.136,104.127,0.00338604,0.065737,21.0023,-937.59,-0.177834,0.0,0.0
448,111.75,31.6438,34.9707,181.521,102.123,104.36,0.0033962,0.065758,21.0023,-937.58,-0.199592,0.0,0.0
450,112.25,31.2135,35.001,177.47,102.144,104.004,0.00340443,0.0657878,21.0022,-937.58,-0.166193,0.0,0.0
452,112.75,31.2256,34.7199,182.638,102.131,104.418,0.00341109,0.065812,21.0022,-937.59,-0.203961,0.0,0.0
454,113.25,31.495,34.8806,175.195,102.151,103.754,0.00341649,0.0658045,21.0021,-937.58,-0.143372,0.0,0.0
456,113.75,31.1033,34.6498,179.11,102.132,104.179,0.00342086,0.06577,21.0021,-937.58,-0.182782,0.0,0.0
458,114.25,30.5619,34.7144,182.393,102.151,103.432,0.0034244,0.0657164,21.0021,-937.58,-0.114755,0.0,0.0
460,114.75,31.0264,33.9972,178.978,102.146,104.437,0.00342727,0.0656731,21.0021,-937.58,-0.204327,0.0,0.0
462,115.25,31.279,34.7323,179.874,102.147,103.727,0.00344488,0.0656379,21.0021,-937.58,-0.141395,0.0,0.0
464,115.75,31.2036,34.5778,175.816,102.147,103.836,0.00345915,0.0656094,21.0021,-937.59,-0.151102,0.0,0.0
466,116.25,31.699,34.8041,179.362,102.148,104.372,0.00347875,0.0655864,21.0021,-937.59,-0.198355,0.0,0.0
468,116.75,31.1853,34.772,176.513,102.151,103.912,0.00350188,0.0656488,21.0021,-937.55,-0.157378,0.0,0.0
470,117.25,31.5348,34.9214,180.566,102.166,103.288,0.00352262,0.0656994,21.002,-937.56,-0.100612,0.0,0.0
472,117.75,31.2988,35.09,176.997,102.15,103.704,0.00354123,0.0657475,21.002,-937.58,-0.139093,0.0,0.0
474,118.25,30.3256,34.3025,184.376,102.149,103.94,0.0035496,0.0657928,21.002,-937.58,-0.160015,0.0,0.0
476,118.75,30.7039,34.4416,177.28,102.155,103.979,0.00355034,0.0658509,21.002,-937.59,-0.163026,0.0,0.0
478,119.25,31.0036,34.5355,183.338,102.143,103.865,0.00354088,0.0659172,21.002,-937.57,-0.153939,0.0,0.0
480,119.75,31.5345,34.9944,182.415,102.143,103.584,0.00352417,0.0659638,21.002,-937.59,-0.129049,0.0,0.0
482,120.25,31.1274,34.818,174.438,102.141,103.658,0.00351063,0.0659951,21.002,-937.59,-0.135813,0.0,0.0
484,120.75,31.1699,34.6704,174.609,102.136,104.195,0.00349966,0.0659849,21.002,-937.6,-0.183867,0.0,0.0
486,121.25,31.4409,34.5272,178.193,102.149,103.985,0.00344622,0.0659446,21.0021,-937.57,-0.164029,0.0,0.0
488,121.75,30.9961,34.341,181.029,102.132,104.216,0.00340294,0.0659048,21.0021,-937.58,-0.186005,0.0,0.0
490,122.25,30.487,33.7916,177.747,102.137,104.12,0.00335917,0.0658662,21.0022,-937.59,-0.177075,0.0,0.0
492,122.75,30.6066,34.056,182.361,102.118,104.055,0.00331589,0.0658349,21.0022,-937.59,-0.173029,0.0,0.0
494,123.25,31.2522,34.2119,179.859,102.129,104.147,0.00328083,0.0658095,21.0022,-937.59,-0.180195,0.0,0.0
496,123.75,30.8216,34.6864,177.383,102.119,103.817,0.00325498,0.065789,21.0022,-937.58,-0.151861,0.0,0.0
498,124.25,31.3542,34.3079,175.361,102.117,104.035,0.00323404,0.0657724,21.0023,-937.59,-0.171399,0.0,0.0
500,124.75,31.2623,35.066,178.612,102.118,104.249,0.00324507,0.0657518,21.0023,-937.58,-0.190246,0.0,0.0
502,125.25,31.0704,34.2116,178.414,102.116,104.072,0.003254,0.0657287,21.0023,-937.57,-0.174778,0.0,0.0
504,125.75,30.8815,34.7135,178.447,102.1,104.41,0.00328268,0.0657101,21.0023,-937.57,-0.206054,0.0,0.0
506,126.25,30.4953,33.9919,177.82,102.109,104.267,0.00332521,0.0656679,21.0023,-937.57,-0.19261,0.0,0.0
508,126.75,31.1551,33.985,178.001,102.088,103.664,0.00337174,0.0656337,21.0023,-937.58,-0.141049,0.0,0.0
510,127.25,31.2246,34.4794,181.081,102.093,103.977,0.003441,0.0655989,21.0023,-937.6,-0.16836,0.0,0.0
512,127.75,31.1382,34.4143,179.095,102.083,104.148,0.00345963,0.0655643,21.0023,-937.6,-0.184448,0.0,0.0
514,128.25,31.0962,34.4023,183.535,102.086,104.105,0.00349786,0.0655434,21.0023,-937.6,-0.180312,0.0,0.0
516,128.75,30.9308,34.815,185.071,102.083,103.374,0.00352883,0.0655329,21.0023,-937.59,-0.115826,0.0,0.0
518,129.25,31.2196,34.709,179.375,102.071,104.089,0.00353989,0.0655315,21.0023,-937.59,-0.180256,0.0,0.0
520,129.75,30.5897,34.916,178.508,102.07,103.492,0.00354884,0.0655368,21.0023,-937.59,-0.127489,0.0,0.0
522,130.25,30.9892,34.3033,174.532,102.06,103.892,0.00353571,0.0655784,21.0023,-937.58,-0.163849,0.0,0.0
524,130.75,31.0187,34.2772,179.743,102.054,103.961,0.00352508,0.0656121,21.0023,-937.57,-0.170521,0.0,0.0
526,131.25,30.9856,34.1362,177.433,102.042,103.666,0.00349863,0.0656697,21.0023,-937.58,-0.145352,0.0,0.0
528,131.75,31.0652,34.2472,175.898,102.025,103.789,0.00347721,0.0657568,21.0023,-937.59,-0.157915,0.0,0.0
530,132.25,30.434,34.3213,179.081,102.03,104.118,0.00344076,0.0658275,21.0023,-937.6,-0.18662,0.0,0.0
532,132.75,30.5749,34.5367,184.272,102.018,103.812,0.00341124,0.065906,21.0023,-937.6,-0.160604,0.0,0.0
534,133.25,31.2285,33.9818,176.349,102.013,104.243,0.00337587,0.0659889,21.0023,-937.6,-0.19915,0.0,0.0
536,133.75,30.8883,34.3189,180.981,102.007,104.352,0.00334723,0.066056,21.0023,-937.61,-0.209343,0.0,0.0
538,134.25,30.92,34.6559,180.542,102,103.935,0.00332402,0.0661104,21.0023,-937.61,-0.173105,0.0,0.0
540,134.75,30.7785,34.6109,177.807,101.99,103.898,0.00331527,0.0661473,21.0023,-937.61,-0.170736,0.0,0.0
542,135.25,30.8798,34.4111,183.267,101.983,104.057,0.00331723,0.0661708,21.0023,-937.61,-0.185463,0.0,0.0
544,135.75,30.6514,34.5574,177.39,101.974,104.249,0.00333356,0.0661969,21.0023,-937.6,-0.203297,0.0,0.0
546,136.25,30.9289,34.7847,177.152,101.963,103.748,0.00336006,0.0662245,21.0023,-937.59,-0.159841,0.0,0.0
548,136.75,31.0565,34.6275,176.186,101.963,103.449,0.00337136,0.0662469,21.0023,-937.59,-0.133217,0.0,0.0
550,137.25,31.2035,34.5901,179.828,101.95,104.33,0.00341106,0.066265,21.0023,-937.59,-0.212479,0.0,0.0
552,137.75,30.9636,34.2088,177.305,101.941,103.354,0.00344255,0.0662796,21.0023,-937.58,-0.126835,0.0,0.0
554,138.25,31.3433,34.8132,174.101,101.929,104.412,0.00346745,0.0662915,21.0023,-937.58,-0.221651,0.0,0.0
556,138.75,30.8865,34.8991,182.422,101.926,103.447,0.00348818,0.0663011,21.0023,-937.57,-0.136391,0.0,0.0
558,139.25,31.2504,34.7041,176.831,101.916,103.811,0.00348867,0.0662947,21.0023,-937.56,-0.169702,0.0,0.0
560,139.75,31.6371,34.5496,186.424,101.914,103.69,0.00348014,0.0662852,21.0023,-937.57,-0.159166,0.0,0.0
562,140.25,31.2515,35.0747,180.477,101.899,103.67,0.00346478,0.0662547,21.0023,-937.56,-0.15866,0.0,0.0
564,140.75,31.1005,34.7462,175.398,101.889,103.397,0.00345233,0.0662172,21.0023,-937.58,-0.135299,0.0,0.0
566,141.25,31.3325,34.6559,178.746,101.899,103.88,0.00343287,0.0661869,21.0023,-937.59,-0.177373,0.0,0.0
568,141.75,31.5847,34.8908,178.561,101.891,103.925,0.00340867,0.0661352,21.0023,-937.59,-0.182116,0.0,0.0
570,142.25,31.2997,34.9223,186.691,101.879,103.811,0.00338169,0.0660934,21.0023,-937.58,-0.173109,0.0,0.0
572,142.75,31.0329,34.746,181.081,101.866,103.503,0.00335321,0.0660595,21.0023,-937.56,-0.146859,0.0,0.0
574,143.25,31.1597,34.0376,176.132,101.87,103.193,0.00333014,0.0660321,21.0023,-937.58,-0.118861,0.0,0.0
576,143.75,31.3139,34.6324,176.775,101.837,103.9,0.00331146,0.0659956,21.0023,-937.57,-0.184752,0.0,0.0
578,144.25,30.8743,34.4468,175.733,101.836,104.159,0.00328695,0.0659532,21.0023,-937.59,-0.207746,0.0,0.0
580,144.75,30.9089,34.5312,176.83,101.836,103.401,0.00325866,0.0659189,21.0026,-937.59,-0.140485,0.0,0.0
582,145.25,31.1188,34.7986,182.332,101.826,103.6,0.00324311,0.0659182,21.0028,-937.59,-0.159107,0.0,0.0
584,145.75,30.8534,34.5113,177.63,101.827,103.795,0.00323715,0.0659176,21.0029,-937.57,-0.176254,0.0,0.0
586,146.25,30.7831,34.702,176.958,101.799,104.184,0.00323231,0.0659171,21.0031,-937.57,-0.213236,0.0,0.0
588,146.75,31.4833,34.4304,180.439,101.814,103.836,0.00324621,0.0659096,21.0032,-937.57,-0.181135,0.0,0.0
590,147.25,31.3321,34.1944,177.425,101.784,103.905,0.00325747,0.0658971,21.0033,-937.59,-0.1899,0.0,0.0
592,147.75,31.1424,35.0631,176.938,101.791,104.253,0.00328697,0.065887,21.0031,-937.6,-0.220084,0.0,0.0
594,148.25,31.2851,34.5127,180.586,101.799,103.096,0.00331085,0.0658518,21.0028,-937.6,-0.116669,0.0,0.0
596,148.75,31.3682,35.2416,182.3,101.783,103.39,0.0033302,0.0658232,21.0025,-937.59,-0.144204,0.0,0.0
598,149.25,31.3199,34.3933,175.21,101.785,103.304,0.00337263,0.065746,21.0023,-937.57,-0.136438,0.0,0.0
600,149.75,31.1656,34.3651,172.188,101.772,103.485,0.00340699,0.0656835,21.0021,-937.57,-0.153769,0.0,0.0
602,150.25,30.7422,34.5112,184.77,101.759,103.337,0.0034463,0.0656464,21.002,-937.58,-0.141735,0.0,0.0
604,150.75,31.219,34.6289,183.175,101.768,103.815,0.00347814,0.0656163,21.0023,-937.58,-0.183363,0.0,0.0
606,151.25,30.7848,34.0735,178.501,101.798,103.73,0.00351064,0.0655919,21.0025,-937.59,-0.173197,0.0,0.0
608,151.75,30.2979,34.0472,178.022,101.83,103.903,0.003543,0.0656263,21.0028,-937.62,-0.185595,0.0,0.0
610,152.25,30.9609,34.4269,177.124,101.858,103.816,0.0035719,0.0656541,21.0029,-937.6,-0.175359,0.0,0.0
612,152.75,30.8562,34.1341,174.456,101.896,103.709,0.00359773,0.0656766,21.0031,-937.61,-0.162482,0.0,0.0
614,153.25,30.6529,34.6824,177.363,101.922,103.382,0.00361462,0.0656949,21.0032,-937.63,-0.131013,0.0,0.0
616,153.75,30.9742,34.7038,177.732,101.955,103.65,0.00362468,0.0657025,21.0033,-937.61,-0.151946,0.0,0.0
618,154.25,30.9725,34.4448,175.459,101.986,103.117,0.00363282,0.0657023,21.0033,-937.62,-0.101525,0.0,0.0
620,154.75,31.0601,34.8997,182.633,102.015,103.669,0.00361648,0.065688,21.0034,-937.6,-0.148147,0.0,0.0
622,155.25,30.6549,34.3511,176.378,102.033,104.045,0.00360324,0.0656635,21.0034,-937.6,-0.179817,0.0,0.0
624,155.75,31.1663,34.551,181.957,102.071,104.043,0.00359251,0.0656508,21.0035,-937.61,-0.176284,0.0,0.0
626,156.25,31.2013,33.7075,180.728,102.09,104.327,0.00355198,0.0656469,21.0035,-937.6,-0.199577,0.0,0.0
628,156.75,30.8461,34.139,180.707,102.114,104.361,0.00351915,0.0656438,21.0035,-937.61,-0.200438,0.0,0.0
630,157.25,31.3158,34.6402,174.045,102.135,104.304,0.00348619,0.0656683,21.0036,-937.6,-0.19356,0.0,0.0
632,157.75,31.3209,34.7934,175.779,102.169,103.618,0.00345949,0.0656881,21.0036,-937.61,-0.129659,0.0,0.0
634,158.25,30.8004,34.5752,181.024,102.179,104.411,0.0034315,0.0657042,21.0036,-937.61,-0.199021,0.0,0.0
636,158.75,30.6507,34.8858,175.99,102.209,103.722,0.00340883,0.0657713,21.0036,-937.62,-0.135371,0.0,0.0
638,159.25,31.2463,34.924,178.039,102.229,103.823,0.00337774,0.0658256,21.0036,-937.62,-0.142558,0.0,0.0
640,159.75,31.6637,35.0606,178.211,102.251,104.237,0.00335255,0.0658832,21.0036,-937.65,-0.177237,0.0,0.0
642,160.25,31.3377,34.71,178.809,102.272,103.928,0.0033118,0.0659298,21.0036,-937.64,-0.147873,0.0,0.0
644,160.75,30.8856,34.8008,177.106,102.296,104.849,0.00327879,0.0659946,21.0036,-937.61,-0.227117,0.0,0.0
646,161.25,31.0674,34.9417,177.657,102.309,103.828,0.00323171,0.0660471,21.0036,-937.61,-0.135781,0.0,0.0
648,161.75,31.3085,35.1075,182.545,102.331,104.037,0.00319358,0.0660761,21.0036,-937.63,-0.152311,0.0,0.0
650,162.25,30.8062,34.9301,179.939,102.347,104.289,0.00316269,0.0660996,21.0036,-937.64,-0.173117,0.0,0.0
652,162.75,31.2793,34.6371,178.572,102.377,104.505,0.00312369,0.0660916,21.0032,-937.62,-0.189524,0.0,0.0
654,163.25,31.1953,34.5846,177.922,102.38,105.23,0.0030921,0.0660851,21.0028,-937.6,-0.252888,0.0,0.0
656,163.75,31.0001,35.0111,179.871,102.402,104.685,0.00307286,0.0660941,21.0026,-937.62,-0.203105,0.0,0.0
658,164.25,31.5022,34.8579,178.858,102.413,104.1,0.00305728,0.0661141,21.0023,-937.61,-0.150513,0.0,0.0
660,164.75,31.2057,34.6892,175.612,102.42,104.179,0.00305403,0.0661375,21.0021,-937.61,-0.156869,0.0,0.0
662,165.25,31.2839,35.2653,180.81,102.432,103.984,0.00305983,0.0661629,21.002,-937.63,-0.138484,0.0,0.0
664,165.75,30.752,35.0163,178.374,102.449,104.379,0.00306452,0.0661834,21.0019,-937.63,-0.171865,0.0,0.0
666,166.25,30.7568,34.5468,181.277,102.454,104.143,0.00309757,0.0661865,21.0018,-937.63,-0.150605,0.0,0.0
668,166.75,31.3879,34.7677,180.496,102.474,104.271,,0.066189,,-937.63,-0.160114,0.0,0.0
670,167.25,31.3957,34.6575,181.02,102.468,103.812,,0.0661911,,-937.64,-0.120028,0.0,0.0
672,167.75,31.0904,35.1758,183.099,102.483,104.13,,0.0661927,,-937.64,-0.146833,0.0,0.0
674,168.25,31.0618,34.5217,173.731,102.493,104.109,,0.0661941,,-937.65,-0.144124,0.0,0.0
676,168.75,30.4642,35.0696,178.638,102.504,104.142,,0.0662087,,-937.64,-0.14604,0.0,0.0
678,169.25,31.1049,34.9312,175.253,102.522,103.715,,0.0662205,,-937.63,-0.106551,0.0,0.0
680,169.75,30.8256,34.8148,184.585,102.515,103.957,,,,-937.62,-0.128602,0.0,0.0
682,170.25,31.1925,34.8439,184.559,102.511,104.329,,,,-937.64,-0.161832,0.0,0.0
684,170.75,31.5289,34.8336,177.78,102.508,104.742,,,,-937.62,-0.198525,0.0,0.0
686,171.25,31.1842,34.8432,181.301,102.537,104.482,,,,-937.61,-0.173062,0.0,0.0
688,171.75,31.1331,34.8714,179.104,102.509,104.637,,,,-937.62,-0.189247,0.0,0.0
690,172.25,31.5156,34.8038,180.237,102.514,104.275,,,,-937.61,-0.156867,0.0,0.0
692,172.75,31.219,35.0588,176.947,102.527,104.298,,,,-937.62,-0.157798,0.0,0.0
694,173.25,31.2836,35.4247,182.472,102.522,104.437,,,,-937.63,-0.170487,0.0,0.0
696,173.75,31.3745,34.4146,182.192,102.528,104.517,,,,-937.62,-0.176981,0.0,0.0
698,174.25,30.7132,35.1919,172.583,102.517,104.688,,,,-937.61,-0.193047,0.0,0.0
700,174.75,31.5961,34.7167,183.009,102.528,104.976,,,,-937.61,-0.217365,0.0,0.0
702,175.25,31.1859,34.8205,179.86,102.516,104.43,,,,-937.61,-0.17033,0.0,0.0
704,175.75,31.024,34.8445,177.693,102.522,104.19,,,,-937.61,-0.148607,0.0,0.0
706,176.25,30.2937,34.4725,181.169,102.516,104.074,,,,-937.61,-0.138903,0.0,0.0
708,176.75,30.5649,34.1744,176.979,102.506,104.557,,,,-937.6,-0.182481,0.0,0.0
710,177.25,30.9488,35.0181,179.891,102.495,103.989,,,,-937.59,-0.133247,0.0,0.0
711,177.5,30.9928,34.6973,177.447,102.511,104.387,,,,-937.58,-0.167056,0.0,0.0