File: 01_Data/Scott_HT_SCBA/Cone/Scott_HT_SCBA_Cone_HF50-FrameScan_201103_R1.csv
Names,Time,Stack TC,Smoke TC,Exh Press,Smoke Comp,Smoke Meas,CO Meter,CO2 Meter,O2 Meter,Sample Mass,Ext Coeff,Start Test,Flame Verif
Chan Gain,,500,500,1,1,1,1,1,1,1,1,1.0,1.0
Offset,,0,0,0.134413,0,0,0,0,0,0,0,0.0,0.0
Gain,,1,1,25.011,13.8462,17.0661,1,1,1,1.0009,1.04998,1.0,1.0
Units,sec,C,C,Pa,%,%,%,%,%,g,/m,,
Baseline,,28.7288,31.7265,181.82,102.437,103.643,0.00370355,0.0790577,20.9871,-938.742,-0.10772,,
2,0.25,27.4709,28.9046,185.859,102.393,103.718,0.00344783,0.0795625,20.9864,2.24201,-0.118376,0.0,0.0
4,0.75,25.6437,28.3642,187.577,102.401,103.331,0.00344519,0.07971,20.9864,2.26203,-0.0832727,0.0,0.0
6,1.25,25.5163,27.5333,183.189,102.405,103.563,0.00345243,0.0798296,20.9864,2.17195,-0.103565,0.0,0.0
8,1.75,26.357,27.7569,185.16,102.4,103.448,0.00346675,0.0798311,20.9864,2.26203,-0.0937415,0.0,0.0
10,2.25,25.586,28.0449,187.697,102.405,103.533,0.00347835,0.0798324,20.9864,2.20197,-0.100917,0.0,0.0
12,2.75,25.6316,28.3182,184.042,102.403,103.576,0.00350431,0.0798052,20.9864,2.25202,-0.104867,0.0,0.0
14,3.25,25.9816,28.3628,180.957,102.411,103.876,0.00352534,0.0797577,20.9864,2.17195,-0.130829,0.0,0.0
16,3.75,26.0719,27.9688,178.566,102.413,103.512,0.0035462,0.0797192,20.9864,2.20197,-0.0983879,0.0,0.0
18,4.25,26.1363,28.19,180.126,102.412,103.89,0.00356309,0.0797289,20.9864,2.16194,-0.132,0.0,0.0
20,4.75,26.1858,28.4369,179.717,102.405,103.218,0.00357611,0.0797367,20.9864,2.20197,-0.0728435,0.0,0.0
22,5.25,25.8187,28.321,182.469,102.399,103.999,0.00358605,0.0797974,20.9864,2.18195,-0.142869,0.0,0.0
24,5.75,26.2497,28.9168,180.762,102.415,103.816,0.00359342,0.0798466,20.9864,2.21198,-0.125176,0.0,0.0
26,6.25,26.4283,28.2145,181.503,102.397,103.117,0.0035988,0.0799953,20.9859,2.18195,-0.0645145,0.0,0.0
28,6.75,26.5231,28.6606,178.827,102.411,103.68,0.00360583,0.0801158,20.9856,2.20197,-0.113365,0.0,0.0
30,7.25,26.306,28.9384,178.008,102.397,103.817,0.00361395,0.080328,20.9853,2.19196,-0.126779,0.0,0.0
32,7.75,26.6311,28.9024,181.065,102.409,103.529,0.00362388,0.080603,20.9851,2.19196,-0.100166,0.0,0.0
34,8.25,26.5563,28.9816,182.989,102.401,103.783,0.00363494,0.0808258,20.9844,2.18195,-0.12348,0.0,0.0
36,8.75,26.4249,28.8188,181.037,102.411,103.47,0.0036486,0.081265,20.9839,2.19196,-0.0947015,0.0,0.0
38,9.25,26.7307,29.879,185.353,102.402,103.595,0.00366389,0.0816208,20.9835,2.18195,-0.106665,0.0,0.0
40,9.75,26.9241,29.4074,184.054,102.4,103.918,0.00367628,0.0820315,20.9832,2.19196,-0.135549,0.0,0.0
42,10.25,26.6055,29.3367,184.072,102.398,104.019,0.00369524,0.0823643,20.9829,2.19196,-0.144614,0.0,0.0
44,10.75,26.9423,29.1556,187.211,102.415,103.396,0.0037106,0.0826883,20.9827,2.18195,-0.0878579,0.0,0.0
46,11.25,27.3212,29.0952,181.798,102.392,103.406,0.00372305,0.0829508,20.9825,2.18195,-0.0907909,0.0,0.0
48,11.75,26.5683,29.5316,182.606,102.409,104.143,0.00374206,0.0831089,20.9824,2.17195,-0.154641,0.0,0.0
50,12.25,27.0021,29.5289,182.668,102.398,103.747,0.00375746,0.0832369,20.9823,2.16194,-0.120594,0.0,0.0
52,12.75,26.7048,29.618,184.461,102.411,104.118,0.00377597,0.083218,20.9822,2.18195,-0.15224,0.0,0.0
54,13.25,26.5762,30.1661,182.711,102.4,103.753,0.00379642,0.0832027,20.9825,2.17195,-0.120828,0.0,0.0
56,13.75,26.8874,29.6478,184.589,102.414,104.007,0.00381566,0.0831903,20.9828,2.17195,-0.142109,0.0,0.0
58,14.25,26.9524,30.0771,180.713,102.402,103.559,0.00383367,0.083044,20.9831,2.16194,-0.10347,0.0,0.0
60,14.75,26.5924,29.5811,182.832,102.405,103.378,0.00385094,0.0829256,20.9833,2.16194,-0.0870998,0.0,0.0
62,15.25,27.608,29.4162,188.139,102.405,103.715,0.00386736,0.0828153,20.9834,2.14192,-0.11708,0.0,0.0
64,15.75,26.5298,29.7204,183.066,102.415,103.61,0.00388065,0.082713,20.9833,2.16194,-0.10686,0.0,0.0
66,16.25,26.9388,29.6131,182.181,102.407,103.711,0.00389142,0.0826804,20.983,2.17195,-0.116559,0.0,0.0
68,16.75,27.0101,29.5535,183.135,102.422,103.669,0.00389503,0.0826991,20.9828,2.18195,-0.111443,0.0,0.0
70,17.25,27.0978,30.2569,180.459,102.405,103.741,0.00389796,0.0828147,20.9825,2.15193,-0.119347,0.0,0.0
72,17.75,27.1217,30.1934,183.096,102.424,103.548,0.00389361,0.0829986,20.9821,2.15193,-0.100551,0.0,0.0
74,18.25,27.3048,29.7012,180.068,102.403,103.504,0.00388404,0.0831476,20.9816,2.15193,-0.09852,0.0,0.0
76,18.75,27.1123,30.2863,183.967,102.413,103.368,0.00387629,0.0832683,20.9812,2.15193,-0.0854661,0.0,0.0
78,19.25,26.7478,29.801,187.009,102.429,103.621,0.0038394,0.0837751,20.9808,2.15193,-0.106578,0.0,0.0
80,19.75,26.8202,29.7858,182.069,102.425,103.811,0.00380951,0.0841856,20.9805,2.15193,-0.123809,0.0,0.0
82,20.25,27.1603,29.7199,179.808,102.413,103.314,0.00376652,0.0846545,20.9803,2.13191,-0.0806761,0.0,0.0
84,20.75,26.7427,30.1544,178.338,102.425,103.532,0.00371479,0.0851571,20.9797,2.11189,-0.099,0.0,0.0
86,21.25,27.3721,30.1526,181.668,102.412,103.595,0.00365205,0.0855786,20.9792,2.11189,-0.105791,0.0,0.0
88,21.75,27.641,29.96,180.447,102.423,103.667,0.00358249,0.085933,20.9786,2.1219,-0.111145,0.0,0.0
90,22.25,26.8367,29.8369,182.318,102.41,103.323,0.00351476,0.08622,20.9781,2.13191,-0.0817782,0.0,0.0
92,22.75,26.8594,29.9063,188.228,102.427,103.463,0.00344965,0.0863519,20.9777,2.13191,-0.0927299,0.0,0.0
94,23.25,27.4404,30.0129,181.874,102.419,103.614,0.00339692,0.0863683,20.9774,2.14192,-0.106812,0.0,0.0
96,23.75,27.3225,30.2055,181.036,102.421,103.829,0.00335554,0.0863816,20.9772,2.1219,-0.12576,0.0,0.0
98,24.25,27.5672,30.275,180.471,102.421,103.335,0.00332323,0.0861324,20.9774,2.15193,-0.0818491,0.0,0.0
100,24.75,27.2769,30.1135,185.01,102.43,103.518,0.00331179,0.0859306,20.9776,2.16194,-0.097377,0.0,0.0
102,25.25,26.9853,30.0184,178.292,102.418,103.47,0.00331579,0.0856172,20.9778,2.14192,-0.0941313,0.0,0.0
104,25.75,26.82,30.5869,188.861,102.423,103.594,0.00331902,0.0853634,20.9779,2.13191,-0.104711,0.0,0.0
106,26.25,27.169,30.4318,185.993,102.424,103.517,0.00334444,0.0850789,20.9782,2.1219,-0.097817,0.0,0.0
108,26.75,27.3416,29.6642,183.729,102.429,103.412,0.00338554,0.0847774,20.9787,2.1219,-0.0879954,0.0,0.0
110,27.25,26.897,30.3399,188.039,102.421,103.501,0.00344688,0.0845332,20.9791,2.1219,-0.0966458,0.0,0.0
112,27.75,27.8071,30.3426,186.017,102.421,103.565,0.00349657,0.0843354,20.9794,2.1219,-0.102261,0.0,0.0
114,28.25,27.0988,29.8936,178.273,102.431,103.509,0.00354756,0.0841752,20.9797,2.15193,-0.096476,0.0,0.0
116,28.75,27.648,29.7592,183.947,102.413,103.58,0.00359853,0.0840863,20.9799,2.16194,-0.104364,0.0,0.0
118,29.25,27.0735,30.1982,182.187,102.423,103.591,0.00364922,0.0840143,20.98,2.15193,-0.10447,0.0,0.0
120,29.75,27.1309,30.2058,183.696,102.429,103.457,0.00369874,0.0839631,20.9802,2.14192,-0.0919458,0.0,0.0
122,30.25,27.2439,29.7401,183.407,102.425,103.475,0.00374558,0.0839281,20.9803,2.14192,-0.0939101,0.0,0.0
124,30.75,27.5801,29.619,181.396,102.434,103.704,0.00378956,0.08395,20.9804,2.1219,-0.113526,0.0,0.0
126,31.25,27.0356,29.9404,187.327,102.418,103.836,0.00382519,0.0840129,20.9804,2.13191,-0.126711,0.0,0.0
128,31.75,27.7087,30.0713,184.567,102.424,103.919,0.00386299,0.0841644,20.98,2.13191,-0.133437,0.0,0.0
130,32.25,27.0261,30.404,175.512,102.439,103.504,0.00389361,0.0843774,20.9797,2.11189,-0.0952057,0.0,0.0
132,32.75,27.1796,30.5011,183.225,102.435,103.757,0.00391707,0.0846936,20.9795,2.1219,-0.118044,0.0,0.0
134,33.25,27.1576,30.246,179.086,102.425,103.674,0.00393486,0.0850789,20.9793,2.13191,-0.11164,0.0,0.0
136,33.75,27.3233,30.2801,179.291,102.415,104.061,0.00394926,0.0854628,20.9791,2.1219,-0.146828,0.0,0.0
138,34.25,27.386,30.0249,180.531,102.426,103.886,0.00395072,0.0858384,20.9788,2.11189,-0.130339,0.0,0.0
140,34.75,27.2855,30.1882,177.311,102.44,103.489,0.0039519,0.0861427,20.9783,2.11189,-0.0938324,0.0,0.0
142,35.25,27.3518,30.4591,178.401,102.422,103.657,0.00393753,0.0863676,20.9779,2.1219,-0.110379,0.0,0.0
144,35.75,27.1864,30.3064,178.807,102.418,103.991,0.00392589,0.0865303,20.9775,2.10188,-0.140375,0.0,0.0
146,36.25,27.2533,30.4813,180.122,102.435,103.532,0.00390625,0.0866622,20.9773,2.08187,-0.0981266,0.0,0.0
148,36.75,27.2423,30.1918,183.45,102.424,103.151,0.00389035,0.0866189,20.9771,2.08187,-0.0650596,0.0,0.0
150,37.25,27.3569,30.2686,180.301,102.423,103.241,0.00387746,0.0865838,20.9771,2.10188,-0.0732995,0.0,0.0
152,37.75,27.6014,30.4175,179.097,102.424,104.11,0.00386703,0.0863099,20.9774,2.09187,-0.150371,0.0,0.0
154,38.25,27.5758,31.119,185.198,102.425,103.556,0.00386368,0.086088,20.9776,2.10188,-0.101131,0.0,0.0
156,38.75,27.3277,30.533,181.463,102.417,103.953,0.00386097,0.0857174,20.9777,2.11189,-0.137084,0.0,0.0
158,39.25,27.6125,30.5867,185.844,102.424,103.461,0.00385877,0.0854173,20.9779,2.10188,-0.0927349,0.0,0.0
160,39.75,27.573,30.5082,176.315,102.424,104.027,0.00385699,0.0850651,20.978,2.09187,-0.143025,0.0,0.0
162,40.25,27.6115,30.6625,185.462,102.432,103.914,0.00388109,0.0847799,20.9784,2.09187,-0.132292,0.0,0.0
164,40.75,27.4115,30.731,186.202,102.42,103.431,0.0039006,0.0845202,20.979,2.09187,-0.0904256,0.0,0.0
166,41.25,27.6895,31.276,180.884,102.432,103.29,0.00392381,0.084284,20.9795,2.10188,-0.0767919,0.0,0.0
168,41.75,27.6283,30.8989,178.249,102.418,103.558,0.00394926,0.0840927,20.9799,2.10188,-0.102009,0.0,0.0
170,42.25,27.705,31.0326,186.052,102.419,103.195,0.00396987,0.0839377,20.9802,2.07186,-0.0694677,0.0,0.0
172,42.75,27.52,30.785,179.903,102.428,103.337,0.00398785,0.0837032,20.9805,2.08187,-0.0813894,0.0,0.0
174,43.25,27.9638,30.9069,183.702,102.429,103.712,0.00400241,0.0835133,20.9807,2.09187,-0.114684,0.0,0.0
176,43.75,27.6821,30.9196,186.137,102.447,103.514,0.00400271,0.0833092,20.9809,2.08187,-0.0953649,0.0,0.0
178,44.25,27.8249,30.7624,187.117,102.423,103.327,0.00400295,0.0830988,20.981,2.10188,-0.0809253,0.0,0.0
180,44.75,27.572,30.7931,183.687,102.431,103.12,0.00398433,0.0829284,20.9811,2.08187,-0.0617458,0.0,0.0
182,45.25,27.8446,30.4419,183.933,102.427,102.727,0.00395231,0.0828039,20.9812,2.10188,-0.0268613,0.0,0.0
184,45.75,27.9705,31.171,178.259,102.416,103.005,0.00391161,0.0827031,20.9813,2.11189,-0.052789,0.0,0.0
186,46.25,27.6304,30.6859,183.839,102.427,103.115,0.00386534,0.0826487,20.9813,2.09187,-0.0617065,0.0,0.0
188,46.75,27.776,30.9439,177.723,102.418,103.308,0.00382787,0.0826047,20.9814,2.08187,-0.0797009,0.0,0.0
190,47.25,27.3622,30.6247,175.537,102.419,102.752,0.00379114,0.0826478,20.9814,2.07186,-0.029863,0.0,0.0
192,47.75,27.3851,30.4684,184.121,102.411,102.766,0.00376139,0.0827537,20.9814,2.06185,-0.0318069,0.0,0.0
194,48.25,27.8043,31.0218,180.452,102.421,102.371,0.00374736,0.0828395,20.9815,2.06185,0.00446983,0.0,0.0
196,48.75,27.5888,30.8732,183.041,102.417,102.602,0.00374506,0.0830317,20.9811,2.07186,-0.0165975,0.0,0.0
198,49.25,27.8793,30.9583,184.536,102.426,102.581,0.00375327,0.0831873,20.9807,2.07186,-0.0139294,0.0,0.0
200,49.75,27.7749,30.8526,184.092,102.419,103.083,0.00376898,0.0834905,20.9804,2.06185,-0.0595525,0.0,0.0
202,50.25,27.8203,30.5006,187.091,102.433,102.829,0.00378977,0.0837362,20.9802,2.04183,-0.0354776,0.0,0.0
204,50.75,27.6465,30.5982,182.403,102.422,102.241,0.00381387,0.0839997,20.9798,2.04183,0.0162312,0.0,0.0
206,51.25,27.6044,31.1871,180.211,102.424,102.073,0.00383339,0.0842713,20.9793,2.0118,0.0316165,0.0,0.0
208,51.75,27.6009,30.9258,184.011,102.416,102.113,0.00386069,0.0845559,20.9788,2.02181,0.0272944,0.0,0.0
210,52.25,27.9334,30.4896,185.872,102.426,102.365,0.0038828,0.0848446,20.9785,2.04183,0.00549806,0.0,0.0
212,52.75,27.7282,30.8753,181.378,102.412,101.574,0.00390004,0.0850784,20.9782,2.05184,0.0756936,0.0,0.0
214,53.25,27.5621,30.738,181.297,102.427,101.706,0.0039134,0.0854588,20.9775,2.05184,0.0651212,0.0,0.0
216,53.75,27.6882,31.2071,182.69,102.405,101.789,0.00392422,0.085767,20.977,2.07186,0.0556116,0.0,0.0
218,54.25,27.8424,31.2252,179.776,102.422,101.553,0.00393299,0.0863579,20.9763,2.08187,0.0784657,0.0,0.0
220,54.75,28.118,31.0713,180.186,102.426,101.593,0.00394009,0.0868365,20.9756,2.07186,0.075209,0.0,0.0
222,55.25,27.6988,31.0579,186.689,102.43,101.81,0.00395324,0.08744,20.975,2.05184,0.0559587,0.0,0.0
224,55.75,27.6769,31.0631,187.368,102.411,101.402,0.00397054,0.0881229,20.9745,2.04183,0.0912246,0.0,0.0
226,56.25,28.3074,31.0932,183.303,102.417,101.134,0.00399464,0.0886762,20.9741,2.03182,0.116104,0.0,0.0
228,56.75,28.0973,31.1154,177.273,102.422,101.835,0.00402325,0.08922,20.9738,2.03182,0.0529757,0.0,0.0
230,57.25,27.69,30.9259,178.437,102.424,101.706,0.00405786,0.0896605,20.9735,2.04183,0.0648072,0.0,0.0
232,57.75,28.1584,31.3794,181.471,102.403,101.621,0.00409619,0.0900173,20.9729,2.04183,0.0706459,0.0,0.0
234,58.25,27.9053,31.1705,181.448,102.426,101.305,0.00414205,0.0901422,20.9723,2.04183,0.101357,0.0,0.0
236,58.75,28.0411,31.0186,180.004,102.416,101.299,0.00419253,0.0902434,20.9715,2.04183,0.100967,0.0,0.0
238,59.25,27.9756,31.0256,182.349,102.417,100.457,0.00425431,0.0906126,20.9708,2.03182,0.177925,0.0,0.0
240,59.75,28.0812,31.0302,182.571,102.4,100.934,0.00435251,0.0909115,20.9675,2.02181,0.132768,0.0,0.0
242,60.25,27.6629,31.1428,181.162,102.437,100.568,0.00437893,0.092675,20.9666,2.0118,0.169544,0.0,0.0
244,60.75,27.8676,31.1664,183.405,102.406,102.016,0.00447,0.0941033,20.9651,2.02181,0.0351533,0.0,0.0
246,61.25,28.2836,31.1733,180.604,102.433,102.636,0.00458509,0.098279,20.9595,1.95175,-0.0182388,0.0,1.0
248,61.75,27.5851,31.4458,177.915,102.404,101.809,0.00473381,0.101661,20.955,1.94174,0.0536972,0.0,1.0
250,62.25,27.8911,31.74,184.684,102.424,101.404,0.00490421,0.108562,20.9513,1.91171,0.092204,0.0,1.0
252,62.75,27.8295,31.3703,175.215,102.424,99.022,0.00504224,0.116535,20.9456,1.92172,0.311083,0.0,1.0
254,63.25,28.4371,31.7805,178.534,102.41,97.5002,0.00515405,0.122064,20.9384,2.33209,0.452517,0.0,1.0
256,63.75,28.5582,31.9839,179.369,102.441,94.0649,0.00540729,0.131518,20.9327,1.73155,0.785702,0.0,1.0
258,64.25,28.5355,32.1704,180.078,102.4,92.3779,0.00575882,0.139175,20.9218,1.94174,0.948654,0.0,1.0
260,64.75,29.1814,32.9933,176.664,102.401,92.1623,0.0062805,0.153018,20.9129,1.87168,0.970291,0.0,1.0
262,65.25,28.8853,33.3902,175.839,102.405,88.4692,0.00670306,0.16423,20.8946,1.85166,1.34727,0.0,1.0
264,65.75,29.244,33.4366,174.404,102.41,88.2088,0.00720608,0.173312,20.8797,1.84165,1.37492,0.0,1.0
266,66.25,29.008,33.5148,174.79,102.405,86.0531,0.00775819,0.186511,20.8567,1.82163,1.60238,0.0,1.0
268,66.75,28.43,33.0947,176.557,102.406,84.4516,0.00833252,0.20246,20.8382,1.7916,1.77544,0.0,0.0
270,67.25,28.9383,33.9334,174.403,102.415,82.2157,0.00891212,0.218807,20.8091,1.75157,2.02341,0.0,0.0
272,67.75,29.4756,34.8663,164.105,102.405,78.8898,0.00938161,0.235133,20.7856,1.71153,2.40284,0.0,0.0
274,68.25,29.9055,35.5417,165.733,102.408,78.3106,0.00992203,0.248357,20.7617,1.65148,2.47097,0.0,0.0
276,68.75,30.9238,36.4304,175.456,102.405,79.6663,0.0105039,0.266422,20.7381,1.63146,2.31262,0.0,0.0
278,69.25,31.01,37.0599,163.009,102.416,75.8993,0.0111075,0.284042,20.7189,1.57141,2.75973,0.0,0.0
280,69.75,31.3958,37.9379,166.434,102.405,77.5513,0.0115963,0.301002,20.7016,1.53137,2.56049,0.0,0.0
282,70.25,32.4816,38.9669,165.375,102.409,72.0983,0.0119776,0.31474,20.6876,1.47132,3.23231,0.0,0.0
284,70.75,33.0019,39.948,170.481,102.405,72.977,0.0122865,0.330201,20.6763,1.49134,3.12045,0.0,0.0
286,71.25,33.3915,40.6677,172.066,102.425,71.7166,0.0124453,0.342725,20.6671,1.42127,3.28269,0.0,0.0
288,71.75,33.6598,41.0492,169.938,102.409,70.1619,0.0124698,0.348436,20.6632,1.92172,3.4831,0.0,0.0
290,72.25,34.0893,42.1083,159.988,102.392,69,0.0123855,0.34907,20.6536,1.89169,3.63535,0.0,0.0
292,72.75,35.2179,43.5267,174.487,102.407,86.5812,0.012272,0.340997,20.6616,1.35121,1.54618,0.0,0.0
294,73.25,35.5394,44.011,183.386,102.402,100.367,0.012078,0.32673,20.6753,1.39125,0.184945,0.0,0.0
296,73.75,35.5004,43.7417,180.268,102.414,102.835,0.0116359,0.308613,20.6933,-313.971,-0.0377848,0.0,0.0
298,74.25,35.4473,43.1482,184.975,102.405,103.039,0.0112779,0.288034,20.714,-938.671,-0.0568034,0.0,0.0
300,74.75,34.72,42.3155,184.295,102.4,102.313,0.0109879,0.279262,20.7309,-938.521,0.00782955,0.0,0.0
302,75.25,34.4684,41.5971,183.164,102.409,101.623,0.0104546,0.250208,20.7488,-938.721,0.0709891,0.0,0.0
304,75.75,33.6347,40.5764,181.01,102.41,101.224,0.0100226,0.242392,20.7671,-938.731,0.107256,0.0,0.0
306,76.25,33.2769,39.9131,184.901,102.406,100.275,0.00956323,0.224915,20.782,-938.771,0.193712,0.0,0.0
308,76.75,32.892,39.1338,189.266,102.404,100.883,0.00909258,0.210759,20.8006,-938.751,0.137807,0.0,0.0
310,77.25,32.6807,38.5962,182.338,102.397,102.147,0.00863505,0.199292,20.8156,-938.701,0.0225608,0.0,0.0
312,77.75,32.0102,38.4771,183.248,102.412,102.759,0.00819579,0.184924,20.8348,-938.911,-0.0311238,0.0,0.0
314,78.25,31.3484,37.7583,177.018,102.397,103.124,0.00777548,0.173285,20.8503,-938.811,-0.0651956,0.0,0.0
316,78.75,31.6446,36.2236,182.354,102.411,103.25,0.00737698,0.162061,20.8682,-938.751,-0.075154,0.0,0.0
318,79.25,31.0391,36.1319,178.576,102.396,103.378,0.0070041,0.151351,20.8826,-938.761,-0.0878978,0.0,0.0
320,79.75,31.0187,35.6527,183.202,102.407,102.888,0.00665698,0.141916,20.8969,-938.751,-0.0431499,0.0,0.0
322,80.25,30.9478,35.5352,181.268,102.4,102.776,0.00633865,0.133591,20.9085,-938.741,-0.033804,0.0,0.0
324,80.75,30.7135,35.6228,181.055,102.396,104.334,0.00604736,0.126378,20.9196,-938.741,-0.172662,0.0,0.0
326,81.25,30.2429,34.8263,176.489,102.407,103.481,0.00581142,0.120114,20.9287,-938.741,-0.0961005,0.0,0.0
328,81.75,29.6259,34.1908,185.53,102.4,102.828,0.00557783,0.114702,20.936,-938.741,-0.0384331,0.0,0.0
330,82.25,29.5441,34.2444,184.12,102.386,102.991,0.00535039,0.110014,20.9428,-938.731,-0.0542385,0.0,0.0
332,82.75,29.2531,33.8707,180.489,102.416,103.103,0.00513857,0.1059,20.9483,-938.751,-0.0615866,0.0,0.0
334,83.25,29.3544,33.6495,181.845,102.406,103.18,0.00494216,0.102284,20.9536,-938.741,-0.0693355,0.0,0.0
336,83.75,28.8125,33.225,184.868,102.391,103.847,0.00478307,0.0993542,20.9579,-938.731,-0.129991,0.0,0.0
338,84.25,28.4869,32.8779,183.235,102.399,103.407,0.00461216,0.0965039,20.9619,-938.741,-0.0902382,0.0,0.0
340,84.75,28.6837,32.989,185.65,102.403,103.638,0.00447373,0.0941952,20.9655,-938.751,-0.110423,0.0,0.0
342,85.25,28.9898,33.1829,178.878,102.399,103.684,0.00434245,0.0923252,20.9684,-938.751,-0.114884,0.0,0.0
344,85.75,28.7019,33.1496,184.598,102.402,103.441,0.00423612,0.090429,20.9711,-938.751,-0.092949,0.0,0.0
346,86.25,28.743,32.6356,177.082,102.381,103.593,0.00414999,0.088893,20.9736,-938.751,-0.108334,0.0,0.0
348,86.75,28.4893,32.8224,180.741,102.398,103.045,0.00407016,0.0874039,20.9756,-938.741,-0.0580176,0.0,0.0
350,87.25,28.3381,32.5309,178.438,102.394,103.544,0.00399643,0.0861976,20.9774,-938.741,-0.102802,0.0,0.0
352,87.75,28.1156,32.2793,179.669,102.397,103.693,0.0039367,0.0850444,20.979,-938.761,-0.115814,0.0,0.0
354,88.25,28.1128,32.0087,185.093,102.387,103.171,0.00388833,0.0841103,20.9802,-938.751,-0.0702559,0.0,0.0
356,88.75,28.1051,32.0872,180.811,102.41,103.883,0.00384915,0.0833537,20.9812,-938.741,-0.131543,0.0,0.0
358,89.25,27.8963,31.6654,176.225,102.386,103.687,0.00381674,0.0826592,20.982,-938.741,-0.116377,0.0,0.0
360,89.75,27.8359,31.4177,181.64,102.394,103.438,0.00378988,0.0820966,20.9827,-938.761,-0.0933921,0.0,0.0
362,90.25,27.5692,31.477,181.487,102.375,103.526,0.00376209,0.081641,20.9832,-938.771,-0.102937,0.0,0.0
364,90.75,27.5714,31.4251,181.389,102.404,103.607,0.00373414,0.0813671,20.9837,-938.781,-0.107616,0.0,0.0
366,91.25,27.4558,31.1183,177.834,102.39,104.118,0.00370278,0.0811453,20.984,-938.761,-0.154094,0.0,0.0
368,91.75,27.8862,30.7647,182.4,102.396,103.82,0.00366953,0.0811697,20.9839,-938.761,-0.127217,0.0,0.0
370,92.25,27.4625,31.301,176.64,102.383,104.085,0.00363321,0.0811895,20.9837,-938.791,-0.151921,0.0,0.0
372,92.75,27.7024,30.8068,180.232,102.395,103.605,0.00359534,0.0813202,20.9836,-938.761,-0.108229,0.0,0.0
374,93.25,26.6132,31.1234,187.699,102.386,103.377,0.00356132,0.0815293,20.9835,-938.761,-0.0886866,0.0,0.0
376,93.75,26.7986,30.6122,179.597,102.389,103.501,0.00353074,0.081756,20.9835,-938.751,-0.09945,0.0,0.0
378,94.25,27.4127,30.7824,180.039,102.374,103.584,0.00350598,0.0819912,20.9834,-938.771,-0.108231,0.0,0.0
380,94.75,26.7198,30.3548,184.26,102.397,103.783,0.00349218,0.0822391,20.9834,-938.751,-0.123852,0.0,0.0
382,95.25,27.2618,30.7901,179.077,102.382,103.765,0.003481,0.0824915,20.9834,-938.741,-0.123526,0.0,0.0
384,95.75,27.4066,30.7271,185.091,102.381,104.207,0.00347195,0.0827032,20.9833,-938.761,-0.162805,0.0,0.0
386,96.25,27.2899,30.57,179.375,102.374,103.869,0.0035003,0.0828811,20.983,-938.761,-0.133537,0.0,0.0
388,96.75,27.3442,30.4408,186.074,102.383,103.257,0.00352326,0.0830251,20.9824,-938.751,-0.0783509,0.0,0.0
390,97.25,26.7682,30.442,181.02,102.381,103.522,0.00355729,0.0831146,20.982,-938.771,-0.102156,0.0,0.0
392,97.75,26.8533,30.4221,181.439,102.375,103.753,0.00359876,0.0831871,20.9816,-938.791,-0.123147,0.0,0.0
394,98.25,27.1849,30.5706,180.997,102.376,103.458,0.00363906,0.0831952,20.9813,-938.791,-0.0967889,0.0,0.0
396,98.75,27.2491,30.0601,178.206,102.37,103.635,0.00367775,0.0831562,20.9815,-938.781,-0.113148,0.0,0.0
398,99.25,26.7347,30.3534,180.771,102.375,103.828,0.00370707,0.0831247,20.9817,-938.781,-0.129764,0.0,0.0
400,99.75,26.5724,29.9659,181.967,102.373,103.147,0.00372901,0.0829085,20.9818,-938.791,-0.0693714,0.0,0.0
402,100.25,26.8984,30.0972,184.248,102.359,103.885,0.0037394,0.0827334,20.9819,-938.761,-0.136252,0.0,0.0
404,100.75,26.8392,29.9342,180.436,102.368,103.224,0.00374116,0.0824769,20.982,-938.751,-0.0767078,0.0,0.0
406,101.25,26.8645,29.6797,184.462,102.367,103.544,0.00373117,0.0821659,20.9821,-938.751,-0.105281,0.0,0.0
408,101.75,27.0938,29.4783,185.479,102.382,103.484,0.00371282,0.081821,20.9821,-938.751,-0.098621,0.0,0.0
410,102.25,27.0353,29.7916,185.304,102.353,103.461,0.00369795,0.0814578,20.9822,-938.731,-0.0991587,0.0,0.0
412,102.75,26.8295,29.8253,180.987,102.386,103.869,0.00366914,0.0810849,20.9822,-938.731,-0.132387,0.0,0.0
414,103.25,27.3449,30.1363,184.843,102.367,103.462,0.00363071,0.0807119,20.9827,-938.741,-0.0980051,0.0,0.0
416,103.75,26.8082,29.67,180.517,102.37,103.423,0.00359958,0.0804099,20.983,-938.741,-0.0942523,0.0,0.0
418,104.25,26.8635,29.9434,178.073,102.358,103.636,0.00356418,0.0800428,20.9838,-938.741,-0.114267,0.0,0.0
420,104.75,27.0041,29.3391,186.683,102.369,103.228,0.0035355,0.0797455,20.9844,-938.751,-0.0769192,0.0,0.0
422,105.25,26.8532,29.7709,179.08,102.366,103.603,0.0035162,0.0793823,20.9849,-938.761,-0.11062,0.0,0.0
424,105.75,26.8599,29.4707,180.307,102.365,103.511,0.00350056,0.0790882,20.9853,-938.751,-0.102543,0.0,0.0
426,106.25,26.6778,29.6305,180.636,102.374,103.476,0.00349299,0.0788499,20.9857,-938.731,-0.0985932,0.0,0.0
428,106.75,26.3357,29.2233,180.633,102.36,103.206,0.00348686,0.0784938,20.9861,-938.741,-0.0757651,0.0,0.0
430,107.25,26.6331,29.2697,180.443,102.364,103.312,0.00348445,0.0782054,20.9864,-938.761,-0.0849846,0.0,0.0
432,107.75,26.6464,29.6353,184.018,102.362,103.165,0.00348249,0.0778767,20.9867,-938.751,-0.0719875,0.0,0.0
434,108.25,26.4838,29.5365,180.269,102.362,103.764,0.0034809,0.0776105,20.9869,-938.761,-0.125267,0.0,0.0
436,108.75,26.4623,29.4352,177.956,102.357,103.436,0.00347961,0.0773819,20.9871,-938.771,-0.0966369,0.0,0.0
438,109.25,26.203,29.0864,179.502,102.368,103.436,0.00347857,0.0771968,20.9872,-938.771,-0.0956106,0.0,0.0
440,109.75,26.741,29.0285,187.255,102.351,103.329,0.00347773,0.0770196,20.9873,-938.771,-0.087526,0.0,0.0
442,110.25,26.4859,29.1307,185.184,102.36,103.79,0.00348845,0.0768762,20.9876,-938.771,-0.12776,0.0,0.0
444,110.75,26.5616,29.3899,180.103,102.359,103.504,0.00350739,0.0767457,20.9879,-938.751,-0.102512,0.0,0.0
446,111.25,26.8085,29.0898,180.163,102.352,103.391,0.00352207,0.0766271,20.9882,-938.731,-0.0930577,0.0,0.0
448,111.75,26.4724,29.4649,181.957,102.353,103.517,0.00353335,0.0765311,20.9884,-938.721,-0.104203,0.0,0.0
450,112.25,26.2085,28.9128,183.257,102.356,103.46,0.00353444,0.0764533,20.9886,-938.681,-0.098808,0.0,0.0
452,112.75,26.5352,29.4237,180.907,102.34,103.781,0.00352808,0.0763359,20.9888,-938.701,-0.128846,0.0,0.0
454,113.25,26.6717,29.1082,180.692,102.349,103.737,0.00351689,0.0762409,20.9889,-938.711,-0.124041,0.0,0.0
456,113.75,25.9076,29.12,180.136,102.341,103.314,0.0035024,0.0761853,20.989,-938.691,-0.0871308,0.0,0.0
458,114.25,26.6924,29.5699,184.163,102.339,103.411,0.00349066,0.0761596,20.9891,-938.741,-0.0960073,0.0,0.0
460,114.75,25.8067,28.935,180.763,102.345,103.615,0.00348115,0.0761603,20.9892,-938.721,-0.113586,0.0,0.0
462,115.25,26.0968,29.1731,181.365,102.351,103.558,0.00347345,0.0761801,20.9892,-938.701,-0.107977,0.0,0.0
464,115.75,26.3095,29.3036,180.871,102.346,104.309,0.00347231,0.0762176,20.9893,-938.721,-0.175025,0.0,0.0
466,116.25,26.1205,28.6466,184.724,102.347,103.673,0.00347138,0.0762673,20.9893,-938.741,-0.118542,0.0,0.0
468,116.75,25.9581,28.0177,179.528,102.33,104.074,0.00347063,0.0763075,20.9893,-938.751,-0.155622,0.0,0.0
470,117.25,26.2303,28.6273,183.829,102.348,103.615,0.00346111,0.0763673,20.9893,-938.781,-0.113282,0.0,0.0
472,117.75,25.5176,28.5293,187.334,102.342,103.356,0.00345339,0.0764157,20.9894,-938.741,-0.0908148,0.0,0.0
474,118.25,26.3866,28.3948,187.145,102.34,103.421,0.00343307,0.0764413,20.9894,-938.741,-0.0967667,0.0,0.0
476,118.75,26.0218,28.6181,179.687,102.34,104.241,0.00340395,0.076462,20.9894,-938.741,-0.169447,0.0,0.0
478,119.25,25.3857,28.9384,184.087,102.351,104.209,0.00336629,0.0764645,20.9894,-938.761,-0.165772,0.0,0.0
480,119.75,26.5708,28.7033,184.978,102.339,103.244,0.00332314,0.0764537,20.9894,-938.771,-0.0810588,0.0,0.0
482,120.25,26.3677,28.3151,180.157,102.34,103.678,0.00328082,0.0764449,20.9894,-938.781,-0.119651,0.0,0.0
484,120.75,25.8193,28.3675,181.595,102.335,103.415,0.00323992,0.0765873,20.989,-938.751,-0.0967124,0.0,0.0
486,121.25,26.2001,28.8487,180.582,102.342,103.446,0.00320813,0.0767026,20.9886,-938.791,-0.0987636,0.0,0.0
488,121.75,25.7572,28.9158,183.784,102.32,103.187,0.00318358,0.0769676,20.9879,-938.731,-0.0777048,0.0,0.0
490,122.25,26.0307,28.6947,185.339,102.361,103.334,0.00316838,0.0773369,20.9873,-938.701,-0.0871624,0.0,0.0
492,122.75,26.0484,28.8705,184.727,102.332,103.353,0.00316029,0.077636,20.9869,-938.731,-0.0914573,0.0,0.0
494,123.25,26.4593,28.4974,185.005,102.337,103.629,0.00315373,0.0781639,20.9865,-938.781,-0.11552,0.0,0.0
496,123.75,26.0617,28.6305,189.532,102.325,103.254,0.00316047,0.0787778,20.9862,-938.761,-0.0831968,0.0,0.0
498,124.25,25.4246,27.907,183.064,102.344,103.568,0.00317678,0.0794427,20.9855,-938.681,-0.109503,0.0,0.0
500,124.75,26.2442,28.4224,178.45,102.34,103.479,0.00320406,0.0801174,20.9849,-938.721,-0.101922,0.0,0.0
502,125.25,25.7102,28.4865,181.218,102.34,103.811,0.00323881,0.0807866,20.9845,-938.681,-0.131488,0.0,0.0
504,125.75,25.7252,28.7198,184.49,102.335,103.468,0.00326697,0.0813286,20.9841,-938.731,-0.101405,0.0,0.0
506,126.25,25.5787,28.8629,184.68,102.335,103.469,0.00331652,0.0819994,20.9836,-938.751,-0.101497,0.0,0.0
508,126.75,25.9618,28.4574,183.838,102.318,103.684,0.00335666,0.0825427,20.9829,-938.761,-0.122175,0.0,0.0
510,127.25,25.9176,28.0848,181.209,102.322,103.435,0.00340574,0.0830115,20.9824,-938.731,-0.0996626,0.0,0.0
512,127.75,25.6202,28.2459,183.492,102.334,103.79,0.0034455,0.083417,20.982,-938.721,-0.130126,0.0,0.0
514,128.25,25.5614,28.009,178.902,102.331,103.413,0.00349428,0.0837383,20.9817,-938.721,-0.0969076,0.0,0.0
516,128.75,25.2729,28.1565,183.361,102.311,103.473,0.00353379,0.0839921,20.9814,-938.721,-0.104028,0.0,0.0
518,129.25,25.1283,28.0295,179.659,102.329,103.452,0.00357721,0.0841977,20.9812,-938.731,-0.100576,0.0,0.0
520,129.75,25.6224,28.0265,183.48,102.316,103.548,0.00362266,0.0842552,20.981,-938.741,-0.110245,0.0,0.0
522,130.25,25.6419,28.4451,184.289,102.327,103.48,0.00365946,0.0843017,20.9809,-938.761,-0.103147,0.0,0.0
524,130.75,25.8914,28.858,178.928,102.315,103.557,0.003696,0.0842031,20.9808,-938.751,-0.111147,0.0,0.0
526,131.25,25.9936,28.2884,187.933,102.316,103.545,0.00373163,0.0841233,20.9807,-938.741,-0.109975,0.0,0.0
528,131.75,25.7533,28.3216,187.821,102.304,103.593,0.00375849,0.0839224,20.9806,-938.761,-0.115301,0.0,0.0
530,132.25,25.8939,28.2871,186.243,102.311,103.529,0.00377842,0.083637,20.9805,-938.761,-0.108996,0.0,0.0
532,132.75,25.7129,28.3188,183.019,102.32,103.461,0.00379457,0.0834059,20.9805,-938.781,-0.102209,0.0,0.0
534,133.25,25.6943,28.0576,188.426,102.312,103.812,0.00379824,0.0830144,20.9804,-938.781,-0.134082,0.0,0.0
536,133.75,25.7004,28.433,196.483,102.294,103.429,0.00379276,0.0826974,20.9806,-938.771,-0.101655,0.0,0.0
538,134.25,25.7579,28.2054,178.885,102.303,103.689,0.00378832,0.0823474,20.9807,-938.771,-0.123885,0.0,0.0
540,134.75,25.274,28.2891,176.141,102.299,103.736,0.00378089,0.0819801,20.9808,-938.771,-0.128513,0.0,0.0
542,135.25,25.8172,28.3324,192.147,102.303,103.495,0.00377756,0.0816827,20.9809,-938.761,-0.106706,0.0,0.0
544,135.75,25.9322,28.0826,183.491,102.283,103.94,0.00377728,0.0814417,20.9814,-938.771,-0.147945,0.0,0.0
546,136.25,26.1199,28.1827,177.947,102.312,103.866,0.00377706,0.0811241,20.9818,-938.751,-0.138841,0.0,0.0
548,136.75,25.8204,28.2377,184.456,102.298,103.424,0.00378198,0.0808668,20.9824,-938.771,-0.100848,0.0,0.0
550,137.25,25.7768,27.7949,177.324,102.294,103.745,0.00378596,0.0805496,20.983,-938.791,-0.129679,0.0,0.0
552,137.75,25.4195,28.749,178.587,102.278,103.352,0.00378919,0.0802926,20.9836,-938.781,-0.0961959,0.0,0.0
554,138.25,26.2705,28.9264,187.541,102.292,103.501,0.00378022,0.0799622,20.9839,-938.791,-0.108158,0.0,0.0
556,138.75,25.4835,28.6199,182.857,102.277,103.216,0.00377295,0.0796944,20.9841,-938.801,-0.084179,0.0,0.0
558,139.25,26.2494,28.2291,183.899,102.304,103.529,0.00375498,0.0794232,20.9843,-938.781,-0.109642,0.0,0.0
560,139.75,26.0762,28.2626,184.518,102.276,103.329,0.00372955,0.0792035,20.9844,-938.781,-0.0943438,0.0,0.0
562,140.25,25.9236,28.5562,183.844,102.289,103.213,0.00369554,0.0790256,20.9845,-938.791,-0.0828057,0.0,0.0
564,140.75,25.9739,27.7403,179.97,102.275,103.699,0.00365591,0.0787584,20.985,-938.771,-0.127406,0.0,0.0
566,141.25,25.6736,28.2646,187.474,102.268,103.331,0.00361108,0.078542,20.9855,-938.761,-0.0952057,0.0,0.0
568,141.75,26.0878,28.583,184.98,102.274,103.358,0.00356331,0.0783238,20.9858,-938.761,-0.0970486,0.0,0.0
570,142.25,25.7718,28.4741,182.935,102.266,103.447,0.00351188,0.0781085,20.9861,-938.761,-0.105705,0.0,0.0
572,142.75,25.6437,28.4819,179.211,102.266,103.535,0.00345877,0.077934,20.9863,-938.761,-0.113623,0.0,0.0
574,143.25,25.8759,28.0688,180.208,102.267,103.282,0.00340905,0.0777112,20.9865,-938.781,-0.0910016,0.0,0.0
576,143.75,26.0488,28.6361,178.208,102.262,103.895,0.00336276,0.0775308,20.9867,-938.771,-0.145916,0.0,0.0
578,144.25,25.9684,28.4004,188.589,102.252,103.402,0.00332526,0.0773574,20.9868,-938.771,-0.10301,0.0,0.0
580,144.75,25.6442,28.1583,178.904,102.254,103.33,0.00329488,0.077217,20.9869,-938.781,-0.0964538,0.0,0.0
582,145.25,25.6581,28.2236,184.656,102.257,103.985,0.00328428,0.0770761,20.9869,-938.801,-0.154403,0.0,0.0
584,145.75,26.0657,28.6751,181.986,102.27,103.329,0.00327568,0.0769619,20.987,-938.801,-0.0948685,0.0,0.0
586,146.25,25.6535,28.4721,178.112,102.246,103.974,0.00328781,0.0768831,20.9871,-938.811,-0.15434,0.0,0.0
588,146.75,25.5893,28.2285,183.886,102.255,103.483,0.00329764,0.0768192,20.9871,-938.801,-0.110015,0.0,0.0
590,147.25,26.3264,28.639,180.045,102.239,103.176,0.00332168,0.0767389,20.9871,-938.781,-0.0840256,0.0,0.0
592,147.75,25.6327,28.2915,179.628,102.239,103.338,0.00335564,0.0766481,20.9872,-938.771,-0.0984823,0.0,0.0
594,148.25,25.7659,28.6761,179.885,102.237,104.067,0.00339455,0.0765745,20.9872,-938.781,-0.163348,0.0,0.0
596,148.75,25.8313,28.7745,186.144,102.238,103.916,0.00343633,0.0765421,20.9872,-938.781,-0.149979,0.0,0.0
598,149.25,25.8399,28.9529,182.187,102.243,103.431,0.00347419,0.0765158,20.9872,-938.771,-0.106445,0.0,0.0
600,149.75,25.7724,29.0815,184.198,102.239,103.268,0.00350849,0.0765353,20.9872,-938.771,-0.0922214,0.0,0.0
602,150.25,25.9817,28.7453,184.624,102.233,103.359,0.00353627,0.0765511,20.9872,-938.761,-0.100956,0.0,0.0
604,150.75,25.7809,28.8551,182.065,102.239,103.541,0.00355112,0.0765639,20.9872,-938.771,-0.11656,0.0,0.0
606,151.25,25.8848,28.6256,181.821,102.22,103.421,0.00356315,0.0765742,20.9873,-938.771,-0.107582,0.0,0.0
608,151.75,26.1706,28.2874,188.576,102.219,103.595,0.00357289,0.0765469,20.9873,-938.761,-0.123166,0.0,0.0
610,152.25,25.7298,28.736,179.848,102.211,103.691,0.00355657,0.0764925,20.9877,-938.751,-0.13233,0.0,0.0
612,152.75,25.7538,28.3304,181.922,102.219,103.467,0.00354335,0.0764485,20.9881,-938.771,-0.111776,0.0,0.0
614,153.25,25.6699,28.6569,183.158,102.204,103.796,0.00351863,0.076345,20.9884,-938.781,-0.142355,0.0,0.0
616,153.75,25.4279,28.7725,180.98,102.206,104.391,0.00349861,0.0762611,20.9886,-938.771,-0.194791,0.0,0.0
618,154.25,26.3379,28.6699,183.932,102.202,102.972,0.00347984,0.0762003,20.9888,-938.781,-0.0691419,0.0,0.0
620,154.75,25.9865,28.7602,181.113,102.199,103.432,0.00346464,0.0761575,20.9889,-938.771,-0.110451,0.0,0.0
622,155.25,25.7524,28.4902,185.171,102.187,103.251,0.00345233,0.0761228,20.9891,-938.761,-0.0954015,0.0,0.0
624,155.75,26.0026,28.3211,180.511,102.2,103.452,0.00344236,0.0760947,20.9892,-938.751,-0.112145,0.0,0.0
626,156.25,25.8783,28.7638,184.289,102.19,103.901,0.00343428,0.076072,20.9892,-938.781,-0.152905,0.0,0.0
628,156.75,26.5365,28.794,183.455,102.188,103.536,0.00342505,0.0760536,20.9893,-938.741,-0.120674,0.0,0.0
630,157.25,25.9429,28.5181,180.217,102.192,103.646,0.00341517,0.0760386,20.9892,-938.751,-0.130064,0.0,0.0
632,157.75,26.2577,28.6456,182.181,102.191,103.331,0.00340716,0.0759979,20.9891,-938.751,-0.102173,0.0,0.0
634,158.25,25.7947,28.6566,183.159,102.181,102.894,0.00339738,0.0759393,20.9891,-938.741,-0.0640258,0.0,0.0
636,158.75,25.9718,28.4007,181.242,102.182,103.17,0.0033865,0.0758917,20.989,-938.741,-0.0886167,0.0,0.0
638,159.25,25.5877,28.1557,178.082,102.168,103.281,0.00337768,0.0758461,20.989,-938.751,-0.099818,0.0,0.0
640,159.75,25.7208,28.0942,181.084,102.168,103.409,0.00336162,0.0758027,20.9888,-938.741,-0.111275,0.0,0.0
642,160.25,25.8977,27.6006,181.163,102.17,103.901,0.00334862,0.0757675,20.9885,-938.761,-0.154732,0.0,0.0
644,160.75,25.6456,28.2292,183.473,102.176,103.455,0.00333675,0.0757533,20.9883,-938.761,-0.114548,0.0,0.0
646,161.25,26.1095,28.4134,185.305,102.165,103.093,0.00332593,0.0757418,20.9881,-938.761,-0.0833403,0.0,0.0
648,161.75,25.8064,28.1486,184.51,102.176,103.639,0.00331716,0.0757325,20.988,-938.771,-0.130985,0.0,0.0
650,162.25,25.7208,28.4699,186.393,102.153,103.57,0.00331006,0.075725,20.9883,-938.761,-0.126884,0.0,0.0
652,162.75,25.9112,28.67,179.239,102.174,103.455,0.0033023,0.0757188,20.9885,-938.761,-0.114785,0.0,0.0
654,163.25,25.4045,28.2591,181.814,102.158,103.421,0.0032942,0.0756996,20.9888,-938.771,-0.113218,0.0,0.0
656,163.75,25.5461,28.5915,186.897,102.166,103.261,0.00328497,0.0756711,20.9889,-938.751,-0.0982437,0.0,0.0
658,164.25,25.8881,28.3173,177.353,102.14,103.541,0.00327507,0.0756266,20.9891,-938.741,-0.125518,0.0,0.0
660,164.75,25.6594,28.2804,186.719,102.162,103.515,0.00326452,0.0755713,20.9892,-938.741,-0.121182,0.0,0.0
662,165.25,26.2493,28.2742,184.851,102.146,103.289,0.00325596,0.0755265,20.9893,-938.761,-0.102496,0.0,0.0
664,165.75,25.4967,28.3696,186.107,102.15,103.401,0.00324904,0.0754902,20.9893,-938.751,-0.112086,0.0,0.0
666,166.25,25.6541,28.2091,180.139,102.157,103.568,0.00325488,0.0754679,20.9894,-938.761,-0.126327,0.0,0.0
668,166.75,25.7108,28.2805,181.88,102.142,103.529,0.00325961,0.0754563,20.9894,-938.771,-0.124215,0.0,0.0
670,167.25,25.3418,28.5162,185.966,102.129,103.246,0.00328509,0.0754469,20.9893,-938.761,-0.100211,0.0,0.0
672,167.75,25.5627,28.1146,180.484,102.138,103.129,0.00330572,0.0754393,20.9889,-938.761,-0.0888662,0.0,0.0
674,168.25,25.718,28.4927,181.088,102.128,103.165,0.00333383,0.0754475,20.9886,-938.771,-0.0930749,0.0,0.0
676,168.75,25.8835,28.2029,178.735,102.138,103.302,0.00336686,0.0754669,20.9884,-938.771,-0.104343,0.0,0.0
678,169.25,25.295,27.9608,183.85,102.13,103.233,0.00339831,0.0754827,20.9882,-938.761,-0.0989645,0.0,0.0
680,169.75,25.7108,27.9025,181.513,102.149,103.485,0.00342801,0.0754954,20.988,-938.761,-0.119683,0.0,0.0
682,170.25,25.4579,28.5176,179.864,102.127,103.715,0.00345676,0.0755058,20.9879,-938.751,-0.14216,0.0,0.0
684,170.75,25.5722,28.4677,181.759,102.137,103.571,0.00348427,0.075507,20.9878,-938.761,-0.128433,0.0,0.0
686,171.25,25.8799,28.6332,182.299,102.128,103.007,0.00351126,0.0755015,20.9877,-938.761,-0.0789367,0.0,0.0
688,171.75,25.3431,28.301,180.085,102.128,103.589,0.00353734,0.0755114,20.9876,-938.731,-0.130846,0.0,0.0
690,172.25,25.695,27.7812,186.167,102.123,103.166,0.00355847,0.0755323,20.9876,-938.751,-0.0935867,0.0,0.0
692,172.75,25.8611,28.1021,188.733,102.132,103.524,0.00358498,0.0755421,20.9875,-938.761,-0.124713,0.0,0.0
694,173.25,25.9592,28.1473,180.175,102.115,103.372,0.00361491,0.0755435,20.9875,-938.771,-0.112659,0.0,0.0
696,173.75,26.2751,28.5528,180.327,102.122,103.647,0.00363647,0.0755447,20.9875,-938.781,-0.136519,0.0,0.0
698,174.25,25.6444,27.9599,176.673,102.117,103.385,0.00365152,0.0754914,20.9874,-938.771,-0.113666,0.0,0.0
700,174.75,25.4187,28.435,183.329,102.121,103.119,0.00365297,0.0754482,20.9874,-938.771,-0.0895912,0.0,0.0
702,175.25,25.4883,28.1369,183.032,102.12,103.736,0.00364448,0.0754267,20.9879,-938.781,-0.144582,0.0,0.0
704,175.75,25.6316,28.4984,181.552,102.13,103.608,0.00362486,0.0754094,20.9882,-938.791,-0.132407,0.0,0.0
706,176.25,25.7434,28.9458,189.554,102.117,103.393,0.00359749,0.0753953,20.9885,-938.791,-0.114362,0.0,0.0
708,176.75,25.6787,28.5906,179.859,102.12,103.348,0.0035646,0.0754111,20.9887,-938.761,-0.110067,0.0,0.0
710,177.25,25.3748,28.2554,180.407,102.132,103.252,0.00352831,0.0754239,20.9884,-938.761,-0.100447,0.0,0.0
712,177.75,25.6221,28.635,181.767,102.132,103.21,0.00349623,0.0754478,20.9882,-938.751,-0.0967296,0.0,0.0
714,178.25,25.759,28.5698,189.555,102.118,102.952,0.00346784,0.0754672,20.9881,-938.761,-0.0748673,0.0,0.0
716,178.75,25.803,28.9765,187.894,102.133,103.307,0.00344484,0.0754557,20.9879,-938.771,-0.105256,0.0,0.0
718,179.25,25.3373,28.3902,176.132,102.128,103.583,0.0034262,0.0754464,20.9878,-938.781,-0.130337,0.0,0.0
720,179.75,25.3209,28.4928,178.973,102.149,103.891,0.00341111,0.0754525,20.9878,-938.781,-0.155714,0.0,0.0
722,180.25,25.5544,28.4154,183.367,102.124,103.504,0.00340157,0.0754574,20.9878,-938.771,-0.1236,0.0,0.0
724,180.75,25.5315,29.0084,184.198,102.125,103.718,0.00339625,0.0754886,20.9878,-938.781,-0.142544,0.0,0.0
726,181.25,25.6718,28.1123,186.203,102.13,103.186,0.00339195,0.0755138,20.9878,-938.771,-0.0947908,0.0,0.0
728,181.75,25.739,27.8584,182.55,102.144,103.614,0.00341521,0.0755342,20.9878,-938.741,-0.131583,0.0,0.0
730,182.25,25.5455,28.4683,185.585,102.123,103.774,0.00343405,0.0755507,20.9878,-938.751,-0.147728,0.0,0.0
732,182.75,25.4359,27.8948,188.16,102.139,103.153,0.00347225,0.0755641,20.9878,-938.761,-0.0910149,0.0,0.0
734,183.25,25.772,28.4533,179.868,102.13,103.085,0.0035032,0.075575,20.9874,-938.741,-0.0857587,0.0,0.0
736,183.75,25.0486,28.2591,183.907,102.121,103.314,0.00353209,0.0755981,20.987,-938.741,-0.107011,0.0,0.0
738,184.25,26.0567,28.284,179.044,102.135,103.444,0.00355549,0.0756297,20.9867,-938.731,-0.117231,0.0,0.0
740,184.75,25.409,28.3124,182.897,102.113,103.223,0.00356807,0.0756552,20.9865,-938.751,-0.0995299,0.0,0.0
742,185.25,25.2623,27.931,181.08,102.127,103.407,0.00357826,0.0756624,20.9867,-938.761,-0.114662,0.0,0.0
744,185.75,25.6706,28.456,183.979,102.13,102.912,0.00357632,0.0756681,20.9869,-938.771,-0.0702587,0.0,0.0
746,186.25,25.2643,28.3807,183.631,102.126,103.832,0.00357474,0.0756864,20.9871,-938.751,-0.152637,0.0,0.0
748,186.75,25.7704,28.3493,185.81,102.128,103.211,0.00357347,0.0757012,20.9872,-938.741,-0.0971273,0.0,0.0
750,187.25,25.4507,28.3994,179.979,102.124,103.566,0.00356353,0.0757132,20.9873,-938.741,-0.129143,0.0,0.0
752,187.75,25.7798,28.327,179.064,102.135,103.685,0.00354655,0.0757229,20.9874,-938.751,-0.138761,0.0,0.0
754,188.25,25.567,28.5997,186.403,102.127,103.101,0.00352274,0.0757307,20.9875,-938.761,-0.0873835,0.0,0.0
756,188.75,25.5784,27.9694,180.4,102.134,103.227,0.0034944,0.0757371,20.9875,-938.771,-0.0980345,0.0,0.0
758,189.25,25.2783,27.5806,183.508,102.121,103.501,0.00345871,0.0757637,20.9876,-938.791,-0.123542,0.0,0.0
760,189.75,25.2723,28.0453,177.74,102.117,103.626,0.00342981,0.0758045,20.9876,-938.801,-0.135086,0.0,0.0
762,190.25,25.3161,27.7677,183.744,102.12,103.434,,0.0758219,,-938.791,-0.11776,0.0,0.0
764,190.75,25.1823,28.3196,179.219,102.11,103.659,,0.0758925,,-938.791,-0.13865,0.0,0.0
766,191.25,25.6316,27.7341,181.016,102.13,103.644,,0.0759496,,-938.781,-0.135517,0.0,0.0
768,191.75,25.0292,27.7417,182.238,102.117,103.45,,0.0759958,,-938.801,-0.119427,0.0,0.0
770,192.25,25.6342,28.079,179.307,102.12,103.405,,0.0760333,,-938.791,-0.115162,0.0,0.0
772,192.75,25.7901,28.0552,178.182,102.13,103.456,,0.0760561,,-938.781,-0.118755,0.0,0.0
774,193.25,25.2294,28.2461,179.623,102.124,103.823,,,,-938.791,-0.15192,0.0,0.0
776,193.75,25.2312,28.1489,180.862,102.11,103.663,,,,-938.791,-0.139058,0.0,0.0
778,194.25,25.4292,28.0959,179.385,102.122,102.881,,,,-938.791,-0.0681474,0.0,0.0
780,194.75,25.6883,27.9867,182.339,102.13,103.479,,,,-938.781,-0.12088,0.0,0.0
782,195.25,25.1615,28.0318,183.904,102.113,103.045,,,,-938.791,-0.0837464,0.0,0.0
784,195.75,25.1046,28.1092,181.005,102.112,103.35,,,,-938.791,-0.111015,0.0,0.0
786,196.25,25.762,28.2939,186.914,102.113,103.311,,,,-938.801,-0.107465,0.0,0.0
788,196.75,25.8093,28.2628,180.733,102.115,103.259,,,,-938.801,-0.10263,0.0,0.0
790,197.25,25.8307,28.3157,185.729,102.12,103.329,,,,-938.791,-0.108434,0.0,0.0
792,197.75,25.7061,28.27,180.35,102.108,102.861,,,,-938.791,-0.0676331,0.0,0.0
794,198.25,25.0818,27.9363,183.44,102.124,103.454,,,,-938.801,-0.119226,0.0,0.0
796,198.75,25.5933,28.4634,183.601,102.098,103.587,,,,-938.781,-0.133375,0.0,0.0
798,199.25,26.0205,27.9868,186.552,102.11,103.643,,,,-938.781,-0.137224,0.0,0.0
800,199.75,25.0819,28.118,182.542,102.11,103.952,,,,-938.771,-0.164658,0.0,0.0
802,200.25,25.9958,28.5485,181.69,102.114,103.293,,,,-938.801,-0.105764,0.0,0.0
804,200.75,25.6891,28.1759,185.94,102.102,103.187,,,,-938.801,-0.0974369,0.0,0.0