File: 01_Data/Bamboo_Rug_Bamboo/STA/N2/3K_min/Bamboo_Rug_A_STA_N2_3KData_220121_R1.csv
##Temp./Â°C,Time/min,Mass loss(subtr.2)/mg,DSC(subtr.2)/(mW/mg),Sensit./(uV/mW)
50.001,10.0158,-0.01437,0.009455549,1.06378
50.701,11.15168,-0.01778425,0.02993858,1.06362
51.401,11.54424,-0.01774901,0.04138521,1.06345
52.101,11.86484,-0.01652066,0.04689809,1.06328
52.801,12.15743,-0.01537711,0.04918843,1.06311
53.501,12.4362,-0.01645924,0.05447899,1.06294
54.201,12.7049,-0.01665063,0.0564085,1.06277
54.901,12.96848,-0.01882795,0.05890581,1.0626
55.601,13.2278,-0.01730656,0.05962542,1.06243
56.301,13.48436,-0.01710862,0.05430379,1.06226
57.001,13.73906,-0.01872158,0.05861538,1.06209
57.701,13.9917,-0.01876,0.06091184,1.06192
58.401,14.24245,-0.02019731,0.05742879,1.06175
59.101,14.4916,-0.02105863,0.05982571,1.06158
59.801,14.73859,-0.0197098,0.0618614,1.06141
60.501,14.9831,-0.01855025,0.06149724,1.06124
61.201,15.22584,-0.01986004,0.06242607,1.06107
61.901,15.4664,-0.01988538,0.06728598,1.0609
62.601,15.70555,-0.01854007,0.06666089,1.06072
63.301,15.9444,-0.0198549,0.0670823,1.06055
64.001,16.18469,-0.01985105,0.06686571,1.06038
64.701,16.42546,-0.02018998,0.06669319,1.06021
65.401,16.6665,-0.02151154,0.06623285,1.06003
66.101,16.90476,-0.0214842,0.0683905,1.05986
66.801,17.14197,-0.02117377,0.06955894,1.05969
67.501,17.3773,-0.02119002,0.07225984,1.05951
68.201,17.61209,-0.02183,0.07125645,1.05934
68.901,17.847,-0.02270362,0.07097334,1.05917
69.601,18.08186,-0.02183,0.07140834,1.05899
70.301,18.31812,-0.02347747,0.06946352,1.05882
71.001,18.55455,-0.02321035,0.06744222,1.05864
71.701,18.79087,-0.02365376,0.06793007,1.05847
72.401,19.0276,-0.02450562,0.06605659,1.05829
73.101,19.2633,-0.02381,0.06391766,1.05812
73.801,19.4992,-0.02513012,0.06458382,1.05794
74.501,19.7351,-0.0237118,0.06690418,1.05776
75.201,19.9712,-0.02445095,0.06505289,1.05759
75.901,20.20641,-0.02677222,0.06292266,1.05741
76.601,20.44197,-0.02677633,0.06369941,1.05724
77.301,20.67716,-0.02550386,0.06267673,1.05706
78.001,20.9124,-0.02577611,0.06142212,1.05688
78.701,21.1465,-0.02664613,0.06139331,1.0567
79.401,21.37927,-0.02565368,0.05952625,1.05653
80.101,21.61197,-0.02446354,0.05976435,1.05635
80.801,21.84524,-0.02574904,0.0578163,1.05617
81.501,22.07868,-0.02747423,0.06159891,1.05599
82.201,22.31165,-0.02829987,0.05924922,1.05581
82.901,22.5442,-0.0274324,0.06006599,1.05563
83.601,22.77731,-0.02708007,0.05935706,1.05545
84.301,23.01095,-0.02873997,0.05937632,1.05527
85.001,23.24532,-0.0295228,0.05824073,1.05509
85.701,23.48015,-0.02940628,0.05675472,1.05491
86.401,23.71544,-0.02807653,0.05509428,1.05473
87.101,23.94977,-0.02740032,0.05509562,1.05455
87.801,24.18366,-0.02875368,0.05328615,1.05437
88.501,24.41714,-0.03006012,0.05509295,1.05419
89.201,24.65127,-0.03003026,0.05194159,1.05401
89.901,24.8857,-0.02873996,0.05338251,1.05383
90.601,25.1199,-0.02960165,0.05248901,1.05365
91.301,25.35223,-0.0274847,0.05289198,1.05346
92.001,25.5852,-0.03022364,0.05452293,1.05328
92.701,25.81681,-0.02906994,0.05457515,1.0531
93.401,26.04901,-0.02742217,0.05570481,1.05292
94.101,26.27952,-0.02873952,0.05594464,1.05273
94.801,26.5107,-0.02806559,0.0542531,1.05255
95.501,26.74175,-0.02866672,0.05481328,1.05236
96.201,26.97291,-0.02939993,0.05336086,1.05218
96.901,27.2048,-0.03152421,0.05393792,1.052
97.601,27.43713,-0.02919209,0.05191481,1.05181
98.301,27.67012,-0.03039,0.05051538,1.05162
99.001,27.90291,-0.02984367,0.05303341,1.05144
99.701,28.13621,-0.03169828,0.05215589,1.05125
100.401,28.36993,-0.03090293,0.05312173,1.05107
101.101,28.60378,-0.03169192,0.05167644,1.05088
101.801,28.837,-0.03072,0.05279435,1.05069
102.501,29.0692,-0.03072,0.05279267,1.05051
103.201,29.30095,-0.03072003,0.05752908,1.05032
103.901,29.5328,-0.03136623,0.0517186,1.05013
104.601,29.7631,-0.03003756,0.05454416,1.04994
105.301,29.99297,-0.0317,0.05496124,1.04976
106.001,30.2226,-0.03169999,0.05374069,1.04957
106.701,30.4526,-0.03073242,0.05330682,1.04938
107.401,30.6831,-0.03335,0.05326673,1.04919
108.101,30.91415,-0.03369086,0.05292071,1.049
108.801,31.14592,-0.03268986,0.05634187,1.04881
109.501,31.37845,-0.0320297,0.0554845,1.04862
110.201,31.61065,-0.03616902,0.05425825,1.04843
110.901,31.8423,-0.03323744,0.05579961,1.04824
111.601,32.07462,-0.03334998,0.0541311,1.04805
112.301,32.30701,-0.03198225,0.05385882,1.04786
113.001,32.53882,-0.03060529,0.05562833,1.04766
113.701,32.7696,-0.03318161,0.05656207,1.04747
114.401,33,-0.03236,0.05669769,1.04728
115.101,33.23069,-0.03239168,0.05472423,1.04709
115.801,33.46071,-0.03237708,0.05701337,1.04689
116.501,33.69086,-0.03305557,0.05768596,1.0467
117.201,33.92138,-0.03431476,0.0557522,1.04651
117.901,34.15256,-0.03303516,0.05732355,1.04631
118.601,34.38426,-0.03433992,0.05743517,1.04612
119.301,34.61569,-0.03368132,0.05805939,1.04592
120.001,34.8466,-0.0360118,0.05801821,1.04573
120.701,35.07593,-0.03609077,0.05898596,1.04553
121.401,35.30537,-0.03532052,0.05764678,1.04534
122.101,35.53447,-0.03366587,0.06147937,1.04514
122.801,35.76397,-0.03499003,0.05860263,1.04494
123.501,35.99327,-0.03357288,0.05950173,1.04475
124.201,36.22357,-0.03520998,0.05992193,1.04455
124.901,36.45365,-0.03400628,0.05845983,1.04435
125.601,36.6845,-0.0332684,0.06057919,1.04415
126.301,36.91534,-0.03466998,0.06001399,1.04396
127.001,37.14715,-0.03401523,0.05883261,1.04376
127.701,37.37805,-0.03256551,0.05713902,1.04356
128.401,37.6098,-0.03401894,0.05783332,1.04336
129.101,37.8407,-0.03448937,0.06018487,1.04316
129.801,38.07138,-0.03498309,0.05981862,1.04296
130.501,38.30103,-0.03531725,0.05960957,1.04276
131.201,38.53175,-0.03532,0.06337416,1.04256
131.901,38.76292,-0.03595599,0.06034794,1.04236
132.601,38.9951,-0.03663995,0.05896186,1.04216
133.301,39.22718,-0.03598443,0.06033223,1.04195
134.001,39.45882,-0.03729999,0.06197841,1.04175
134.701,39.68952,-0.0373,0.0601716,1.04155
135.401,39.9191,-0.03826664,0.06181986,1.04135
136.101,40.14841,-0.03828,0.06073079,1.04114
136.801,40.3776,-0.03697017,0.06367332,1.04094
137.501,40.60783,-0.03827874,0.06217257,1.04073
138.201,40.83811,-0.0391468,0.06255045,1.04053
138.901,41.06791,-0.03795974,0.06303474,1.04032
139.601,41.2962,-0.03926253,0.06478788,1.04012
140.301,41.5255,-0.03895807,0.06280222,1.03991
141.001,41.75459,-0.03828541,0.06268631,1.03971
141.701,41.985,-0.04057934,0.06610742,1.0395
142.401,42.2141,-0.03927996,0.06478762,1.03929
143.101,42.44291,-0.04060157,0.06451842,1.03909
143.801,42.67092,-0.03959989,0.06511366,1.03888
144.501,42.89895,-0.04091787,0.06703299,1.03867
145.201,43.12703,-0.04089672,0.06621861,1.03846
145.901,43.35533,-0.04092,0.0664324,1.03825
146.601,43.58362,-0.04127811,0.06560211,1.03804
147.301,43.81354,-0.04027669,0.06601941,1.03783
148.001,44.0431,-0.04084617,0.06424399,1.03762
148.701,44.27422,-0.04124057,0.06284287,1.03741
149.401,44.50461,-0.04241145,0.06393795,1.0372
150.101,44.73585,-0.04419812,0.06626969,1.03699
150.801,44.96564,-0.04278,0.06534855,1.03678
151.501,45.19549,-0.04458245,0.06650077,1.03657
152.201,45.42408,-0.04263526,0.0676702,1.03635
152.901,45.65289,-0.04410001,0.0651764,1.03614
153.601,45.88138,-0.04471635,0.0665628,1.03593
154.301,46.11088,-0.04576874,0.06658146,1.03571
155.001,46.34025,-0.04500856,0.0685457,1.0355
155.701,46.5693,-0.04635955,0.06833838,1.03528
156.401,46.79756,-0.04680937,0.06890281,1.03507
157.101,47.02635,-0.04673728,0.06877438,1.03485
157.801,47.25528,-0.04668962,0.0673143,1.03464
158.501,47.48526,-0.04705453,0.06934603,1.03442
159.201,47.71427,-0.04838117,0.06971241,1.0342
159.901,47.94338,-0.04733788,0.06902916,1.03399
160.601,48.17194,-0.04871,0.07157977,1.03377
161.301,48.40068,-0.05007435,0.07352094,1.03355
162.001,48.629,-0.04893901,0.07238197,1.03333
162.701,48.85694,-0.05002981,0.07139708,1.03311
163.401,49.0856,-0.05101067,0.07196616,1.03289
164.101,49.31429,-0.05067609,0.07169095,1.03267
164.801,49.54383,-0.05167,0.07279911,1.03245
165.501,49.77282,-0.05261453,0.07330028,1.03223
166.201,50.00115,-0.05354452,0.07491865,1.03201
166.901,50.22847,-0.05363993,0.07736691,1.03179
167.601,50.45554,-0.05363979,0.07632216,1.03157
168.301,50.68295,-0.05495,0.07488034,1.03134
169.001,50.9111,-0.05494653,0.07451272,1.03112
169.701,51.13916,-0.0563856,0.07288424,1.0309
170.401,51.3675,-0.05626997,0.07700998,1.03067
171.101,51.59588,-0.0561034,0.0754896,1.03045
171.801,51.8249,-0.05693,0.07517581,1.03022
172.501,52.05406,-0.05842007,0.07476814,1.03
173.201,52.28246,-0.0582501,0.07335289,1.02977
173.901,52.5098,-0.05956972,0.07736125,1.02955
174.601,52.73757,-0.05882343,0.07584484,1.02932
175.301,52.9655,-0.06023,0.07723606,1.02909
176.001,53.19494,-0.06095011,0.07526348,1.02887
176.701,53.42386,-0.06078235,0.07752512,1.02864
177.401,53.65231,-0.06353643,0.08012718,1.02841
178.101,53.87933,-0.06351,0.07867127,1.02818
178.801,54.10629,-0.06330937,0.08111874,1.02795
179.501,54.33395,-0.06635074,0.08295946,1.02772
180.201,54.5619,-0.06605976,0.08283108,1.02749
180.901,54.7897,-0.06768073,0.08162426,1.02726
181.601,55.0172,-0.06731605,0.07995554,1.02703
182.301,55.2451,-0.06948906,0.08211875,1.02679
183.001,55.47404,-0.06897442,0.08188067,1.02656
183.701,55.70285,-0.06996406,0.08416052,1.02633
184.401,55.93133,-0.07135843,0.0858016,1.0261
185.101,56.158,-0.07162795,0.08483691,1.02586
185.801,56.3839,-0.0742434,0.08327419,1.02563
186.501,56.60944,-0.07426761,0.08609213,1.02539
187.201,56.8357,-0.07425252,0.08932499,1.02516
187.901,57.06305,-0.07556945,0.0883282,1.02492
188.601,57.28995,-0.07711585,0.08907828,1.02468
189.301,57.51794,-0.07917347,0.08724364,1.02445
190.001,57.74615,-0.07919,0.08962938,1.02421
190.701,57.97478,-0.07817998,0.08989955,1.02397
191.401,58.2026,-0.08114141,0.09073791,1.02373
192.101,58.43016,-0.08249,0.08953373,1.02349
192.801,58.6578,-0.08525597,0.08919351,1.02326
193.501,58.88519,-0.08509046,0.09000475,1.02302
194.201,59.1111,-0.08535001,0.09142492,1.02277
194.901,59.3378,-0.08774567,0.09209558,1.02253
195.601,59.56425,-0.09007837,0.09146634,1.02229
196.301,59.7921,-0.09038986,0.09198347,1.02205
197.001,60.01984,-0.09066328,0.09159714,1.02181
197.701,60.24736,-0.09300153,0.09201892,1.02156
198.401,60.47465,-0.09401912,0.09165708,1.02132
199.101,60.7012,-0.09671889,0.09114876,1.02108
199.801,60.92775,-0.09762702,0.09173551,1.02083
200.501,61.155,-0.09991106,0.09256205,1.02059
201.201,61.38279,-0.10058,0.09258677,1.02034
201.901,61.61124,-0.10233,0.09211026,1.0201
202.601,61.84007,-0.10443,0.09233257,1.01985
203.301,62.06896,-0.10432,0.0938772,1.0196
204.001,62.2981,-0.10752,0.09287859,1.01935
204.701,62.5273,-0.1075,0.09304156,1.01911
205.401,62.75597,-0.11016,0.09415571,1.01886
206.101,62.98411,-0.11023,0.09484222,1.01861
206.801,63.21128,-0.11196,0.09432706,1.01836
207.501,63.4388,-0.11274,0.09540151,1.01811
208.201,63.66633,-0.11308,0.09134217,1.01786
208.901,63.8938,-0.11707,0.09693194,1.0176
209.601,64.12063,-0.11968,0.09586965,1.01735
210.301,64.34789,-0.12099,0.0968116,1.0171
211.001,64.57496,-0.12231,0.09555365,1.01685
211.701,64.8022,-0.12459,0.09641767,1.01659
212.401,65.02855,-0.12579,0.0960092,1.01634
213.101,65.25623,-0.12884,0.09458136,1.01608
213.801,65.48371,-0.129,0.09453673,1.01583
214.501,65.7114,-0.13253,0.09517546,1.01557
215.201,65.939,-0.13335,0.09560336,1.01532
215.901,66.1671,-0.13579,0.09927826,1.01506
216.601,66.39562,-0.13842,0.09563898,1.0148
217.301,66.62374,-0.13946,0.0961364,1.01454
218.001,66.8519,-0.14172,0.09575896,1.01428
218.701,67.07979,-0.14434,0.09332208,1.01402
219.401,67.30836,-0.14697,0.09417456,1.01376
220.101,67.53628,-0.14968,0.09470457,1.0135
220.801,67.7634,-0.1516,0.09409905,1.01324
221.501,67.9888,-0.15424,0.09199376,1.01298
222.201,68.21421,-0.15688,0.09362943,1.01272
222.901,68.43997,-0.15684,0.09188055,1.01246
223.601,68.66601,-0.16047,0.0928022,1.01219
224.301,68.89318,-0.16213,0.08975731,1.01193
225.001,69.1204,-0.16605,0.09070889,1.01166
225.701,69.3476,-0.16874,0.08824529,1.0114
226.401,69.5753,-0.16995,0.08922525,1.01113
227.101,69.80329,-0.17359,0.0908121,1.01087
227.801,70.03125,-0.17756,0.0905863,1.0106
228.501,70.2582,-0.18022,0.09269188,1.01033
229.201,70.48499,-0.18285,0.09379351,1.01006
229.901,70.7116,-0.18815,0.09124397,1.0098
230.601,70.93822,-0.19076,0.09353244,1.00953
231.301,71.1645,-0.19333,0.09175229,1.00926
232.001,71.3913,-0.19472,0.09066164,1.00899
232.701,71.6185,-0.19975,0.0899856,1.00872
233.401,71.8463,-0.20262,0.09137107,1.00844
234.101,72.07369,-0.20714,0.08806621,1.00817
234.801,72.29988,-0.21181,0.08979407,1.0079
235.501,72.52594,-0.21576,0.09145265,1.00763
236.201,72.7526,-0.21994,0.08665527,1.00735
236.901,72.97926,-0.22396,0.08931481,1.00708
237.601,73.20707,-0.22912,0.08748211,1.0068
238.301,73.4345,-0.2346,0.08967658,1.00653
239.001,73.6627,-0.2384,0.09097603,1.00625
239.701,73.88969,-0.24495,0.0915953,1.00597
240.401,74.11686,-0.2488,0.09088404,1.0057
241.101,74.34384,-0.25399,0.09031465,1.00542
241.801,74.5705,-0.25992,0.09319338,1.00514
242.501,74.7972,-0.26514,0.09191303,1.00486
243.201,75.0237,-0.27056,0.09502967,1.00458
243.901,75.25117,-0.27652,0.09021481,1.0043
244.601,75.4798,-0.28168,0.09562867,1.00402
245.301,75.70917,-0.28855,0.09050067,1.00373
246.001,75.93863,-0.29528,0.08918426,1.00345
246.701,76.1677,-0.30243,0.08938155,1.00317
247.401,76.39621,-0.308,0.08997567,1.00289
248.101,76.62399,-0.3163,0.09320003,1.0026
248.801,76.85106,-0.32203,0.09440703,1.00232
249.501,77.07705,-0.33012,0.09839351,1.00203
250.201,77.30234,-0.33659,0.09734237,1.00174
250.901,77.52711,-0.34387,0.09897548,1.00146
251.601,77.7525,-0.35175,0.09921469,1.00117
252.301,77.97839,-0.36034,0.09598032,1.00088
253.001,78.20501,-0.36501,0.09640955,1.00059
253.701,78.43173,-0.37365,0.09703305,1.0003
254.401,78.65875,-0.38521,0.10033,1.00001
255.101,78.88648,-0.39076,0.10235,0.99972
255.801,79.11447,-0.39967,0.09951472,0.99943
256.501,79.3419,-0.40937,0.0945923,0.99914
257.201,79.56845,-0.41942,0.09206926,0.99885
257.901,79.79475,-0.42856,0.09058016,0.99855
258.601,80.02094,-0.43823,0.09182597,0.99826
259.301,80.24636,-0.44844,0.08972364,0.99796
260.001,80.47202,-0.45713,0.0922755,0.99767
260.701,80.69824,-0.46733,0.09192405,0.99737
261.401,80.92503,-0.477,0.08966602,0.99708
262.101,81.15173,-0.48801,0.08907242,0.99678
262.801,81.37794,-0.4992,0.08611793,0.99648
263.501,81.6045,-0.50914,0.08767164,0.99618
264.201,81.83064,-0.51904,0.08378017,0.99588
264.901,82.0583,-0.53011,0.08468298,0.99558
265.601,82.28658,-0.54216,0.08372256,0.99528
266.301,82.51585,-0.55382,0.08202193,0.99498
267.001,82.74501,-0.56565,0.08328072,0.99468
267.701,82.97414,-0.5765,0.08054461,0.99438
268.401,83.2029,-0.58765,0.08480531,0.99407
269.101,83.43092,-0.60023,0.08482458,0.99377
269.801,83.65835,-0.61232,0.08523933,0.99346
270.501,83.88495,-0.62452,0.08477271,0.99316
271.201,84.1111,-0.63695,0.08367464,0.99285
271.901,84.33704,-0.65059,0.08753135,0.99255
272.601,84.56219,-0.66232,0.08580228,0.99224
273.301,84.78769,-0.67487,0.08642706,0.99193
274.001,85.0135,-0.68705,0.08900544,0.99162
274.701,85.24079,-0.7011,0.08832095,0.99131
275.401,85.46879,-0.71265,0.08646463,0.991
276.101,85.69721,-0.72938,0.08442952,0.99069
276.801,85.9257,-0.74237,0.08509801,0.99038
277.501,86.1542,-0.75638,0.08499929,0.99007
278.201,86.3819,-0.76973,0.08626418,0.98976
278.901,86.60898,-0.78541,0.08704352,0.98944
279.601,86.83449,-0.79797,0.08756414,0.98913
280.301,87.05923,-0.81262,0.090537,0.98881
281.001,87.2838,-0.82862,0.08704755,0.9885
281.701,87.5094,-0.84206,0.08869883,0.98818
282.401,87.73615,-0.85663,0.08663136,0.98787
283.101,87.96399,-0.87102,0.08365728,0.98755
283.801,88.19314,-0.88545,0.08428429,0.98723
284.501,88.42257,-0.899,0.08314141,0.98691
285.201,88.65196,-0.91479,0.08372376,0.98659
285.901,88.88029,-0.92928,0.08659992,0.98627
286.601,89.10892,-0.94361,0.0836493,0.98595
287.301,89.33794,-0.96047,0.08760229,0.98563
288.001,89.567,-0.97528,0.08859554,0.98531
288.701,89.79557,-0.98917,0.08708557,0.98498
289.401,90.02329,-1.00439,0.08820708,0.98466
290.101,90.2514,-1.0179,0.08656928,0.98433
290.801,90.47978,-1.03513,0.08789102,0.98401
291.501,90.7101,-1.04983,0.086004,0.98368
292.201,90.9431,-1.0636,0.08483923,0.98336
292.901,91.17817,-1.07775,0.08298688,0.98303
293.601,91.41467,-1.09414,0.08274911,0.9827
294.301,91.65006,-1.11033,0.08079008,0.98237
295.001,91.88375,-1.12528,0.0839309,0.98204
295.701,92.11542,-1.14225,0.08545766,0.98171
296.401,92.34779,-1.15781,0.08807713,0.98138
297.101,92.57993,-1.17319,0.09113734,0.98105
297.801,92.8112,-1.18885,0.09197322,0.98072
298.501,93.0394,-1.20354,0.09370165,0.98038
299.201,93.26599,-1.21873,0.09332634,0.98005
299.901,93.49212,-1.23478,0.09301743,0.97971
300.601,93.71819,-1.24927,0.09576371,0.97938
301.301,93.9447,-1.26384,0.09362097,0.97904
302.001,94.17209,-1.27913,0.09510057,0.97871
302.701,94.40013,-1.29354,0.09568584,0.97837
303.401,94.62844,-1.3087,0.09486563,0.97803
304.101,94.85684,-1.32553,0.09485019,0.97769
304.801,95.08527,-1.33951,0.0966503,0.97735
305.501,95.31335,-1.35583,0.09938753,0.97701
306.201,95.54132,-1.37016,0.0982323,0.97667
306.901,95.76913,-1.38785,0.10028,0.97633
307.601,95.9974,-1.40404,0.10125,0.97599
308.301,96.22506,-1.41929,0.10211,0.97564
309.001,96.45302,-1.43448,0.10325,0.9753
309.701,96.6811,-1.45006,0.10551,0.97495
310.401,96.91003,-1.46619,0.10281,0.97461
311.101,97.13925,-1.48361,0.10364,0.97426
311.801,97.36888,-1.50045,0.10575,0.97391
312.501,97.598,-1.51677,0.10807,0.97357
313.201,97.82647,-1.53447,0.10765,0.97322
313.901,98.0545,-1.5523,0.11318,0.97287
314.601,98.28228,-1.56948,0.11321,0.97252
315.301,98.51021,-1.58728,0.115,0.97217
316.001,98.738,-1.60447,0.11566,0.97182
316.701,98.96629,-1.62361,0.11741,0.97146
317.401,99.19428,-1.64061,0.11917,0.97111
318.101,99.42257,-1.65948,0.12169,0.97076
318.801,99.65051,-1.6791,0.12262,0.9704
319.501,99.87921,-1.69761,0.12229,0.97005
320.201,100.107,-1.71839,0.12335,0.96969
320.901,100.3354,-1.73816,0.12583,0.96933
321.601,100.563,-1.75837,0.12578,0.96898
322.301,100.793,-1.7794,0.12828,0.96862
323.001,101.023,-1.80293,0.13081,0.96826
323.701,101.254,-1.82331,0.13186,0.9679
324.401,101.483,-1.84774,0.1347,0.96754
325.101,101.712,-1.86922,0.1373,0.96718
325.801,101.941,-1.89258,0.14121,0.96681
326.501,102.168,-1.91618,0.14494,0.96645
327.201,102.397,-1.94013,0.14692,0.96609
327.901,102.625,-1.96575,0.14905,0.96572
328.601,102.855,-1.99038,0.15204,0.96536
329.301,103.085,-2.01897,0.15491,0.96499
330.001,103.315,-2.04668,0.15569,0.96463
330.701,103.5448,-2.07283,0.16095,0.96426
331.401,103.774,-2.10343,0.16435,0.96389
332.101,104.003,-2.1339,0.16644,0.96352
332.801,104.2303,-2.16526,0.1685,0.96315
333.501,104.458,-2.19709,0.17017,0.96278
334.201,104.687,-2.22857,0.1731,0.96241
334.901,104.916,-2.26037,0.17499,0.96204
335.601,105.144,-2.29563,0.17469,0.96166
336.301,105.374,-2.32951,0.17138,0.96129
337.001,105.6035,-2.36356,0.16659,0.96092
337.701,105.833,-2.39716,0.16438,0.96054
338.401,106.063,-2.43104,0.15641,0.96016
339.101,106.293,-2.46388,0.15032,0.95979
339.801,106.522,-2.49634,0.141,0.95941
340.501,106.749,-2.5262,0.12804,0.95903
341.201,106.976,-2.55481,0.11619,0.95865
341.901,107.203,-2.58016,0.10654,0.95827
342.601,107.431,-2.60422,0.09154036,0.95789
343.301,107.6586,-2.62709,0.07880748,0.95751
344.001,107.886,-2.64636,0.06457694,0.95713
344.701,108.112,-2.66508,0.05482835,0.95674
345.401,108.339,-2.67892,0.04422934,0.95636
346.101,108.566,-2.69369,0.03352845,0.95598
346.801,108.794,-2.70657,0.02408162,0.95559
347.501,109.022,-2.71523,0.0173117,0.9552
348.201,109.252,-2.7252,0.01045487,0.95482
348.901,109.482,-2.73445,0.0036773,0.95443
349.601,109.713,-2.74169,0.000363861,0.95404
350.301,109.943,-2.74797,-0.003729476,0.95365
351.001,110.173,-2.7532,-0.00650894,0.95326
351.701,110.402,-2.76038,-0.00918374,0.95287
352.401,110.631,-2.76392,-0.01217749,0.95248
353.101,110.86,-2.76879,-0.01106302,0.95208
353.801,111.088,-2.77409,-0.01551159,0.95169
354.501,111.317,-2.77944,-0.01666269,0.9513
355.201,111.546,-2.78414,-0.01539019,0.9509
355.901,111.777,-2.78821,-0.01676013,0.95051
356.601,112.007,-2.79206,-0.01637459,0.95011
357.301,112.237,-2.7961,-0.0164748,0.94971
358.001,112.467,-2.79733,-0.01882503,0.94931
358.701,112.695,-2.80397,-0.01610916,0.94891
359.401,112.922,-2.80644,-0.01840023,0.94851
360.101,113.15,-2.81049,-0.01956121,0.94811
360.801,113.379,-2.81205,-0.01870231,0.94771
361.501,113.609,-2.81612,-0.02046326,0.94731
362.201,113.841,-2.81871,-0.02081033,0.94691
362.901,114.072,-2.82234,-0.0218703,0.9465
363.601,114.303,-2.82367,-0.02244027,0.9461
364.301,114.5319,-2.82665,-0.02204221,0.94569
365.001,114.761,-2.83018,-0.02280625,0.94529
365.701,114.989,-2.83287,-0.02271731,0.94488
366.401,115.218,-2.83675,-0.02262636,0.94447
367.101,115.447,-2.83816,-0.0264933,0.94406
367.801,115.676,-2.83812,-0.02549114,0.94365
368.501,115.906,-2.8418,-0.02665348,0.94324
369.201,116.137,-2.84524,-0.02593252,0.94283
369.901,116.368,-2.84706,-0.02629502,0.94242
370.601,116.598,-2.85198,-0.02898784,0.94201
371.301,116.828,-2.85333,-0.03002391,0.94159
372.001,117.06,-2.8568,-0.02867526,0.94118
372.701,117.291,-2.85972,-0.03199062,0.94076
373.401,117.522,-2.86102,-0.03003446,0.94035
374.101,117.753,-2.86382,-0.02875139,0.93993
374.801,117.983,-2.86677,-0.02890951,0.93951
375.501,118.213,-2.87037,-0.03124995,0.93909
376.201,118.443,-2.87299,-0.03075947,0.93867
376.901,118.672,-2.87435,-0.03309132,0.93825
377.601,118.901,-2.87633,-0.03299878,0.93783
378.301,119.129,-2.8787,-0.03584875,0.93741
379.001,119.356,-2.88091,-0.03324427,0.93699
379.701,119.5839,-2.88354,-0.03544244,0.93656
380.401,119.812,-2.88654,-0.03392831,0.93614
381.101,120.042,-2.88776,-0.03670026,0.93571
381.801,120.2729,-2.89049,-0.03553579,0.93529
382.501,120.504,-2.89321,-0.03779986,0.93486
383.201,120.735,-2.89573,-0.03829639,0.93443
383.901,120.967,-2.89769,-0.0378281,0.93401
384.601,121.199,-2.89965,-0.04312733,0.93358
385.301,121.431,-2.90352,-0.04326041,0.93315
386.001,121.6631,-2.90573,-0.0442775,0.93272
386.701,121.895,-2.90728,-0.04257247,0.93228
387.401,122.1273,-2.90846,-0.04270901,0.93185
388.101,122.359,-2.91233,-0.04536388,0.93142
388.801,122.59,-2.91476,-0.04360113,0.93098
389.501,122.82,-2.91745,-0.04445529,0.93055
390.201,123.051,-2.91841,-0.04236797,0.93011
390.901,123.282,-2.92101,-0.04242722,0.92968
391.601,123.511,-2.92237,-0.04177311,0.92924
392.301,123.741,-2.92244,-0.0409268,0.9288
393.001,123.97,-2.92777,-0.04280358,0.92836
393.701,124.201,-2.92892,-0.04079233,0.92792
394.401,124.431,-2.93125,-0.0405752,0.92748
395.101,124.661,-2.93298,-0.04300689,0.92704
395.801,124.89,-2.93421,-0.04283921,0.92659
396.501,125.12,-2.93608,-0.04419466,0.92615
397.201,125.35,-2.93815,-0.04452166,0.92571
397.901,125.58,-2.94079,-0.04439925,0.92526
398.601,125.811,-2.94211,-0.04643232,0.92482
399.301,126.041,-2.94509,-0.04374927,0.92437
400.001,126.271,-2.94639,-0.04313383,0.92392
400.701,126.501,-2.94739,-0.04334105,0.92347
401.401,126.732,-2.95001,-0.04378984,0.92302
402.101,126.962,-2.9512,-0.04390344,0.92257
402.801,127.193,-2.95258,-0.04506714,0.92212
403.501,127.423,-2.95527,-0.04369504,0.92167
404.201,127.654,-2.95895,-0.04215781,0.92122
404.901,127.885,-2.96021,-0.04562618,0.92076
405.601,128.116,-2.9612,-0.04205787,0.92031
406.301,128.348,-2.96217,-0.04402512,0.91986
407.001,128.579,-2.96416,-0.04500585,0.9194
407.701,128.81,-2.96528,-0.04311444,0.91894
408.401,129.042,-2.96807,-0.04336719,0.91848
409.101,129.272,-2.96898,-0.04433615,0.91803
409.801,129.502,-2.96937,-0.04474483,0.91757
410.501,129.732,-2.97338,-0.04776702,0.91711
411.201,129.962,-2.97453,-0.04415081,0.91665
411.901,130.192,-2.97602,-0.04821631,0.91618
412.601,130.423,-2.97872,-0.04620516,0.91572
413.301,130.653,-2.98062,-0.04507359,0.91526
414.001,130.885,-2.9809,-0.04472649,0.91479
414.701,131.117,-2.98358,-0.04733806,0.91433
415.401,131.349,-2.98621,-0.04405286,0.91386
416.101,131.58,-2.98614,-0.04594935,0.91339
416.801,131.811,-2.98823,-0.04325728,0.91293
417.501,132.042,-2.99018,-0.04350483,0.91246
418.201,132.273,-2.99082,-0.04395206,0.91199
418.901,132.5033,-2.99206,-0.04555209,0.91152
419.601,132.733,-2.99608,-0.04465473,0.91105
420.301,132.962,-2.99609,-0.04416403,0.91057
421.001,133.192,-2.99893,-0.04507284,0.9101
421.701,133.422,-3.00074,-0.04625502,0.90963
422.401,133.652,-3.00006,-0.04748109,0.90915
423.101,133.882,-3.00529,-0.04384943,0.90868
423.801,134.112,-3.00562,-0.04534918,0.9082
424.501,134.344,-3.00694,-0.04646522,0.90772
425.201,134.575,-3.00792,-0.04701285,0.90725
425.901,134.807,-3.00957,-0.04523061,0.90677
426.601,135.039,-3.0106,-0.04409869,0.90629
427.301,135.272,-3.01253,-0.04693445,0.90581
428.001,135.504,-3.01385,-0.04539198,0.90533
428.701,135.7359,-3.01515,-0.04489855,0.90484
429.401,135.968,-3.01648,-0.04404772,0.90436
430.101,136.2,-3.01747,-0.04382922,0.90388
430.801,136.432,-3.01973,-0.04323059,0.90339
431.501,136.663,-3.02013,-0.04139903,0.90291
432.201,136.894,-3.02156,-0.04348093,0.90242
432.901,137.125,-3.02273,-0.04242712,0.90193
433.601,137.355,-3.02503,-0.04026568,0.90145
434.301,137.586,-3.02454,-0.04081886,0.90096
435.001,137.816,-3.02702,-0.03772575,0.90047
435.701,138.046,-3.02767,-0.0392118,0.89998
436.401,138.276,-3.02866,-0.03548132,0.89948
437.101,138.506,-3.03032,-0.03354516,0.89899
437.801,138.736,-3.03162,-0.03263993,0.8985
438.501,138.967,-3.03228,-0.03247764,0.89801
439.201,139.199,-3.03293,-0.03172209,0.89751
439.901,139.432,-3.0359,-0.03298571,0.89701
440.601,139.665,-3.03686,-0.02667808,0.89652
441.301,139.8984,-3.03853,-0.0291844,0.89602
442.001,140.131,-3.03952,-0.026512,0.89552
442.701,140.364,-3.04039,-0.02529497,0.89502
443.401,140.595,-3.03967,-0.02187577,0.89452
444.101,140.826,-3.04211,-0.02284743,0.89402
444.801,141.057,-3.04106,-0.02545897,0.89352
445.501,141.287,-3.04236,-0.02316044,0.89302
446.201,141.518,-3.04368,-0.02333873,0.89251
446.901,141.7495,-3.04533,-0.02533221,0.89201
447.601,141.981,-3.04664,-0.02325736,0.89151
448.301,142.212,-3.04796,-0.02287376,0.891
449.001,142.444,-3.05005,-0.02466713,0.89049
449.701,142.674,-3.05081,-0.02538786,0.88999
450.401,142.905,-3.05109,-0.02379038,0.88948
451.101,143.136,-3.0539,-0.0238843,0.88897
451.801,143.3673,-3.05362,-0.02481086,0.88846
452.501,143.599,-3.05554,-0.02799902,0.88795
453.201,143.832,-3.05553,-0.0279974,0.88743
453.901,144.064,-3.05651,-0.03029721,0.88692
454.601,144.295,-3.05783,-0.02896978,0.88641
455.301,144.526,-3.05788,-0.02887047,0.88589
456.001,144.758,-3.06042,-0.02792096,0.88538
456.701,144.991,-3.06043,-0.02975479,0.88486
457.401,145.224,-3.06079,-0.02699721,0.88435
458.101,145.458,-3.06356,-0.02779785,0.88383
458.801,145.691,-3.06311,-0.03171445,0.88331
459.501,145.925,-3.06442,-0.03332057,0.88279
460.201,146.159,-3.06473,-0.03403269,0.88227
460.901,146.392,-3.06736,-0.03817777,0.88175
461.601,146.626,-3.06775,-0.04372327,0.88123
462.301,146.86,-3.0687,-0.04494824,0.8807
463.001,147.093,-3.07002,-0.04515139,0.88018
463.701,147.325,-3.07133,-0.05040137,0.87966
464.401,147.557,-3.0713,-0.05189828,0.87913
465.101,147.789,-3.07183,-0.05564304,0.8786
465.801,148.021,-3.07396,-0.05514428,0.87808
466.501,148.254,-3.07398,-0.05545392,0.87755
467.201,148.487,-3.07528,-0.05715977,0.87702
467.901,148.719,-3.07591,-0.05866759,0.87649
468.601,148.951,-3.07758,-0.05658601,0.87596
469.301,149.1827,-3.0789,-0.05897014,0.87543
470.001,149.415,-3.07989,-0.06070404,0.8749
470.701,149.647,-3.08122,-0.06116906,0.87436
471.401,149.88,-3.07968,-0.06421045,0.87383
472.101,150.111,-3.0812,-0.06154574,0.8733
472.801,150.343,-3.08251,-0.06462092,0.87276
473.501,150.575,-3.0825,-0.0609495,0.87222
474.201,150.808,-3.08383,-0.06577754,0.87169
474.901,151.041,-3.08383,-0.0645673,0.87115
475.601,151.2743,-3.08515,-0.06489635,0.87061
476.301,151.507,-3.08514,-0.06658561,0.87007
477.001,151.74,-3.08617,-0.06647227,0.86953
477.701,151.973,-3.08712,-0.06629882,0.86899
478.401,152.206,-3.08844,-0.06779771,0.86845
479.101,152.438,-3.08985,-0.06840405,0.8679
479.801,152.67,-3.0898,-0.06889158,0.86736
480.501,152.901,-3.08995,-0.07006788,0.86681
481.201,153.132,-3.09107,-0.06856334,0.86627
481.901,153.364,-3.0924,-0.07387298,0.86572
482.601,153.597,-3.0937,-0.07513621,0.86518
483.301,153.83,-3.0937,-0.07745683,0.86463
484.001,154.064,-3.09501,-0.07690773,0.86408
484.701,154.295,-3.09464,-0.07906673,0.86353
485.401,154.527,-3.09568,-0.08037333,0.86298
486.101,154.758,-3.09567,-0.07996094,0.86243
486.801,154.991,-3.09699,-0.08039948,0.86188
487.501,155.225,-3.09699,-0.08232744,0.86132
488.201,155.46,-3.09895,-0.08237372,0.86077
488.901,155.696,-3.09724,-0.08493006,0.86021
489.601,155.931,-3.0999,-0.0836861,0.85966
490.301,156.164,-3.10127,-0.08503501,0.8591
491.001,156.397,-3.10226,-0.08324999,0.85854
491.701,156.628,-3.10227,-0.08648074,0.85799
492.401,156.86,-3.10521,-0.08835927,0.85743
493.101,157.092,-3.10556,-0.08902741,0.85687
493.801,157.324,-3.10522,-0.09148723,0.85631
494.501,157.557,-3.10751,-0.09022774,0.85575
495.201,157.791,-3.10633,-0.09187017,0.85518
495.901,158.026,-3.10854,-0.09102345,0.85462
496.601,158.26,-3.10889,-0.09488587,0.85406
497.301,158.4937,-3.10851,-0.09791582,0.85349
498.001,158.726,-3.10929,-0.09820708,0.85293
498.701,158.956,-3.10972,-0.10154,0.85236
499.401,159.187,-3.11049,-0.09938213,0.85179
500.101,159.419,-3.11049,-0.10435,0.85123
500.801,159.65,-3.11246,-0.10245,0.85066
501.501,159.883,-3.1118,-0.1049,0.85009
502.201,160.118,-3.11373,-0.10588,0.84952
502.901,160.352,-3.11509,-0.10873,0.84895
503.601,160.586,-3.1159,-0.10812,0.84837
504.301,160.819,-3.11542,-0.10864,0.8478
505.001,161.053,-3.11544,-0.11112,0.84723
505.701,161.2853,-3.11802,-0.11255,0.84665
506.401,161.517,-3.11871,-0.1134,0.84608
507.101,161.75,-3.11802,-0.10999,0.8455
507.801,161.982,-3.11805,-0.11408,0.84492
508.501,162.215,-3.11966,-0.11524,0.84435
509.201,162.446,-3.11838,-0.1146,0.84377
509.901,162.679,-3.11904,-0.11852,0.84319
510.601,162.912,-3.11937,-0.11853,0.84261
511.301,163.1457,-3.11993,-0.11888,0.84203
512.001,163.381,-3.11934,-0.11985,0.84145
512.701,163.617,-3.12101,-0.11726,0.84086
513.401,163.855,-3.122,-0.12024,0.84028
514.101,164.092,-3.12192,-0.11919,0.8397
514.801,164.328,-3.12429,-0.12017,0.83911
515.501,164.5627,-3.1243,-0.12049,0.83853
516.201,164.796,-3.1243,-0.1195,0.83794
516.901,165.028,-3.12563,-0.12007,0.83735
517.601,165.26,-3.12464,-0.12006,0.83676
518.301,165.492,-3.12723,-0.12063,0.83617
519.001,165.725,-3.12488,-0.1239,0.83558
519.701,165.958,-3.12628,-0.1217,0.83499
520.401,166.191,-3.12629,-0.12177,0.8344
521.101,166.422,-3.12725,-0.12119,0.83381
521.801,166.654,-3.12731,-0.12003,0.83322
522.501,166.887,-3.12891,-0.11964,0.83262
523.201,167.121,-3.13023,-0.12089,0.83203
523.901,167.355,-3.13155,-0.12311,0.83143
524.601,167.588,-3.13155,-0.12111,0.83084
525.301,167.82,-3.13273,-0.11925,0.83024
526.001,168.053,-3.13425,-0.12106,0.82964
526.701,168.288,-3.13319,-0.11897,0.82904
527.401,168.523,-3.13319,-0.11935,0.82844
528.101,168.759,-3.13418,-0.12077,0.82784
528.801,168.994,-3.13541,-0.11976,0.82724
529.501,169.228,-3.13576,-0.11958,0.82664
530.201,169.461,-3.13636,-0.11767,0.82604
530.901,169.694,-3.13789,-0.1163,0.82543
531.601,169.928,-3.1387,-0.11603,0.82483
532.301,170.162,-3.13812,-0.11764,0.82422
533.001,170.395,-3.13812,-0.11881,0.82362
533.701,170.628,-3.13816,-0.11738,0.82301
534.401,170.861,-3.13845,-0.11968,0.82241
535.101,171.095,-3.14109,-0.11847,0.8218
535.801,171.3273,-3.14172,-0.11676,0.82119
536.501,171.561,-3.14043,-0.11584,0.82058
537.201,171.794,-3.1424,-0.11692,0.81997
537.901,172.028,-3.14273,-0.11664,0.81936
538.601,172.2616,-3.1437,-0.11743,0.81874
539.301,172.496,-3.14372,-0.11907,0.81813
540.001,172.733,-3.14372,-0.1184,0.81752
540.701,172.969,-3.1454,-0.12142,0.8169
541.401,173.2046,-3.14571,-0.11827,0.81629
542.101,173.439,-3.1447,-0.11849,0.81567
542.801,173.674,-3.14601,-0.11773,0.81506
543.501,173.908,-3.14734,-0.11936,0.81444
544.201,174.141,-3.14734,-0.11975,0.81382
544.901,174.374,-3.14865,-0.11856,0.8132
545.601,174.607,-3.14864,-0.12156,0.81258
546.301,174.84,-3.14899,-0.11789,0.81196
547.001,175.073,-3.1503,-0.12195,0.81134
547.701,175.306,-3.15159,-0.12178,0.81072
548.401,175.539,-3.15033,-0.12184,0.81009
549.101,175.773,-3.15066,-0.12178,0.80947
549.801,176.008,-3.15065,-0.12046,0.80885
550.501,176.243,-3.15256,-0.11658,0.80822
551.201,176.477,-3.15258,-0.11799,0.8076
551.901,176.71,-3.15082,-0.11918,0.80697
552.601,176.943,-3.15293,-0.11654,0.80634
553.301,177.176,-3.15292,-0.1152,0.80571
554.001,177.409,-3.15576,-0.11553,0.80508
554.701,177.642,-3.15425,-0.11741,0.80445
555.401,177.876,-3.15523,-0.11456,0.80382
556.101,178.111,-3.15487,-0.11323,0.80319
556.801,178.347,-3.15524,-0.11618,0.80256
557.501,178.582,-3.1559,-0.11502,0.80193
558.201,178.818,-3.15627,-0.11482,0.80129
558.901,179.053,-3.15758,-0.11607,0.80066
559.601,179.29,-3.15801,-0.11642,0.80003
560.301,179.528,-3.15754,-0.11264,0.79939
561.001,179.765,-3.15752,-0.11292,0.79875
561.701,180,-3.15885,-0.11392,0.79812
562.401,180.2335,-3.16149,-0.1133,0.79748
563.101,180.466,-3.15918,-0.11265,0.79684
563.801,180.699,-3.15984,-0.11399,0.7962
564.501,180.932,-3.15984,-0.11139,0.79556
565.201,181.166,-3.16083,-0.10913,0.79492
565.901,181.4,-3.16346,-0.10976,0.79428
566.601,181.635,-3.16081,-0.10959,0.79363
567.301,181.87,-3.16346,-0.10949,0.79299
568.001,182.105,-3.16379,-0.10561,0.79235
568.701,182.34,-3.16445,-0.10772,0.7917
569.401,182.575,-3.16346,-0.1057,0.79106
570.101,182.809,-3.16381,-0.10765,0.79041
570.801,183.043,-3.16477,-0.10547,0.78977
571.501,183.276,-3.16591,-0.1039,0.78912
572.201,183.509,-3.16639,-0.10274,0.78847
572.901,183.742,-3.16534,-0.10198,0.78782
573.601,183.9752,-3.16544,-0.10174,0.78717
574.301,184.209,-3.16532,-0.10279,0.78652
575.001,184.443,-3.16641,-0.10196,0.78587
575.701,184.677,-3.16675,-0.10614,0.78522
576.401,184.9121,-3.16739,-0.10028,0.78456
577.101,185.148,-3.16839,-0.10486,0.78391
577.801,185.383,-3.16806,-0.10207,0.78326
578.501,185.618,-3.16903,-0.1005,0.7826
579.201,185.8544,-3.16905,-0.0983616,0.78195
579.901,186.092,-3.17037,-0.10084,0.78129
580.601,186.329,-3.17039,-0.0980467,0.78063
581.301,186.565,-3.17037,-0.10025,0.77998
582.001,186.8,-3.17105,-0.09764505,0.77932
582.701,187.034,-3.17037,-0.09492476,0.77866
583.401,187.268,-3.17247,-0.09769776,0.778
584.101,187.502,-3.17169,-0.09638715,0.77734
584.801,187.736,-3.17168,-0.09320601,0.77668
585.501,187.97,-3.17301,-0.09097189,0.77602
586.201,188.204,-3.17301,-0.0913544,0.77535
586.901,188.438,-3.17301,-0.09219485,0.77469
587.601,188.673,-3.173,-0.09439545,0.77403
588.301,188.909,-3.17341,-0.09255069,0.77336
589.001,189.145,-3.17335,-0.09032496,0.7727
589.701,189.38,-3.17333,-0.0908128,0.77203
590.401,189.615,-3.17399,-0.09013757,0.77136
591.101,189.85,-3.17399,-0.0884484,0.7707
591.801,190.086,-3.17401,-0.0916285,0.77003
592.501,190.321,-3.17532,-0.08961708,0.76936
593.201,190.555,-3.17754,-0.09034607,0.76869
593.901,190.788,-3.17533,-0.08539544,0.76802
594.601,191.022,-3.17626,-0.08770672,0.76735
595.301,191.256,-3.1765,-0.0844434,0.76668
596.001,191.491,-3.17699,-0.08674545,0.76601
596.701,191.729,-3.17663,-0.08244634,0.76533
597.401,191.966,-3.17729,-0.08588582,0.76466
598.101,192.203,-3.17687,-0.08624979,0.76399
598.801,192.44,-3.17826,-0.08806583,0.76331
599.501,192.677,-3.17933,-0.08800813,0.76264
600.201,192.913,-3.17794,-0.08804195,0.76196
600.901,193.149,-3.17794,-0.0855992,0.76128
601.601,193.384,-3.17827,-0.0861552,0.7606
602.301,193.618,-3.1786,-0.08448507,0.75993
603.001,193.852,-3.17989,-0.08569085,0.75925
603.701,194.085,-3.17988,-0.08444157,0.75857
604.401,194.318,-3.18123,-0.07947247,0.75789
605.101,194.551,-3.18222,-0.0774717,0.75721
605.801,194.784,-3.18222,-0.07694813,0.75653
606.501,195.0174,-3.18252,-0.07954892,0.75584
607.201,195.252,-3.18254,-0.07971737,0.75516
607.901,195.488,-3.18255,-0.08003957,0.75448
608.601,195.726,-3.18287,-0.08415311,0.75379
609.301,195.964,-3.18419,-0.08246878,0.75311
610.001,196.203,-3.18287,-0.08427264,0.75242
610.701,196.441,-3.18551,-0.08410784,0.75174
611.401,196.677,-3.18432,-0.08539463,0.75105
612.101,196.912,-3.18419,-0.08201557,0.75036
612.801,197.146,-3.18564,-0.0822254,0.74967
613.501,197.379,-3.18551,-0.07827922,0.74899
614.201,197.614,-3.18553,-0.08279626,0.7483
614.901,197.848,-3.18552,-0.07999003,0.74761
615.601,198.084,-3.18583,-0.07990616,0.74692
616.301,198.319,-3.18688,-0.08055987,0.74622
617.001,198.554,-3.18749,-0.08191685,0.74553
617.701,198.79,-3.18889,-0.08399567,0.74484
618.401,199.026,-3.18749,-0.08445335,0.74415
619.101,199.261,-3.1888,-0.08601677,0.74345
619.801,199.496,-3.1887,-0.08290242,0.74276
620.501,199.7297,-3.18846,-0.08275571,0.74206
621.201,199.965,-3.18946,-0.08363077,0.74137
621.901,200.199,-3.18946,-0.07818492,0.74067
622.601,200.434,-3.18946,-0.07872254,0.73998
623.301,200.6685,-3.18849,-0.07647433,0.73928
624.001,200.904,-3.18977,-0.0778821,0.73858
624.701,201.14,-3.19012,-0.07970167,0.73788
625.401,201.376,-3.18994,-0.07835082,0.73718
626.101,201.613,-3.18985,-0.07933959,0.73648
626.801,201.848,-3.1911,-0.07796335,0.73578
627.501,202.0832,-3.1911,-0.0753775,0.73508
628.201,202.319,-3.1911,-0.07703182,0.73438
628.901,202.555,-3.19096,-0.07294713,0.73368
629.601,202.791,-3.19255,-0.07316367,0.73297
630.301,203.027,-3.19215,-0.07286899,0.73227
631.001,203.262,-3.19281,-0.07135521,0.73156
631.701,203.4968,-3.19209,-0.0695501,0.73086
632.401,203.73,-3.192,-0.06848474,0.73015
633.101,203.963,-3.19176,-0.07091301,0.72945
633.801,204.1963,-3.19302,-0.06957584,0.72874
634.501,204.431,-3.19307,-0.0677053,0.72803
635.201,204.667,-3.19373,-0.07118058,0.72733
635.901,204.904,-3.1921,-0.07261479,0.72662
636.601,205.14,-3.19242,-0.07143077,0.72591
637.301,205.376,-3.19388,-0.07021017,0.7252
638.001,205.612,-3.19373,-0.07154371,0.72449
638.701,205.849,-3.19506,-0.0708293,0.72378
639.401,206.085,-3.1927,-0.07261436,0.72307
640.101,206.323,-3.19537,-0.06966861,0.72236
640.801,206.559,-3.19402,-0.07129175,0.72164
641.501,206.795,-3.19632,-0.07289797,0.72093
642.201,207.031,-3.19505,-0.06959561,0.72022
642.901,207.266,-3.19637,-0.06723415,0.7195
643.601,207.502,-3.19571,-0.07278686,0.71879
644.301,207.738,-3.1943,-0.07226272,0.71807
645.001,207.974,-3.19716,-0.07063661,0.71736
645.701,208.211,-3.19571,-0.07247128,0.71664
646.401,208.4486,-3.1967,-0.07125409,0.71592
647.101,208.685,-3.1967,-0.07168496,0.71521
647.801,208.921,-3.19555,-0.06962858,0.71449
648.501,209.156,-3.19569,-0.07277557,0.71377
649.201,209.391,-3.19702,-0.07584946,0.71305
649.901,209.625,-3.19623,-0.07070703,0.71233
650.601,209.8608,-3.1967,-0.07084175,0.71161
651.301,210.097,-3.19657,-0.0717918,0.71089
652.001,210.333,-3.19867,-0.06683233,0.71017
652.701,210.569,-3.19736,-0.06846079,0.70945
653.401,210.805,-3.19736,-0.07122391,0.70872
654.101,211.041,-3.19736,-0.06913968,0.708
654.801,211.276,-3.1976,-0.06877573,0.70728
655.501,211.51,-3.19737,-0.0706544,0.70655
656.201,211.744,-3.19735,-0.07055572,0.70583
656.901,211.978,-3.19735,-0.06728124,0.7051
657.601,212.213,-3.19867,-0.06909558,0.70438
658.301,212.449,-3.19768,-0.06986,0.70365
659.001,212.686,-3.19792,-0.06700023,0.70292
659.701,212.924,-3.19864,-0.06677477,0.7022
660.401,213.162,-3.19801,-0.06738401,0.70147
661.101,213.3994,-3.19932,-0.06716703,0.70074
661.801,213.635,-3.19867,-0.06825279,0.70001
662.501,213.87,-3.19918,-0.0681532,0.69928
663.201,214.106,-3.19931,-0.06552841,0.69855
663.901,214.342,-3.19966,-0.06257598,0.69782
664.601,214.578,-3.19867,-0.06264554,0.69709
665.301,214.814,-3.19999,-0.06369197,0.69636
666.001,215.05,-3.20097,-0.06390822,0.69563
666.701,215.285,-3.20131,-0.06260947,0.6949
667.401,215.52,-3.20275,-0.06510235,0.69416
668.101,215.755,-3.20131,-0.0646459,0.69343
668.801,215.99,-3.2013,-0.06850277,0.6927
669.501,216.226,-3.2013,-0.06568479,0.69196
670.201,216.463,-3.20262,-0.06881954,0.69123
670.901,216.7,-3.20196,-0.06868162,0.69049
671.601,216.938,-3.20325,-0.06980774,0.68975
672.301,217.175,-3.20191,-0.06636998,0.68902
673.001,217.411,-3.20229,-0.06576052,0.68828
673.701,217.648,-3.20229,-0.06709913,0.68754
674.401,217.883,-3.20295,-0.06264324,0.68681
675.101,218.118,-3.20361,-0.0656275,0.68607
675.801,218.353,-3.20361,-0.06737804,0.68533
676.501,218.587,-3.20557,-0.06264367,0.68459
677.201,218.821,-3.20426,-0.06504111,0.68385
677.901,219.055,-3.20587,-0.06322476,0.68311
678.601,219.29,-3.20454,-0.0619221,0.68237
679.301,219.5267,-3.20394,-0.06479031,0.68163
680.001,219.765,-3.2039,-0.06585956,0.68089
680.701,220.003,-3.2046,-0.06858016,0.68014
681.401,220.241,-3.20459,-0.06527557,0.6794
682.101,220.479,-3.20459,-0.06718657,0.67866
682.801,220.715,-3.20327,-0.07284037,0.67791
683.501,220.951,-3.20407,-0.07043037,0.67717
684.201,221.187,-3.20323,-0.06854562,0.67643
684.901,221.422,-3.20459,-0.07081966,0.67568
685.601,221.656,-3.20459,-0.06539945,0.67494
686.301,221.891,-3.20463,-0.06548891,0.67419
687.001,222.127,-3.20622,-0.0677648,0.67344
687.701,222.364,-3.20718,-0.06421545,0.6727
688.401,222.6,-3.20722,-0.06490881,0.67195
689.101,222.836,-3.20814,-0.05915993,0.6712
689.801,223.073,-3.20722,-0.06293308,0.67045
690.501,223.3099,-3.20722,-0.06855701,0.66971
691.201,223.546,-3.20722,-0.06768254,0.66896
691.901,223.782,-3.20821,-0.07041927,0.66821
692.601,224.017,-3.20953,-0.07019176,0.66746
693.301,224.2517,-3.20821,-0.07518742,0.66671
694.001,224.487,-3.20916,-0.07379863,0.66596
694.701,224.723,-3.21067,-0.07511354,0.66521
695.401,224.96,-3.20989,-0.07492094,0.66445
696.101,225.198,-3.20983,-0.07553426,0.6637
696.801,225.436,-3.20995,-0.07571869,0.66295
697.501,225.6741,-3.21018,-0.07655945,0.6622
698.201,225.912,-3.21225,-0.07339703,0.66144
698.901,226.149,-3.21195,-0.07540944,0.66069
699.601,226.384,-3.21194,-0.08063849,0.65994
700.301,226.619,-3.21194,-0.07956378,0.65918
701.001,226.854,-3.21227,-0.08270117,0.65843
701.701,227.089,-3.21324,-0.07677157,0.65767
702.401,227.325,-3.21229,-0.08064766,0.65692
703.101,227.562,-3.21326,-0.08081772,0.65616
703.801,227.8,-3.21195,-0.08709144,0.6554
704.501,228.037,-3.21457,-0.08881285,0.65465
705.201,228.275,-3.21318,-0.08651318,0.65389
705.901,228.512,-3.21391,-0.08870137,0.65313
706.601,228.747,-3.21387,-0.0886149,0.65237
707.301,228.982,-3.21325,-0.08793712,0.65162
708.001,229.217,-3.21518,-0.08918569,0.65086
708.701,229.453,-3.21458,-0.08984854,0.6501
709.401,229.689,-3.2146,-0.09275579,0.64934
710.101,229.924,-3.2159,-0.09362015,0.64858
710.801,230.161,-3.21526,-0.09321816,0.64782
711.501,230.398,-3.21517,-0.0955323,0.64706
712.201,230.634,-3.21526,-0.0929099,0.6463
712.901,230.869,-3.21557,-0.09508205,0.64553
713.601,231.1051,-3.21589,-0.09618369,0.64477
714.301,231.341,-3.21783,-0.09771821,0.64401
715.001,231.577,-3.21754,-0.10045,0.64325
715.701,231.814,-3.21754,-0.10337,0.64249
716.401,232.053,-3.21917,-0.10577,0.64172
717.101,232.293,-3.21864,-0.10518,0.64096
717.801,232.534,-3.22015,-0.1083,0.64019
718.501,232.7735,-3.21885,-0.11211,0.63943
719.201,233.01,-3.21984,-0.11365,0.63867
719.901,233.244,-3.21949,-0.11302,0.6379
720.601,233.479,-3.21846,-0.11136,0.63714
721.301,233.715,-3.21885,-0.11225,0.63637
722.001,233.951,-3.21885,-0.1122,0.6356
722.701,234.187,-3.21912,-0.11218,0.63484
723.401,234.424,-3.21918,-0.1214,0.63407
724.101,234.661,-3.22047,-0.11476,0.6333
724.801,234.899,-3.22017,-0.11666,0.63254
725.501,235.137,-3.21885,-0.12088,0.63177
726.201,235.375,-3.22017,-0.12298,0.631
726.901,235.613,-3.21969,-0.1232,0.63023
727.601,235.85,-3.21984,-0.12944,0.62946
728.301,236.087,-3.21984,-0.12788,0.6287
729.001,236.3232,-3.22086,-0.12797,0.62793
729.701,236.559,-3.22115,-0.1314,0.62716
730.401,236.794,-3.21984,-0.12857,0.62639
731.101,237.029,-3.22119,-0.12706,0.62562
731.801,237.264,-3.21984,-0.12867,0.62485
732.501,237.501,-3.21947,-0.12942,0.62408
733.201,237.738,-3.21951,-0.13266,0.6233
733.901,237.976,-3.22186,-0.1357,0.62253
734.601,238.214,-3.22144,-0.13692,0.62176
735.301,238.451,-3.22043,-0.13571,0.62099
736.001,238.688,-3.22313,-0.13229,0.62022
736.701,238.925,-3.22314,-0.13665,0.61944
737.401,239.1616,-3.22315,-0.13604,0.61867
738.101,239.397,-3.22314,-0.14283,0.6179
738.801,239.633,-3.22314,-0.1392,0.61712
739.501,239.87,-3.22313,-0.13619,0.61635
740.201,240.108,-3.22577,-0.13844,0.61558
740.901,240.346,-3.22445,-0.13741,0.6148
741.601,240.585,-3.22445,-0.1436,0.61403
742.301,240.823,-3.22509,-0.1461,0.61325
743.001,241.062,-3.22509,-0.14693,0.61248
743.701,241.3,-3.22543,-0.1475,0.6117
744.401,241.538,-3.22459,-0.14654,0.61093
745.101,241.775,-3.22543,-0.1508,0.61015
745.801,242.011,-3.22477,-0.15391,0.60937
746.501,242.245,-3.22444,-0.15234,0.6086
747.201,242.48,-3.22576,-0.15562,0.60782
747.901,242.716,-3.22544,-0.1557,0.60704
748.601,242.952,-3.22544,-0.15452,0.60627
749.301,243.189,-3.22388,-0.155,0.60549
750.001,243.427,-3.22497,-0.15994,0.60471
750.701,243.664,-3.22511,-0.15677,0.60393
751.401,243.902,-3.22458,-0.15709,0.60315
752.101,244.139,-3.22577,-0.16256,0.60238
752.801,244.376,-3.22577,-0.16695,0.6016
753.501,244.612,-3.22594,-0.16614,0.60082
754.201,244.848,-3.2261,-0.16742,0.60004
754.901,245.084,-3.22712,-0.16755,0.59926
755.601,245.3195,-3.22708,-0.17161,0.59848
756.301,245.557,-3.22708,-0.17518,0.5977
757.001,245.793,-3.22708,-0.17216,0.59692
757.701,246.03,-3.22775,-0.1788,0.59614
758.401,246.267,-3.22807,-0.17338,0.59536
759.101,246.504,-3.22975,-0.17507,0.59458
759.801,246.742,-3.22863,-0.18137,0.5938
760.501,246.981,-3.23037,-0.18135,0.59302
761.201,247.219,-3.23078,-0.17845,0.59223
761.901,247.456,-3.22795,-0.17909,0.59145
762.601,247.694,-3.23037,-0.18075,0.59067
763.301,247.933,-3.22905,-0.18209,0.58989
764.001,248.17,-3.22972,-0.17888,0.58911
764.701,248.407,-3.2307,-0.17662,0.58832
765.401,248.643,-3.23004,-0.17452,0.58754
766.101,248.878,-3.23136,-0.17336,0.58676
766.801,249.113,-3.23135,-0.18025,0.58598
767.501,249.349,-3.23269,-0.18612,0.58519
768.201,249.586,-3.23136,-0.18614,0.58441
768.901,249.825,-3.23267,-0.18346,0.58362
769.601,250.065,-3.23267,-0.18788,0.58284
770.301,250.303,-3.23404,-0.18857,0.58206
771.001,250.541,-3.233,-0.18889,0.58127
771.701,250.778,-3.23333,-0.18438,0.58049
772.401,251.015,-3.23333,-0.18426,0.5797
773.101,251.251,-3.23201,-0.18117,0.57892
773.801,251.487,-3.23192,-0.18506,0.57813
774.501,251.724,-3.23233,-0.18815,0.57735
775.201,251.962,-3.23306,-0.18532,0.57656
775.901,252.2,-3.23301,-0.18819,0.57578
776.601,252.439,-3.23301,-0.18553,0.57499
777.301,252.678,-3.23301,-0.18263,0.57421
778.001,252.915,-3.23168,-0.18136,0.57342
778.701,253.1523,-3.23432,-0.1848,0.57264
779.401,253.3895,-3.23432,-0.18341,0.57185
780.101,253.628,-3.23299,-0.18136,0.57106
780.801,253.866,-3.23334,-0.18437,0.57028
781.501,254.104,-3.23461,-0.18558,0.56949
782.201,254.341,-3.23368,-0.19073,0.5687
782.901,254.579,-3.23357,-0.18934,0.56792
783.601,254.817,-3.23366,-0.18812,0.56713
784.301,255.054,-3.23498,-0.19563,0.56634
785.001,255.29,-3.23498,-0.19201,0.56555
785.701,255.527,-3.23432,-0.19219,0.56477
786.401,255.764,-3.23465,-0.19519,0.56398
787.101,256,-3.23464,-0.19685,0.56319
787.801,256.235,-3.23463,-0.1957,0.5624
788.501,256.47,-3.23667,-0.19936,0.56162
789.201,256.706,-3.23497,-0.20019,0.56083
789.901,256.944,-3.23497,-0.19981,0.56004
790.601,257.184,-3.23498,-0.20254,0.55925
791.301,257.425,-3.23501,-0.20499,0.55846
792.001,257.666,-3.23596,-0.21337,0.55767
792.701,257.906,-3.23465,-0.2107,0.55689
793.401,258.1452,-3.23366,-0.21513,0.5561
794.101,258.382,-3.2363,-0.21647,0.55531
794.801,258.618,-3.23488,-0.2169,0.55452
795.501,258.855,-3.23597,-0.21438,0.55373
796.201,259.091,-3.23497,-0.21776,0.55294
796.901,259.328,-3.23626,-0.21767,0.55215
797.601,259.564,-3.2363,-0.21469,0.55136
798.301,259.801,-3.23629,-0.22265,0.55057
798.801,259.968,-3.23761,-0.22576,0.55001