File: 01_Data/Rubber_Foam_Pipe_Insulation/MCC/Rubber_Foam_Pipe_Insulation_MCC_30K_min_220127_R3.txt
Sample ID:	C:\MCC\MCC Cal\Test\Rubber_Foam_Pipe_Insulation_MCC_30K_min_220127_R3.txt
Sample Weight (mg):	4.83
Heating Rate (C/s):	0.5
Combustor Temp (C):	900
N2 Flow Rate (cc/min):	80
O2 Flow Rate (cc/min):	20
Calibration File:	C:\MCC\MCC Cal\Coeff1 JN10440_30_210304.txt.txt
T Correction Coefficients:	0	1.024463	0
Time Shift (s):	14
*
Time (s)	Temperature (C)	N2 flow rate (cc/min)	O2 flow rate (cc/min)	Flow Rate (cc/min)	Oxygen (%)	HRR (W/g)	Heating rate (C/s)
0.000	114.299	80.011	19.995	103.744	20.035	0.258	-0.007
2.000	114.244	80.010	19.994	103.754	20.037	0.134	-0.002
4.000	114.241	80.010	19.993	103.742	20.039	-0.002	-0.034
6.000	114.290	80.011	19.994	103.744	20.037	0.139	0.012
8.000	114.223	80.013	19.993	103.741	20.039	0.009	-0.059
10.000	114.208	80.014	19.992	103.742	20.037	0.132	-0.014
12.000	114.214	80.013	19.992	103.748	20.039	0.009	-0.008
14.000	114.230	80.013	19.993	103.762	20.037	0.174	-0.021
16.000	114.255	80.011	19.994	103.760	20.037	0.171	0.013
18.000	114.247	80.010	19.992	103.774	20.039	0.029	0.014
20.000	114.213	80.010	19.994	103.775	20.039	0.002	-0.013
22.000	114.218	80.010	19.994	103.778	20.036	0.194	-0.001
24.000	114.246	80.009	19.994	103.784	20.034	0.376	0.026
26.000	114.305	80.009	19.994	103.809	20.026	0.912	0.017
28.000	114.318	80.010	19.996	103.846	20.023	1.061	0.020
30.000	114.369	80.010	19.994	103.867	20.024	1.032	0.068
32.000	114.509	80.010	19.995	103.867	20.020	1.276	0.072
34.000	114.605	80.010	19.994	103.883	20.015	1.640	0.068
36.000	114.799	80.011	19.994	103.926	20.010	1.936	0.114
38.001	114.931	80.011	19.995	103.939	20.008	2.096	0.126
40.000	115.100	80.010	19.993	103.942	20.007	2.171	0.089
42.000	115.372	80.011	19.993	103.961	20.002	2.483	0.141
44.000	115.624	80.009	19.994	103.976	19.999	2.713	0.118
46.000	115.910	80.008	19.994	103.980	20.000	2.615	0.134
48.000	116.285	80.008	19.993	103.975	19.999	2.737	0.167
50.000	116.631	80.009	19.994	103.966	20.000	2.647	0.208
52.001	117.026	80.009	19.994	103.953	19.997	2.836	0.187
54.000	117.447	80.009	19.994	103.968	19.998	2.744	0.218
56.000	117.851	80.009	19.995	103.963	20.000	2.647	0.194
58.000	118.325	80.009	19.995	103.974	19.996	2.875	0.222
60.000	118.832	80.009	19.994	103.976	19.993	3.131	0.262
62.000	119.332	80.009	19.995	103.975	19.989	3.394	0.271
64.000	119.871	80.011	19.994	103.976	19.989	3.360	0.282
66.000	120.378	80.010	19.994	103.992	19.992	3.157	0.261
68.000	120.937	80.011	19.994	103.997	19.990	3.329	0.266
70.000	121.584	80.010	19.994	103.994	19.991	3.260	0.322
72.000	122.183	80.010	19.993	104.010	19.987	3.517	0.332
74.001	122.768	80.009	19.993	104.013	19.987	3.533	0.312
76.000	123.446	80.011	19.993	104.010	19.986	3.578	0.344
78.000	124.132	80.011	19.993	104.018	19.983	3.774	0.344
80.001	124.815	80.010	19.994	104.017	19.982	3.861	0.337
82.000	125.579	80.010	19.993	104.026	19.984	3.682	0.385
84.001	126.310	80.011	19.993	104.020	19.987	3.543	0.373
86.000	127.078	80.011	19.994	104.020	19.989	3.377	0.394
88.000	127.832	80.012	19.994	104.022	19.984	3.734	0.368
90.001	128.621	80.012	19.993	104.026	19.988	3.418	0.392
92.000	129.431	80.012	19.994	104.019	19.986	3.554	0.380
94.000	130.252	80.012	19.994	104.018	19.986	3.602	0.375
96.001	131.054	80.011	19.992	104.019	19.984	3.738	0.399
98.000	131.937	80.013	19.992	104.021	19.982	3.827	0.442
100.000	132.833	80.011	19.993	104.022	19.985	3.679	0.415
102.000	133.728	80.008	19.994	104.019	19.980	3.993	0.422
104.000	134.612	80.010	19.993	104.024	19.983	3.771	0.447
106.000	135.487	80.008	19.993	104.022	19.981	3.885	0.426
108.001	136.402	80.009	19.992	104.020	19.984	3.686	0.464
110.001	137.350	80.009	19.992	104.020	19.985	3.669	0.475
112.000	138.247	80.010	19.993	104.025	19.986	3.590	0.439
114.001	139.245	80.009	19.994	104.033	19.983	3.813	0.500
116.000	140.158	80.010	19.993	104.031	19.983	3.747	0.494
118.000	141.076	80.010	19.993	104.021	19.986	3.576	0.466
120.000	142.040	80.010	19.994	104.018	19.982	3.818	0.477
122.000	143.044	80.010	19.995	104.016	19.982	3.849	0.500
124.000	143.997	80.010	19.993	104.018	19.981	3.897	0.508
126.000	145.020	80.010	19.993	104.015	19.983	3.778	0.488
128.000	146.001	80.010	19.993	104.019	19.984	3.682	0.467
130.000	147.015	80.010	19.994	104.014	19.983	3.778	0.509
132.000	147.993	80.009	19.994	104.015	19.983	3.791	0.492
134.000	149.011	80.008	19.993	104.015	19.980	3.969	0.513
136.000	149.986	80.010	19.993	104.016	19.978	4.114	0.508
138.000	150.961	80.010	19.994	104.016	19.980	3.971	0.456
140.000	152.031	80.010	19.993	104.016	19.984	3.728	0.514
142.000	153.044	80.009	19.993	104.017	19.980	3.970	0.522
144.000	154.047	80.011	19.993	104.021	19.982	3.814	0.514
146.000	155.057	80.011	19.994	104.016	19.979	4.022	0.487
148.000	156.050	80.012	19.994	104.018	19.976	4.241	0.519
150.000	157.096	80.011	19.994	104.020	19.980	4.009	0.548
152.000	158.105	80.012	19.996	104.014	19.976	4.230	0.516
154.000	159.168	80.011	19.994	104.011	19.979	4.041	0.511
156.000	160.225	80.010	19.995	104.015	19.981	3.895	0.531
158.000	161.303	80.010	19.994	104.016	19.973	4.470	0.548
160.000	162.292	80.009	19.994	104.017	19.975	4.292	0.477
162.000	163.343	80.008	19.994	104.017	19.972	4.529	0.557
164.000	164.414	80.010	19.992	104.017	19.971	4.556	0.526
166.000	165.448	80.012	19.992	104.017	19.971	4.584	0.533
168.000	166.523	80.011	19.993	104.007	19.972	4.501	0.542
170.000	167.594	80.011	19.992	104.015	19.971	4.593	0.529
172.000	168.613	80.012	19.993	104.011	19.969	4.740	0.508
174.001	169.683	80.011	19.992	104.006	19.972	4.495	0.533
176.000	170.731	80.012	19.993	104.005	19.971	4.610	0.545
178.000	171.754	80.011	19.993	104.004	19.970	4.684	0.510
180.000	172.807	80.013	19.992	103.997	19.970	4.677	0.504
182.000	173.864	80.009	19.992	104.005	19.969	4.728	0.521
184.000	174.904	80.009	19.992	104.000	19.969	4.739	0.520
186.000	175.956	80.010	19.994	103.984	19.969	4.730	0.537
188.000	176.980	80.011	19.993	103.980	19.964	5.056	0.542
190.000	178.031	80.010	19.993	103.986	19.966	4.898	0.512
192.000	179.051	80.010	19.994	103.985	19.965	4.999	0.507
194.000	180.083	80.009	19.993	103.992	19.965	4.961	0.491
196.000	181.125	80.011	19.994	103.982	19.961	5.257	0.529
198.000	182.142	80.010	19.993	103.975	19.964	5.038	0.502
200.000	183.107	80.010	19.993	103.974	19.962	5.207	0.461
202.000	184.136	80.011	19.994	103.975	19.963	5.132	0.499
204.000	185.182	80.011	19.992	103.976	19.960	5.293	0.507
206.000	186.237	80.010	19.992	103.977	19.964	5.074	0.521
208.000	187.211	80.013	19.994	103.977	19.964	5.033	0.480
210.000	188.181	80.011	19.993	103.977	19.958	5.480	0.482
212.000	189.109	80.010	19.993	103.973	19.957	5.497	0.441
214.000	190.104	80.009	19.993	103.972	19.958	5.471	0.458
216.000	191.076	80.010	19.993	103.973	19.953	5.768	0.480
218.000	192.034	80.010	19.994	103.961	19.954	5.692	0.489
220.000	192.987	80.009	19.993	103.963	19.956	5.580	0.470
222.000	193.857	80.010	19.993	103.970	19.954	5.757	0.440
224.000	194.854	80.009	19.995	103.964	19.950	6.026	0.474
226.000	195.758	80.010	19.994	103.953	19.953	5.821	0.462
228.000	196.688	80.010	19.993	103.955	19.955	5.635	0.496
230.000	197.554	80.010	19.993	103.945	19.950	5.970	0.428
232.000	198.506	80.011	19.993	103.949	19.944	6.383	0.458
234.000	199.413	80.011	19.992	103.945	19.950	5.988	0.467
236.000	200.332	80.012	19.993	103.951	19.949	6.079	0.434
238.001	201.277	80.011	19.993	103.945	19.948	6.139	0.492
240.000	202.130	80.012	19.993	103.949	19.946	6.243	0.448
242.000	203.054	80.010	19.993	103.952	19.944	6.403	0.440
244.000	203.992	80.011	19.993	103.944	19.945	6.357	0.476
246.000	204.869	80.011	19.994	103.941	19.942	6.500	0.452
248.000	205.712	80.011	19.996	103.949	19.940	6.640	0.429
250.000	206.627	80.010	19.995	103.974	19.940	6.680	0.423
252.000	207.554	80.010	19.995	103.976	19.939	6.748	0.437
254.000	208.500	80.010	19.994	103.975	19.937	6.895	0.490
256.000	209.408	80.012	19.994	103.975	19.933	7.115	0.469
258.000	210.293	80.013	19.994	103.974	19.929	7.384	0.437
260.000	211.297	80.013	19.994	103.974	19.931	7.279	0.498
262.000	212.180	80.013	19.993	103.976	19.926	7.579	0.452
264.000	213.141	80.012	19.993	103.981	19.926	7.581	0.479
266.000	214.112	80.012	19.993	103.977	19.923	7.794	0.506
268.000	215.082	80.010	19.994	103.978	19.922	7.855	0.496
270.000	216.040	80.010	19.993	103.978	19.918	8.159	0.507
272.000	217.019	80.011	19.993	103.980	19.917	8.211	0.497
274.000	218.006	80.011	19.994	103.992	19.911	8.620	0.516
276.000	218.946	80.010	19.993	103.983	19.908	8.837	0.511
278.000	220.004	80.010	19.994	103.990	19.904	9.067	0.504
280.000	220.988	80.010	19.994	103.999	19.901	9.277	0.511
282.000	221.982	80.010	19.993	104.009	19.896	9.640	0.482
284.000	223.021	80.011	19.993	104.008	19.893	9.858	0.496
286.000	224.016	80.010	19.993	104.005	19.886	10.292	0.510
288.000	225.066	80.010	19.993	104.010	19.879	10.759	0.524
290.000	226.069	80.010	19.993	104.017	19.873	11.135	0.517
292.000	227.115	80.011	19.994	104.017	19.872	11.250	0.534
294.000	228.174	80.010	19.992	104.006	19.862	11.883	0.547
296.000	229.175	80.009	19.992	103.998	19.860	12.026	0.471
298.000	230.201	80.008	19.993	103.988	19.854	12.477	0.499
300.000	231.231	80.009	19.994	103.985	19.847	12.907	0.489
302.000	232.224	80.009	19.994	103.992	19.846	12.950	0.511
304.000	233.191	80.010	19.994	103.986	19.841	13.343	0.479
306.000	234.170	80.010	19.993	103.987	19.833	13.858	0.526
308.000	235.133	80.010	19.993	103.988	19.830	14.086	0.474
310.000	236.105	80.011	19.993	103.998	19.825	14.415	0.506
312.000	237.096	80.010	19.994	103.991	19.820	14.746	0.508
314.000	238.021	80.011	19.994	103.994	19.817	14.912	0.488
316.000	239.006	80.011	19.993	104.003	19.814	15.159	0.491
318.000	239.936	80.013	19.993	103.993	19.813	15.221	0.468
320.000	240.850	80.010	19.994	103.978	19.811	15.313	0.456
322.000	241.806	80.013	19.993	103.979	19.809	15.502	0.488
324.000	242.740	80.011	19.994	103.986	19.806	15.701	0.477
326.000	243.691	80.011	19.994	103.990	19.808	15.541	0.477
328.000	244.634	80.012	19.995	104.011	19.808	15.545	0.479
330.000	245.592	80.012	19.995	104.017	19.809	15.456	0.479
332.000	246.519	80.010	19.993	104.018	19.806	15.695	0.464
334.000	247.465	80.011	19.994	104.016	19.801	16.020	0.450
336.000	248.382	80.011	19.993	104.020	19.803	15.916	0.451
338.000	249.371	80.011	19.994	104.037	19.793	16.577	0.484
340.000	250.306	80.012	19.994	104.039	19.789	16.793	0.486
342.000	251.261	80.013	19.995	104.054	19.782	17.321	0.479
344.000	252.241	80.012	19.994	104.055	19.776	17.678	0.505
346.000	253.185	80.012	19.994	104.076	19.762	18.669	0.492
348.000	254.126	80.010	19.994	104.077	19.749	19.540	0.452
350.000	255.100	80.009	19.993	104.091	19.738	20.221	0.503
352.000	256.045	80.009	19.995	104.093	19.722	21.347	0.464
354.000	257.043	80.009	19.995	104.094	19.707	22.349	0.507
356.000	258.073	80.009	19.993	104.096	19.686	23.736	0.509
358.000	259.106	80.011	19.994	104.091	19.664	25.209	0.522
360.000	260.095	80.011	19.993	104.089	19.641	26.760	0.507
362.000	261.123	80.011	19.993	104.071	19.616	28.370	0.515
364.000	262.182	80.010	19.995	104.056	19.590	30.154	0.513
366.000	263.262	80.011	19.994	104.028	19.567	31.687	0.559
368.000	264.322	80.010	19.994	103.987	19.545	33.113	0.534
370.000	265.391	80.010	19.993	103.955	19.530	34.108	0.559
372.000	266.444	80.010	19.994	103.909	19.521	34.770	0.531
374.000	267.491	80.011	19.993	103.868	19.515	35.167	0.484
376.000	268.568	80.009	19.993	103.839	19.515	35.153	0.538
378.000	269.642	80.011	19.993	103.812	19.520	34.845	0.527
380.000	270.725	80.009	19.992	103.792	19.533	33.977	0.540
382.000	271.820	80.009	19.993	103.789	19.548	32.938	0.542
384.000	272.853	80.009	19.993	103.798	19.571	31.435	0.552
386.000	273.939	80.010	19.994	103.816	19.593	29.929	0.508
388.000	275.037	80.010	19.994	103.829	19.615	28.448	0.577
390.000	276.139	80.012	19.994	103.843	19.641	26.715	0.540
392.000	277.134	80.011	19.995	103.839	19.665	25.089	0.494
394.000	278.212	80.010	19.993	103.856	19.684	23.827	0.522
396.000	279.285	80.013	19.994	103.862	19.710	22.116	0.517
398.000	280.290	80.013	19.993	103.861	19.724	21.140	0.496
400.000	281.364	80.013	19.993	103.862	19.744	19.833	0.522
402.000	282.408	80.013	19.994	103.863	19.761	18.692	0.527
404.000	283.422	80.013	19.992	103.879	19.776	17.672	0.517
406.000	284.469	80.012	19.993	103.884	19.787	16.928	0.520
408.000	285.497	80.011	19.993	103.884	19.800	16.067	0.496
410.000	286.501	80.011	19.993	103.879	19.814	15.137	0.537
412.000	287.546	80.011	19.994	103.879	19.822	14.558	0.512
414.000	288.536	80.010	19.994	103.887	19.832	13.913	0.502
416.000	289.549	80.011	19.995	103.876	19.837	13.540	0.495
418.001	290.556	80.010	19.995	103.882	19.844	13.073	0.491
420.000	291.563	80.011	19.993	103.884	19.849	12.780	0.502
422.000	292.541	80.013	19.993	103.879	19.858	12.150	0.484
424.000	293.554	80.014	19.995	103.878	19.861	11.991	0.489
426.000	294.554	80.013	19.991	103.893	19.862	11.907	0.515
428.000	295.540	80.012	19.994	103.893	19.866	11.612	0.489
430.000	296.527	80.012	19.992	103.894	19.873	11.172	0.469
432.000	297.500	80.011	19.993	103.886	19.878	10.847	0.499
434.000	298.473	80.011	19.993	103.888	19.881	10.594	0.495
436.000	299.488	80.010	19.995	103.893	19.881	10.590	0.477
438.000	300.443	80.009	19.994	103.893	19.886	10.281	0.497
440.000	301.386	80.009	19.993	103.900	19.888	10.164	0.458
442.000	302.368	80.008	19.996	103.901	19.886	10.252	0.510
444.000	303.365	80.010	19.995	103.900	19.892	9.887	0.510
446.000	304.312	80.009	19.994	103.900	19.894	9.722	0.508
448.000	305.272	80.009	19.995	103.896	19.892	9.887	0.479
450.000	306.253	80.009	19.994	103.897	19.896	9.643	0.478
452.000	307.268	80.010	19.995	103.897	19.900	9.362	0.523
454.000	308.208	80.011	19.993	103.896	19.901	9.246	0.492
456.000	309.169	80.011	19.992	103.897	19.900	9.338	0.510
458.000	310.130	80.011	19.994	103.897	19.901	9.250	0.486
460.000	311.104	80.010	19.993	103.899	19.903	9.147	0.482
462.001	312.055	80.010	19.993	103.898	19.904	9.106	0.478
464.000	313.095	80.009	19.993	103.899	19.902	9.183	0.520
466.000	314.090	80.011	19.993	103.899	19.902	9.208	0.503
468.000	315.050	80.011	19.993	103.899	19.905	9.004	0.501
470.000	315.996	80.010	19.994	103.906	19.906	8.915	0.492
472.001	317.020	80.011	19.994	103.917	19.905	9.016	0.525
474.000	317.965	80.009	19.993	103.907	19.906	8.971	0.506
476.000	318.943	80.012	19.994	103.904	19.907	8.851	0.479
478.000	319.919	80.012	19.994	103.912	19.908	8.807	0.480
480.000	320.917	80.011	19.993	103.912	19.908	8.820	0.504
482.000	321.941	80.012	19.993	103.907	19.905	9.006	0.511
484.000	322.939	80.012	19.994	103.915	19.909	8.730	0.509
486.000	323.946	80.011	19.994	103.916	19.910	8.654	0.528
488.000	324.930	80.012	19.995	103.910	19.911	8.637	0.536
490.000	325.895	80.012	19.993	103.922	19.910	8.704	0.474
492.000	326.887	80.012	19.993	103.920	19.910	8.645	0.479
494.000	327.908	80.012	19.994	103.914	19.912	8.539	0.488
496.000	328.854	80.012	19.992	103.906	19.908	8.820	0.461
498.000	329.953	80.012	19.993	103.920	19.912	8.569	0.517
500.000	330.935	80.012	19.993	103.911	19.908	8.813	0.496
502.000	331.954	80.012	19.993	103.908	19.904	9.053	0.539
504.000	332.760	80.012	19.990	103.909	19.907	8.843	0.452
506.000	334.192	80.013	19.991	103.910	19.907	8.885	0.703
508.000	334.792	80.012	19.994	103.913	19.910	8.684	0.182
510.000	336.229	80.012	19.993	103.917	19.910	8.672	0.463
512.000	337.159	80.012	19.993	103.920	19.910	8.697	0.598
514.000	338.053	80.013	19.994	103.908	19.909	8.749	0.507
516.000	339.119	80.011	19.993	103.906	19.909	8.770	0.506
518.000	340.116	80.010	19.994	103.904	19.909	8.758	0.486
520.000	341.145	80.010	19.994	103.914	19.909	8.742	0.526
522.000	342.203	80.010	19.992	103.917	19.908	8.797	0.546
524.000	343.213	80.010	19.994	103.913	19.907	8.851	0.527
526.000	344.240	80.009	19.993	103.915	19.905	9.010	0.515
528.000	345.235	80.011	19.993	103.903	19.910	8.666	0.532
530.000	346.260	80.011	19.994	103.905	19.906	8.920	0.519
532.000	347.275	80.011	19.994	103.908	19.910	8.706	0.497
534.000	348.317	80.011	19.993	103.907	19.904	9.101	0.503
536.000	349.306	80.011	19.992	103.905	19.906	8.945	0.528
538.000	350.316	80.011	19.992	103.916	19.904	9.085	0.491
540.000	351.316	80.011	19.994	103.908	19.905	8.998	0.485
542.000	352.385	80.010	19.994	103.905	19.906	8.941	0.540
544.000	353.440	80.011	19.994	103.918	19.906	8.917	0.528
546.000	354.434	80.010	19.994	103.917	19.906	8.971	0.510
548.000	355.430	80.010	19.993	103.909	19.903	9.157	0.493
550.001	356.432	80.009	19.993	103.905	19.904	9.065	0.501
552.000	357.463	80.008	19.994	103.909	19.903	9.132	0.495
554.000	358.452	80.010	19.994	103.905	19.902	9.198	0.473
556.000	359.498	80.010	19.993	103.916	19.900	9.378	0.512
558.000	360.530	80.011	19.991	103.925	19.901	9.292	0.544
560.000	361.525	80.011	19.993	103.923	19.898	9.509	0.526
562.000	362.530	80.012	19.992	103.931	19.896	9.606	0.488
564.000	363.568	80.011	19.992	103.934	19.896	9.588	0.543
566.000	364.516	80.013	19.992	103.933	19.893	9.810	0.496
568.000	365.552	80.013	19.993	103.939	19.894	9.756	0.510
570.000	366.563	80.012	19.993	103.939	19.894	9.737	0.514
572.000	367.564	80.011	19.993	103.940	19.889	10.114	0.499
574.000	368.532	80.010	19.993	103.941	19.888	10.149	0.473
576.000	369.555	80.012	19.993	103.943	19.889	10.105	0.462
578.000	370.598	80.010	19.992	103.943	19.885	10.366	0.529
580.000	371.560	80.011	19.991	103.957	19.882	10.530	0.495
582.000	372.608	80.012	19.993	103.957	19.881	10.603	0.503
584.000	373.636	80.013	19.992	103.971	19.875	11.013	0.547
586.000	374.614	80.013	19.992	103.971	19.873	11.191	0.514
588.000	375.596	80.014	19.992	103.965	19.874	11.121	0.507
590.000	376.613	80.013	19.994	103.975	19.870	11.380	0.498
592.000	377.563	80.014	19.992	103.976	19.868	11.521	0.489
594.000	378.563	80.012	19.995	103.975	19.865	11.714	0.501
596.000	379.560	80.012	19.991	103.973	19.862	11.874	0.506
598.000	380.541	80.013	19.995	103.974	19.861	11.985	0.483
600.000	381.487	80.010	19.994	103.975	19.860	12.028	0.487
602.000	382.509	80.012	19.993	103.973	19.856	12.284	0.466
604.000	383.501	80.010	19.993	103.974	19.857	12.209	0.499
606.000	384.484	80.011	19.993	103.972	19.855	12.346	0.503
608.000	385.523	80.012	19.993	103.968	19.852	12.584	0.520
610.000	386.455	80.010	19.994	103.967	19.853	12.516	0.502
612.000	387.456	80.011	19.994	103.949	19.847	12.891	0.497
614.000	388.507	80.010	19.995	103.954	19.850	12.728	0.534
616.000	389.510	80.010	19.994	103.938	19.840	13.352	0.541
618.000	390.502	80.011	19.993	103.935	19.839	13.449	0.504
620.000	391.477	80.012	19.994	103.934	19.836	13.634	0.525
622.000	392.488	80.010	19.994	103.933	19.833	13.841	0.498
624.000	393.530	80.011	19.993	103.926	19.829	14.131	0.512
626.000	394.578	80.011	19.993	103.921	19.824	14.463	0.514
628.000	395.620	80.011	19.996	103.918	19.819	14.788	0.534
630.000	396.586	80.009	19.993	103.918	19.818	14.869	0.463
632.000	397.600	80.010	19.993	103.910	19.812	15.230	0.486
634.000	398.630	80.007	19.993	103.901	19.805	15.751	0.494
636.000	399.627	80.008	19.994	103.906	19.799	16.100	0.497
638.000	400.651	80.007	19.995	103.902	19.793	16.505	0.504
640.000	401.689	80.009	19.995	103.907	19.789	16.767	0.496
642.000	402.752	80.009	19.994	103.903	19.783	17.225	0.517
644.000	403.760	80.010	19.993	103.899	19.775	17.749	0.497
646.000	404.758	80.010	19.992	103.898	19.767	18.262	0.535
648.000	405.800	80.015	19.993	103.899	19.762	18.577	0.490
650.000	406.812	80.014	19.992	103.896	19.750	19.404	0.500
652.000	407.868	80.012	19.994	103.896	19.742	19.949	0.525
654.000	408.909	80.012	19.993	103.889	19.734	20.504	0.519
656.000	409.901	80.011	19.992	103.887	19.724	21.130	0.512
658.000	410.914	80.011	19.994	103.862	19.716	21.684	0.509
660.000	411.945	80.012	19.992	103.863	19.704	22.494	0.490
662.000	412.961	80.011	19.992	103.938	19.695	23.073	0.526
664.000	413.971	80.011	19.993	103.893	19.685	23.790	0.489
666.000	414.947	80.011	19.993	103.888	19.673	24.612	0.458
668.000	415.969	80.012	19.992	103.890	19.663	25.224	0.520
670.000	416.971	80.013	19.993	103.896	19.654	25.870	0.520
672.000	417.955	80.013	19.993	103.893	19.640	26.809	0.503
674.000	418.993	80.013	19.995	103.887	19.633	27.266	0.534
676.000	419.972	80.016	19.992	103.892	19.617	28.358	0.495
678.000	420.979	80.013	19.993	103.892	19.606	29.071	0.489
680.000	421.992	80.013	19.991	103.889	19.593	29.938	0.496
682.000	422.969	80.013	19.992	103.890	19.579	30.917	0.490
684.000	423.989	80.012	19.993	103.872	19.566	31.732	0.499
686.000	425.023	80.012	19.993	103.891	19.554	32.592	0.504
688.000	426.026	80.011	19.993	103.895	19.543	33.297	0.518
690.000	427.016	80.009	19.993	103.899	19.531	34.125	0.506
692.000	428.041	80.011	19.996	103.891	19.516	35.104	0.513
694.000	429.003	80.012	19.996	103.894	19.501	36.122	0.491
696.000	429.997	80.011	19.994	103.884	19.490	36.869	0.510
698.000	430.999	80.010	19.992	103.890	19.473	37.975	0.530
700.000	432.065	80.010	19.993	103.889	19.464	38.635	0.546
702.000	433.029	80.011	19.992	103.895	19.447	39.769	0.505
704.000	434.057	80.011	19.993	103.897	19.429	40.930	0.480
706.000	435.092	80.011	19.994	103.898	19.419	41.615	0.493
708.000	436.119	80.010	19.993	103.895	19.405	42.529	0.506
710.000	437.132	80.009	19.994	103.898	19.392	43.403	0.503
712.000	438.131	80.011	19.993	103.898	19.378	44.347	0.484
714.000	439.149	80.011	19.993	103.895	19.362	45.430	0.526
716.000	440.171	80.012	19.994	103.890	19.351	46.203	0.514
718.000	441.155	80.010	19.992	103.878	19.341	46.871	0.489
720.000	442.185	80.010	19.995	103.886	19.333	47.370	0.499
722.000	443.198	80.011	19.995	103.894	19.322	48.152	0.540
724.000	444.238	80.010	19.994	103.893	19.314	48.689	0.487
726.000	445.244	80.012	19.995	103.895	19.304	49.360	0.485
728.000	446.262	80.012	19.994	103.895	19.298	49.754	0.520
730.000	447.283	80.012	19.994	103.894	19.287	50.490	0.538
732.000	448.319	80.013	19.994	103.881	19.285	50.609	0.534
734.000	449.362	80.011	19.995	103.879	19.281	50.885	0.477
736.000	450.384	80.010	19.995	103.887	19.281	50.903	0.505
738.000	451.393	80.011	19.994	103.878	19.280	50.970	0.516
740.000	452.366	80.012	19.994	103.886	19.280	50.957	0.487
742.000	453.457	80.012	19.994	103.882	19.282	50.776	0.523
744.000	454.444	80.013	19.994	103.876	19.283	50.759	0.514
746.000	455.449	80.011	19.993	103.885	19.290	50.273	0.509
748.000	456.483	80.012	19.994	103.874	19.294	49.978	0.518
750.000	457.457	80.013	19.994	103.877	19.300	49.574	0.515
752.000	458.462	80.012	19.994	103.879	19.310	48.914	0.544
754.000	459.477	80.013	19.993	103.874	19.324	48.019	0.480
756.000	460.493	80.014	19.992	103.887	19.336	47.156	0.496
758.000	461.473	80.014	19.993	103.872	19.348	46.410	0.482
760.000	462.464	80.013	19.992	103.863	19.363	45.400	0.518
762.000	463.499	80.013	19.993	103.863	19.379	44.276	0.526
764.000	464.487	80.012	19.993	103.864	19.393	43.351	0.493
766.000	465.462	80.010	19.993	103.861	19.411	42.165	0.511
768.000	466.489	80.010	19.993	103.863	19.429	40.965	0.546
770.000	467.504	80.011	19.993	103.875	19.449	39.586	0.523
772.000	468.476	80.011	19.993	103.873	19.470	38.227	0.505
774.000	469.470	80.012	19.993	103.874	19.488	36.992	0.514
776.000	470.477	80.012	19.993	103.889	19.510	35.493	0.513
778.000	471.478	80.013	19.994	103.889	19.529	34.217	0.490
780.000	472.494	80.012	19.993	103.863	19.551	32.759	0.495
782.000	473.477	80.012	19.993	103.878	19.571	31.445	0.497
784.000	474.517	80.013	19.993	103.885	19.591	30.081	0.505
786.000	475.570	80.010	19.992	103.883	19.613	28.577	0.529
788.001	476.532	80.012	19.993	103.888	19.633	27.284	0.488
790.000	477.507	80.013	19.994	103.881	19.654	25.883	0.477
792.000	478.563	80.012	19.993	103.879	19.678	24.246	0.545
794.000	479.567	80.010	19.993	103.895	19.692	23.285	0.497
796.000	480.566	80.009	19.993	103.891	19.713	21.898	0.525
798.000	481.588	80.010	19.994	103.890	19.733	20.550	0.524
800.000	482.587	80.011	19.994	103.897	19.750	19.446	0.491
802.000	483.556	80.010	19.993	103.898	19.765	18.385	0.467
804.000	484.618	80.009	19.994	103.902	19.780	17.403	0.488
806.000	485.662	80.010	19.994	103.903	19.803	15.855	0.537
808.000	486.669	80.012	19.996	103.919	19.817	14.896	0.500
810.000	487.665	80.012	19.994	103.920	19.829	14.100	0.518
812.000	488.669	80.011	19.993	103.908	19.843	13.162	0.493
814.000	489.691	80.011	19.994	103.914	19.856	12.307	0.495
816.000	490.688	80.013	19.993	103.922	19.867	11.530	0.522
818.000	491.686	80.013	19.994	103.921	19.878	10.800	0.494
820.000	492.756	80.011	19.994	103.929	19.886	10.294	0.535
822.000	493.763	80.012	19.993	103.924	19.896	9.594	0.514
824.000	494.781	80.011	19.994	103.935	19.903	9.146	0.525
826.000	495.775	80.012	19.994	103.919	19.911	8.640	0.500
828.000	496.816	80.011	19.994	103.921	19.913	8.457	0.511
830.000	497.811	80.011	19.995	103.926	19.921	7.927	0.517
832.000	498.836	80.012	19.996	103.935	19.929	7.402	0.495
834.000	499.846	80.012	19.994	103.926	19.935	7.012	0.522
836.000	500.856	80.012	19.993	103.925	19.940	6.652	0.515
838.000	501.902	80.012	19.994	103.913	19.943	6.447	0.519
840.000	502.907	80.013	19.994	103.928	19.950	5.974	0.524
842.000	503.874	80.014	19.993	103.919	19.955	5.662	0.506
844.000	504.850	80.013	19.992	103.914	19.955	5.649	0.450
846.000	505.878	80.013	19.994	103.905	19.961	5.249	0.490
848.000	506.949	80.011	19.993	103.910	19.963	5.106	0.532
850.000	507.986	80.011	19.993	103.913	19.966	4.908	0.489
852.000	509.022	80.012	19.994	103.902	19.967	4.856	0.543
854.000	510.042	80.012	19.992	103.903	19.969	4.691	0.523
856.000	511.035	80.012	19.994	103.902	19.973	4.436	0.505
858.000	512.074	80.012	19.993	103.903	19.979	4.032	0.468
860.000	513.083	80.011	19.994	103.901	19.982	3.841	0.529
862.001	514.103	80.011	19.994	103.901	19.981	3.884	0.503
864.000	515.154	80.012	19.993	103.897	19.986	3.599	0.497
866.000	516.179	80.011	19.994	103.898	19.989	3.364	0.515
868.000	517.231	80.011	19.994	103.898	19.987	3.482	0.543
870.000	518.323	80.012	19.995	103.898	19.987	3.523	0.538
872.000	519.355	80.013	19.994	103.897	19.993	3.089	0.529
874.000	520.426	80.013	19.993	103.897	19.997	2.823	0.530
876.000	521.463	80.010	19.993	103.898	19.995	2.999	0.504
878.000	522.554	80.011	19.994	103.899	19.994	3.030	0.574
880.000	523.671	80.010	19.993	103.916	19.998	2.770	0.564
882.000	524.756	80.010	19.992	103.909	19.995	2.948	0.547
884.000	525.838	80.012	19.993	103.905	19.997	2.803	0.560
886.000	526.994	80.011	19.993	103.905	19.997	2.859	0.582
888.000	528.139	80.010	19.994	103.896	20.002	2.514	0.577
890.000	529.243	80.010	19.994	103.901	20.002	2.487	0.554
892.000	530.367	80.012	19.992	103.901	20.004	2.371	0.531
894.000	531.536	80.011	19.994	103.900	20.002	2.531	0.590
896.000	532.692	80.013	19.993	103.896	20.003	2.450	0.579
898.000	533.813	80.012	19.993	103.892	20.006	2.237	0.562
900.000	535.010	80.011	19.993	103.897	20.006	2.252	0.586
902.000	536.191	80.012	19.993	103.882	20.006	2.204	0.576
904.000	537.326	80.012	19.994	103.892	20.009	2.044	0.582
906.000	538.473	80.012	19.994	103.882	20.008	2.090	0.572
908.000	539.630	80.011	19.992	103.883	20.009	2.037	0.566
910.000	540.740	80.011	19.993	103.879	20.008	2.101	0.538
912.000	541.877	80.011	19.994	103.883	20.011	1.899	0.555
914.000	542.997	80.013	19.994	103.878	20.010	1.978	0.550
916.000	544.122	80.011	19.993	103.880	20.007	2.134	0.536
918.000	545.174	80.012	19.994	103.872	20.007	2.132	0.551
920.000	546.287	80.012	19.994	103.888	20.011	1.916	0.527
922.000	547.411	80.012	19.994	103.892	20.010	1.975	0.554
924.000	548.518	80.013	19.994	103.890	20.014	1.710	0.549
926.000	549.641	80.012	19.994	103.891	20.012	1.848	0.590
928.000	550.783	80.011	19.995	103.885	20.011	1.864	0.564
930.000	551.841	80.010	19.995	103.890	20.009	2.030	0.552
932.000	552.906	80.012	19.995	103.898	20.010	1.943	0.557
934.000	554.021	80.011	19.995	103.896	20.010	1.993	0.533
936.000	555.143	80.011	19.993	103.887	20.013	1.749	0.584
938.000	556.202	80.011	19.993	103.872	20.011	1.907	0.520
940.000	557.290	80.010	19.993	103.883	20.014	1.675	0.517
942.000	558.398	80.010	19.993	103.886	20.013	1.777	0.537
944.000	559.448	80.010	19.993	103.895	20.012	1.799	0.557
946.000	560.461	80.011	19.993	103.898	20.013	1.729	0.533
948.001	561.569	80.012	19.993	103.901	20.016	1.591	0.524
950.000	562.636	80.011	19.993	103.893	20.013	1.789	0.541
952.000	563.662	80.012	19.993	103.886	20.012	1.828	0.525
954.000	564.706	80.011	19.992	103.898	20.012	1.813	0.531
956.000	565.721	80.011	19.992	103.894	20.013	1.780	0.511
958.000	566.730	80.010	19.993	103.894	20.015	1.617	0.500
960.000	567.749	80.009	19.994	103.890	20.015	1.595	0.491
962.000	568.822	80.010	19.993	103.889	20.015	1.611	0.518
964.000	569.795	80.010	19.993	103.899	20.012	1.837	0.491
966.000	570.762	80.011	19.993	103.889	20.012	1.837	0.508
968.000	571.792	80.010	19.993	103.891	20.016	1.567	0.521
970.000	572.742	80.009	19.992	103.887	20.015	1.646	0.492
972.000	573.804	80.011	19.994	103.900	20.015	1.613	0.523
974.000	574.790	80.011	19.994	103.897	20.013	1.732	0.517
976.000	575.838	80.012	19.994	103.892	20.012	1.806	0.515
978.000	576.789	80.013	19.992	103.891	20.017	1.516	0.493
980.000	577.773	80.012	19.993	103.884	20.015	1.611	0.483
982.000	578.791	80.012	19.994	103.886	20.017	1.472	0.491
984.000	579.807	80.012	19.994	103.889	20.017	1.512	0.546
986.000	580.762	80.012	19.993	103.880	20.018	1.435	0.480
988.000	581.739	80.012	19.996	103.893	20.012	1.806	0.461
990.000	582.713	80.012	19.994	103.893	20.019	1.380	0.503
992.000	583.712	80.010	19.994	103.890	20.014	1.696	0.483
994.000	584.721	80.011	19.994	103.882	20.018	1.400	0.524
996.000	585.726	80.011	19.994	103.894	20.017	1.525	0.513
998.000	586.650	80.012	19.993	103.887	20.019	1.352	0.477
1000.000	587.663	80.012	19.994	103.884	20.015	1.637	0.488
1002.000	588.610	80.012	19.993	103.882	20.019	1.387	0.501
1004.000	589.663	80.013	19.993	103.888	20.020	1.283	0.514
1006.000	590.607	80.012	19.992	103.885	20.016	1.562	0.506
1008.000	591.623	80.014	19.994	103.884	20.019	1.378	0.486
1010.000	592.633	80.014	19.993	103.877	20.013	1.740	0.483
1012.000	593.660	80.012	19.993	103.880	20.018	1.404	0.522
1014.000	594.711	80.011	19.994	103.875	20.016	1.527	0.527
1016.000	595.741	80.010	19.993	103.880	20.018	1.415	0.524
1018.000	596.784	80.010	19.993	103.879	20.017	1.510	0.510
1020.000	597.780	80.009	19.993	103.871	20.018	1.457	0.486
1022.000	598.811	80.008	19.994	103.883	20.021	1.230	0.518
1024.000	599.846	80.009	19.993	103.881	20.019	1.373	0.523
1026.000	600.905	80.010	19.995	103.888	20.020	1.277	0.543
1028.000	601.962	80.010	19.994	103.888	20.019	1.351	0.513
1030.000	603.028	80.009	19.993	103.891	20.016	1.538	0.546
1032.000	604.124	80.010	19.993	103.893	20.018	1.444	0.536
1034.000	605.214	80.010	19.993	103.891	20.015	1.637	0.569
1036.000	606.262	80.010	19.992	103.886	20.017	1.518	0.520
1038.000	607.383	80.011	19.993	103.891	20.013	1.741	0.534
1040.000	608.516	80.011	19.993	103.900	20.014	1.683	0.568
1042.000	609.558	80.011	19.994	103.897	20.019	1.327	0.532
1044.000	610.693	80.011	19.994	103.888	20.014	1.695	0.565
1046.000	611.848	80.010	19.992	103.870	20.018	1.449	0.563
1048.000	612.912	80.009	19.994	103.882	20.013	1.734	0.550
1050.000	614.000	80.009	19.993	103.873	20.014	1.686	0.519
1052.001	615.139	80.010	19.993	103.873	20.018	1.431	0.579
1054.001	616.203	80.010	19.993	103.866	20.013	1.734	0.531
1056.000	617.269	80.010	19.993	103.861	20.016	1.547	0.565
1058.000	618.318	80.010	19.992	103.860	20.021	1.231	0.537
1060.000	619.314	80.011	19.994	103.865	20.016	1.549	0.507
1062.001	620.333	80.012	19.993	103.865	20.019	1.352	0.513
1064.000	621.324	80.012	19.993	103.862	20.022	1.165	0.506
1066.000	622.320	80.012	19.993	103.856	20.018	1.413	0.495
1068.000	623.278	80.013	19.993	103.858	20.020	1.310	0.461
1070.000	624.265	80.011	19.995	103.861	20.023	1.112	0.524
1072.000	625.231	80.012	19.993	103.863	20.016	1.561	0.476
1074.000	626.220	80.013	19.994	103.865	20.019	1.341	0.464
1076.000	627.192	80.011	19.992	103.865	20.017	1.517	0.493
1078.000	628.164	80.011	19.994	103.866	20.016	1.547	0.471
1080.000	629.222	80.011	19.993	103.864	20.013	1.795	0.510
1082.001	630.214	80.011	19.993	103.864	20.014	1.699	0.493
1084.000	631.184	80.012	19.994	103.865	20.018	1.402	0.507
1086.001	632.241	80.012	19.993	103.866	20.016	1.536	0.522
1088.000	633.214	80.012	19.994	103.860	20.016	1.569	0.517
1090.000	634.304	80.012	19.993	103.875	20.022	1.128	0.505
1092.000	635.322	80.012	19.992	103.873	20.019	1.391	0.486
1094.000	636.379	80.012	19.993	103.863	20.016	1.585	0.536
1096.000	637.373	80.010	19.993	103.859	20.017	1.482	0.500
1098.000	638.433	80.012	19.994	103.862	20.020	1.308	0.541
1100.000	639.380	80.010	19.994	103.859	20.021	1.198	0.478
1102.000	640.371	80.009	19.993	103.858	20.023	1.112	0.493
1104.000	641.343	80.011	19.994	103.855	20.024	1.011	0.470
1106.001	642.340	80.009	19.993	103.852	20.021	1.209	0.484
1108.001	643.326	80.010	19.993	103.861	20.024	1.057	0.488
1110.000	644.271	80.009	19.995	103.857	20.026	0.915	0.485
1112.001	645.215	80.010	19.994	103.856	20.025	0.976	0.497
1114.000	646.184	80.012	19.994	103.856	20.027	0.848	0.461
1116.000	647.179	80.010	19.995	103.858	20.023	1.086	0.470
1118.000	648.120	80.012	19.995	103.860	20.022	1.139	0.488
1120.000	649.095	80.010	19.993	103.859	20.026	0.870	0.482
1122.000	650.076	80.010	19.994	103.857	20.025	0.980	0.502
1124.000	651.029	80.011	19.994	103.854	20.025	0.969	0.480
1126.001	651.967	80.011	19.994	103.857	20.030	0.605	0.458
1128.000	652.971	80.010	19.994	103.858	20.023	1.073	0.507
1130.000	653.965	80.011	19.994	103.857	20.025	0.934	0.494
1132.001	654.919	80.010	19.994	103.858	20.023	1.099	0.473
1134.000	655.965	80.011	19.994	103.860	20.020	1.273	0.503
1136.001	657.020	80.010	19.993	103.862	20.021	1.233	0.532
1138.000	657.994	80.010	19.993	103.863	20.021	1.211	0.535
1140.000	658.974	80.011	19.995	103.860	20.020	1.281	0.473
1142.001	660.010	80.011	19.993	103.859	20.020	1.314	0.482
1144.000	661.007	80.012	19.994	103.850	20.017	1.497	0.516
1146.000	662.081	80.012	19.992	103.854	20.022	1.149	0.535
1148.000	663.042	80.011	19.993	103.861	20.023	1.081	0.474
1150.000	664.129	80.013	19.994	103.855	20.019	1.383	0.559
1152.000	665.163	80.011	19.991	103.858	20.019	1.371	0.521
1154.001	666.254	80.012	19.993	103.863	20.022	1.156	0.534
1156.000	667.256	80.010	19.993	103.861	20.022	1.172	0.519
1158.001	668.321	80.010	19.993	103.865	20.022	1.128	0.527
1160.000	669.351	80.011	19.994	103.865	20.019	1.378	0.510
1162.000	670.429	80.012	19.996	103.862	20.020	1.282	0.545
1164.000	671.503	80.012	19.992	103.862	20.020	1.279	0.475
1166.001	672.550	80.013	19.993	103.861	20.021	1.227	0.544
1168.000	673.619	80.013	19.995	103.863	20.023	1.064	0.524
1170.000	674.649	80.012	19.994	103.858	20.022	1.137	0.545
1172.000	675.730	80.012	19.993	103.856	20.020	1.264	0.542
1174.000	676.736	80.014	19.992	103.861	20.022	1.154	0.512
1176.000	677.825	80.011	19.992	103.859	20.024	1.031	0.666
1178.001	678.845	80.012	19.993	103.857	20.024	1.049	0.536
1180.000	679.867	80.014	19.994	103.851	20.022	1.145	0.498
1182.000	680.894	80.011	19.993	103.856	20.023	1.071	0.514
1184.000	681.931	80.010	19.994	103.858	20.025	0.932	0.511
1186.000	683.037	80.010	19.992	103.853	20.022	1.185	0.585
1188.000	684.072	80.010	19.993	103.855	20.022	1.152	0.522
1190.000	685.154	80.011	19.994	103.857	20.024	1.018	0.524
1192.001	686.202	80.011	19.994	103.860	20.021	1.242	0.535
1194.001	687.281	80.011	19.994	103.857	20.022	1.141	0.509
1196.000	688.360	80.010	19.994	103.855	20.022	1.147	0.515
1198.000	689.451	80.013	19.993	103.857	20.023	1.114	0.558
1200.000	690.519	80.009	19.993	103.850	20.027	0.851	0.528
1202.000	691.542	80.011	19.994	103.852	20.021	1.220	0.496
1204.000	692.613	80.012	19.995	103.851	20.020	1.286	0.520
1206.001	693.716	80.011	19.995	103.858	20.023	1.071	0.549
1208.000	694.760	80.012	19.993	103.858	20.018	1.407	0.515
1210.000	695.832	80.011	19.994	103.857	20.018	1.392	0.529
1212.000	696.916	80.009	19.994	103.855	20.022	1.163	0.535
1214.001	697.974	80.008	19.994	103.856	20.022	1.141	0.523
1216.000	699.016	80.008	19.994	103.860	20.019	1.372	0.501
1218.000	700.043	80.009	19.994	103.856	20.017	1.525	0.498
1220.000	701.111	80.010	19.995	103.858	20.022	1.170	0.516
1222.000	702.121	80.010	19.994	103.857	20.017	1.491	0.507
1224.000	703.136	80.012	19.993	103.856	20.019	1.354	0.511
1226.000	704.160	80.011	19.994	103.855	20.019	1.387	0.525
1228.000	705.222	80.013	19.994	103.858	20.022	1.187	0.525
1230.001	706.209	80.013	19.993	103.859	20.020	1.316	0.506
1232.001	707.210	80.013	19.993	103.853	20.019	1.383	0.497
1234.000	708.280	80.012	19.993	103.854	20.019	1.376	0.523
1236.000	709.277	80.010	19.994	103.859	20.016	1.552	0.533
1238.001	710.290	80.012	19.994	103.862	20.016	1.569	0.501
1240.000	711.303	80.012	19.996	103.863	20.015	1.620	0.506
1242.000	712.370	80.011	19.995	103.863	20.020	1.321	0.523
1244.000	713.411	80.015	19.993	103.859	20.021	1.209	0.521
1246.000	714.450	80.012	19.993	103.858	20.019	1.376	0.527
1248.000	715.450	80.014	19.993	103.859	20.020	1.260	0.494
1250.000	716.538	80.013	19.993	103.857	20.019	1.332	0.557
1252.000	717.551	80.013	19.993	103.858	20.017	1.519	0.493
1254.001	718.525	80.012	19.992	103.857	20.020	1.295	0.464
1256.000	719.585	80.014	19.992	103.858	20.019	1.341	0.501
1258.000	720.673	80.014	19.993	103.858	20.016	1.567	0.548
1260.000	721.715	80.013	19.993	103.858	20.015	1.609	0.520
1262.000	722.749	80.013	19.992	103.861	20.019	1.332	0.541
1264.000	723.748	80.010	19.993	103.859	20.014	1.679	0.510
1266.001	724.795	80.011	19.992	103.861	20.017	1.517	0.518
1268.000	725.807	80.012	19.993	103.859	20.020	1.304	0.518
1270.000	726.820	80.012	19.993	103.854	20.021	1.202	0.517
1272.001	727.808	80.012	19.994	103.856	20.020	1.306	0.509
1274.000	728.815	80.010	19.994	103.856	20.019	1.383	0.480
1276.000	729.816	80.013	19.993	103.853	20.020	1.323	0.521
1278.000	730.799	80.012	19.994	103.861	20.012	1.851	0.476
1280.000	731.796	80.011	19.994	103.861	20.014	1.697	0.503
1282.001	732.800	80.012	19.994	103.861	20.017	1.468	0.505
1284.000	733.791	80.012	19.993	103.861	20.017	1.477	0.499
1286.000	734.756	80.010	19.996	103.857	20.017	1.517	0.500
1288.000	735.703	80.010	19.996	103.859	20.011	1.870	0.480
1290.001	736.726	80.008	19.993	103.862	20.011	1.877	0.517
1292.000	737.683	80.013	19.993	103.860	20.014	1.681	0.473
1294.000	738.695	80.010	19.994	103.858	20.011	1.879	0.510
1296.001	739.648	80.010	19.993	103.862	20.013	1.732	0.477
1298.000	740.696	80.008	19.994	103.860	20.012	1.849	0.483
1300.000	741.702	80.009	19.994	103.862	20.016	1.565	0.488
1302.001	742.678	80.009	19.994	103.863	20.017	1.484	0.500
1304.001	743.654	80.011	19.993	103.861	20.014	1.715	0.497
1304.500	743.931	80.012	19.993	103.858	20.015	1.636	0.512