File: 01_Data/Rubber_Foam_Pipe_Insulation/MCC/Rubber_Foam_Pipe_Insulation_MCC_30K_min_220127_R2.txt
Sample ID:	C:\MCC\MCC Cal\Test\Rubber_Foam_Pipe_Insulation_MCC_30K_min_220127_R2.txt
Sample Weight (mg):	4.7
Heating Rate (C/s):	0.5
Combustor Temp (C):	900
N2 Flow Rate (cc/min):	80
O2 Flow Rate (cc/min):	20
Calibration File:	C:\MCC\MCC Cal\Coeff1 JN10440_30_210304.txt.txt
T Correction Coefficients:	0	1.024463	0
Time Shift (s):	14
*
Time (s)	Temperature (C)	N2 flow rate (cc/min)	O2 flow rate (cc/min)	Flow Rate (cc/min)	Oxygen (%)	HRR (W/g)	Heating rate (C/s)
0.000	112.973	80.010	19.993	103.717	20.011	0.546	-0.013
2.000	112.967	80.009	19.992	103.716	20.014	0.320	-0.014
4.000	112.938	80.012	19.992	103.725	20.014	0.318	-0.004
6.000	112.965	80.012	19.994	103.723	20.019	0.013	0.004
8.000	112.940	80.010	19.996	103.723	20.017	0.137	0.013
10.000	112.943	80.011	19.994	103.717	20.015	0.258	-0.016
12.000	112.944	80.010	19.993	103.736	20.018	0.057	-0.028
14.000	112.966	80.009	19.993	103.730	20.015	0.251	0.007
16.000	112.929	80.010	19.994	103.737	20.015	0.300	-0.035
18.000	112.960	80.008	19.994	103.744	20.011	0.522	0.008
20.000	112.974	80.010	19.993	103.756	20.010	0.639	0.015
22.000	113.057	80.009	19.993	103.777	20.011	0.528	0.040
24.000	113.067	80.008	19.993	103.761	20.007	0.850	0.026
26.000	113.091	80.009	19.994	103.779	20.006	0.890	0.007
28.000	113.154	80.008	19.994	103.782	20.004	1.050	0.010
30.000	113.210	80.010	19.993	103.783	20.007	0.841	0.019
32.000	113.259	80.009	19.994	103.782	20.002	1.155	0.010
34.001	113.342	80.010	19.993	103.797	20.003	1.113	0.049
36.001	113.384	80.009	19.993	103.808	19.998	1.432	0.048
38.001	113.503	80.008	19.993	103.835	19.997	1.496	0.056
40.001	113.607	80.009	19.994	103.863	19.989	2.044	0.050
42.000	113.767	80.009	19.994	103.911	19.986	2.265	0.060
44.000	113.984	80.008	19.995	103.925	19.986	2.316	0.084
46.000	114.208	80.008	19.994	103.941	19.980	2.718	0.116
48.001	114.462	80.008	19.994	103.946	19.979	2.758	0.154
50.000	114.729	80.006	19.994	103.950	19.980	2.725	0.144
52.000	115.055	80.008	19.993	103.972	19.976	2.998	0.162
54.000	115.440	80.008	19.993	103.972	19.969	3.449	0.208
56.001	115.855	80.008	19.994	103.967	19.970	3.389	0.209
58.000	116.281	80.009	19.994	103.969	19.966	3.629	0.185
60.001	116.724	80.007	19.994	103.968	19.970	3.359	0.223
62.000	117.205	80.010	19.993	103.951	19.971	3.297	0.241
64.001	117.697	80.011	19.993	103.945	19.971	3.314	0.238
66.001	118.197	80.009	19.994	103.943	19.972	3.256	0.259
68.000	118.697	80.009	19.995	103.950	19.972	3.231	0.250
70.000	119.269	80.009	19.993	103.954	19.970	3.365	0.291
72.000	119.781	80.007	19.996	103.961	19.968	3.552	0.273
74.000	120.359	80.008	19.995	103.977	19.970	3.411	0.288
76.000	120.961	80.011	19.995	103.978	19.974	3.134	0.307
78.000	121.569	80.009	19.994	103.977	19.970	3.421	0.319
80.000	122.194	80.008	19.994	103.975	19.965	3.746	0.305
82.000	122.867	80.009	19.993	103.978	19.964	3.789	0.343
84.000	123.554	80.011	19.993	103.978	19.965	3.762	0.351
86.000	124.239	80.011	19.994	103.991	19.968	3.497	0.346
88.000	124.907	80.010	19.994	104.001	19.966	3.634	0.331
90.000	125.680	80.013	19.993	103.996	19.964	3.797	0.380
92.001	126.391	80.010	19.994	103.992	19.964	3.823	0.373
94.000	127.092	80.010	19.993	103.988	19.963	3.852	0.370
96.000	127.874	80.010	19.993	103.995	19.962	3.933	0.384
98.000	128.659	80.009	19.994	104.004	19.960	4.059	0.412
100.000	129.443	80.009	19.993	103.998	19.959	4.127	0.367
102.000	130.252	80.008	19.992	104.005	19.962	3.960	0.413
104.000	131.057	80.009	19.994	104.008	19.958	4.188	0.439
106.001	131.851	80.008	19.994	104.021	19.958	4.195	0.396
108.000	132.717	80.009	19.993	103.997	19.959	4.161	0.407
110.000	133.551	80.009	19.993	104.005	19.960	4.101	0.421
112.000	134.448	80.008	19.993	104.009	19.964	3.821	0.431
114.000	135.330	80.008	19.992	104.016	19.961	4.039	0.451
116.000	136.211	80.008	19.993	104.015	19.961	4.033	0.430
118.000	137.078	80.008	19.993	104.004	19.962	3.937	0.448
120.000	138.008	80.007	19.993	104.007	19.959	4.129	0.453
122.000	138.912	80.009	19.993	104.000	19.958	4.220	0.422
124.000	139.861	80.009	19.993	104.007	19.960	4.105	0.466
126.000	140.842	80.007	19.993	104.011	19.958	4.237	0.481
128.000	141.770	80.009	19.994	104.009	19.962	3.956	0.477
130.000	142.694	80.008	19.993	104.014	19.962	3.922	0.461
132.000	143.725	80.008	19.993	104.014	19.960	4.075	0.524
134.000	144.655	80.007	19.994	104.015	19.961	4.021	0.487
136.000	145.633	80.006	19.992	104.015	19.961	4.016	0.478
138.000	146.622	80.009	19.994	104.015	19.957	4.266	0.495
140.000	147.667	80.008	19.993	103.993	19.957	4.316	0.513
142.000	148.665	80.010	19.995	103.949	19.958	4.227	0.507
144.000	149.683	80.009	19.995	103.985	19.958	4.250	0.537
146.000	150.613	80.009	19.994	104.014	19.965	3.732	0.510
148.000	151.621	80.009	19.994	104.065	19.963	3.883	0.500
150.000	152.627	80.010	19.994	104.005	19.960	4.072	0.501
152.000	153.628	80.010	19.992	103.999	19.963	3.862	0.496
154.000	154.652	80.009	19.995	104.003	19.962	3.919	0.505
156.000	155.686	80.009	19.994	103.997	19.956	4.359	0.516
158.000	156.703	80.008	19.994	103.986	19.959	4.138	0.506
160.000	157.736	80.008	19.993	103.983	19.959	4.147	0.524
162.000	158.800	80.008	19.994	103.980	19.963	3.858	0.538
164.000	159.791	80.009	19.994	103.979	19.961	3.998	0.493
166.000	160.850	80.010	19.994	103.983	19.958	4.245	0.553
168.000	161.860	80.008	19.995	103.994	19.958	4.219	0.512
170.000	162.861	80.010	19.995	103.982	19.956	4.383	0.511
172.000	163.948	80.010	19.994	103.973	19.957	4.294	0.534
174.000	164.972	80.010	19.994	103.974	19.960	4.075	0.508
176.000	165.982	80.009	19.994	103.978	19.956	4.381	0.473
178.000	167.067	80.009	19.994	103.976	19.954	4.458	0.559
180.000	168.051	80.010	19.995	103.976	19.956	4.343	0.519
182.000	169.074	80.008	19.992	103.978	19.953	4.536	0.531
184.000	170.060	80.008	19.993	103.978	19.954	4.466	0.504
186.000	171.098	80.008	19.993	103.980	19.950	4.738	0.520
188.000	172.134	80.008	19.995	103.979	19.951	4.667	0.527
190.000	173.136	80.008	19.993	103.979	19.954	4.511	0.510
192.000	174.116	80.009	19.993	103.979	19.950	4.788	0.485
194.000	175.165	80.008	19.993	103.993	19.957	4.319	0.504
196.000	176.152	80.008	19.993	103.980	19.955	4.450	0.475
198.000	177.147	80.007	19.994	103.969	19.949	4.822	0.474
200.000	178.158	80.007	19.994	103.976	19.951	4.730	0.498
202.000	179.116	80.007	19.994	103.963	19.948	4.896	0.466
204.000	180.159	80.008	19.993	103.975	19.948	4.897	0.499
206.000	181.141	80.009	19.994	103.965	19.950	4.746	0.470
208.000	182.141	80.008	19.994	103.968	19.946	5.029	0.492
210.000	183.105	80.008	19.993	103.961	19.942	5.332	0.490
212.000	184.100	80.008	19.992	103.977	19.938	5.589	0.470
214.000	185.152	80.008	19.994	103.964	19.937	5.635	0.481
216.000	186.118	80.008	19.994	103.943	19.939	5.493	0.533
218.000	187.148	80.007	19.994	103.955	19.939	5.535	0.524
220.000	188.174	80.008	19.995	103.957	19.933	5.933	0.494
222.000	189.063	80.007	19.994	103.971	19.932	5.980	0.437
224.000	190.030	80.007	19.993	103.969	19.931	6.070	0.464
226.000	190.965	80.011	19.992	103.957	19.930	6.123	0.466
228.000	191.990	80.008	19.995	103.956	19.929	6.248	0.484
230.000	192.961	80.010	19.994	103.966	19.927	6.322	0.483
232.000	193.949	80.011	19.993	103.944	19.922	6.730	0.484
234.000	194.904	80.010	19.994	103.966	19.925	6.482	0.481
236.000	195.848	80.009	19.994	103.963	19.921	6.771	0.457
238.000	196.810	80.009	19.994	103.943	19.923	6.657	0.465
240.000	197.753	80.009	19.995	103.955	19.920	6.826	0.473
242.000	198.751	80.008	19.993	103.953	19.921	6.795	0.499
244.000	199.675	80.010	19.993	103.958	19.917	7.056	0.457
246.000	200.619	80.010	19.992	103.953	19.922	6.711	0.473
248.000	201.582	80.008	19.996	103.961	19.917	7.056	0.466
250.001	202.562	80.010	19.995	103.968	19.919	6.872	0.489
252.000	203.539	80.009	19.994	103.952	19.914	7.261	0.488
254.000	204.454	80.010	19.994	103.943	19.914	7.251	0.452
256.001	205.418	80.010	19.994	103.958	19.912	7.363	0.488
258.000	206.395	80.010	19.994	103.954	19.913	7.322	0.512
260.000	207.369	80.010	19.995	103.953	19.907	7.735	0.489
262.000	208.301	80.009	19.995	103.953	19.911	7.466	0.456
264.000	209.318	80.008	19.994	103.969	19.907	7.744	0.501
266.000	210.302	80.007	19.994	103.955	19.902	8.111	0.494
268.001	211.306	80.007	19.996	103.951	19.905	7.885	0.504
270.000	212.215	80.007	19.995	103.958	19.903	7.981	0.476
272.000	213.169	80.007	19.993	103.962	19.902	8.095	0.507
274.000	214.133	80.007	19.994	103.962	19.898	8.333	0.412
276.000	215.139	80.008	19.993	103.965	19.893	8.728	0.477
278.000	216.116	80.007	19.993	103.966	19.892	8.751	0.480
280.000	217.070	80.008	19.994	103.963	19.889	8.990	0.478
282.000	218.032	80.008	19.995	103.955	19.889	9.010	0.486
284.000	218.999	80.008	19.994	103.973	19.882	9.464	0.487
286.000	219.988	80.008	19.994	103.976	19.881	9.564	0.464
288.000	220.960	80.008	19.994	103.977	19.876	9.904	0.482
290.000	221.950	80.009	19.995	103.979	19.873	10.072	0.520
292.000	222.935	80.010	19.993	103.968	19.868	10.403	0.502
294.000	223.948	80.008	19.995	103.974	19.862	10.832	0.556
296.000	224.894	80.008	19.993	103.978	19.858	11.086	0.481
298.000	225.904	80.009	19.994	103.978	19.853	11.453	0.504
300.000	226.875	80.009	19.994	103.983	19.847	11.873	0.481
302.000	227.915	80.008	19.994	103.980	19.842	12.223	0.520
304.000	228.889	80.009	19.993	103.981	19.835	12.741	0.530
306.000	229.912	80.008	19.993	103.989	19.831	12.967	0.512
308.000	230.922	80.008	19.994	104.008	19.822	13.589	0.508
310.000	231.931	80.010	19.994	103.998	19.814	14.160	0.509
312.000	232.866	80.011	19.993	104.005	19.809	14.483	0.463
314.001	233.880	80.011	19.994	104.014	19.802	14.965	0.458
316.000	234.938	80.010	19.993	104.006	19.795	15.477	0.501
318.000	235.922	80.010	19.993	104.008	19.792	15.686	0.472
320.000	236.916	80.010	19.994	104.016	19.786	16.067	0.490
322.000	237.956	80.009	19.993	104.020	19.778	16.612	0.506
324.000	238.936	80.010	19.992	104.011	19.776	16.800	0.482
326.000	239.949	80.009	19.992	103.999	19.776	16.789	0.506
328.000	240.909	80.010	19.994	103.997	19.773	16.961	0.467
330.000	241.964	80.009	19.994	103.986	19.774	16.924	0.488
332.000	242.973	80.009	19.994	103.982	19.774	16.903	0.518
334.000	243.994	80.010	19.994	103.997	19.771	17.149	0.508
336.000	244.996	80.009	19.993	104.003	19.774	16.935	0.492
338.000	246.024	80.010	19.996	104.014	19.774	16.928	0.515
340.000	247.062	80.011	19.993	104.016	19.771	17.112	0.536
342.000	248.039	80.011	19.994	104.014	19.769	17.267	0.475
344.000	249.146	80.011	19.993	104.025	19.771	17.169	0.564
346.000	250.198	80.010	19.994	104.043	19.764	17.648	0.554
348.000	251.224	80.008	19.992	104.045	19.761	17.863	0.541
350.000	252.222	80.008	19.995	104.050	19.759	17.963	0.488
352.000	253.295	80.010	19.994	104.055	19.750	18.564	0.528
354.000	254.313	80.006	19.995	104.055	19.744	19.036	0.510
356.000	255.343	80.007	19.994	104.060	19.732	19.811	0.500
358.000	256.333	80.008	19.994	104.064	19.722	20.526	0.534
360.000	257.359	80.006	19.995	104.084	19.710	21.364	0.496
362.000	258.391	80.008	19.996	104.071	19.692	22.578	0.519
364.000	259.386	80.009	19.997	104.085	19.674	23.837	0.530
366.000	260.398	80.009	19.995	104.075	19.652	25.355	0.506
368.000	261.381	80.009	19.996	104.068	19.628	26.974	0.490
370.001	262.384	80.009	19.994	104.064	19.600	28.873	0.503
372.000	263.433	80.009	19.994	104.056	19.573	30.770	0.531
374.000	264.429	80.008	19.995	104.029	19.543	32.788	0.486
376.000	265.472	80.009	19.994	104.000	19.512	34.932	0.556
378.000	266.465	80.008	19.993	103.951	19.490	36.461	0.500
380.000	267.476	80.009	19.994	103.896	19.469	37.916	0.511
382.000	268.459	80.007	19.993	103.855	19.459	38.613	0.473
384.000	269.463	80.007	19.994	103.797	19.452	39.071	0.495
386.000	270.519	80.008	19.994	103.775	19.458	38.682	0.539
388.000	271.474	80.009	19.994	103.753	19.472	37.701	0.507
390.000	272.471	80.008	19.993	103.749	19.489	36.550	0.500
392.000	273.458	80.009	19.994	103.766	19.515	34.769	0.478
394.000	274.450	80.008	19.994	103.784	19.544	32.775	0.496
396.000	275.400	80.009	19.994	103.801	19.571	30.859	0.495
398.000	276.402	80.010	19.994	103.831	19.600	28.892	0.489
400.000	277.372	80.010	19.993	103.838	19.624	27.235	0.477
402.000	278.366	80.010	19.994	103.854	19.652	25.332	0.514
404.000	279.367	80.011	19.995	103.860	19.672	23.947	0.511
406.000	280.298	80.010	19.994	103.862	19.693	22.452	0.486
408.000	281.302	80.010	19.993	103.863	19.716	20.890	0.495
410.000	282.268	80.009	19.993	103.862	19.732	19.815	0.468
412.000	283.220	80.010	19.993	103.864	19.751	18.517	0.475
414.000	284.216	80.010	19.994	103.873	19.763	17.635	0.479
416.000	285.195	80.011	19.993	103.863	19.774	16.904	0.497
418.000	286.156	80.012	19.994	103.864	19.784	16.199	0.501
420.001	287.139	80.011	19.994	103.873	19.796	15.375	0.496
422.000	288.156	80.012	19.995	103.872	19.805	14.771	0.505
424.000	289.122	80.011	19.994	103.872	19.812	14.272	0.503
426.000	290.115	80.011	19.993	103.871	19.818	13.851	0.511
428.000	291.087	80.010	19.994	103.860	19.824	13.421	0.504
430.000	292.082	80.010	19.996	103.888	19.830	13.057	0.497
432.000	293.058	80.009	19.995	103.891	19.833	12.832	0.503
434.000	294.045	80.009	19.995	103.886	19.839	12.385	0.497
436.000	295.045	80.009	19.993	103.875	19.842	12.185	0.519
438.000	295.983	80.009	19.993	103.873	19.846	11.928	0.480
440.000	296.994	80.008	19.993	103.882	19.850	11.659	0.491
442.000	297.949	80.009	19.995	103.882	19.851	11.578	0.478
444.000	298.977	80.009	19.995	103.883	19.854	11.386	0.473
446.000	299.925	80.009	19.994	103.894	19.859	11.054	0.459
448.000	300.888	80.010	19.992	103.883	19.859	11.041	0.494
450.000	301.887	80.008	19.993	103.890	19.859	11.060	0.498
452.000	302.894	80.008	19.995	103.888	19.863	10.789	0.488
454.000	303.901	80.009	19.994	103.892	19.862	10.857	0.509
456.000	304.883	80.008	19.993	103.900	19.864	10.704	0.495
458.000	305.858	80.008	19.995	103.896	19.866	10.525	0.517
460.000	306.888	80.007	19.996	103.902	19.867	10.517	0.502
462.000	307.887	80.007	19.996	103.900	19.872	10.151	0.518
464.000	308.825	80.007	19.994	103.902	19.871	10.232	0.460
466.000	309.865	80.007	19.994	103.900	19.871	10.187	0.521
468.000	310.864	80.008	19.994	103.903	19.872	10.166	0.498
470.000	311.878	80.008	19.993	103.900	19.878	9.760	0.534
472.000	312.905	80.009	19.993	103.897	19.877	9.820	0.523
474.000	313.895	80.009	19.993	103.899	19.877	9.766	0.485
476.000	314.911	80.010	19.994	103.896	19.878	9.728	0.498
478.000	315.959	80.010	19.994	103.896	19.877	9.780	0.517
480.000	316.964	80.010	19.994	103.894	19.878	9.742	0.477
482.000	317.961	80.010	19.993	103.897	19.880	9.570	0.538
484.000	318.947	80.011	19.993	103.888	19.881	9.535	0.503
486.000	319.997	80.011	19.994	103.898	19.879	9.677	0.501
488.000	320.994	80.010	19.995	103.899	19.880	9.558	0.547
490.000	321.985	80.009	19.994	103.901	19.888	9.068	0.494
492.000	322.980	80.010	19.993	103.900	19.883	9.393	0.518
494.000	324.014	80.011	19.993	103.893	19.884	9.306	0.502
496.000	324.978	80.009	19.993	103.890	19.883	9.374	0.477
498.000	326.053	80.011	19.993	103.898	19.886	9.206	0.503
500.000	326.989	80.010	19.994	103.895	19.879	9.646	0.475
502.000	328.058	80.012	19.992	103.899	19.883	9.415	0.511
504.000	329.046	80.013	19.992	103.898	19.884	9.344	0.509
506.000	330.082	80.012	19.993	103.896	19.883	9.362	0.489
508.000	331.054	80.011	19.992	103.898	19.882	9.447	0.478
510.000	332.073	80.010	19.993	103.898	19.884	9.281	0.476
512.000	333.088	80.010	19.993	103.901	19.890	8.914	0.526
514.000	334.066	80.009	19.992	103.890	19.888	9.068	0.498
516.000	335.083	80.008	19.994	103.888	19.887	9.100	0.505
518.000	336.104	80.010	19.994	103.895	19.885	9.269	0.513
520.000	337.094	80.008	19.994	103.894	19.884	9.327	0.519
522.000	338.114	80.009	19.995	103.894	19.887	9.138	0.507
524.000	339.143	80.008	19.995	103.898	19.885	9.274	0.506
526.000	340.145	80.009	19.994	103.891	19.883	9.392	0.503
528.000	341.126	80.009	19.994	103.888	19.884	9.343	0.507
530.000	342.151	80.008	19.994	103.898	19.885	9.278	0.489
532.000	343.113	80.008	19.993	103.900	19.883	9.373	0.458
534.000	344.112	80.008	19.996	103.898	19.887	9.081	0.467
536.000	345.092	80.009	19.994	103.891	19.885	9.268	0.478
538.000	346.143	80.009	19.993	103.892	19.881	9.525	0.521
540.000	347.104	80.009	19.994	103.888	19.884	9.283	0.486
542.000	348.111	80.008	19.994	103.886	19.879	9.645	0.525
544.000	349.146	80.008	19.995	103.895	19.876	9.839	0.521
546.000	350.107	80.009	19.994	103.898	19.879	9.641	0.499
548.000	351.122	80.009	19.997	103.896	19.876	9.875	0.515
550.000	352.109	80.009	19.996	103.897	19.877	9.813	0.480
552.001	353.095	80.007	19.996	103.897	19.877	9.826	0.482
554.000	354.157	80.008	19.995	103.896	19.874	10.036	0.527
556.000	355.097	80.010	19.995	103.893	19.874	9.991	0.478
558.000	356.051	80.009	19.995	103.895	19.876	9.858	0.459
560.000	357.070	80.010	19.994	103.890	19.876	9.872	0.490
562.000	358.056	80.010	19.993	103.897	19.872	10.164	0.501
564.000	359.032	80.012	19.994	103.897	19.874	9.991	0.494
566.000	359.998	80.011	19.992	103.897	19.869	10.376	0.479
568.000	360.987	80.011	19.994	103.895	19.872	10.117	0.481
570.000	361.979	80.011	19.994	103.898	19.869	10.343	0.505
572.000	363.003	80.010	19.995	103.900	19.867	10.456	0.500
574.000	363.924	80.009	19.994	103.900	19.868	10.429	0.474
576.000	364.900	80.010	19.994	103.902	19.865	10.628	0.485
578.000	365.929	80.009	19.995	103.902	19.864	10.681	0.525
580.000	366.887	80.011	19.994	103.909	19.863	10.736	0.484
582.000	367.857	80.011	19.993	103.913	19.865	10.664	0.473
584.000	368.854	80.009	19.994	103.907	19.861	10.917	0.495
586.000	369.849	80.010	19.993	103.909	19.859	11.041	0.494
588.000	370.807	80.011	19.993	103.921	19.858	11.095	0.469
590.000	371.745	80.011	19.994	103.927	19.856	11.245	0.481
592.000	372.777	80.011	19.994	103.934	19.854	11.408	0.491
594.000	373.778	80.011	19.993	103.935	19.853	11.467	0.506
596.000	374.754	80.008	19.994	103.946	19.848	11.809	0.491
598.000	375.730	80.008	19.993	103.946	19.846	11.956	0.503
600.000	376.667	80.010	19.993	103.955	19.846	11.969	0.458
602.000	377.693	80.010	19.994	103.954	19.842	12.251	0.534
604.000	378.653	80.010	19.994	103.956	19.841	12.289	0.503
606.000	379.631	80.010	19.994	103.958	19.839	12.392	0.482
608.000	380.645	80.010	19.997	103.955	19.837	12.596	0.519
610.000	381.545	80.009	19.996	103.958	19.836	12.664	0.477
612.000	382.532	80.008	19.994	103.946	19.834	12.794	0.509
614.000	383.552	80.009	19.994	103.940	19.833	12.866	0.507
616.000	384.496	80.009	19.995	103.939	19.830	13.027	0.501
618.000	385.487	80.008	19.993	103.934	19.826	13.302	0.514
620.000	386.453	80.009	19.995	103.937	19.830	13.052	0.484
622.000	387.445	80.008	19.995	103.934	19.824	13.428	0.500
624.000	388.413	80.009	19.995	103.937	19.824	13.437	0.484
626.000	389.398	80.009	19.995	103.925	19.822	13.561	0.484
628.000	390.348	80.010	19.994	103.922	19.819	13.784	0.482
630.000	391.346	80.010	19.994	103.923	19.816	14.004	0.504
632.000	392.339	80.009	19.995	103.901	19.815	14.049	0.513
634.000	393.299	80.009	19.994	103.903	19.809	14.481	0.491
636.000	394.284	80.009	19.995	103.900	19.804	14.815	0.478
638.000	395.281	80.008	19.994	103.901	19.802	14.954	0.527
640.000	396.272	80.009	19.995	103.901	19.802	14.987	0.474
642.000	397.223	80.010	19.995	103.895	19.798	15.214	0.432
644.000	398.139	80.010	19.995	103.899	19.795	15.434	0.459
646.000	399.144	80.009	19.995	103.888	19.786	16.059	0.505
648.000	400.100	80.009	19.995	103.891	19.783	16.251	0.473
650.000	401.035	80.010	19.994	103.884	19.782	16.376	0.471
652.000	401.995	80.010	19.995	103.872	19.776	16.768	0.482
654.000	402.964	80.010	19.994	103.878	19.773	16.981	0.468
656.000	403.969	80.010	19.994	103.879	19.763	17.675	0.497
658.000	404.903	80.011	19.994	103.894	19.756	18.145	0.479
660.000	405.867	80.009	19.993	103.885	19.748	18.669	0.521
662.000	406.833	80.009	19.993	103.897	19.740	19.265	0.480
664.000	407.806	80.011	19.993	103.895	19.731	19.836	0.504
666.000	408.819	80.011	19.995	103.899	19.723	20.416	0.500
668.000	409.815	80.010	19.995	103.886	19.717	20.823	0.479
670.000	410.821	80.012	19.995	103.899	19.710	21.322	0.505
672.001	411.813	80.013	19.993	103.882	19.699	22.088	0.518
674.000	412.857	80.012	19.994	103.887	19.688	22.825	0.530
676.000	413.866	80.013	19.993	103.882	19.679	23.448	0.508
678.000	414.868	80.012	19.994	103.890	19.670	24.092	0.496
680.000	415.880	80.009	19.993	103.874	19.660	24.793	0.476
682.000	416.954	80.010	19.994	103.877	19.651	25.351	0.547
684.000	418.015	80.011	19.993	103.870	19.635	26.456	0.546
686.000	419.080	80.010	19.994	103.887	19.627	27.030	0.528
688.000	420.160	80.010	19.993	103.873	19.615	27.891	0.562
690.000	421.227	80.010	19.994	103.879	19.599	28.963	0.545
692.000	422.265	80.011	19.992	103.884	19.589	29.646	0.542
694.000	423.359	80.010	19.993	103.879	19.575	30.617	0.531
696.000	424.436	80.010	19.993	103.883	19.560	31.652	0.549
698.000	425.455	80.011	19.993	103.882	19.545	32.681	0.530
700.000	426.548	80.009	19.994	103.874	19.532	33.612	0.546
702.000	427.664	80.011	19.993	103.879	19.523	34.194	0.537
704.000	428.741	80.009	19.994	103.885	19.497	35.981	0.485
706.000	429.792	80.010	19.994	103.895	19.487	36.698	0.543
708.000	430.797	80.008	19.993	103.884	19.473	37.671	0.488
710.000	431.871	80.008	19.994	103.890	19.454	38.968	0.505
712.000	432.962	80.009	19.995	103.876	19.436	40.192	0.482
714.000	434.086	80.009	19.995	103.880	19.422	41.201	0.571
716.000	435.263	80.008	19.995	103.881	19.407	42.185	0.460
718.000	436.012	80.009	19.995	103.879	19.390	43.367	0.666
720.000	437.244	80.009	19.995	103.874	19.376	44.377	0.699
722.000	438.331	80.008	19.994	103.877	19.359	45.537	0.476
724.000	439.293	80.009	19.993	103.874	19.344	46.552	0.483
726.000	440.344	80.011	19.994	103.879	19.328	47.672	0.538
728.000	441.412	80.010	19.996	103.873	19.313	48.679	0.469
730.000	442.509	80.011	19.994	103.886	19.300	49.574	0.497
732.000	443.511	80.011	19.995	103.869	19.287	50.487	0.483
734.000	444.609	80.010	19.995	103.871	19.274	51.387	0.507
736.000	445.630	80.010	19.994	103.867	19.264	52.072	0.527
738.000	446.621	80.011	19.995	103.873	19.255	52.661	0.492
740.000	447.746	80.010	19.994	103.865	19.248	53.137	0.520
742.000	448.754	80.010	19.995	103.864	19.241	53.669	0.514
744.000	449.807	80.010	19.997	103.867	19.237	53.933	0.502
746.000	450.838	80.010	19.996	103.869	19.232	54.267	0.522
748.000	451.926	80.010	19.996	103.865	19.228	54.550	0.542
750.000	452.912	80.011	19.995	103.866	19.229	54.446	0.521
752.000	453.977	80.012	19.994	103.859	19.228	54.514	0.509
754.000	455.058	80.011	19.994	103.867	19.226	54.677	0.516
756.000	456.140	80.013	19.994	103.867	19.232	54.272	0.522
758.000	457.147	80.012	19.994	103.871	19.234	54.141	0.482
760.000	458.202	80.011	19.993	103.867	19.240	53.708	0.517
762.000	459.264	80.010	19.993	103.867	19.245	53.365	0.513
764.000	460.290	80.009	19.993	103.870	19.259	52.441	0.510
766.000	461.316	80.008	19.995	103.879	19.266	51.924	0.522
768.000	462.360	80.009	19.996	103.882	19.283	50.751	0.503
770.000	463.375	80.010	19.994	103.868	19.294	49.965	0.511
772.000	464.394	80.009	19.995	103.871	19.309	48.930	0.521
774.000	465.400	80.009	19.994	103.865	19.326	47.805	0.515
776.000	466.428	80.009	19.993	103.877	19.342	46.713	0.522
778.000	467.471	80.009	19.994	103.864	19.360	45.445	0.527
780.000	468.493	80.009	19.994	103.866	19.382	43.907	0.503
782.000	469.481	80.010	19.994	103.868	19.400	42.692	0.534
784.000	470.557	80.010	19.994	103.877	19.424	41.021	0.517
786.000	471.574	80.011	19.994	103.866	19.442	39.784	0.544
788.000	472.619	80.009	19.996	103.865	19.465	38.210	0.508
790.000	473.632	80.009	19.994	103.892	19.490	36.494	0.515
792.000	474.693	80.010	19.994	103.871	19.509	35.145	0.502
794.000	475.751	80.009	19.994	103.878	19.531	33.690	0.533
796.000	476.758	80.010	19.993	103.889	19.556	31.951	0.504
798.000	477.804	80.009	19.994	103.888	19.576	30.538	0.513
800.000	478.852	80.009	19.993	103.881	19.598	29.040	0.522
802.000	479.862	80.009	19.993	103.885	19.620	27.533	0.507
804.000	480.896	80.010	19.995	103.895	19.641	26.085	0.489
806.000	481.893	80.011	19.995	103.888	19.658	24.930	0.509
808.000	482.903	80.011	19.995	103.887	19.681	23.293	0.504
810.000	483.907	80.011	19.994	103.884	19.697	22.180	0.490
812.000	484.922	80.012	19.994	103.894	19.719	20.673	0.501
814.000	485.931	80.013	19.995	103.897	19.739	19.331	0.521
816.000	486.945	80.011	19.994	103.897	19.755	18.186	0.507
818.001	487.933	80.011	19.995	103.898	19.771	17.126	0.484
820.000	488.874	80.011	19.995	103.898	19.788	15.934	0.468
822.000	489.904	80.010	19.995	103.902	19.805	14.796	0.511
824.000	490.885	80.011	19.995	103.905	19.818	13.844	0.459
826.000	491.877	80.010	19.995	103.899	19.826	13.290	0.517
828.000	492.886	80.010	19.994	103.910	19.835	12.713	0.519
830.000	493.840	80.011	19.994	103.911	19.848	11.830	0.502
832.000	494.822	80.011	19.994	103.905	19.856	11.219	0.472
834.001	495.861	80.011	19.993	103.910	19.864	10.711	0.516
836.000	496.804	80.011	19.995	103.906	19.873	10.074	0.452
838.000	497.841	80.012	19.994	103.903	19.882	9.472	0.519
840.000	498.781	80.012	19.994	103.900	19.889	8.954	0.469
842.000	499.751	80.010	19.995	103.899	19.890	8.914	0.476
844.000	500.745	80.009	19.994	103.901	19.894	8.654	0.466
846.000	501.706	80.011	19.993	103.901	19.900	8.193	0.476
848.000	502.694	80.011	19.995	103.898	19.908	7.652	0.477
850.000	503.690	80.009	19.994	103.901	19.912	7.388	0.468
852.000	504.643	80.008	19.993	103.899	19.915	7.146	0.494
854.000	505.583	80.009	19.994	103.901	19.919	6.891	0.485
856.000	506.538	80.009	19.993	103.896	19.922	6.723	0.457
858.000	507.506	80.008	19.993	103.896	19.928	6.250	0.463
860.000	508.512	80.010	19.994	103.901	19.930	6.129	0.501
862.000	509.469	80.009	19.994	103.892	19.930	6.139	0.492
864.000	510.462	80.010	19.993	103.892	19.937	5.663	0.507
866.000	511.427	80.009	19.995	103.897	19.936	5.756	0.457
868.000	512.410	80.009	19.993	103.891	19.939	5.505	0.502
870.000	513.402	80.009	19.995	103.890	19.943	5.277	0.504
872.000	514.435	80.010	19.993	103.884	19.944	5.160	0.520
874.000	515.425	80.008	19.994	103.896	19.948	4.933	0.491
876.000	516.439	80.010	19.994	103.886	19.945	5.122	0.513
878.000	517.481	80.010	19.993	103.896	19.954	4.506	0.504
880.000	518.541	80.008	19.994	103.886	19.952	4.646	0.537
882.000	519.545	80.009	19.994	103.885	19.950	4.752	0.555
884.000	520.586	80.010	19.993	103.884	19.951	4.681	0.533
886.001	521.638	80.010	19.994	103.882	19.952	4.626	0.531
888.000	522.651	80.010	19.994	103.880	19.956	4.318	0.529
890.000	523.652	80.011	19.993	103.866	19.956	4.378	0.504
892.000	524.741	80.011	19.991	103.874	19.960	4.065	0.525
894.000	525.808	80.012	19.992	103.884	19.959	4.174	0.532
896.000	526.841	80.010	19.994	103.881	19.962	3.924	0.535
898.000	527.927	80.011	19.994	103.871	19.963	3.845	0.519
900.000	529.029	80.012	19.993	103.887	19.962	3.954	0.568
902.000	530.091	80.011	19.993	103.867	19.963	3.873	0.539
904.000	531.144	80.010	19.993	103.865	19.960	4.043	0.527
906.000	532.264	80.010	19.993	103.872	19.959	4.158	0.533
908.000	533.357	80.009	19.995	103.880	19.963	3.881	0.520
910.000	534.497	80.010	19.994	103.881	19.964	3.782	0.578
912.000	535.588	80.010	19.994	103.876	19.969	3.486	0.536
914.000	536.698	80.010	19.995	103.879	19.966	3.672	0.576
916.000	537.773	80.011	19.993	103.871	19.965	3.719	0.537
918.000	538.850	80.011	19.993	103.869	19.965	3.711	0.512
920.000	540.022	80.012	19.992	103.869	19.965	3.700	0.586
922.000	541.099	80.011	19.995	103.868	19.969	3.479	0.559
924.000	542.218	80.010	19.994	103.871	19.967	3.577	0.563
926.000	543.266	80.010	19.993	103.887	19.966	3.643	0.528
928.000	544.406	80.009	19.994	103.867	19.971	3.335	0.556
930.000	545.473	80.009	19.994	103.875	19.969	3.432	0.547
932.000	546.552	80.008	19.996	103.876	19.969	3.471	0.536
934.000	547.665	80.009	19.995	103.879	19.970	3.373	0.535
936.000	548.785	80.009	19.996	103.863	19.971	3.345	0.545
938.000	549.833	80.009	19.995	103.865	19.971	3.349	0.530
940.000	550.935	80.009	19.995	103.864	19.972	3.224	0.554
942.000	552.055	80.009	19.993	103.872	19.970	3.407	0.519
944.001	553.154	80.009	19.994	103.876	19.973	3.179	0.554
946.000	554.236	80.010	19.994	103.871	19.969	3.455	0.543
948.000	555.324	80.010	19.993	103.877	19.969	3.419	0.548
950.000	556.348	80.009	19.994	103.872	19.969	3.470	0.516
952.000	557.424	80.010	19.994	103.874	19.970	3.379	0.517
954.000	558.474	80.010	19.994	103.870	19.971	3.337	0.492
956.000	559.581	80.009	19.994	103.872	19.974	3.115	0.511
958.000	560.626	80.010	19.994	103.880	19.973	3.197	0.541
960.000	561.663	80.009	19.993	103.872	19.974	3.110	0.524
962.000	562.737	80.010	19.995	103.870	19.973	3.202	0.523
964.000	563.804	80.008	19.995	103.869	19.973	3.174	0.533
966.000	564.775	80.007	19.993	103.874	19.969	3.432	0.519
968.000	565.892	80.010	19.996	103.879	19.971	3.308	0.545
970.000	566.925	80.010	19.994	103.885	19.975	3.049	0.512
972.000	567.955	80.009	19.994	103.885	19.974	3.123	0.493
974.000	569.024	80.012	19.994	103.873	19.973	3.153	0.539
976.000	570.064	80.010	19.994	103.875	19.973	3.164	0.526
978.000	571.089	80.011	19.993	103.883	19.973	3.208	0.504
980.000	572.098	80.012	19.994	103.878	19.975	3.021	0.531
982.000	573.183	80.011	19.994	103.874	19.972	3.247	0.557
984.000	574.229	80.011	19.993	103.879	19.969	3.440	0.530
986.000	575.321	80.010	19.993	103.883	19.972	3.228	0.537
988.000	576.331	80.010	19.993	103.874	19.972	3.228	0.511
990.000	577.358	80.010	19.994	103.874	19.973	3.168	0.490
992.000	578.379	80.011	19.994	103.871	19.973	3.183	0.502
994.000	579.453	80.012	19.993	103.882	19.971	3.283	0.546
996.000	580.417	80.011	19.993	103.868	19.968	3.501	0.495
998.000	581.476	80.011	19.994	103.862	19.972	3.262	0.527
1000.000	582.441	80.011	19.995	103.865	19.974	3.117	0.495
1002.000	583.448	80.012	19.994	103.865	19.969	3.418	0.492
1004.000	584.508	80.013	19.994	103.869	19.968	3.518	0.502
1006.000	585.508	80.012	19.995	103.871	19.970	3.382	0.479
1008.000	586.483	80.012	19.995	103.857	19.969	3.460	0.496
1010.000	587.477	80.011	19.994	103.865	19.966	3.654	0.491
1012.000	588.498	80.010	19.994	103.862	19.972	3.237	0.513
1014.000	589.531	80.009	19.994	103.860	19.970	3.364	0.512
1016.000	590.536	80.010	19.994	103.859	19.970	3.417	0.483
1018.000	591.492	80.009	19.994	103.861	19.976	2.940	0.505
1020.000	592.488	80.010	19.994	103.864	19.974	3.082	0.497
1022.000	593.516	80.010	19.994	103.862	19.974	3.120	0.524
1024.000	594.494	80.009	19.994	103.859	19.972	3.241	0.508
1026.000	595.522	80.008	19.995	103.864	19.971	3.305	0.520
1028.000	596.524	80.009	19.997	103.864	19.970	3.394	0.478
1030.001	597.524	80.010	19.995	103.816	19.969	3.464	0.510
1032.000	598.541	80.010	19.995	103.888	19.970	3.407	0.494
1034.000	599.543	80.009	19.995	103.927	19.972	3.234	0.505
1036.000	600.460	80.009	19.994	103.859	19.969	3.441	0.459
1038.001	601.514	80.009	19.995	103.868	19.973	3.173	0.508
1040.000	602.495	80.009	19.993	103.875	19.969	3.480	0.499
1042.000	603.477	80.010	19.995	103.872	19.972	3.213	0.507
1044.000	604.483	80.009	19.994	103.862	19.968	3.554	0.499
1046.000	605.497	80.008	19.995	103.863	19.969	3.462	0.511
1048.000	606.422	80.009	19.994	103.876	19.967	3.602	0.461
1050.000	607.439	80.008	19.994	103.817	19.971	3.285	0.476
1052.000	608.455	80.009	19.994	103.909	19.969	3.465	0.510
1054.001	609.429	80.009	19.993	103.871	19.971	3.339	0.507
1056.000	610.410	80.010	19.993	103.867	19.973	3.153	0.503
1058.000	611.435	80.010	19.993	103.868	19.975	3.062	0.495
1060.000	612.433	80.010	19.994	103.878	19.969	3.439	0.491
1062.000	613.426	80.011	19.993	103.867	19.973	3.188	0.500
1064.000	614.503	80.011	19.995	103.862	19.970	3.381	0.531
1066.001	615.502	80.010	19.995	103.861	19.969	3.473	0.488
1068.000	616.573	80.011	19.994	103.864	19.968	3.534	0.531
1070.000	617.592	80.010	19.994	103.860	19.967	3.592	0.519
1072.000	618.622	80.010	19.995	103.860	19.967	3.601	0.527
1074.000	619.601	80.010	19.994	103.862	19.967	3.575	0.471
1076.001	620.627	80.011	19.993	103.861	19.970	3.352	0.502
1078.000	621.683	80.012	19.993	103.867	19.972	3.266	0.521
1080.000	622.687	80.012	19.993	103.869	19.971	3.347	0.498
1082.000	623.730	80.011	19.993	103.865	19.972	3.249	0.512
1084.000	624.752	80.013	19.994	103.873	19.972	3.277	0.524
1086.001	625.789	80.012	19.994	103.865	19.970	3.416	0.502
1088.000	626.824	80.013	19.995	103.860	19.970	3.390	0.523
1090.000	627.856	80.012	19.994	103.862	19.971	3.316	0.526
1092.000	628.903	80.011	19.994	103.866	19.972	3.279	0.550
1094.000	629.942	80.010	19.993	103.866	19.970	3.379	0.507
1096.000	630.976	80.009	19.995	103.860	19.964	3.769	0.509
1098.001	632.006	80.011	19.994	103.861	19.965	3.758	0.507
1100.000	633.037	80.010	19.995	103.854	19.967	3.560	0.499
1102.000	634.052	80.010	19.995	103.860	19.969	3.450	0.511
1104.001	635.143	80.009	19.995	103.862	19.969	3.486	0.557
1106.001	636.179	80.009	19.994	103.863	19.967	3.622	0.530
1108.000	637.201	80.010	19.993	103.866	19.969	3.484	0.541
1110.000	638.238	80.010	19.993	103.865	19.969	3.444	0.491
1112.000	639.281	80.011	19.994	103.864	19.967	3.577	0.527
1114.000	640.302	80.011	19.993	103.863	19.966	3.646	0.542
1116.000	641.376	80.010	19.993	103.862	19.967	3.592	0.502
1118.000	642.390	80.009	19.994	103.862	19.967	3.618	0.517
1120.000	643.429	80.008	19.993	103.854	19.970	3.367	0.502
1122.000	644.453	80.009	19.995	103.852	19.967	3.576	0.551
1124.000	645.465	80.009	19.994	103.862	19.968	3.494	0.524
1126.000	646.501	80.009	19.995	103.862	19.967	3.561	0.547
1128.000	647.515	80.008	19.995	103.860	19.969	3.424	0.522
1130.000	648.540	80.008	19.994	103.860	19.966	3.639	0.496
1132.000	649.588	80.008	19.994	103.859	19.971	3.343	0.531
1134.001	650.651	80.010	19.994	103.855	19.968	3.501	0.540
1136.000	651.670	80.009	19.995	103.857	19.971	3.292	0.517
1138.000	652.672	80.010	19.994	103.854	19.970	3.367	0.505
1140.000	653.682	80.010	19.994	103.854	19.970	3.388	0.500
1142.000	654.745	80.012	19.993	103.855	19.970	3.361	0.532
1144.000	655.788	80.011	19.993	103.850	19.973	3.167	0.518
1146.000	656.811	80.011	19.994	103.850	19.969	3.462	0.470
1148.000	657.833	80.010	19.995	103.851	19.971	3.326	0.517
1150.000	658.860	80.010	19.994	103.858	19.974	3.088	0.512
1152.000	659.897	80.013	19.995	103.855	19.971	3.282	0.516
1154.001	660.883	80.011	19.994	103.849	19.969	3.417	0.473
1156.000	661.942	80.011	19.994	103.857	19.972	3.243	0.534
1158.001	662.969	80.010	19.993	103.859	19.970	3.365	0.504
1160.001	663.992	80.010	19.995	103.848	19.969	3.484	0.500
1162.000	665.008	80.010	19.994	103.843	19.970	3.365	0.493
1164.001	666.059	80.011	19.995	103.842	19.969	3.459	0.568
1166.001	667.022	80.012	19.993	103.838	19.971	3.314	0.502
1168.000	668.021	80.012	19.993	103.841	19.967	3.574	0.479
1170.000	669.056	80.012	19.994	103.841	19.966	3.672	0.517
1172.000	670.057	80.010	19.994	103.851	19.969	3.480	0.493
1174.000	671.035	80.012	19.994	103.836	19.966	3.627	0.506
1176.000	672.062	80.011	19.994	103.835	19.965	3.736	0.514
1178.000	673.028	80.008	19.993	103.832	19.966	3.671	0.521
1180.000	674.102	80.010	19.994	103.834	19.967	3.614	0.606
1182.000	675.099	80.009	19.995	103.845	19.968	3.554	0.508
1184.000	676.103	80.008	19.992	103.847	19.967	3.563	0.485
1186.000	677.163	80.010	19.993	103.849	19.966	3.637	0.532
1188.000	678.174	80.009	19.994	103.855	19.970	3.395	0.525
1190.000	679.180	80.008	19.993	103.858	19.966	3.663	0.505
1192.001	680.215	80.009	19.994	103.848	19.970	3.386	0.520
1194.000	681.226	80.010	19.995	103.846	19.968	3.497	0.528
1196.001	682.244	80.009	19.994	103.847	19.968	3.516	0.505
1198.000	683.286	80.009	19.993	103.849	19.967	3.590	0.549
1200.000	684.247	80.010	19.994	103.851	19.969	3.422	0.508
1202.000	685.293	80.009	19.994	103.842	19.967	3.572	0.540
1204.000	686.282	80.009	19.994	103.849	19.967	3.569	0.485
1206.000	687.350	80.009	19.994	103.834	19.969	3.424	0.545
1208.001	688.320	80.008	19.995	103.850	19.966	3.663	0.500
1210.000	689.335	80.009	19.995	103.857	19.968	3.512	0.510
1212.000	690.325	80.009	19.994	103.845	19.969	3.450	0.503
1214.001	691.280	80.008	19.993	103.843	19.967	3.580	0.507
1216.000	692.285	80.009	19.995	103.859	19.966	3.635	0.471
1218.000	693.301	80.008	19.995	103.853	19.970	3.371	0.487
1220.001	694.328	80.010	19.995	103.836	19.971	3.333	0.534
1222.000	695.284	80.010	19.995	103.844	19.972	3.267	0.519
1224.000	696.285	80.009	19.995	103.846	19.970	3.380	0.474
1226.000	697.290	80.009	19.995	103.844	19.971	3.280	0.518
1228.000	698.217	80.010	19.995	103.855	19.968	3.537	0.493
1230.000	699.199	80.010	19.993	103.850	19.968	3.537	0.464
1232.000	700.180	80.010	19.994	103.833	19.967	3.571	0.498
1234.000	701.134	80.010	19.994	103.836	19.969	3.424	0.474
1236.001	702.113	80.010	19.994	103.834	19.970	3.360	0.528
1238.000	703.063	80.009	19.994	103.839	19.968	3.531	0.506
1240.000	704.064	80.009	19.993	103.853	19.968	3.493	0.512
1242.000	705.027	80.010	19.993	103.848	19.968	3.488	0.476
1244.000	705.970	80.010	19.993	103.859	19.968	3.489	0.482
1246.000	706.969	80.010	19.993	103.858	19.971	3.308	0.493
1248.000	707.989	80.011	19.992	103.860	19.967	3.588	0.499
1250.001	708.991	80.011	19.994	103.856	19.966	3.659	0.515
1252.000	710.029	80.011	19.993	103.856	19.965	3.759	0.535
1254.000	711.042	80.010	19.992	103.847	19.963	3.834	0.531
1256.000	712.093	80.010	19.993	103.853	19.965	3.717	0.505
1258.000	713.088	80.010	19.992	103.842	19.966	3.626	0.484
1260.000	714.151	80.012	19.993	103.858	19.963	3.880	0.509
1262.001	715.136	80.009	19.994	103.854	19.968	3.535	0.506
1264.000	716.188	80.009	19.995	103.853	19.966	3.648	0.510
1266.000	717.256	80.010	19.994	103.842	19.967	3.609	0.514
1268.000	718.266	80.010	19.995	103.857	19.965	3.737	0.519
1270.001	719.340	80.011	19.994	103.868	19.967	3.592	0.551
1272.000	720.408	80.010	19.994	103.859	19.965	3.739	0.548
1274.001	721.448	80.009	19.993	103.857	19.968	3.537	0.527
1276.000	722.509	80.010	19.992	103.860	19.965	3.739	0.551
1278.000	723.573	80.010	19.994	103.857	19.966	3.650	0.534
1280.001	724.588	80.009	19.993	103.854	19.967	3.620	0.539
1282.000	725.639	80.009	19.994	103.858	19.966	3.648	0.539
1284.000	726.688	80.010	19.995	103.860	19.968	3.505	0.528
1286.001	727.727	80.010	19.994	103.856	19.965	3.701	0.519
1288.001	728.762	80.009	19.994	103.850	19.965	3.725	0.506
1290.001	729.806	80.010	19.995	103.851	19.965	3.724	0.524
1292.000	730.869	80.010	19.993	103.854	19.969	3.471	0.487
1294.000	731.907	80.009	19.993	103.857	19.965	3.712	0.510
1296.000	732.955	80.010	19.994	103.854	19.966	3.680	0.536
1298.000	733.985	80.008	19.994	103.854	19.966	3.659	0.530
1300.000	735.005	80.009	19.994	103.857	19.962	3.912	0.520
1302.000	736.044	80.009	19.994	103.859	19.960	4.040	0.558
1304.000	737.049	80.008	19.993	103.855	19.965	3.718	0.492
1306.000	738.104	80.011	19.994	103.850	19.966	3.659	0.531
1308.000	739.144	80.011	19.995	103.854	19.962	3.957	0.512
1310.000	740.109	80.011	19.994	103.857	19.960	4.082	0.496
1312.001	741.163	80.009	19.994	103.845	19.964	3.763	0.630
1314.000	742.173	80.010	19.994	103.859	19.965	3.695	0.503
1316.000	743.181	80.009	19.994	103.860	19.964	3.773	0.513
1316.500	743.451	80.010	19.993	103.857	19.963	3.882	0.516