File: 01_Data/Rubber_Foam_Pipe_Insulation/MCC/Rubber_Foam_Pipe_Insulation_MCC_30K_min_220126_R1.txt
Sample ID:	C:\MCC\MCC Cal\Test\Rubber_Foam_Pipe_Insulation_MCC_30K_min_220126_R1.txt
Sample Weight (mg):	4.68
Heating Rate (C/s):	0.5
Combustor Temp (C):	900
N2 Flow Rate (cc/min):	80
O2 Flow Rate (cc/min):	20
Calibration File:	C:\MCC\MCC Cal\Coeff1 JN10440_30_210304.txt.txt
T Correction Coefficients:	0	1.024463	0
Time Shift (s):	14
*
Time (s)	Temperature (C)	N2 flow rate (cc/min)	O2 flow rate (cc/min)	Flow Rate (cc/min)	Oxygen (%)	HRR (W/g)	Heating rate (C/s)
0.000	112.947	80.005	19.996	103.676	20.277	-0.187	0.005
2.000	112.949	80.004	19.994	103.675	20.277	-0.147	0.002
4.000	112.969	80.004	19.994	103.686	20.275	-0.019	0.006
6.000	112.948	80.005	19.994	103.689	20.279	-0.303	-0.007
8.000	112.929	80.004	19.994	103.706	20.277	-0.147	-0.017
10.001	112.974	80.004	19.994	103.711	20.275	0.000	0.000
12.000	112.968	80.004	19.994	103.695	20.273	0.146	-0.026
14.000	112.994	80.004	19.995	103.685	20.275	-0.036	0.004
16.000	113.014	80.004	19.994	103.708	20.272	0.216	0.019
18.000	113.034	80.004	19.994	103.720	20.268	0.469	-0.009
20.000	113.064	80.002	19.993	103.714	20.268	0.484	0.005
22.000	113.074	80.005	19.994	103.714	20.266	0.615	-0.053
24.000	113.120	80.005	19.994	103.713	20.269	0.376	-0.012
26.000	113.194	80.005	19.994	103.711	20.269	0.414	0.023
28.001	113.256	80.006	19.994	103.734	20.269	0.371	0.052
30.000	113.289	80.004	19.993	103.735	20.263	0.793	0.039
32.000	113.384	80.007	19.994	103.737	20.263	0.824	0.031
34.000	113.491	80.006	19.993	103.746	20.258	1.132	0.043
36.000	113.528	80.006	19.994	103.774	20.260	1.032	0.052
38.000	113.702	80.005	19.992	103.805	20.257	1.259	0.099
40.000	113.813	80.006	19.994	103.832	20.253	1.496	0.052
42.000	113.990	80.006	19.993	103.848	20.254	1.466	0.111
44.000	114.181	80.006	19.993	103.867	20.250	1.684	0.100
46.000	114.440	80.006	19.993	103.860	20.246	2.004	0.156
48.000	114.631	80.007	19.993	103.865	20.243	2.169	0.074
50.001	114.901	80.006	19.992	103.855	20.244	2.099	0.118
52.000	115.230	80.007	19.993	103.867	20.239	2.483	0.122
54.000	115.537	80.009	19.995	103.885	20.239	2.500	0.164
56.000	115.872	80.008	19.993	103.897	20.240	2.422	0.166
58.000	116.241	80.007	19.994	103.887	20.235	2.733	0.181
60.000	116.659	80.006	19.994	103.891	20.241	2.349	0.192
62.000	117.065	80.006	19.993	103.887	20.239	2.478	0.198
64.000	117.484	80.005	19.993	103.876	20.235	2.773	0.223
66.000	117.910	80.005	19.994	103.871	20.237	2.637	0.214
68.001	118.374	80.005	19.993	103.881	20.230	3.074	0.264
70.000	118.850	80.004	19.993	103.888	20.231	3.056	0.248
72.000	119.315	80.005	19.994	103.899	20.234	2.819	0.203
74.000	119.871	80.004	19.994	103.905	20.234	2.853	0.247
76.000	120.369	80.004	19.994	103.904	20.226	3.390	0.247
78.000	120.923	80.004	19.995	103.904	20.231	3.056	0.276
80.000	121.475	80.004	19.994	103.906	20.230	3.115	0.273
82.000	122.003	80.004	19.993	103.908	20.227	3.292	0.260
84.000	122.627	80.004	19.994	103.917	20.232	2.942	0.307
86.000	123.253	80.004	19.993	103.939	20.235	2.774	0.329
88.000	123.901	80.002	19.993	103.940	20.231	3.054	0.317
90.000	124.519	80.005	19.994	103.937	20.232	2.963	0.298
92.000	125.214	80.003	19.994	103.940	20.231	3.012	0.354
94.000	125.928	80.005	19.993	103.936	20.230	3.088	0.356
96.000	126.557	80.003	19.994	103.923	20.236	2.715	0.332
98.000	127.299	80.004	19.994	103.920	20.234	2.806	0.357
100.000	128.004	80.004	19.995	103.912	20.230	3.098	0.355
102.001	128.707	80.004	19.995	103.915	20.228	3.256	0.367
104.000	129.420	80.006	19.995	103.925	20.230	3.096	0.361
106.000	130.192	80.004	19.995	103.932	20.228	3.215	0.379
108.000	130.925	80.006	19.994	103.920	20.231	3.060	0.357
110.000	131.708	80.004	19.994	103.921	20.229	3.158	0.382
112.000	132.436	80.004	19.995	103.913	20.232	2.935	0.385
114.001	133.192	80.006	19.997	103.915	20.234	2.811	0.411
116.000	133.977	80.005	19.995	103.923	20.228	3.248	0.381
118.000	134.744	80.004	19.995	103.915	20.229	3.200	0.366
120.000	135.534	80.004	19.993	103.921	20.232	2.963	0.354
122.000	136.359	80.005	19.994	103.929	20.231	3.035	0.424
124.000	137.119	80.005	19.993	103.923	20.229	3.149	0.405
126.000	137.940	80.007	19.995	103.919	20.229	3.143	0.410
128.000	138.781	80.005	19.993	103.926	20.228	3.219	0.409
130.000	139.581	80.008	19.992	103.910	20.226	3.400	0.407
132.000	140.395	80.007	19.993	103.920	20.224	3.520	0.416
134.000	141.223	80.007	19.993	103.924	20.229	3.198	0.408
136.000	142.024	80.007	19.994	103.926	20.227	3.289	0.413
138.000	142.881	80.007	19.994	103.934	20.227	3.289	0.416
140.000	143.713	80.004	19.994	103.943	20.232	2.971	0.418
142.000	144.591	80.005	19.994	103.939	20.230	3.087	0.408
144.000	145.475	80.004	19.994	103.918	20.227	3.326	0.429
146.000	146.324	80.005	19.994	103.926	20.226	3.352	0.437
148.000	147.168	80.003	19.993	103.935	20.228	3.257	0.423
150.000	148.029	80.003	19.994	103.933	20.227	3.323	0.428
152.000	148.913	80.004	19.993	103.935	20.227	3.276	0.424
154.001	149.824	80.004	19.994	103.935	20.223	3.602	0.448
156.000	150.681	80.005	19.993	103.938	20.225	3.460	0.433
158.000	151.543	80.004	19.993	103.936	20.224	3.526	0.421
160.000	152.457	80.004	19.993	103.940	20.224	3.536	0.495
162.000	153.321	80.005	19.994	103.920	20.225	3.448	0.480
164.000	154.206	80.005	19.994	103.934	20.222	3.648	0.422
166.000	155.110	80.005	19.994	103.934	20.224	3.545	0.450
168.000	156.000	80.004	19.994	103.933	20.225	3.446	0.446
170.000	156.890	80.004	19.994	103.940	20.222	3.668	0.452
172.000	157.823	80.004	19.996	103.934	20.220	3.783	0.431
174.000	158.725	80.004	19.995	103.928	20.221	3.713	0.449
176.000	159.647	80.003	19.995	103.938	20.226	3.378	0.462
178.000	160.606	80.004	19.995	103.937	20.221	3.715	0.482
180.000	161.478	80.005	19.995	103.919	20.223	3.569	0.439
182.000	162.418	80.004	19.995	103.926	20.221	3.708	0.436
184.000	163.401	80.005	19.994	103.918	20.222	3.635	0.480
186.000	164.290	80.005	19.995	103.921	20.220	3.827	0.452
188.000	165.226	80.006	19.995	103.913	20.222	3.689	0.448
190.000	166.185	80.006	19.994	103.913	20.220	3.775	0.438
192.000	167.156	80.005	19.993	103.929	20.218	3.911	0.486
194.000	168.095	80.005	19.994	103.918	20.218	3.919	0.485
196.000	169.020	80.004	19.995	103.917	20.216	4.091	0.515
198.000	169.973	80.005	19.994	103.926	20.217	3.970	0.488
200.000	170.862	80.004	19.996	103.938	20.214	4.186	0.462
202.000	171.851	80.004	19.994	103.939	20.212	4.359	0.484
204.000	172.844	80.004	19.995	103.938	20.216	4.094	0.497
206.000	173.781	80.005	19.995	103.942	20.217	4.028	0.460
208.000	174.727	80.005	19.994	103.935	20.213	4.250	0.483
210.000	175.658	80.007	19.994	103.936	20.214	4.208	0.465
212.000	176.653	80.006	19.993	103.930	20.206	4.757	0.503
214.001	177.590	80.005	19.993	103.920	20.212	4.335	0.499
216.000	178.565	80.005	19.992	103.925	20.209	4.553	0.514
218.000	179.511	80.005	19.993	103.925	20.203	4.992	0.444
220.000	180.518	80.005	19.993	103.926	20.207	4.689	0.486
222.000	181.498	80.005	19.993	103.918	20.201	5.131	0.486
224.000	182.471	80.004	19.994	103.925	20.199	5.257	0.469
226.001	183.430	80.004	19.994	103.920	20.202	5.051	0.474
228.000	184.412	80.004	19.993	103.920	20.201	5.106	0.492
230.000	185.466	80.005	19.994	103.910	20.200	5.150	0.558
232.000	186.425	80.005	19.993	103.925	20.198	5.309	0.475
234.000	187.399	80.003	19.996	103.918	20.198	5.336	0.477
236.000	188.407	80.005	19.994	103.924	20.198	5.288	0.472
238.000	189.374	80.005	19.994	103.924	20.194	5.621	0.517
240.000	190.407	80.004	19.994	103.932	20.191	5.801	0.499
242.000	191.385	80.005	19.993	103.937	20.191	5.787	0.488
244.000	192.410	80.005	19.994	103.928	20.191	5.836	0.493
246.000	193.400	80.003	19.994	103.934	20.186	6.145	0.504
248.000	194.392	80.004	19.993	103.925	20.187	6.057	0.507
250.000	195.406	80.005	19.995	103.921	20.183	6.369	0.472
252.000	196.409	80.004	19.993	103.925	20.184	6.261	0.486
254.000	197.390	80.004	19.994	103.938	20.186	6.167	0.475
256.000	198.448	80.004	19.993	103.930	20.182	6.403	0.539
258.000	199.407	80.002	19.993	103.931	20.180	6.590	0.526
260.000	200.438	80.004	19.994	103.921	20.182	6.412	0.508
262.000	201.420	80.005	19.993	103.914	20.179	6.653	0.538
264.000	202.437	80.006	19.994	103.919	20.178	6.700	0.481
266.000	203.522	80.005	19.994	103.912	20.177	6.768	0.539
268.000	204.490	80.005	19.994	103.911	20.175	6.939	0.533
270.000	205.472	80.005	19.993	103.908	20.175	6.926	0.480
272.000	206.515	80.005	19.995	103.909	20.174	6.997	0.497
274.000	207.561	80.005	19.994	103.906	20.173	7.015	0.505
276.000	208.575	80.004	19.994	103.905	20.168	7.405	0.512
278.000	209.615	80.005	19.992	103.909	20.169	7.325	0.508
280.000	210.652	80.006	19.994	103.909	20.164	7.639	0.492
282.000	211.635	80.004	19.994	103.906	20.166	7.522	0.478
284.000	212.676	80.004	19.993	103.905	20.166	7.536	0.518
286.000	213.708	80.005	19.994	103.911	20.161	7.915	0.530
288.000	214.687	80.005	19.994	103.905	20.160	7.949	0.483
290.000	215.690	80.006	19.995	103.902	20.159	7.986	0.493
292.000	216.749	80.007	19.994	103.901	20.156	8.238	0.515
294.000	217.779	80.006	19.997	103.902	20.156	8.261	0.531
296.000	218.775	80.006	19.996	103.910	20.150	8.642	0.525
298.000	219.781	80.005	19.995	103.910	20.148	8.760	0.482
300.000	220.799	80.003	19.994	103.905	20.143	9.098	0.499
302.000	221.800	80.004	19.994	103.907	20.142	9.191	0.496
304.000	222.826	80.004	19.994	103.903	20.135	9.670	0.509
306.000	223.810	80.005	19.993	103.921	20.129	10.085	0.474
308.000	224.835	80.005	19.995	103.927	20.127	10.226	0.506
310.000	225.859	80.004	19.994	103.924	20.121	10.661	0.517
312.000	226.831	80.005	19.994	103.934	20.113	11.180	0.507
314.000	227.873	80.004	19.994	103.921	20.108	11.531	0.524
316.000	228.847	80.004	19.994	103.937	20.106	11.717	0.500
318.000	229.863	80.005	19.994	103.933	20.097	12.325	0.462
320.000	230.879	80.005	19.993	103.940	20.091	12.732	0.530
322.000	231.884	80.004	19.994	103.943	20.084	13.201	0.478
324.000	232.824	80.004	19.994	103.943	20.079	13.550	0.495
326.000	233.845	80.003	19.993	103.943	20.073	14.007	0.499
328.000	234.839	80.004	19.994	103.945	20.065	14.531	0.511
330.000	235.802	80.005	19.994	103.937	20.059	14.918	0.514
332.000	236.799	80.003	19.994	103.946	20.051	15.513	0.481
334.000	237.759	80.005	19.994	103.941	20.047	15.765	0.479
336.000	238.702	80.003	19.992	103.940	20.042	16.126	0.471
338.000	239.661	80.003	19.993	103.930	20.040	16.288	0.479
340.000	240.634	80.005	19.992	103.937	20.033	16.785	0.469
342.000	241.606	80.005	19.993	103.935	20.034	16.658	0.473
344.000	242.621	80.006	19.992	103.937	20.033	16.748	0.471
346.000	243.577	80.006	19.994	103.918	20.033	16.744	0.481
348.000	244.552	80.006	19.993	103.917	20.033	16.788	0.472
350.000	245.526	80.005	19.993	103.937	20.030	16.966	0.479
352.000	246.523	80.005	19.994	103.944	20.028	17.116	0.494
354.000	247.550	80.005	19.994	103.960	20.028	17.110	0.516
356.000	248.501	80.005	19.995	103.971	20.030	16.993	0.499
358.000	249.536	80.006	19.995	103.980	20.025	17.341	0.528
360.000	250.591	80.004	19.995	103.979	20.026	17.226	0.509
362.000	251.609	80.006	19.994	103.968	20.020	17.659	0.519
364.000	252.587	80.006	19.994	103.980	20.021	17.619	0.489
366.000	253.595	80.006	19.993	103.982	20.021	17.582	0.503
368.000	254.598	80.008	19.993	103.984	20.012	18.226	0.518
370.000	255.620	80.008	19.994	104.000	20.005	18.692	0.522
372.000	256.600	80.006	19.993	104.017	20.002	18.927	0.471
374.000	257.667	80.006	19.994	104.011	19.988	19.866	0.499
376.000	258.661	80.005	19.993	104.013	19.973	20.887	0.485
378.000	259.637	80.006	19.995	104.006	19.958	21.982	0.484
380.000	260.669	80.005	19.994	104.012	19.939	23.293	0.519
382.000	261.667	80.004	19.995	104.008	19.916	24.861	0.483
384.000	262.699	80.004	19.994	104.010	19.890	26.671	0.512
386.000	263.709	80.003	19.995	103.995	19.869	28.076	0.506
388.000	264.669	80.004	19.993	103.983	19.838	30.197	0.508
390.000	265.705	80.003	19.994	103.972	19.810	32.109	0.526
392.000	266.642	80.005	19.994	103.925	19.783	33.968	0.482
394.000	267.688	80.006	19.994	103.872	19.756	35.851	0.516
396.000	268.654	80.005	19.995	103.822	19.731	37.623	0.485
398.000	269.634	80.004	19.994	103.775	19.716	38.671	0.504
400.000	270.651	80.004	19.994	103.728	19.713	38.851	0.496
402.000	271.691	80.005	19.993	103.707	19.721	38.326	0.532
404.000	272.637	80.003	19.992	103.699	19.736	37.297	0.439
406.000	273.621	80.005	19.993	103.710	19.755	35.973	0.484
408.000	274.594	80.005	19.993	103.716	19.780	34.217	0.476
410.000	275.574	80.003	19.992	103.739	19.810	32.178	0.453
412.000	276.516	80.003	19.993	103.759	19.844	29.802	0.481
414.001	277.438	80.003	19.996	103.783	19.874	27.760	0.456
416.000	278.447	80.003	19.994	103.801	19.899	25.981	0.472
418.000	279.417	80.005	19.994	103.795	19.931	23.819	0.495
420.000	280.381	80.006	19.994	103.824	19.948	22.618	0.512
422.000	281.306	80.006	19.994	103.825	19.969	21.166	0.464
424.000	282.304	80.006	19.993	103.825	19.989	19.753	0.480
426.000	283.250	80.007	19.993	103.825	20.005	18.683	0.492
428.000	284.242	80.006	19.994	103.831	20.021	17.581	0.479
430.000	285.218	80.007	19.991	103.830	20.036	16.494	0.496
432.000	286.131	80.006	19.993	103.833	20.045	15.924	0.494
434.000	287.143	80.003	19.992	103.839	20.059	14.952	0.475
436.000	288.072	80.006	19.992	103.830	20.068	14.331	0.466
438.000	289.095	80.004	19.993	103.830	20.073	13.989	0.474
440.000	290.068	80.006	19.993	103.829	20.081	13.425	0.478
442.000	291.087	80.006	19.993	103.825	20.088	12.955	0.495
444.001	292.066	80.006	19.994	103.829	20.093	12.599	0.504
446.000	293.089	80.007	19.993	103.827	20.106	11.706	0.511
448.000	294.039	80.007	19.994	103.827	20.099	12.136	0.487
450.000	295.054	80.007	19.993	103.833	20.107	11.581	0.484
452.000	296.042	80.007	19.993	103.831	20.109	11.464	0.479
454.000	297.050	80.008	19.993	103.828	20.115	11.060	0.508
456.000	298.060	80.006	19.993	103.829	20.119	10.779	0.531
458.000	299.051	80.005	19.994	103.835	20.125	10.348	0.521
460.000	300.081	80.004	19.993	103.834	20.126	10.324	0.526
462.000	301.046	80.005	19.993	103.837	20.127	10.214	0.520
464.000	302.058	80.005	19.993	103.842	20.128	10.162	0.496
466.000	303.025	80.005	19.994	103.847	20.130	10.013	0.483
468.000	304.088	80.004	19.995	103.850	20.134	9.732	0.530
470.000	305.072	80.003	19.995	103.843	20.133	9.805	0.488
472.000	306.130	80.004	19.994	103.839	20.132	9.895	0.546
474.000	307.128	80.004	19.996	103.853	20.137	9.534	0.527
476.000	308.167	80.005	19.995	103.853	20.137	9.510	0.522
478.000	309.131	80.004	19.993	103.835	20.138	9.488	0.512
480.000	310.168	80.006	19.996	103.843	20.141	9.258	0.482
482.000	311.234	80.004	19.993	103.839	20.141	9.288	0.548
484.000	312.280	80.005	19.995	103.839	20.136	9.623	0.540
486.000	313.308	80.005	19.993	103.846	20.139	9.380	0.502
488.000	314.347	80.004	19.994	103.831	20.140	9.310	0.529
490.000	315.404	80.004	19.993	103.851	20.137	9.534	0.517
492.000	316.432	80.004	19.994	103.845	20.137	9.521	0.506
494.000	317.455	80.004	19.994	103.844	20.138	9.464	0.524
496.000	318.511	80.004	19.993	103.835	20.138	9.434	0.502
498.000	319.515	80.006	19.993	103.838	20.143	9.117	0.561
500.000	320.562	80.005	19.994	103.845	20.140	9.308	0.502
502.000	321.582	80.005	19.994	103.836	20.140	9.324	0.505
504.000	322.567	80.007	19.994	103.828	20.136	9.594	0.500
506.000	323.615	80.006	19.993	103.827	20.145	8.982	0.514
508.000	324.564	80.004	19.993	103.835	20.147	8.845	0.515
510.000	325.650	80.006	19.994	103.831	20.147	8.841	0.549
512.000	326.640	80.005	19.993	103.840	20.144	9.082	0.518
514.001	327.646	80.005	19.993	103.838	20.146	8.904	0.518
516.000	328.679	80.006	19.994	103.835	20.147	8.861	0.526
518.000	329.673	80.007	19.992	103.837	20.143	9.103	0.492
520.000	330.702	80.005	19.994	103.848	20.145	8.958	0.518
522.000	331.704	80.007	19.993	103.846	20.143	9.153	0.517
524.000	332.763	80.006	19.993	103.855	20.143	9.124	0.521
526.000	333.768	80.006	19.993	103.846	20.144	9.070	0.519
528.000	334.801	80.007	19.994	103.853	20.144	9.064	0.513
530.000	335.888	80.008	19.993	103.844	20.145	9.003	0.529
532.000	336.886	80.007	19.992	103.845	20.141	9.276	0.521
534.000	337.931	80.006	19.996	103.832	20.146	8.928	0.531
536.000	338.915	80.005	19.995	103.842	20.149	8.692	0.509
538.000	339.906	80.004	19.994	103.840	20.146	8.944	0.502
540.000	340.966	80.006	19.995	103.833	20.145	8.959	0.500
542.000	341.961	80.005	19.994	103.836	20.149	8.699	0.507
544.000	342.986	80.006	19.993	103.837	20.149	8.713	0.518
546.000	343.994	80.004	19.993	103.834	20.147	8.819	0.486
548.000	345.032	80.005	19.994	103.832	20.146	8.906	0.511
550.000	346.079	80.005	19.994	103.832	20.146	8.936	0.534
552.000	347.074	80.004	19.994	103.836	20.145	8.957	0.498
554.000	348.079	80.004	19.995	103.838	20.146	8.880	0.488
556.000	349.073	80.005	19.995	103.824	20.146	8.938	0.504
558.000	350.149	80.005	19.993	103.829	20.145	9.012	0.515
560.000	351.173	80.006	19.995	103.829	20.142	9.156	0.500
562.000	352.159	80.005	19.995	103.826	20.142	9.156	0.499
564.000	353.206	80.004	19.994	103.832	20.144	9.075	0.524
566.000	354.182	80.004	19.994	103.827	20.144	9.027	0.481
568.000	355.211	80.004	19.995	103.828	20.142	9.162	0.511
570.000	356.197	80.005	19.995	103.828	20.140	9.323	0.481
572.000	357.208	80.004	19.994	103.828	20.143	9.116	0.529
574.000	358.178	80.003	19.993	103.829	20.138	9.493	0.493
576.000	359.144	80.004	19.994	103.828	20.141	9.232	0.486
578.000	360.134	80.007	19.994	103.828	20.141	9.242	0.498
580.000	361.147	80.006	19.993	103.828	20.137	9.526	0.503
582.000	362.151	80.006	19.993	103.834	20.138	9.447	0.498
584.000	363.107	80.006	19.993	103.831	20.133	9.824	0.471
586.000	364.078	80.006	19.994	103.829	20.136	9.613	0.475
588.000	365.079	80.005	19.993	103.837	20.134	9.716	0.489
590.000	366.071	80.005	19.992	103.842	20.133	9.808	0.516
592.000	367.067	80.006	19.993	103.840	20.134	9.771	0.511
594.000	368.079	80.007	19.995	103.853	20.133	9.790	0.493
596.000	369.047	80.006	19.995	103.863	20.134	9.743	0.483
598.000	370.046	80.005	19.993	103.865	20.129	10.101	0.475
600.000	371.072	80.007	19.995	103.864	20.127	10.236	0.509
602.000	372.044	80.007	19.994	103.864	20.122	10.566	0.505
604.000	373.099	80.007	19.992	103.868	20.125	10.346	0.520
606.000	374.117	80.009	19.993	103.867	20.121	10.624	0.497
608.000	375.118	80.009	19.994	103.870	20.120	10.698	0.529
610.000	376.116	80.008	19.993	103.874	20.118	10.886	0.501
612.000	377.085	80.009	19.993	103.888	20.114	11.102	0.498
614.000	378.108	80.007	19.993	103.892	20.111	11.331	0.507
616.000	379.106	80.006	19.994	103.898	20.109	11.490	0.493
618.000	380.138	80.005	19.994	103.898	20.108	11.532	0.530
620.000	381.124	80.004	19.993	103.903	20.106	11.716	0.521
622.000	382.094	80.004	19.995	103.901	20.106	11.664	0.503
624.000	383.134	80.004	19.995	103.902	20.102	11.977	0.528
626.000	384.126	80.005	19.994	103.902	20.100	12.076	0.503
628.000	385.149	80.004	19.995	103.903	20.097	12.301	0.503
630.000	386.143	80.005	19.994	103.902	20.095	12.434	0.507
632.000	387.144	80.005	19.994	103.894	20.093	12.580	0.517
634.000	388.175	80.004	19.993	103.879	20.094	12.486	0.515
636.000	389.198	80.006	19.996	103.884	20.094	12.533	0.517
638.000	390.188	80.005	19.995	103.869	20.090	12.773	0.499
640.000	391.226	80.007	19.994	103.874	20.086	13.086	0.508
642.000	392.248	80.003	19.993	103.870	20.085	13.138	0.524
644.000	393.267	80.004	19.994	103.861	20.080	13.487	0.523
646.000	394.304	80.005	19.994	103.863	20.077	13.663	0.550
648.000	395.365	80.004	19.994	103.857	20.075	13.810	0.513
650.000	396.394	80.004	19.994	103.860	20.070	14.158	0.522
652.001	397.438	80.003	19.995	103.841	20.068	14.287	0.500
654.000	398.465	80.006	19.996	103.865	20.058	14.986	0.513
656.000	399.481	80.005	19.995	103.850	20.054	15.258	0.499
658.000	400.485	80.005	19.995	103.839	20.052	15.424	0.491
660.000	401.538	80.005	19.996	103.839	20.053	15.373	0.494
662.001	402.562	80.006	19.994	103.829	20.046	15.833	0.486
664.000	403.614	80.006	19.993	103.830	20.038	16.354	0.542
666.000	404.616	80.007	19.993	103.825	20.032	16.772	0.499
668.000	405.610	80.007	19.993	103.824	20.026	17.212	0.486
670.000	406.649	80.007	19.993	103.824	20.020	17.598	0.489
672.000	407.719	80.007	19.994	103.825	20.011	18.284	0.505
674.000	408.755	80.007	19.994	103.824	20.004	18.759	0.505
676.000	409.776	80.006	19.993	103.825	19.999	19.098	0.502
678.001	410.742	80.007	19.993	103.823	19.989	19.753	0.469
680.000	411.783	80.007	19.994	103.816	19.981	20.349	0.509
682.000	412.791	80.007	19.994	103.824	19.975	20.743	0.474
684.000	413.817	80.007	19.993	103.816	19.964	21.487	0.508
686.000	414.778	80.009	19.994	103.814	19.956	22.050	0.464
688.000	415.792	80.009	19.994	103.823	19.945	22.808	0.494
690.000	416.794	80.007	19.993	103.822	19.939	23.236	0.498
692.000	417.817	80.008	19.994	103.821	19.926	24.145	0.496
694.000	418.805	80.006	19.993	103.808	19.918	24.679	0.474
696.000	419.819	80.006	19.993	103.805	19.908	25.399	0.495
698.000	420.834	80.005	19.993	103.807	19.894	26.337	0.488
700.000	421.784	80.005	19.993	103.815	19.886	26.883	0.491
702.000	422.789	80.005	19.993	103.825	19.873	27.808	0.507
704.000	423.768	80.005	19.993	103.809	19.864	28.414	0.490
706.001	424.744	80.005	19.994	103.823	19.853	29.157	0.487
708.001	425.717	80.005	19.994	103.821	19.837	30.269	0.487
710.000	426.735	80.006	19.994	103.819	19.829	30.872	0.464
712.000	427.715	80.004	19.994	103.823	19.817	31.668	0.501
714.000	428.722	80.003	19.995	103.825	19.805	32.484	0.490
716.000	429.718	80.004	19.995	103.826	19.790	33.582	0.506
718.000	430.669	80.004	19.995	103.816	19.775	34.611	0.446
720.000	431.697	80.003	19.994	103.827	19.761	35.567	0.497
722.000	432.708	80.004	19.994	103.821	19.750	36.344	0.501
724.000	433.710	80.005	19.993	103.816	19.737	37.228	0.497
726.000	434.708	80.004	19.994	103.814	19.724	38.112	0.511
728.000	435.722	80.004	19.994	103.815	19.708	39.230	0.512
730.000	436.705	80.003	19.993	103.814	19.696	40.081	0.471
732.000	437.716	80.004	19.994	103.817	19.678	41.311	0.504
734.000	438.708	80.005	19.994	103.814	19.668	41.972	0.490
736.000	439.677	80.005	19.994	103.825	19.654	42.954	0.501
738.001	440.706	80.006	19.995	103.813	19.643	43.705	0.498
740.000	441.721	80.007	19.994	103.819	19.631	44.565	0.477
742.000	442.720	80.006	19.995	103.794	19.618	45.482	0.513
744.000	443.759	80.006	19.995	103.804	19.606	46.300	0.525
746.000	444.768	80.005	19.996	103.806	19.591	47.355	0.538
748.000	445.757	80.006	19.996	103.809	19.582	47.944	0.518
750.000	446.768	80.005	19.995	103.805	19.571	48.741	0.496
752.000	447.780	80.006	19.994	103.803	19.560	49.495	0.498
754.000	448.845	80.006	19.994	103.809	19.553	49.948	0.518
756.000	449.818	80.005	19.994	103.821	19.545	50.512	0.479
758.000	450.821	80.005	19.993	103.822	19.537	51.046	0.496
760.000	451.861	80.006	19.993	103.826	19.531	51.483	0.525
762.000	452.837	80.007	19.994	103.825	19.527	51.787	0.505
764.000	453.850	80.009	19.994	103.818	19.522	52.113	0.496
766.000	454.856	80.007	19.993	103.821	19.523	52.018	0.487
768.000	455.915	80.007	19.992	103.824	19.520	52.218	0.502
770.000	456.913	80.007	19.993	103.820	19.519	52.297	0.495
772.000	457.918	80.006	19.993	103.823	19.519	52.334	0.491
774.000	458.931	80.005	19.995	103.818	19.530	51.525	0.488
776.000	459.925	80.005	19.994	103.820	19.532	51.416	0.492
778.000	460.919	80.004	19.993	103.823	19.538	50.984	0.496
780.000	461.950	80.005	19.994	103.826	19.545	50.490	0.513
782.000	462.951	80.004	19.995	103.825	19.559	49.560	0.503
784.000	463.969	80.006	19.993	103.825	19.569	48.821	0.497
786.000	464.921	80.005	19.992	103.806	19.578	48.249	0.504
788.000	465.964	80.005	19.993	103.813	19.593	47.174	0.501
790.001	466.939	80.005	19.993	103.790	19.609	46.078	0.496
792.000	467.944	80.006	19.993	103.797	19.624	45.036	0.484
794.001	468.948	80.005	19.993	103.807	19.638	44.059	0.539
796.000	469.931	80.005	19.994	103.815	19.657	42.767	0.495
798.000	470.968	80.005	19.994	103.816	19.675	41.510	0.500
800.000	471.965	80.004	19.995	103.813	19.698	39.919	0.477
802.000	472.952	80.005	19.994	103.820	19.716	38.687	0.518
804.000	473.972	80.005	19.993	103.811	19.734	37.404	0.528
806.000	475.023	80.004	19.994	103.821	19.757	35.837	0.533
808.000	476.019	80.004	19.995	103.820	19.776	34.490	0.525
810.000	476.976	80.005	19.995	103.815	19.796	33.154	0.495
812.000	478.037	80.005	19.994	103.824	19.815	31.815	0.551
814.000	479.046	80.005	19.995	103.819	19.841	30.045	0.485
816.000	480.048	80.005	19.994	103.813	19.856	28.974	0.488
818.000	481.085	80.005	19.993	103.811	19.877	27.537	0.515
820.000	482.106	80.006	19.994	103.822	19.901	25.842	0.500
822.000	483.137	80.007	19.993	103.824	19.920	24.576	0.516
824.000	484.176	80.006	19.993	103.831	19.942	23.037	0.546
826.000	485.188	80.005	19.993	103.833	19.960	21.822	0.513
828.000	486.291	80.004	19.993	103.838	19.978	20.512	0.542
830.000	487.224	80.005	19.994	103.855	19.998	19.160	0.494
832.000	488.271	80.004	19.995	103.838	20.017	17.877	0.495
834.000	489.420	80.005	19.996	103.837	20.029	16.985	0.585
836.000	490.410	80.005	19.996	103.857	20.044	15.939	0.507
838.000	491.453	80.006	19.994	103.851	20.059	14.955	0.520
840.000	492.491	80.006	19.994	103.845	20.071	14.098	0.535
842.000	493.553	80.005	19.993	103.857	20.086	13.067	0.516
844.000	494.627	80.007	19.994	103.866	20.096	12.348	0.540
846.000	495.670	80.007	19.994	103.825	20.108	11.565	0.528
848.000	496.723	80.006	19.994	103.824	20.119	10.757	0.533
850.000	497.761	80.006	19.992	103.907	20.124	10.432	0.540
852.000	498.835	80.007	19.993	103.861	20.134	9.716	0.539
854.000	499.826	80.005	19.994	103.857	20.141	9.239	0.530
856.000	500.908	80.005	19.993	103.855	20.154	8.378	0.517
858.001	501.952	80.006	19.993	103.861	20.157	8.162	0.500
860.000	502.978	80.003	19.994	103.859	20.162	7.820	0.494
862.000	504.039	80.005	19.994	103.846	20.168	7.377	0.524
864.000	505.029	80.005	19.994	103.850	20.174	6.958	0.513
866.000	506.037	80.004	19.993	103.836	20.178	6.705	0.498
868.000	507.095	80.005	19.994	103.838	20.182	6.386	0.528
870.000	508.193	80.004	19.995	103.851	20.187	6.047	0.535
872.000	509.208	80.005	19.994	103.839	20.190	5.837	0.504
874.000	510.161	80.005	19.993	103.838	20.196	5.423	0.498
876.000	511.233	80.005	19.993	103.835	20.199	5.243	0.527
878.000	512.203	80.004	19.995	103.827	20.204	4.882	0.484
880.000	513.202	80.005	19.993	103.825	20.207	4.709	0.506
882.000	514.266	80.004	19.994	103.824	20.210	4.489	0.521
884.000	515.291	80.003	19.993	103.825	20.214	4.172	0.495
886.000	516.304	80.004	19.994	103.827	20.217	4.013	0.492
888.000	517.372	80.003	19.993	103.828	20.215	4.104	0.543
890.000	518.373	80.004	19.994	103.826	20.225	3.454	0.519
892.000	519.374	80.003	19.994	103.823	20.229	3.166	0.492
894.000	520.453	80.004	19.995	103.820	20.227	3.289	0.446
896.000	521.452	80.005	19.994	103.827	20.231	3.026	0.508
898.000	522.445	80.006	19.994	103.823	20.231	3.022	0.525
900.001	523.452	80.006	19.994	103.825	20.233	2.865	0.505
902.000	524.458	80.005	19.994	103.813	20.234	2.801	0.504
904.000	525.507	80.005	19.994	103.809	20.237	2.625	0.541
906.000	526.477	80.004	19.993	103.808	20.236	2.665	0.488
908.000	527.504	80.004	19.993	103.808	20.239	2.476	0.526
910.000	528.450	80.005	19.992	103.807	20.240	2.411	0.481
912.001	529.501	80.004	19.993	103.805	20.236	2.653	0.502
914.000	530.493	80.004	19.995	103.819	20.242	2.301	0.520
916.000	531.550	80.005	19.995	103.823	20.243	2.214	0.536
918.000	532.593	80.005	19.995	103.824	20.240	2.381	0.525
920.000	533.615	80.007	19.996	103.823	20.241	2.358	0.529
922.000	534.710	80.006	19.994	103.812	20.244	2.131	0.519
924.000	535.780	80.004	19.994	103.811	20.243	2.178	0.528
926.000	536.840	80.006	19.996	103.818	20.245	2.086	0.531
928.000	537.911	80.005	19.995	103.813	20.245	2.061	0.540
930.000	539.044	80.005	19.993	103.808	20.246	1.997	0.558
932.000	540.109	80.005	19.994	103.805	20.247	1.917	0.506
934.000	541.235	80.004	19.994	103.815	20.246	1.989	0.519
936.000	542.349	80.004	19.994	103.811	20.250	1.703	0.591
938.001	543.397	80.004	19.994	103.817	20.248	1.851	0.515
940.000	544.447	80.004	19.993	103.806	20.250	1.724	0.546
942.000	545.642	80.005	19.994	103.805	20.245	2.078	0.536
944.000	546.765	80.004	19.992	103.798	20.246	1.963	0.565
946.000	547.881	80.004	19.995	103.800	20.248	1.849	0.576
948.000	549.004	80.003	19.993	103.806	20.252	1.603	0.545
950.000	550.124	80.005	19.994	103.813	20.248	1.872	0.563
952.000	551.230	80.005	19.994	103.798	20.247	1.891	0.563
954.000	552.297	80.004	19.995	103.797	20.248	1.822	0.537
956.000	553.440	80.003	19.995	103.814	20.249	1.788	0.549
958.000	554.580	80.004	19.994	103.805	20.250	1.720	0.576
960.000	555.670	80.004	19.994	103.800	20.252	1.540	0.540
962.000	556.749	80.004	19.994	103.813	20.246	1.991	0.539
964.000	557.819	80.004	19.995	103.811	20.251	1.652	0.534
966.000	558.909	80.003	19.994	103.799	20.252	1.584	0.578
968.000	560.039	80.004	19.993	103.801	20.250	1.703	0.572
970.000	561.059	80.003	19.992	103.800	20.248	1.857	0.521
972.000	562.180	80.005	19.993	103.814	20.249	1.808	0.536
974.000	563.234	80.005	19.992	103.818	20.251	1.624	0.538
976.000	564.285	80.007	19.993	103.817	20.252	1.550	0.530
978.000	565.407	80.006	19.995	103.817	20.250	1.692	0.570
980.000	566.406	80.006	19.994	103.817	20.251	1.626	0.538
982.000	567.475	80.005	19.993	103.822	20.251	1.628	0.507
984.000	568.550	80.005	19.995	103.821	20.252	1.588	0.526
986.000	569.638	80.005	19.993	103.803	20.250	1.713	0.548
988.000	570.689	80.005	19.995	103.812	20.247	1.915	0.562
990.000	571.707	80.005	19.995	103.796	20.249	1.792	0.493
992.000	572.790	80.004	19.994	103.794	20.250	1.737	0.509
994.000	573.869	80.004	19.994	103.807	20.249	1.792	0.530
996.000	574.985	80.006	19.994	103.809	20.248	1.843	0.560
998.000	576.028	80.006	19.994	103.797	20.250	1.720	0.567
1000.000	577.042	80.008	19.994	103.803	20.250	1.684	0.523
1002.000	578.115	80.006	19.993	103.814	20.253	1.539	0.520
1004.001	579.186	80.007	19.993	103.816	20.252	1.550	0.496
1006.000	580.227	80.007	19.994	103.811	20.245	2.091	0.536
1008.000	581.282	80.006	19.995	103.791	20.252	1.571	0.503
1010.000	582.364	80.005	19.994	103.797	20.251	1.669	0.531
1012.000	583.413	80.004	19.995	103.806	20.252	1.557	0.544
1014.000	584.464	80.005	19.997	103.825	20.253	1.501	0.502
1016.000	585.497	80.003	19.998	103.814	20.252	1.597	0.521
1018.000	586.526	80.003	19.996	103.799	20.255	1.368	0.551
1020.000	587.567	80.004	19.996	103.807	20.255	1.368	0.538
1022.000	588.566	80.003	19.996	103.805	20.252	1.544	0.515
1024.000	589.586	80.003	19.994	103.797	20.254	1.451	0.492
1026.000	590.648	80.003	19.993	103.791	20.254	1.427	0.535
1028.000	591.647	80.003	19.994	103.794	20.252	1.561	0.496
1030.000	592.688	80.004	19.992	103.794	20.253	1.483	0.510
1032.000	593.719	80.004	19.993	103.794	20.252	1.582	0.510
1034.000	594.798	80.003	19.994	103.810	20.252	1.557	0.529
1036.001	595.824	80.005	19.993	103.793	20.257	1.254	0.531
1038.000	596.845	80.004	19.994	103.792	20.256	1.311	0.523
1040.000	597.870	80.004	19.995	103.789	20.257	1.236	0.517
1042.000	598.863	80.003	19.993	103.788	20.259	1.088	0.484
1044.000	599.837	80.003	19.995	103.787	20.262	0.893	0.471
1046.000	600.830	80.003	19.995	103.787	20.260	1.009	0.500
1048.000	601.790	80.003	19.994	103.787	20.258	1.173	0.476
1050.000	602.769	80.004	19.994	103.785	20.258	1.164	0.490
1052.000	603.710	80.005	19.993	103.787	20.258	1.186	0.481
1054.000	604.680	80.005	19.993	103.786	20.259	1.071	0.508
1056.000	605.606	80.006	19.993	103.788	20.257	1.217	0.449
1058.000	606.564	80.008	19.993	103.785	20.258	1.169	0.504
1060.000	607.494	80.007	19.993	103.785	20.260	1.044	0.451
1062.000	608.397	80.006	19.994	103.785	20.261	0.942	0.452
1064.000	609.294	80.008	19.993	103.784	20.261	0.980	0.447
1066.001	610.202	80.005	19.993	103.789	20.263	0.810	0.472
1068.000	611.095	80.006	19.994	103.787	20.259	1.124	0.454
1070.000	612.040	80.006	19.993	103.788	20.259	1.101	0.471
1072.001	613.031	80.005	19.994	103.787	20.258	1.175	0.477
1074.000	613.967	80.006	19.995	103.793	20.260	1.007	0.462
1076.000	614.928	80.005	19.994	103.796	20.259	1.092	0.496
1078.001	615.872	80.006	19.994	103.787	20.260	0.995	0.474
1080.000	616.885	80.006	19.994	103.786	20.256	1.273	0.473
1082.000	617.854	80.007	19.993	103.789	20.257	1.198	0.483
1084.001	618.813	80.006	19.994	103.792	20.260	0.993	0.499
1086.001	619.810	80.005	19.994	103.787	20.259	1.065	0.498
1088.001	620.784	80.005	19.993	103.785	20.261	0.973	0.480
1090.000	621.766	80.005	19.993	103.790	20.260	1.041	0.453
1092.000	622.799	80.004	19.994	103.788	20.259	1.067	0.511
1094.000	623.758	80.003	19.994	103.789	20.260	1.050	0.507
1096.000	624.739	80.003	19.994	103.788	20.260	1.007	0.505
1098.000	625.764	80.003	19.995	103.789	20.261	0.986	0.503
1100.000	626.759	80.004	19.994	103.789	20.257	1.241	0.490
1102.000	627.744	80.004	19.995	103.787	20.259	1.103	0.484
1104.000	628.747	80.004	19.994	103.787	20.259	1.084	0.476
1106.000	629.780	80.004	19.995	103.782	20.259	1.096	0.533
1108.001	630.771	80.004	19.995	103.782	20.262	0.914	0.482
1110.000	631.816	80.004	19.995	103.781	20.259	1.088	0.522
1112.001	632.826	80.004	19.996	103.782	20.261	0.965	0.505
1114.000	633.858	80.005	19.996	103.783	20.260	1.044	0.540
1116.000	634.929	80.005	19.994	103.783	20.257	1.241	0.523
1118.000	635.940	80.004	19.993	103.784	20.260	1.048	0.508
1120.000	636.966	80.004	19.994	103.783	20.259	1.107	0.499
1122.000	637.963	80.004	19.994	103.782	20.259	1.067	0.497
1124.000	638.985	80.004	19.994	103.785	20.260	1.018	0.487
1126.000	640.018	80.003	19.994	103.782	20.264	0.770	0.513
1128.000	641.040	80.004	19.994	103.780	20.264	0.736	0.524
1130.000	642.081	80.005	19.993	103.786	20.262	0.868	0.517
1132.000	643.157	80.005	19.993	103.785	20.260	1.052	0.550
1134.000	644.182	80.005	19.994	103.784	20.261	0.918	0.526
1136.000	645.201	80.006	19.994	103.787	20.260	0.993	0.542
1138.000	646.236	80.007	19.993	103.786	20.264	0.747	0.566
1140.000	647.320	80.005	19.993	103.785	20.260	1.012	0.514
1142.000	648.436	80.006	19.995	103.785	20.263	0.821	0.520
1144.000	649.411	80.005	19.993	103.784	20.263	0.793	0.485
1146.000	650.477	80.003	19.994	103.783	20.262	0.912	0.530
1148.000	651.548	80.006	19.993	103.780	20.262	0.910	0.558
1150.000	652.563	80.005	19.993	103.766	20.262	0.910	0.486
1152.000	653.674	80.005	19.993	103.788	20.262	0.908	0.540
1154.001	654.739	80.005	19.993	103.785	20.263	0.842	0.528
1156.001	655.791	80.005	19.993	103.781	20.259	1.118	0.510
1158.001	656.910	80.006	19.992	103.786	20.262	0.891	0.517
1160.000	657.903	80.006	19.994	103.783	20.263	0.783	0.500
1162.000	658.973	80.005	19.992	103.780	20.263	0.846	0.509
1164.000	660.040	80.006	19.993	103.767	20.264	0.753	0.513
1166.000	661.122	80.005	19.993	103.769	20.261	0.957	0.510
1168.000	662.135	80.005	19.995	103.774	20.257	1.197	0.500
1170.000	663.174	80.004	19.994	103.775	20.265	0.675	0.519
1172.000	664.216	80.004	19.993	103.764	20.265	0.700	0.492
1174.000	665.238	80.005	19.995	103.781	20.256	1.269	0.466
1176.000	666.302	80.004	19.994	103.777	20.264	0.745	0.531
1178.000	667.291	80.005	19.994	103.765	20.261	0.978	0.514
1180.000	668.298	80.005	19.993	103.760	20.260	0.999	0.486
1182.000	669.342	80.003	19.994	103.774	20.261	0.976	0.543
1184.000	670.378	80.005	19.994	103.772	20.263	0.781	0.500
1186.000	671.441	80.004	19.995	103.766	20.264	0.728	0.494
1188.000	672.357	80.004	19.994	103.764	20.263	0.834	0.500
1190.000	673.447	80.005	19.995	103.784	20.262	0.897	0.524
1192.000	674.434	80.005	19.995	103.777	20.260	1.044	0.548
1194.000	675.488	80.002	19.997	103.767	20.260	1.025	0.516
1196.001	676.462	80.005	19.995	103.780	20.263	0.829	0.468
1198.001	677.539	80.002	19.995	103.755	20.261	0.969	0.518
1200.001	678.559	80.003	19.995	103.770	20.260	1.039	0.530
1202.001	679.542	80.003	19.994	103.770	20.262	0.912	0.487
1204.000	680.582	80.002	19.994	103.776	20.260	1.020	0.513
1206.000	681.583	80.005	19.994	103.782	20.262	0.885	0.469
1208.000	682.626	80.004	19.994	103.780	20.264	0.768	0.507
1210.000	683.627	80.006	19.993	103.772	20.262	0.882	0.565
1212.000	684.655	80.006	19.994	103.763	20.263	0.832	0.514
1214.000	685.070	80.005	19.994	103.777	20.266	0.596	0.251
1216.001	686.633	80.005	19.994	103.771	20.263	0.793	0.470
1218.000	687.710	80.005	19.994	103.766	20.263	0.819	0.555
1220.000	688.663	80.005	19.993	103.774	20.263	0.846	0.524
1222.001	689.706	80.004	19.995	103.773	20.265	0.692	0.505
1224.000	690.729	80.005	19.993	103.771	20.263	0.812	0.523
1226.001	691.724	80.005	19.994	103.789	20.263	0.844	0.511
1228.001	692.731	80.004	19.993	103.778	20.261	0.934	0.498
1230.001	693.701	80.004	19.994	103.762	20.262	0.868	0.482
1232.000	694.733	80.007	19.992	103.761	20.262	0.865	0.486
1234.000	695.718	80.005	19.994	103.760	20.262	0.861	0.512
1236.000	696.720	80.007	19.993	103.765	20.262	0.895	0.495
1238.000	697.719	80.007	19.993	103.761	20.263	0.804	0.486
1240.000	698.661	80.007	19.993	103.751	20.258	1.135	0.460
1242.000	699.713	80.005	19.992	103.760	20.260	1.037	0.530
1244.000	700.747	80.008	19.993	103.765	20.261	0.965	0.509
1246.000	701.741	80.007	19.994	103.770	20.262	0.853	0.502
1248.001	702.742	80.006	19.994	103.759	20.262	0.899	0.490
1250.000	703.754	80.004	19.994	103.764	20.262	0.851	0.491
1252.001	704.783	80.004	19.994	103.767	20.259	1.076	0.519
1254.000	705.784	80.004	19.994	103.770	20.259	1.124	0.529
1256.000	706.788	80.003	19.995	103.773	20.259	1.091	0.523
1258.001	707.789	80.004	19.994	103.756	20.258	1.182	0.523
1260.000	708.788	80.006	19.995	103.766	20.258	1.167	0.517
1262.000	709.778	80.005	19.993	103.772	20.260	1.035	0.507
1264.000	710.807	80.004	19.995	103.773	20.254	1.402	0.504
1266.000	711.841	80.005	19.994	103.758	20.260	1.054	0.499
1268.000	712.828	80.005	19.995	103.758	20.259	1.094	0.478
1270.000	713.843	80.005	19.993	103.782	20.258	1.141	0.487
1272.000	714.858	80.003	19.993	103.783	20.260	0.993	0.520
1274.000	715.860	80.003	19.993	103.776	20.260	1.006	0.510
1276.001	716.867	80.004	19.995	103.762	20.261	0.980	0.476
1278.001	717.860	80.004	19.995	103.775	20.261	0.931	0.480
1280.000	718.845	80.003	19.994	103.776	20.255	1.334	0.473
1282.000	719.869	80.004	19.994	103.762	20.258	1.175	0.526
1284.000	720.839	80.003	19.995	103.727	20.257	1.233	0.510
1286.001	721.818	80.003	19.995	103.745	20.261	0.940	0.470
1288.000	722.803	80.004	19.995	103.809	20.262	0.874	0.493
1290.000	723.778	80.003	19.995	103.763	20.260	1.016	0.475
1292.001	724.819	80.006	19.994	103.767	20.260	0.991	0.471
1294.000	725.841	80.005	19.995	103.781	20.261	0.957	0.524
1296.000	726.807	80.005	19.994	103.762	20.257	1.217	0.510
1298.000	727.827	80.006	19.994	103.777	20.257	1.201	0.511
1300.001	728.892	80.004	19.993	103.784	20.257	1.198	0.501
1302.000	729.976	80.004	19.993	103.772	20.256	1.307	0.530
1304.000	731.040	80.006	19.993	103.778	20.254	1.428	0.546
1306.001	732.074	80.003	19.994	103.775	20.258	1.146	0.527
1308.001	733.160	80.006	19.993	103.781	20.257	1.249	0.532
1310.001	734.253	80.005	19.994	103.779	20.254	1.445	0.566
1312.000	735.331	80.006	19.995	103.784	20.260	1.039	0.548
1314.000	736.398	80.006	19.995	103.762	20.256	1.288	0.497
1316.000	737.476	80.007	19.995	103.772	20.256	1.285	0.495
1318.000	738.570	80.007	19.992	103.780	20.255	1.392	0.523
1320.000	739.706	80.008	19.994	103.773	20.252	1.557	0.557
1322.000	740.716	80.007	19.993	103.772	20.253	1.487	0.521
1324.000	741.878	80.005	19.994	103.771	20.255	1.368	0.570
1326.001	743.005	80.006	19.994	103.768	20.255	1.387	0.541
1326.500	743.215	80.004	19.992	103.770	20.253	1.504	0.544