File: 01_Data/LW_GypBoard_Painted_Paper/STA/N2/30K_min/Lw_Gypsum_Painted_Paper_STA_N2_30KData_222402_R2.csv
##Temp./Â°C,Time/min,Mass loss(subtr.2)/mg,DSC(subtr.2)/(mW/mg),Sensit./(uV/mW)
48.817,10.01,-0.00778,0.0055499,1.08887
49.517,10.55293,-0.008638007,0.04411359,1.08828
50.217,10.6778,-0.008965615,0.07592494,1.08769
50.917,10.76662,-0.008539847,0.10507,1.0871
51.617,10.83922,-0.00836018,0.13423,1.08652
52.317,10.90236,-0.0104997,0.1589,1.08593
53.017,10.9587,-0.009766165,0.18426,1.08534
53.717,11.0104,-0.008619129,0.20746,1.08476
54.417,11.058,-0.00861121,0.22779,1.08417
55.117,11.10251,-0.008697539,0.24862,1.08359
55.817,11.145,-0.008664517,0.2654,1.083
56.517,11.18533,-0.008756823,0.2852,1.08242
57.217,11.22412,-0.008190856,0.30116,1.08184
57.917,11.26159,-0.007685826,0.32008,1.08126
58.617,11.29787,-0.008523596,0.33434,1.08068
59.317,11.33296,-0.009695716,0.34887,1.0801
60.017,11.36699,-0.00815165,0.36336,1.07952
60.717,11.4002,-0.008872944,0.37868,1.07894
61.417,11.4328,-0.00678769,0.39113,1.07837
62.117,11.4647,-0.00832202,0.40626,1.07779
62.817,11.49592,-0.009037571,0.41917,1.07722
63.517,11.52627,-0.009019745,0.43051,1.07664
64.217,11.5564,-0.00955248,0.43987,1.07607
64.917,11.5863,-0.01010061,0.45314,1.0755
65.617,11.61592,-0.009913259,0.46449,1.07492
66.317,11.6449,-0.00963623,0.47448,1.07435
67.017,11.67344,-0.00972697,0.48511,1.07378
67.717,11.70182,-0.009414235,0.49412,1.07322
68.417,11.73,-0.009429509,0.5044,1.07265
69.117,11.7578,-0.009913649,0.5117,1.07208
69.817,11.78528,-0.01024688,0.52238,1.07151
70.517,11.8125,-0.0109186,0.5322,1.07095
71.217,11.83961,-0.01078692,0.54057,1.07038
71.917,11.86646,-0.009632165,0.54737,1.06982
72.617,11.8932,-0.009214144,0.55664,1.06926
73.317,11.91982,-0.009748265,0.56681,1.06869
74.017,11.94635,-0.00945738,0.57507,1.06813
74.717,11.97265,-0.008535383,0.58101,1.06757
75.417,11.99884,-0.008167458,0.58893,1.06701
76.117,12.02479,-0.00885846,0.5972,1.06645
76.817,12.05074,-0.009707755,0.60518,1.0659
77.517,12.07645,-0.009774772,0.61242,1.06534
78.217,12.10205,-0.00931672,0.61936,1.06478
78.917,12.1275,-0.00944922,0.62714,1.06423
79.617,12.15297,-0.0093012,0.63459,1.06367
80.317,12.17826,-0.01048497,0.64026,1.06312
81.017,12.2035,-0.01036622,0.64455,1.06257
81.717,12.22873,-0.01115705,0.654,1.06201
82.417,12.25349,-0.0109684,0.66101,1.06146
83.117,12.2781,-0.01096297,0.6658,1.06091
83.817,12.30292,-0.01092688,0.6725,1.06036
84.517,12.32772,-0.01075934,0.67911,1.05981
85.217,12.35259,-0.01240662,0.68504,1.05927
85.917,12.37733,-0.01259403,0.69139,1.05872
86.617,12.4016,-0.01233686,0.6968,1.05817
87.317,12.4261,-0.0123523,0.70238,1.05763
88.017,12.45085,-0.0113904,0.70732,1.05708
88.717,12.4756,-0.01249079,0.71324,1.05654
89.417,12.50009,-0.0110696,0.71928,1.056
90.117,12.52444,-0.01102771,0.7248,1.05545
90.817,12.54865,-0.01236243,0.72988,1.05491
91.517,12.5728,-0.01096909,0.73723,1.05437
92.217,12.59695,-0.0123594,0.73725,1.05383
92.917,12.621,-0.01242268,0.74515,1.05329
93.617,12.6452,-0.01327449,0.74916,1.05276
94.317,12.66934,-0.01266759,0.75442,1.05222
95.017,12.69323,-0.01373899,0.75838,1.05168
95.717,12.7172,-0.01242135,0.76335,1.05115
96.417,12.74105,-0.01313813,0.76722,1.05061
97.117,12.76492,-0.01371497,0.77244,1.05008
97.817,12.78877,-0.0143116,0.77471,1.04955
98.517,12.81255,-0.0142027,0.7816,1.04901
99.217,12.83639,-0.01486074,0.78273,1.04848
99.917,12.86011,-0.01502022,0.78426,1.04795
100.617,12.88387,-0.0150203,0.78773,1.04742
101.317,12.9077,-0.01502088,0.79127,1.04689
102.017,12.9315,-0.01500541,0.79474,1.04636
102.717,12.95524,-0.01609354,0.79966,1.04584
103.417,12.97899,-0.01633749,0.7997,1.04531
104.117,13.00266,-0.01633792,0.80133,1.04479
104.817,13.0264,-0.01627918,0.80369,1.04426
105.517,13.04995,-0.01731955,0.8055,1.04374
106.217,13.07347,-0.01732115,0.80753,1.04321
106.917,13.09704,-0.01732071,0.80938,1.04269
107.617,13.12054,-0.01731674,0.81012,1.04217
108.317,13.1442,-0.01768697,0.81131,1.04165
109.017,13.1678,-0.01767302,0.81257,1.04113
109.717,13.19135,-0.01874003,0.81512,1.04061
110.417,13.2149,-0.01896816,0.81384,1.04009
111.117,13.23838,-0.01896996,0.8152,1.03957
111.817,13.2619,-0.01897,0.81627,1.03906
112.517,13.2853,-0.01896986,0.81758,1.03854
113.217,13.30882,-0.01896889,0.81577,1.03803
113.917,13.33239,-0.01840925,0.81781,1.03751
114.617,13.35585,-0.01767876,0.81552,1.037
115.317,13.37929,-0.0176478,0.81919,1.03649
116.017,13.40269,-0.0200185,0.81911,1.03598
116.717,13.4261,-0.02037733,0.81973,1.03546
117.417,13.44953,-0.02037005,0.81893,1.03495
118.117,13.47301,-0.0212787,0.82086,1.03445
118.817,13.49642,-0.02239295,0.82306,1.03394
119.517,13.5197,-0.02301866,0.82121,1.03343
120.217,13.54299,-0.02303495,0.82219,1.03292
120.917,13.56621,-0.02303032,0.82219,1.03242
121.617,13.5895,-0.02303015,0.82317,1.03191
122.317,13.6127,-0.02301571,0.82584,1.03141
123.017,13.63595,-0.02245261,0.82802,1.0309
123.717,13.65913,-0.0229721,0.82708,1.0304
124.417,13.68219,-0.02303599,0.82948,1.0299
125.117,13.7053,-0.02302687,0.82843,1.0294
125.817,13.72834,-0.02299258,0.82708,1.02889
126.517,13.7515,-0.02438475,0.82845,1.02839
127.217,13.77475,-0.02435368,0.82562,1.0279
127.917,13.79785,-0.02435165,0.82692,1.0274
128.617,13.821,-0.02433342,0.8262,1.0269
129.317,13.84401,-0.0255625,0.82396,1.0264
130.017,13.86699,-0.02565885,0.82413,1.02591
130.717,13.88999,-0.02566,0.82285,1.02541
131.417,13.91298,-0.02566,0.82134,1.02492
132.117,13.9358,-0.02566,0.8223,1.02442
132.817,13.9587,-0.02566,0.82001,1.02393
133.517,13.98155,-0.02566,0.81945,1.02344
134.217,14.0043,-0.02566,0.81928,1.02295
134.917,14.02715,-0.02566,0.81863,1.02246
135.617,14.04996,-0.02566,0.81879,1.02197
136.317,14.07264,-0.02566099,0.81901,1.02148
137.017,14.0953,-0.02568519,0.81842,1.02099
137.717,14.11805,-0.02646256,0.81716,1.0205
138.417,14.14069,-0.02697979,0.81806,1.02002
139.117,14.16335,-0.02701351,0.81758,1.01953
139.817,14.18609,-0.02696623,0.81803,1.01905
140.517,14.20868,-0.02797163,0.81828,1.01856
141.217,14.23126,-0.02796331,0.81716,1.01808
141.917,14.2538,-0.0273569,0.81813,1.0176
142.617,14.2763,-0.02698216,0.81886,1.01711
143.317,14.2989,-0.02697024,0.82015,1.01663
144.017,14.32133,-0.02696998,0.82213,1.01615
144.717,14.3438,-0.02697,0.82161,1.01567
145.417,14.36621,-0.02697,0.8244,1.01519
146.117,14.3886,-0.02697,0.82439,1.01472
146.817,14.411,-0.02697,0.82678,1.01424
147.517,14.43346,-0.02697,0.82657,1.01376
148.217,14.4558,-0.02697,0.82642,1.01329
148.917,14.47819,-0.02697,0.82971,1.01281
149.617,14.50061,-0.02697,0.83073,1.01234
150.317,14.52275,-0.02697,0.83178,1.01186
151.017,14.5449,-0.02697,0.83291,1.01139
151.717,14.5671,-0.02697,0.83776,1.01092
152.417,14.5892,-0.02697,0.83693,1.01045
153.117,14.6117,-0.02697,0.83943,1.00998
153.817,14.634,-0.02697,0.84011,1.00951
154.517,14.65645,-0.02697,0.84303,1.00904
155.217,14.6787,-0.02696999,0.84314,1.00857
155.917,14.70086,-0.02697006,0.84584,1.0081
156.617,14.72301,-0.02697307,0.84825,1.00763
157.317,14.74504,-0.02707884,0.8499,1.00717
158.017,14.76707,-0.02824018,0.85172,1.0067
158.717,14.7892,-0.0282893,0.85319,1.00624
159.417,14.81143,-0.02829006,0.85744,1.00577
160.117,14.83358,-0.02829001,0.85625,1.00531
160.817,14.85578,-0.02829014,0.85916,1.00485
161.517,14.87785,-0.02829171,0.8594,1.00438
162.217,14.89986,-0.02829235,0.86512,1.00392
162.917,14.92189,-0.02936297,0.8681,1.00346
163.617,14.9439,-0.02928763,0.86896,1.003
164.317,14.96596,-0.02928044,0.87094,1.00254
165.017,14.98805,-0.02928001,0.87222,1.00208
165.717,15.0102,-0.02928,0.87129,1.00163
166.417,15.03222,-0.0292803,0.87434,1.00117
167.117,15.0542,-0.02928792,0.87901,1.00071
167.817,15.0762,-0.02949128,0.8803,1.00026
168.517,15.0981,-0.0296179,0.88368,0.9998
169.217,15.12009,-0.02993817,0.88497,0.99935
169.917,15.1421,-0.02932679,0.88868,0.9989
170.617,15.1641,-0.02856154,0.88938,0.99844
171.317,15.18604,-0.02862627,0.89067,0.99799
172.017,15.20793,-0.02863147,0.89275,0.99754
172.717,15.22984,-0.0289466,0.89507,0.99709
173.417,15.25177,-0.02992081,0.89618,0.99664
174.117,15.2736,-0.02993814,0.90106,0.99619
174.817,15.2955,-0.02993988,0.90162,0.99574
175.517,15.31727,-0.02994,0.90296,0.99529
176.217,15.3391,-0.02994003,0.90507,0.99485
176.917,15.36098,-0.02993934,0.90856,0.9944
177.617,15.3828,-0.0299111,0.91128,0.99396
178.317,15.40463,-0.03097019,0.91224,0.99351
179.017,15.42637,-0.03125088,0.91316,0.99307
179.717,15.44811,-0.03127177,0.91544,0.99262
180.417,15.46985,-0.03189987,0.9195,0.99218
181.117,15.4916,-0.03235347,0.92259,0.99174
181.817,15.51329,-0.03384622,0.92435,0.9913
182.517,15.5351,-0.03498078,0.9264,0.99085
183.217,15.55675,-0.03488643,0.92816,0.99041
183.917,15.5784,-0.03348661,0.9297,0.98997
184.617,15.60002,-0.03333849,0.93132,0.98954
185.317,15.62161,-0.03201486,0.93358,0.9891
186.017,15.6432,-0.03202388,0.93637,0.98866
186.717,15.6649,-0.03210774,0.93839,0.98822
187.417,15.6865,-0.0307357,0.94017,0.98779
188.117,15.70814,-0.03188512,0.94404,0.98735
188.817,15.7297,-0.03201876,0.94556,0.98692
189.517,15.75124,-0.03202727,0.947,0.98648
190.217,15.77285,-0.03342135,0.94875,0.98605
190.917,15.79439,-0.03333677,0.95073,0.98561
191.617,15.816,-0.03333039,0.95168,0.98518
192.317,15.83756,-0.03333002,0.95561,0.98475
193.017,15.85909,-0.03332998,0.95568,0.98432
193.717,15.8806,-0.0333302,0.95799,0.98389
194.417,15.9021,-0.03334052,0.95846,0.98346
195.117,15.9236,-0.03364136,0.95979,0.98303
195.817,15.9451,-0.03465633,0.96341,0.9826
196.517,15.9666,-0.03465034,0.9665,0.98217
197.217,15.98809,-0.03465009,0.96842,0.98175
197.917,16.00949,-0.03465038,0.97161,0.98132
198.617,16.031,-0.03507623,0.97244,0.98089
199.317,16.05248,-0.03614077,0.97227,0.98047
200.017,16.074,-0.03728422,0.97334,0.98004
200.717,16.09543,-0.03699547,0.97506,0.97962
201.417,16.11686,-0.03593708,0.97782,0.97919
202.117,16.1383,-0.03596889,0.97895,0.97877
202.817,16.15977,-0.03597025,0.98016,0.97835
203.517,16.18126,-0.03594582,0.98379,0.97793
204.217,16.20267,-0.03772766,0.98394,0.97751
204.917,16.22413,-0.03857241,0.98478,0.97709
205.617,16.24548,-0.03859827,0.98898,0.97667
206.317,16.2668,-0.03859998,0.99077,0.97625
207.017,16.28817,-0.03860076,0.99494,0.97583
207.717,16.3095,-0.03860376,0.99497,0.97541
208.417,16.33084,-0.03932995,0.99414,0.97499
209.117,16.3523,-0.03990187,0.99614,0.97458
209.817,16.37368,-0.03975109,0.99703,0.97416
210.517,16.3951,-0.03842931,1.0007,0.97374
211.217,16.4165,-0.03836958,1.00055,0.97333
211.917,16.43785,-0.03712836,1.00278,0.97291
212.617,16.45926,-0.03864775,1.00601,0.9725
213.317,16.48059,-0.03874868,1.00859,0.97209
214.017,16.5019,-0.04015369,1.00768,0.97168
214.717,16.5234,-0.04010638,1.01047,0.97126
215.417,16.5447,-0.04116606,1.01188,0.97085
216.117,16.5661,-0.04143588,1.01294,0.97044
216.817,16.58751,-0.04140627,1.01583,0.97003
217.517,16.60884,-0.04283571,1.01739,0.96962
218.217,16.63019,-0.04355615,1.01904,0.96921
218.917,16.6515,-0.04419977,1.02175,0.9688
219.617,16.67279,-0.04559875,1.02569,0.96839
220.317,16.6941,-0.04551654,1.0245,0.96799
221.017,16.7154,-0.0455068,1.0269,0.96758
221.717,16.7367,-0.04545883,1.02815,0.96717
222.417,16.758,-0.04674982,1.03121,0.96677
223.117,16.77928,-0.04682828,1.03129,0.96636
223.817,16.80058,-0.04682936,1.03518,0.96596
224.517,16.82189,-0.04733957,1.03373,0.96555
225.217,16.84303,-0.04814061,1.03545,0.96515
225.917,16.86425,-0.04852108,1.038,0.96475
226.617,16.88542,-0.04946705,1.0376,0.96434
227.317,16.90663,-0.04947431,1.04022,0.96394
228.017,16.92792,-0.04994732,1.04248,0.96354
228.717,16.94918,-0.05078796,1.04398,0.96314
229.417,16.9704,-0.05077619,1.04351,0.96274
230.117,16.9916,-0.05156711,1.04727,0.96234
230.817,17.01278,-0.05194935,1.04749,0.96194
231.517,17.03402,-0.05143624,1.04744,0.96154
232.217,17.05529,-0.05243841,1.04772,0.96114
232.917,17.0765,-0.0527931,1.04805,0.96075
233.617,17.09788,-0.05372082,1.04927,0.96035
234.317,17.11926,-0.05513037,1.05294,0.95995
235.017,17.1406,-0.05554419,1.0528,0.95956
235.717,17.162,-0.05645643,1.05425,0.95916
236.417,17.18336,-0.05641248,1.05457,0.95877
237.117,17.20461,-0.05771626,1.05561,0.95837
237.817,17.22589,-0.05770306,1.05701,0.95798
238.517,17.24705,-0.05908227,1.05528,0.95758
239.217,17.26823,-0.05907246,1.05522,0.95719
239.917,17.28945,-0.06051625,1.05578,0.9568
240.617,17.31063,-0.06056121,1.0564,0.95641
241.317,17.33186,-0.06199225,1.05949,0.95601
242.017,17.35311,-0.06294082,1.05902,0.95562
242.717,17.37429,-0.06350859,1.05776,0.95523
243.417,17.39558,-0.06514428,1.06008,0.95484
244.117,17.4168,-0.06516877,1.061,0.95445
244.817,17.438,-0.06638526,1.06077,0.95406
245.517,17.4592,-0.06633264,1.06223,0.95367
246.217,17.48037,-0.06790484,1.06276,0.95329
246.917,17.5016,-0.06837223,1.06305,0.9529
247.617,17.52286,-0.06917634,1.06386,0.95251
248.317,17.5441,-0.06920815,1.06595,0.95212
249.017,17.56529,-0.06946109,1.06544,0.95174
249.717,17.58654,-0.07078496,1.06917,0.95135
250.417,17.6078,-0.07188772,1.0669,0.95097
251.117,17.62904,-0.07200034,1.06944,0.95058
251.817,17.65024,-0.07370205,1.06843,0.9502
252.517,17.67128,-0.07531256,1.06983,0.94981
253.217,17.69219,-0.07582648,1.07125,0.94943
253.917,17.71329,-0.07689435,1.0726,0.94905
254.617,17.7345,-0.07851098,1.07495,0.94867
255.317,17.75563,-0.0800949,1.07356,0.94828
256.017,17.77693,-0.0813953,1.07432,0.9479
256.717,17.79816,-0.08188007,1.07678,0.94752
257.417,17.81934,-0.0832562,1.0774,0.94714
258.117,17.8405,-0.08502751,1.08042,0.94676
258.817,17.86174,-0.08648406,1.07923,0.94638
259.517,17.88285,-0.08801558,1.08002,0.946
260.217,17.90403,-0.08977844,1.08206,0.94562
260.917,17.92514,-0.09096777,1.08131,0.94524
261.617,17.9462,-0.09239896,1.08262,0.94486
262.317,17.96734,-0.09355017,1.08446,0.94449
263.017,17.9884,-0.09434284,1.08687,0.94411
263.717,18.00948,-0.09604136,1.08813,0.94373
264.417,18.03051,-0.09726958,1.08662,0.94336
265.117,18.0517,-0.09900874,1.08887,0.94298
265.817,18.0729,-0.099905,1.09073,0.9426
266.517,18.09405,-0.10086,1.09343,0.94223
267.217,18.11522,-0.10229,1.09361,0.94185
267.917,18.13622,-0.1038,1.09332,0.94148
268.617,18.1571,-0.10512,1.0947,0.94111
269.317,18.17803,-0.10684,1.09931,0.94073
270.017,18.19911,-0.10804,1.09989,0.94036
270.717,18.22041,-0.10859,1.0993,0.93999
271.417,18.2418,-0.10977,1.09829,0.93961
272.117,18.2631,-0.11133,1.1006,0.93924
272.817,18.2843,-0.11359,1.10388,0.93887
273.517,18.30546,-0.11658,1.10492,0.9385
274.217,18.3266,-0.11833,1.1088,0.93813
274.917,18.34778,-0.12066,1.10935,0.93776
275.617,18.36899,-0.12319,1.11301,0.93739
276.317,18.39016,-0.12516,1.11433,0.93702
277.017,18.4113,-0.12615,1.11422,0.93665
277.717,18.4324,-0.12713,1.11597,0.93628
278.417,18.45352,-0.12869,1.11897,0.93591
279.117,18.47468,-0.13067,1.11996,0.93554
279.817,18.4958,-0.13221,1.12203,0.93518
280.517,18.51699,-0.13391,1.12537,0.93481
281.217,18.53818,-0.13606,1.12929,0.93444
281.917,18.5594,-0.13823,1.13267,0.93407
282.617,18.58062,-0.14045,1.13457,0.93371
283.317,18.60179,-0.14282,1.13684,0.93334
284.017,18.623,-0.1454,1.13816,0.93298
284.717,18.64413,-0.148,1.14133,0.93261
285.417,18.66525,-0.15016,1.14284,0.93224
286.117,18.68647,-0.15236,1.14667,0.93188
286.817,18.7076,-0.1549,1.15063,0.93152
287.517,18.7288,-0.15725,1.15222,0.93115
288.217,18.75011,-0.15981,1.15748,0.93079
288.917,18.77124,-0.16235,1.15926,0.93042
289.617,18.79244,-0.16575,1.16647,0.93006
290.317,18.8137,-0.16872,1.16623,0.9297
291.017,18.83476,-0.17124,1.17031,0.92934
291.717,18.85589,-0.17359,1.17368,0.92897
292.417,18.877,-0.17627,1.18038,0.92861
293.117,18.89819,-0.17978,1.18312,0.92825
293.817,18.9194,-0.18339,1.18624,0.92789
294.517,18.94065,-0.18599,1.19151,0.92753
295.217,18.96189,-0.18883,1.1956,0.92717
295.917,18.98313,-0.19234,1.19891,0.92681
296.617,19.00441,-0.1964,1.20291,0.92645
297.317,19.0257,-0.19955,1.20804,0.92609
298.017,19.0469,-0.20349,1.21308,0.92573
298.717,19.06812,-0.2072,1.21918,0.92537
299.417,19.08933,-0.2106,1.22439,0.92501
300.117,19.11052,-0.21326,1.23089,0.92465
300.817,19.13158,-0.21636,1.23578,0.9243
301.517,19.15261,-0.22083,1.24177,0.92394
302.217,19.17385,-0.22504,1.24644,0.92358
302.917,19.19509,-0.23069,1.25327,0.92322
303.617,19.21641,-0.2347,1.26049,0.92287
304.317,19.23781,-0.23917,1.26526,0.92251
305.017,19.25903,-0.2438,1.27154,0.92215
305.717,19.28023,-0.24823,1.27703,0.9218
306.417,19.3015,-0.25293,1.2843,0.92144
307.117,19.32276,-0.25719,1.28961,0.92109
307.817,19.344,-0.26184,1.29891,0.92073
308.517,19.36525,-0.26599,1.30593,0.92037
309.217,19.38646,-0.27059,1.31486,0.92002
309.917,19.40766,-0.27577,1.31909,0.91967
310.617,19.42876,-0.28076,1.32599,0.91931
311.317,19.44988,-0.28624,1.33306,0.91896
312.017,19.47103,-0.29082,1.33981,0.9186
312.717,19.4922,-0.29742,1.34684,0.91825
313.417,19.51347,-0.30289,1.35334,0.9179
314.117,19.53474,-0.30863,1.36333,0.91754
314.817,19.556,-0.31407,1.37106,0.91719
315.517,19.57726,-0.32105,1.37856,0.91684
316.217,19.59846,-0.32682,1.38331,0.91648
316.917,19.61972,-0.33228,1.39132,0.91613
317.617,19.641,-0.33807,1.39819,0.91578
318.317,19.66221,-0.34459,1.40558,0.91543
319.017,19.6835,-0.35182,1.41428,0.91508
319.717,19.70476,-0.35816,1.42162,0.91473
320.417,19.72606,-0.36484,1.43166,0.91437
321.117,19.74736,-0.37091,1.43852,0.91402
321.817,19.76865,-0.37847,1.44725,0.91367
322.517,19.7899,-0.38486,1.45378,0.91332
323.217,19.8113,-0.39267,1.46256,0.91297
323.917,19.83282,-0.39923,1.47092,0.91262
324.617,19.8543,-0.40757,1.47972,0.91227
325.317,19.8758,-0.41402,1.48725,0.91192
326.017,19.89719,-0.42208,1.49407,0.91157
326.717,19.91844,-0.42973,1.50477,0.91122
327.417,19.93972,-0.43767,1.51337,0.91087
328.117,19.96099,-0.44544,1.52203,0.91052
328.817,19.98236,-0.45344,1.52766,0.91018
329.517,20.00371,-0.46181,1.53836,0.90983
330.217,20.02519,-0.46949,1.54782,0.90948
330.917,20.04666,-0.47859,1.55749,0.90913
331.617,20.068,-0.48644,1.56438,0.90878
332.317,20.0895,-0.49619,1.57281,0.90843
333.017,20.11078,-0.50445,1.58383,0.90809
333.717,20.13211,-0.51473,1.59112,0.90774
334.417,20.15345,-0.523,1.59889,0.90739
335.117,20.17472,-0.53251,1.60736,0.90704
335.817,20.19604,-0.54161,1.61906,0.9067
336.517,20.2174,-0.55152,1.6283,0.90635
337.217,20.23878,-0.56096,1.63705,0.906
337.917,20.26026,-0.57034,1.64528,0.90566
338.617,20.2817,-0.57983,1.65674,0.90531
339.317,20.30312,-0.59037,1.66811,0.90496
340.017,20.32455,-0.60246,1.67867,0.90462
340.717,20.34589,-0.61319,1.68582,0.90427
341.417,20.36734,-0.62441,1.69861,0.90392
342.117,20.38878,-0.63296,1.71102,0.90358
342.817,20.41019,-0.64405,1.72353,0.90323
343.517,20.43166,-0.65285,1.73513,0.90289
344.217,20.45308,-0.66518,1.74733,0.90254
344.917,20.47446,-0.67526,1.76148,0.9022
345.617,20.4959,-0.6873,1.77435,0.90185
346.317,20.51732,-0.69814,1.78528,0.90151
347.017,20.53874,-0.71012,1.80362,0.90116
347.717,20.56022,-0.72121,1.81605,0.90082
348.417,20.58165,-0.73318,1.83443,0.90047
349.117,20.60313,-0.74637,1.84869,0.90013
349.817,20.62464,-0.7585,1.86618,0.89978
350.517,20.64611,-0.77186,1.88401,0.89944
351.217,20.66754,-0.78346,1.9032,0.89909
351.917,20.68889,-0.79798,1.92101,0.89875
352.617,20.7103,-0.81022,1.94171,0.8984
353.317,20.73167,-0.82518,1.96036,0.89806
354.017,20.75306,-0.83743,1.97986,0.89772
354.717,20.77469,-0.85289,2.00339,0.89737
355.417,20.7962,-0.86653,2.02626,0.89703
356.117,20.8178,-0.88258,2.04918,0.89668
356.817,20.8395,-0.89787,2.07197,0.89634
357.517,20.86109,-0.91379,2.09944,0.896
358.217,20.88266,-0.92957,2.12338,0.89565
358.917,20.9042,-0.9446,2.14983,0.89531
359.617,20.92579,-0.9619,2.17494,0.89497
360.317,20.94734,-0.97704,2.20165,0.89462
361.017,20.96885,-0.99576,2.22794,0.89428
361.717,20.9904,-1.01084,2.25526,0.89394
362.417,21.01194,-1.0303,2.28293,0.89359
363.117,21.03347,-1.04642,2.31095,0.89325
363.817,21.05509,-1.06651,2.33758,0.89291
364.517,21.07668,-1.08429,2.36514,0.89256
365.217,21.09825,-1.10468,2.39411,0.89222
365.917,21.11968,-1.12329,2.41934,0.89188
366.617,21.14125,-1.14292,2.44511,0.89153
367.317,21.16285,-1.16361,2.46996,0.89119
368.017,21.1845,-1.18331,2.49687,0.89085
368.717,21.20609,-1.2051,2.51907,0.8905
369.417,21.2277,-1.22402,2.54115,0.89016
370.117,21.24932,-1.24763,2.56297,0.88982
370.817,21.27094,-1.26725,2.57952,0.88948
371.517,21.29253,-1.29107,2.59948,0.88913
372.217,21.31417,-1.31045,2.61188,0.88879
372.917,21.3358,-1.33397,2.62613,0.88845
373.617,21.3575,-1.35433,2.63572,0.8881
374.317,21.37929,-1.37749,2.64241,0.88776
375.017,21.40101,-1.39988,2.64615,0.88742
375.717,21.42261,-1.42221,2.64794,0.88708
376.417,21.4443,-1.44588,2.64452,0.88673
377.117,21.46606,-1.46718,2.63778,0.88639
377.817,21.48771,-1.4918,2.62729,0.88605
378.517,21.50939,-1.51196,2.61576,0.8857
379.217,21.53106,-1.53621,2.59556,0.88536
379.917,21.55265,-1.55543,2.57485,0.88502
380.617,21.57434,-1.57887,2.54863,0.88468
381.317,21.596,-1.59906,2.51656,0.88433
382.017,21.61761,-1.62061,2.48298,0.88399
382.717,21.63924,-1.63966,2.44348,0.88365
383.417,21.66086,-1.65921,2.39839,0.8833
384.117,21.68246,-1.67902,2.35267,0.88296
384.817,21.70415,-1.69807,2.30431,0.88262
385.517,21.72587,-1.71834,2.24616,0.88228
386.217,21.74754,-1.73481,2.19013,0.88193
386.917,21.76928,-1.75405,2.12894,0.88159
387.617,21.79091,-1.76927,2.06599,0.88125
388.317,21.8125,-1.7869,1.99805,0.8809
389.017,21.83411,-1.79988,1.92798,0.88056
389.717,21.85572,-1.81467,1.85599,0.88022
390.417,21.8774,-1.82706,1.78896,0.87987
391.117,21.89896,-1.84069,1.71575,0.87953
391.817,21.92064,-1.85347,1.64584,0.87919
392.517,21.94226,-1.86537,1.57597,0.87884
393.217,21.96384,-1.87732,1.50727,0.8785
393.917,21.98548,-1.88683,1.44066,0.87816
394.617,22.00706,-1.89708,1.37671,0.87781
395.317,22.02865,-1.90513,1.32025,0.87747
396.017,22.05015,-1.91485,1.26412,0.87712
396.717,22.07173,-1.92153,1.21437,0.87678
397.417,22.0934,-1.92927,1.16886,0.87644
398.117,22.11499,-1.93412,1.13059,0.87609
398.817,22.1367,-1.9407,1.09136,0.87575
399.517,22.1584,-1.94657,1.06294,0.8754
400.217,22.17996,-1.95437,1.03464,0.87506
400.917,22.2016,-1.96238,1.01177,0.87472
401.617,22.22325,-1.96815,0.99507,0.87437
402.317,22.2449,-1.97445,0.9796,0.87403
403.017,22.26657,-1.97854,0.96765,0.87368
403.717,22.28825,-1.98361,0.95979,0.87334
404.417,22.30995,-1.98695,0.95183,0.87299
405.117,22.33164,-1.99341,0.94886,0.87265
405.817,22.35333,-1.99698,0.94732,0.8723
406.517,22.37499,-2.00294,0.94575,0.87196
407.217,22.39675,-2.00772,0.94691,0.87161
407.917,22.41851,-2.01385,0.95078,0.87127
408.617,22.44029,-2.0194,0.95132,0.87092
409.317,22.462,-2.0249,0.95414,0.87057
410.017,22.4837,-2.03128,0.95987,0.87023
410.717,22.50543,-2.03786,0.96451,0.86988
411.417,22.52717,-2.04499,0.96867,0.86954
412.117,22.54896,-2.05028,0.9753,0.86919
412.817,22.57077,-2.05784,0.97958,0.86884
413.517,22.59264,-2.06415,0.98418,0.8685
414.217,22.6145,-2.07156,0.99345,0.86815
414.917,22.63638,-2.07836,0.99764,0.8678
415.617,22.6583,-2.08706,1.00303,0.86746
416.317,22.68011,-2.09438,1.00664,0.86711
417.017,22.70198,-2.10159,1.00989,0.86676
417.717,22.7239,-2.10914,1.0138,0.86641
418.417,22.7457,-2.11608,1.01471,0.86607
419.117,22.76754,-2.12451,1.01748,0.86572
419.817,22.78943,-2.13197,1.01632,0.86537
420.517,22.81136,-2.141,1.01667,0.86502
421.217,22.83328,-2.14812,1.01561,0.86468
421.917,22.85517,-2.15733,1.01092,0.86433
422.617,22.87706,-2.16544,1.00578,0.86398
423.317,22.89895,-2.1742,0.99953,0.86363
424.017,22.92086,-2.1825,0.9934,0.86328
424.717,22.94278,-2.19158,0.9846,0.86293
425.417,22.96469,-2.20129,0.97413,0.86258
426.117,22.98658,-2.20918,0.96341,0.86223
426.817,23.00846,-2.21799,0.94862,0.86188
427.517,23.0304,-2.22546,0.93476,0.86153
428.217,23.0523,-2.23527,0.91719,0.86118
428.917,23.0742,-2.24325,0.8986,0.86083
429.617,23.09616,-2.25276,0.87983,0.86048
430.317,23.11809,-2.26068,0.85716,0.86013
431.017,23.14004,-2.26908,0.83614,0.85978
431.717,23.162,-2.27706,0.80756,0.85943
432.417,23.18394,-2.28421,0.78299,0.85908
433.117,23.20585,-2.29187,0.75528,0.85873
433.817,23.22776,-2.29832,0.72479,0.85838
434.517,23.24971,-2.30627,0.69436,0.85803
435.217,23.27165,-2.31233,0.66363,0.85767
435.917,23.2936,-2.3188,0.63645,0.85732
436.617,23.31557,-2.3235,0.60658,0.85697
437.317,23.33754,-2.32905,0.5787,0.85662
438.017,23.3595,-2.33408,0.55344,0.85627
438.717,23.3814,-2.33891,0.52889,0.85591
439.417,23.40341,-2.34383,0.5057,0.85556
440.117,23.42539,-2.34689,0.4817,0.85521
440.817,23.44735,-2.34973,0.45946,0.85485
441.517,23.46931,-2.35232,0.44229,0.8545
442.217,23.4913,-2.35557,0.42547,0.85414
442.917,23.51331,-2.35901,0.40891,0.85379
443.617,23.5353,-2.36192,0.39463,0.85343
444.317,23.55738,-2.36545,0.38206,0.85308
445.017,23.5794,-2.36882,0.37136,0.85272
445.717,23.60145,-2.37149,0.35969,0.85237
446.417,23.6235,-2.37319,0.35064,0.85201
447.117,23.64551,-2.37494,0.34191,0.85166
447.817,23.6676,-2.37697,0.33525,0.8513
448.517,23.68967,-2.37905,0.32715,0.85095
449.217,23.71172,-2.38084,0.31969,0.85059
449.917,23.73377,-2.38249,0.31499,0.85023
450.617,23.7558,-2.38434,0.3093,0.84987
451.317,23.77779,-2.38632,0.3081,0.84952
452.017,23.7999,-2.38839,0.30581,0.84916
452.717,23.82193,-2.38918,0.30086,0.8488
453.417,23.84403,-2.39029,0.29689,0.84844
454.117,23.8661,-2.39208,0.29535,0.84808
454.817,23.88822,-2.39427,0.29359,0.84773
455.517,23.91041,-2.39634,0.29121,0.84737
456.217,23.93254,-2.39738,0.28873,0.84701
456.917,23.95467,-2.39864,0.28638,0.84665
457.617,23.97684,-2.4002,0.28417,0.84629
458.317,23.99902,-2.40171,0.28253,0.84593
459.017,24.02119,-2.4027,0.28304,0.84557
459.717,24.04336,-2.40385,0.28129,0.84521
460.417,24.06549,-2.40537,0.28115,0.84485
461.117,24.08761,-2.40684,0.27991,0.84448
461.817,24.1098,-2.40858,0.27742,0.84412
462.517,24.132,-2.41044,0.27847,0.84376
463.217,24.1541,-2.41144,0.27996,0.8434
463.917,24.17628,-2.41227,0.27981,0.84304
464.617,24.19839,-2.4135,0.27566,0.84267
465.317,24.22051,-2.41519,0.27656,0.84231
466.017,24.2427,-2.41612,0.27632,0.84195
466.717,24.26497,-2.41698,0.27648,0.84158
467.417,24.28719,-2.41842,0.27745,0.84122
468.117,24.30937,-2.41938,0.27402,0.84085
468.817,24.3316,-2.42001,0.27569,0.84049
469.517,24.35376,-2.42156,0.2746,0.84012
470.217,24.37602,-2.42317,0.27588,0.83976
470.917,24.39828,-2.42445,0.27523,0.83939
471.617,24.4206,-2.42499,0.27394,0.83903
472.317,24.44284,-2.42606,0.27451,0.83866
473.017,24.4651,-2.42747,0.27391,0.83829
473.717,24.4874,-2.42846,0.2751,0.83793
474.417,24.5096,-2.4301,0.27494,0.83756
475.117,24.53189,-2.43134,0.27397,0.83719
475.817,24.55408,-2.43153,0.2738,0.83682
476.517,24.57631,-2.43311,0.27322,0.83646
477.217,24.59853,-2.43368,0.27193,0.83609
477.917,24.6208,-2.43468,0.27367,0.83572
478.617,24.6431,-2.43632,0.27301,0.83535
479.317,24.66529,-2.43746,0.27268,0.83498
480.017,24.6876,-2.43858,0.27345,0.83461
480.717,24.70984,-2.4393,0.27027,0.83424
481.417,24.73215,-2.44082,0.27339,0.83387
482.117,24.75442,-2.44157,0.27199,0.8335
482.817,24.77666,-2.44223,0.27161,0.83312
483.517,24.7989,-2.44371,0.26958,0.83275
484.217,24.82098,-2.44528,0.27038,0.83238
484.917,24.84327,-2.44526,0.26843,0.83201
485.617,24.8656,-2.44663,0.26902,0.83163
486.317,24.8878,-2.44656,0.26673,0.83126
487.017,24.91026,-2.44755,0.26431,0.83089
487.717,24.93263,-2.44792,0.26181,0.83051
488.417,24.95491,-2.44921,0.26472,0.83014
489.117,24.97724,-2.44929,0.26228,0.82976
489.817,24.9997,-2.44991,0.26216,0.82939
490.517,25.02197,-2.45066,0.25821,0.82901
491.217,25.04435,-2.45194,0.25926,0.82864
491.917,25.0668,-2.45194,0.25503,0.82826
492.617,25.0891,-2.45334,0.25428,0.82788
493.317,25.11143,-2.45413,0.25079,0.82751
494.017,25.13371,-2.45477,0.24809,0.82713
494.717,25.15608,-2.45535,0.25189,0.82675
495.417,25.17839,-2.45608,0.24794,0.82637
496.117,25.20075,-2.45613,0.24555,0.82599
496.817,25.22319,-2.4576,0.24411,0.82561
497.517,25.24555,-2.45878,0.24246,0.82524
498.217,25.26793,-2.45906,0.24394,0.82486
498.917,25.29039,-2.46006,0.24028,0.82447
499.617,25.31279,-2.46036,0.2406,0.82409
500.317,25.33523,-2.46035,0.23896,0.82371
501.017,25.35768,-2.4615,0.23751,0.82333
501.717,25.38007,-2.46168,0.23636,0.82295
502.417,25.40247,-2.46309,0.23519,0.82257
503.117,25.4249,-2.4642,0.23373,0.82218
503.817,25.44729,-2.46451,0.23089,0.8218
504.517,25.46968,-2.46451,0.22926,0.82142
505.217,25.4921,-2.46587,0.22864,0.82103
505.917,25.5145,-2.46624,0.22555,0.82065
506.617,25.53689,-2.46731,0.22381,0.82026
507.317,25.55931,-2.4682,0.22241,0.81988
508.017,25.58172,-2.46859,0.22402,0.81949
508.717,25.60418,-2.46858,0.22221,0.81911
509.417,25.6266,-2.46962,0.22039,0.81872
510.117,25.64905,-2.4699,0.22197,0.81833
510.817,25.67152,-2.47069,0.2206,0.81794
511.517,25.69397,-2.47117,0.22011,0.81756
512.217,25.71641,-2.47244,0.21711,0.81717
512.917,25.7389,-2.47264,0.21622,0.81678
513.617,25.76138,-2.47402,0.21437,0.81639
514.317,25.7838,-2.47397,0.21374,0.816
515.017,25.80632,-2.47418,0.21148,0.81561
515.717,25.8288,-2.4743,0.21252,0.81522
516.417,25.85127,-2.47537,0.21286,0.81483
517.117,25.87376,-2.47553,0.20757,0.81444
517.817,25.89626,-2.47789,0.20766,0.81404
518.517,25.91874,-2.47824,0.20721,0.81365
519.217,25.94118,-2.47825,0.20473,0.81326
519.917,25.9637,-2.47895,0.20464,0.81287
520.617,25.98621,-2.47949,0.20303,0.81247
521.317,26.0088,-2.48093,0.20137,0.81208
522.017,26.03132,-2.48104,0.20057,0.81168
522.717,26.0539,-2.48241,0.20158,0.81129
523.417,26.07638,-2.48161,0.19791,0.81089
524.117,26.0989,-2.4822,0.19562,0.8105
524.817,26.12132,-2.48295,0.19432,0.8101
525.517,26.14379,-2.48286,0.193,0.8097
526.217,26.16633,-2.48325,0.19379,0.8093
526.917,26.18889,-2.48395,0.19296,0.80891
527.617,26.21144,-2.48396,0.19147,0.80851
528.317,26.2339,-2.48429,0.18846,0.80811
529.017,26.25644,-2.48526,0.18759,0.80771
529.717,26.279,-2.48526,0.18542,0.80731
530.417,26.3015,-2.48664,0.18361,0.80691
531.117,26.32409,-2.48654,0.18453,0.80651
531.817,26.3467,-2.48774,0.18181,0.80611
532.517,26.3693,-2.48789,0.18123,0.8057
533.217,26.3919,-2.48795,0.17891,0.8053
533.917,26.41449,-2.49028,0.17787,0.8049
534.617,26.4371,-2.49052,0.17859,0.8045
535.317,26.4596,-2.49053,0.17616,0.80409
536.017,26.4823,-2.49053,0.17559,0.80369
536.717,26.5049,-2.49055,0.17451,0.80328
537.417,26.5275,-2.49103,0.17326,0.80288
538.117,26.5501,-2.49053,0.17134,0.80247
538.817,26.57273,-2.4905,0.16809,0.80207
539.517,26.59533,-2.4916,0.16884,0.80166
540.217,26.61794,-2.49184,0.16659,0.80125
540.917,26.64065,-2.49391,0.164,0.80084
541.617,26.6632,-2.49448,0.16424,0.80044
542.317,26.68585,-2.4948,0.16251,0.80003
543.017,26.7085,-2.49581,0.16241,0.79962
543.717,26.73102,-2.49538,0.15785,0.79921
544.417,26.75368,-2.4952,0.1585,0.7988
545.117,26.77638,-2.49577,0.1599,0.79839
545.817,26.79901,-2.49604,0.15457,0.79797
546.517,26.8217,-2.49709,0.15718,0.79756
547.217,26.8443,-2.49713,0.15721,0.79715
547.917,26.86695,-2.49779,0.15636,0.79674
548.617,26.8896,-2.49842,0.15582,0.79632
549.317,26.9122,-2.4989,0.15812,0.79591
550.017,26.93481,-2.49931,0.16058,0.79549
550.717,26.95738,-2.50071,0.16135,0.79508
551.417,26.97997,-2.50073,0.16231,0.79466
552.117,27.0026,-2.50073,0.16557,0.79425
552.817,27.0253,-2.50073,0.16769,0.79383
553.517,27.048,-2.50074,0.16529,0.79341
554.217,27.07072,-2.50145,0.16829,0.793
554.917,27.0933,-2.50203,0.16967,0.79258
555.617,27.11593,-2.50195,0.16932,0.79216
556.317,27.13855,-2.50335,0.1706,0.79174
557.017,27.16122,-2.50337,0.17115,0.79132
557.717,27.18402,-2.50371,0.17032,0.7909
558.417,27.20679,-2.50468,0.17253,0.79048
559.117,27.22955,-2.50467,0.17214,0.79006
559.817,27.25222,-2.50349,0.17025,0.78964
560.517,27.2749,-2.50461,0.17064,0.78921
561.217,27.2977,-2.50468,0.17105,0.78879
561.917,27.3204,-2.50468,0.17416,0.78837
562.617,27.34317,-2.50468,0.17198,0.78794
563.317,27.36595,-2.50468,0.1721,0.78752
564.017,27.3887,-2.5047,0.17435,0.78709
564.717,27.4114,-2.50577,0.17271,0.78667
565.417,27.43419,-2.50599,0.17183,0.78624
566.117,27.4569,-2.50598,0.17184,0.78581
566.817,27.47963,-2.50597,0.1726,0.78538
567.517,27.50245,-2.50733,0.17347,0.78496
568.217,27.52523,-2.50772,0.17022,0.78453
568.917,27.5481,-2.50943,0.17241,0.7841
569.617,27.5708,-2.51013,0.17287,0.78367
570.317,27.5936,-2.5108,0.17081,0.78324
571.017,27.61635,-2.51082,0.16953,0.78281
571.717,27.63915,-2.51082,0.16936,0.78238
572.417,27.66201,-2.51082,0.16864,0.78194
573.117,27.68481,-2.51082,0.166,0.78151
573.817,27.70767,-2.51082,0.16603,0.78108
574.517,27.7304,-2.51082,0.16499,0.78065
575.217,27.75323,-2.51224,0.16655,0.78021
575.917,27.7761,-2.51214,0.16474,0.77978
576.617,27.799,-2.51214,0.16228,0.77934
577.317,27.82181,-2.51352,0.1604,0.77891
578.017,27.84457,-2.51346,0.16194,0.77847
578.717,27.8673,-2.51345,0.15776,0.77803
579.417,27.89017,-2.51345,0.15805,0.77759
580.117,27.913,-2.51486,0.15717,0.77716
580.817,27.93593,-2.51478,0.15611,0.77672
581.517,27.95875,-2.51477,0.15555,0.77628
582.217,27.98157,-2.51477,0.15361,0.77584
582.917,28.00443,-2.51476,0.15041,0.7754
583.617,28.0273,-2.51587,0.15013,0.77496
584.317,28.0502,-2.51608,0.14624,0.77451
585.017,28.0731,-2.5161,0.14485,0.77407
585.717,28.096,-2.51666,0.14259,0.77363
586.417,28.11887,-2.5174,0.14059,0.77319
587.117,28.1418,-2.5174,0.13843,0.77274
587.817,28.1647,-2.51742,0.13539,0.7723
588.517,28.1876,-2.51816,0.13446,0.77185
589.217,28.2106,-2.51872,0.1322,0.77141
589.917,28.2334,-2.51876,0.13146,0.77096
590.617,28.25634,-2.51757,0.12922,0.77051
591.317,28.27924,-2.5174,0.12698,0.77006
592.017,28.30217,-2.51756,0.12723,0.76962
592.717,28.3252,-2.51872,0.1242,0.76917
593.417,28.34812,-2.51871,0.12105,0.76872
594.117,28.37112,-2.51871,0.12135,0.76827
594.817,28.3941,-2.51871,0.11716,0.76782
595.517,28.417,-2.5187,0.11564,0.76737
596.217,28.44,-2.51871,0.11278,0.76692
596.917,28.463,-2.52004,0.1136,0.76646
597.617,28.4859,-2.52002,0.11039,0.76601
598.317,28.50882,-2.51998,0.1078,0.76556
599.017,28.53177,-2.52135,0.10998,0.7651
599.717,28.5547,-2.52135,0.10653,0.76465
600.417,28.5777,-2.5213,0.10428,0.76419
601.117,28.60067,-2.52269,0.1049,0.76374
601.817,28.62361,-2.52301,0.10177,0.76328
602.517,28.64661,-2.52364,0.10349,0.76282
603.217,28.66958,-2.52397,0.09851625,0.76237
603.917,28.69261,-2.52398,0.10123,0.76191
604.617,28.71565,-2.52397,0.09715126,0.76145
605.317,28.73872,-2.52392,0.0996151,0.76099
606.017,28.76168,-2.5253,0.09649044,0.76053
606.717,28.78466,-2.52506,0.09554928,0.76007
607.417,28.80769,-2.52396,0.09322027,0.75961
608.117,28.83065,-2.52397,0.09145572,0.75914
608.817,28.8537,-2.52494,0.09432268,0.75868
609.517,28.8767,-2.52527,0.09026756,0.75822
610.217,28.8997,-2.52527,0.09094662,0.75776
610.917,28.92274,-2.52662,0.08732837,0.75729
611.617,28.94574,-2.52661,0.08646793,0.75683
612.317,28.9687,-2.52661,0.08732274,0.75636
613.017,28.9917,-2.52668,0.08497889,0.75589
613.717,29.0147,-2.52798,0.08204098,0.75543
614.417,29.03775,-2.52793,0.08382938,0.75496
615.117,29.0608,-2.52793,0.08168202,0.75449
615.817,29.08373,-2.52793,0.08127014,0.75402
616.517,29.1067,-2.52796,0.08080861,0.75355
617.217,29.1297,-2.52889,0.07796459,0.75308
617.917,29.1527,-2.52924,0.08013614,0.75261
618.617,29.17577,-2.52924,0.07630035,0.75214
619.317,29.1988,-2.52924,0.07724842,0.75167
620.017,29.22178,-2.52924,0.07932465,0.7512
620.717,29.24478,-2.52919,0.07663387,0.75072
621.417,29.26775,-2.53047,0.07588212,0.75025
622.117,29.29079,-2.53056,0.07655652,0.74978
622.817,29.3138,-2.53057,0.07644487,0.7493
623.517,29.3369,-2.53096,0.07521036,0.74883
624.217,29.35995,-2.53188,0.07367773,0.74835
624.917,29.38297,-2.53188,0.07064621,0.74787
625.617,29.40602,-2.53187,0.07290808,0.7474
626.317,29.429,-2.53183,0.07496024,0.74692
627.017,29.452,-2.5332,0.07312826,0.74644
627.717,29.475,-2.53319,0.07302498,0.74596
628.417,29.49805,-2.53318,0.07349372,0.74548
629.117,29.5211,-2.53456,0.07632053,0.745
629.817,29.5442,-2.53452,0.07331266,0.74452
630.517,29.56733,-2.53451,0.07430114,0.74404
631.217,29.5904,-2.53451,0.07883489,0.74356
631.917,29.61344,-2.53545,0.07665199,0.74307
632.617,29.6365,-2.53588,0.07408833,0.74259
633.317,29.65965,-2.53516,0.07590931,0.7421
634.017,29.68279,-2.53516,0.07790471,0.74162
634.717,29.7058,-2.53519,0.07913266,0.74113
635.417,29.7289,-2.53605,0.07688723,0.74065
636.117,29.75175,-2.53648,0.07866109,0.74016
636.817,29.7748,-2.53648,0.07945959,0.73967
637.517,29.798,-2.53667,0.08000491,0.73919
638.217,29.8211,-2.53779,0.08074333,0.7387
638.917,29.84426,-2.53775,0.08249817,0.73821
639.617,29.8674,-2.539,0.08298378,0.73772
640.317,29.89051,-2.53911,0.08195475,0.73723
641.017,29.91357,-2.53911,0.08391824,0.73674
641.717,29.9366,-2.53912,0.08603574,0.73624
642.417,29.9597,-2.53943,0.08777956,0.73575
643.117,29.9827,-2.53973,0.08867083,0.73526
643.817,30.00563,-2.54049,0.08976088,0.73477
644.517,30.0286,-2.54043,0.08859055,0.73427
645.217,30.05163,-2.54043,0.09426605,0.73378
645.917,30.0747,-2.54042,0.09223032,0.73328
646.617,30.09788,-2.54159,0.09611829,0.73278
647.317,30.12108,-2.54175,0.09691045,0.73229
648.017,30.1442,-2.54167,0.10186,0.73179
648.717,30.16735,-2.54304,0.10104,0.73129
649.417,30.1905,-2.54308,0.10135,0.73079
650.117,30.21351,-2.54443,0.10427,0.73029
650.817,30.23664,-2.54438,0.10707,0.72979
651.517,30.2597,-2.54437,0.10566,0.72929
652.217,30.28288,-2.5457,0.11423,0.72879
652.917,30.3061,-2.54569,0.11312,0.72829
653.617,30.3291,-2.54569,0.11715,0.72779
654.317,30.3523,-2.54623,0.1185,0.72728
655.017,30.37537,-2.54663,0.12729,0.72678
655.717,30.39844,-2.5463,0.12509,0.72628
656.417,30.4216,-2.54769,0.13022,0.72577
657.117,30.4447,-2.54774,0.1334,0.72526
657.817,30.46785,-2.54903,0.14344,0.72476
658.517,30.49098,-2.54899,0.1427,0.72425
659.217,30.51405,-2.54895,0.14883,0.72374
659.917,30.53698,-2.55017,0.15345,0.72324
660.617,30.55994,-2.55031,0.1557,0.72273
661.317,30.58298,-2.55055,0.16378,0.72222
662.017,30.6062,-2.55164,0.17012,0.72171
662.717,30.62955,-2.55163,0.17265,0.7212
663.417,30.65278,-2.55185,0.17439,0.72068
664.117,30.676,-2.55295,0.18166,0.72017
664.817,30.6991,-2.55295,0.18286,0.71966
665.517,30.7223,-2.55409,0.18734,0.71915
666.217,30.7454,-2.55427,0.19456,0.71863
666.917,30.7686,-2.5548,0.20075,0.71812
667.617,30.79172,-2.55556,0.20368,0.7176
668.317,30.81492,-2.55559,0.21059,0.71709
669.017,30.83809,-2.55638,0.21488,0.71657
669.717,30.86125,-2.55686,0.21853,0.71605
670.417,30.88443,-2.55697,0.22178,0.71553
671.117,30.9076,-2.55793,0.23011,0.71502
671.817,30.93073,-2.55691,0.23445,0.7145
672.517,30.95392,-2.55837,0.23845,0.71398
673.217,30.977,-2.55822,0.24076,0.71346
673.917,31.00005,-2.55963,0.24661,0.71294
674.617,31.02324,-2.5599,0.24911,0.71241
675.317,31.0464,-2.56096,0.2513,0.71189
676.017,31.06966,-2.56124,0.25904,0.71137
676.717,31.0929,-2.56223,0.26073,0.71084
677.417,31.11614,-2.56226,0.26319,0.71032
678.117,31.13935,-2.56227,0.26603,0.7098
678.817,31.1625,-2.56361,0.27152,0.70927
679.517,31.1857,-2.5649,0.27388,0.70874
680.217,31.2089,-2.56634,0.27589,0.70822
680.917,31.2321,-2.56701,0.2801,0.70769
681.617,31.2554,-2.56789,0.28257,0.70716
682.317,31.27856,-2.56923,0.28104,0.70663
683.017,31.30169,-2.56935,0.2832,0.7061
683.717,31.3249,-2.57075,0.28323,0.70557
684.417,31.348,-2.57009,0.2817,0.70504
685.117,31.37125,-2.5708,0.28425,0.70451
685.817,31.3945,-2.57073,0.2813,0.70398
686.517,31.41778,-2.57211,0.28138,0.70345
687.217,31.441,-2.57213,0.2755,0.70291
687.917,31.4642,-2.5729,0.27701,0.70238
688.617,31.4874,-2.57343,0.27261,0.70185
689.317,31.51065,-2.57347,0.27006,0.70131
690.017,31.53387,-2.57494,0.26344,0.70078
690.717,31.55708,-2.57611,0.25945,0.70024
691.417,31.58026,-2.57642,0.25335,0.6997
692.117,31.6035,-2.57778,0.25326,0.69917
692.817,31.62675,-2.57776,0.24854,0.69863
693.517,31.65,-2.57871,0.24426,0.69809
694.217,31.67328,-2.57918,0.23945,0.69755
694.917,31.69652,-2.57951,0.23879,0.69701
695.617,31.71975,-2.57915,0.23234,0.69647
696.317,31.743,-2.57909,0.23259,0.69593
697.017,31.7663,-2.58043,0.23233,0.69538
697.717,31.7895,-2.58047,0.23247,0.69484
698.417,31.8128,-2.58106,0.23421,0.6943
699.117,31.836,-2.58176,0.237,0.69376
699.817,31.85936,-2.58176,0.24096,0.69321
700.517,31.88277,-2.58315,0.23955,0.69267
701.217,31.90614,-2.58301,0.242,0.69212
701.917,31.92952,-2.58441,0.24469,0.69157
702.617,31.9528,-2.5853,0.24638,0.69103
703.317,31.9761,-2.58562,0.2417,0.69048
704.017,31.9993,-2.58705,0.24187,0.68993
704.717,32.02252,-2.58706,0.23785,0.68938
705.417,32.0458,-2.5876,0.22831,0.68883
706.117,32.0691,-2.58837,0.21806,0.68828
706.817,32.09241,-2.58922,0.21086,0.68773
707.517,32.1157,-2.58966,0.1963,0.68718
708.217,32.13893,-2.58963,0.18026,0.68663
708.917,32.16215,-2.591,0.16407,0.68608
709.617,32.18548,-2.59091,0.14422,0.68552
710.317,32.20884,-2.5923,0.12101,0.68497
711.017,32.2322,-2.59231,0.08511719,0.68441
711.717,32.2555,-2.59231,0.05358848,0.68386
712.417,32.27876,-2.59255,0.02892963,0.6833
713.117,32.30203,-2.59361,0.002315695,0.68275
713.817,32.32532,-2.59392,-0.01393215,0.68219
714.517,32.34864,-2.59495,-0.02709039,0.68163
715.217,32.37198,-2.59494,-0.03904063,0.68107
715.917,32.39532,-2.59495,-0.04377867,0.68052
716.617,32.41865,-2.59521,-0.05051056,0.67996
717.317,32.44194,-2.59557,-0.05781553,0.6794
718.017,32.46522,-2.59667,-0.05637625,0.67884
718.717,32.48854,-2.59692,-0.0660547,0.67827
719.417,32.5118,-2.59692,-0.06607857,0.67771
720.117,32.53516,-2.59692,-0.07006077,0.67715
720.817,32.5585,-2.59692,-0.07164844,0.67659
721.517,32.5818,-2.59642,-0.07048875,0.67602
722.217,32.60502,-2.59563,-0.07224934,0.67546
722.917,32.62828,-2.59561,-0.07114516,0.67489
723.617,32.65161,-2.59562,-0.07372935,0.67433
724.317,32.67491,-2.59606,-0.07545833,0.67376
725.017,32.6984,-2.59692,-0.07408306,0.6732
725.717,32.72185,-2.59706,-0.07586219,0.67263
726.417,32.74515,-2.59834,-0.07717617,0.67206
727.117,32.76847,-2.59694,-0.0802653,0.67149
727.817,32.79179,-2.59694,-0.08065864,0.67092
728.517,32.81511,-2.5974,-0.08227422,0.67035
729.217,32.83848,-2.59824,-0.08126395,0.66978
729.917,32.86189,-2.59824,-0.08322472,0.66921
730.617,32.88525,-2.59824,-0.08286866,0.66864
731.317,32.90862,-2.59824,-0.08125938,0.66807
732.017,32.9319,-2.59824,-0.08380205,0.66749
732.717,32.9553,-2.59824,-0.08640045,0.66692
733.417,32.9786,-2.59825,-0.08729865,0.66635
734.117,33.00188,-2.59896,-0.08456963,0.66577
734.817,33.02523,-2.59891,-0.08463812,0.6652
735.517,33.0486,-2.59917,-0.08558274,0.66462
736.217,33.07188,-2.59955,-0.0870526,0.66404
736.917,33.09522,-2.59945,-0.08966012,0.66347
737.617,33.11858,-2.59852,-0.08916122,0.66289
738.317,33.14195,-2.59993,-0.08912462,0.66231
739.017,33.1653,-2.59989,-0.09050095,0.66173
739.717,33.18845,-2.59989,-0.09025808,0.66115
740.417,33.2118,-2.60002,-0.09435632,0.66057
741.117,33.23512,-2.60121,-0.09362716,0.65999
741.817,33.25851,-2.6012,-0.09603231,0.65941
742.517,33.28203,-2.6012,-0.09613426,0.65883
743.217,33.30536,-2.6012,-0.09504143,0.65825
743.917,33.3287,-2.6012,-0.09587252,0.65767
744.617,33.35207,-2.60121,-0.09809372,0.65708
745.317,33.37542,-2.60149,-0.10001,0.6565
746.017,33.3988,-2.60253,-0.09812284,0.65591
746.717,33.4223,-2.60252,-0.0977793,0.65533
747.417,33.44569,-2.60252,-0.0989983,0.65474
748.117,33.46907,-2.60252,-0.10051,0.65416
748.817,33.49252,-2.60252,-0.09852838,0.65357
749.517,33.51591,-2.60252,-0.09976053,0.65298
750.217,33.53938,-2.60252,-0.10241,0.65239
750.917,33.56265,-2.60252,-0.10316,0.6518
751.617,33.586,-2.6027,-0.10519,0.65121
752.317,33.60944,-2.60349,-0.10488,0.65062
753.017,33.6328,-2.60289,-0.10312,0.65003
753.717,33.65639,-2.6022,-0.10584,0.64944
754.417,33.67986,-2.60218,-0.10538,0.64885
755.117,33.7034,-2.60218,-0.10522,0.64826
755.817,33.7269,-2.60213,-0.10444,0.64767
756.517,33.75032,-2.60351,-0.10365,0.64707
757.217,33.77373,-2.6035,-0.10745,0.64648
757.917,33.79717,-2.60349,-0.10764,0.64588
758.617,33.8206,-2.60279,-0.10803,0.64529
759.317,33.84407,-2.6022,-0.10782,0.64469
760.017,33.86752,-2.60234,-0.11083,0.6441
760.717,33.89096,-2.60349,-0.10955,0.6435
761.417,33.91437,-2.60372,-0.11105,0.6429
762.117,33.93779,-2.60484,-0.1101,0.64231
762.817,33.9613,-2.60482,-0.11153,0.64171
763.517,33.98471,-2.60482,-0.11355,0.64111
764.217,34.00824,-2.60482,-0.11432,0.64051
764.917,34.03171,-2.60482,-0.11324,0.63991
765.617,34.05523,-2.60482,-0.11314,0.63931
766.317,34.07865,-2.60482,-0.11521,0.63871
767.017,34.1021,-2.60442,-0.1133,0.6381
767.717,34.12559,-2.60381,-0.11361,0.6375
768.417,34.149,-2.60384,-0.1133,0.6369
769.117,34.1725,-2.60524,-0.118,0.6363
769.817,34.19591,-2.60516,-0.11473,0.63569
770.517,34.21934,-2.60515,-0.11828,0.63509
771.217,34.24285,-2.60515,-0.11754,0.63448
771.917,34.26625,-2.60516,-0.12204,0.63388
772.617,34.28974,-2.60579,-0.11875,0.63327
773.317,34.31329,-2.60646,-0.12296,0.63266
774.017,34.33674,-2.60647,-0.12378,0.63206
774.717,34.36031,-2.60647,-0.12236,0.63145
775.417,34.38381,-2.60769,-0.12193,0.63084
776.117,34.40721,-2.60779,-0.12611,0.63023
776.817,34.4307,-2.60779,-0.12704,0.62962
777.517,34.4542,-2.60779,-0.12768,0.62901
778.217,34.47759,-2.60779,-0.12647,0.6284
778.917,34.50107,-2.60779,-0.12566,0.62779
779.617,34.52448,-2.60779,-0.13109,0.62718
780.317,34.54792,-2.60775,-0.13166,0.62657
781.017,34.57142,-2.60913,-0.13122,0.62595
781.717,34.59491,-2.6091,-0.1299,0.62534
782.417,34.61844,-2.6091,-0.13262,0.62473
783.117,34.64192,-2.60911,-0.13272,0.62411
783.817,34.66533,-2.60874,-0.13218,0.6235
784.517,34.6888,-2.60878,-0.13452,0.62288
785.217,34.71225,-2.60944,-0.13349,0.62226
785.917,34.73572,-2.60875,-0.13358,0.62165
786.617,34.75918,-2.60877,-0.13675,0.62103
787.317,34.7826,-2.60877,-0.13553,0.62041
788.017,34.806,-2.60877,-0.13906,0.6198
788.717,34.82948,-2.60877,-0.13545,0.61918
789.417,34.85298,-2.6094,-0.13697,0.61856
790.117,34.87655,-2.61006,-0.13805,0.61794
790.817,34.9001,-2.61008,-0.13858,0.61732
791.517,34.92366,-2.61008,-0.14529,0.6167
792.217,34.9471,-2.6101,-0.14524,0.61608
792.917,34.97051,-2.61111,-0.148,0.61546
793.617,34.9938,-2.6114,-0.14888,0.61483
793.717,34.9971,-2.6114,-0.14984,0.61474