File: 01_Data/LW_GypBoard_Painted_Paper/STA/N2/30K_min/Lw_Gypsum_Painted_Paper_STA_N2_30KData_222402_R3.csv
##Temp./Â°C,Time/min,Mass loss(subtr.2)/mg,DSC(subtr.2)/(mW/mg),Sensit./(uV/mW)
48.836,10.01,-0.02643,0.01167803,1.08886
49.536,10.55363,-0.02582656,0.0536719,1.08827
50.236,10.67735,-0.02663942,0.09070444,1.08768
50.936,10.76565,-0.02698583,0.12383,1.08709
51.636,10.83804,-0.02960769,0.1537,1.0865
52.336,10.901,-0.02702871,0.18112,1.08591
53.036,10.9579,-0.02757252,0.20713,1.08532
53.736,11.0091,-0.0278911,0.23058,1.08474
54.436,11.0566,-0.02756485,0.25163,1.08415
55.136,11.10132,-0.02658621,0.27272,1.08357
55.836,11.14362,-0.02732644,0.2943,1.08299
56.536,11.18395,-0.02794348,0.3137,1.0824
57.236,11.2226,-0.02922882,0.33148,1.08182
57.936,11.26,-0.02983034,0.34907,1.08124
58.636,11.2961,-0.02923754,0.36661,1.08066
59.336,11.33117,-0.0291356,0.38153,1.08008
60.036,11.3652,-0.02830846,0.39866,1.0795
60.736,11.39824,-0.02894108,0.41334,1.07893
61.436,11.43083,-0.02904892,0.42938,1.07835
62.136,11.4628,-0.02868579,0.44292,1.07778
62.836,11.49425,-0.02918307,0.45507,1.0772
63.536,11.5249,-0.02866396,0.46902,1.07663
64.236,11.55515,-0.02880184,0.48118,1.07605
64.936,11.58494,-0.02976198,0.49369,1.07548
65.636,11.61435,-0.02942009,0.50557,1.07491
66.336,11.64325,-0.02956843,0.51892,1.07434
67.036,11.67174,-0.02950211,0.52886,1.07377
67.736,11.69996,-0.02851313,0.53907,1.0732
68.436,11.72809,-0.0287789,0.55096,1.07263
69.136,11.7559,-0.02899686,0.56008,1.07206
69.836,11.78357,-0.02813357,0.57185,1.0715
70.536,11.81091,-0.02837541,0.5827,1.07093
71.236,11.83798,-0.02964122,0.59295,1.07037
71.936,11.8649,-0.029791,0.60164,1.0698
72.636,11.89167,-0.02980832,0.61116,1.06924
73.336,11.91819,-0.03010869,0.61949,1.06868
74.036,11.94473,-0.03053251,0.6313,1.06812
74.736,11.9709,-0.03040981,0.63831,1.06756
75.436,11.9971,-0.03053605,0.64576,1.067
76.136,12.02326,-0.02975058,0.65446,1.06644
76.836,12.04919,-0.0299497,0.664,1.06588
77.536,12.07502,-0.03051095,0.67098,1.06532
78.236,12.10062,-0.03174045,0.67969,1.06477
78.936,12.12608,-0.03220262,0.68761,1.06421
79.636,12.15155,-0.03162549,0.69548,1.06366
80.336,12.17695,-0.03143456,0.7031,1.0631
81.036,12.20227,-0.03143133,0.708,1.06255
81.736,12.22734,-0.03184512,0.71798,1.062
82.436,12.25233,-0.03185031,0.72479,1.06145
83.136,12.27732,-0.03194689,0.7335,1.0609
83.836,12.30222,-0.03179301,0.73861,1.06035
84.536,12.32715,-0.03284593,0.74593,1.0598
85.236,12.3518,-0.03329771,0.75567,1.05925
85.936,12.3764,-0.03277652,0.76093,1.0587
86.636,12.40099,-0.0336521,0.76941,1.05816
87.336,12.4255,-0.03384602,0.77517,1.05761
88.036,12.44995,-0.0336701,0.78116,1.05707
88.736,12.4743,-0.03366916,0.78884,1.05652
89.436,12.4986,-0.03387115,0.7957,1.05598
90.136,12.52283,-0.03384073,0.80219,1.05544
90.836,12.54702,-0.03526127,0.81059,1.0549
91.536,12.5713,-0.03693158,0.81546,1.05436
92.236,12.5954,-0.03647381,0.82165,1.05382
92.936,12.61951,-0.0368528,0.82819,1.05328
93.636,12.64354,-0.03683943,0.83278,1.05274
94.336,12.6676,-0.03638962,0.83838,1.0522
95.036,12.69168,-0.03554468,0.84373,1.05167
95.736,12.7156,-0.03583736,0.85071,1.05113
96.436,12.7395,-0.03685486,0.85708,1.0506
97.136,12.76329,-0.03684895,0.86038,1.05006
97.836,12.78708,-0.03684891,0.86737,1.04953
98.536,12.8109,-0.03686003,0.87231,1.049
99.236,12.83473,-0.03687234,0.87578,1.04847
99.936,12.85852,-0.03738793,0.87888,1.04794
100.636,12.88226,-0.03816088,0.88529,1.04741
101.336,12.90597,-0.03826207,0.88873,1.04688
102.036,12.92961,-0.03684066,0.89127,1.04635
102.736,12.9533,-0.03822082,0.89561,1.04582
103.436,12.97706,-0.0381717,0.89803,1.0453
104.136,13.00071,-0.03817342,0.90406,1.04477
104.836,13.02435,-0.03958567,0.90488,1.04425
105.536,13.0479,-0.03949253,0.90916,1.04372
106.236,13.0715,-0.0394974,0.91045,1.0432
106.936,13.09517,-0.04088926,0.91377,1.04268
107.636,13.1188,-0.04080308,0.91526,1.04216
108.336,13.14246,-0.03972259,0.9174,1.04164
109.036,13.16598,-0.04055245,0.92089,1.04112
109.736,13.1896,-0.04057966,0.92285,1.0406
110.436,13.21315,-0.0406055,0.92252,1.04008
111.136,13.2367,-0.04162693,0.92392,1.03956
111.836,13.26029,-0.04320751,0.92672,1.03904
112.536,13.28385,-0.04320889,0.92824,1.03853
113.236,13.3074,-0.04320993,0.92954,1.03801
113.936,13.3309,-0.0432103,0.93039,1.0375
114.636,13.3544,-0.04323209,0.93037,1.03699
115.336,13.37783,-0.04399012,0.9332,1.03647
116.036,13.40125,-0.04452875,0.93481,1.03596
116.736,13.42465,-0.04452256,0.93403,1.03545
117.436,13.448,-0.04443733,0.93631,1.03494
118.136,13.47135,-0.0451162,0.93702,1.03443
118.836,13.49474,-0.04486474,0.93621,1.03392
119.536,13.5181,-0.04486013,0.93593,1.03342
120.236,13.54135,-0.04486,0.93669,1.03291
120.936,13.56461,-0.04486006,0.93885,1.0324
121.636,13.58782,-0.04486083,0.93898,1.0319
122.336,13.61101,-0.0448507,0.94042,1.03139
123.036,13.6342,-0.04584525,0.94261,1.03089
123.736,13.6574,-0.04616265,0.94376,1.03039
124.436,13.6806,-0.04617027,0.94399,1.02988
125.136,13.70375,-0.04618898,0.94645,1.02938
125.836,13.7269,-0.04684313,0.94779,1.02888
126.536,13.75,-0.04880856,0.94665,1.02838
127.236,13.773,-0.04881657,0.9464,1.02788
127.936,13.79604,-0.04881089,0.94704,1.02738
128.636,13.81899,-0.04881347,0.94868,1.02689
129.336,13.84201,-0.04741196,0.94942,1.02639
130.036,13.865,-0.04750751,0.94876,1.02589
130.736,13.88783,-0.04827064,0.94844,1.0254
131.436,13.9107,-0.04880928,0.94769,1.0249
132.136,13.93356,-0.04881035,0.94784,1.02441
132.836,13.95641,-0.04881948,0.94739,1.02392
133.536,13.9793,-0.0491227,0.94768,1.02343
134.236,14.00216,-0.04915006,0.94895,1.02294
134.936,14.025,-0.04946677,0.94701,1.02244
135.636,14.04785,-0.04978208,0.94675,1.02196
136.336,14.07059,-0.04978992,0.94496,1.02147
137.036,14.0933,-0.04977266,0.94483,1.02098
137.736,14.11599,-0.05035149,0.94623,1.02049
138.436,14.1386,-0.05044822,0.9467,1.02
139.136,14.16131,-0.05045009,0.94877,1.01952
139.836,14.18401,-0.05045021,0.94878,1.01903
140.536,14.2066,-0.05045349,0.94856,1.01855
141.236,14.2292,-0.05046972,0.94916,1.01807
141.936,14.25177,-0.04897082,0.9502,1.01758
142.636,14.2743,-0.04938701,0.94955,1.0171
143.336,14.29685,-0.04930133,0.95159,1.01662
144.036,14.3193,-0.05034282,0.95056,1.01614
144.736,14.34181,-0.05034832,0.95465,1.01566
145.436,14.36423,-0.05111684,0.9548,1.01518
146.136,14.3866,-0.05164248,0.95743,1.0147
146.836,14.40906,-0.05165969,0.9576,1.01423
147.536,14.4315,-0.05166002,0.95895,1.01375
148.236,14.45382,-0.05166001,0.96074,1.01327
148.936,14.4762,-0.05166007,0.96374,1.0128
149.636,14.49859,-0.05166064,0.96665,1.01232
150.336,14.52094,-0.05165116,0.96599,1.01185
151.036,14.54331,-0.05258724,0.96905,1.01138
151.736,14.56564,-0.05295822,0.96976,1.0109
152.436,14.58785,-0.05296901,0.97268,1.01043
153.136,14.6101,-0.05297069,0.97421,1.00996
153.836,14.63236,-0.05260867,0.97646,1.00949
154.536,14.65456,-0.05263752,0.9759,1.00902
155.236,14.6768,-0.05263988,0.97867,1.00855
155.936,14.699,-0.05263999,0.98134,1.00809
156.636,14.7213,-0.05264007,0.98421,1.00762
157.336,14.74355,-0.05264308,0.98572,1.00715
158.036,14.76578,-0.0527005,0.9896,1.00669
158.736,14.788,-0.05168731,0.98913,1.00622
159.436,14.8101,-0.05165876,0.99171,1.00576
160.136,14.83225,-0.05250614,0.99608,1.0053
160.836,14.8544,-0.05296322,0.99739,1.00483
161.536,14.87646,-0.05292822,0.99983,1.00437
162.236,14.89851,-0.05423292,1.00092,1.00391
162.936,14.9206,-0.05429126,1.00448,1.00345
163.636,14.9427,-0.05429025,1.00673,1.00299
164.336,14.9648,-0.05429004,1.00868,1.00253
165.036,14.987,-0.05429036,1.01035,1.00207
165.736,15.009,-0.0542926,1.01503,1.00161
166.436,15.0311,-0.05423609,1.01477,1.00116
167.136,15.05315,-0.05429592,1.01974,1.0007
167.836,15.07513,-0.05492735,1.01902,1.00025
168.536,15.09715,-0.05494899,1.02405,0.99979
169.236,15.1191,-0.05494998,1.02715,0.99934
169.936,15.141,-0.05495,1.02952,0.99888
170.636,15.163,-0.05494999,1.031,0.99843
171.336,15.18495,-0.05494985,1.03421,0.99798
172.036,15.2069,-0.05494783,1.03628,0.99753
172.736,15.2289,-0.05493324,1.03839,0.99708
173.436,15.25085,-0.05566158,1.04078,0.99663
174.136,15.27276,-0.05626275,1.04459,0.99618
174.836,15.2946,-0.05653282,1.04574,0.99573
175.536,15.31649,-0.05726179,1.04843,0.99528
176.236,15.3383,-0.0572504,1.05115,0.99484
176.936,15.36014,-0.05725,1.05171,0.99439
177.636,15.3821,-0.05725,1.0548,0.99394
178.336,15.40391,-0.05725,1.05598,0.9935
179.036,15.42585,-0.05725,1.06016,0.99305
179.736,15.44769,-0.05725,1.06316,0.99261
180.436,15.4695,-0.05725,1.0659,0.99217
181.136,15.49133,-0.05725,1.06707,0.99172
181.836,15.51305,-0.05724989,1.06901,0.99128
182.536,15.53478,-0.0572477,1.07219,0.99084
183.236,15.5565,-0.05721485,1.07498,0.9904
183.936,15.5782,-0.05759226,1.07897,0.98996
184.636,15.5999,-0.05758002,1.08136,0.98952
185.336,15.6216,-0.05758405,1.08275,0.98908
186.036,15.6432,-0.05772241,1.08643,0.98865
186.736,15.66489,-0.05979495,1.08778,0.98821
187.436,15.68651,-0.06020448,1.08967,0.98777
188.136,15.70814,-0.06021939,1.09108,0.98734
188.836,15.7298,-0.06021993,1.09554,0.9869
189.536,15.75136,-0.06022655,1.0964,0.98647
190.236,15.773,-0.06046251,1.09998,0.98604
190.936,15.7946,-0.06153745,1.10368,0.9856
191.636,15.81621,-0.06153743,1.10549,0.98517
192.336,15.8378,-0.06037806,1.1076,0.98474
193.036,15.85934,-0.06021341,1.11106,0.98431
193.736,15.88091,-0.06019931,1.11198,0.98388
194.436,15.9025,-0.05917508,1.11339,0.98345
195.136,15.924,-0.05922561,1.11832,0.98302
195.836,15.94549,-0.0592296,1.12014,0.98259
196.536,15.96703,-0.0592283,1.12111,0.98216
197.236,15.98851,-0.05921373,1.12377,0.98173
197.936,16.01006,-0.06022573,1.12694,0.98131
198.636,16.03162,-0.0611831,1.12942,0.98088
199.336,16.0531,-0.06119833,1.13246,0.98046
200.036,16.07457,-0.06119994,1.13401,0.98003
200.736,16.096,-0.06120087,1.13435,0.97961
201.436,16.11748,-0.0612111,1.13696,0.97918
202.136,16.13895,-0.06305804,1.14127,0.97876
202.836,16.16038,-0.06318255,1.1436,0.97834
203.536,16.1818,-0.06318069,1.14692,0.97792
204.236,16.20327,-0.06318083,1.14788,0.9775
204.936,16.22471,-0.06319479,1.15026,0.97707
205.636,16.24618,-0.06356329,1.15119,0.97666
206.336,16.26763,-0.06414734,1.15398,0.97624
207.036,16.28906,-0.06449554,1.15519,0.97582
207.736,16.31051,-0.0644943,1.15763,0.9754
208.436,16.3319,-0.0636727,1.15976,0.97498
209.136,16.3533,-0.06317454,1.16166,0.97456
209.836,16.3747,-0.0639034,1.16331,0.97415
210.536,16.39602,-0.0657481,1.16528,0.97373
211.236,16.4174,-0.06580817,1.16737,0.97332
211.936,16.43874,-0.06581115,1.16907,0.9729
212.636,16.46015,-0.06580742,1.17048,0.97249
213.336,16.48154,-0.06687176,1.17418,0.97208
214.036,16.50295,-0.06678218,1.17746,0.97166
214.736,16.52435,-0.06794875,1.17988,0.97125
215.436,16.54569,-0.06843136,1.18097,0.97084
216.136,16.56707,-0.06857885,1.18281,0.97043
216.836,16.58843,-0.06925918,1.18589,0.97002
217.536,16.60975,-0.06843818,1.18304,0.96961
218.236,16.63106,-0.0684391,1.18897,0.9692
218.936,16.65229,-0.06899301,1.18928,0.96879
219.636,16.6736,-0.06973552,1.19188,0.96838
220.336,16.6949,-0.06978223,1.1941,0.96798
221.036,16.71625,-0.07036468,1.19408,0.96757
221.736,16.73763,-0.07108419,1.19669,0.96716
222.436,16.75885,-0.07108765,1.1986,0.96676
223.136,16.7802,-0.07174403,1.20166,0.96635
223.836,16.80143,-0.07237941,1.20369,0.96595
224.536,16.8227,-0.07235155,1.20481,0.96554
225.236,16.84405,-0.07490309,1.20586,0.96514
225.936,16.8654,-0.07470625,1.20847,0.96474
226.636,16.88676,-0.07460489,1.20646,0.96433
227.336,16.90812,-0.0759996,1.20948,0.96393
228.036,16.92938,-0.07600966,1.21389,0.96353
228.736,16.95059,-0.07601284,1.21394,0.96313
229.436,16.97179,-0.0774023,1.21586,0.96273
230.136,16.99307,-0.07733671,1.21805,0.96233
230.836,17.01439,-0.0773305,1.22078,0.96193
231.536,17.0357,-0.07733025,1.22161,0.96153
232.236,17.057,-0.07733291,1.21955,0.96113
232.936,17.07825,-0.07754684,1.22561,0.96074
233.636,17.0994,-0.07926683,1.22584,0.96034
234.336,17.12066,-0.08067016,1.22581,0.95994
235.036,17.14187,-0.08127332,1.22852,0.95955
235.736,17.1631,-0.08141905,1.22929,0.95915
236.436,17.18432,-0.08265216,1.2329,0.95875
237.136,17.20559,-0.08261664,1.23314,0.95836
237.836,17.22683,-0.08299424,1.23547,0.95797
238.536,17.24811,-0.0839292,1.23486,0.95757
239.236,17.26935,-0.083909,1.23644,0.95718
239.936,17.29062,-0.08537718,1.23771,0.95679
240.636,17.31186,-0.08541628,1.23867,0.95639
241.336,17.33306,-0.08682976,1.24027,0.956
242.036,17.35437,-0.08697364,1.24186,0.95561
242.736,17.37557,-0.08824423,1.24004,0.95522
243.436,17.39676,-0.08939257,1.24133,0.95483
244.136,17.41793,-0.0896406,1.24109,0.95444
244.836,17.43908,-0.09113806,1.24123,0.95405
245.536,17.46022,-0.09150023,1.24488,0.95366
246.236,17.4814,-0.09254783,1.24437,0.95328
246.936,17.50262,-0.09345115,1.24489,0.95289
247.636,17.52384,-0.09387065,1.24392,0.9525
248.336,17.54506,-0.0947504,1.24341,0.95211
249.036,17.56625,-0.0951428,1.24717,0.95173
249.736,17.58744,-0.09653009,1.24719,0.95134
250.436,17.60856,-0.09757287,1.24696,0.95096
251.136,17.62977,-0.09847667,1.25031,0.95057
251.836,17.6509,-0.09980536,1.25001,0.95019
252.536,17.67205,-0.10145,1.25221,0.9498
253.236,17.69324,-0.10151,1.2487,0.94942
253.936,17.71435,-0.10273,1.25188,0.94904
254.636,17.73554,-0.10397,1.25467,0.94866
255.336,17.75665,-0.10527,1.25479,0.94827
256.036,17.7778,-0.1069,1.25419,0.94789
256.736,17.7989,-0.1074,1.25593,0.94751
257.436,17.8201,-0.10815,1.25791,0.94713
258.136,17.84129,-0.10996,1.25981,0.94675
258.836,17.86251,-0.11121,1.26018,0.94637
259.536,17.88349,-0.11224,1.25813,0.94599
260.236,17.9046,-0.11325,1.26007,0.94561
260.936,17.92565,-0.11458,1.26374,0.94523
261.636,17.94675,-0.11611,1.26352,0.94485
262.336,17.96791,-0.11769,1.26528,0.94448
263.036,17.98912,-0.11857,1.2688,0.9441
263.736,18.01034,-0.11968,1.26906,0.94372
264.436,18.03145,-0.12121,1.26666,0.94335
265.136,18.0526,-0.12281,1.27038,0.94297
265.836,18.0737,-0.12396,1.27167,0.94259
266.536,18.0948,-0.12495,1.27353,0.94222
267.236,18.11598,-0.1261,1.27465,0.94184
267.936,18.1371,-0.12759,1.27496,0.94147
268.636,18.15821,-0.12901,1.2768,0.9411
269.336,18.17933,-0.13069,1.28021,0.94072
270.036,18.20039,-0.1321,1.28042,0.94035
270.736,18.2215,-0.13357,1.28368,0.93998
271.436,18.24266,-0.13529,1.28446,0.9396
272.136,18.26381,-0.13677,1.28503,0.93923
272.836,18.28499,-0.13823,1.29006,0.93886
273.536,18.3062,-0.13963,1.2895,0.93849
274.236,18.32733,-0.14145,1.29057,0.93812
274.936,18.3485,-0.14335,1.2942,0.93775
275.636,18.36948,-0.1454,1.2942,0.93738
276.336,18.3906,-0.1468,1.29633,0.93701
277.036,18.41173,-0.1487,1.2991,0.93664
277.736,18.43286,-0.15076,1.30158,0.93627
278.436,18.45419,-0.15305,1.30139,0.9359
279.136,18.4753,-0.15464,1.30377,0.93553
279.836,18.49646,-0.15631,1.30548,0.93517
280.536,18.51758,-0.15824,1.30909,0.9348
281.236,18.53856,-0.16012,1.31059,0.93443
281.936,18.5597,-0.16241,1.31342,0.93406
282.636,18.58079,-0.16461,1.31405,0.9337
283.336,18.60192,-0.16674,1.3161,0.93333
284.036,18.62312,-0.16829,1.32064,0.93297
284.736,18.64435,-0.1697,1.3233,0.9326
285.436,18.66556,-0.17097,1.32511,0.93224
286.136,18.6867,-0.17318,1.32866,0.93187
286.836,18.7078,-0.17612,1.33111,0.93151
287.536,18.7289,-0.17919,1.33452,0.93114
288.236,18.75005,-0.18187,1.33654,0.93078
288.936,18.7712,-0.18464,1.33869,0.93042
289.636,18.79241,-0.18725,1.34158,0.93005
290.336,18.8136,-0.18977,1.34574,0.92969
291.036,18.8348,-0.19205,1.34931,0.92933
291.736,18.85602,-0.19525,1.35027,0.92896
292.436,18.87715,-0.19792,1.35504,0.9286
293.136,18.89837,-0.20089,1.35959,0.92824
293.836,18.91955,-0.20419,1.36341,0.92788
294.536,18.9407,-0.20773,1.36735,0.92752
295.236,18.96193,-0.21139,1.36932,0.92716
295.936,18.98313,-0.21422,1.37529,0.9268
296.636,19.00432,-0.21716,1.37878,0.92644
297.336,19.02551,-0.21987,1.38169,0.92608
298.036,19.04666,-0.2234,1.38605,0.92572
298.736,19.0677,-0.22726,1.39303,0.92536
299.436,19.0889,-0.23053,1.39676,0.925
300.136,19.11006,-0.23385,1.39979,0.92464
300.836,19.13119,-0.23706,1.40759,0.92429
301.536,19.15255,-0.24057,1.40788,0.92393
302.236,19.17372,-0.24405,1.41884,0.92357
302.936,19.19491,-0.24822,1.42066,0.92321
303.636,19.21613,-0.2527,1.42766,0.92286
304.336,19.23734,-0.25644,1.42852,0.9225
305.036,19.2586,-0.26052,1.43507,0.92214
305.736,19.2798,-0.26428,1.44188,0.92179
306.436,19.3009,-0.26866,1.44936,0.92143
307.136,19.3221,-0.27322,1.45372,0.92108
307.836,19.34325,-0.27752,1.4602,0.92072
308.536,19.36448,-0.28252,1.46481,0.92037
309.236,19.3857,-0.28742,1.47081,0.92001
309.936,19.40692,-0.29289,1.47529,0.91966
310.636,19.42811,-0.29715,1.48212,0.9193
311.336,19.44932,-0.30189,1.49,0.91895
312.036,19.47055,-0.30676,1.49828,0.91859
312.736,19.4918,-0.3117,1.50549,0.91824
313.436,19.5131,-0.31676,1.50992,0.91789
314.136,19.53416,-0.32272,1.51502,0.91753
314.836,19.5553,-0.32934,1.52242,0.91718
315.536,19.57643,-0.33456,1.53091,0.91683
316.236,19.59749,-0.34112,1.53792,0.91647
316.936,19.6187,-0.34634,1.5436,0.91612
317.636,19.64004,-0.35286,1.55094,0.91577
318.336,19.6614,-0.35795,1.55947,0.91542
319.036,19.68273,-0.3644,1.56703,0.91507
319.736,19.70415,-0.36987,1.57385,0.91472
320.436,19.72547,-0.37643,1.5814,0.91436
321.136,19.74677,-0.38254,1.58782,0.91401
321.836,19.76802,-0.38955,1.59432,0.91366
322.536,19.78929,-0.39592,1.60306,0.91331
323.236,19.81056,-0.40246,1.60971,0.91296
323.936,19.8318,-0.40899,1.61835,0.91261
324.636,19.8531,-0.41599,1.62431,0.91226
325.336,19.87434,-0.42372,1.63317,0.91191
326.036,19.89565,-0.43059,1.63942,0.91156
326.736,19.91694,-0.43875,1.64771,0.91121
327.436,19.93818,-0.44577,1.65506,0.91086
328.136,19.95944,-0.45401,1.66157,0.91051
328.836,19.9806,-0.46048,1.66956,0.91017
329.536,20.00195,-0.47065,1.68026,0.90982
330.236,20.02327,-0.47792,1.68482,0.90947
330.936,20.0446,-0.48656,1.69244,0.90912
331.636,20.06598,-0.49388,1.70206,0.90877
332.336,20.08735,-0.50304,1.71038,0.90842
333.036,20.1087,-0.51151,1.71604,0.90808
333.736,20.1301,-0.52005,1.72241,0.90773
334.436,20.15146,-0.52814,1.73543,0.90738
335.136,20.17284,-0.53582,1.7414,0.90703
335.836,20.19425,-0.54519,1.74779,0.90669
336.536,20.21556,-0.55419,1.75777,0.90634
337.236,20.23695,-0.56441,1.76465,0.90599
337.936,20.2583,-0.57255,1.77181,0.90565
338.636,20.27972,-0.58252,1.78303,0.9053
339.336,20.3012,-0.5912,1.78889,0.90495
340.036,20.32264,-0.6039,1.79998,0.90461
340.736,20.34405,-0.6128,1.81158,0.90426
341.436,20.36542,-0.62286,1.81959,0.90392
342.136,20.3868,-0.63159,1.82811,0.90357
342.836,20.4082,-0.64247,1.83871,0.90322
343.536,20.42959,-0.65304,1.85359,0.90288
344.236,20.451,-0.66378,1.86204,0.90253
344.936,20.47242,-0.67425,1.8746,0.90219
345.636,20.49384,-0.68355,1.88793,0.90184
346.336,20.51527,-0.69437,1.89861,0.9015
347.036,20.53675,-0.70512,1.91037,0.90115
347.736,20.5582,-0.7186,1.9258,0.90081
348.436,20.57967,-0.72807,1.93759,0.90046
349.136,20.60109,-0.7386,1.95325,0.90012
349.836,20.62254,-0.74916,1.96853,0.89977
350.536,20.64397,-0.76447,1.98415,0.89943
351.236,20.6654,-0.77672,2.0019,0.89908
351.936,20.68685,-0.79084,2.01835,0.89874
352.636,20.70834,-0.80327,2.0364,0.89839
353.336,20.72985,-0.81686,2.057,0.89805
354.036,20.7514,-0.83053,2.0772,0.89771
354.736,20.77299,-0.84378,2.09729,0.89736
355.436,20.7945,-0.85826,2.1167,0.89702
356.136,20.81607,-0.87145,2.13922,0.89667
356.836,20.83759,-0.88731,2.16237,0.89633
357.536,20.85913,-0.90038,2.18561,0.89599
358.236,20.88066,-0.91711,2.20755,0.89564
358.936,20.9022,-0.93097,2.22937,0.8953
359.636,20.9237,-0.94862,2.25502,0.89496
360.336,20.9452,-0.96316,2.27921,0.89461
361.036,20.96675,-0.98015,2.30675,0.89427
361.736,20.98832,-0.9956,2.33034,0.89393
362.436,21.00994,-1.01247,2.35803,0.89358
363.136,21.03155,-1.03007,2.38445,0.89324
363.836,21.05321,-1.04773,2.40982,0.8929
364.536,21.0748,-1.0668,2.43642,0.89255
365.236,21.09648,-1.0851,2.46178,0.89221
365.936,21.11808,-1.10643,2.48631,0.89187
366.636,21.1397,-1.12345,2.5123,0.89152
367.336,21.1613,-1.14413,2.53651,0.89118
368.036,21.18284,-1.16089,2.56104,0.89084
368.736,21.20447,-1.18172,2.58353,0.89049
369.436,21.2261,-1.19994,2.60421,0.89015
370.136,21.2477,-1.22123,2.62273,0.88981
370.836,21.2694,-1.24147,2.64118,0.88947
371.536,21.29097,-1.26297,2.65595,0.88912
372.236,21.31258,-1.28447,2.67094,0.88878
372.936,21.334,-1.30364,2.68272,0.88844
373.636,21.35568,-1.32444,2.69375,0.88809
374.336,21.37738,-1.34266,2.69967,0.88775
375.036,21.39904,-1.36698,2.70438,0.88741
375.736,21.42097,-1.39028,2.70498,0.88707
376.436,21.4427,-1.41605,2.70141,0.88672
377.136,21.4644,-1.43524,2.69522,0.88638
377.836,21.4861,-1.45792,2.6839,0.88604
378.536,21.5077,-1.47802,2.66724,0.8857
379.236,21.52936,-1.49957,2.65085,0.88535
379.936,21.5511,-1.52019,2.62772,0.88501
380.636,21.57281,-1.54057,2.60173,0.88467
381.336,21.5945,-1.56214,2.57368,0.88432
382.036,21.6162,-1.58089,2.539,0.88398
382.736,21.6378,-1.60269,2.49878,0.88364
383.436,21.6595,-1.61994,2.4596,0.8833
384.136,21.68114,-1.64053,2.41395,0.88295
384.836,21.7028,-1.65669,2.36296,0.88261
385.536,21.72445,-1.676,2.30871,0.88227
386.236,21.74615,-1.69222,2.25458,0.88192
386.936,21.76786,-1.70993,2.19248,0.88158
387.636,21.7896,-1.72514,2.12924,0.88124
388.336,21.8113,-1.74015,2.06349,0.88089
389.036,21.83292,-1.75513,1.99821,0.88055
389.736,21.85456,-1.76847,1.93025,0.88021
390.436,21.87619,-1.78137,1.8608,0.87986
391.136,21.89773,-1.791,1.78823,0.87952
391.836,21.91934,-1.8049,1.72215,0.87918
392.536,21.94097,-1.8169,1.65377,0.87883
393.236,21.96261,-1.83044,1.5856,0.87849
393.936,21.98434,-1.83896,1.52264,0.87815
394.636,22.00603,-1.84847,1.4585,0.8778
395.336,22.02769,-1.85631,1.40335,0.87746
396.036,22.04932,-1.86448,1.34843,0.87711
396.736,22.07094,-1.87186,1.29904,0.87677
397.436,22.0926,-1.87911,1.25387,0.87643
398.136,22.11425,-1.88664,1.21016,0.87608
398.836,22.1359,-1.89242,1.17584,0.87574
399.536,22.15757,-1.89851,1.14618,0.87539
400.236,22.1792,-1.9049,1.11929,0.87505
400.936,22.2008,-1.91126,1.09709,0.87471
401.636,22.22247,-1.91609,1.07642,0.87436
402.336,22.24418,-1.92019,1.06351,0.87402
403.036,22.26585,-1.92465,1.05312,0.87367
403.736,22.2876,-1.92973,1.04398,0.87333
404.436,22.30931,-1.93456,1.03388,0.87298
405.136,22.331,-1.94024,1.03374,0.87264
405.836,22.35277,-1.94601,1.02681,0.87229
406.536,22.37451,-1.95075,1.02704,0.87195
407.236,22.39631,-1.95607,1.02791,0.8716
407.936,22.4181,-1.96134,1.03195,0.87126
408.636,22.43992,-1.96808,1.03109,0.87091
409.336,22.46171,-1.97302,1.03564,0.87056
410.036,22.4835,-1.9793,1.0407,0.87022
410.736,22.50531,-1.98463,1.04475,0.86987
411.436,22.52711,-1.99068,1.04917,0.86953
412.136,22.5489,-1.99615,1.05439,0.86918
412.836,22.5707,-2.00271,1.06117,0.86883
413.536,22.59248,-2.00909,1.06565,0.86849
414.236,22.6143,-2.01474,1.07394,0.86814
414.936,22.63616,-2.02174,1.07766,0.86779
415.636,22.65803,-2.02832,1.08229,0.86745
416.336,22.6799,-2.03639,1.08431,0.8671
417.036,22.7017,-2.04294,1.09422,0.86675
417.736,22.7236,-2.05116,1.09515,0.86641
418.436,22.74541,-2.0583,1.09982,0.86606
419.136,22.76729,-2.06633,1.10314,0.86571
419.836,22.78922,-2.0733,1.10252,0.86536
420.536,22.811,-2.08105,1.10332,0.86501
421.236,22.8328,-2.08943,1.10295,0.86467
421.936,22.85471,-2.09685,1.09929,0.86432
422.636,22.87661,-2.10582,1.09544,0.86397
423.336,22.89854,-2.11344,1.08834,0.86362
424.036,22.92044,-2.12259,1.08461,0.86327
424.736,22.9423,-2.13,1.0768,0.86292
425.436,22.96419,-2.13922,1.06779,0.86257
426.136,22.98604,-2.14675,1.054,0.86222
426.836,23.00791,-2.15558,1.0421,0.86188
427.536,23.0298,-2.16379,1.02771,0.86153
428.236,23.05174,-2.17223,1.0145,0.86118
428.936,23.07367,-2.18084,0.99687,0.86083
429.636,23.09565,-2.18843,0.98119,0.86047
430.336,23.11763,-2.19755,0.95923,0.86012
431.036,23.1396,-2.20466,0.93612,0.85977
431.736,23.16156,-2.2132,0.91341,0.85942
432.436,23.1834,-2.21961,0.88775,0.85907
433.136,23.20535,-2.22737,0.86047,0.85872
433.836,23.22724,-2.23457,0.83762,0.85837
434.536,23.24915,-2.24199,0.80914,0.85802
435.236,23.27117,-2.24864,0.77964,0.85767
435.936,23.29315,-2.25453,0.75335,0.85731
436.636,23.31508,-2.2605,0.72337,0.85696
437.336,23.33705,-2.26505,0.69588,0.85661
438.036,23.35896,-2.27029,0.66858,0.85626
438.736,23.3809,-2.27444,0.6427,0.8559
439.436,23.40286,-2.27833,0.61682,0.85555
440.136,23.42481,-2.28215,0.59522,0.8552
440.836,23.44679,-2.28598,0.57377,0.85484
441.536,23.46881,-2.28948,0.55642,0.85449
442.236,23.49074,-2.29252,0.53878,0.85413
442.936,23.51274,-2.29553,0.52203,0.85378
443.636,23.53471,-2.29852,0.50675,0.85342
444.336,23.5567,-2.30084,0.49047,0.85307
445.036,23.5787,-2.30297,0.48101,0.85271
445.736,23.6007,-2.30536,0.47198,0.85236
446.436,23.62274,-2.30803,0.46079,0.852
447.136,23.64474,-2.31029,0.45047,0.85165
447.836,23.66677,-2.31247,0.44184,0.85129
448.536,23.6888,-2.31452,0.43625,0.85094
449.236,23.7108,-2.31651,0.43038,0.85058
449.936,23.73289,-2.31791,0.42542,0.85022
450.636,23.75498,-2.31961,0.41844,0.84986
451.336,23.7771,-2.32187,0.41748,0.84951
452.036,23.79917,-2.32369,0.413,0.84915
452.736,23.82116,-2.32579,0.40806,0.84879
453.436,23.8432,-2.32697,0.40743,0.84843
454.136,23.86536,-2.32788,0.40115,0.84808
454.836,23.8874,-2.32953,0.39849,0.84772
455.536,23.9097,-2.33126,0.39678,0.84736
456.236,23.93188,-2.33276,0.39667,0.847
456.936,23.95401,-2.33483,0.39592,0.84664
457.636,23.9761,-2.33627,0.39319,0.84628
458.336,23.9983,-2.33716,0.39315,0.84592
459.036,24.02034,-2.33875,0.38945,0.84556
459.736,24.04244,-2.33896,0.39233,0.8452
460.436,24.06462,-2.34039,0.39124,0.84484
461.136,24.08667,-2.34217,0.39155,0.84447
461.836,24.1088,-2.34383,0.39106,0.84411
462.536,24.13096,-2.3453,0.39097,0.84375
463.236,24.1531,-2.34689,0.39042,0.84339
463.936,24.17534,-2.3486,0.39309,0.84303
464.636,24.1975,-2.34909,0.39642,0.84266
465.336,24.21971,-2.35045,0.39643,0.8423
466.036,24.24191,-2.35133,0.39433,0.84194
466.736,24.26407,-2.35237,0.39501,0.84157
467.436,24.2863,-2.35343,0.39332,0.84121
468.136,24.30837,-2.35526,0.39605,0.84084
468.836,24.33055,-2.35708,0.39796,0.84048
469.536,24.35278,-2.35766,0.39721,0.84011
470.236,24.375,-2.35834,0.39608,0.83975
470.936,24.3972,-2.35962,0.39781,0.83938
471.636,24.41939,-2.36017,0.39751,0.83902
472.336,24.4416,-2.36157,0.39748,0.83865
473.036,24.4638,-2.36305,0.39931,0.83828
473.736,24.4861,-2.36356,0.39736,0.83792
474.436,24.50829,-2.36428,0.39647,0.83755
475.136,24.53054,-2.36466,0.39793,0.83718
475.836,24.55269,-2.36552,0.39918,0.83681
476.536,24.5749,-2.36704,0.39429,0.83645
477.236,24.59714,-2.36753,0.39569,0.83608
477.936,24.61937,-2.36866,0.39236,0.83571
478.636,24.64167,-2.37026,0.39486,0.83534
479.336,24.66395,-2.37103,0.39197,0.83497
480.036,24.68627,-2.3718,0.39332,0.8346
480.736,24.70854,-2.37332,0.3915,0.83423
481.436,24.73081,-2.37402,0.39297,0.83386
482.136,24.75309,-2.37472,0.39171,0.83349
482.836,24.77543,-2.37715,0.3938,0.83311
483.536,24.79779,-2.37761,0.38918,0.83274
484.236,24.82007,-2.37909,0.3886,0.83237
484.936,24.8424,-2.37911,0.39008,0.832
485.636,24.86467,-2.38048,0.39091,0.83162
486.336,24.88697,-2.37999,0.38959,0.83125
487.036,24.9093,-2.37905,0.38844,0.83088
487.736,24.93165,-2.38052,0.38649,0.8305
488.436,24.95401,-2.38158,0.38855,0.83013
489.136,24.9763,-2.38198,0.38654,0.82975
489.836,24.9986,-2.38326,0.38727,0.82938
490.536,25.021,-2.38468,0.38552,0.829
491.236,25.04325,-2.38538,0.38429,0.82863
491.936,25.06556,-2.38636,0.38321,0.82825
492.636,25.088,-2.38763,0.38397,0.82787
493.336,25.11037,-2.38908,0.38322,0.8275
494.036,25.13279,-2.38902,0.38043,0.82712
494.736,25.15522,-2.39032,0.38128,0.82674
495.436,25.17759,-2.39038,0.37764,0.82636
496.136,25.19996,-2.39071,0.37601,0.82598
496.836,25.2223,-2.39168,0.37421,0.8256
497.536,25.24468,-2.39171,0.37256,0.82522
498.236,25.26703,-2.3921,0.37307,0.82484
498.936,25.28944,-2.39314,0.37196,0.82446
499.636,25.31185,-2.39362,0.3701,0.82408
500.336,25.33417,-2.39443,0.36923,0.8237
501.036,25.35653,-2.39506,0.3705,0.82332
501.736,25.37894,-2.39589,0.36861,0.82294
502.436,25.40138,-2.39696,0.36738,0.82256
503.136,25.42388,-2.39724,0.36497,0.82217
503.836,25.44633,-2.39843,0.36314,0.82179
504.536,25.46875,-2.39861,0.36627,0.82141
505.236,25.49116,-2.39861,0.36335,0.82102
505.936,25.51362,-2.39864,0.36155,0.82064
506.636,25.5361,-2.4,0.36097,0.82025
507.336,25.5585,-2.39987,0.35895,0.81987
508.036,25.58099,-2.40124,0.35855,0.81948
508.736,25.60344,-2.4012,0.35827,0.8191
509.436,25.62593,-2.40236,0.35521,0.81871
510.136,25.6484,-2.40256,0.35612,0.81832
510.836,25.67088,-2.40255,0.35186,0.81793
511.536,25.6934,-2.40353,0.35443,0.81755
512.236,25.71578,-2.40404,0.35086,0.81716
512.936,25.73828,-2.40545,0.35245,0.81677
513.636,25.76075,-2.40541,0.3504,0.81638
514.336,25.7832,-2.40682,0.35093,0.81599
515.036,25.8057,-2.40675,0.35117,0.8156
515.736,25.8282,-2.40723,0.35014,0.81521
516.436,25.85071,-2.40803,0.34808,0.81482
517.136,25.8733,-2.40865,0.35114,0.81443
517.836,25.89582,-2.4083,0.3473,0.81403
518.536,25.91829,-2.40957,0.34564,0.81364
519.236,25.94075,-2.40971,0.34607,0.81325
519.936,25.96319,-2.40996,0.34573,0.81286
520.636,25.98566,-2.41102,0.34395,0.81246
521.336,26.00818,-2.41101,0.34344,0.81207
522.036,26.0307,-2.41104,0.34615,0.81167
522.736,26.05324,-2.41265,0.34103,0.81128
523.436,26.07574,-2.41365,0.34146,0.81088
524.136,26.09827,-2.41384,0.34123,0.81049
524.836,26.12087,-2.41505,0.33966,0.81009
525.536,26.14344,-2.41522,0.33695,0.80969
526.236,26.16604,-2.41642,0.33753,0.80929
526.936,26.1886,-2.4164,0.33761,0.8089
527.636,26.2111,-2.41746,0.33857,0.8085
528.336,26.2337,-2.4177,0.33859,0.8081
529.036,26.25621,-2.41771,0.3354,0.8077
529.736,26.27876,-2.41776,0.33712,0.8073
530.436,26.30133,-2.41715,0.33408,0.8069
531.136,26.3239,-2.41769,0.33418,0.8065
531.836,26.34651,-2.41771,0.3348,0.8061
532.536,26.36915,-2.41824,0.33075,0.80569
533.236,26.3917,-2.41997,0.33135,0.80529
533.936,26.4143,-2.42,0.33008,0.80489
534.636,26.4369,-2.41999,0.32846,0.80449
535.336,26.4595,-2.41997,0.32475,0.80408
536.036,26.48211,-2.42132,0.32578,0.80368
536.736,26.50474,-2.42132,0.32465,0.80327
537.436,26.5273,-2.42176,0.32317,0.80287
538.136,26.54992,-2.42296,0.32221,0.80246
538.836,26.57255,-2.42291,0.3215,0.80205
539.536,26.5952,-2.42422,0.323,0.80165
540.236,26.6178,-2.42428,0.31952,0.80124
540.936,26.64035,-2.42427,0.32097,0.80083
541.636,26.66292,-2.42545,0.32097,0.80042
542.336,26.68555,-2.42559,0.32209,0.80002
543.036,26.7081,-2.42559,0.32574,0.79961
543.736,26.73077,-2.42599,0.32745,0.7992
544.436,26.75337,-2.42688,0.32998,0.79879
545.136,26.7759,-2.42693,0.33325,0.79837
545.836,26.79852,-2.42747,0.33928,0.79796
546.536,26.8211,-2.42699,0.34275,0.79755
547.236,26.8437,-2.42706,0.3451,0.79714
547.936,26.86635,-2.42841,0.34593,0.79673
548.636,26.88901,-2.42831,0.35094,0.79631
549.336,26.91168,-2.42981,0.35135,0.7959
550.036,26.93435,-2.43098,0.35434,0.79548
550.736,26.95703,-2.43111,0.35348,0.79507
551.436,26.9797,-2.43229,0.35544,0.79465
552.136,27.0023,-2.43228,0.35623,0.79424
552.836,27.02494,-2.43228,0.35721,0.79382
553.536,27.04753,-2.43228,0.35905,0.7934
554.236,27.0702,-2.43228,0.3569,0.79298
554.936,27.09285,-2.4323,0.36019,0.79257
555.636,27.11552,-2.43368,0.36024,0.79215
556.336,27.13826,-2.4336,0.36029,0.79173
557.036,27.16095,-2.43366,0.36264,0.79131
557.736,27.1836,-2.43493,0.36394,0.79089
558.436,27.20634,-2.43492,0.36151,0.79047
559.136,27.2291,-2.43494,0.36203,0.79005
559.836,27.2518,-2.43364,0.36805,0.78962
560.536,27.27455,-2.43497,0.36549,0.7892
561.236,27.29725,-2.43493,0.36561,0.78878
561.936,27.31996,-2.43557,0.36608,0.78835
562.636,27.3427,-2.43754,0.3682,0.78793
563.336,27.3654,-2.43755,0.37484,0.78751
564.036,27.38825,-2.43754,0.37017,0.78708
564.736,27.411,-2.43762,0.37237,0.78665
565.436,27.4338,-2.43888,0.37134,0.78623
566.136,27.4565,-2.43888,0.37148,0.7858
566.836,27.47932,-2.43946,0.37095,0.78537
567.536,27.5021,-2.44017,0.37089,0.78495
568.236,27.52491,-2.44017,0.36888,0.78452
568.936,27.5476,-2.44009,0.37154,0.78409
569.636,27.57035,-2.4415,0.37053,0.78366
570.336,27.59308,-2.4415,0.37105,0.78323
571.036,27.6159,-2.4415,0.37169,0.7828
571.736,27.63873,-2.4415,0.36841,0.78236
572.436,27.66155,-2.44288,0.37126,0.78193
573.136,27.68433,-2.44282,0.36979,0.7815
573.836,27.70719,-2.44283,0.3709,0.78107
574.536,27.73003,-2.44347,0.37095,0.78063
575.236,27.75287,-2.44345,0.36666,0.7802
575.936,27.7756,-2.44457,0.36637,0.77976
576.636,27.79835,-2.44479,0.36692,0.77933
577.336,27.82118,-2.44479,0.36516,0.77889
578.036,27.844,-2.44479,0.36287,0.77846
578.736,27.86705,-2.44479,0.36377,0.77802
579.436,27.8899,-2.44479,0.36249,0.77758
580.136,27.91272,-2.44565,0.36038,0.77714
580.836,27.9355,-2.44472,0.36119,0.7767
581.536,27.9583,-2.44531,0.35789,0.77627
582.236,27.9812,-2.4461,0.35606,0.77583
582.936,28.00416,-2.44608,0.35739,0.77538
583.636,28.02713,-2.44877,0.35447,0.77494
584.336,28.05005,-2.44874,0.35148,0.7745
585.036,28.073,-2.44874,0.35168,0.77406
585.736,28.09586,-2.44873,0.35232,0.77362
586.436,28.11867,-2.44997,0.34938,0.77317
587.136,28.14152,-2.45006,0.34443,0.77273
587.836,28.16439,-2.45006,0.34169,0.77228
588.536,28.18729,-2.45001,0.34047,0.77184
589.236,28.2102,-2.45103,0.33695,0.77139
589.936,28.2331,-2.4504,0.33513,0.77095
590.636,28.256,-2.45038,0.33281,0.7705
591.336,28.2789,-2.45038,0.333,0.77005
592.036,28.3018,-2.45039,0.32922,0.7696
592.736,28.32477,-2.45179,0.32632,0.76916
593.436,28.3477,-2.4517,0.3231,0.76871
594.136,28.3706,-2.4517,0.32152,0.76826
594.836,28.39354,-2.45172,0.32103,0.76781
595.536,28.41641,-2.45232,0.3165,0.76735
596.236,28.43934,-2.45301,0.31413,0.7669
596.936,28.46231,-2.45301,0.31282,0.76645
597.636,28.4853,-2.45308,0.311,0.766
598.336,28.50822,-2.45436,0.30991,0.76554
599.036,28.53122,-2.45433,0.30674,0.76509
599.736,28.55415,-2.4542,0.305,0.76464
600.436,28.57712,-2.45401,0.30425,0.76418
601.136,28.60016,-2.45402,0.29968,0.76372
601.836,28.62309,-2.45534,0.29917,0.76327
602.536,28.6461,-2.45533,0.29909,0.76281
603.236,28.6691,-2.45533,0.2979,0.76235
603.936,28.6921,-2.45531,0.29684,0.76189
604.636,28.7151,-2.45638,0.29364,0.76144
605.336,28.73798,-2.45663,0.29326,0.76098
606.036,28.76084,-2.45664,0.29057,0.76052
606.736,28.7837,-2.45687,0.28691,0.76006
607.436,28.8067,-2.45729,0.28642,0.75959
608.136,28.8297,-2.4573,0.28321,0.75913
608.836,28.8527,-2.4573,0.28308,0.75867
609.536,28.87582,-2.4573,0.28014,0.75821
610.236,28.8988,-2.4573,0.28133,0.75774
610.936,28.9218,-2.45734,0.27901,0.75728
611.636,28.94479,-2.45802,0.27749,0.75681
612.336,28.96777,-2.45954,0.27642,0.75635
613.036,28.9908,-2.45952,0.275,0.75588
613.736,29.0138,-2.46086,0.27579,0.75541
614.436,29.03685,-2.46081,0.27169,0.75495
615.136,29.05987,-2.46113,0.27279,0.75448
615.836,29.08291,-2.46211,0.27125,0.75401
616.536,29.1059,-2.46213,0.26933,0.75354
617.236,29.1289,-2.46213,0.26955,0.75307
617.936,29.1519,-2.46213,0.26655,0.7526
618.636,29.17496,-2.4622,0.26613,0.75213
619.336,29.198,-2.46354,0.26481,0.75166
620.036,29.221,-2.46279,0.26404,0.75119
620.736,29.24405,-2.46278,0.2607,0.75071
621.436,29.267,-2.46277,0.25996,0.75024
622.136,29.29004,-2.4641,0.26006,0.74976
622.836,29.3131,-2.46411,0.26234,0.74929
623.536,29.3361,-2.4641,0.26087,0.74881
624.236,29.35916,-2.4641,0.26017,0.74834
624.936,29.38226,-2.46419,0.25954,0.74786
625.636,29.40535,-2.46547,0.25863,0.74738
626.336,29.4284,-2.46542,0.25667,0.74691
627.036,29.45143,-2.46542,0.25896,0.74643
627.736,29.4744,-2.46534,0.25605,0.74595
628.436,29.49745,-2.46671,0.25676,0.74547
629.136,29.5205,-2.46673,0.2574,0.74499
629.836,29.54353,-2.46673,0.25914,0.74451
630.536,29.5666,-2.46673,0.26025,0.74402
631.236,29.5897,-2.46673,0.25606,0.74354
631.936,29.61273,-2.46685,0.25675,0.74306
632.636,29.6358,-2.46809,0.25904,0.74258
633.336,29.6589,-2.46805,0.26043,0.74209
634.036,29.682,-2.46801,0.2583,0.74161
634.736,29.7051,-2.4693,0.26238,0.74112
635.436,29.728,-2.46936,0.2609,0.74063
636.136,29.75105,-2.46936,0.26654,0.74015
636.836,29.77412,-2.46936,0.26745,0.73966
637.536,29.7973,-2.46936,0.26743,0.73917
638.236,29.82047,-2.46935,0.26963,0.73868
638.936,29.84348,-2.47056,0.26869,0.73819
639.636,29.8664,-2.47068,0.26931,0.7377
640.336,29.88937,-2.47068,0.26764,0.73721
641.036,29.91238,-2.47068,0.27233,0.73672
641.736,29.93548,-2.47067,0.27003,0.73623
642.436,29.95877,-2.47192,0.27756,0.73574
643.136,29.98188,-2.47201,0.27761,0.73525
643.836,30.0051,-2.472,0.28037,0.73475
644.536,30.0282,-2.4722,0.28182,0.73426
645.236,30.05122,-2.47327,0.28237,0.73376
645.936,30.0743,-2.47262,0.28127,0.73327
646.636,30.09732,-2.47266,0.28694,0.73277
647.336,30.12037,-2.47334,0.28694,0.73227
648.036,30.1434,-2.47396,0.29033,0.73178
648.736,30.16661,-2.47399,0.29288,0.73128
649.436,30.1897,-2.47493,0.29399,0.73078
650.136,30.2128,-2.47528,0.29546,0.73028
650.836,30.23596,-2.47519,0.29801,0.72978
651.536,30.259,-2.4766,0.30228,0.72928
652.236,30.2821,-2.47677,0.30461,0.72878
652.936,30.3052,-2.47792,0.30699,0.72828
653.636,30.32827,-2.47789,0.31316,0.72777
654.336,30.3513,-2.47789,0.31582,0.72727
655.036,30.3744,-2.47792,0.31696,0.72677
655.736,30.3975,-2.47792,0.32179,0.72626
656.436,30.42046,-2.47791,0.32732,0.72576
657.136,30.4436,-2.47913,0.33036,0.72525
657.836,30.46674,-2.47925,0.3358,0.72474
658.536,30.48987,-2.48021,0.33566,0.72424
659.236,30.5131,-2.48055,0.33923,0.72373
659.936,30.5362,-2.48055,0.34466,0.72322
660.636,30.5594,-2.48055,0.35111,0.72271
661.336,30.58255,-2.48055,0.35616,0.7222
662.036,30.6057,-2.48148,0.3618,0.72169
662.736,30.6288,-2.48187,0.36677,0.72118
663.436,30.65188,-2.48175,0.36842,0.72067
664.136,30.675,-2.48211,0.37712,0.72016
664.836,30.6981,-2.48219,0.37888,0.71965
665.536,30.7211,-2.4822,0.38704,0.71913
666.236,30.7442,-2.48361,0.39198,0.71862
666.936,30.76728,-2.48354,0.3974,0.7181
667.636,30.7903,-2.48453,0.40113,0.71759
668.336,30.81362,-2.48485,0.40884,0.71707
669.036,30.8369,-2.4855,0.4109,0.71656
669.736,30.86011,-2.48614,0.41573,0.71604
670.436,30.8834,-2.48643,0.4212,0.71552
671.136,30.9065,-2.48747,0.42508,0.715
671.836,30.9296,-2.48776,0.43198,0.71448
672.536,30.95277,-2.48876,0.43779,0.71396
673.236,30.97588,-2.48831,0.44455,0.71344
673.936,30.9991,-2.48975,0.44997,0.71292
674.636,31.0223,-2.48986,0.45245,0.7124
675.336,31.04546,-2.49113,0.45658,0.71188
676.036,31.06868,-2.49108,0.4609,0.71135
676.736,31.09185,-2.49158,0.46148,0.71083
677.436,31.1151,-2.49237,0.46715,0.71031
678.136,31.1383,-2.49238,0.47282,0.70978
678.836,31.1615,-2.49378,0.47657,0.70926
679.536,31.18478,-2.49371,0.48288,0.70873
680.236,31.2079,-2.49487,0.48413,0.7082
680.936,31.2311,-2.49502,0.48366,0.70768
681.636,31.2543,-2.49602,0.48846,0.70715
682.336,31.2775,-2.49633,0.49041,0.70662
683.036,31.3007,-2.49765,0.49402,0.70609
683.736,31.3239,-2.49637,0.49376,0.70556
684.436,31.3472,-2.49705,0.49652,0.70503
685.136,31.3704,-2.49766,0.49334,0.7045
685.836,31.39361,-2.49797,0.49927,0.70397
686.536,31.4168,-2.49898,0.49525,0.70343
687.236,31.43993,-2.49898,0.49859,0.7029
687.936,31.46296,-2.50035,0.49698,0.70237
688.636,31.48605,-2.50039,0.49383,0.70183
689.336,31.50928,-2.50257,0.49386,0.7013
690.036,31.5325,-2.50259,0.49233,0.70076
690.736,31.55588,-2.50262,0.48885,0.70023
691.436,31.57922,-2.50351,0.48567,0.69969
692.136,31.6024,-2.50391,0.48287,0.69915
692.836,31.6256,-2.50409,0.47925,0.69861
693.536,31.6488,-2.50396,0.47567,0.69807
694.236,31.6719,-2.50475,0.47395,0.69753
694.936,31.69518,-2.50558,0.46928,0.69699
695.636,31.7184,-2.5069,0.46568,0.69645
696.336,31.7416,-2.50686,0.46474,0.69591
697.036,31.76489,-2.50792,0.46389,0.69537
697.736,31.7881,-2.50819,0.46048,0.69483
698.436,31.81138,-2.50818,0.4591,0.69428
699.136,31.8346,-2.50922,0.4596,0.69374
699.836,31.85789,-2.50951,0.46808,0.6932
700.536,31.8812,-2.50995,0.46519,0.69265
701.236,31.90437,-2.5108,0.47068,0.6921
701.936,31.9276,-2.51212,0.47171,0.69156
702.636,31.95085,-2.51242,0.47104,0.69101
703.336,31.97407,-2.51381,0.47086,0.69046
704.036,31.9974,-2.51395,0.47524,0.68992
704.736,32.02067,-2.51509,0.47263,0.68937
705.436,32.04392,-2.5151,0.47266,0.68882
706.136,32.06725,-2.51513,0.46987,0.68827
706.836,32.09052,-2.51612,0.46443,0.68772
707.536,32.1138,-2.51576,0.46191,0.68717
708.236,32.13712,-2.51727,0.45182,0.68661
708.936,32.1604,-2.51787,0.44357,0.68606
709.636,32.1837,-2.51849,0.42903,0.68551
710.336,32.20701,-2.51851,0.41962,0.68495
711.036,32.23016,-2.51917,0.40183,0.6844
711.736,32.25346,-2.51974,0.38207,0.68384
712.436,32.2768,-2.5211,0.35828,0.68329
713.136,32.30004,-2.52113,0.3304,0.68273
713.836,32.32347,-2.52113,0.29714,0.68217
714.536,32.3467,-2.52108,0.27144,0.68162
715.236,32.36998,-2.52245,0.24556,0.68106
715.936,32.39325,-2.52245,0.22895,0.6805
716.636,32.41655,-2.52235,0.21693,0.67994
717.336,32.43992,-2.52377,0.20366,0.67938
718.036,32.46328,-2.52377,0.1955,0.67882
718.736,32.48661,-2.52384,0.19064,0.67826
719.436,32.5099,-2.52311,0.18341,0.6777
720.136,32.53322,-2.52311,0.18164,0.67713
720.836,32.5565,-2.52311,0.18034,0.67657
721.536,32.57987,-2.52311,0.17583,0.67601
722.236,32.60328,-2.52306,0.17313,0.67544
722.936,32.62665,-2.52381,0.17474,0.67488
723.636,32.65003,-2.52376,0.16885,0.67431
724.336,32.6734,-2.52376,0.16981,0.67375
725.036,32.6967,-2.52376,0.16709,0.67318
725.736,32.72,-2.52376,0.16642,0.67261
726.436,32.74348,-2.52376,0.16769,0.67204
727.136,32.7669,-2.52371,0.16288,0.67148
727.836,32.79029,-2.52509,0.16373,0.67091
728.536,32.81373,-2.52508,0.1617,0.67034
729.236,32.83708,-2.52508,0.16464,0.66977
729.936,32.8605,-2.52506,0.1593,0.6692
730.636,32.88382,-2.52445,0.15865,0.66862
731.336,32.90715,-2.52444,0.15822,0.66805
732.036,32.93053,-2.52513,0.15652,0.66748
732.736,32.95394,-2.52574,0.15663,0.66691
733.436,32.97733,-2.52575,0.15659,0.66633
734.136,33.00073,-2.52575,0.15425,0.66576
734.836,33.02421,-2.52575,0.15448,0.66518
735.536,33.04762,-2.52575,0.15542,0.66461
736.236,33.07103,-2.52575,0.15475,0.66403
736.936,33.0944,-2.52579,0.15288,0.66345
737.636,33.11779,-2.52452,0.15462,0.66287
738.336,33.14117,-2.52451,0.15069,0.6623
739.036,33.16455,-2.52538,0.15227,0.66172
739.736,33.18799,-2.52541,0.15309,0.66114
740.436,33.2114,-2.52545,0.15516,0.66056
741.136,33.2348,-2.52573,0.15016,0.65998
741.836,33.2583,-2.5257,0.1515,0.6594
742.536,33.28164,-2.5271,0.14784,0.65881
743.236,33.3049,-2.52706,0.15201,0.65823
743.936,33.3283,-2.52706,0.15029,0.65765
744.636,33.35172,-2.52706,0.15468,0.65707
745.336,33.3754,-2.52705,0.15274,0.65648
746.036,33.39907,-2.52702,0.1509,0.6559
746.736,33.42262,-2.52838,0.15419,0.65531
747.436,33.44611,-2.52838,0.1523,0.65473
748.136,33.4696,-2.52708,0.15486,0.65414
748.836,33.4931,-2.52701,0.15141,0.65355
749.536,33.51658,-2.52821,0.15344,0.65296
750.236,33.54,-2.52837,0.15061,0.65238
750.936,33.5635,-2.52837,0.15015,0.65179
751.636,33.58697,-2.52837,0.15064,0.6512
752.336,33.61047,-2.52873,0.14835,0.65061
753.036,33.634,-2.52934,0.15114,0.65002
753.736,33.65743,-2.52937,0.15063,0.64943
754.436,33.68087,-2.52971,0.14968,0.64884
755.136,33.70428,-2.52969,0.14995,0.64824
755.836,33.72766,-2.52966,0.14861,0.64765
756.536,33.7511,-2.53001,0.14963,0.64706
757.236,33.7746,-2.53038,0.14732,0.64646
757.936,33.79806,-2.53035,0.14797,0.64587
758.636,33.82157,-2.53035,0.15082,0.64527
759.336,33.84509,-2.53037,0.14578,0.64468
760.036,33.86857,-2.5312,0.14614,0.64408
760.736,33.8921,-2.53166,0.14819,0.64348
761.436,33.91561,-2.53175,0.14563,0.64289
762.136,33.93913,-2.53031,0.14659,0.64229
762.836,33.9626,-2.53106,0.14695,0.64169
763.536,33.98611,-2.53132,0.14841,0.64109
764.236,34.00956,-2.53133,0.14982,0.64049
764.936,34.033,-2.53133,0.14748,0.63989
765.636,34.0565,-2.53133,0.14716,0.63929
766.336,34.07992,-2.53133,0.14962,0.63869
767.036,34.10338,-2.53131,0.14875,0.63809
767.736,34.12683,-2.53168,0.14803,0.63749
768.436,34.15034,-2.53166,0.15216,0.63688
769.136,34.1738,-2.53162,0.15174,0.63628
769.836,34.19722,-2.53285,0.14916,0.63568
770.536,34.22068,-2.53297,0.15154,0.63507
771.236,34.24413,-2.53297,0.15006,0.63447
771.936,34.2677,-2.53297,0.14973,0.63386
772.636,34.29123,-2.53295,0.14829,0.63325
773.336,34.3148,-2.53422,0.15134,0.63265
774.036,34.33828,-2.53429,0.15386,0.63204
774.736,34.3617,-2.53429,0.15061,0.63143
775.436,34.38524,-2.53429,0.14838,0.63082
776.136,34.40869,-2.53429,0.14572,0.63021
776.836,34.43215,-2.53483,0.15149,0.6296
777.536,34.45565,-2.53561,0.14999,0.62899
778.236,34.4791,-2.53498,0.15221,0.62838
778.936,34.50257,-2.53496,0.15074,0.62777
779.636,34.52609,-2.535,0.14956,0.62716
780.336,34.54963,-2.53493,0.14947,0.62655
781.036,34.5732,-2.53582,0.15168,0.62594
781.736,34.59664,-2.53562,0.14976,0.62532
782.436,34.62015,-2.53561,0.15078,0.62471
783.136,34.6436,-2.53561,0.14959,0.62409
783.836,34.66713,-2.53561,0.14935,0.62348
784.536,34.69062,-2.53561,0.14939,0.62286
785.236,34.71409,-2.53623,0.14803,0.62225
785.936,34.7376,-2.53636,0.14743,0.62163
786.636,34.7611,-2.53592,0.14289,0.62101
787.336,34.78457,-2.53562,0.14503,0.6204
788.036,34.80808,-2.53561,0.14405,0.61978
788.736,34.83157,-2.53561,0.14612,0.61916
789.436,34.8551,-2.53561,0.14311,0.61854
790.136,34.87859,-2.53561,0.13908,0.61792
790.836,34.90205,-2.53555,0.14045,0.6173
791.536,34.92549,-2.5362,0.14385,0.61668
792.236,34.94895,-2.5366,0.13885,0.61606
792.936,34.97245,-2.5366,0.14137,0.61544
793.636,34.99595,-2.5366,0.13901,0.61482
793.736,34.9993,-2.5366,0.13964,0.61473