File: 01_Data/LW_GypBoard_Painted_Paper/STA/N2/30K_min/Lw_Gypsum_Painted_Paper_STA_N2_30KData_222302_R1.csv
##Temp./Â°C,Time/min,Mass loss(subtr.2)/mg,DSC(subtr.2)/(mW/mg),Sensit./(uV/mW)
48.767,10.01,-0.02402,0.0058675,1.08892
49.467,10.55509,-0.02214958,0.05100268,1.08833
50.167,10.67897,-0.02163889,0.08840241,1.08773
50.867,10.76799,-0.0223065,0.1212,1.08715
51.567,10.84116,-0.02139463,0.15293,1.08656
52.267,10.90414,-0.02231173,0.18264,1.08597
52.967,10.96079,-0.02352595,0.20569,1.08538
53.667,11.01213,-0.02463836,0.22976,1.0848
54.367,11.06007,-0.02654145,0.25603,1.08421
55.067,11.10472,-0.02688376,0.27851,1.08363
55.767,11.14719,-0.02580557,0.30009,1.08304
56.467,11.18788,-0.02621126,0.31941,1.08246
57.167,11.2265,-0.02586183,0.33666,1.08188
57.867,11.2638,-0.02381096,0.35649,1.0813
58.567,11.30012,-0.02368941,0.37479,1.08072
59.267,11.33525,-0.02410843,0.39193,1.08014
59.967,11.36939,-0.02412251,0.40782,1.07956
60.667,11.40269,-0.02485506,0.42299,1.07898
61.367,11.4352,-0.02430842,0.43885,1.07841
62.067,11.46705,-0.02376666,0.45332,1.07783
62.767,11.4984,-0.02387749,0.46941,1.07726
63.467,11.52932,-0.02606272,0.4859,1.07668
64.167,11.55948,-0.02860969,0.49565,1.07611
64.867,11.58935,-0.03078152,0.50953,1.07554
65.567,11.61868,-0.0295097,0.5234,1.07497
66.267,11.64782,-0.02577458,0.536,1.0744
66.967,11.67646,-0.0234688,0.547,1.07383
67.667,11.70492,-0.02390308,0.56176,1.07326
68.367,11.73296,-0.02371097,0.57336,1.07269
69.067,11.76078,-0.02361184,0.58247,1.07212
69.767,11.78839,-0.0242063,0.59338,1.07155
70.467,11.81577,-0.02489028,0.60745,1.07099
71.167,11.84302,-0.02488278,0.61759,1.07042
71.867,11.86998,-0.02533006,0.62845,1.06986
72.567,11.89672,-0.02512946,0.63983,1.0693
73.267,11.92331,-0.02484008,0.65063,1.06873
73.967,11.94961,-0.02512791,0.66193,1.06817
74.667,11.97582,-0.02498169,0.67198,1.06761
75.367,12.00188,-0.02556471,0.68174,1.06705
76.067,12.02793,-0.02618553,0.69176,1.06649
76.767,12.05386,-0.02645832,0.70351,1.06594
77.467,12.07964,-0.02739399,0.71015,1.06538
78.167,12.1053,-0.02749356,0.72077,1.06482
78.867,12.1309,-0.0288065,0.72948,1.06427
79.567,12.1563,-0.02880831,0.73684,1.06371
80.267,12.18126,-0.02875341,0.75016,1.06316
80.967,12.20612,-0.02960381,0.75705,1.06261
81.667,12.23124,-0.02974552,0.76496,1.06205
82.367,12.25632,-0.03020741,0.77635,1.0615
83.067,12.28169,-0.03060919,0.78559,1.06095
83.767,12.30674,-0.02974915,0.79382,1.0604
84.467,12.3315,-0.03042276,0.80203,1.05985
85.167,12.35618,-0.03078653,0.80857,1.0593
85.867,12.38076,-0.03176442,0.81672,1.05876
86.567,12.40542,-0.03208115,0.82522,1.05821
87.267,12.4299,-0.03178882,0.83269,1.05767
87.967,12.45435,-0.03209357,0.84183,1.05712
88.667,12.47872,-0.03134002,0.84808,1.05658
89.367,12.50301,-0.03209115,0.85586,1.05603
90.067,12.5273,-0.03222673,0.86332,1.05549
90.767,12.55154,-0.0322454,0.87163,1.05495
91.467,12.57576,-0.03343516,0.87693,1.05441
92.167,12.59988,-0.03411298,0.88121,1.05387
92.867,12.62396,-0.03349083,0.89105,1.05333
93.567,12.64798,-0.03424492,0.89549,1.05279
94.267,12.67194,-0.03480194,0.90098,1.05226
94.967,12.69588,-0.0333989,0.90671,1.05172
95.667,12.71975,-0.03475888,0.91055,1.05119
96.367,12.7437,-0.03477948,0.91861,1.05065
97.067,12.76746,-0.03550402,0.92335,1.05012
97.767,12.79113,-0.03471665,0.92898,1.04958
98.467,12.81493,-0.03482833,0.93196,1.04905
99.167,12.83874,-0.03610204,0.93668,1.04852
99.867,12.86265,-0.03609891,0.94176,1.04799
100.567,12.8865,-0.03746434,0.94419,1.04746
101.267,12.9103,-0.03740808,0.9472,1.04693
101.967,12.934,-0.03877131,0.95091,1.0464
102.667,12.95771,-0.03871854,0.95464,1.04588
103.367,12.98138,-0.03877091,0.96032,1.04535
104.067,13.00502,-0.04008051,0.9632,1.04482
104.767,13.02864,-0.04004674,0.96329,1.0443
105.467,13.05225,-0.04118611,0.96858,1.04377
106.167,13.07589,-0.04078954,0.96996,1.04325
106.867,13.09944,-0.04068772,0.97269,1.04273
107.567,13.12296,-0.04033402,0.97445,1.04221
108.267,13.1466,-0.04073753,0.98002,1.04169
108.967,13.1702,-0.0416786,0.9806,1.04117
109.667,13.1938,-0.041679,0.98097,1.04065
110.367,13.21742,-0.04167996,0.98133,1.04013
111.067,13.2411,-0.04168,0.98298,1.03961
111.767,13.2645,-0.04168,0.98526,1.0391
112.467,13.2881,-0.04168001,0.98612,1.03858
113.167,13.31165,-0.04167984,0.98698,1.03806
113.867,13.3351,-0.04167355,0.98876,1.03755
114.567,13.35855,-0.0416174,0.98936,1.03704
115.267,13.382,-0.0429959,0.98978,1.03652
115.967,13.40541,-0.04299227,0.9921,1.03601
116.667,13.42883,-0.04300455,0.99081,1.0355
117.367,13.4523,-0.04413894,0.99192,1.03499
118.067,13.47565,-0.044311,0.99109,1.03448
118.767,13.49896,-0.04432807,0.99296,1.03397
119.467,13.5223,-0.04398824,0.99642,1.03346
120.167,13.54549,-0.0439806,0.997,1.03296
120.867,13.5687,-0.04398001,0.99709,1.03245
121.567,13.59199,-0.04398,0.99897,1.03195
122.267,13.61517,-0.04398,1.00094,1.03144
122.967,13.63836,-0.04398,1.00163,1.03094
123.667,13.6616,-0.04398,1.00384,1.03043
124.367,13.68477,-0.04398001,1.00464,1.02993
125.067,13.708,-0.04398011,1.00636,1.02943
125.767,13.73127,-0.04397826,1.00714,1.02893
126.467,13.75448,-0.04477492,1.00784,1.02843
127.167,13.7776,-0.0452794,1.01109,1.02793
127.867,13.8007,-0.04527805,1.01124,1.02743
128.567,13.82376,-0.04650408,1.01066,1.02694
129.267,13.84671,-0.04661066,1.01193,1.02644
129.967,13.8697,-0.04691713,1.01255,1.02594
130.667,13.8926,-0.04790607,1.0129,1.02545
131.367,13.91555,-0.04792813,1.01405,1.02495
132.067,13.93845,-0.04792741,1.01479,1.02446
132.767,13.9612,-0.0479756,1.0156,1.02397
133.467,13.984,-0.04930166,1.01554,1.02348
134.167,14.00673,-0.0492471,1.01548,1.02298
134.867,14.02941,-0.04895102,1.01454,1.02249
135.567,14.05214,-0.0493055,1.01373,1.022
136.267,14.07482,-0.04924582,1.01425,1.02151
136.967,14.09746,-0.04924612,1.01865,1.02103
137.667,14.1201,-0.04923474,1.01883,1.02054
138.367,14.14274,-0.04933555,1.02057,1.02005
139.067,14.1653,-0.04925583,1.02254,1.01957
139.767,14.18798,-0.04925019,1.01869,1.01908
140.467,14.21054,-0.04925,1.02241,1.0186
141.167,14.23311,-0.04925,1.02331,1.01811
141.867,14.2556,-0.04925,1.02476,1.01763
142.567,14.2781,-0.04925,1.02502,1.01715
143.267,14.30061,-0.04925,1.02955,1.01667
143.967,14.323,-0.04925,1.0306,1.01619
144.667,14.34554,-0.04924998,1.03281,1.01571
145.367,14.36791,-0.04924978,1.03441,1.01523
146.067,14.3903,-0.04925065,1.03757,1.01475
146.767,14.4126,-0.04936461,1.03925,1.01427
147.467,14.4349,-0.0506079,1.04049,1.0138
148.167,14.4572,-0.05056201,1.04401,1.01332
148.867,14.47957,-0.05056,1.0457,1.01284
149.567,14.50191,-0.05056135,1.04733,1.01237
150.267,14.52426,-0.05060237,1.048,1.0119
150.967,14.54659,-0.0494075,1.05118,1.01142
151.667,14.56885,-0.04923863,1.0533,1.01095
152.367,14.59106,-0.04817864,1.05741,1.01048
153.067,14.61323,-0.0479318,1.06149,1.01001
153.767,14.6352,-0.04793012,1.06404,1.00954
154.467,14.6572,-0.04793,1.06629,1.00907
155.167,14.6794,-0.04793,1.06965,1.0086
155.867,14.70166,-0.04793,1.0706,1.00813
156.567,14.7241,-0.04792997,1.07359,1.00767
157.267,14.7464,-0.04792947,1.07547,1.0072
157.967,14.7686,-0.04792516,1.07777,1.00673
158.667,14.7907,-0.04797821,1.08211,1.00627
159.367,14.81284,-0.05065781,1.08661,1.0058
160.067,14.83494,-0.0505669,1.0893,1.00534
160.767,14.85705,-0.05055985,1.0925,1.00488
161.467,14.87912,-0.05055699,1.09637,1.00442
162.167,14.9011,-0.05063424,1.09968,1.00396
162.867,14.9232,-0.05178956,1.10088,1.00349
163.567,14.94529,-0.05155967,1.10562,1.00304
164.267,14.96744,-0.0515591,1.10862,1.00258
164.967,14.9895,-0.05186812,1.11026,1.00212
165.667,15.0115,-0.05188174,1.11379,1.00166
166.367,15.03355,-0.05188018,1.11663,1.0012
167.067,15.0555,-0.05187993,1.11959,1.00075
167.767,15.0776,-0.05187899,1.12421,1.00029
168.467,15.09944,-0.05187522,1.12682,0.99984
169.167,15.12134,-0.05290802,1.12613,0.99938
169.867,15.1433,-0.0528727,1.13091,0.99893
170.567,15.1652,-0.05283618,1.13351,0.99848
171.267,15.1872,-0.05321989,1.13483,0.99802
171.967,15.20917,-0.05320038,1.13978,0.99757
172.667,15.23105,-0.05319997,1.14502,0.99712
173.367,15.2529,-0.0532,1.14827,0.99667
174.067,15.27474,-0.0532,1.15082,0.99622
174.767,15.2966,-0.0532,1.15256,0.99577
175.467,15.31841,-0.0532,1.1569,0.99533
176.167,15.34035,-0.05320001,1.15754,0.99488
176.867,15.36222,-0.05320067,1.16177,0.99443
177.567,15.38406,-0.05323874,1.16379,0.99399
178.267,15.40595,-0.05458144,1.16606,0.99354
178.967,15.4277,-0.05442918,1.17227,0.9931
179.667,15.44948,-0.05581765,1.17508,0.99265
180.367,15.4712,-0.05582028,1.17803,0.99221
181.067,15.49293,-0.05582003,1.18277,0.99177
181.767,15.5146,-0.05581999,1.18179,0.99133
182.467,15.5362,-0.05581986,1.18461,0.99089
183.167,15.5579,-0.05581839,1.18868,0.99045
183.867,15.5795,-0.05553153,1.19097,0.99001
184.567,15.60109,-0.0545234,1.19344,0.98957
185.267,15.6228,-0.05451172,1.19934,0.98913
185.967,15.6444,-0.05451012,1.20179,0.98869
186.667,15.6661,-0.05450976,1.20386,0.98825
187.367,15.6877,-0.05450697,1.20372,0.98782
188.067,15.70936,-0.05449362,1.20839,0.98738
188.767,15.7309,-0.05582783,1.2122,0.98695
189.467,15.75255,-0.05698002,1.21428,0.98651
190.167,15.77414,-0.05705954,1.21757,0.98608
190.867,15.79565,-0.05841075,1.22132,0.98564
191.567,15.81725,-0.05845851,1.22272,0.98521
192.267,15.8388,-0.05845596,1.22419,0.98478
192.967,15.8603,-0.05979574,1.22795,0.98435
193.667,15.8819,-0.05978535,1.23329,0.98392
194.367,15.90339,-0.05978016,1.23397,0.98349
195.067,15.92482,-0.05977365,1.24018,0.98306
195.767,15.94633,-0.05968228,1.24065,0.98263
196.467,15.96781,-0.06107686,1.24569,0.9822
197.167,15.98908,-0.06108878,1.24658,0.98178
197.867,16.01043,-0.06109756,1.24897,0.98135
198.567,16.03177,-0.06002147,1.2524,0.98092
199.267,16.0532,-0.06009257,1.25714,0.9805
199.967,16.07477,-0.06009949,1.25774,0.98007
200.667,16.0964,-0.06009998,1.25998,0.97965
201.367,16.11789,-0.06010012,1.26033,0.97922
202.067,16.13939,-0.06010064,1.26597,0.9788
202.767,16.16074,-0.06008645,1.26874,0.97838
203.467,16.18215,-0.06119881,1.27248,0.97796
204.167,16.20355,-0.06265973,1.27269,0.97754
204.867,16.22495,-0.06284604,1.27422,0.97712
205.567,16.2464,-0.06286368,1.27915,0.9767
206.267,16.26781,-0.06332846,1.28175,0.97628
206.967,16.2892,-0.06417739,1.28556,0.97586
207.667,16.3106,-0.0641697,1.28828,0.97544
208.367,16.33194,-0.06417013,1.28658,0.97502
209.067,16.35333,-0.06417466,1.28913,0.97461
209.767,16.37474,-0.06334131,1.29213,0.97419
210.467,16.3962,-0.06287002,1.29555,0.97377
211.167,16.41754,-0.06285099,1.29674,0.97336
211.867,16.4389,-0.06285063,1.30123,0.97294
212.567,16.46021,-0.06284803,1.30138,0.97253
213.267,16.48151,-0.06409636,1.30566,0.97212
213.967,16.50281,-0.06544192,1.30777,0.9717
214.667,16.52413,-0.0654771,1.30921,0.97129
215.367,16.54545,-0.06547933,1.31643,0.97088
216.067,16.56673,-0.06547308,1.31651,0.97047
216.767,16.588,-0.06540186,1.3184,0.97006
217.467,16.60932,-0.06679657,1.3227,0.96965
218.167,16.63053,-0.06680252,1.32494,0.96924
218.867,16.6518,-0.06693237,1.32682,0.96883
219.567,16.67312,-0.06811578,1.32904,0.96842
220.267,16.69435,-0.06811048,1.3322,0.96802
220.967,16.71568,-0.068111,1.33472,0.96761
221.667,16.73694,-0.06823385,1.33762,0.9672
222.367,16.75824,-0.06957697,1.33851,0.9668
223.067,16.77958,-0.06954059,1.34261,0.96639
223.767,16.8009,-0.06953873,1.34488,0.96599
224.467,16.8222,-0.07008137,1.34642,0.96558
225.167,16.84347,-0.07079943,1.34798,0.96518
225.867,16.86476,-0.07193778,1.35139,0.96478
226.567,16.88593,-0.07217215,1.35283,0.96437
227.267,16.90718,-0.07365321,1.35831,0.96397
227.967,16.92839,-0.07364067,1.35802,0.96357
228.667,16.94957,-0.07502809,1.36081,0.96317
229.367,16.97085,-0.07503014,1.36076,0.96277
230.067,16.99203,-0.07502758,1.36136,0.96237
230.767,17.0133,-0.0756822,1.36576,0.96197
231.467,17.03456,-0.07630889,1.36911,0.96157
232.167,17.05578,-0.07624348,1.37006,0.96117
232.867,17.07703,-0.07770077,1.3682,0.96077
233.567,17.09828,-0.07741326,1.36849,0.96038
234.267,17.11949,-0.07874831,1.37084,0.95998
234.967,17.1407,-0.07875184,1.37512,0.95958
235.667,17.16196,-0.0788293,1.37552,0.95919
236.367,17.18313,-0.08012037,1.37807,0.95879
237.067,17.2044,-0.08013765,1.37988,0.9584
237.767,17.2256,-0.08311047,1.38015,0.958
238.467,17.24679,-0.08464213,1.38182,0.95761
239.167,17.26803,-0.08593848,1.38429,0.95722
239.867,17.2892,-0.08611548,1.38477,0.95683
240.567,17.3104,-0.08622338,1.38415,0.95643
241.267,17.33168,-0.08627892,1.38787,0.95604
241.967,17.35291,-0.08756494,1.38531,0.95565
242.667,17.37412,-0.0874453,1.38848,0.95526
243.367,17.39529,-0.08878217,1.38843,0.95487
244.067,17.4164,-0.08883804,1.38976,0.95448
244.767,17.43763,-0.09010392,1.39224,0.95409
245.467,17.45877,-0.08893488,1.39214,0.9537
246.167,17.4799,-0.09036838,1.39382,0.95331
246.867,17.50105,-0.09043708,1.39325,0.95293
247.567,17.52225,-0.09176529,1.39507,0.95254
248.267,17.54342,-0.09328164,1.39739,0.95215
248.967,17.5647,-0.09470182,1.39502,0.95177
249.667,17.58594,-0.09643616,1.39988,0.95138
250.367,17.60705,-0.09788355,1.39987,0.951
251.067,17.62818,-0.09786873,1.40111,0.95061
251.767,17.64932,-0.09937166,1.40036,0.95023
252.467,17.67043,-0.10051,1.40359,0.94984
253.167,17.69161,-0.10144,1.40548,0.94946
253.867,17.7128,-0.10289,1.41106,0.94908
254.567,17.73387,-0.1046,1.40879,0.94869
255.267,17.755,-0.10591,1.40814,0.94831
255.967,17.77616,-0.10756,1.40909,0.94793
256.667,17.79729,-0.10801,1.41301,0.94755
257.367,17.8185,-0.10915,1.41386,0.94717
258.067,17.8396,-0.10913,1.41317,0.94679
258.767,17.86073,-0.10986,1.41462,0.94641
259.467,17.8819,-0.11061,1.41372,0.94603
260.167,17.90297,-0.11217,1.41581,0.94565
260.867,17.9241,-0.11371,1.41778,0.94527
261.567,17.9453,-0.11494,1.41805,0.94489
262.267,17.96639,-0.11514,1.42059,0.94451
262.967,17.98754,-0.11728,1.42126,0.94414
263.667,18.00863,-0.11789,1.42129,0.94376
264.367,18.02978,-0.11878,1.4212,0.94338
265.067,18.05094,-0.12058,1.42342,0.94301
265.767,18.072,-0.12249,1.42764,0.94263
266.467,18.09323,-0.12409,1.42874,0.94226
267.167,18.1144,-0.12444,1.42748,0.94188
267.867,18.13557,-0.12586,1.4299,0.94151
268.567,18.15675,-0.12734,1.43255,0.94113
269.267,18.17786,-0.12918,1.43325,0.94076
269.967,18.19888,-0.13103,1.43279,0.94039
270.667,18.21995,-0.13305,1.43554,0.94001
271.367,18.24113,-0.13496,1.43792,0.93964
272.067,18.2622,-0.13695,1.44093,0.93927
272.767,18.28334,-0.13639,1.44288,0.9389
273.467,18.3045,-0.13718,1.44433,0.93853
274.167,18.32555,-0.13896,1.44572,0.93815
274.867,18.34671,-0.14068,1.44872,0.93778
275.567,18.36789,-0.14319,1.45106,0.93741
276.267,18.389,-0.14507,1.45242,0.93704
276.967,18.4102,-0.14698,1.45108,0.93668
277.667,18.43134,-0.14905,1.45741,0.93631
278.367,18.45249,-0.15118,1.45843,0.93594
279.067,18.47361,-0.1542,1.4632,0.93557
279.767,18.49475,-0.15603,1.46483,0.9352
280.467,18.51588,-0.15762,1.46493,0.93483
281.167,18.53698,-0.15937,1.46578,0.93447
281.867,18.55818,-0.16108,1.47333,0.9341
282.567,18.57934,-0.16314,1.47283,0.93373
283.267,18.60046,-0.16545,1.47803,0.93337
283.967,18.62162,-0.16892,1.47954,0.933
284.667,18.64272,-0.17117,1.48186,0.93264
285.367,18.66388,-0.1737,1.48495,0.93227
286.067,18.68506,-0.17649,1.48744,0.93191
286.767,18.70628,-0.17953,1.49073,0.93154
287.467,18.72747,-0.18236,1.49338,0.93118
288.167,18.74867,-0.18327,1.49613,0.93081
288.867,18.76983,-0.18535,1.49772,0.93045
289.567,18.7909,-0.18721,1.5024,0.93009
290.267,18.81201,-0.18974,1.506,0.92973
290.967,18.83309,-0.19212,1.51049,0.92936
291.667,18.85422,-0.19491,1.51493,0.929
292.367,18.87537,-0.19955,1.5157,0.92864
293.067,18.89651,-0.20274,1.52154,0.92828
293.767,18.91769,-0.20599,1.52543,0.92792
294.467,18.93885,-0.20852,1.52904,0.92756
295.167,18.96001,-0.2107,1.53362,0.92719
295.867,18.98118,-0.21435,1.53963,0.92683
296.567,19.00236,-0.21839,1.54192,0.92647
297.267,19.02358,-0.22146,1.54705,0.92612
297.967,19.04479,-0.22503,1.55335,0.92576
298.667,19.066,-0.22899,1.55649,0.9254
299.367,19.0872,-0.23277,1.55997,0.92504
300.067,19.1084,-0.23534,1.56304,0.92468
300.767,19.12956,-0.23814,1.57173,0.92432
301.467,19.15074,-0.2424,1.57909,0.92396
302.167,19.17193,-0.24661,1.58111,0.92361
302.867,19.19314,-0.25112,1.5869,0.92325
303.567,19.2144,-0.25477,1.59364,0.92289
304.267,19.23566,-0.25887,1.59825,0.92253
304.967,19.25685,-0.26227,1.60545,0.92218
305.667,19.278,-0.26655,1.61046,0.92182
306.367,19.29924,-0.27125,1.61637,0.92147
307.067,19.32039,-0.27625,1.62529,0.92111
307.767,19.3415,-0.28108,1.62907,0.92076
308.467,19.36262,-0.28483,1.63599,0.9204
309.167,19.3836,-0.28919,1.64089,0.92005
309.867,19.40484,-0.29372,1.64811,0.91969
310.567,19.42608,-0.29823,1.65572,0.91934
311.267,19.44738,-0.30317,1.66081,0.91898
311.967,19.46886,-0.30923,1.66699,0.91863
312.667,19.4901,-0.3146,1.67665,0.91827
313.367,19.51138,-0.32106,1.68399,0.91792
314.067,19.5326,-0.32548,1.68848,0.91757
314.767,19.55366,-0.33147,1.69794,0.91721
315.467,19.57487,-0.33671,1.70552,0.91686
316.167,19.59609,-0.34347,1.70938,0.91651
316.867,19.6173,-0.34954,1.71835,0.91616
317.567,19.63873,-0.35565,1.72666,0.9158
318.267,19.65999,-0.36163,1.73248,0.91545
318.967,19.68126,-0.3681,1.73936,0.9151
319.667,19.7026,-0.37478,1.74756,0.91475
320.367,19.72387,-0.38108,1.75311,0.9144
321.067,19.74513,-0.3883,1.76095,0.91405
321.767,19.76649,-0.39447,1.76939,0.9137
322.467,19.78782,-0.40158,1.7784,0.91335
323.167,19.80913,-0.4075,1.78548,0.913
323.867,19.8305,-0.41654,1.79307,0.91265
324.567,19.85181,-0.42278,1.80098,0.9123
325.267,19.87313,-0.43059,1.80803,0.91195
325.967,19.89445,-0.43697,1.81381,0.9116
326.667,19.91582,-0.4448,1.82092,0.91125
327.367,19.9371,-0.45141,1.82917,0.9109
328.067,19.95833,-0.45921,1.83765,0.91055
328.767,19.9796,-0.46686,1.84588,0.9102
329.467,20.001,-0.47527,1.85355,0.90985
330.167,20.02252,-0.48394,1.85873,0.9095
330.867,20.04404,-0.49212,1.8683,0.90915
331.567,20.06568,-0.50112,1.87415,0.90881
332.267,20.0871,-0.50873,1.88178,0.90846
332.967,20.10851,-0.51806,1.89011,0.90811
333.667,20.12991,-0.52557,1.89827,0.90776
334.367,20.15136,-0.53503,1.90615,0.90742
335.067,20.1728,-0.54224,1.91275,0.90707
335.767,20.19427,-0.55218,1.92277,0.90672
336.467,20.21579,-0.56073,1.93058,0.90637
337.167,20.2373,-0.57095,1.93628,0.90603
337.867,20.25883,-0.58017,1.94476,0.90568
338.567,20.28033,-0.58989,1.95724,0.90533
339.267,20.30187,-0.59827,1.96544,0.90499
339.967,20.3233,-0.60728,1.9727,0.90464
340.667,20.3448,-0.61737,1.98133,0.9043
341.367,20.36637,-0.62693,1.99153,0.90395
342.067,20.38784,-0.6383,2.0019,0.9036
342.767,20.40936,-0.64814,2.01179,0.90326
343.467,20.43092,-0.66033,2.02359,0.90291
344.167,20.4525,-0.67011,2.03226,0.90257
344.867,20.4741,-0.68215,2.04303,0.90222
345.567,20.4957,-0.69215,2.05701,0.90188
346.267,20.51728,-0.70372,2.06936,0.90153
346.967,20.53886,-0.71458,2.08117,0.90119
347.667,20.56036,-0.72606,2.09458,0.90084
348.367,20.58172,-0.73766,2.11165,0.9005
349.067,20.6033,-0.74795,2.1272,0.90015
349.767,20.62485,-0.7612,2.14164,0.89981
350.467,20.64644,-0.77311,2.15668,0.89946
351.167,20.66822,-0.78729,2.17336,0.89912
351.867,20.68984,-0.79864,2.18937,0.89877
352.567,20.71145,-0.81373,2.20868,0.89843
353.267,20.73305,-0.82581,2.22672,0.89808
353.967,20.75461,-0.84042,2.24475,0.89774
354.667,20.77628,-0.85295,2.26559,0.8974
355.367,20.79786,-0.86748,2.28869,0.89705
356.067,20.81949,-0.88125,2.30753,0.89671
356.767,20.8412,-0.89591,2.32976,0.89636
357.467,20.8628,-0.91081,2.35317,0.89602
358.167,20.88441,-0.9251,2.37556,0.89568
358.867,20.90606,-0.94185,2.3973,0.89533
359.567,20.92769,-0.95656,2.42422,0.89499
360.267,20.9494,-0.97591,2.44792,0.89465
360.967,20.971,-0.99055,2.47126,0.8943
361.667,20.99267,-1.00873,2.49794,0.89396
362.367,21.01432,-1.02413,2.52399,0.89362
363.067,21.03598,-1.04243,2.5464,0.89327
363.767,21.05765,-1.05873,2.57437,0.89293
364.467,21.0793,-1.07707,2.59583,0.89259
365.167,21.10104,-1.09597,2.62202,0.89224
365.867,21.12272,-1.11437,2.64483,0.8919
366.567,21.14441,-1.13412,2.67217,0.89156
367.267,21.16615,-1.15199,2.69536,0.89121
367.967,21.1878,-1.17369,2.71622,0.89087
368.667,21.20949,-1.19235,2.73877,0.89053
369.367,21.23121,-1.21532,2.75822,0.89019
370.067,21.25287,-1.2329,2.77679,0.88984
370.767,21.2746,-1.25467,2.79615,0.8895
371.467,21.2964,-1.2739,2.81001,0.88916
372.167,21.31815,-1.29626,2.82349,0.88881
372.867,21.33987,-1.31685,2.8326,0.88847
373.567,21.36155,-1.33851,2.84209,0.88813
374.267,21.38327,-1.36113,2.84725,0.88779
374.967,21.40498,-1.38162,2.85109,0.88744
375.667,21.42675,-1.4047,2.85152,0.8871
376.367,21.44846,-1.42432,2.84947,0.88676
377.067,21.4702,-1.44774,2.84023,0.88641
377.767,21.49191,-1.46656,2.82938,0.88607
378.467,21.51366,-1.49025,2.8152,0.88573
379.167,21.5354,-1.51002,2.79726,0.88539
379.867,21.55716,-1.53308,2.77627,0.88504
380.567,21.5788,-1.55313,2.75061,0.8847
381.267,21.6004,-1.57371,2.71897,0.88436
381.967,21.62193,-1.59432,2.68668,0.88401
382.667,21.6435,-1.61424,2.65056,0.88367
383.367,21.66524,-1.63489,2.6089,0.88333
384.067,21.687,-1.6521,2.56454,0.88299
384.767,21.7087,-1.67231,2.51528,0.88264
385.467,21.7304,-1.68861,2.45927,0.8823
386.167,21.75207,-1.70779,2.4049,0.88196
386.867,21.7738,-1.72265,2.34293,0.88161
387.567,21.79551,-1.74031,2.28587,0.88127
388.267,21.81726,-1.75518,2.2169,0.88093
388.967,21.83897,-1.77056,2.1528,0.88058
389.667,21.86061,-1.78395,2.08479,0.88024
390.367,21.8823,-1.7969,2.01486,0.8799
391.067,21.9039,-1.80955,1.9437,0.87955
391.767,21.92555,-1.82056,1.87581,0.87921
392.467,21.94724,-1.83312,1.80625,0.87887
393.167,21.9689,-1.84298,1.73927,0.87852
393.867,21.9905,-1.85356,1.67428,0.87818
394.567,22.01206,-1.8616,1.61135,0.87784
395.267,22.03366,-1.87199,1.55144,0.87749
395.967,22.05526,-1.87955,1.49915,0.87715
396.667,22.07695,-1.88749,1.44763,0.8768
397.367,22.0986,-1.89419,1.40201,0.87646
398.067,22.12017,-1.90089,1.35952,0.87612
398.767,22.14191,-1.90709,1.32714,0.87577
399.467,22.16357,-1.91306,1.2953,0.87543
400.167,22.18528,-1.92001,1.2661,0.87508
400.867,22.20701,-1.92562,1.2431,0.87474
401.567,22.22866,-1.93137,1.22391,0.8744
402.267,22.2503,-1.93569,1.20916,0.87405
402.967,22.27196,-1.94123,1.19785,0.87371
403.667,22.2936,-1.94609,1.18637,0.87336
404.367,22.31524,-1.95252,1.18022,0.87302
405.067,22.3369,-1.95782,1.17378,0.87267
405.767,22.35865,-1.96366,1.17087,0.87233
406.467,22.38036,-1.96896,1.17333,0.87198
407.167,22.4022,-1.97429,1.16853,0.87164
407.867,22.42388,-1.98098,1.17189,0.87129
408.567,22.44557,-1.98649,1.17293,0.87094
409.267,22.46734,-1.9934,1.17675,0.8706
409.967,22.4892,-1.99818,1.17842,0.87025
410.667,22.51105,-2.0039,1.17989,0.86991
411.367,22.533,-2.00945,1.18536,0.86956
412.067,22.55495,-2.01587,1.18913,0.86921
412.767,22.5768,-2.02133,1.19508,0.86887
413.467,22.59864,-2.02746,1.19698,0.86852
414.167,22.62044,-2.03385,1.2037,0.86817
414.867,22.64225,-2.04129,1.20586,0.86783
415.567,22.66401,-2.04916,1.20709,0.86748
416.267,22.6858,-2.05545,1.21444,0.86713
416.967,22.7076,-2.0625,1.21646,0.86679
417.667,22.72942,-2.0686,1.21904,0.86644
418.367,22.7512,-2.07675,1.21862,0.86609
419.067,22.77299,-2.08341,1.22093,0.86574
419.767,22.79487,-2.09206,1.22102,0.8654
420.467,22.81672,-2.10061,1.22069,0.86505
421.167,22.83865,-2.10898,1.21825,0.8647
421.867,22.86064,-2.117,1.21231,0.86435
422.567,22.8825,-2.12499,1.20672,0.864
423.267,22.9044,-2.13365,1.20254,0.86366
423.967,22.92632,-2.13995,1.19385,0.86331
424.667,22.94812,-2.14852,1.18373,0.86296
425.367,22.96998,-2.15587,1.17268,0.86261
426.067,22.99185,-2.16512,1.1625,0.86226
426.767,23.01379,-2.17297,1.14836,0.86191
427.467,23.03577,-2.18266,1.13315,0.86156
428.167,23.05767,-2.19061,1.11504,0.86121
428.867,23.07961,-2.19919,1.09707,0.86086
429.567,23.10154,-2.20709,1.0773,0.86051
430.267,23.12344,-2.21444,1.05818,0.86016
430.967,23.1454,-2.22264,1.03228,0.85981
431.667,23.16732,-2.23031,1.0075,0.85946
432.367,23.18919,-2.23989,0.97752,0.85911
433.067,23.21108,-2.24683,0.95697,0.85876
433.767,23.23293,-2.25426,0.92847,0.8584
434.467,23.25478,-2.25916,0.89878,0.85805
435.167,23.27668,-2.26543,0.86733,0.8577
435.867,23.29861,-2.27105,0.83991,0.85735
436.567,23.32056,-2.27698,0.81179,0.857
437.267,23.34255,-2.28257,0.78315,0.85664
437.967,23.3645,-2.28699,0.75565,0.85629
438.667,23.38646,-2.29035,0.73072,0.85594
439.367,23.4084,-2.2937,0.70496,0.85558
440.067,23.43029,-2.2973,0.68333,0.85523
440.767,23.4523,-2.3011,0.66232,0.85488
441.467,23.47423,-2.30473,0.64862,0.85452
442.167,23.49624,-2.30898,0.62674,0.85417
442.867,23.51821,-2.31167,0.61121,0.85381
443.567,23.54017,-2.31429,0.59903,0.85346
444.267,23.56214,-2.31669,0.58595,0.85311
444.967,23.58406,-2.319,0.57365,0.85275
445.667,23.60602,-2.3208,0.56184,0.85239
446.367,23.62797,-2.32275,0.55468,0.85204
447.067,23.64989,-2.32511,0.54477,0.85168
447.767,23.6719,-2.32753,0.5359,0.85133
448.467,23.69388,-2.32994,0.52734,0.85097
449.167,23.71592,-2.33327,0.52342,0.85061
449.867,23.73799,-2.33513,0.51707,0.85026
450.567,23.76006,-2.33665,0.51075,0.8499
451.267,23.7821,-2.33858,0.50497,0.84954
451.967,23.80419,-2.34023,0.50176,0.84919
452.667,23.82628,-2.34204,0.49567,0.84883
453.367,23.84825,-2.34352,0.49744,0.84847
454.067,23.87029,-2.34623,0.49145,0.84811
454.767,23.89232,-2.34744,0.48622,0.84775
455.467,23.91434,-2.34882,0.4842,0.84739
456.167,23.9365,-2.35034,0.48205,0.84703
456.867,23.9586,-2.35108,0.4809,0.84667
457.567,23.98074,-2.35215,0.48123,0.84631
458.267,24.00291,-2.35379,0.47757,0.84595
458.967,24.02505,-2.35573,0.47804,0.84559
459.667,24.04725,-2.35808,0.47656,0.84523
460.367,24.06941,-2.35964,0.47408,0.84487
461.067,24.09157,-2.36018,0.47437,0.84451
461.767,24.11375,-2.36134,0.47053,0.84415
462.467,24.13589,-2.3627,0.46916,0.84379
463.167,24.15804,-2.36428,0.46973,0.84342
463.867,24.18013,-2.3655,0.46697,0.84306
464.567,24.20231,-2.36613,0.4666,0.8427
465.267,24.22449,-2.36761,0.46466,0.84234
465.967,24.24672,-2.36919,0.46341,0.84197
466.667,24.26891,-2.37065,0.46311,0.84161
467.367,24.2911,-2.37121,0.46371,0.84124
468.067,24.31326,-2.37237,0.46163,0.84088
468.767,24.3354,-2.37377,0.46155,0.84052
469.467,24.35765,-2.37343,0.46017,0.84015
470.167,24.37978,-2.37415,0.45739,0.83979
470.867,24.402,-2.37497,0.45804,0.83942
471.567,24.4242,-2.37536,0.45633,0.83905
472.267,24.44644,-2.37697,0.45439,0.83869
472.967,24.46872,-2.37806,0.45263,0.83832
473.667,24.49096,-2.37918,0.45292,0.83795
474.367,24.51325,-2.38027,0.44898,0.83759
475.067,24.53549,-2.38185,0.45024,0.83722
475.767,24.5578,-2.3818,0.45164,0.83685
476.467,24.5801,-2.38239,0.44816,0.83648
477.167,24.6023,-2.38335,0.44703,0.83611
477.867,24.6246,-2.38334,0.44516,0.83574
478.567,24.6468,-2.38519,0.44583,0.83538
479.267,24.66905,-2.38594,0.44201,0.83501
479.967,24.69131,-2.38731,0.43974,0.83464
480.667,24.71358,-2.38698,0.43626,0.83426
481.367,24.73591,-2.38579,0.43924,0.83389
482.067,24.75814,-2.38687,0.43608,0.83352
482.767,24.78042,-2.38944,0.43524,0.83315
483.467,24.80269,-2.39171,0.4331,0.83278
484.167,24.82497,-2.39319,0.43221,0.83241
484.867,24.84729,-2.39397,0.43014,0.83203
485.567,24.86961,-2.39511,0.42734,0.83166
486.267,24.89189,-2.39668,0.42429,0.83129
486.967,24.9142,-2.39739,0.42315,0.83091
487.667,24.93655,-2.39764,0.42014,0.83054
488.367,24.9589,-2.3983,0.41928,0.83017
489.067,24.98125,-2.39903,0.41737,0.82979
489.767,25.0036,-2.39993,0.4142,0.82942
490.467,25.0259,-2.40163,0.41282,0.82904
491.167,25.04823,-2.40296,0.40854,0.82866
491.867,25.07054,-2.40313,0.40714,0.82829
492.567,25.09292,-2.40446,0.40469,0.82791
493.267,25.1153,-2.4031,0.40474,0.82753
493.967,25.13765,-2.40446,0.40021,0.82716
494.667,25.16007,-2.40442,0.39774,0.82678
495.367,25.18243,-2.40579,0.39758,0.8264
496.067,25.2048,-2.4058,0.39457,0.82602
496.767,25.22709,-2.40712,0.39395,0.82564
497.467,25.24939,-2.40707,0.39028,0.82526
498.167,25.27157,-2.40784,0.38894,0.82488
498.867,25.29382,-2.40836,0.38682,0.8245
499.567,25.31634,-2.40838,0.3834,0.82412
500.267,25.3388,-2.40893,0.38195,0.82374
500.967,25.36143,-2.40968,0.37637,0.82336
501.667,25.38395,-2.41051,0.37673,0.82298
502.367,25.40635,-2.4113,0.37239,0.82259
503.067,25.42876,-2.41268,0.36967,0.82221
503.767,25.45114,-2.4134,0.3678,0.82183
504.467,25.4736,-2.41396,0.36644,0.82144
505.167,25.49606,-2.41396,0.36307,0.82106
505.867,25.51843,-2.4152,0.3603,0.82068
506.567,25.5409,-2.41634,0.35705,0.82029
507.267,25.5632,-2.41662,0.35809,0.81991
507.967,25.58559,-2.41713,0.35705,0.81952
508.667,25.60799,-2.4179,0.35083,0.81913
509.367,25.6304,-2.41692,0.35078,0.81875
510.067,25.65279,-2.41829,0.34757,0.81836
510.767,25.67522,-2.41831,0.34761,0.81797
511.467,25.69771,-2.41972,0.34301,0.81758
512.167,25.72012,-2.41967,0.34192,0.8172
512.867,25.74263,-2.42105,0.34032,0.81681
513.567,25.76509,-2.42126,0.33934,0.81642
514.267,25.78754,-2.42232,0.3344,0.81603
514.967,25.81007,-2.4223,0.33382,0.81564
515.667,25.83247,-2.42366,0.33215,0.81525
516.367,25.85493,-2.42358,0.33264,0.81486
517.067,25.87741,-2.42483,0.33013,0.81446
517.767,25.89978,-2.42494,0.32593,0.81407
518.467,25.9223,-2.42549,0.32719,0.81368
519.167,25.9448,-2.42622,0.3247,0.81329
519.867,25.96721,-2.42624,0.32245,0.81289
520.567,25.98976,-2.42756,0.31943,0.8125
521.267,26.01226,-2.42758,0.31893,0.81211
521.967,26.03473,-2.42757,0.31458,0.81171
522.667,26.05724,-2.42772,0.31169,0.81132
523.367,26.07976,-2.42889,0.31128,0.81092
524.067,26.10227,-2.42886,0.30892,0.81052
524.767,26.12482,-2.42976,0.30489,0.81013
525.467,26.14734,-2.42987,0.30223,0.80973
526.167,26.16985,-2.42987,0.30327,0.80933
526.867,26.1924,-2.43102,0.30223,0.80893
527.567,26.2149,-2.43119,0.30179,0.80854
528.267,26.2375,-2.43119,0.29838,0.80814
528.967,26.26,-2.43152,0.29824,0.80774
529.667,26.28258,-2.4326,0.29737,0.80734
530.367,26.3051,-2.43387,0.29191,0.80694
531.067,26.32763,-2.43382,0.29289,0.80654
531.767,26.3502,-2.43382,0.28717,0.80614
532.467,26.37268,-2.43442,0.28532,0.80573
533.167,26.3953,-2.43512,0.28428,0.80533
533.867,26.41788,-2.43513,0.2824,0.80493
534.567,26.4404,-2.43648,0.28022,0.80453
535.267,26.463,-2.43641,0.27698,0.80412
535.967,26.4856,-2.43772,0.27793,0.80372
536.667,26.5081,-2.43776,0.27469,0.80331
537.367,26.53068,-2.43781,0.2745,0.80291
538.067,26.55327,-2.4391,0.27101,0.8025
538.767,26.57589,-2.43909,0.27005,0.80209
539.467,26.59852,-2.43906,0.27037,0.80169
540.167,26.6212,-2.44044,0.26992,0.80128
540.867,26.6438,-2.44041,0.26487,0.80087
541.567,26.66633,-2.44041,0.26443,0.80046
542.267,26.6889,-2.44041,0.26949,0.80006
542.967,26.7115,-2.4409,0.26814,0.79965
543.667,26.7341,-2.44047,0.26989,0.79924
544.367,26.75674,-2.44053,0.27042,0.79883
545.067,26.7794,-2.44173,0.27339,0.79841
545.767,26.80203,-2.44168,0.27486,0.798
546.467,26.8247,-2.44295,0.27408,0.79759
547.167,26.8473,-2.44303,0.27787,0.79718
547.867,26.87,-2.44303,0.27594,0.79677
548.567,26.89275,-2.4444,0.27717,0.79635
549.267,26.9155,-2.44435,0.27723,0.79594
549.967,26.93818,-2.44435,0.2755,0.79552
550.667,26.96088,-2.44435,0.27627,0.79511
551.367,26.9835,-2.44435,0.27754,0.79469
552.067,27.0061,-2.44435,0.27717,0.79428
552.767,27.02873,-2.44435,0.27463,0.79386
553.467,27.0514,-2.44436,0.27487,0.79344
554.167,27.0741,-2.44569,0.27333,0.79303
554.867,27.0968,-2.44696,0.27339,0.79261
555.567,27.1195,-2.44698,0.2738,0.79219
556.267,27.14218,-2.44834,0.27257,0.79177
556.967,27.16475,-2.44831,0.27027,0.79135
557.667,27.18743,-2.44835,0.27092,0.79093
558.367,27.21015,-2.44864,0.27169,0.79051
559.067,27.23293,-2.44864,0.27259,0.79009
559.767,27.2558,-2.44872,0.2703,0.78967
560.467,27.27862,-2.44998,0.2702,0.78924
561.167,27.3013,-2.44995,0.27001,0.78882
561.867,27.3241,-2.44991,0.26581,0.7884
562.567,27.3469,-2.45112,0.26568,0.78797
563.267,27.3697,-2.45126,0.26327,0.78755
563.967,27.39248,-2.45126,0.26418,0.78712
564.667,27.41522,-2.45118,0.26187,0.7867
565.367,27.4379,-2.45305,0.25822,0.78627
566.067,27.4606,-2.45389,0.259,0.78584
566.767,27.48323,-2.4539,0.25511,0.78542
567.467,27.50605,-2.45423,0.25651,0.78499
568.167,27.52882,-2.45521,0.25415,0.78456
568.867,27.55166,-2.4552,0.25143,0.78413
569.567,27.57462,-2.4552,0.24967,0.7837
570.267,27.59745,-2.45513,0.24713,0.78327
570.967,27.6203,-2.45586,0.2471,0.78284
571.667,27.6432,-2.45468,0.24772,0.78241
572.367,27.6661,-2.45455,0.24293,0.78198
573.067,27.68892,-2.45455,0.24169,0.78154
573.767,27.71175,-2.45455,0.23843,0.78111
574.467,27.73456,-2.45455,0.23794,0.78068
575.167,27.75735,-2.45455,0.23634,0.78024
575.867,27.78016,-2.45455,0.23157,0.77981
576.567,27.803,-2.455,0.22956,0.77937
577.267,27.8259,-2.45627,0.22679,0.77894
577.967,27.8488,-2.45738,0.22237,0.7785
578.667,27.87163,-2.45741,0.2187,0.77806
579.367,27.8945,-2.45742,0.2184,0.77763
580.067,27.91732,-2.45784,0.21283,0.77719
580.767,27.94016,-2.45873,0.2107,0.77675
581.467,27.96305,-2.45938,0.20415,0.77631
582.167,27.986,-2.46077,0.20342,0.77587
582.867,28.00883,-2.46072,0.19918,0.77543
583.567,28.03176,-2.45917,0.19674,0.77499
584.267,28.0546,-2.46029,0.19174,0.77455
584.967,28.0775,-2.45914,0.19225,0.7741
585.667,28.10039,-2.45916,0.18526,0.77366
586.367,28.1232,-2.45919,0.183,0.77322
587.067,28.14609,-2.46054,0.18049,0.77277
587.767,28.16899,-2.46047,0.17983,0.77233
588.467,28.1919,-2.46048,0.17947,0.77188
589.167,28.21479,-2.46091,0.17642,0.77144
589.867,28.2377,-2.46179,0.1714,0.77099
590.567,28.26065,-2.46179,0.17116,0.77054
591.267,28.2836,-2.46185,0.16985,0.7701
591.967,28.3065,-2.46283,0.16887,0.76965
592.667,28.32948,-2.4631,0.16582,0.7692
593.367,28.35241,-2.46312,0.16224,0.76875
594.067,28.3753,-2.4634,0.16014,0.7683
594.767,28.3983,-2.46445,0.16172,0.76785
595.467,28.42122,-2.46443,0.15753,0.7674
596.167,28.4442,-2.46443,0.1534,0.76695
596.867,28.4672,-2.46444,0.15021,0.7665
597.567,28.4902,-2.46509,0.14889,0.76604
598.267,28.51312,-2.46573,0.14899,0.76559
598.967,28.53608,-2.46574,0.14661,0.76514
599.667,28.55909,-2.46548,0.14131,0.76468
600.367,28.58209,-2.46444,0.14442,0.76423
601.067,28.60507,-2.46444,0.14191,0.76377
601.767,28.6281,-2.4652,0.1375,0.76331
602.467,28.651,-2.4647,0.13712,0.76286
603.167,28.67395,-2.46474,0.13367,0.7624
603.867,28.6969,-2.46475,0.12991,0.76194
604.567,28.71984,-2.46475,0.13155,0.76148
605.267,28.74281,-2.46653,0.12473,0.76102
605.967,28.7658,-2.46737,0.12564,0.76056
606.667,28.7889,-2.46739,0.12486,0.7601
607.367,28.8119,-2.46789,0.11954,0.75964
608.067,28.8348,-2.4687,0.11794,0.75918
608.767,28.85775,-2.46946,0.11483,0.75872
609.467,28.88073,-2.47013,0.11394,0.75825
610.167,28.9037,-2.47013,0.113,0.75779
610.867,28.9268,-2.47013,0.11106,0.75732
611.567,28.94988,-2.47013,0.11174,0.75686
612.267,28.9729,-2.47026,0.10719,0.75639
612.967,28.99591,-2.47148,0.10389,0.75593
613.667,29.019,-2.47144,0.1029,0.75546
614.367,29.042,-2.47144,0.1008,0.75499
615.067,29.06502,-2.47144,0.10007,0.75453
615.767,29.08817,-2.47144,0.09802351,0.75406
616.467,29.11117,-2.47144,0.09650858,0.75359
617.167,29.1342,-2.47144,0.09578324,0.75312
617.867,29.15725,-2.47145,0.091544,0.75265
618.567,29.18031,-2.47213,0.09118519,0.75218
619.267,29.2034,-2.47274,0.08929826,0.7517
619.967,29.2264,-2.47271,0.08793069,0.75123
620.667,29.2495,-2.47406,0.08547447,0.75076
621.367,29.2725,-2.47408,0.08308727,0.75029
622.067,29.2955,-2.47416,0.08790924,0.74981
622.767,29.31837,-2.47542,0.08524307,0.74934
623.467,29.3414,-2.47539,0.08163146,0.74886
624.167,29.36438,-2.47531,0.08240027,0.74838
624.867,29.38748,-2.47669,0.0781098,0.74791
625.567,29.4107,-2.47672,0.07869079,0.74743
626.267,29.4338,-2.47837,0.07893602,0.74695
626.967,29.4569,-2.47913,0.08023844,0.74647
627.667,29.48,-2.47912,0.07557414,0.74599
628.367,29.50305,-2.47912,0.07709522,0.74552
629.067,29.5261,-2.47912,0.07855138,0.74503
629.767,29.5491,-2.47912,0.07706675,0.74455
630.467,29.5721,-2.47912,0.07659969,0.74407
631.167,29.59501,-2.47912,0.07724715,0.74359
631.867,29.618,-2.47913,0.07793728,0.74311
632.567,29.6411,-2.47987,0.07583143,0.74262
633.267,29.6642,-2.48043,0.07771726,0.74214
633.967,29.68732,-2.48044,0.07527441,0.74165
634.667,29.7105,-2.48081,0.0776178,0.74117
635.367,29.73353,-2.48208,0.07582889,0.74068
636.067,29.75664,-2.48199,0.07985901,0.7402
636.767,29.77975,-2.48339,0.07792694,0.73971
637.467,29.8028,-2.48339,0.08174138,0.73922
638.167,29.82595,-2.48339,0.079134,0.73873
638.867,29.84905,-2.48339,0.07863474,0.73824
639.567,29.87215,-2.48339,0.07796824,0.73775
640.267,29.8952,-2.48339,0.08051967,0.73726
640.967,29.91827,-2.48339,0.07858224,0.73677
641.667,29.9414,-2.48339,0.08023524,0.73628
642.367,29.9645,-2.48338,0.07914246,0.73579
643.067,29.9877,-2.48331,0.07951361,0.73529
643.767,30.01084,-2.48471,0.08006177,0.7348
644.467,30.034,-2.4847,0.08194301,0.73431
645.167,30.05712,-2.4858,0.08246056,0.73381
645.867,30.08023,-2.48603,0.08221882,0.73332
646.567,30.1034,-2.48596,0.08324949,0.73282
647.267,30.12665,-2.48731,0.08940415,0.73232
647.967,30.14985,-2.48734,0.08807326,0.73183
648.667,30.173,-2.48759,0.09225645,0.73133
649.367,30.19616,-2.48867,0.09326173,0.73083
650.067,30.21942,-2.48866,0.09541381,0.73033
650.767,30.2427,-2.48866,0.09637726,0.72983
651.467,30.26598,-2.48861,0.09891382,0.72933
652.167,30.28923,-2.49015,0.1034,0.72883
652.867,30.3124,-2.49038,0.10313,0.72833
653.567,30.33555,-2.4915,0.11106,0.72782
654.267,30.35877,-2.49098,0.11048,0.72732
654.967,30.38196,-2.49134,0.11555,0.72682
655.667,30.4051,-2.49152,0.11751,0.72631
656.367,30.4283,-2.49148,0.12107,0.72581
657.067,30.45155,-2.49287,0.12607,0.7253
657.767,30.4748,-2.49284,0.13031,0.72479
658.467,30.49792,-2.49285,0.13008,0.72429
659.167,30.52107,-2.4939,0.1364,0.72378
659.867,30.5443,-2.49415,0.13747,0.72327
660.567,30.5674,-2.49431,0.1392,0.72276
661.267,30.5907,-2.49546,0.14338,0.72225
661.967,30.61389,-2.49547,0.14505,0.72174
662.667,30.63707,-2.4956,0.15012,0.72123
663.367,30.66023,-2.49678,0.15647,0.72072
664.067,30.68338,-2.49676,0.15872,0.72021
664.767,30.7066,-2.4963,0.16408,0.7197
665.467,30.7298,-2.49689,0.16633,0.71918
666.167,30.75303,-2.49703,0.16859,0.71867
666.867,30.7763,-2.49824,0.1744,0.71815
667.567,30.7994,-2.4982,0.17458,0.71764
668.267,30.8226,-2.4982,0.17689,0.71712
668.967,30.84585,-2.4982,0.17997,0.71661
669.667,30.86915,-2.49818,0.18353,0.71609
670.367,30.8924,-2.49957,0.18783,0.71557
671.067,30.9157,-2.49961,0.19042,0.71505
671.767,30.9389,-2.50086,0.1953,0.71453
672.467,30.9621,-2.50082,0.19851,0.71401
673.167,30.98527,-2.50191,0.19802,0.71349
673.867,31.0084,-2.50218,0.20319,0.71297
674.567,31.0317,-2.50081,0.20381,0.71245
675.267,31.055,-2.50236,0.20541,0.71193
675.967,31.0782,-2.50224,0.20996,0.71141
676.667,31.10145,-2.50363,0.21186,0.71088
677.367,31.1246,-2.50242,0.21429,0.71036
678.067,31.1479,-2.50372,0.21331,0.70983
678.767,31.1712,-2.50377,0.21347,0.70931
679.467,31.19448,-2.50513,0.21565,0.70878
680.167,31.21779,-2.50619,0.21809,0.70825
680.867,31.24108,-2.50779,0.2176,0.70773
681.567,31.26437,-2.50936,0.21979,0.7072
682.267,31.2877,-2.50929,0.21709,0.70667
682.967,31.31089,-2.50926,0.21345,0.70614
683.667,31.33413,-2.5115,0.21458,0.70561
684.367,31.35737,-2.51191,0.21314,0.70508
685.067,31.38059,-2.51337,0.2106,0.70455
685.767,31.40382,-2.51339,0.20628,0.70402
686.467,31.42713,-2.51472,0.20095,0.70349
687.167,31.4504,-2.51466,0.19689,0.70295
687.867,31.47363,-2.51577,0.19419,0.70242
688.567,31.4969,-2.51479,0.19085,0.70188
689.267,31.5201,-2.51597,0.18403,0.70135
689.967,31.5434,-2.516,0.18059,0.70081
690.667,31.5667,-2.51735,0.17321,0.70028
691.367,31.59,-2.51729,0.17135,0.69974
692.067,31.6132,-2.5189,0.16819,0.6992
692.767,31.63642,-2.51926,0.16468,0.69867
693.467,31.65969,-2.51926,0.16231,0.69813
694.167,31.6829,-2.52063,0.16012,0.69759
694.867,31.70617,-2.52058,0.16078,0.69705
695.567,31.72942,-2.52058,0.15934,0.69651
696.267,31.7527,-2.5207,0.15736,0.69597
696.967,31.776,-2.52195,0.16037,0.69542
697.667,31.79935,-2.5225,0.16405,0.69488
698.367,31.8227,-2.52328,0.16451,0.69434
699.067,31.846,-2.52444,0.16492,0.69379
699.767,31.86928,-2.52464,0.16792,0.69325
700.467,31.8925,-2.52523,0.16662,0.6927
701.167,31.9158,-2.52519,0.16606,0.69216
701.867,31.939,-2.52495,0.16387,0.69161
702.567,31.9623,-2.52632,0.16115,0.69107
703.267,31.9856,-2.52619,0.15433,0.69052
703.967,32.00888,-2.52761,0.14848,0.68997
704.667,32.03218,-2.5287,0.14075,0.68942
705.367,32.0554,-2.52877,0.13261,0.68887
706.067,32.0786,-2.53004,0.11941,0.68832
706.767,32.1019,-2.53001,0.10873,0.68777
707.467,32.1252,-2.52995,0.09046094,0.68722
708.167,32.14848,-2.53098,0.0742949,0.68667
708.867,32.17173,-2.53096,0.05548856,0.68611
709.567,32.1948,-2.53068,0.03062163,0.68556
710.267,32.2181,-2.53185,0.00576094,0.68501
710.967,32.24139,-2.532,-0.02105054,0.68445
711.667,32.2647,-2.53223,-0.04823668,0.6839
712.367,32.28805,-2.53333,-0.0667826,0.68334
713.067,32.3111,-2.53331,-0.08267169,0.68279
713.767,32.3342,-2.53335,-0.08923698,0.68223
714.467,32.35758,-2.53468,-0.10049,0.68167
715.167,32.381,-2.53536,-0.10661,0.68111
715.867,32.40449,-2.53592,-0.10727,0.68056
716.567,32.42797,-2.53586,-0.11064,0.68
717.267,32.45109,-2.53725,-0.11315,0.67944
717.967,32.47418,-2.5373,-0.12047,0.67888
718.667,32.49734,-2.53862,-0.12275,0.67831
719.367,32.52047,-2.53857,-0.12347,0.67775
720.067,32.5437,-2.53857,-0.12343,0.67719
720.767,32.567,-2.53858,-0.12431,0.67663
721.467,32.59026,-2.53856,-0.1251,0.67606
722.167,32.6135,-2.53755,-0.12228,0.6755
722.867,32.6368,-2.53857,-0.12643,0.67493
723.567,32.65996,-2.53857,-0.12874,0.67437
724.267,32.68319,-2.53857,-0.12616,0.6738
724.967,32.70645,-2.5386,-0.12894,0.67324
725.667,32.7297,-2.53953,-0.12873,0.67267
726.367,32.753,-2.53989,-0.12874,0.6721
727.067,32.77623,-2.53988,-0.13061,0.67153
727.767,32.7996,-2.53926,-0.1316,0.67096
728.467,32.82298,-2.53858,-0.13436,0.67039
729.167,32.8464,-2.53856,-0.13291,0.66982
729.867,32.86976,-2.53856,-0.13557,0.66925
730.567,32.89308,-2.5399,-0.13409,0.66868
731.267,32.91632,-2.53989,-0.13499,0.66811
731.967,32.9397,-2.53989,-0.1366,0.66754
732.667,32.96304,-2.53849,-0.13608,0.66696
733.367,32.98633,-2.53918,-0.13628,0.66639
734.067,33.00966,-2.53989,-0.13563,0.66581
734.767,33.03291,-2.53989,-0.13318,0.66524
735.467,33.05618,-2.53989,-0.13212,0.66466
736.167,33.0795,-2.53989,-0.13513,0.66409
736.867,33.10283,-2.53989,-0.13792,0.66351
737.567,33.12618,-2.53989,-0.13895,0.66293
738.267,33.14951,-2.53989,-0.13979,0.66235
738.967,33.1728,-2.5405,-0.14158,0.66177
739.667,33.19613,-2.54118,-0.13726,0.6612
740.367,33.21949,-2.5412,-0.13855,0.66062
741.067,33.24282,-2.54121,-0.13903,0.66003
741.767,33.26618,-2.54063,-0.13886,0.65945
742.467,33.28955,-2.54054,-0.13913,0.65887
743.167,33.3129,-2.54048,-0.14051,0.65829
743.867,33.33615,-2.53986,-0.14129,0.65771
744.567,33.35944,-2.53988,-0.13945,0.65712
745.267,33.3827,-2.54048,-0.1428,0.65654
745.967,33.40603,-2.54118,-0.13943,0.65595
746.667,33.42938,-2.5412,-0.13961,0.65537
747.367,33.4527,-2.54125,-0.14302,0.65478
748.067,33.4761,-2.53992,-0.1389,0.6542
748.767,33.4994,-2.53988,-0.13952,0.65361
749.467,33.52276,-2.53988,-0.14072,0.65302
750.167,33.5461,-2.53998,-0.14251,0.65243
750.867,33.56946,-2.54121,-0.14333,0.65185
751.567,33.59288,-2.5412,-0.14435,0.65126
752.267,33.61629,-2.5412,-0.1413,0.65067
752.967,33.63961,-2.5412,-0.14081,0.65008
753.667,33.66304,-2.5412,-0.14591,0.64949
754.367,33.6865,-2.5412,-0.14469,0.64889
755.067,33.70987,-2.5412,-0.14466,0.6483
755.767,33.73342,-2.5412,-0.14385,0.64771
756.467,33.75675,-2.5412,-0.14707,0.64712
757.167,33.78017,-2.54154,-0.14481,0.64652
757.867,33.80359,-2.54249,-0.15016,0.64593
758.567,33.82707,-2.54251,-0.14884,0.64533
759.267,33.85052,-2.54385,-0.14802,0.64474
759.967,33.874,-2.54349,-0.14805,0.64414
760.667,33.8975,-2.54252,-0.14703,0.64354
761.367,33.9208,-2.54251,-0.15007,0.64295
762.067,33.94429,-2.54325,-0.151,0.64235
762.767,33.96767,-2.54318,-0.15166,0.64175
763.467,33.99108,-2.54318,-0.151,0.64115
764.167,34.0146,-2.54318,-0.15555,0.64055
764.867,34.03803,-2.54318,-0.15048,0.63995
765.567,34.06151,-2.54316,-0.15531,0.63935
766.267,34.08497,-2.54476,-0.15683,0.63875
766.967,34.10845,-2.54514,-0.15434,0.63815
767.667,34.13194,-2.54515,-0.15708,0.63755
768.367,34.1555,-2.54515,-0.15925,0.63694
769.067,34.17899,-2.54515,-0.15925,0.63634
769.767,34.20243,-2.54516,-0.15848,0.63573
770.467,34.22585,-2.54547,-0.16052,0.63513
771.167,34.24927,-2.54644,-0.15702,0.63452
771.867,34.27272,-2.54779,-0.16044,0.63392
772.567,34.2962,-2.54778,-0.1641,0.63331
773.267,34.3197,-2.54778,-0.16305,0.63271
773.967,34.34313,-2.54919,-0.1632,0.6321
774.667,34.36668,-2.54911,-0.16298,0.63149
775.367,34.3902,-2.54909,-0.16141,0.63088
776.067,34.41369,-2.54815,-0.16162,0.63027
776.767,34.43715,-2.54812,-0.15897,0.62966
777.467,34.4606,-2.54811,-0.16349,0.62905
778.167,34.48407,-2.54933,-0.16263,0.62844
778.867,34.5076,-2.54943,-0.15925,0.62783
779.567,34.53112,-2.54943,-0.15882,0.62722
780.267,34.5546,-2.54943,-0.15899,0.62661
780.967,34.5781,-2.54939,-0.15886,0.626
781.667,34.60153,-2.55078,-0.16218,0.62538
782.367,34.62506,-2.55059,-0.15834,0.62477
783.067,34.64855,-2.55042,-0.16161,0.62415
783.767,34.6721,-2.55041,-0.15924,0.62354
784.467,34.6956,-2.54992,-0.16217,0.62292
785.167,34.71908,-2.55001,-0.1613,0.62231
785.867,34.74262,-2.55042,-0.16431,0.62169
786.567,34.76611,-2.55043,-0.1623,0.62108
787.267,34.78965,-2.55044,-0.15984,0.62046
787.967,34.81313,-2.54909,-0.16038,0.61984
788.667,34.83658,-2.5491,-0.16346,0.61922
789.367,34.8601,-2.5491,-0.16254,0.6186
790.067,34.8836,-2.5491,-0.16453,0.61798
790.767,34.90703,-2.5491,-0.16246,0.61736
791.467,34.93054,-2.5491,-0.16453,0.61674
792.167,34.95411,-2.5491,-0.16902,0.61612
792.867,34.9777,-2.5491,-0.16864,0.6155
793.467,34.9981,-2.5491,-0.16817,0.61497