File: 01_Data/Vinyl_Plank_Flooring/Cone/Vinyl_Plank_Flooring_Cone_HF25Scan_220311_R3.csv
Names,Time,Stack TC,Smoke TC,Exh Press,Smoke Comp,Smoke Meas,CO Meter,CO2 Meter,O2 Meter,Sample Mass,Ext Coeff,Start Test,Flame Verif
Chan Gain,,500,500,1,1,1,1,1,1,1,1,1.0,1.0
Offset,,0,0,0.136191,0,0,0,0,0,0,0,0.0,0.0
Gain,,1,1,25.011,13.291,13.2919,1,1,1,1.00093,1.00758,1.0,1.0
Units,sec,C,C,Pa,%,%,%,%,%,g,/m,,
Baseline,,18.9354,19.3823,175.769,99.5298,96.458,0.000602642,0.0411581,21.0848,-0.988293,0.277088,,
2,0.25,17.3958,17.7241,172.799,100.6,96.5992,0.000646234,0.0420582,21.081,493.127,0.358676,0.0,0.0
4,0.75,17.3977,17.5513,175.168,100.595,97.6279,0.000635311,0.042105,21.081,493.177,0.26459,0.0,0.0
6,1.25,17.7412,18.0073,176.667,100.589,97.5638,0.000616632,0.0421565,21.081,493.337,0.269931,0.0,0.0
8,1.75,17.9669,18.5809,172.11,100.579,97.1411,0.000601503,0.0422124,21.081,493.227,0.307378,0.0,0.0
10,2.25,17.307,18.2539,167.101,100.568,96.9022,0.000591665,0.0422706,21.081,493.187,0.328215,0.0,0.0
12,2.75,17.4812,17.9661,180.305,100.55,97.1869,0.000583697,0.0423177,21.081,493.287,0.30064,0.0,0.0
14,3.25,17.2909,17.8032,177.447,100.532,97.3252,0.000577243,0.0423693,21.081,493.247,0.286538,0.0,0.0
16,3.75,17.712,18.3289,176.725,100.514,97.0441,0.000572015,0.0423914,21.081,493.187,0.310497,0.0,0.0
18,4.25,17.2566,17.4512,172.665,100.498,97.2437,0.000564599,0.042429,21.081,493.247,0.290914,0.0,0.0
20,4.75,17.5806,18.3192,178.932,100.47,97.0616,0.000555729,0.0424325,21.081,493.257,0.30502,0.0,0.0
22,5.25,17.5617,17.2303,175.327,100.446,96.8235,0.000552362,0.0424353,21.081,493.227,0.324624,0.0,0.0
24,5.75,17.7698,18.247,176.123,100.412,97.2088,0.00055307,0.0423969,21.081,493.247,0.286554,0.0,0.0
26,6.25,17.6451,17.949,173.97,100.376,97.5605,0.000563191,0.0423659,21.081,493.257,0.251458,0.0,0.0
28,6.75,17.4397,17.9748,175.565,100.342,97.4546,0.00057998,0.0423763,21.081,493.237,0.258018,0.0,0.0
30,7.25,17.3831,18.0732,179.555,100.317,97.1374,0.000598674,0.0424169,21.081,493.237,0.284655,0.0,0.0
32,7.75,17.7761,18.2731,178.333,100.258,96.6227,0.000618399,0.0424426,21.081,493.257,0.326397,0.0,0.0
34,8.25,17.7755,18.078,177.723,100.225,97.0778,0.000634377,0.042457,21.081,493.247,0.281965,0.0,0.0
36,8.75,17.4055,17.8691,173.072,100.164,96.6563,0.000647319,0.0424401,21.081,493.237,0.315053,0.0,0.0
38,9.25,17.7817,17.8212,173.901,100.11,96.5651,0.000665445,0.0424009,21.081,493.237,0.318606,0.0,0.0
40,9.75,18.1229,18.3053,179.883,100.059,96.2491,0.000687005,0.042362,21.0817,493.237,0.343098,0.0,0.0
42,10.25,17.431,17.732,173.704,100.008,96.4276,0.000707655,0.042324,21.0823,493.217,0.322208,0.0,0.0
44,10.75,18.0395,18.0349,178.818,99.9481,96.0341,0.000727249,0.0422933,21.0827,493.237,0.353075,0.0,0.0
46,11.25,17.6031,18.3812,176.956,99.9027,96.0102,0.00074312,0.0422684,21.0831,493.247,0.35126,0.0,0.0
48,11.75,17.5367,17.5929,171.867,99.8495,95.7713,0.000759607,0.0423836,21.0834,493.237,0.368579,0.0,0.0
50,12.25,17.1715,17.8387,176.05,99.7859,96.7444,0.000773599,0.0424768,21.0836,493.237,0.273587,0.0,0.0
52,12.75,17.4787,17.9164,173.712,99.7287,95.9315,0.000785505,0.0425524,21.0838,493.237,0.3431,0.0,0.0
54,13.25,17.9817,18.0562,175.373,99.6723,95.8426,0.00079515,0.0427895,21.084,493.217,0.34629,0.0,0.0
56,13.75,17.2654,17.992,176.142,99.6119,95.6167,0.00079933,0.0429816,21.0841,493.217,0.361788,0.0,0.0
58,14.25,17.7918,18.1352,176.02,99.562,96.1039,0.000802716,0.0433132,21.0842,493.227,0.312444,0.0,0.0
60,14.75,17.2976,18.1594,176.074,99.5048,95.9428,0.000799088,0.0435818,21.0843,493.217,0.322188,0.0,0.0
62,15.25,17.7778,18.1471,176.718,99.446,96.1745,0.000790415,0.0439077,21.0844,493.227,0.295651,0.0,0.0
64,15.75,17.9984,17.7933,172.064,99.388,95.074,0.000786718,0.0441717,21.0844,493.227,0.392213,0.0,0.0
66,16.25,17.6132,18.1087,177.43,99.3235,95.536,0.00078167,0.0443855,21.0845,493.227,0.343629,0.0,0.0
68,16.75,17.9338,17.8396,172.125,99.2598,95.1953,0.000778728,0.0445587,21.0845,493.227,0.369539,0.0,0.0
70,17.25,17.5358,17.776,177.214,99.2067,94.9275,0.000778893,0.0446491,21.0845,493.217,0.389697,0.0,0.0
72,17.75,17.7555,18.5973,177.109,99.1418,94.4095,0.000781319,0.0446774,21.0846,493.207,0.432275,0.0,0.0
74,18.25,17.8758,18.5292,179.536,99.1142,94.6902,0.000778189,0.0447004,21.0846,493.207,0.403577,0.0,0.0
76,18.75,17.6927,18.5056,176.126,99.0391,94.6245,0.000771067,0.044703,21.0846,493.197,0.403018,0.0,0.0
78,19.25,18.0725,18.2685,170.691,99.0018,94.674,0.000759567,0.0447076,21.0846,493.197,0.395066,0.0,0.0
80,19.75,17.7053,18.2281,175.124,98.9475,94.2692,0.000745093,0.0446898,21.0846,493.207,0.428086,0.0,0.0
82,20.25,17.9974,18.7099,174.214,98.9106,94.5089,0.000728913,0.0446563,21.0846,493.197,0.402341,0.0,0.0
84,20.75,17.8808,18.4247,175.341,98.8416,93.6571,0.000711797,0.044629,21.0842,493.197,0.476201,0.0,0.0
86,21.25,17.574,18.1683,173.414,98.825,94.2793,0.000697932,0.0445122,21.0838,493.187,0.416187,0.0,0.0
88,21.75,18.1843,18.5094,174.201,98.7702,93.4672,0.000696379,0.044382,21.0835,493.167,0.487749,0.0,0.0
90,22.25,17.9125,18.0311,172.187,98.756,93.0089,0.000695121,0.0442444,21.0833,493.187,0.52993,0.0,0.0
92,22.75,17.8793,17.9887,176.876,98.7228,93.2198,0.000694102,0.0443825,21.0831,493.177,0.506931,0.0,0.0
94,23.25,18.2098,18.3101,173.008,98.6879,92.8048,0.000796257,0.0447188,21.082,493.177,0.543238,0.0,0.0
96,23.75,17.9668,18.1187,173.176,98.6502,92.1079,0.000879002,0.046063,21.0803,493.117,0.606479,0.0,0.0
98,24.25,18.1814,18.3668,177.488,98.6388,91.4634,0.00117728,0.0481163,21.0766,493.137,0.667529,0.0,1.0
100,24.75,17.959,18.19,173.302,98.6088,91.8775,0.00141888,0.0497795,21.0715,493.117,0.624909,0.0,1.0
102,25.25,17.7434,18.4698,168.551,98.6003,92.4819,0.00191178,0.0543918,21.0629,493.057,0.566194,0.0,1.0
104,25.75,17.83,18.5912,164.95,98.5767,91.7907,0.00257852,0.0610663,21.052,493.027,0.63039,0.0,1.0
106,26.25,18.3406,18.2844,169.784,98.5711,90.0254,0.00368287,0.0664727,21.0431,492.937,0.801519,0.0,1.0
108,26.75,18.3587,18.8418,170.832,98.554,88.7736,0.00508527,0.0771075,21.0249,492.837,0.92375,0.0,1.0
110,27.25,18.7398,18.878,166.903,98.554,83.7474,0.00704944,0.0857217,21.0101,492.817,1.43889,0.0,1.0
112,27.75,18.5277,19.4387,171.109,98.5471,82.0048,0.00938581,0.0995776,20.9693,492.657,1.62413,0.0,1.0
114,28.25,18.72,19.3683,164.414,98.5573,68.2245,0.0122357,0.116991,20.9363,492.537,3.25107,0.0,1.0
116,28.75,18.9219,19.1025,159.883,98.5561,63.7264,0.0154057,0.141241,20.8745,492.397,3.85379,0.0,0.0
118,29.25,18.8033,19.2359,155.005,98.5654,56.1645,0.0179734,0.170013,20.8244,492.206,4.97104,0.0,0.0
120,29.75,19.0211,19.446,144.232,98.567,54.3083,0.0211454,0.204487,20.7671,492.006,5.26822,0.0,0.0
122,30.25,19.201,19.6926,143.655,98.5909,52.5559,0.0246977,0.242461,20.7056,491.896,5.56025,0.0,0.0
124,30.75,19.6389,19.9392,148.078,98.5918,50.4292,0.0279788,0.279028,20.6557,491.706,5.92542,0.0,0.0
126,31.25,21.2565,21.6488,143.406,98.6157,48.4675,0.0309999,0.313874,20.6153,491.566,6.27824,0.0,0.0
128,31.75,21.5431,21.7506,147.598,98.6376,47.9069,0.033447,0.342099,20.5826,491.436,6.38303,0.0,0.0
130,32.25,22.0715,21.8293,148.458,98.6623,48.2724,0.0354292,0.364525,20.5561,491.316,6.31807,0.0,0.0
132,32.75,22.2645,22.9288,155.906,98.6781,51.7021,0.0368201,0.382689,20.5358,491.206,5.71284,0.0,0.0
134,33.25,22.664,22.9212,151.228,98.7118,48.431,0.0379467,0.392703,20.5204,491.085,6.29351,0.0,0.0
136,33.75,23.6466,23.8038,162.744,98.7333,50.013,0.038327,0.396585,20.5131,491.035,6.01135,0.0,0.0
138,34.25,23.6036,23.9422,152.771,98.7856,47.2417,0.038635,0.399728,20.5117,490.965,6.51988,0.0,0.0
140,34.75,23.1647,23.9055,165.784,98.7929,48.6123,0.0383485,0.397094,20.5163,490.885,6.26775,0.0,0.0
142,35.25,24.1437,24.121,162.679,98.8428,48.1138,0.0381164,0.390298,20.525,490.825,6.36331,0.0,0.0
144,35.75,24.1158,24.4361,162.211,98.8769,48.9969,0.0376712,0.384793,20.532,490.735,6.20561,0.0,0.0
146,36.25,24.8157,25.2097,154.543,98.9065,47.3398,0.0370792,0.377657,20.5386,490.655,6.51234,0.0,0.0
148,36.75,24.7469,25.1666,157.094,98.9463,49.0711,0.0365996,0.371876,20.544,490.585,6.19843,0.0,0.0
150,37.25,24.9254,25.5095,161.168,98.986,52.0882,0.0359344,0.367355,20.5483,490.535,5.6746,0.0,0.0
152,37.75,25.0077,25.8423,151.313,99.0286,51.165,0.0353955,0.363693,20.5518,490.455,5.83647,0.0,0.0
154,38.25,25.1556,25.5945,152.13,99.0651,50.2746,0.0348943,0.361589,20.5546,490.375,5.99488,0.0,0.0
156,38.75,25.3027,26.1638,155.837,99.1122,49.4569,0.0344883,0.360659,20.5569,490.285,6.14403,0.0,0.0
158,39.25,26.2914,27.1551,160.645,99.1535,52.0708,0.0341669,0.359907,20.5588,490.205,5.69251,0.0,0.0
160,39.75,26.5502,27.3956,154.609,99.1945,51.1816,0.0339132,0.361697,20.5577,490.125,5.84839,0.0,0.0
162,40.25,26.9084,27.4508,158.848,99.2363,52.0197,0.033757,0.363147,20.5546,490.034,5.70856,0.0,0.0
164,40.75,27.0704,27.9801,157.023,99.2837,51.6181,0.0336304,0.366659,20.5503,489.984,5.78128,0.0,0.0
166,41.25,26.9367,27.7077,162.46,99.3243,54.849,0.0335772,0.369505,20.5451,489.884,5.2483,0.0,0.0
168,41.75,27.5027,28.2145,154.982,99.3669,52.5908,0.0335341,0.372954,20.5395,489.814,5.62368,0.0,0.0
170,42.25,27.9377,28.773,151.367,99.4009,51.3463,0.0335237,0.376778,20.5349,489.704,5.83837,0.0,0.0
172,42.75,28.4404,29.0632,150.636,99.4476,55.8882,0.0335373,0.380606,20.5299,489.624,5.09337,0.0,0.0
174,43.25,28.761,29.519,141.825,99.4926,54.3594,0.0335483,0.384363,20.5258,489.554,5.34252,0.0,0.0
176,43.75,29.1215,30.0535,150.904,99.5336,54.4559,0.0336018,0.387786,20.5225,489.464,5.33047,0.0,0.0
178,44.25,29.6228,30.3531,158.727,99.5741,54.3253,0.0336853,0.3909,20.5189,489.364,5.3553,0.0,0.0
180,44.75,29.4919,30.3019,154.368,99.609,55.6728,0.0337939,0.393732,20.516,489.274,5.14183,0.0,0.0
182,45.25,29.7396,30.1602,152.093,99.6378,54.4105,0.0339188,0.396305,20.5131,489.194,5.3471,0.0,0.0
184,45.75,29.6938,30.5708,154.289,99.6837,53.7599,0.0340199,0.398389,20.5101,489.104,5.45749,0.0,0.0
186,46.25,30.6696,31.6452,155.736,99.6966,52.2359,0.034184,0.40094,20.5064,488.983,5.71281,0.0,0.0
188,46.75,30.7749,31.6514,152.967,99.7396,49.4763,0.0343169,0.403783,20.502,488.933,6.19633,0.0,0.0
190,47.25,31.287,32.2471,156.109,99.7429,50.9468,0.0344612,0.406086,20.4985,488.823,5.93777,0.0,0.0
192,47.75,31.4795,32.4304,152.904,99.781,49.714,0.0346111,0.409718,20.4921,488.723,6.15763,0.0,0.0
194,48.25,31.4618,32.1473,150.952,99.8009,49.0881,0.034675,0.41266,20.4894,488.613,6.27138,0.0,0.0
196,48.75,31.7215,32.8849,155.295,99.8309,53.4759,0.0349038,0.415964,20.4843,488.533,5.51734,0.0,0.0
198,49.25,31.684,32.7242,151.97,99.8435,49.7733,0.0349863,0.418641,20.4802,488.423,6.15264,0.0,0.0
200,49.75,31.9526,33.0614,150.42,99.8678,49.2536,0.0351274,0.421088,20.4764,488.343,6.24755,0.0,0.0
202,50.25,32.468,33.7265,154.795,99.8706,51.0514,0.0352417,0.423322,20.4733,488.243,5.93094,0.0,0.0
204,50.75,32.8766,34.0134,156.117,99.9039,53.2378,0.0353358,0.42542,20.4708,488.143,5.56325,0.0,0.0
206,51.25,33.0819,34.3891,149.635,99.8917,49.699,0.0354133,0.426451,20.4679,488.043,6.1701,0.0,0.0
208,51.75,33.246,34.6428,151.642,99.9092,50.8413,0.0354499,0.429237,20.4656,487.932,5.97081,0.0,0.0
210,52.25,33.7189,35.1091,150.408,99.8966,50.7699,0.035456,0.430158,20.4637,487.862,5.98211,0.0,0.0
212,52.75,34.2998,35.326,151.661,99.9173,48.3231,0.0354609,0.431732,20.4621,487.762,6.42051,0.0,0.0
214,53.25,34.2259,35.6228,156.285,99.9047,50.0661,0.0353754,0.432971,20.4609,487.662,6.10621,0.0,0.0
216,53.75,34.3182,35.7494,149.869,99.9169,50.576,0.0353061,0.433942,20.4599,487.552,6.01773,0.0,0.0
218,54.25,34.6471,35.9643,157.223,99.8942,52.7693,0.0351209,0.434729,20.4591,487.452,5.64051,0.0,0.0
220,54.75,34.7093,36.1161,159.02,99.9015,51.4923,0.0349709,0.433994,20.4584,487.382,5.85766,0.0,0.0
222,55.25,34.9342,36.3482,153.092,99.884,49.873,0.0348495,0.433399,20.461,487.292,6.13853,0.0,0.0
224,55.75,35.2529,36.759,158.116,99.8808,51.9166,0.0346092,0.430923,20.463,487.212,5.7833,0.0,0.0
226,56.25,35.2796,36.8439,150.551,99.8552,50.0994,0.034287,0.428917,20.4691,487.092,6.09596,0.0,0.0
228,56.75,35.7319,37.3329,159.99,99.8483,55.1191,0.0340259,0.426019,20.474,487.032,5.25138,0.0,0.0
230,57.25,35.7137,37.4297,153.718,99.8179,49.2658,0.0336376,0.422524,20.4798,486.942,6.24095,0.0,0.0
232,57.75,35.9434,37.5546,151.385,99.8037,52.1126,0.033323,0.419694,20.4862,486.871,5.74319,0.0,0.0
234,58.25,36.0051,37.7759,159.867,99.7956,51.5731,0.0330682,0.415938,20.4914,486.781,5.83445,0.0,0.0
236,58.75,36.0469,37.7848,154.519,99.7863,48.8926,0.0326369,0.411578,20.4975,486.721,6.30535,0.0,0.0
238,59.25,36.2638,38.0103,152.861,99.7871,48.2631,0.0322874,0.408047,20.5041,486.621,6.41997,0.0,0.0
240,59.75,35.9498,37.9622,154.604,99.753,48.3896,0.031843,0.403807,20.5106,486.551,6.3938,0.0,0.0
242,60.25,36.2537,38.0061,158.464,99.7283,48.5202,0.031483,0.400373,20.5169,486.471,6.36779,0.0,0.0
244,60.75,36.4086,38.1921,155.36,99.7275,46.6073,0.0310818,0.39732,20.522,486.381,6.72324,0.0,0.0
246,61.25,36.7698,38.581,156.812,99.691,49.8548,0.0307569,0.394605,20.5262,486.311,6.12466,0.0,0.0
248,61.75,36.5828,38.3318,151.944,99.6861,46.2945,0.0304383,0.392405,20.5296,486.231,6.77908,0.0,0.0
250,62.25,36.9673,38.8587,157.273,99.6573,47.004,0.0301803,0.390905,20.5323,486.191,6.64211,0.0,0.0
252,62.75,37.0507,39.024,155.491,99.6435,50.7805,0.0299339,0.38969,20.5336,486.081,5.95786,0.0,0.0
254,63.25,36.9889,38.9414,152.837,99.6326,48.5069,0.0297344,0.389618,20.5337,486.011,6.36174,0.0,0.0
256,63.75,37.4075,39.3786,160.452,99.6196,46.9078,0.0295502,0.389561,20.533,485.931,6.65685,0.0,0.0
258,64.25,37.6666,39.6552,154.636,99.5887,48.1645,0.0293807,0.390813,20.5315,485.861,6.42045,0.0,0.0
260,64.75,38.4926,40.2817,153.976,99.5616,45.6934,0.0292434,0.391828,20.5303,485.8,6.88355,0.0,0.0
262,65.25,37.7896,39.7154,153.295,99.5624,48.9579,0.0290357,0.393704,20.5289,485.71,6.2737,0.0,0.0
264,65.75,38.0512,39.8127,152.284,99.5616,43.6915,0.0288674,0.395224,20.5273,485.64,7.2795,0.0,0.0
266,66.25,38.7472,40.8395,156.003,99.5255,46.7184,0.0286435,0.397009,20.526,485.54,6.68427,0.0,0.0
268,66.75,38.1054,40.0977,154.045,99.5206,44.2615,0.0283833,0.398455,20.525,485.45,7.16132,0.0,0.0
270,67.25,38.5532,40.6594,153.543,99.506,48.016,0.0282724,0.399626,20.5245,485.4,6.44039,0.0,0.0
272,67.75,38.5452,40.4832,155.191,99.5056,46.6263,0.0279019,0.399953,20.5238,485.31,6.69994,0.0,0.0
274,68.25,38.7699,40.6985,151.659,99.4918,46.1631,0.0276018,0.400219,20.5232,485.26,6.78696,0.0,0.0
276,68.75,39.0606,41.1375,157.766,99.5137,50.0434,0.0271855,0.399396,20.525,485.19,6.07556,0.0,0.0
278,69.25,39.1895,41.3287,154.806,99.6123,49.9611,0.0268483,0.397797,20.5286,485.12,6.09886,0.0,0.0
280,69.75,40.0296,42.3338,164.513,99.7031,48.9056,0.0263769,0.396501,20.5334,485.08,6.29564,0.0,0.0
282,70.25,39.2385,41.3017,155.693,99.7899,48.902,0.025995,0.394867,20.5389,485.01,6.30399,0.0,0.0
284,70.75,39.5049,41.6748,157.237,99.8605,50.2207,0.0254613,0.392071,20.545,484.91,6.07505,0.0,0.0
286,71.25,39.2834,41.4685,158.02,99.927,51.8915,0.0250291,0.38775,20.5515,484.88,5.79168,0.0,0.0
288,71.75,39.5987,41.5617,157.137,99.9834,47.612,0.0246789,0.38425,20.5567,484.82,6.55738,0.0,0.0
290,72.25,39.2043,41.4402,162.087,100.043,55.3633,0.0239822,0.379389,20.5649,484.77,5.22957,0.0,0.0
292,72.75,39.5906,41.903,157.514,100.095,53.0833,0.0234178,0.375452,20.5716,484.709,5.60586,0.0,0.0
294,73.25,39.7187,41.9803,157.212,100.15,53.0674,0.022672,0.370155,20.5786,484.669,5.61333,0.0,0.0
296,73.75,39.716,42.0162,157.185,100.194,57.6844,0.0220679,0.365864,20.5857,484.609,4.87983,0.0,0.0
298,74.25,39.1785,41.525,160.861,100.238,55.3025,0.0213959,0.36106,20.5915,484.569,5.25647,0.0,0.0
300,74.75,39.1678,41.4712,159.519,100.269,57.9298,0.0206871,0.355973,20.5993,484.509,4.84893,0.0,0.0
302,75.25,39.8196,42.5135,157.596,100.304,60.0983,0.0199661,0.351852,20.6057,484.459,4.52726,0.0,0.0
304,75.75,39.7281,42.1353,162.705,100.331,60.5814,0.0192499,0.345743,20.617,484.429,4.45889,0.0,0.0
306,76.25,39.1648,41.5515,161.715,100.337,61.9399,0.0186698,0.340795,20.6262,484.399,4.26335,0.0,0.0
308,76.75,39.107,41.7271,156.498,100.345,63.6744,0.0179033,0.334498,20.6357,484.349,4.01996,0.0,0.0
310,77.25,39.9514,42.489,164.191,100.354,63.7243,0.0172824,0.329398,20.6453,484.319,4.01386,0.0,0.0
312,77.75,39.805,42.2327,165.626,100.352,66.393,0.0164491,0.323752,20.6531,484.259,3.65105,0.0,0.0
314,78.25,39.3472,42.0392,160.99,100.348,66.9065,0.015774,0.317816,20.6594,484.229,3.58266,0.0,0.0
316,78.75,39.7617,42.261,164.894,100.337,69.4097,0.0152273,0.313008,20.6694,484.209,3.25699,0.0,0.0
318,79.25,39.8873,42.2526,163.751,100.32,70.3192,0.0145956,0.306898,20.6809,484.189,3.14051,0.0,0.0
320,79.75,39.8203,42.0564,164.392,100.294,72.6796,0.0141567,0.301948,20.684,484.149,2.84634,0.0,0.0
322,80.25,39.1869,41.6001,161.654,100.262,73.9565,0.0134063,0.294807,20.6927,484.139,2.68965,0.0,0.0
324,80.75,39.2829,42.0304,162.79,100.222,75.8411,0.0126766,0.289023,20.6998,484.119,2.46367,0.0,0.0
326,81.25,39.6674,42.0376,161.8,100.188,77.7618,0.0119758,0.284338,20.7108,484.099,2.23966,0.0,0.0
328,81.75,39.5411,42.1716,163.073,100.13,79.8894,0.0113089,0.280543,20.7197,484.079,1.99593,0.0,0.0
330,82.25,39.7668,42.2275,170.409,100.077,79.2586,0.0106792,0.26942,20.7323,484.049,2.06134,0.0,0.0
332,82.75,39.4851,42.0742,161.204,100.017,79.4805,0.0100887,0.266427,20.7424,484.049,2.03132,0.0,0.0
334,83.25,39.5047,41.8827,163.056,99.9522,81.7119,0.00953798,0.259965,20.756,484.019,1.78087,0.0,0.0
336,83.75,39.4826,42.091,166.202,99.8727,80.5449,0.00903013,0.253518,20.767,483.999,1.90098,0.0,0.0
338,84.25,38.7585,41.363,158.649,99.8082,80.7095,0.00856317,0.247554,20.7785,483.989,1.87722,0.0,0.0
340,84.75,39.0785,41.5218,166.041,99.7984,80.731,0.00818493,0.242054,20.7879,483.959,1.874,0.0,0.0
342,85.25,39.118,41.5711,161.548,99.8268,80.7286,0.00777771,0.2376,20.7962,483.949,1.87678,0.0,0.0
344,85.75,38.5321,41.2184,165.968,99.8467,80.9594,0.00744786,0.232867,20.8035,483.939,1.85331,0.0,0.0
346,86.25,38.5421,41.2552,164.808,99.8792,81.2174,0.00718068,0.229034,20.8094,483.929,1.82806,0.0,0.0
348,86.75,38.5083,41.3896,162.03,99.9011,81.7447,0.00687857,0.224867,20.8156,483.899,1.7728,0.0,0.0
350,87.25,38.7224,41.3994,161.999,99.9587,81.5306,0.00663385,0.221492,20.8206,483.889,1.80108,0.0,0.0
352,87.75,38.7219,41.4451,169.301,99.9684,84.0954,0.00637118,0.217804,20.8253,483.869,1.52818,0.0,0.0
354,88.25,38.6196,41.145,166.495,100.019,82.0039,0.00615841,0.214816,20.8298,483.859,1.75522,0.0,0.0
356,88.75,38.4448,41.1805,173.934,100.058,82.629,0.00594399,0.211756,20.8348,483.849,1.69158,0.0,0.0
358,89.25,38.4277,41.0964,167.709,100.094,84.5663,0.0057703,0.208703,20.8401,483.849,1.48993,0.0,0.0
360,89.75,38.3887,41.1334,163.891,100.121,83.2574,0.00560117,0.206229,20.8453,483.809,1.63021,0.0,0.0
362,90.25,38.1598,40.847,164.593,100.179,83.9457,0.00546418,0.202782,20.8504,483.789,1.56248,0.0,0.0
364,90.75,38.3571,41.2997,166.605,100.211,84.8868,0.00539277,0.19999,20.8538,483.789,1.46678,0.0,0.0
366,91.25,37.7714,40.5577,164.836,100.257,85.8555,0.00527065,0.196524,20.8595,483.769,1.3706,0.0,0.0
368,91.75,38.2013,40.6117,168.716,100.285,85.9406,0.00512853,0.193716,20.865,483.759,1.36427,0.0,0.0
370,92.25,38.0011,40.6173,166.516,100.331,86.541,0.00501341,0.190371,20.8704,483.709,1.30678,0.0,0.0
372,92.75,37.9771,40.504,166.835,100.357,87.8946,0.00492016,0.187662,20.8747,483.729,1.17189,0.0,0.0
374,93.25,37.9056,40.4743,160.37,100.4,86.6071,0.00474973,0.184243,20.8789,483.739,1.3061,0.0,0.0
376,93.75,37.8512,40.0166,166.53,100.422,89.4547,0.00461169,0.182785,20.8829,483.719,1.02218,0.0,0.0
378,94.25,36.9505,39.7552,168.247,100.459,90.5195,0.00443838,0.179514,20.8876,483.719,0.920843,0.0,0.0
380,94.75,37.6585,40.2129,165.65,100.467,89.969,0.004298,0.176164,20.8926,483.699,0.975467,0.0,0.0
382,95.25,37.2941,40.0057,169.355,100.517,90.4521,0.00412413,0.172594,20.8979,483.699,0.932522,0.0,0.0
384,95.75,37.3774,40.0634,167.722,100.522,91.3587,0.00398329,0.16893,20.9032,483.709,0.844839,0.0,0.0
386,96.25,37.0799,39.6654,167.956,100.556,90.3491,0.0038312,0.165963,20.9091,483.739,0.945982,0.0,0.0
388,96.75,36.8268,39.5201,165.695,100.568,91.0034,0.00370801,0.16191,20.9154,483.709,0.883276,0.0,0.0
390,97.25,36.7691,39.3136,170.494,100.586,91.7056,0.0035934,0.158627,20.9205,483.709,0.816911,0.0,0.0
392,97.75,36.2685,38.7978,166.986,100.58,91.1981,0.00348721,0.154821,20.9264,483.689,0.865491,0.0,0.0
394,98.25,36.6696,39.5942,171.874,100.594,91.6386,0.0034012,0.151738,20.9311,483.669,0.824113,0.0,0.0
396,98.75,36.5718,39.0467,172.123,100.587,92.5748,0.00331439,0.148498,20.9368,483.658,0.733669,0.0,0.0
398,99.25,36.3283,38.914,174.219,100.59,92.5103,0.00324407,0.145206,20.9413,483.658,0.740078,0.0,0.0
400,99.75,36.2469,39.0117,169.769,100.586,92.8624,0.00318712,0.141866,20.945,483.658,0.706148,0.0,0.0
402,100.25,35.9203,38.3639,170.166,100.574,93.8899,0.00312875,0.138555,20.9498,483.648,0.607787,0.0,0.0
404,100.75,35.8415,38.6802,171.015,100.563,92.8653,0.00307953,0.135872,20.9537,483.618,0.703845,0.0,0.0
406,101.25,35.4592,38.1782,171.634,100.54,92.5501,0.00303793,0.132216,20.9568,483.628,0.731897,0.0,0.0
408,101.75,36.0923,38.7486,170.237,100.509,92.6917,0.00300423,0.129254,20.9603,483.618,0.715677,0.0,0.0
410,102.25,35.3073,38.216,173.79,100.498,92.1084,0.00297694,0.126069,20.9639,483.618,0.770474,0.0,0.0
412,102.75,35.4615,38.1834,170.968,100.46,93.1379,0.00296951,0.122783,20.9679,483.618,0.66888,0.0,0.0
414,103.25,35.8235,38.2092,171.133,100.459,93.0734,0.0029635,0.120121,20.9721,483.628,0.674896,0.0,0.0
416,103.75,35.4684,38.5378,169.894,100.406,93.5516,0.0029721,0.1167,20.9764,483.608,0.624992,0.0,0.0
418,104.25,35.6497,38.1937,169.814,100.353,92.8892,0.00297906,0.113929,20.9807,483.618,0.683046,0.0,0.0
420,104.75,34.521,37.69,172.12,100.313,93.7427,0.00300675,0.111685,20.9849,483.608,0.59871,0.0,0.0
422,105.25,34.8236,37.4635,164.714,100.277,93.7009,0.00302917,0.108578,20.989,483.588,0.599468,0.0,0.0
424,105.75,34.4753,37.0773,170.989,100.221,94.1098,0.00306282,0.106062,20.9922,483.598,0.55612,0.0,0.0
426,106.25,34.3909,37.3319,165.336,100.175,93.6928,0.00310401,0.103333,20.9962,483.578,0.591291,0.0,0.0
428,106.75,34.4669,37.0719,176.132,100.103,94.0436,0.00313737,0.101123,20.9994,483.568,0.551881,0.0,0.0
430,107.25,34.223,36.9271,169.763,100.07,94.6014,0.00318377,0.098574,21.0021,483.588,0.49668,0.0,0.0
432,107.75,34.0552,36.6328,172.271,100.016,94.3434,0.00323878,0.0965093,21.0055,483.588,0.51605,0.0,0.0
434,108.25,33.9397,36.546,170.278,99.9457,93.4587,0.00329239,0.0940383,21.0083,483.568,0.593119,0.0,0.0
436,108.75,33.6366,36.1882,175.231,99.88,93.9406,0.00334395,0.0920368,21.0113,483.588,0.541851,0.0,0.0
438,109.25,33.8295,36.5287,172.495,99.8256,93.8708,0.00338442,0.0904156,21.0143,483.568,0.543607,0.0,0.0
440,109.75,33.5587,36.3541,168.067,99.7603,93.4242,0.00341604,0.0881543,21.0172,483.568,0.579972,0.0,0.0
442,110.25,33.2621,35.728,169.74,99.6857,94.4282,0.00344166,0.0863227,21.0195,483.568,0.478886,0.0,0.0
444,110.75,33.0562,35.8633,172.676,99.6269,94.4205,0.00344644,0.084435,21.0221,483.568,0.474392,0.0,0.0
446,111.25,32.5465,35.1145,173.787,99.5709,93.2936,0.00345032,0.0825421,21.0249,483.558,0.575541,0.0,0.0
448,111.75,32.535,35.3886,173.129,99.495,92.4158,0.00343873,0.0810089,21.0275,483.568,0.65236,0.0,0.0
450,112.25,31.8569,34.4881,169.502,99.4387,93.2624,0.00342935,0.0791646,21.0301,483.568,0.566755,0.0,0.0
452,112.75,31.798,33.9328,173.998,99.3665,92.7748,0.00340948,0.0776707,21.0327,483.548,0.606664,0.0,0.0
454,113.25,32.1953,34.4652,170.93,99.3068,93.3902,0.00339339,0.075941,21.0352,483.558,0.542929,0.0,0.0
456,113.75,31.6516,34.37,169.645,99.2359,93.3427,0.00338036,0.0745399,21.0372,483.548,0.541103,0.0,0.0
458,114.25,32.3012,34.7354,174.308,99.1811,93.1675,0.00334773,0.0732325,21.0393,483.548,0.552832,0.0,0.0
460,114.75,31.1613,34.2326,170.986,99.1134,92.8916,0.0033213,0.0720181,21.0415,483.528,0.573,0.0,0.0
462,115.25,31.9541,34.1946,175.374,99.0671,93.1411,0.00328274,0.0707751,21.0432,483.518,0.545171,0.0,0.0
464,115.75,31.5738,34.0007,173.184,99.0083,93.3796,0.0032515,0.0697683,21.0446,483.538,0.517318,0.0,0.0
466,116.25,30.5434,33.3677,177.909,98.9544,93.4579,0.00321653,0.0688306,21.0457,483.538,0.505094,0.0,0.0
468,116.75,30.5968,32.9287,176.123,98.9049,93.7191,0.0031795,0.0679612,21.0471,483.538,0.476002,0.0,0.0
470,117.25,31.242,33.228,169.596,98.8518,93.552,0.00314241,0.067257,21.0482,483.538,0.48703,0.0,0.0
472,117.75,30.9721,33.4333,175.005,98.7958,93.7524,0.003106,0.0664548,21.0495,483.528,0.463112,0.0,0.0
474,118.25,30.9118,33.7264,169.135,98.7617,93.1569,0.00306877,0.0658049,21.0506,483.518,0.516379,0.0,0.0
476,118.75,30.6734,32.6904,169.519,98.7272,93.6258,0.00303166,0.0650468,21.0517,483.518,0.468916,0.0,0.0
478,119.25,31.0591,33.2685,173.596,98.6956,93.6072,0.0030016,0.0644327,21.0528,483.518,0.467845,0.0,0.0
480,119.75,30.1025,32.7934,171.629,98.6656,93.1963,0.0029479,0.0638277,21.0537,483.528,0.50404,0.0,0.0
482,120.25,29.6488,32.212,172.87,98.6331,93.0296,0.0029044,0.0632409,21.0544,483.518,0.516958,0.0,0.0
484,120.75,30.2255,32.5417,171.345,98.6335,93.967,0.00286916,0.0627655,21.055,483.518,0.428378,0.0,0.0
486,121.25,30.24,32.3492,172.391,98.6011,93.6218,0.00280396,0.0622306,21.0557,483.528,0.457999,0.0,0.0
488,121.75,30.397,32.2286,171.638,98.5958,93.6165,0.00275115,0.0617974,21.0565,483.518,0.458024,0.0,0.0
490,122.25,29.9002,31.5918,170.282,98.5844,93.0855,0.00268639,0.0613375,21.0572,483.518,0.507278,0.0,0.0
492,122.75,30.008,32.0952,173.494,98.5844,93.3743,0.00263394,0.060965,21.0577,483.518,0.479898,0.0,0.0
494,123.25,29.8195,32.4017,167.685,98.584,93.0588,0.00256582,0.0606633,21.0583,483.518,0.509784,0.0,0.0
496,123.75,29.2272,32.2681,171.527,98.5901,93.668,0.00251065,0.0603236,21.0591,483.518,0.452653,0.0,0.0
498,124.25,29.3463,31.8681,170.571,98.6043,93.7382,0.0024589,0.0600484,21.0597,483.508,0.447305,0.0,0.0
500,124.75,29.7095,31.9367,167.989,98.6331,93.2251,0.00241063,0.0597166,21.0601,483.508,0.498403,0.0,0.0
502,125.25,29.6301,31.7241,169.982,98.6315,93.4275,0.00237153,0.0594479,21.0605,483.508,0.479087,0.0,0.0
504,125.75,29.0249,31.0315,170.732,98.6583,93.7788,0.00234371,0.0591228,21.0609,483.508,0.448316,0.0,0.0
506,126.25,29.1163,31.4122,168.944,98.6875,93.2153,0.00232464,0.0587628,21.0606,483.498,0.504194,0.0,0.0
508,126.75,28.8606,31.8275,174.362,98.7147,93.3285,0.00230919,0.0584282,21.0604,483.498,0.495904,0.0,0.0
510,127.25,28.392,30.9102,172.447,98.7418,93.5431,0.0023101,0.0581185,21.0602,483.498,0.478038,0.0,0.0
512,127.75,28.7523,31.2066,169.326,98.7787,93.5703,0.00231083,0.0578677,21.0601,483.508,0.478773,0.0,0.0
514,128.25,28.4577,30.641,171.326,98.8055,93.4072,0.0023095,0.0576574,21.06,483.498,0.496585,0.0,0.0
516,128.75,28.3388,30.9937,172.505,98.8566,93.5216,0.00230669,0.0574806,21.0604,483.488,0.490338,0.0,0.0
518,129.25,28.5829,30.5813,170.473,98.8749,93.7569,0.00230441,0.0573087,21.0607,483.498,0.469763,0.0,0.0
520,129.75,28.1512,30.5588,162.446,98.9381,93.6895,0.00229647,0.0571437,21.0609,483.488,0.481768,0.0,0.0
522,130.25,28.5137,30.6444,175.003,98.9665,94.1986,0.00229004,0.0570101,21.0611,483.488,0.436409,0.0,0.0
524,130.75,27.9528,30.4315,173.881,99.0278,94.444,0.0022958,0.0567945,21.0615,483.488,0.418882,0.0,0.0
526,131.25,28.1711,30.0667,173.809,99.0525,93.922,0.00230047,0.0565233,21.062,483.488,0.470081,0.0,0.0
528,131.75,27.8921,29.991,176.809,99.1304,94.1029,0.00233477,0.0563036,21.0624,483.498,0.460018,0.0,0.0
530,132.25,27.61,29.9498,176.004,99.1474,93.8319,0.00236256,0.0560033,21.0628,483.488,0.487024,0.0,0.0
532,132.75,27.7109,29.6419,169.534,99.2148,93.7905,0.00239342,0.05576,21.063,483.488,0.496923,0.0,0.0
534,133.25,27.7744,29.86,170.232,99.2452,93.8656,0.00242594,0.0554814,21.0637,483.488,0.492563,0.0,0.0
536,133.75,27.1407,30.3108,174.725,99.3008,94.1459,0.0024398,0.0552558,21.064,483.478,0.471156,0.0,0.0
538,134.25,27.8635,29.6875,170.944,99.33,93.9796,0.00244641,0.0550659,21.0645,483.488,0.489382,0.0,0.0
540,134.75,27.5899,29.452,170.266,99.3989,93.8469,0.00245176,0.0549056,21.0649,483.488,0.507999,0.0,0.0
542,135.25,27.4032,29.5797,173.059,99.4261,94.0153,0.0024561,0.0547472,21.0652,483.498,0.494576,0.0,0.0
544,135.75,27.2587,29.5407,173.971,99.495,94.4947,0.0024047,0.0545931,21.0655,483.488,0.455743,0.0,0.0
546,136.25,26.8885,29.4912,172.207,99.5291,94.1215,0.00234126,0.0544111,21.0657,483.488,0.493744,0.0,0.0
548,136.75,27.2694,29.2252,173.239,99.5818,95.0687,0.00227025,0.0543064,21.0658,483.488,0.409927,0.0,0.0
550,137.25,27.6003,29.4338,170.803,99.6131,93.7658,0.00221273,0.0541274,21.066,483.488,0.534666,0.0,0.0
552,137.75,27.003,29.284,166.452,99.6581,94.0217,0.00215012,0.0539109,21.0661,483.468,0.514565,0.0,0.0
554,138.25,26.8341,29.1034,170.144,99.7023,94.1114,0.00208499,0.0536712,21.0662,483.478,0.510063,0.0,0.0
556,138.75,26.9922,28.7351,159.202,99.7408,94.6326,0.00203101,0.053477,21.0665,483.478,0.464661,0.0,0.0
558,139.25,26.2899,28.8688,169.283,99.7575,94.27,0.0019873,0.0532247,21.0669,483.478,0.500069,0.0,0.0
560,139.75,26.8243,28.9012,175.416,99.8021,94.399,0.0019531,0.0530203,21.0673,483.478,0.491936,0.0,0.0
562,140.25,26.7878,28.5475,173.602,99.8094,94.5393,0.00192541,0.0528276,21.0676,483.468,0.479451,0.0,0.0
564,140.75,26.7575,28.7789,175.588,99.8512,94.4148,0.00190297,0.0526715,21.0679,483.478,0.4948,0.0,0.0
566,141.25,26.029,28.4054,171.497,99.8629,94.8204,0.00189341,0.0525094,21.068,483.468,0.457949,0.0,0.0
568,141.75,26.0476,28.4645,167.396,99.8763,94.1495,0.00187705,0.0523459,21.0681,483.468,0.521895,0.0,0.0
570,142.25,25.8378,28.4509,173.072,99.8816,94.5771,0.00186701,0.0521727,21.0683,483.458,0.482316,0.0,0.0
572,142.75,26.2741,28.4424,174.997,99.9051,94.1605,0.00186175,0.0520324,21.0684,483.488,0.523415,0.0,0.0
574,143.25,26.3417,28.2572,172.194,99.9051,94.8071,0.00186006,0.0519188,21.0685,483.488,0.46293,0.0,0.0
576,143.75,26.2345,28.1276,174.164,99.9197,94.936,0.00186099,0.0518268,21.0686,483.488,0.452205,0.0,0.0
578,144.25,25.9271,28.1382,170.362,99.9189,94.4882,0.00185983,0.0517875,21.0686,483.478,0.493924,0.0,0.0
580,144.75,26.0325,28.0268,172.673,99.9092,94.358,0.00185716,0.051639,21.0691,483.488,0.50525,0.0,0.0
582,145.25,26.2256,27.7695,171.43,99.9027,94.6704,0.00184987,0.0515187,21.0695,483.468,0.475467,0.0,0.0
584,145.75,26.0633,27.7339,172.365,99.9051,94.5385,0.00183935,0.0514213,21.0699,483.468,0.488,0.0,0.0
586,146.25,25.5581,27.9927,176.776,99.8812,94.156,0.00183083,0.0512338,21.0701,483.468,0.521716,0.0,0.0
588,146.75,26.3846,27.427,173.187,99.8804,94.5909,0.00181663,0.0510819,21.0706,483.468,0.48092,0.0,0.0
590,147.25,26.1204,27.7202,173.08,99.8532,93.6859,0.00180513,0.0508774,21.0711,483.468,0.563481,0.0,0.0
592,147.75,26.1046,27.2331,173.25,99.8354,94.3231,0.00179703,0.0507119,21.0716,483.468,0.501986,0.0,0.0
594,148.25,25.2439,26.972,174.867,99.8066,94.1653,0.00179047,0.050537,21.072,483.468,0.514233,0.0,0.0
596,148.75,25.1741,26.8316,172.536,99.7891,93.9013,0.00178515,0.0503954,21.0723,483.468,0.53751,0.0,0.0
598,149.25,25.4536,27.4112,173.322,99.7603,94.229,0.00178085,0.0502264,21.0725,483.468,0.504163,0.0,0.0
600,149.75,25.0405,27.1737,180.68,99.753,94.201,0.00177544,0.0500896,21.0727,483.468,0.506141,0.0,0.0
602,150.25,25.3942,27.0538,175.701,99.734,94.1333,0.00176933,0.0499573,21.0731,483.468,0.51081,0.0,0.0
604,150.75,25.4478,27.1796,177.363,99.7092,94.3097,0.00176118,0.0498309,21.0735,483.478,0.492066,0.0,0.0
606,151.25,24.8387,26.585,163.558,99.682,94.0254,0.0017517,0.0497285,21.0737,483.478,0.516345,0.0,0.0
608,151.75,25.0615,26.4986,166.228,99.6735,94.1828,0.00174402,0.0496455,21.074,483.468,0.500807,0.0,0.0
610,152.25,25.3344,26.7772,173.732,99.6386,94.369,0.0017378,0.0495512,21.0746,483.478,0.480258,0.0,0.0
612,152.75,25.422,27.0259,166.529,99.6224,93.2376,0.00173084,0.0494748,21.0751,483.478,0.585417,0.0,0.0
614,153.25,24.7837,26.7185,174.635,99.5944,93.9637,0.00172348,0.0493844,21.0755,483.468,0.51437,0.0,0.0
616,153.75,25.4247,26.4409,173.192,99.5672,93.9329,0.00171751,0.0492854,21.0758,483.478,0.514859,0.0,0.0
618,154.25,25.0512,26.5396,174.711,99.5445,93.9341,0.00171389,0.0492053,21.0761,483.478,0.512728,0.0,0.0
620,154.75,24.7848,26.3339,173.103,99.5385,93.9524,0.00171609,0.0490997,21.0763,483.468,0.510471,0.0,0.0
622,155.25,24.0648,25.8507,171.036,99.5174,94.4525,0.00172247,0.0490142,21.0765,483.468,0.461671,0.0,0.0
624,155.75,23.7846,25.895,173.206,99.4934,93.4202,0.00172764,0.0489042,21.0766,483.458,0.556679,0.0,0.0
626,156.25,24.5322,26.5142,158.728,99.4902,94.0428,0.0017408,0.0488151,21.0767,483.458,0.497679,0.0,0.0
628,156.75,24.4036,26.3753,165.158,99.4788,94.0019,0.00175952,0.0487159,21.0768,483.458,0.50052,0.0,0.0
630,157.25,24.9254,26.5436,175.179,99.4675,93.9406,0.00177341,0.0486355,21.0769,483.458,0.505272,0.0,0.0
632,157.75,24.6434,26.1082,176.738,99.4508,94.1406,0.00178351,0.0485703,21.077,483.448,0.484999,0.0,0.0
634,158.25,24.5864,26.4915,171.572,99.4496,94.0729,0.00179168,0.0485176,21.077,483.448,0.491253,0.0,0.0
636,158.75,24.4272,26.5555,173.416,99.4476,93.8161,0.00178735,0.0484534,21.0771,483.448,0.51523,0.0,0.0
638,159.25,23.8315,25.4655,174.009,99.5279,94.6845,0.00178385,0.0483822,21.0771,483.448,0.440923,0.0,0.0
640,159.75,23.625,25.6589,169.012,99.6009,93.9739,0.00177858,0.0483103,21.0771,483.448,0.513993,0.0,0.0
642,160.25,24.1003,25.1253,171.116,99.6833,94.5685,0.00177431,0.0482391,21.0771,483.458,0.465543,0.0,0.0
644,160.75,24.1258,26.0557,176.189,99.7473,94.3751,0.00177085,0.048153,21.0771,483.468,0.489326,0.0,0.0
646,161.25,24.0837,25.8856,176.543,99.8317,94.4063,0.00176804,0.0480575,21.0772,483.468,0.493874,0.0,0.0
648,161.75,23.8985,25.8334,178.194,99.8873,94.6874,0.00176334,0.0479802,21.0772,483.468,0.472513,0.0,0.0
650,162.25,23.8916,25.8883,174.964,99.9546,94.1893,0.00175953,0.0478633,21.0772,483.468,0.525089,0.0,0.0
652,162.75,24.2738,25.6848,169.982,100.004,94.7624,0.00175644,0.0477686,21.0772,483.468,0.475842,0.0,0.0
654,163.25,23.9454,26.0837,176.668,100.065,94.3329,0.00174178,0.0476513,21.077,483.478,0.521375,0.0,0.0
656,163.75,23.7803,25.3867,169.195,100.1,94.9296,0.00172991,0.0475563,21.0766,483.468,0.468724,0.0,0.0
658,164.25,24.2781,25.6816,176.09,100.151,94.6829,0.00170691,0.0474579,21.0762,483.458,0.496264,0.0,0.0
660,164.75,23.8547,25.5589,169.83,100.179,94.4505,0.00169711,0.0473589,21.0761,483.468,0.520421,0.0,0.0
662,165.25,23.9364,25.3841,173.22,100.213,94.8152,0.00167395,0.0472931,21.0759,483.458,0.489332,0.0,0.0
664,165.75,23.4982,26.1592,177.929,100.241,94.6833,0.00164943,0.0472525,21.0757,483.468,0.504169,0.0,0.0
666,166.25,23.8863,25.4306,172.077,100.267,94.8367,0.00162382,0.0472197,21.0755,483.448,0.492156,0.0,0.0
668,166.75,24.1533,25.2265,171.102,100.278,94.9259,0.00159789,0.0471796,21.0754,483.458,0.484809,0.0,0.0
670,167.25,23.8475,25.3436,172.384,100.303,95.1198,0.00156794,0.0471471,21.0753,483.448,0.46899,0.0,0.0
672,167.75,23.8897,25.2228,175.006,100.311,94.5251,0.00153562,0.0471189,21.0757,483.448,0.525098,0.0,0.0
674,168.25,23.65,25.0709,177.74,100.329,95.0942,0.00149539,0.0470708,21.076,483.448,0.47358,0.0,0.0
676,168.75,23.3516,25.037,172.41,100.323,95.1616,0.00145016,0.047039,21.0762,483.448,0.466859,0.0,0.0
678,169.25,23.7425,25.3549,173.512,100.318,94.3848,0.00141352,0.0470197,21.0764,483.458,0.538802,0.0,0.0
680,169.75,23.7866,25.0262,174.694,100.312,94.7584,0.00138384,0.0469683,21.0766,483.448,0.503352,0.0,0.0
682,170.25,23.4034,24.7597,168.257,100.304,94.7929,0.00130757,0.0468946,21.0767,483.448,0.499494,0.0,0.0
684,170.75,24.0029,25.2076,171.744,100.289,95.1624,0.00124579,0.0468349,21.0768,483.438,0.463747,0.0,0.0
686,171.25,23.8271,24.5823,174.551,100.266,94.5547,0.00118619,0.0467324,21.0769,483.458,0.518362,0.0,0.0
688,171.75,23.1775,24.8889,172.038,100.227,95.2228,0.00112931,0.0466493,21.0769,483.458,0.452663,0.0,0.0
690,172.25,23.2742,24.9915,172.825,100.21,95.0626,0.00108323,0.0465753,21.0771,483.458,0.466081,0.0,0.0
692,172.75,23.4048,24.5588,174.328,100.174,94.4951,0.00104591,0.0465093,21.0773,483.438,0.515818,0.0,0.0
694,173.25,23.1143,24.3517,173.151,100.149,95.1847,0.00101567,0.0464558,21.0774,483.438,0.449334,0.0,0.0
696,173.75,23.1504,24.7743,173.906,100.093,94.6821,0.000991188,0.0463839,21.0775,483.418,0.49122,0.0,0.0
698,174.25,22.8736,23.8509,171.423,100.054,94.4797,0.000974986,0.0463001,21.0776,483.428,0.506695,0.0,0.0
700,174.75,22.8914,24.5419,167.126,100,93.9775,0.000961863,0.0462322,21.0776,483.428,0.549033,0.0,0.0
702,175.25,23.2243,24.6036,171.45,99.9469,94.0907,0.000943967,0.0461771,21.0777,483.428,0.533662,0.0,0.0
704,175.75,23.211,24.7397,172.243,99.8788,94.0108,0.000929472,0.046119,21.0777,483.428,0.535143,0.0,0.0
706,176.25,22.9868,24.8419,172.494,99.8236,94.1665,0.000910465,0.0460719,21.078,483.418,0.515629,0.0,0.0
708,176.75,22.8802,24.6102,172.168,99.7644,94.6456,0.000895069,0.0460338,21.0784,483.418,0.465533,0.0,0.0
710,177.25,22.7555,24.9356,171.181,99.7879,94.4481,0.000881961,0.0460029,21.0787,483.418,0.486084,0.0,0.0
712,177.75,23.1419,24.6555,172.645,99.7972,94.8448,0.00087077,0.0459915,21.079,483.408,0.449863,0.0,0.0
714,178.25,22.3675,24.1653,167.935,99.8354,94.4602,0.000861705,0.0459822,21.0793,483.418,0.489148,0.0,0.0
716,178.75,22.1726,23.8031,174.181,99.8463,94.5069,0.000853153,0.0459205,21.0794,483.408,0.485753,0.0,0.0
718,179.25,22.8485,24.3067,170.743,99.8828,94.2822,0.000846225,0.0458705,21.0796,483.398,0.510026,0.0,0.0
720,179.75,22.7973,24.3161,174.585,99.9072,94.5077,0.00083093,0.0458442,21.0797,483.418,0.491062,0.0,0.0
722,180.25,22.8878,24.5408,167.938,99.9432,94.631,0.000818541,0.0458358,21.0798,483.418,0.48273,0.0,0.0
724,180.75,23.1396,24.4208,172.252,99.9688,94.6614,0.000803665,0.045829,21.0799,483.408,0.482148,0.0,0.0
726,181.25,22.8534,23.6258,166.225,100.013,93.922,0.000791615,0.0458506,21.0799,483.418,0.555336,0.0,0.0
728,181.75,22.1339,24.3167,171.885,100.037,94.517,0.000785485,0.0458681,21.08,483.418,0.501628,0.0,0.0
730,182.25,22.8706,24.3832,173.624,100.081,94.6363,0.000780519,0.0458551,21.0796,483.408,0.494388,0.0,0.0
732,182.75,22.8701,23.6531,175.678,100.11,94.8935,0.000782232,0.0458446,21.0793,483.418,0.472946,0.0,0.0
734,183.25,22.1661,23.4454,176.137,100.144,94.1686,0.000788779,0.0458575,21.079,483.418,0.543728,0.0,0.0
736,183.75,23.2492,23.7147,172.624,100.172,94.5783,0.000794083,0.0458872,21.0788,483.418,0.507828,0.0,0.0
738,184.25,22.1613,24.326,170.304,100.213,94.3933,0.000803477,0.0458899,21.0786,483.418,0.528745,0.0,0.0
740,184.75,22.4744,23.9513,171.225,100.232,94.3925,0.000815674,0.0458728,21.0789,483.408,0.530501,0.0,0.0
742,185.25,22.2418,22.7754,179.022,100.272,94.9429,0.000828103,0.0458304,21.0792,483.418,0.48265,0.0,0.0
744,185.75,22.1152,22.9769,173.447,100.307,95.0995,0.000840465,0.0457705,21.0794,483.418,0.471197,0.0,0.0
746,186.25,22.6449,23.5777,174.841,100.336,94.2676,0.000858129,0.0457219,21.0795,483.418,0.551395,0.0,0.0
748,186.75,22.6827,24.0974,170.885,100.353,94.6574,0.000879323,0.0456825,21.0797,483.408,0.516458,0.0,0.0
750,187.25,21.9116,23.8999,174,100.391,94.5807,0.000909886,0.0456506,21.0798,483.418,0.526906,0.0,0.0
752,187.75,22.9509,23.8517,171.589,100.414,94.4258,0.000946699,0.0456177,21.0798,483.418,0.543432,0.0,0.0
754,188.25,22.3967,23.5488,172.146,100.444,94.328,0.000990562,0.0455846,21.0799,483.408,0.555229,0.0,0.0
756,188.75,22.2812,23.2309,173.318,100.463,94.7113,0.00103873,0.0455578,21.08,483.418,0.521098,0.0,0.0
758,189.25,22.0199,23.9219,172.843,100.479,94.8991,0.00108797,0.0455496,21.08,483.408,0.50498,0.0,0.0
760,189.75,22.5548,23.4741,166.171,100.482,94.1962,0.00113705,0.0455572,21.0801,483.408,0.570943,0.0,0.0
762,190.25,22.4222,23.3989,173.359,100.496,93.9654,0.0011768,0.0455763,21.0801,483.408,0.593876,0.0,0.0
764,190.75,22.6653,23.2353,178.792,100.501,94.3016,0.00120901,0.0455917,21.0801,483.408,0.562731,0.0,0.0
766,191.25,22.4084,23.5786,177.88,100.501,94.702,0.00124125,0.04555,21.0801,483.408,0.525321,0.0,0.0
768,191.75,21.9659,23.4374,175.302,100.505,94.5706,0.00126864,0.0455162,21.0801,483.408,0.537882,0.0,0.0
770,192.25,22.2394,23.4128,172.502,100.513,94.6095,0.00129198,0.0454346,21.0801,483.418,0.534992,0.0,0.0
772,192.75,22.5882,23.2656,175.964,100.523,94.5718,0.00131088,0.0453686,21.0799,483.408,0.539373,0.0,0.0
774,193.25,22.6469,23.5419,175.396,100.54,94.6821,0.00133469,0.045329,21.0798,483.418,0.530566,0.0,0.0
776,193.75,22.5761,23.5149,169.187,100.558,95.0415,0.00135398,0.0453094,21.0797,483.418,0.498648,0.0,0.0
778,194.25,22.3244,23.5068,170.604,100.564,94.7044,0.00137811,0.0452935,21.0797,483.418,0.530622,0.0,0.0
780,194.75,22.0077,23.4942,175.104,100.573,94.7474,0.00139765,0.0452671,21.0796,483.418,0.527359,0.0,0.0
782,195.25,22.1853,23.0686,170.359,100.589,94.3856,0.00141348,0.0452457,21.0796,483.418,0.562602,0.0,0.0
784,195.75,22.2432,23.3109,174.098,100.591,94.0428,0.00144331,0.0452355,21.0798,483.418,0.594971,0.0,0.0
786,196.25,22.1831,23.1933,177.434,100.6,94.6006,0.00146748,0.0452337,21.0802,483.418,0.54349,0.0,0.0
788,196.75,21.6556,23.1743,176.955,100.61,94.8026,0.00149677,0.0452393,21.0805,483.428,0.525529,0.0,0.0
790,197.25,22.0485,22.9803,171.463,100.609,94.5219,0.00152051,0.0452503,21.0808,483.428,0.55163,0.0,0.0
792,197.75,21.979,23.4203,170.063,100.602,95.048,0.00153973,0.0452592,21.081,483.428,0.50193,0.0,0.0
794,198.25,21.9487,23.1933,173.032,100.614,94.8626,0.00156138,0.0452521,21.0812,483.428,0.520218,0.0,0.0
796,198.75,22.2664,23.08,174.314,100.604,94.6635,0.00157891,0.0452336,21.0813,483.428,0.537903,0.0,0.0
798,199.25,22.1071,23.0947,175.259,100.592,94.6083,0.00158461,0.0451915,21.0814,483.418,0.542058,0.0,0.0
800,199.75,22.1857,22.7998,173.445,100.595,95.1263,0.00158922,0.0451574,21.0815,483.418,0.494012,0.0,0.0
802,200.25,22.0089,23.0344,173.17,100.579,94.7547,0.00157441,0.0451226,21.0816,483.408,0.527213,0.0,0.0
804,200.75,21.8376,22.8497,175.132,100.576,94.5592,0.00154572,0.045088,21.0816,483.418,0.545219,0.0,0.0
806,201.25,21.8975,23.3963,166.998,100.587,94.6464,0.00150583,0.04506,21.0817,483.418,0.538033,0.0,0.0
808,201.75,22.2543,23.3491,167.954,100.597,94.2878,0.00145852,0.0450509,21.0819,483.418,0.572509,0.0,0.0
810,202.25,22.2029,23.4172,169.089,100.609,94.6241,0.00142021,0.0450435,21.0821,483.418,0.542041,0.0,0.0
812,202.75,21.7403,22.6708,168.505,100.606,95.1194,0.00136733,0.0450304,21.0822,483.428,0.495686,0.0,0.0
814,203.25,22.0043,23.1447,171.075,100.597,95.1867,0.00132451,0.0450133,21.0823,483.428,0.488576,0.0,0.0
816,203.75,22.0014,22.8576,174.17,100.59,94.8549,0.00129588,0.0449995,21.0824,483.428,0.518834,0.0,0.0
818,204.25,21.5329,22.6693,169.599,100.582,94.7876,0.0012727,0.0450026,21.0825,483.428,0.524469,0.0,0.0
820,204.75,21.7642,22.9336,170.96,100.569,93.956,0.00125391,0.0450051,21.0825,483.428,0.601137,0.0,0.0
822,205.25,21.7137,22.5202,169.614,100.541,94.9421,0.00124719,0.0449665,21.0826,483.428,0.506398,0.0,0.0
824,205.75,21.4986,22.7499,181.448,100.536,94.384,0.00124175,0.0449352,21.0826,483.418,0.55812,0.0,0.0
826,206.25,21.7623,22.9211,173.549,100.495,94.3714,0.00122157,0.0449099,21.0826,483.428,0.555659,0.0,0.0
828,206.75,21.5574,22.7497,173.348,100.489,94.732,0.00120523,0.0448894,21.0826,483.408,0.521414,0.0,0.0
830,207.25,21.9908,22.6353,177.408,100.45,94.2793,0.00116895,0.0448656,21.0827,483.428,0.560363,0.0,0.0
832,207.75,21.5279,22.8549,172.287,100.421,94.0485,0.00113957,0.04484,21.0827,483.428,0.579421,0.0,0.0
834,208.25,21.795,22.2717,171.882,100.399,94.4059,0.00110047,0.0448192,21.0827,483.428,0.544008,0.0,0.0
836,208.75,21.8449,22.7451,174.364,100.379,94.4335,0.00105503,0.0447953,21.0827,483.428,0.53964,0.0,0.0
838,209.25,21.4302,22.5833,171.104,100.326,94.0988,0.00100293,0.0447694,21.0827,483.428,0.566373,0.0,0.0
840,209.75,21.8631,22.9372,172.317,100.307,94.0213,0.00094697,0.0447272,21.0827,483.428,0.571974,0.0,0.0
842,210.25,21.0024,22.7429,174.973,100.271,93.8672,0.000893365,0.0446737,21.0827,483.428,0.583294,0.0,0.0
844,210.75,21.5954,22.3869,172.819,100.241,94.1885,0.000842496,0.0446446,21.0827,483.428,0.55045,0.0,0.0
846,211.25,21.7264,22.5238,175.039,100.182,94.1227,0.000801291,0.0446338,21.0827,483.428,0.551396,0.0,0.0
848,211.75,21.4021,22.2315,177.495,100.152,94.0177,0.000769235,0.0446394,21.0827,483.428,0.558618,0.0,0.0
850,212.25,22.0278,22.707,173.77,100.1,93.8988,0.000744457,0.0446567,21.0827,483.418,0.56525,0.0,0.0
852,212.75,21.2791,22.3476,164.95,100.078,93.7836,0.000730754,0.0446708,21.0827,483.428,0.574096,0.0,0.0
854,213.25,21.2571,21.652,168.955,100.022,93.9978,0.000725384,0.0446822,21.0827,483.408,0.54906,0.0,0.0
856,213.75,20.9124,21.6675,172.561,99.9854,93.3995,0.000721035,0.0446914,21.0825,483.418,0.602236,0.0,0.0
858,214.25,21.4477,22.3058,173.975,99.9368,93.6498,0.000736876,0.0446985,21.0824,483.418,0.57428,0.0,0.0
860,214.75,21.6623,21.8228,176.908,99.9023,93.4762,0.000749707,0.0447039,21.0823,483.418,0.587631,0.0,0.0
862,215.25,21.4514,22.3594,176.321,99.8439,94.0161,0.000774629,0.0447082,21.0822,483.408,0.53156,0.0,0.0
864,215.75,21.1441,22.6227,174.311,99.8082,93.5662,0.000794816,0.0447118,21.0822,483.408,0.570791,0.0,0.0
866,216.25,21.4649,22.0915,173.987,99.7627,93.4709,0.000822068,0.0447146,21.0821,483.398,0.575776,0.0,0.0
868,216.75,21.4132,22.0883,174.875,99.7104,92.9675,0.000844143,0.0446763,21.0821,483.398,0.618868,0.0,0.0
870,217.25,20.5,21.782,174.098,99.6561,92.8,0.000869293,0.0446453,21.082,483.398,0.629991,0.0,0.0
872,217.75,20.7723,21.6032,175.918,99.6167,93.5167,0.000889664,0.0446337,21.082,483.398,0.558497,0.0,0.0
874,218.25,21.7434,22.5545,173.175,99.5652,92.8924,0.000906165,0.0446243,21.082,483.408,0.613124,0.0,0.0
876,218.75,21.1424,22.314,177.794,99.5206,93.7662,0.000919531,0.0446303,21.082,483.408,0.526418,0.0,0.0
878,219.25,21.9367,22.0502,177.843,99.4557,93.5601,0.000929145,0.0446351,21.0819,483.418,0.540098,0.0,0.0
880,219.75,21.6127,22.333,173.483,99.42,93.1671,0.000936932,0.044639,21.0818,483.408,0.574136,0.0,0.0
882,220.25,21.4734,22.0607,171.545,99.3657,92.9302,,0.0446421,,483.408,0.591804,0.0,0.0
884,220.75,21.2457,21.9618,174.201,99.3292,93.2705,,0.0446447,,483.408,0.556247,0.0,0.0
886,221.25,20.6397,21.7507,173.403,99.3024,92.9561,,0.0446325,,483.398,0.583705,0.0,0.0
888,221.75,20.6214,21.7521,173.719,99.2626,93.0218,,0.0446098,,483.408,0.573921,0.0,0.0
890,222.25,21.6472,21.8561,173.951,99.2127,93.137,,0.0445914,,483.388,0.558538,0.0,0.0
892,222.75,20.9704,22.3464,168.269,99.1783,93.1521,,0.0445495,,483.398,0.554042,0.0,0.0
894,223.25,21.2289,22.1432,173.514,99.1365,92.7444,,,,483.398,0.589083,0.0,0.0
896,223.75,21.1231,21.6182,172.177,99.1089,92.4584,,,,483.398,0.613919,0.0,0.0
898,224.25,20.8821,21.9707,174.864,99.0477,92.9075,,,,483.398,0.565634,0.0,0.0
900,224.75,20.6452,21.6462,172.131,99.0209,92.9367,,,,483.398,0.560467,0.0,0.0
902,225.25,21.07,21.9239,180.057,98.9836,92.8916,,,,483.398,0.561418,0.0,0.0
904,225.75,21.3921,22.0535,177.672,98.956,92.7841,,,,483.398,0.569189,0.0,0.0
906,226.25,21.424,22.3941,174.722,98.9158,93.1314,,,,483.398,0.532588,0.0,0.0
908,226.75,21.113,21.9502,169.379,98.885,92.9509,,,,483.388,0.54698,0.0,0.0
910,227.25,21.0869,22.0603,174.835,98.8615,92.3992,,,,483.378,0.59749,0.0,0.0
912,227.75,20.8536,21.473,173.841,98.8424,92.7444,,,,483.388,0.562827,0.0,0.0
914,228.25,20.9973,22.0208,174.408,98.8067,92.6726,,,,483.398,0.566479,0.0,0.0
916,228.75,20.6515,21.9946,172.301,98.801,92.5663,,,,483.408,0.576113,0.0,0.0
918,229.25,21.0568,21.5807,169.434,98.7617,93.0028,,,,483.418,0.531016,0.0,0.0
920,229.75,21.0189,21.3551,174.583,98.7455,92.5042,,,,483.408,0.577069,0.0,0.0
922,230.25,20.8975,21.9709,176.74,98.7272,92.572,,,,483.408,0.568965,0.0,0.0
924,230.75,20.6942,22.2884,178.181,98.7252,92.9095,,,,483.418,0.536619,0.0,0.0
925,231,21.6359,21.9159,176.572,98.711,92.6357,,,,483.428,0.561434,0.0,0.0