File: 01_Data/Vinyl_Plank_Flooring/Cone/Vinyl_Plank_Flooring_Cone_HF50Scan_220311_R3.csv
Names,Time,Stack TC,Smoke TC,Exh Press,Smoke Comp,Smoke Meas,CO Meter,CO2 Meter,O2 Meter,Sample Mass,Ext Coeff,Start Test,Flame Verif
Chan Gain,,500,500,1,1,1,1,1,1,1,1,1.0,1.0
Offset,,0,0,0.136191,0,0,0,0,0,0,0,0.0,0.0
Gain,,1,1,25.011,13.291,13.2919,1,1,1,1.00093,1.00758,1.0,1.0
Units,sec,C,C,Pa,%,%,%,%,%,g,/m,,
Baseline,,31.188,32.261,166.432,99.8173,94.0658,0.000498876,0.0412727,21.083,-2.32111,0.524587,,
2,0.25,27.3252,28.2471,167.1,99.0367,93.8554,0.000511663,0.0420267,21.0812,498.642,0.474931,0.0,0.0
4,0.75,27.9383,28.36,169.705,99.0582,93.7049,0.000541871,0.0421742,21.0816,498.682,0.491032,0.0,0.0
6,1.25,27.8751,29.1897,166.795,99.0805,93.5889,0.00056876,0.0422937,21.0819,498.742,0.503972,0.0,0.0
8,1.75,27.6509,28.8815,165.814,99.0862,93.8566,0.000587356,0.0423906,21.0822,498.682,0.479232,0.0,0.0
10,2.25,27.5656,28.4046,164.338,99.0988,93.5666,0.000599555,0.0424476,21.0824,498.652,0.507708,0.0,0.0
12,2.75,27.863,28.2455,168.84,99.1101,93.2721,0.000604979,0.0424746,21.0825,498.702,0.536582,0.0,0.0
14,3.25,27.3533,28.8848,166.816,99.1255,93.7289,0.000605363,0.0424964,21.0822,498.712,0.494781,0.0,0.0
16,3.75,27.6724,28.8138,165.254,99.1422,93.1634,0.000610129,0.0424735,21.082,498.692,0.549747,0.0,0.0
18,4.25,27.7335,28.3509,167.858,99.1422,92.9849,0.000618001,0.042455,21.0809,498.702,0.566695,0.0,0.0
20,4.75,27.6774,28.5283,172.242,99.1779,93.0397,0.000624376,0.0424264,21.08,498.702,0.564673,0.0,0.0
22,5.25,27.5008,28.4271,163.651,99.1718,93.0024,0.000801562,0.0424033,21.0793,498.692,0.567676,0.0,0.0
24,5.75,27.512,28.5767,167.025,99.1888,93.1581,0.0010999,0.0423711,21.0778,498.692,0.554405,0.0,0.0
26,6.25,27.5997,28.3241,168.506,99.1937,92.6876,0.00134156,0.0423449,21.0766,498.692,0.599594,0.0,0.0
28,6.75,27.9855,28.6886,170.251,99.2221,93.2806,0.00299431,0.0430955,21.0745,498.682,0.545753,0.0,0.0
30,7.25,27.8906,28.8271,165.559,99.2196,91.97,0.00433303,0.0437034,21.0717,498.823,0.670598,0.0,0.0
32,7.75,28.2733,29.1448,163.817,99.2472,90.3876,0.00803258,0.0508531,21.0694,498.652,0.826447,0.0,0.0
34,8.25,28.3297,28.8896,158.899,99.2537,89.9021,0.0110292,0.0566443,21.0565,498.572,0.874631,0.0,1.0
36,8.75,27.681,29.0045,158.8,99.2793,88.1822,0.0159308,0.0613352,21.046,498.522,1.04763,0.0,1.0
38,9.25,28.2099,29.1371,156.871,99.2825,80.9651,0.022128,0.0997581,20.9771,498.392,1.8026,0.0,1.0
40,9.75,28.6529,29.0471,138.639,99.3085,72.4155,0.0289807,0.130881,20.9213,498.142,2.79126,0.0,1.0
42,10.25,28.8418,29.6827,131.941,99.3198,64.796,0.036181,0.192514,20.8028,497.842,3.77489,0.0,1.0
44,10.75,29.6677,30.3607,125.063,99.3478,50.3598,0.0433569,0.242438,20.7069,497.681,6.00511,0.0,1.0
46,11.25,30.4775,30.9898,130.073,99.362,47.5771,0.0503785,0.282876,20.5896,497.321,6.50875,0.0,1.0
48,11.75,31.4515,31.7172,135.244,99.3896,46.707,0.056066,0.348738,20.4946,497.131,6.67434,0.0,1.0
50,12.25,31.9082,32.2486,134.428,99.4058,41.9213,0.0610966,0.402086,20.4176,496.921,7.63121,0.0,1.0
52,12.75,33.1913,33.5239,142.42,99.4257,38.4998,0.0674525,0.451685,20.3553,496.791,8.3855,0.0,0.0
54,13.25,33.7667,34.2891,135.037,99.4391,31.4892,0.0687826,0.49186,20.3048,496.54,10.1633,0.0,0.0
56,13.75,34.2916,34.941,139.747,99.4707,29.6289,0.071057,0.520109,20.2639,496.37,10.7043,0.0,0.0
58,14.25,35.0404,35.8134,136.523,99.4857,25.85,0.0728993,0.542991,20.2308,496.27,11.9115,0.0,0.0
60,14.75,35.5898,36.5312,136.404,99.517,25.4131,0.0730645,0.557232,20.2077,496.1,12.065,0.0,0.0
62,15.25,36.269,37.1679,137.673,99.5417,23.4052,0.0726116,0.564903,20.1924,495.97,12.7946,0.0,0.0
64,15.75,36.8985,37.9625,135.877,99.5644,25.287,0.0717167,0.571116,20.1857,495.81,12.1132,0.0,0.0
66,16.25,37.0325,38.3633,139.409,99.5798,24.6242,0.0709918,0.570882,20.1804,495.72,12.3493,0.0,0.0
68,16.75,37.395,38.3259,137.445,99.6098,26.5084,0.0694967,0.570692,20.176,495.59,11.7003,0.0,0.0
70,17.25,38.0768,39.4243,139.702,99.6321,31.0199,0.0682857,0.569527,20.1725,495.449,10.3132,0.0,0.0
72,17.75,39.1654,40.3167,139.879,99.6565,32.8335,0.0668778,0.568582,20.1696,495.349,9.81311,0.0,0.0
74,18.25,39.1469,40.6807,142.647,99.6743,31.7468,0.0657374,0.569337,20.1673,495.239,10.1122,0.0,0.0
76,18.75,39.6935,41.3947,145.929,99.7125,34.4256,0.0648136,0.569948,20.1654,495.129,9.39956,0.0,0.0
78,19.25,40.2772,41.8407,143.882,99.7408,37.7713,0.0640604,0.573222,20.1639,495.019,8.58232,0.0,0.0
80,19.75,41.1817,42.5955,139.819,99.7623,38.2844,0.0634458,0.575873,20.1595,494.869,8.46497,0.0,0.0
82,20.25,41.2955,43.0315,136.962,99.7774,36.5852,0.0631274,0.58296,20.156,494.709,8.86755,0.0,0.0
84,20.75,41.711,43.4494,135.617,99.8135,38.2382,0.063031,0.588701,20.1456,494.549,8.48017,0.0,0.0
86,21.25,41.8784,43.6011,139.393,99.8297,38.6393,0.0632071,0.597844,20.1372,494.469,8.38937,0.0,0.0
88,21.75,42.3285,43.8635,137.31,99.8512,38.6479,0.0635786,0.609295,20.1304,494.358,8.38932,0.0,0.0
90,22.25,43.4122,45.4093,137.945,99.865,36.5775,0.0638795,0.618569,20.1133,494.158,8.87717,0.0,0.0
92,22.75,44.2984,46.5726,132.564,99.8901,37.4987,0.0641232,0.626082,20.0995,494.018,8.65956,0.0,0.0
94,23.25,44.7857,46.7273,131.863,99.9181,39.2953,0.0649582,0.6444,20.0733,493.918,8.24841,0.0,0.0
96,23.75,45.788,47.5536,134.978,99.9534,36.7629,0.0656347,0.659238,20.0522,493.738,8.84031,0.0,0.0
98,24.25,46.2312,48.2493,120.088,99.97,34.8061,0.0663425,0.67842,20.0345,493.538,9.32521,0.0,0.0
100,24.75,47.1654,49.052,133.061,99.9834,34.3481,0.0669158,0.693958,20.0199,493.388,9.44346,0.0,0.0
102,25.25,47.1029,49.3215,136.433,100.02,34.9395,0.0672072,0.706543,20.008,493.267,9.2958,0.0,0.0
104,25.75,47.7846,50.2327,123.129,100.042,33.6131,0.0674433,0.71926,19.9983,493.067,9.63984,0.0,0.0
106,26.25,48.8009,51.1417,132.972,100.062,32.1337,0.0676345,0.729561,19.9905,492.907,10.0394,0.0,0.0
108,26.75,49.6624,52.4861,139.566,100.078,34.8483,0.0671342,0.73418,19.9842,492.777,9.324,0.0,0.0
110,27.25,50.0183,52.5477,136.772,100.122,34.5379,0.066729,0.737922,19.9791,492.617,9.407,0.0,0.0
112,27.75,50.1808,53.2086,132.878,100.13,33.0683,0.0657102,0.737576,19.9749,492.507,9.792,0.0,0.0
114,28.25,51.1813,53.8595,138.471,100.156,36.3836,0.0648849,0.734256,19.9818,492.387,8.94988,0.0,0.0
116,28.75,51.2878,54.3608,141.068,100.176,33.3823,0.0636264,0.731568,19.9916,492.266,9.71252,0.0,0.0
118,29.25,51.445,54.3254,136.541,100.209,36.1309,0.062607,0.723829,20.0033,492.126,9.01617,0.0,0.0
120,29.75,51.9284,54.7549,136.003,100.227,34.6552,0.0614568,0.717561,20.0158,492.046,9.38628,0.0,0.0
122,30.25,52.7808,55.6907,136.913,100.255,35.4263,0.0602329,0.710734,20.0287,491.896,9.19424,0.0,0.0
124,30.75,53.212,56.1271,140.504,100.275,34.3854,0.0589654,0.703628,20.0391,491.766,9.45957,0.0,0.0
126,31.25,53.3353,56.5433,135.955,100.304,34.9196,0.0576901,0.697178,20.052,491.636,9.32592,0.0,0.0
128,31.75,54.2447,57.4527,138.277,100.321,30.5319,0.05635,0.691328,20.0625,491.536,10.5142,0.0,0.0
130,32.25,54.3424,57.3824,128.369,100.353,31.5091,0.0549879,0.685323,20.0763,491.446,10.2386,0.0,0.0
132,32.75,54.6209,57.6031,140.857,100.364,37.0569,0.0538846,0.679319,20.0874,491.326,8.80611,0.0,0.0
134,33.25,55.4506,58.5552,136.898,100.395,34.2199,0.0525455,0.672622,20.0965,491.185,9.51282,0.0,0.0
136,33.75,55.3337,59.0254,140.245,100.405,34.4864,0.0510599,0.665546,20.1123,491.095,9.44511,0.0,0.0
138,34.25,54.7975,58.1606,144.952,100.412,38.604,0.0495395,0.657909,20.1251,490.995,8.44886,0.0,0.0
140,34.75,55.6541,58.9644,148.572,100.444,40.9803,0.0480226,0.650009,20.1421,490.885,7.92373,0.0,0.0
142,35.25,55.9282,59.2939,152.539,100.482,40.7685,0.0464659,0.643609,20.1559,490.855,7.97283,0.0,0.0
144,35.75,55.8287,59.5637,139.619,100.486,39.0608,0.0449098,0.636553,20.1728,490.715,8.35136,0.0,0.0
146,36.25,56.625,60.2411,144.265,100.523,42.5911,0.0436493,0.629153,20.1866,490.635,7.5899,0.0,0.0
148,36.75,56.2925,60.1444,140.497,100.516,46.7902,0.0420122,0.621617,20.2021,490.565,6.75819,0.0,0.0
150,37.25,56.815,60.5616,141.632,100.552,44.5162,0.0406861,0.614125,20.21875,490.445,7.20169,0.0,0.0
152,37.75,56.5275,60.2217,140.374,100.551,44.9267,0.0392811,0.608057,20.2355,490.365,7.12053,0.0,0.0
154,38.25,57.0611,61.091,146.05,100.589,51.8826,0.0378453,0.600223,20.252,490.295,5.85152,0.0,0.0
156,38.75,57.2101,60.8224,145.465,100.581,49.9615,0.0364069,0.593877,20.2677,490.225,6.18435,0.0,0.0
158,39.25,57.2843,61.111,138.929,100.6,50.1095,0.0349941,0.586069,20.2825,490.155,6.15987,0.0,0.0
160,39.75,57.0066,60.7941,148.402,100.612,51.7901,0.0338497,0.579745,20.2945,490.064,5.86932,0.0,0.0
162,40.25,58.3015,62.071,145.408,100.652,52.9571,0.0325517,0.571447,20.3043,489.994,5.67593,0.0,0.0
164,40.75,57.5072,61.6201,148.16,100.645,56.5908,0.0311663,0.564725,20.3193,489.934,5.08873,0.0,0.0
166,41.25,57.6491,61.6003,147.999,100.669,51.4595,0.029785,0.557217,20.3314,489.854,5.93094,0.0,0.0
168,41.75,57.8371,61.9966,150.739,100.672,57.903,0.028433,0.549278,20.3448,489.824,4.88851,0.0,0.0
170,42.25,58.2583,62.3421,148.736,100.689,58.3805,0.0273378,0.542847,20.3587,489.734,4.8174,0.0,0.0
172,42.75,57.7469,61.6758,144.804,100.678,59.9754,0.0259401,0.533163,20.3736,489.674,4.57824,0.0,0.0
174,43.25,58.954,63.1602,152.024,100.706,64.0379,0.024808,0.525319,20.3887,489.624,4.0014,0.0,0.0
176,43.75,57.975,61.8727,147.612,100.699,62.2076,0.0234391,0.515561,20.4069,489.604,4.25708,0.0,0.0
178,44.25,58.196,62.3431,151.876,100.723,67.4903,0.0223302,0.504593,20.4268,489.514,3.53884,0.0,0.0
180,44.75,57.9729,61.9411,151.516,100.718,67.8334,0.0209981,0.495709,20.443,489.474,3.49358,0.0,0.0
182,45.25,57.9354,62.1932,157.02,100.741,70.8128,0.019919,0.483283,20.4601,489.424,3.11562,0.0,0.0
184,45.75,57.779,62.0311,157.24,100.727,68.9501,0.019045,0.473218,20.4775,489.404,3.35001,0.0,0.0
186,46.25,57.7956,62.13,149.759,100.741,71.0627,0.0180292,0.459848,20.4916,489.334,3.08452,0.0,0.0
188,46.75,57.7521,62.0086,148.17,100.728,73.3651,0.0169295,0.449019,20.5107,489.314,2.80153,0.0,0.0
190,47.25,57.8678,62.2065,154.786,100.75,74.2794,0.0160387,0.437448,20.5262,489.254,2.69402,0.0,0.0
192,47.75,58.1545,62.3384,154.973,100.741,73.8705,0.0149142,0.425557,20.5425,489.264,2.74206,0.0,0.0
194,48.25,57.6836,61.9799,155.465,100.759,75.7162,0.0140034,0.415925,20.5591,489.234,2.52544,0.0,0.0
196,48.75,57.3343,61.8354,156.388,100.723,78.754,0.0131278,0.40404,20.5725,489.184,2.17467,0.0,0.0
198,49.25,57.7687,62.1295,155.259,100.752,78.9718,0.0122947,0.390738,20.5918,489.164,2.15282,0.0,0.0
200,49.75,57.3924,61.7994,156.024,100.741,79.3202,0.0115087,0.379964,20.6075,489.144,2.11295,0.0,0.0
202,50.25,57.1824,61.6898,157.39,100.746,79.6752,0.0107721,0.365331,20.6295,489.114,2.07391,0.0,0.0
204,50.75,57.2605,61.5546,156.568,100.74,80.6313,0.0101754,0.353478,20.6473,489.124,1.96792,0.0,0.0
206,51.25,57.1764,61.5486,157.395,100.744,79.1223,0.00952451,0.341075,20.6655,489.084,2.13521,0.0,0.0
208,51.75,57.0666,61.4478,161.04,100.733,80.8454,0.0089973,0.328507,20.6836,489.064,1.94387,0.0,0.0
210,52.25,56.8804,61.2752,156.372,100.733,81.7679,0.00845812,0.316278,20.7015,489.043,1.84363,0.0,0.0
212,52.75,56.6659,61.0037,155.477,100.722,82.0526,0.00802138,0.304527,20.719,489.043,1.81187,0.0,0.0
214,53.25,56.8101,61.2461,158.379,100.714,82.2088,0.00758559,0.295009,20.7353,489.023,1.79442,0.0,0.0
216,53.75,56.4557,60.7954,162.469,100.708,83.6906,0.00723261,0.283562,20.7504,488.983,1.636,0.0,0.0
218,54.25,55.9973,60.6671,158.658,100.7,83.2626,0.00694669,0.27429,20.7626,488.993,1.6806,0.0,0.0
220,54.75,56.0248,60.5446,154.073,100.677,82.5881,0.00662581,0.263844,20.7773,489.003,1.75047,0.0,0.0
222,55.25,55.9965,60.3061,155.448,100.676,84.8162,0.00636591,0.255383,20.7893,488.973,1.5151,0.0,0.0
224,55.75,55.8257,60.3326,158.99,100.663,86.3398,0.00610216,0.245813,20.8013,488.973,1.35661,0.0,0.0
226,56.25,55.5924,60.0085,159.225,100.653,87.2667,0.00588852,0.238061,20.8132,488.963,1.26134,0.0,0.0
228,56.75,55.5455,59.9251,162.072,100.64,87.0379,0.00566728,0.230205,20.8247,488.933,1.2834,0.0,0.0
230,57.25,55.5343,60.1432,160.009,100.628,88.8085,0.00548807,0.222421,20.8356,488.943,1.1043,0.0,0.0
232,57.75,55.0741,59.609,158.119,100.611,89.5622,0.00530587,0.216116,20.8471,488.923,1.02818,0.0,0.0
234,58.25,54.4169,58.9449,158.723,100.599,89.9796,0.00515828,0.208183,20.8587,488.893,0.985985,0.0,0.0
236,58.75,54.3501,58.837,161.956,100.573,91.6277,0.00501732,0.201758,20.8681,488.893,0.823281,0.0,0.0
238,59.25,54.7215,59.26,163.126,100.564,92.1453,0.00488386,0.193953,20.8802,488.893,0.77271,0.0,0.0
240,59.75,54.5284,59.0306,158.813,100.552,93.0742,0.00476279,0.18763,20.8899,488.873,0.683022,0.0,0.0
242,60.25,53.921,58.4054,168.508,100.53,93.393,0.00465305,0.180043,20.9019,488.853,0.650873,0.0,0.0
244,60.75,54.0977,58.5435,163.237,100.518,92.8263,0.00456416,0.173896,20.9115,488.853,0.703629,0.0,0.0
246,61.25,54.0829,58.6624,162.598,100.5,93.1362,0.00448891,0.166681,20.9193,488.843,0.672531,0.0,0.0
248,61.75,53.6053,58.2213,162.892,100.471,94.2363,0.00442505,0.160836,20.9283,488.843,0.566178,0.0,0.0
250,62.25,53.1023,57.5429,160.733,100.458,93.7812,0.00437786,0.15488,20.9356,488.813,0.607897,0.0,0.0
252,62.75,53.2466,57.7222,163.241,100.438,94.3426,0.00434372,0.148956,20.9451,488.813,0.553397,0.0,0.0
254,63.25,53.0952,57.5387,166.655,100.413,93.9163,0.0043206,0.144157,20.9527,488.813,0.591143,0.0,0.0
256,63.75,52.6266,57.033,164.081,100.405,94.3503,0.00430596,0.138549,20.9612,488.793,0.549747,0.0,0.0
258,64.25,53.0326,57.2909,161.919,100.377,94.1244,0.00429994,0.134007,20.968,488.803,0.568438,0.0,0.0
260,64.75,52.3442,56.8513,164.452,100.366,94.4838,0.00430032,0.130327,20.9749,488.803,0.533827,0.0,0.0
262,65.25,51.7837,56.1717,166.78,100.334,94.2793,0.00430063,0.125773,20.9818,488.783,0.550114,0.0,0.0
264,65.75,51.3143,55.8139,164.554,100.34,94.5811,0.00430704,0.122084,20.9879,488.783,0.522437,0.0,0.0
266,66.25,51.8341,56.1834,160.587,100.312,93.9739,0.00431223,0.118207,20.9932,488.763,0.576828,0.0,0.0
268,66.75,51.5875,55.8903,164.855,100.292,93.782,0.00430288,0.115066,20.9982,488.753,0.593177,0.0,0.0
270,67.25,51.1343,55.4219,167.764,100.281,94.9316,0.00429531,0.111691,21.0029,488.753,0.484495,0.0,0.0
272,67.75,51.0601,55.4172,162.062,100.252,93.9836,0.00428917,0.108957,21.0067,488.743,0.570622,0.0,0.0
274,68.25,51.1954,55.452,164.726,100.223,93.6206,0.00422879,0.106065,21.0097,488.743,0.602291,0.0,0.0
276,68.75,50.1056,55.367,166.293,100.208,93.8672,0.00417988,0.103722,21.0127,488.753,0.57775,0.0,0.0
278,69.25,49.7039,53.8526,165.007,100.185,93.5171,0.00414026,0.101217,21.0155,488.763,0.608734,0.0,0.0
280,69.75,49.0661,53.6379,160.25,100.17,94.5868,0.00407129,0.0991881,21.0178,488.753,0.506889,0.0,0.0
282,70.25,49.8198,53.4168,162.859,100.144,94.46875,0.00398223,0.097218,21.02,488.733,0.515672,0.0,0.0
284,70.75,49.1568,53.7888,165.033,100.132,93.7475,0.00388877,0.0953282,21.0219,488.753,0.582297,0.0,0.0
286,71.25,49.0619,53.1473,174.933,100.117,93.5139,0.00379388,0.0937975,21.0238,488.753,0.603027,0.0,0.0
288,71.75,49.1196,53.0824,161.314,100.102,94.1021,0.00369056,0.0925576,21.0253,488.733,0.546321,0.0,0.0
290,72.25,49.0053,53.2692,167.294,100.08,93.8794,0.00358306,0.0909475,21.027,488.713,0.565293,0.0,0.0
292,72.75,48.615,52.4389,165.491,100.066,94.1256,0.00346892,0.0896433,21.0284,488.733,0.540889,0.0,0.0
294,73.25,48.345,53.0057,165.529,100.038,94.2144,0.00335211,0.0883987,21.0304,488.723,0.530078,0.0,0.0
296,73.75,48.4314,52.2646,166.01,100.034,93.9946,0.00323433,0.0872212,21.032,488.723,0.550405,0.0,0.0
298,74.25,47.5808,52.3943,165.476,100.009,93.9025,0.00311807,0.0862674,21.0342,488.723,0.556846,0.0,0.0
300,74.75,48.4113,52.0349,166.246,100.008,93.8356,0.0030239,0.0851788,21.036,488.723,0.563076,0.0,0.0
302,75.25,47.9493,51.8323,169.961,99.9879,94.3775,0.00291871,0.084297,21.0374,488.733,0.510384,0.0,0.0
304,75.75,47.7769,51.926,167.275,99.9907,94.3779,0.00280747,0.0832944,21.0386,488.723,0.510598,0.0,0.0
306,76.25,47.1729,51.4756,163.953,99.9656,93.7086,0.00269746,0.0824823,21.0396,488.713,0.571277,0.0,0.0
308,76.75,47.768,50.9487,164.353,99.9554,94.3726,0.00259045,0.0817009,21.0408,488.713,0.507971,0.0,0.0
310,77.25,46.8548,51.1569,169.089,99.9424,94.5815,0.00249351,0.081068,21.0418,488.703,0.487281,0.0,0.0
312,77.75,46.1959,51.1497,163.079,99.9416,94.5191,0.00244732,0.0804181,21.0422,488.703,0.493049,0.0,0.0
314,78.25,46.6899,50.7312,166.247,99.9587,94.0035,0.00236834,0.0798917,21.0429,488.723,0.542897,0.0,0.0
316,78.75,46.44,50.64,164.628,100.008,93.6591,0.00230558,0.0794654,21.0435,488.703,0.579711,0.0,0.0
318,79.25,46.1408,50.4479,165.536,100.037,94.285,0.00225475,0.0789691,21.044,488.693,0.523388,0.0,0.0
320,79.75,46.3162,50.7337,166.945,100.085,94.0096,0.00222942,0.0785671,21.0443,488.693,0.553508,0.0,0.0
322,80.25,46.2814,49.9027,163.811,100.1,93.9998,0.0022089,0.0781044,21.0451,488.673,0.555748,0.0,0.0
324,80.75,45.9075,50.0602,164.433,100.144,93.8477,0.00220447,0.0779072,21.0457,488.663,0.573965,0.0,0.0
326,81.25,46.1834,49.7784,164.671,100.159,94.3592,0.00221185,0.0775013,21.0462,488.653,0.527248,0.0,0.0
328,81.75,45.6115,49.8065,165.324,100.197,94.1394,0.00221784,0.0771725,21.0466,488.653,0.551193,0.0,0.0
330,82.25,45.4865,50.0305,163.081,100.221,93.7751,0.00223938,0.0769199,21.0469,488.653,0.58757,0.0,0.0
332,82.75,45.047,49.1903,162.808,100.252,93.6124,0.00227186,0.0767153,21.0472,488.683,0.605632,0.0,0.0
334,83.25,45.3367,49.231,161.934,100.278,94.1885,0.0023078,0.076528,21.0474,488.673,0.55374,0.0,0.0
336,83.75,44.8884,48.8016,164.792,100.306,94.1025,0.0023456,0.0763567,21.0476,488.663,0.564243,0.0,0.0
338,84.25,44.0948,48.3131,168.396,100.316,94.2761,0.00238328,0.076218,21.0477,488.643,0.548845,0.0,0.0
340,84.75,44.2986,48.0344,165.31,100.357,93.9098,0.00242017,0.0759549,21.0478,488.633,0.586896,0.0,0.0
342,85.25,44.635,48.5711,163.776,100.364,93.6705,0.00245262,0.0757418,21.0479,488.633,0.610022,0.0,0.0
344,85.75,44.8573,48.5222,168.292,100.399,94.2201,0.00248122,0.0755691,21.048,488.623,0.561418,0.0,0.0
346,86.25,44.4193,48.6592,171.288,100.397,94.5024,0.00250246,0.0753471,21.048,488.633,0.53476,0.0,0.0
348,86.75,44.2612,47.9439,158.227,100.417,95.6812,0.00251793,0.0751673,21.0481,488.643,0.42698,0.0,0.0
350,87.25,44.0742,47.6405,161.126,100.417,94.6553,0.00252531,0.0750353,21.0481,488.633,0.522219,0.0,0.0
352,87.75,44.3815,47.8493,166.42,100.445,94.4501,0.00252666,0.0749284,21.0482,488.613,0.543867,0.0,0.0
354,88.25,43.7742,46.7227,163.824,100.445,94.1175,0.00252776,0.0748555,21.0482,488.623,0.575085,0.0,0.0
356,88.75,43.3832,47.2547,163.946,100.468,94.1722,0.00251579,0.0747965,21.0482,488.633,0.571977,0.0,0.0
358,89.25,43.6199,47.5322,159.614,100.465,94.3398,0.00249453,0.0747486,21.0482,488.613,0.555983,0.0,0.0
360,89.75,43.5439,47.2227,165.893,100.498,95.2979,0.0024696,0.0746666,21.0482,488.613,0.469598,0.0,0.0
362,90.25,43.7639,47.1371,163.763,100.477,94.7993,0.00244247,0.0745613,21.0482,488.603,0.514136,0.0,0.0
364,90.75,43.7395,47.2431,161.373,100.504,94.3033,0.0024205,0.0744759,21.0483,488.603,0.562829,0.0,0.0
366,91.25,43.1478,46.8379,165.747,100.488,95.4415,0.00239416,0.0743636,21.0483,488.613,0.455434,0.0,0.0
368,91.75,43.2349,46.6286,161.159,100.52,94.934,0.00237282,0.0742336,21.0483,488.603,0.505299,0.0,0.0
370,92.25,42.0159,46.1046,169.293,100.494,94.9214,0.00235554,0.0741283,21.0483,488.583,0.504187,0.0,0.0
372,92.75,42.4149,46.0478,161.346,100.509,94.4619,0.00234796,0.0739472,21.0483,488.603,0.548404,0.0,0.0
374,93.25,42.5144,46.0761,164.487,100.491,94.141,0.0023476,0.0738005,21.0483,488.593,0.576943,0.0,0.0
376,93.75,42.1369,46.4935,163.317,100.502,94.6553,0.00235695,0.0736269,21.0484,488.593,0.529748,0.0,0.0
378,94.25,42.3311,45.628,168.245,100.496,94.416,0.00237319,0.0734862,21.0485,488.583,0.551553,0.0,0.0
380,94.75,41.7753,45.3996,169.115,100.496,94.0737,0.00239278,0.0733723,21.0485,488.583,0.583659,0.0,0.0
382,95.25,42.3602,45.4154,167.158,100.484,94.1743,0.00241443,0.0732224,21.0485,488.583,0.573214,0.0,0.0
384,95.75,42.2504,46.0201,169.285,100.495,94.1629,0.00243196,0.0730491,21.0485,488.583,0.575243,0.0,0.0
386,96.25,41.4756,45.3274,168.325,100.473,94.2469,0.00243909,0.0728655,21.0486,488.583,0.565438,0.0,0.0
388,96.75,41.8025,45.1925,164.565,100.464,94.3154,0.00243851,0.0726779,21.049,488.583,0.558156,0.0,0.0
390,97.25,42.1214,45.5136,163.716,100.447,95.1105,0.00242262,0.0725259,21.0494,488.553,0.482464,0.0,0.0
392,97.75,41.9065,45.7068,168.966,100.439,95.1052,0.00239588,0.0723892,21.0497,488.563,0.482312,0.0,0.0
394,98.25,42.1004,45.7697,167.298,100.427,94.979,0.00235945,0.0722784,21.0499,488.573,0.492972,0.0,0.0
396,98.75,41.6501,44.922,162.649,100.428,94.9028,0.00233693,0.0721814,21.0501,488.573,0.500179,0.0,0.0
398,99.25,40.6472,44.9185,164.639,100.41,94.4834,0.00229842,0.0720964,21.0502,488.553,0.537721,0.0,0.0
400,99.75,41.9679,44.9573,166.039,100.389,94.9125,0.00224895,0.0719772,21.0504,488.543,0.495809,0.0,0.0
402,100.25,41.7322,44.7489,164.13,100.37,94.4237,0.00220888,0.0718352,21.0505,488.543,0.5398,0.0,0.0
404,100.75,41.1772,44.9842,162.612,100.357,94.3004,0.00216667,0.0716698,21.0506,488.543,0.550172,0.0,0.0
406,101.25,40.9337,44.9134,162.269,100.343,93.8368,0.00213249,0.0714904,21.0507,488.523,0.59252,0.0,0.0
408,101.75,41.2195,45.3213,165.451,100.318,93.9747,0.00210608,0.071414,21.0507,488.513,0.577325,0.0,0.0
410,102.25,41.1102,44.2693,168.033,100.292,94.5864,0.00208584,0.0712285,21.0508,488.533,0.517693,0.0,0.0
412,102.75,41.0003,44.2116,163.907,100.264,94.4189,0.00206945,0.0710783,21.0508,488.533,0.53093,0.0,0.0
414,103.25,40.7868,44.4764,162.547,100.243,94.818,0.00206771,0.0708883,21.0508,488.523,0.49175,0.0,0.0
416,103.75,40.9415,44.2375,161.971,100.213,94.227,0.0020767,0.0707343,21.0509,488.513,0.544402,0.0,0.0
418,104.25,40.5648,44.0577,166.561,100.192,94.4099,0.00209296,0.0705808,21.0509,488.523,0.525399,0.0,0.0
420,104.75,40.5399,43.6039,167.248,100.16,94.2513,0.00211421,0.0704306,21.0509,488.513,0.537396,0.0,0.0
422,105.25,40.1987,44.0191,163.003,100.148,95.0484,0.00213914,0.0703089,21.0509,488.493,0.461962,0.0,0.0
424,105.75,40.2641,43.6495,156.311,100.101,95.2739,0.00216625,0.070142,21.0509,488.503,0.436826,0.0,0.0
426,106.25,40.42,43.7352,158.263,100.076,94.0935,0.0021985,0.0700068,21.0509,488.513,0.544829,0.0,0.0
428,106.75,40.2554,43.6839,165.921,100.044,94.0866,0.00223386,0.0698828,21.0514,488.483,0.542611,0.0,0.0
430,107.25,40.3212,43.6381,167.68,100.02,94.227,0.002276,0.0697695,21.0518,488.483,0.527321,0.0,0.0
432,107.75,39.7693,43.4262,165.741,99.9757,94.5158,0.00232228,0.0696777,21.0521,488.503,0.496366,0.0,0.0
434,108.25,40.2026,43.3906,165.287,99.9514,94.6322,0.00236683,0.0696717,21.0523,488.503,0.483333,0.0,0.0
436,108.75,39.7626,43.9464,166.745,99.9023,94.5596,0.00240929,0.0696669,21.0525,488.503,0.485777,0.0,0.0
438,109.25,39.809,43.0115,167.093,99.8642,93.911,0.00244368,0.0696082,21.0527,488.503,0.543236,0.0,0.0
440,109.75,39.6295,43.18,163.957,99.8191,94.4598,0.00246447,0.0695608,21.0528,488.493,0.487748,0.0,0.0
442,110.25,39.4961,42.9816,163.195,99.783,94.0396,0.00247494,0.0694266,21.0529,488.493,0.523961,0.0,0.0
444,110.75,39.8628,42.8336,166.197,99.7392,94.4262,0.00246928,0.069318,21.053,488.483,0.483822,0.0,0.0
446,111.25,39.8814,42.4882,163.001,99.7076,93.8704,0.00245197,0.0691343,21.053,488.483,0.533188,0.0,0.0
448,111.75,39.4213,42.5893,162.016,99.6459,94.2485,0.00243796,0.0689855,21.0531,488.473,0.492197,0.0,0.0
450,112.25,39.3847,42.6849,169.136,99.6658,93.6429,0.00240212,0.0688218,21.0531,488.483,0.550936,0.0,0.0
452,112.75,39.443,42.1236,166.583,99.6435,94.0599,0.00237309,0.0686504,21.0532,488.483,0.509687,0.0,0.0
454,113.25,39.4094,42.0738,163.807,99.6764,93.4863,0.00235323,0.0685116,21.0532,488.453,0.566662,0.0,0.0
456,113.75,39.5909,42.118,167.33,99.6557,93.4733,0.00233715,0.0683035,21.0534,488.463,0.566055,0.0,0.0
458,114.25,39.3133,42.6984,166.432,99.6743,94.474,0.00233504,0.0681349,21.0535,488.453,0.473591,0.0,0.0
460,114.75,39.0775,42.6326,162.171,99.6674,93.4246,0.00234316,0.0679624,21.0537,488.443,0.571702,0.0,0.0
462,115.25,38.8056,42.3525,163.375,99.6788,94.2181,0.00234973,0.0677904,21.0538,488.443,0.497963,0.0,0.0
464,115.75,38.9904,42.0792,161.753,99.6792,94.1361,0.00237177,0.0676371,21.0538,488.453,0.50569,0.0,0.0
466,116.25,38.9692,41.8307,167.618,99.6995,93.726,0.00240465,0.0675003,21.054,488.443,0.546076,0.0,0.0
468,116.75,38.9539,41.7634,165.44,99.6881,94.2903,0.00243129,0.0673752,21.0541,488.453,0.49202,0.0,0.0
470,117.25,38.3829,42.3709,162.094,99.7121,94.5479,0.00245737,0.0672609,21.0542,488.443,0.47003,0.0,0.0
472,117.75,38.7954,42.3082,157.682,99.706,93.6457,0.00248254,0.0671683,21.0547,488.453,0.554228,0.0,0.0
474,118.25,38.7711,41.9615,162.48,99.7311,94.0023,0.00250036,0.0669927,21.0552,488.443,0.52287,0.0,0.0
476,118.75,38.267,41.6639,161.268,99.7125,93.3301,0.00251248,0.0667599,21.056,488.443,0.584639,0.0,0.0
478,119.25,38.7182,41.213,162.929,99.7413,93.9905,0.00251394,0.0665713,21.0566,488.453,0.524873,0.0,0.0
480,119.75,38.7223,41.6527,167.699,99.7392,94.2408,0.0025076,0.0663683,21.0571,488.433,0.50119,0.0,0.0
482,120.25,38.3937,41.4067,164.696,99.7717,93.8457,0.00249154,0.0661586,21.0575,488.423,0.541197,0.0,0.0
484,120.75,37.7677,41.4367,168.895,99.7611,94.0217,0.0024687,0.0660031,21.0579,488.423,0.523698,0.0,0.0
486,121.25,38.352,41.4632,165.096,99.7891,94.3483,0.00244185,0.0658901,21.0582,488.433,0.495534,0.0,0.0
488,121.75,38.4809,41.3748,165.317,99.7915,94.0165,0.00241259,0.0657986,21.0584,488.433,0.526889,0.0,0.0
490,122.25,38.4929,41.3005,161.798,99.8139,94.0964,0.00238568,0.0656698,21.0586,488.423,0.521356,0.0,0.0
492,122.75,37.6628,41.0288,164.197,99.8033,93.6538,0.00236099,0.0655296,21.0587,488.413,0.562087,0.0,0.0
494,123.25,37.8651,40.0719,164.078,99.8305,94.4882,0.002341,0.0653837,21.0588,488.423,0.486099,0.0,0.0
496,123.75,37.9152,40.7838,164.962,99.8289,93.4762,0.00232741,0.065244,21.0589,488.393,0.581134,0.0,0.0
498,124.25,37.9898,40.9355,167.452,99.8439,93.8522,0.00231876,0.0651115,21.0588,488.393,0.54698,0.0,0.0
500,124.75,37.6578,40.4719,165.687,99.8398,93.4981,0.00231175,0.0650041,21.0588,488.393,0.580033,0.0,0.0
502,125.25,38.1961,40.5046,164.281,99.8743,93.8875,0.00232315,0.0649171,21.0587,488.413,0.546349,0.0,0.0
504,125.75,38.0251,40.7059,167.408,99.8735,93.6725,0.00233239,0.0648467,21.0587,488.383,0.566539,0.0,0.0
506,126.25,37.6708,40.7467,163.243,99.8982,94.0944,0.00234842,0.064782,21.0586,488.383,0.529013,0.0,0.0
508,126.75,37.7078,40.8877,164.034,99.8998,94.0871,0.0023614,0.0647228,21.0586,488.373,0.529842,0.0,0.0
510,127.25,36.8888,40.5021,164.013,99.9205,94.1913,0.00236581,0.0646748,21.0586,488.363,0.521884,0.0,0.0
512,127.75,37.0508,40.1684,167.625,99.9193,93.7463,0.00236938,0.0645541,21.0585,488.373,0.563631,0.0,0.0
514,128.25,37.3532,40.4359,164.216,99.9355,94.4586,0.00235398,0.0644563,21.0585,488.353,0.498165,0.0,0.0
516,128.75,37.4867,40.5453,164.675,99.9327,93.7358,0.00234149,0.0643089,21.0585,488.353,0.56581,0.0,0.0
518,129.25,37.8191,39.9825,164.918,99.966,93.7775,0.00230821,0.0641895,21.0585,488.353,0.564812,0.0,0.0
520,129.75,37.3388,40.368,157.376,99.9514,94.7198,0.00228125,0.0640928,21.0585,488.363,0.475155,0.0,0.0
522,130.25,37.686,39.9895,169.88,99.9676,94.158,0.00225942,0.0640145,21.0585,488.383,0.529167,0.0,0.0
524,130.75,37.3591,39.8107,165.558,99.9647,93.434,0.00222223,0.0638828,21.0585,488.353,0.597145,0.0,0.0
526,131.25,37.0542,39.2195,162.885,99.9923,93.6713,0.00219211,0.0637762,21.0585,488.353,0.577165,0.0,0.0
528,131.75,36.5341,39.1903,157.487,99.9887,94.6343,0.00216283,0.0636353,21.0585,488.353,0.486443,0.0,0.0
530,132.25,37.3341,40.1296,171.421,100.008,94.6525,0.00213912,0.0635212,21.0585,488.343,0.486424,0.0,0.0
532,132.75,37.2541,39.8548,163.791,100.011,93.6104,0.00211992,0.0633928,21.0585,488.333,0.584521,0.0,0.0
534,133.25,37.0085,39.714,165.3,100.022,94.2371,0.00210436,0.0632566,21.0589,488.353,0.526513,0.0,0.0
536,133.75,37.0996,39.9016,165.103,100.016,94.4878,0.00208932,0.0631462,21.0593,488.363,0.502568,0.0,0.0
538,134.25,37.1911,39.6162,165.474,100.031,94.4018,0.00207714,0.0629886,21.0596,488.363,0.511906,0.0,0.0
540,134.75,37.216,39.72,166.082,100.034,93.6765,0.00206535,0.062861,21.0598,488.363,0.580359,0.0,0.0
542,135.25,37.126,39.9875,159.081,100.058,94.6075,0.00205407,0.0626759,21.06,488.353,0.495073,0.0,0.0
544,135.75,37.2449,40.0154,162.218,100.045,94.04,0.00204301,0.0625259,21.0601,488.343,0.547065,0.0,0.0
546,136.25,37.0881,39.8634,162.867,100.055,94.9721,0.00203232,0.0623614,21.0603,488.333,0.460784,0.0,0.0
548,136.75,37.3001,39.3213,162.473,100.06,95.0991,0.00202366,0.0621894,21.0604,488.333,0.449407,0.0,0.0
550,137.25,36.9515,39.5901,157.304,100.058,94.4116,0.00201024,0.0620644,21.0605,488.333,0.513395,0.0,0.0
552,137.75,36.8167,39.3007,158.483,100.082,94.253,0.00199359,0.0619761,21.0605,488.343,0.530333,0.0,0.0
554,138.25,36.954,39.4049,166.27,100.069,94.354,0.00198011,0.0619045,21.0606,488.343,0.519721,0.0,0.0
556,138.75,36.2563,39.0857,161.518,100.078,94.7178,0.00196407,0.0618057,21.0606,488.343,0.486491,0.0,0.0
558,139.25,37.0251,39.3791,160.763,100.067,94.3527,0.00194646,0.0617257,21.0607,488.343,0.519655,0.0,0.0
560,139.75,36.4932,39.1493,169.68,100.082,94.0534,0.0019322,0.0615891,21.0608,488.343,0.549067,0.0,0.0
562,140.25,36.8333,39.3978,165.598,100.073,94.5779,0.00190969,0.061414,21.061,488.343,0.499129,0.0,0.0
564,140.75,36.8082,38.9168,165.367,100.066,93.9159,0.00189146,0.0612721,21.0615,488.343,0.560602,0.0,0.0
566,141.25,36.7054,39.4593,168.769,100.067,93.9536,0.0018706,0.0611572,21.0618,488.333,0.557124,0.0,0.0
568,141.75,36.0747,39.2294,167.307,100.066,93.7743,0.00185371,0.0610641,21.0621,488.333,0.573936,0.0,0.0
570,142.25,36.342,38.982,165.068,100.053,94.1163,0.00184125,0.0609887,21.0624,488.343,0.540654,0.0,0.0
572,142.75,36.2088,38.9579,164.787,100.056,94.0972,0.00183115,0.060914,21.0625,488.343,0.54266,0.0,0.0
574,143.25,36.1592,38.7594,164.666,100.051,94.498,0.00182106,0.0608535,21.0627,488.343,0.504702,0.0,0.0
576,143.75,36.2431,38.5719,167.73,100.041,93.4956,0.00181115,0.0607228,21.0628,488.353,0.59809,0.0,0.0
578,144.25,36.5831,38.8383,164.085,100.017,94.3073,0.00180312,0.0606169,21.0629,488.353,0.519504,0.0,0.0
580,144.75,36.6363,38.9554,165.98,100.02,94.3678,0.00179662,0.0604221,21.0632,488.333,0.514128,0.0,0.0
582,145.25,36.1599,38.705,168.163,100.003,94.5612,0.00174385,0.0602644,21.0634,488.333,0.49452,0.0,0.0
584,145.75,36.5361,38.9477,165.894,99.9972,94.8837,0.0017011,0.0600958,21.0635,488.333,0.463928,0.0,0.0
586,146.25,36.3856,38.3639,163.301,99.9749,94.4168,0.00164097,0.0599592,21.0637,488.333,0.505554,0.0,0.0
588,146.75,36.3928,39.0775,167.438,99.9712,94.7568,0.00159227,0.0598486,21.0638,488.333,0.473468,0.0,0.0
590,147.25,36.0131,38.8312,163.867,99.9412,94.5207,0.00155039,0.0597461,21.0638,488.333,0.492862,0.0,0.0
592,147.75,35.9712,38.7209,163.979,99.9408,94.0834,0.00151647,0.0596632,21.0641,488.323,0.533809,0.0,0.0
594,148.25,35.9795,38.4386,167.08,99.9124,94.4927,0.00150235,0.0595959,21.0646,488.323,0.492932,0.0,0.0
596,148.75,36.311,38.814,164.998,99.9059,93.8822,0.00149091,0.0594326,21.065,488.323,0.549645,0.0,0.0
598,149.25,36.2823,38.4397,166.886,99.8848,93.4169,0.0015023,0.0593003,21.0653,488.323,0.59169,0.0,0.0
600,149.75,36.2954,38.5541,166.408,99.8719,94.3398,0.00151153,0.0592067,21.0655,488.313,0.503659,0.0,0.0
602,150.25,36.245,38.556,168.987,99.8487,95.2565,0.00153723,0.0591309,21.0657,488.303,0.41614,0.0,0.0
604,150.75,35.9378,38.3269,166.644,99.8386,95.0618,0.00155806,0.0590695,21.0659,488.293,0.433328,0.0,0.0
606,151.25,35.7081,38.2066,168.634,99.8102,94.5442,0.00157492,0.0590198,21.066,488.293,0.479069,0.0,0.0
608,151.75,35.8998,37.8655,163.563,99.8228,94.2177,0.00160318,0.0589523,21.0661,488.283,0.51076,0.0,0.0
610,152.25,36.0764,38.3415,167.228,99.7822,94.4513,0.00162607,0.0588976,21.0662,488.293,0.485277,0.0,0.0
612,152.75,35.802,38.1467,168.964,99.7656,94.9089,0.00165434,0.0588125,21.0663,488.293,0.441091,0.0,0.0
614,153.25,35.4035,37.9638,164.014,99.7437,94.9223,0.00167724,0.0587435,21.0663,488.293,0.437904,0.0,0.0
616,153.75,35.3666,38.1908,158.239,99.736,94.2262,0.00170672,0.0586662,21.0664,488.283,0.502273,0.0,0.0
618,154.25,35.7748,38.2477,171.427,99.7108,93.8246,0.00174044,0.0585842,21.0664,488.273,0.537792,0.0,0.0
620,154.75,35.6206,37.879,164.665,99.6995,94.3763,0.00177737,0.0585178,21.0664,488.283,0.48497,0.0,0.0
622,155.25,34.5589,37.169,166.113,99.6764,93.9576,0.00181593,0.0583959,21.0665,488.293,0.522211,0.0,0.0
624,155.75,35.2051,37.2322,166.171,99.6638,94.6959,0.00184717,0.0582973,21.0664,488.283,0.451921,0.0,0.0
626,156.25,35.3986,37.9246,159.766,99.6313,93.8246,0.00188831,0.0581629,21.0663,488.273,0.530742,0.0,0.0
628,156.75,35.0697,37.9589,167.962,99.635,93.868,0.00192163,0.058054,21.0661,488.273,0.526979,0.0,0.0
630,157.25,35.8676,37.9273,167.796,99.5863,93.9751,0.00195593,0.057944,21.0661,488.263,0.512583,0.0,0.0
632,157.75,35.7271,37.4216,168.099,99.581,94.6914,0.00198372,0.0578352,21.066,488.273,0.444997,0.0,0.0
634,158.25,35.7026,37.1331,162.282,99.5559,94.4846,0.00200622,0.057747,21.0664,488.273,0.462095,0.0,0.0
636,158.75,35.521,37.474,167.119,99.5441,93.6899,0.00202323,0.0576756,21.0667,488.293,0.535699,0.0,0.0
638,159.25,35.0086,36.6839,168.879,99.5178,93.4745,0.00203701,0.0576177,21.0669,488.273,0.5537,0.0,0.0
640,159.75,35.1588,37.2874,165.195,99.4898,93.5281,0.0020424,0.0575437,21.0672,488.263,0.546153,0.0,0.0
642,160.25,35.2606,38.1134,171.421,99.4667,93.5042,0.00204157,0.0574837,21.0671,488.273,0.54636,0.0,0.0
644,160.75,34.9658,37.6687,170.159,99.4602,94.0968,0.0020409,0.0574208,21.0668,488.263,0.489942,0.0,0.0
646,161.25,35.5501,37.9445,159.328,99.416,93.2015,0.00199896,0.0573569,21.0665,488.263,0.570504,0.0,0.0
648,161.75,35.3251,37.6871,162.137,99.4192,93.4356,0.00196498,0.0573052,21.0663,488.263,0.548625,0.0,0.0
650,162.25,35.1296,37.2463,160.544,99.3863,93.2851,0.00190097,0.0572132,21.0663,488.263,0.559951,0.0,0.0
652,162.75,34.6178,36.7325,168.712,99.3839,93.5662,0.00184912,0.0570936,21.0665,488.263,0.533141,0.0,0.0
654,163.25,35.3205,37.3484,164.046,99.3458,94.1747,0.00177188,0.0569967,21.0664,488.263,0.472459,0.0,0.0
656,163.75,35.5791,37.6543,169.092,99.3442,93.6413,0.00170932,0.0568824,21.0661,488.253,0.522519,0.0,0.0
658,164.25,35.5537,37.1933,167.897,99.3101,94.24,0.00164714,0.0567576,21.0659,488.243,0.463156,0.0,0.0
660,164.75,34.9168,37.6333,165.63,99.306,93.5455,0.00158642,0.0566351,21.0662,488.233,0.528166,0.0,0.0
662,165.25,35.2718,37.0536,163.538,99.2776,93.696,0.00153724,0.0565165,21.0664,488.233,0.511432,0.0,0.0
664,165.75,35.1112,37.3081,168.231,99.2752,94.3199,0.00149804,0.056399,21.0666,488.223,0.45256,0.0,0.0
666,166.25,34.8331,36.6431,158.91,99.2282,93.722,0.00146687,0.0562845,21.0667,488.243,0.504577,0.0,0.0
668,166.75,34.709,36.522,164.871,99.2306,93.7528,0.00144928,0.0561631,21.0669,488.223,0.501887,0.0,0.0
670,167.25,35.384,36.9179,161.858,99.1908,93.3764,0.00144194,0.056039,21.067,488.233,0.533905,0.0,0.0
672,167.75,34.9685,37.579,165.047,99.1827,93.2417,0.00144239,0.0559385,21.067,488.233,0.545939,0.0,0.0
674,168.25,35.0974,37.1123,166.019,99.1564,93.3277,0.0014485,0.0558428,21.0675,488.243,0.53544,0.0,0.0
676,168.75,35.0544,37.0172,162.613,99.1487,93.1484,0.00145601,0.0557524,21.068,488.243,0.551749,0.0,0.0
678,169.25,35.1253,37.0312,158.046,99.1243,93.9443,0.0014644,0.0556791,21.0683,488.233,0.474385,0.0,0.0
680,169.75,35.0854,36.9899,165.994,99.1304,94.1848,0.00147119,0.055511,21.0686,488.243,0.452325,0.0,0.0
682,170.25,34.5889,35.9738,167.087,99.0927,93.6023,0.0014694,0.0553749,21.0688,488.233,0.503793,0.0,0.0
684,170.75,34.1119,36.6305,165.209,99.0886,93.8283,0.00146795,0.055251,21.0689,488.223,0.482122,0.0,0.0
686,171.25,34.6505,36.6483,162.023,99.0602,93.8502,0.00145706,0.0551507,21.0691,488.243,0.477527,0.0,0.0
688,171.75,34.9434,37.0586,165.024,99.0627,93.6903,0.00144824,0.0550695,21.0692,488.253,0.492808,0.0,0.0
690,172.25,34.5563,37.202,165.945,99.031,93.0377,0.0014411,0.0550036,21.0693,488.233,0.551771,0.0,0.0
692,172.75,34.5174,36.7662,163.869,99.0083,93.3188,0.00141953,0.0549503,21.0694,488.233,0.523079,0.0,0.0
694,173.25,35.0911,36.7568,164.9,98.9872,93.1614,0.00140206,0.0549071,21.0694,488.213,0.536115,0.0,0.0
696,173.75,34.3389,36.8747,169.015,98.9844,93.2981,0.00136242,0.0548586,21.0695,488.213,0.522902,0.0,0.0
698,174.25,34.3469,36.7663,162.845,98.9673,93.7512,0.00133032,0.0548192,21.0695,488.203,0.478562,0.0,0.0
700,174.75,34.3289,37.0887,161.426,98.9503,93.6514,0.00128517,0.0547873,21.0696,488.243,0.486452,0.0,0.0
702,175.25,34.9116,36.7074,168.503,98.9406,93.5707,0.00123137,0.0547072,21.0696,488.233,0.493205,0.0,0.0
704,175.75,34.6145,36.9392,161.197,98.9272,93.5666,0.00117823,0.0546422,21.0696,488.233,0.492392,0.0,0.0
706,176.25,34.5554,36.6654,165.046,98.9175,92.8856,0.00112658,0.0545489,21.0696,488.213,0.556092,0.0,0.0
708,176.75,34.3403,37.3745,164.254,98.8895,93.0089,0.00108283,0.0544732,21.0696,488.203,0.541865,0.0,0.0
710,177.25,34.5555,36.4564,170.69,98.8862,93.0778,0.00104567,0.0543848,21.0697,488.203,0.535025,0.0,0.0
712,177.75,34.9261,36.3501,167.23,98.8757,93.0186,0.00102194,0.0543131,21.0697,488.203,0.539706,0.0,0.0
714,178.25,34.9012,36.6642,162.406,98.8659,93.3622,,0.0542265,,488.223,0.506251,0.0,0.0
716,178.75,34.3711,36.7904,164.334,98.8477,93.2048,,0.0541306,,488.203,0.519531,0.0,0.0
718,179.25,34.2804,36.1624,166.174,98.842,93.6595,,0.0540529,,488.193,0.476008,0.0,0.0
720,179.75,34.782,36.5273,163.396,98.8238,93.5707,,0.05399,,488.203,0.482763,0.0,0.0
722,180.25,34.2056,35.6858,163.93,98.8315,93.7796,,0.053939,,488.213,0.463742,0.0,0.0
724,180.75,34.0699,36.7109,164.64,98.8067,93.204,,0.053857,,488.203,0.515944,0.0,0.0
726,181.25,34.348,36.3045,166.208,98.8083,92.617,,,,488.193,0.571926,0.0,0.0
728,181.75,34.259,36.35,167.438,98.7897,93.3476,,,,488.193,0.500814,0.0,0.0
730,182.25,34.3845,36.335,163.885,98.7828,93.2044,,,,488.193,0.513765,0.0,0.0
732,182.75,34.5877,35.7985,164.437,98.7739,93.6051,,,,488.183,0.475044,0.0,0.0
734,183.25,34.6478,36.4232,168.232,98.7702,93.8408,,,,488.193,0.452492,0.0,0.0
736,183.75,34.365,36.1663,162.643,98.756,93.3561,,,,488.173,0.496995,0.0,0.0
738,184.25,33.9368,36.6826,162.408,98.7609,93.7049,,,,488.183,0.464466,0.0,0.0
740,184.75,34.58,36.881,163.7,98.7447,93.2405,,,,488.173,0.50693,0.0,0.0
742,185.25,34.3513,35.8956,165.916,98.7443,93.0036,,,,488.183,0.529378,0.0,0.0
744,185.75,34.6258,35.8082,166.326,98.7268,93.8141,,,,488.183,0.45113,0.0,0.0
746,186.25,34.2419,36.5048,163.278,98.737,93.133,,,,488.203,0.516436,0.0,0.0
748,186.75,34.1834,36.3688,162.09,98.7256,93.4676,,,,488.203,0.483717,0.0,0.0
750,187.25,34.4045,36.349,168.567,98.7313,93.7715,,,,488.213,0.455543,0.0,0.0
752,187.75,34.2863,36.1877,165.452,98.7078,93.1435,,,,488.213,0.51282,0.0,0.0
754,188.25,33.7078,36.251,166.525,98.726,93.1448,,,,488.213,0.51434,0.0,0.0
756,188.75,33.879,36.3248,166.162,98.7078,93.1658,,,,488.193,0.510704,0.0,0.0