File: 01_Data/Vinyl_Plank_Flooring/Cone/Vinyl_Plank_Flooring_Cone_HF50Scan_220311_R2.csv
Names,Time,Stack TC,Smoke TC,Exh Press,Smoke Comp,Smoke Meas,CO Meter,CO2 Meter,O2 Meter,Sample Mass,Ext Coeff,Start Test,Flame Verif
Chan Gain,,500,500,1,1,1,1,1,1,1,1,1.0,1.0
Offset,,0,0,0.136191,0,0,0,0,0,0,0,0.0,0.0
Gain,,1,1,25.011,13.291,13.2919,1,1,1,1.00093,1.00758,1.0,1.0
Units,sec,C,C,Pa,%,%,%,%,%,g,/m,,
Baseline,,30.7965,32.0888,167.082,100.084,95.3324,0.000842651,0.041449,21.0818,-2.14249,0.42994,,
2,0.25,28.714,29.7022,164.569,98.7045,93.9082,0.000990338,0.0414576,21.0829,491.786,0.44027,0.0,0.0
4,0.75,28.5672,29.5932,171.627,98.6968,94.6906,0.00102529,0.0414434,21.0828,491.896,0.366241,0.0,0.0
6,1.25,28.5522,30.0554,166.709,98.7074,94.7665,0.00105118,0.041486,21.0827,491.836,0.360108,0.0,0.0
8,1.75,28.3346,29.5762,168.561,98.7134,94.4347,0.00107215,0.0415205,21.0826,491.786,0.391654,0.0,0.0
10,2.25,28.0914,29.324,164.58,98.726,94.5438,0.00107215,0.0415552,21.0825,491.886,0.382573,0.0,0.0
12,2.75,28.3458,29.9886,170.204,98.7207,94.6639,0.00107216,0.0415894,21.0825,491.876,0.370884,0.0,0.0
14,3.25,28.696,29.8798,170.116,98.7362,94.3377,0.00106132,0.0416171,21.0824,491.816,0.402765,0.0,0.0
16,3.75,28.3789,29.5014,165.908,98.7224,94.3937,0.00104278,0.0416324,21.0815,491.836,0.396288,0.0,0.0
18,4.25,28.3003,29.5206,164.401,98.7293,94.3945,0.00103223,0.0416384,21.0807,491.846,0.396829,0.0,0.0
20,4.75,28.5086,29.5015,163.294,98.737,93.6871,0.0010277,0.0416568,21.0792,491.826,0.464007,0.0,0.0
22,5.25,28.5757,29.5476,168.375,98.7382,93.4332,0.00112059,0.0416717,21.078,491.806,0.488104,0.0,0.0
24,5.75,28.4096,29.9109,172.171,98.7402,94.7515,0.00128272,0.041698,21.0766,491.826,0.36445,0.0,0.0
26,6.25,28.2615,29.8021,170.717,98.7564,94.1442,0.00141405,0.0417321,21.0755,491.826,0.422727,0.0,0.0
28,6.75,28.4932,29.4802,166.36,98.7516,93.4125,0.00289483,0.0423299,21.0726,491.796,0.491259,0.0,0.0
30,7.25,28.3722,29.6255,166.953,98.7694,93.5062,0.00409427,0.0433272,21.0687,491.866,0.483995,0.0,0.0
32,7.75,28.1187,29.8294,163.657,98.7649,93.5536,0.00772039,0.0476335,21.0655,491.716,0.479111,0.0,1.0
34,8.25,28.5836,29.6231,168.043,98.7933,92.1509,0.0106576,0.0542701,21.0469,491.716,0.615174,0.0,1.0
36,8.75,28.676,29.6989,160.357,98.7905,90.7292,0.0153131,0.0596458,21.0319,491.656,0.752346,0.0,1.0
38,9.25,28.4123,29.8505,167.377,98.8006,83.8382,0.021133,0.0896265,20.9784,491.606,1.4514,0.0,1.0
40,9.75,28.7958,29.9599,141.105,98.8002,73.2759,0.0258471,0.113911,20.9351,491.466,2.64152,0.0,1.0
42,10.25,29.4731,30.3525,136.494,98.8189,59.0895,0.0339139,0.156406,20.8562,491.185,4.54502,0.0,1.0
44,10.75,29.7907,30.485,134.437,98.8193,50.78,0.040448,0.21137,20.7527,490.815,5.88452,0.0,1.0
46,11.25,30.7924,31.7202,126.231,98.8335,53.1226,0.0468331,0.25589,20.6689,490.645,5.48718,0.0,1.0
48,11.75,31.3337,32.009,130.613,98.8307,50.5326,0.0500726,0.320682,20.6175,490.365,5.9287,0.0,1.0
50,12.25,31.745,32.4858,135.982,98.8562,43.8063,0.0557206,0.373163,20.5296,490.165,7.19347,0.0,1.0
52,12.75,32.9478,33.3627,143.653,98.8663,42.6917,0.0603931,0.422222,20.4584,489.994,7.42219,0.0,0.0
54,13.25,33.1747,33.8408,142.09,98.8741,32.9929,0.0641778,0.461959,20.4008,489.774,9.70064,0.0,0.0
56,13.75,34.1394,34.5941,144.923,98.8793,29.4959,0.0664189,0.490078,20.3541,489.684,10.6914,0.0,0.0
58,14.25,34.8189,35.6816,136.165,98.9025,25.8257,0.0674921,0.509192,20.3163,489.524,11.8679,0.0,0.0
60,14.75,35.647,36.7749,143.342,98.9037,23.0953,0.0683614,0.51734,20.2856,489.404,12.8556,0.0,0.0
62,15.25,36.0314,37.1096,143.219,98.911,22.3384,0.0679007,0.523037,20.2608,489.264,13.1508,0.0,0.0
64,15.75,36.6588,37.6439,141.936,98.9207,24.5134,0.0664791,0.527651,20.2567,489.204,12.3304,0.0,0.0
66,16.25,36.8436,38.191,148.693,98.9329,29.891,0.0647808,0.527724,20.2533,489.104,10.5786,0.0,0.0
68,16.75,37.2501,38.427,145.195,98.9304,31.436,0.062913,0.524484,20.259,488.963,10.1329,0.0,0.0
70,17.25,37.2561,38.4906,143.665,98.9568,31.7532,0.0610543,0.52186,20.2637,488.893,10.0465,0.0,0.0
72,17.75,37.7487,39.2181,154.099,98.9483,37.3547,0.0592374,0.519734,20.2697,488.783,8.60983,0.0,0.0
74,18.25,38.4188,40.1455,148.436,98.9917,36.6055,0.0575807,0.514959,20.2745,488.663,8.79278,0.0,0.0
76,18.75,39.1839,40.7621,141.793,98.9746,39.2015,0.0560723,0.511092,20.2784,488.533,8.18566,0.0,0.0
78,19.25,39.3713,40.9165,143.814,98.9982,39.9625,0.0548504,0.508889,20.2816,488.513,8.01784,0.0,0.0
80,19.75,39.7375,41.4206,141.337,98.9929,40.1937,0.0537432,0.507105,20.2842,488.383,7.96638,0.0,0.0
82,20.25,40.3308,42.1171,146.058,99.0136,42.1513,0.0528463,0.507837,20.2862,488.273,7.54791,0.0,0.0
84,20.75,40.9726,42.7119,140.062,99.0245,43.1034,0.0521198,0.510084,20.2879,488.203,7.35149,0.0,0.0
86,21.25,40.6499,42.5004,145.664,99.0485,42.4142,0.0517608,0.513391,20.287,488.063,7.49608,0.0,0.0
88,21.75,41.2208,42.9679,146.032,99.0481,40.6306,0.05147,0.51607,20.2841,487.922,7.87576,0.0,0.0
90,22.25,41.8946,43.6831,141.676,99.076,43.7212,0.0515198,0.523585,20.2771,487.812,7.23031,0.0,0.0
92,22.75,42.5766,44.2929,138.729,99.0793,44.1901,0.0515601,0.529672,20.2672,487.682,7.13631,0.0,0.0
94,23.25,42.5514,44.4888,140.902,99.1024,40.4789,0.0519029,0.537728,20.2554,487.602,7.91367,0.0,0.0
96,23.75,43.51,45.1479,142.761,99.1101,43.021,0.0521805,0.547066,20.2425,487.502,7.37602,0.0,0.0
98,24.25,44.0326,46.113,138.208,99.1259,43.8149,0.0524478,0.55463,20.2281,487.352,7.21583,0.0,0.0
100,24.75,44.3359,46.2662,131.606,99.128,45.1336,0.0529048,0.565927,20.2201,487.232,6.95392,0.0,0.0
102,25.25,44.4649,46.5513,139.761,99.1499,50.5225,0.0535873,0.575078,20.1998,487.102,5.95898,0.0,0.0
104,25.75,44.7603,47.1911,140.251,99.1511,44.2164,0.0537952,0.584023,20.1939,486.962,7.13744,0.0,0.0
106,26.25,45.7544,47.8351,134.05,99.1734,44.2501,0.0541466,0.592647,20.1838,486.821,7.1327,0.0,0.0
108,26.75,46.1547,48.473,135.538,99.1843,43.8457,0.0544275,0.601197,20.1757,486.671,7.21482,0.0,0.0
110,27.25,47.3839,49.5863,133.049,99.1985,41.7015,0.0546551,0.604842,20.1691,486.531,7.65924,0.0,0.0
112,27.75,47.7519,49.5223,142.257,99.2067,42.7253,0.0546723,0.610735,20.1637,486.391,7.44559,0.0,0.0
114,28.25,48.2431,50.5433,143.404,99.2241,42.3416,0.0545358,0.617107,20.1594,486.281,7.52688,0.0,0.0
116,28.75,48.5605,50.9607,142.036,99.2245,42.1582,0.0542199,0.6176,20.1558,486.141,7.56527,0.0,0.0
118,29.25,49.1127,51.5283,134.172,99.248,42.2734,0.0537792,0.618444,20.1579,486.021,7.54325,0.0,0.0
120,29.75,49.1519,51.8198,147.457,99.2529,43.9313,0.0531821,0.619127,20.1595,485.901,7.20369,0.0,0.0
122,30.25,49.8695,52.2234,140.692,99.2651,40.1203,0.0524822,0.615822,20.1662,485.78,8.00681,0.0,0.0
124,30.75,49.899,52.3606,143.137,99.2687,42.7497,0.0519153,0.613146,20.1716,485.7,7.44608,0.0,0.0
126,31.25,50.5973,53.3367,140.999,99.2922,37.235,0.0511015,0.609472,20.1769,485.58,8.66886,0.0,0.0
128,31.75,50.4481,53.1389,142.02,99.2979,36.4481,0.0504423,0.60514,20.182,485.46,8.85816,0.0,0.0
130,32.25,50.9743,53.8604,140.247,99.3283,36.9093,0.0495653,0.601632,20.1862,485.36,8.74973,0.0,0.0
132,32.75,51.8585,54.5089,139.383,99.3279,35.3212,0.0488549,0.598734,20.1896,485.27,9.1384,0.0,0.0
134,33.25,51.6455,54.5055,142.344,99.3421,36.6335,0.0480572,0.596386,20.1923,485.13,8.81726,0.0,0.0
136,33.75,52.1573,55.0975,141.391,99.3575,35.8323,0.0474111,0.59656,20.1945,485.07,9.01406,0.0,0.0
138,34.25,52.169,55.2653,138.08,99.3652,36.6509,0.0468877,0.596701,20.1963,484.95,8.81511,0.0,0.0
140,34.75,52.5053,55.9398,139.455,99.3661,34.3733,0.0462234,0.600005,20.1942,484.81,9.38225,0.0,0.0
142,35.25,52.3563,55.6277,145.09,99.3705,37.9181,0.0456853,0.602681,20.1925,484.719,8.51515,0.0,0.0
144,35.75,53.3697,56.5892,135.988,99.3924,37.7096,0.0450791,0.607487,20.1911,484.619,8.56583,0.0,0.0
146,36.25,53.1711,56.6883,135.003,99.3953,38.5671,0.0445881,0.61138,20.19,484.529,8.36735,0.0,0.0
148,36.75,53.9968,57.049,141.934,99.3993,40.0404,0.0439478,0.61548,20.1891,484.399,8.03637,0.0,0.0
150,37.25,54.4167,57.6684,138.795,99.4119,38.8154,0.0434292,0.619653,20.1884,484.309,8.31212,0.0,0.0
152,37.75,54.0819,57.4518,138.716,99.4273,40.025,0.0430091,0.623033,20.1878,484.199,8.04226,0.0,0.0
154,38.25,54.5529,58.2722,143.738,99.4245,40.8517,0.0424026,0.625301,20.1879,484.119,7.86132,0.0,0.0
156,38.75,55.2523,58.8763,140.728,99.4358,42.8373,0.0416718,0.627137,20.1885,484.009,7.44285,0.0,0.0
158,39.25,55.3371,59.411,141.307,99.4342,41.0537,0.0406396,0.626441,20.1889,483.899,7.81859,0.0,0.0
160,39.75,55.8176,59.2392,141.905,99.435,43.6709,0.0398034,0.625877,20.1942,483.789,7.27244,0.0,0.0
162,40.25,56.1595,59.7394,138.887,99.4135,45.7972,0.0388099,0.625419,20.1985,483.709,6.85034,0.0,0.0
164,40.75,56.1605,60.03,145.003,99.4224,46.0657,0.0377205,0.622614,20.209,483.628,6.79946,0.0,0.0
166,41.25,56.5182,60.4768,144.741,99.4265,45.9006,0.036838,0.618149,20.2176,483.578,6.83155,0.0,0.0
168,41.75,56.3467,60.2542,145.372,99.4156,45.5672,0.0361232,0.61267,20.2245,483.488,6.89502,0.0,0.0
170,42.25,56.4562,60.3605,142.721,99.4156,48.8334,0.0346883,0.606557,20.2351,483.398,6.28317,0.0,0.0
172,42.75,56.965,60.9905,147.695,99.422,50.2844,0.033526,0.601605,20.248,483.338,6.02496,0.0,0.0
174,43.25,57.1388,61.2934,149.366,99.4293,51.1293,0.0319297,0.592701,20.2629,483.258,5.87833,0.0,0.0
176,43.75,57.3003,61.4825,142.52,99.4354,51.9844,0.0306367,0.585488,20.279,483.188,5.73228,0.0,0.0
178,44.25,57.3186,61.6271,141.15,99.4338,54.9816,0.0290221,0.576749,20.2967,483.128,5.23669,0.0,0.0
180,44.75,57.4518,61.7601,147.297,99.4488,56.3876,0.0277142,0.567061,20.3153,483.068,5.01486,0.0,0.0
182,45.25,57.8148,61.9491,148.327,99.4273,58.8713,0.0261588,0.559215,20.3369,483.008,4.63197,0.0,0.0
184,45.75,57.7056,61.4596,146.354,99.4383,58.4713,0.0248988,0.549011,20.3602,482.928,4.6932,0.0,0.0
186,46.25,57.5657,61.9061,151.797,99.4261,63.2708,0.0234378,0.537284,20.3843,482.868,3.99487,0.0,0.0
188,46.75,57.4098,61.6667,151.623,99.4346,63.1613,0.0220578,0.522467,20.4084,482.798,4.01094,0.0,0.0
190,47.25,57.3944,62.1053,150.856,99.422,66.466,0.0207631,0.510466,20.4351,482.778,3.55907,0.0,0.0
192,47.75,57.5233,61.6199,147.692,99.4196,64.3689,0.0197144,0.495715,20.4567,482.718,3.84222,0.0,0.0
194,48.25,57.3026,61.5583,152.419,99.3997,65.961,0.0186282,0.483767,20.4742,482.718,3.6245,0.0,0.0
196,48.75,57.0132,61.6705,149.635,99.405,67.5361,0.0175353,0.469065,20.4954,482.638,3.4164,0.0,0.0
198,49.25,57.2741,61.5348,153.799,99.407,69.3533,0.0165171,0.457156,20.5127,482.638,3.1819,0.0,0.0
200,49.75,56.4041,61.0146,157.929,99.3949,69.0921,0.0155729,0.442328,20.5337,482.608,3.21417,0.0,0.0
202,50.25,57.3252,61.9304,153.359,99.3746,69.6637,0.0148081,0.430317,20.5508,482.547,3.13956,0.0,0.0
204,50.75,57.0516,61.4575,156.809,99.3867,72.321,0.013972,0.417451,20.5679,482.527,2.80977,0.0,0.0
206,51.25,57.6296,61.6599,155.243,99.3726,71.2805,0.0132948,0.404207,20.5847,482.487,2.93658,0.0,0.0
208,51.75,56.9582,61.6126,158.345,99.3778,71.6707,0.0125966,0.390657,20.6025,482.457,2.8888,0.0,0.0
210,52.25,57.2833,61.4112,153.845,99.3588,74.8234,0.0120311,0.377144,20.6207,482.447,2.50663,0.0,0.0
212,52.75,56.8878,61.632,152.462,99.347,74.9377,0.0114833,0.366198,20.6355,482.377,2.49209,0.0,0.0
214,53.25,57.4091,61.4647,159.433,99.3361,74.5496,0.0109588,0.352898,20.6523,482.387,2.53702,0.0,0.0
216,53.75,56.9228,61.085,155.881,99.349,75.1377,0.0104546,0.342126,20.6659,482.367,2.46871,0.0,0.0
218,54.25,56.6681,61.301,155.616,99.3332,73.0154,0.00997466,0.33002,20.6819,482.337,2.72054,0.0,0.0
220,54.75,56.9755,61.1111,157.446,99.3369,73.8665,0.00958593,0.320214,20.6948,482.317,2.61845,0.0,0.0
222,55.25,56.5666,61.1057,155.016,99.3158,75.2485,0.00909199,0.310506,20.7078,482.267,2.45273,0.0,0.0
224,55.75,56.3867,61.0201,161.046,99.3214,76.2143,0.00869191,0.301053,20.7207,482.267,2.34052,0.0,0.0
226,56.25,55.9003,60.545,155.459,99.3024,76.8852,0.0082593,0.291809,20.7334,482.247,2.26136,0.0,0.0
228,56.75,56.0788,60.5747,152.354,99.3121,77.0625,0.00790889,0.282893,20.7459,482.227,2.24187,0.0,0.0
230,57.25,55.9959,60.3831,161.524,99.3044,81.6064,0.00754914,0.275671,20.7583,482.207,1.73482,0.0,0.0
232,57.75,56.056,60.5489,162.997,99.3024,81.075,0.00725775,0.266196,20.7705,482.197,1.79238,0.0,0.0
234,58.25,55.9474,60.2789,157.771,99.2728,83.2841,0.00695836,0.258521,20.7838,482.197,1.55214,0.0,0.0
236,58.75,55.3044,59.9679,155.669,99.2874,85.1922,0.00671586,0.25038,20.7978,482.187,1.35323,0.0,0.0
238,59.25,55.059,59.7128,157.776,99.2655,87.3896,0.00645619,0.242055,20.8091,482.177,1.1262,0.0,0.0
240,59.75,55.3101,59.9751,159.984,99.2707,87.4439,0.00624585,0.233809,20.8183,482.167,1.12118,0.0,0.0
242,60.25,55.4341,59.7652,157.883,99.2403,88.1359,0.00607548,0.225777,20.8306,482.147,1.0488,0.0,0.0
244,60.75,55.0599,59.4682,157.553,99.2355,88.9829,0.00588342,0.217858,20.8406,482.127,0.963837,0.0,0.0
246,61.25,54.823,59.0244,157.795,99.2245,90.7669,0.0056792,0.210172,20.8521,482.117,0.787415,0.0,0.0
248,61.75,54.39,59.1702,162.452,99.2257,91.5713,0.00551379,0.202787,20.8614,482.127,0.709543,0.0,0.0
250,62.25,54.297,58.7495,157.967,99.2038,91.5794,0.00534991,0.195761,20.869,482.117,0.706808,0.0,0.0
252,62.75,53.8629,58.6619,158.89,99.2205,91.9907,0.00519026,0.190069,20.8782,482.107,0.668683,0.0,0.0
254,63.25,54.1497,58.4833,160.723,99.1912,92.8308,0.00506094,0.18382,20.8857,482.087,0.585734,0.0,0.0
256,63.75,53.6863,58.2724,162.247,99.1876,92.4974,0.00494755,0.177283,20.8936,482.087,0.617211,0.0,0.0
258,64.25,53.5545,58.1674,161.832,99.162,92.0451,0.00485571,0.171989,20.9017,482.087,0.658257,0.0,0.0
260,64.75,53.3249,57.9457,162.495,99.1556,92.8507,0.00478502,0.166491,20.9104,482.077,0.58066,0.0,0.0
262,65.25,53.0601,57.8773,161.418,99.158,92.1339,0.00472776,0.160951,20.9193,482.057,0.64937,0.0,0.0
264,65.75,52.7509,57.4922,165.655,99.1669,92.6117,0.00467398,0.156463,20.9282,482.067,0.604444,0.0,0.0
266,66.25,52.7933,57.305,160.983,99.1312,93.0478,0.00463042,0.150785,20.9368,482.047,0.559745,0.0,0.0
268,66.75,52.4108,57.0235,162.381,99.1292,92.6483,0.00457664,0.146186,20.945,482.047,0.597598,0.0,0.0
270,67.25,52.5287,56.7407,164.324,99.1154,92.4373,0.00453307,0.141311,20.9527,482.057,0.616513,0.0,0.0
272,67.75,51.9598,56.2541,164.567,99.1255,93.075,0.0044756,0.137363,20.9596,482.037,0.556657,0.0,0.0
274,68.25,51.6769,56.1206,168.947,99.0846,93.7516,0.00442905,0.133642,20.9658,482.027,0.488986,0.0,0.0
276,68.75,51.8373,56.3792,164.243,99.0687,93.5374,0.00437125,0.130157,20.9709,482.037,0.507789,0.0,0.0
278,69.25,52.0231,55.8371,165.071,99.0667,92.5817,0.00430634,0.126679,20.9763,482.017,0.598376,0.0,0.0
280,69.75,50.9638,55.5152,159.541,99.0241,92.0337,0.00424147,0.123862,20.9807,482.017,0.647047,0.0,0.0
282,70.25,51.6066,55.4333,164.461,99.0075,92.245,0.00417784,0.120897,20.9851,481.997,0.625292,0.0,0.0
284,70.75,51.1611,55.6045,160.119,99.0047,93.0985,0.00412631,0.118496,20.9887,481.997,0.54364,0.0,0.0
286,71.25,50.3797,55.7856,165.581,98.9864,93.3455,0.00407292,0.11612,20.9921,481.977,0.518588,0.0,0.0
288,71.75,50.3737,54.8633,162.044,98.973,93.6177,0.00401918,0.113806,20.9953,481.947,0.491659,0.0,0.0
290,72.25,50.3195,55.0892,157.978,98.9471,93.2222,0.00396214,0.111932,20.9978,481.967,0.526759,0.0,0.0
292,72.75,50.3141,54.8952,156.488,98.9292,93.4092,0.00391593,0.109582,21.0017,481.957,0.507453,0.0,0.0
294,73.25,50.1953,54.1946,167.313,98.9179,92.9448,0.0038785,0.107678,21.0048,481.947,0.550494,0.0,0.0
296,73.75,49.6914,54.233,164.562,98.9029,93.3281,0.00383467,0.105527,21.0082,481.957,0.512776,0.0,0.0
298,74.25,49.141,53.9597,165.959,98.8964,93.1362,0.00379205,0.103784,21.011,481.967,0.530385,0.0,0.0
300,74.75,49.2242,52.6922,166.883,98.8842,92.8044,0.00375114,0.101987,21.0141,481.957,0.560842,0.0,0.0
302,75.25,48.1656,52.7422,165.21,98.8696,94.111,0.00371799,0.100184,21.0167,481.957,0.435973,0.0,0.0
304,75.75,47.8082,52.2636,163.815,98.8631,92.9111,0.00367241,0.0984046,21.0187,481.977,0.548802,0.0,0.0
306,76.25,48.1114,52.6708,163.473,98.8509,93.4936,0.00361863,0.0966754,21.0213,481.967,0.492476,0.0,0.0
308,76.75,48.3622,52.0875,164.261,98.8363,92.9127,0.00356409,0.0952747,21.0233,481.967,0.546255,0.0,0.0
310,77.25,47.9634,52.0409,169.04,98.8246,93.2449,0.00351004,0.0936164,21.025,481.947,0.513657,0.0,0.0
312,77.75,48.305,52.3772,170.454,98.8144,93.3833,0.0034598,0.0922731,21.0264,481.937,0.499647,0.0,0.0
314,78.25,47.5499,51.8394,164.343,98.8112,93.0644,0.00341331,0.0910547,21.0283,481.927,0.529585,0.0,0.0
316,78.75,46.7235,51.5911,165.472,98.797,93.2372,0.00337371,0.0899503,21.03,481.927,0.51192,0.0,0.0
318,79.25,46.2964,51.2046,165.029,98.7994,93.1265,0.00333989,0.0889181,21.0317,481.917,0.522641,0.0,0.0
320,79.75,46.8543,51.2873,165.283,98.7828,94.0619,0.0033125,0.0879583,21.0331,481.917,0.43282,0.0,0.0
322,80.25,47.1243,51.1375,161.711,98.7816,93.2271,0.00329399,0.0870794,21.0343,481.917,0.511502,0.0,0.0
324,80.75,46.5275,50.9588,162.809,98.7739,93.7216,0.003279,0.0862763,21.0352,481.897,0.464058,0.0,0.0
326,81.25,46.7019,51.0736,168.289,98.7731,93.1322,0.00327421,0.08551,21.0362,481.907,0.519744,0.0,0.0
328,81.75,46.5324,50.5339,164.838,98.7605,93.064,0.00327033,0.0847852,21.0372,481.887,0.525088,0.0,0.0
330,82.25,46.3913,50.2529,167.285,98.7581,92.9131,0.00326719,0.084198,21.038,481.887,0.539214,0.0,0.0
332,82.75,46.3606,50.5353,164.971,98.7443,93.2819,0.00326464,0.0835026,21.0387,481.877,0.502972,0.0,0.0
334,83.25,45.4769,49.6834,168.432,98.7475,92.817,0.00326258,0.0829393,21.0392,481.877,0.547418,0.0,0.0
336,83.75,45.1692,49.7355,164.579,98.7378,93.335,0.00326091,0.0823045,21.0396,481.887,0.497358,0.0,0.0
338,84.25,46.0094,49.7966,161.815,98.7337,93.2222,0.00323054,0.0817902,21.04,481.887,0.507681,0.0,0.0
340,84.75,45.9518,49.6668,165.964,98.7313,94.1442,0.00317983,0.0813159,21.0398,481.867,0.420476,0.0,0.0
342,85.25,45.7247,49.5924,163.896,98.7398,93.6319,0.00311879,0.0808797,21.0396,481.847,0.469468,0.0,0.0
344,85.75,45.6419,49.6754,163.684,98.7426,93.0158,0.00305138,0.0805264,21.0395,481.857,0.528076,0.0,0.0
346,86.25,44.6806,49.1572,166.94,98.7321,93.073,0.0029897,0.0802402,21.0393,481.847,0.5217,0.0,0.0
348,86.75,44.8506,49.5618,166.377,98.7297,93.5411,0.00293337,0.0798855,21.0397,481.847,0.47714,0.0,0.0
350,87.25,44.4099,48.1315,168.953,98.7495,93.6895,0.00289289,0.0794878,21.04,481.847,0.464903,0.0,0.0
352,87.75,44.5233,48.233,166.182,98.7313,93.5098,0.00286473,0.0791656,21.0402,481.857,0.480237,0.0,0.0
354,88.25,44.5867,48.7119,169.992,98.7524,92.8389,0.00284836,0.0787949,21.0404,481.847,0.545768,0.0,0.0
356,88.75,44.602,48.3323,169.191,98.7512,93.8051,0.00284089,0.0784946,21.0405,481.857,0.454149,0.0,0.0
358,89.25,44.5123,48.3922,166.303,98.7775,92.9123,0.00283485,0.0782514,21.0407,481.857,0.541032,0.0,0.0
360,89.75,44.0807,48.5223,165.106,98.7702,92.7391,0.00282995,0.0780255,21.0408,481.847,0.556871,0.0,0.0
362,90.25,43.79,48.1941,161.899,98.7727,92.9857,0.00283454,0.0778165,21.0408,481.837,0.533616,0.0,0.0
364,90.75,44.1185,47.5349,164.245,98.7856,93.7832,0.00283826,0.0776473,21.0409,481.837,0.459299,0.0,0.0
366,91.25,44.0289,47.5314,161.288,98.7937,93.3038,0.00284006,0.0774142,21.0412,481.837,0.505326,0.0,0.0
368,91.75,43.7675,47.7945,165.35,98.784,93.3776,0.00284151,0.0772254,21.0416,481.827,0.497464,0.0,0.0
370,92.25,43.6568,47.3586,163.144,98.8124,93.1362,0.00284075,0.076993,21.042,481.837,0.522878,0.0,0.0
372,92.75,43.4812,47.6289,169.506,98.8108,93.9366,0.0028384,0.0767334,21.0423,481.837,0.44711,0.0,0.0
374,93.25,43.3263,46.9683,167.946,98.8351,93.5772,0.00283199,0.0765232,21.0425,481.827,0.483166,0.0,0.0
376,93.75,43.1103,46.9349,166.842,98.8505,93.511,0.00282274,0.0763117,21.0427,481.817,0.490791,0.0,0.0
378,94.25,43.0826,47.3454,164.933,98.8599,92.9273,0.00281525,0.0761404,21.0429,481.837,0.546969,0.0,0.0
380,94.75,42.697,47.0454,162.656,98.8497,93.505,0.00278839,0.0760017,21.043,481.817,0.491294,0.0,0.0
382,95.25,43.2274,46.6299,165.252,98.9016,93.694,0.00276664,0.0758893,21.0431,481.797,0.478086,0.0,0.0
384,95.75,43.0042,46.6767,161.791,98.8931,93.1516,0.00274413,0.0757622,21.0432,481.797,0.528633,0.0,0.0
386,96.25,42.7917,46.4382,169.169,98.9203,93.7926,0.0027259,0.0756268,21.0432,481.797,0.470459,0.0,0.0
388,96.75,42.6786,45.8943,166.719,98.9118,94.2935,0.00271113,0.0755172,21.0433,481.777,0.422616,0.0,0.0
390,97.25,41.9273,46.4753,167.203,98.9491,94.1751,0.00273463,0.0753324,21.0433,481.787,0.437059,0.0,0.0
392,97.75,42.2429,46.2345,164.341,98.9682,94.3073,0.00275367,0.0751827,21.0434,481.787,0.42636,0.0,0.0
394,98.25,42.024,46.3955,164.333,98.9856,94.124,0.00280703,0.0750111,21.0434,481.777,0.445118,0.0,0.0
396,98.75,42.0381,45.731,167.091,98.9974,92.9249,0.00285025,0.0748266,21.0434,481.767,0.559485,0.0,0.0
398,99.25,41.9083,46.1513,166.316,99.0444,93.7244,0.00290854,0.0746771,21.0434,481.767,0.487966,0.0,0.0
400,99.75,41.7575,45.4794,166.278,99.0432,93.2279,0.00295575,0.0745287,21.0435,481.767,0.534802,0.0,0.0
402,100.25,41.4241,45.3826,164.494,99.0708,93.8291,0.00299277,0.0744084,21.0437,481.767,0.480454,0.0,0.0
404,100.75,41.7229,45.9205,158.831,99.0882,93.7143,0.00302275,0.0742289,21.0441,481.747,0.49283,0.0,0.0
406,101.25,41.6671,45.8605,166.145,99.1255,94.156,0.00303601,0.0740834,21.0444,481.727,0.454594,0.0,0.0
408,101.75,41.7783,45.143,162.534,99.1341,93.3504,0.00304675,0.0739368,21.0447,481.717,0.531301,0.0,0.0
410,102.25,41.3189,45.1073,164.522,99.1588,93.1622,0.00304643,0.073792,21.0449,481.727,0.551345,0.0,0.0
412,102.75,41.1838,45.2365,165.707,99.1803,93.236,0.00303804,0.0736388,21.0451,481.737,0.54626,0.0,0.0
414,103.25,41.1478,44.6892,167.467,99.2233,93.1224,0.00303125,0.0734822,21.0453,481.747,0.560863,0.0,0.0
416,103.75,40.5464,44.4676,163.572,99.2351,92.8568,0.00301093,0.0733337,21.0454,481.767,0.587165,0.0,0.0
418,104.25,41.0253,44.6456,161.236,99.2845,93.2892,0.00298114,0.0731941,21.0459,481.757,0.550508,0.0,0.0
420,104.75,41.5994,44.1638,167.979,99.3028,93.6636,0.00295701,0.0730233,21.0463,481.737,0.516732,0.0,0.0
422,105.25,40.7045,44.5808,164.415,99.3308,93.6611,0.00291422,0.0728331,21.0467,481.747,0.519452,0.0,0.0
424,105.75,40.9652,44.5708,165.8,99.3551,93.868,0.00287957,0.072679,21.047,481.737,0.502117,0.0,0.0
426,106.25,40.6966,43.7571,164.845,99.379,94.872,0.00283072,0.0724994,21.0472,481.737,0.410218,0.0,0.0
428,106.75,40.8933,43.6195,165.8,99.3884,94.0161,0.00279115,0.072354,21.0474,481.737,0.491146,0.0,0.0
430,107.25,40.3588,43.8608,165.552,99.4269,94.0124,0.00275909,0.0722362,21.0476,481.727,0.494914,0.0,0.0
432,107.75,40.505,43.4591,163.786,99.4476,94.0473,0.0027087,0.0721134,21.0477,481.727,0.493475,0.0,0.0
434,108.25,40.8201,44.22,160.738,99.4715,94.9316,0.00266788,0.072014,21.048,481.717,0.412885,0.0,0.0
436,108.75,40.2011,44.0078,166.345,99.5023,94.1661,0.00262138,0.0717966,21.0481,481.727,0.487177,0.0,0.0
438,109.25,40.1881,43.3819,164.78,99.5141,94.1244,0.00258372,0.0716205,21.0483,481.717,0.492144,0.0,0.0
440,109.75,40.4768,43.6595,164.619,99.5514,94.2838,0.00254345,0.0714779,21.0484,481.727,0.480502,0.0,0.0
442,110.25,40.0928,43.0539,166.124,99.5766,94.1451,0.00251083,0.0713912,21.0485,481.697,0.495748,0.0,0.0
444,110.75,40.098,43.4271,169.172,99.6001,94.014,0.00248441,0.0713468,21.0485,481.707,0.510146,0.0,0.0
446,111.25,39.7269,42.8638,161.808,99.6261,93.6124,0.00245569,0.0713253,21.0486,481.697,0.550282,0.0,0.0
448,111.75,39.4439,42.3484,162.613,99.6496,93.9714,0.00243242,0.0713209,21.0486,481.707,0.518541,0.0,0.0
450,112.25,39.8264,42.9662,163.402,99.6873,94.1876,0.00242578,0.0712813,21.0489,481.697,0.501574,0.0,0.0
452,112.75,39.5726,43.2194,165.099,99.6918,94.6708,0.0024204,0.0712168,21.0494,481.697,0.456751,0.0,0.0
454,113.25,39.7482,42.9787,162.522,99.7116,94.6034,0.00242825,0.0711646,21.0497,481.667,0.464801,0.0,0.0
456,113.75,39.6975,42.9224,166.135,99.7457,95.336,0.0024456,0.0710128,21.05,481.677,0.399642,0.0,0.0
458,114.25,39.6507,42.3989,169.346,99.7761,94.0789,0.00246866,0.0708899,21.0502,481.677,0.519653,0.0,0.0
460,114.75,39.5792,42.8088,164.688,99.8053,94.154,0.00249543,0.0707472,21.0504,481.677,0.515193,0.0,0.0
462,115.25,38.6543,41.5845,165.884,99.8147,94.4294,0.00251712,0.0705927,21.0505,481.667,0.490201,0.0,0.0
464,115.75,38.3817,41.7168,164.607,99.8512,94.431,0.00254447,0.0704244,21.0507,481.667,0.493281,0.0,0.0
466,116.25,38.9518,42.2157,165.174,99.8686,94.4014,0.00256662,0.0702492,21.0508,481.657,0.497597,0.0,0.0
468,116.75,39.1106,42.279,165.748,99.8832,94.8999,0.00259189,0.0700785,21.0508,481.657,0.452337,0.0,0.0
470,117.25,39.1223,42.307,168.491,99.9043,94.7924,0.00261237,0.0699143,21.0509,481.667,0.464221,0.0,0.0
472,117.75,38.898,42.1057,165.864,99.9299,94.4221,0.00263667,0.0697669,21.051,481.677,0.501079,0.0,0.0
474,118.25,38.4655,42.0191,166.062,99.9526,93.7922,0.00266331,0.0696346,21.051,481.657,0.562252,0.0,0.0
476,118.75,39.0268,41.5594,166.228,99.9725,94.0526,0.00268489,0.0695274,21.051,481.667,0.539503,0.0,0.0
478,119.25,37.8502,41.3384,166.662,99.972,94.6801,0.00270481,0.069427,21.0511,481.647,0.480693,0.0,0.0
480,119.75,38.0752,41.0634,168.208,99.9976,94.3787,0.00272095,0.0693456,21.0511,481.647,0.511131,0.0,0.0
482,120.25,38.4313,41.8052,167.674,100.002,94.8022,0.00271935,0.0692724,21.0511,481.637,0.47192,0.0,0.0
484,120.75,38.3952,41.7736,165.909,100.022,94.4452,0.00271805,0.0692067,21.0511,481.637,0.507018,0.0,0.0
486,121.25,38.5094,41.6512,164.004,100.021,94.6119,0.002684,0.0691535,21.0511,481.637,0.491395,0.0,0.0
488,121.75,38.5518,41.3888,163.156,100.045,94.4209,0.00265643,0.0690421,21.0511,481.627,0.511411,0.0,0.0
490,122.25,38.5263,41.6443,163.259,100.052,94.3872,0.00259502,0.0689518,21.0514,481.617,0.5151,0.0,0.0
492,122.75,38.3684,41.3664,163.898,100.069,94.5401,0.00254528,0.068783,21.0518,481.627,0.502368,0.0,0.0
494,123.25,36.7539,40.5765,166.712,100.06,95.2812,0.00247084,0.0686463,21.0521,481.617,0.432495,0.0,0.0
496,123.75,37.3004,40.2981,165.81,100.073,94.9263,0.00241054,0.0684809,21.0524,481.617,0.466628,0.0,0.0
498,124.25,37.9221,40.948,168.476,100.082,95.0719,0.00236171,0.068347,21.0526,481.597,0.453866,0.0,0.0
500,124.75,38.0553,40.6926,167.328,100.101,95.1689,0.00231361,0.0681838,21.0528,481.607,0.446541,0.0,0.0
502,125.25,37.1023,40.3786,164.902,100.094,94.8545,0.00227466,0.0680516,21.0529,481.607,0.475177,0.0,0.0
504,125.75,37.3607,40.5456,170.161,100.108,94.7495,0.00225401,0.06789,21.053,481.607,0.486226,0.0,0.0
506,126.25,37.993,40.6528,168.316,100.097,93.9524,0.00224711,0.067759,21.0531,481.607,0.559889,0.0,0.0
508,126.75,37.6655,40.5076,166.666,100.112,94.702,0.00225435,0.0676529,21.0532,481.607,0.491011,0.0,0.0
510,127.25,37.5874,40.6707,165.835,100.097,94.7344,0.00227178,0.0675123,21.0537,481.617,0.486659,0.0,0.0
512,127.75,37.385,40.4642,161.391,100.113,94.6424,0.00229746,0.0673985,21.0541,481.597,0.49665,0.0,0.0
514,128.25,37.8026,40.2814,161.009,100.106,95.3701,0.00232867,0.0672847,21.0545,481.597,0.428341,0.0,0.0
516,128.75,37.8222,40.524,163.682,100.106,94.5608,0.00236488,0.0671731,21.0547,481.607,0.503659,0.0,0.0
518,129.25,37.3705,40.377,166.646,100.109,94.5913,0.00240404,0.0670684,21.0549,481.617,0.501102,0.0,0.0
520,129.75,37.625,40.3988,165.829,100.103,94.6326,0.00243577,0.0669706,21.0551,481.607,0.496664,0.0,0.0
522,130.25,37.3815,40.0575,164.918,100.084,94.6898,0.00246982,0.0668914,21.0553,481.607,0.48964,0.0,0.0
524,130.75,37.5004,40.5556,167.402,100.093,94.8148,0.00250493,0.0667999,21.0552,481.587,0.478846,0.0,0.0
526,131.25,37.4348,40.5661,163.598,100.068,94.3434,0.00253337,0.0666755,21.0552,481.607,0.520674,0.0,0.0
528,131.75,37.4129,40.3806,169.101,100.073,94.7133,0.00254676,0.0665295,21.0552,481.617,0.486478,0.0,0.0
530,132.25,37.5019,39.8413,166.413,100.053,94.543,0.00254892,0.0664112,21.0552,481.587,0.500671,0.0,0.0
532,132.75,37.0388,40.0194,163.6,100.054,94.6245,0.00254103,0.0663154,21.0552,481.597,0.493123,0.0,0.0
534,133.25,36.9485,40.1867,162.45,100.041,94.5827,0.00252596,0.0660877,21.0552,481.597,0.49588,0.0,0.0
536,133.75,36.997,39.933,170.532,100.046,94.7121,0.00251376,0.0659032,21.0552,481.587,0.484226,0.0,0.0
538,134.25,36.9739,39.9308,167.609,100.027,94.5126,0.00249359,0.0657035,21.0554,481.577,0.501185,0.0,0.0
540,134.75,36.8625,39.3462,168.969,100.051,94.2753,0.00246801,0.0654965,21.0558,481.587,0.525554,0.0,0.0
542,135.25,37.0899,39.4778,164.357,100.013,94.6071,0.00243508,0.0653288,21.0562,481.577,0.491097,0.0,0.0
544,135.75,36.898,39.9667,162.542,100.027,94.4213,0.00240841,0.0651793,21.0564,481.557,0.50976,0.0,0.0
546,136.25,36.9304,39.7088,167.011,100.004,94.3957,0.00237974,0.0650583,21.0566,481.557,0.510074,0.0,0.0
548,136.75,36.6537,39.7454,166.465,99.9891,94.3142,0.00235017,0.0649056,21.0568,481.557,0.516421,0.0,0.0
550,137.25,36.9241,39.7099,167.424,99.9785,94.3114,0.002323,0.064782,21.057,481.547,0.515755,0.0,0.0
552,137.75,36.7754,39.7537,167.912,99.9822,93.9211,0.00229811,0.0646675,21.0571,481.567,0.552723,0.0,0.0
554,138.25,36.8754,39.0955,162.444,99.9591,94.818,0.00227795,0.0645618,21.0572,481.567,0.466681,0.0,0.0
556,138.75,36.305,39.1937,160.548,99.968,95.1153,0.00225065,0.0644475,21.0572,481.547,0.439797,0.0,0.0
558,139.25,37.1047,39.4241,164.948,99.9428,94.8943,0.00222853,0.0643291,21.0573,481.537,0.45814,0.0,0.0
560,139.75,36.1204,38.9737,161.418,99.942,95.2342,0.0022042,0.0642259,21.0573,481.537,0.426464,0.0,0.0
562,140.25,36.3887,39.5482,163.97,99.9197,94.3523,0.00217872,0.064136,21.0574,481.547,0.506715,0.0,0.0
564,140.75,36.5118,39.2912,160.454,99.9181,94.2331,0.00215039,0.0640631,21.0574,481.547,0.51775,0.0,0.0
566,141.25,35.8834,38.9951,160.768,99.8925,94.4314,0.00212052,0.0639495,21.0574,481.537,0.496905,0.0,0.0
568,141.75,36.3051,39.4395,162.917,99.8938,94.4132,0.00208734,0.0638575,21.0575,481.537,0.498721,0.0,0.0
570,142.25,36.2047,38.7718,169.212,99.8715,94.9373,0.0020524,0.0637255,21.0579,481.547,0.44782,0.0,0.0
572,142.75,36.5576,38.8826,165.485,99.8747,94.7495,0.00200827,0.0635669,21.0583,481.547,0.46561,0.0,0.0
574,143.25,36.3388,39.0456,166.623,99.8439,94.098,0.00197252,0.0633596,21.0586,481.537,0.523861,0.0,0.0
576,143.75,35.9194,39.107,164.216,99.8463,93.8015,0.00193505,0.0631206,21.0588,481.547,0.551971,0.0,0.0
578,144.25,36.2857,38.6336,167.652,99.8268,93.5974,0.0019047,0.0628911,21.059,481.537,0.569493,0.0,0.0
580,144.75,36.059,39.2551,163.4,99.8118,94.7016,0.00188012,0.062673,21.0592,481.547,0.464511,0.0,0.0
582,145.25,36.0423,38.8422,167.33,99.8135,94.6343,0.00186464,0.0624533,21.0593,481.537,0.470941,0.0,0.0
584,145.75,36.4953,38.6298,171.747,99.8001,94.7365,0.0018561,0.0622365,21.0594,481.547,0.460214,0.0,0.0
586,146.25,36.0898,38.6706,163.421,99.7867,94.1195,0.00186008,0.062018,21.0595,481.517,0.516777,0.0,0.0
588,146.75,36.0057,38.5659,169.265,99.7782,94.6772,0.0018731,0.0618022,21.0597,481.527,0.463802,0.0,0.0
590,147.25,35.7778,38.0224,159.621,99.7526,94.3045,0.00188365,0.0616203,21.0599,481.507,0.496406,0.0,0.0
592,147.75,36.131,38.5255,173.364,99.7542,94.3398,0.0019324,0.0614665,21.06,481.507,0.493242,0.0,0.0
594,148.25,36.4934,38.4043,167.873,99.7554,94.2262,0.00197188,0.0613419,21.0602,481.507,0.503997,0.0,0.0
596,148.75,36.4905,38.2165,166.216,99.7327,93.7962,0.00202216,0.0612409,21.0603,481.507,0.542409,0.0,0.0
598,149.25,35.9075,38.3992,169.102,99.7344,94.6955,0.00206288,0.0611463,21.0604,481.507,0.458215,0.0,0.0
600,149.75,35.3489,38.2773,164.752,99.7331,94.255,0.00209343,0.0610697,21.0604,481.507,0.49932,0.0,0.0
602,150.25,35.089,37.6869,162.182,99.736,94.3028,0.00211817,0.0609804,21.0605,481.507,0.495085,0.0,0.0
604,150.75,35.1365,37.7628,166.76,99.8057,94.771,0.00212358,0.0609081,21.0608,481.496,0.457501,0.0,0.0
606,151.25,36.058,38.0277,165.816,99.8601,94.8943,0.00212796,0.0608222,21.0612,481.507,0.45082,0.0,0.0
608,151.75,35.2576,38.3784,169.353,99.9116,95.1827,0.00213151,0.0607527,21.0616,481.486,0.428557,0.0,0.0
610,152.25,35.6593,38.0816,165.577,99.9749,94.9417,0.00210636,0.0606606,21.0619,481.476,0.456554,0.0,0.0
612,152.75,35.7214,37.7917,166.584,100.038,94.7734,0.00208598,0.0605536,21.0619,481.486,0.477831,0.0,0.0
614,153.25,35.6506,38.2458,163.585,100.09,94.3755,0.00206948,0.0604097,21.0617,481.496,0.519606,0.0,0.0
616,153.75,35.188,38.1332,159.422,100.136,94.8054,0.00203785,0.0602415,21.0617,481.486,0.48344,0.0,0.0
618,154.25,34.9015,37.5224,158.207,100.189,94.7361,0.00201222,0.0601052,21.0618,481.486,0.494597,0.0,0.0
620,154.75,34.7514,37.544,167.857,100.213,95.4532,0.00197686,0.0598587,21.062,481.486,0.430124,0.0,0.0
622,155.25,35.6317,37.6828,163.685,100.264,95.1762,0.00194822,0.0596591,21.0621,481.496,0.460249,0.0,0.0
624,155.75,35.6713,37.9683,164.44,100.298,95.5116,0.00191481,0.0594973,21.0622,481.486,0.432155,0.0,0.0
626,156.25,35.6251,37.8685,160.549,100.34,94.296,0.00187857,0.0593305,21.0622,481.486,0.549054,0.0,0.0
628,156.75,35.4317,38.0781,163.195,100.359,94.8354,0.00184154,0.0591631,21.0623,481.486,0.500346,0.0,0.0
630,157.25,35.1882,38.199,164.857,100.405,94.2452,0.00180463,0.0589846,21.0622,481.496,0.559594,0.0,0.0
632,157.75,35.3061,37.8976,166.212,100.422,95.2082,0.00177473,0.0588013,21.0621,481.496,0.471243,0.0,0.0
634,158.25,34.7263,37.3311,166.036,100.453,95.1888,0.00174079,0.0586313,21.0622,481.486,0.475764,0.0,0.0
636,158.75,34.682,36.774,165.993,100.468,95.2573,0.0017133,0.0584743,21.0626,481.486,0.470685,0.0,0.0
638,159.25,35.1624,38.4311,165.587,100.497,95.1879,0.00169103,0.0583467,21.0628,481.476,0.479693,0.0,0.0
640,159.75,35.7792,37.4123,163.985,100.496,95.0143,0.00167299,0.058243,21.0631,481.476,0.495755,0.0,0.0
642,160.25,35.017,37.381,168.226,100.535,95.4926,0.00165838,0.058159,21.0632,481.466,0.454804,0.0,0.0
644,160.75,35.3307,37.9728,165.236,100.536,95.7781,0.0016429,0.0580501,21.0634,481.466,0.428519,0.0,0.0
646,161.25,35.4975,37.8143,166.813,100.575,95.108,0.00163036,0.0579619,21.0635,481.466,0.493998,0.0,0.0
648,161.75,35.2536,37.5619,165.365,100.555,94.6639,0.00161777,0.0578404,21.0636,481.476,0.533553,0.0,0.0
650,162.25,34.6527,36.7775,164.397,100.576,95.0488,0.00160757,0.0576968,21.0637,481.476,0.499538,0.0,0.0
652,162.75,34.443,37.144,169.358,100.567,95.0744,0.00159566,0.0575805,21.0637,481.466,0.496378,0.0,0.0
654,163.25,35.4147,37.4856,163.788,100.573,95.1981,0.00158602,0.0574047,21.0638,481.456,0.485418,0.0,0.0
656,163.75,35.2453,37.4745,165.878,100.559,94.6728,0.00157213,0.0572623,21.0641,481.456,0.533147,0.0,0.0
658,164.25,35.0229,37.357,168.035,100.561,94.5511,0.00156089,0.0571061,21.0645,481.466,0.544695,0.0,0.0
660,164.75,35.1462,37.2146,163.124,100.54,94.9949,0.0015457,0.0569796,21.0648,481.466,0.501418,0.0,0.0
662,165.25,35.3011,37.0021,159.348,100.544,94.5174,0.0015334,0.0567956,21.0651,481.466,0.546345,0.0,0.0
664,165.75,35.5766,37.5755,163.295,100.518,94.4513,0.00152344,0.0566465,21.0653,481.466,0.550211,0.0,0.0
666,166.25,34.8209,36.8033,168.948,100.509,94.9219,0.00151901,0.0564714,21.0655,481.476,0.50554,0.0,0.0
668,166.75,34.7702,37.4689,158.884,100.475,94.6201,0.00151543,0.0563295,21.0657,481.476,0.530654,0.0,0.0
670,167.25,34.8861,37.4965,162.651,100.468,95.0642,0.00151495,0.0562146,21.0658,481.476,0.488655,0.0,0.0
672,167.75,34.9659,37.3329,161.758,100.429,94.3345,0.00151457,0.0561215,21.0659,481.486,0.5533,0.0,0.0
674,168.25,34.567,36.3677,163.16,100.414,94.7515,0.00151682,0.0560246,21.066,481.466,0.512997,0.0,0.0
676,168.75,34.9258,37.0438,164.169,100.378,95.1295,0.00152094,0.0559269,21.0661,481.466,0.474624,0.0,0.0
678,169.25,34.9765,36.8601,167.294,100.345,94.4862,0.00152684,0.0558477,21.0661,481.466,0.531706,0.0,0.0
680,169.75,34.4085,37.3841,163.904,100.298,95.1157,0.00153392,0.0557692,21.0661,481.446,0.468902,0.0,0.0
682,170.25,35.0076,37.0493,169.414,100.279,94.818,0.00153901,0.0556928,21.0662,481.446,0.494896,0.0,0.0
684,170.75,34.3175,36.9456,163.445,100.209,94.4521,0.00154256,0.0556309,21.0667,481.446,0.522917,0.0,0.0
686,171.25,34.7204,36.906,168.211,100.179,94.7555,0.00153585,0.0555535,21.067,481.456,0.491886,0.0,0.0
688,171.75,35.1486,36.0212,161.328,100.12,94.388,0.00152177,0.0554909,21.0673,481.476,0.521042,0.0,0.0
690,172.25,34.8222,36.63,166.874,100.084,94.6898,0.00151038,0.0554129,21.0676,481.456,0.48964,0.0,0.0
692,172.75,34.9463,36.6896,165.39,100.023,94.2266,0.00148644,0.0553498,21.0678,481.456,0.527611,0.0,0.0
694,173.25,34.7799,36.9415,162.311,99.9919,94.7616,0.00145383,0.0552715,21.068,481.436,0.474842,0.0,0.0
696,173.75,34.823,36.7905,161.141,99.9883,95.0736,0.00142486,0.0552081,21.0681,481.426,0.445473,0.0,0.0
698,174.25,34.8857,37.1783,165.026,100.022,94.3527,0.00139909,0.0550615,21.0682,481.436,0.51575,0.0,0.0
700,174.75,34.634,36.5376,163.544,100.019,94.0173,0.00138141,0.0549429,21.0683,481.436,0.546907,0.0,0.0
702,175.25,34.3562,36.6231,161.924,100.054,94.2197,0.00136997,0.0548181,21.0684,481.456,0.531017,0.0,0.0
704,175.75,34.5867,36.7367,168.515,100.049,94.2976,0.0013607,0.0546913,21.0684,481.466,0.523284,0.0,0.0
706,176.25,34.4984,36.5455,171.302,100.098,94.2448,0.00135319,0.0545886,21.0685,481.446,0.532527,0.0,0.0
708,176.75,34.8377,36.2915,162.243,100.103,94.672,0.00136038,0.0544647,21.0684,481.426,0.493061,0.0,0.0
710,177.25,34.3752,35.8998,167.48,100.133,94.8691,0.0013662,0.0543643,21.0682,481.426,0.477325,0.0,0.0
712,177.75,34.5085,36.1122,163.432,100.149,93.8757,0.00137858,0.054215,21.0681,481.426,0.57176,0.0,0.0
714,178.25,34.5865,36.6947,167.583,100.184,95.2719,0.00139552,0.0540941,21.0682,481.446,0.444317,0.0,0.0
716,178.75,33.7962,36.7675,167.764,100.202,94.7851,0.00140924,0.0539962,21.0682,481.436,0.491165,0.0,0.0
718,179.25,34.4261,36.4749,164.466,100.234,94.1641,0.00143493,0.0538353,21.0687,481.436,0.552162,0.0,0.0
720,179.75,34.0071,36.836,167.024,100.253,94.4399,0.00145574,0.0537051,21.0691,481.436,0.527919,0.0,0.0
722,180.25,34.6773,36.2105,164.367,100.292,94.919,0.0014726,0.0535428,21.0694,481.436,0.486667,0.0,0.0
724,180.75,34.3818,36.8218,158.555,100.302,94.442,0.00148626,0.0533602,21.0697,481.436,0.532091,0.0,0.0
726,181.25,34.4865,35.9991,158.716,100.338,94.8111,0.00149732,0.0532123,21.0699,481.436,0.500756,0.0,0.0
728,181.75,34.2831,36.0977,156.865,100.36,94.8898,0.00149048,0.0530653,21.07,481.436,0.495354,0.0,0.0
730,182.25,34.204,36.2323,165.316,100.395,94.9235,0.00148494,0.0529463,21.0702,481.446,0.49529,0.0,0.0
732,182.75,34.5322,36.3165,161.629,100.422,95.1936,0.00144524,0.0528642,21.0701,481.456,0.472598,0.0,0.0
734,183.25,34.6199,36.7653,161.342,100.451,94.5426,0.00141309,0.0528105,21.0697,481.426,0.535788,0.0,0.0
736,183.75,34.486,36.2032,163.127,100.483,94.9008,,0.0527671,,481.416,0.50515,0.0,0.0
738,184.25,34.4835,35.9946,166.538,100.514,94.399,,0.0526775,,481.426,0.554717,0.0,0.0
740,184.75,33.8764,35.6753,158.055,100.546,93.9954,,0.052605,,481.446,0.595439,0.0,0.0
742,185.25,34.2076,35.7908,162.585,100.559,95.9493,,0.052492,,481.446,0.414734,0.0,0.0
744,185.75,34.4666,36.4646,167.71,100.583,94.8878,,0.0524004,,481.436,0.515202,0.0,0.0
746,186.25,34.5382,36.5465,165.204,100.612,93.9317,,0.0523048,,481.426,0.607205,0.0,0.0
748,186.75,34.2874,35.8287,168.115,100.628,94.3211,,,,481.426,0.572064,0.0,0.0
750,187.25,34.3145,36.7621,167.27,100.666,94.0006,,,,481.436,0.605526,0.0,0.0
752,187.75,34.0358,36.1868,159.741,100.681,94.2704,,,,481.416,0.581447,0.0,0.0
754,188.25,33.3071,35.2627,166.828,100.693,94.4501,,,,481.426,0.565719,0.0,0.0
756,188.75,33.4221,35.9629,171.162,100.715,95.624,,,,481.416,0.45843,0.0,0.0
758,189.25,34.1692,35.9451,163.029,100.721,95.1437,,,,481.406,0.503468,0.0,0.0
760,189.75,34.3163,36.419,164.029,100.737,95.463,,,,481.416,0.475286,0.0,0.0
762,190.25,33.9384,35.7267,160.967,100.745,95.5984,,,,481.406,0.463427,0.0,0.0
764,190.75,34.4117,35.9692,160.76,100.767,94.9725,,,,481.416,0.523476,0.0,0.0
766,191.25,34.3319,36.0225,165.817,100.778,95.0439,,,,481.416,0.51776,0.0,0.0
768,191.75,34.3205,36.1007,167.579,100.785,95.3405,,,,481.416,0.490833,0.0,0.0
770,192.25,34.7718,35.9031,164.41,100.773,94.6168,,,,481.416,0.557143,0.0,0.0
772,192.75,34.0628,36.263,165.819,100.802,95.4593,,,,481.426,0.481351,0.0,0.0
774,193.25,34.32,36.0419,168.735,100.779,95.4565,,,,481.406,0.479587,0.0,0.0
776,193.75,33.922,36.0344,160.739,100.794,94.9174,,,,481.426,0.530924,0.0,0.0
778,194.25,34.1126,36.0021,159.796,100.787,95.1669,,,,481.406,0.507084,0.0,0.0