File: 01_Data/Vinyl_Plank_Flooring/Cone/Vinyl_Plank_Flooring_Cone_HF75Scan_220311_R3.csv
Names,Time,Stack TC,Smoke TC,Exh Press,Smoke Comp,Smoke Meas,CO Meter,CO2 Meter,O2 Meter,Sample Mass,Ext Coeff,Start Test,Flame Verif
Chan Gain,,500,500,1,1,1,1,1,1,1,1,1.0,1.0
Offset,,0,0,0.136191,0,0,0,0,0,0,0,0.0,0.0
Gain,,1,1,25.011,13.291,13.2919,1,1,1,1.00093,1.00758,1.0,1.0
Units,sec,C,C,Pa,%,%,%,%,%,g,/m,,
Baseline,,41.8724,43.574,158.923,99.5439,94.3284,0.000299777,0.0400086,21.0907,-4.00305,0.47578,,
2,0.25,38.258,39.9795,161.976,100.529,95.5875,5.50009e-05,0.0404041,21.0899,490.365,0.445524,0.0,0.0
4,0.75,38.1975,39.3977,154.816,100.5,95.0078,8.01551e-05,0.0404271,21.0895,490.405,0.49668,0.0,0.0
6,1.25,38.9193,40.234,163.363,100.441,94.661,0.000228608,0.0404457,21.0891,490.425,0.52383,0.0,0.0
8,1.75,38.8968,40.2577,156.53,100.412,94.59,0.000464126,0.0404067,21.0875,490.405,0.52789,0.0,0.0
10,2.25,38.9729,39.7256,162.322,100.348,94.6797,0.00124817,0.0403751,21.0862,490.395,0.513875,0.0,0.0
12,2.75,38.6937,40.2764,161.873,100.292,94.6201,0.00241719,0.0404136,21.0839,490.405,0.514547,0.0,0.0
14,3.25,38.9125,40.6945,158.742,100.238,94.3333,0.0047273,0.0405024,21.0819,490.385,0.536621,0.0,0.0
16,3.75,38.6802,40.4298,162.221,100.178,94.5511,0.00782537,0.0421231,21.0757,490.355,0.51094,0.0,0.0
18,4.25,38.6246,40.2165,161.198,100.117,93.032,0.0126164,0.0448298,21.0665,490.325,0.648727,0.0,0.0
20,4.75,38.8794,40.2892,167.344,100.039,91.7335,0.0185504,0.0540286,21.0212,490.315,0.76604,0.0,1.0
22,5.25,38.7907,40.3614,153.325,99.9838,90.6513,0.0233571,0.0677854,20.9846,490.245,0.866057,0.0,1.0
24,5.75,38.5897,40.341,154.302,99.9043,82.582,0.0304534,0.0789285,20.955,490.275,1.68302,0.0,1.0
26,6.25,39.0288,40.3237,133.346,99.8394,49.4532,0.0390842,0.118283,20.8882,489.774,6.2093,0.0,1.0
28,6.75,39.3534,41.0141,129.299,99.7672,37.4261,0.0460752,0.15016,20.7956,489.484,8.66581,0.0,1.0
30,7.25,39.8445,41.5403,116.09,99.6987,40.5397,0.0551131,0.210752,20.6877,488.973,7.95341,0.0,1.0
32,7.75,41.0235,41.934,120.775,99.6204,32.4266,0.0624339,0.259831,20.5707,488.903,9.92011,0.0,1.0
34,8.25,42.2369,43.0485,123.74,99.5478,29.8987,0.0691325,0.325023,20.4642,488.663,10.631,0.0,1.0
36,8.75,42.7331,43.403,126.137,99.4683,24.7548,0.0745585,0.377828,20.3675,488.223,12.2926,0.0,1.0
38,9.25,43.5267,45.0003,130.332,99.4091,17.429,0.0782403,0.4206,20.2891,488.103,15.3886,0.0,1.0
40,9.75,44.2022,45.8722,129.352,99.3381,11.3242,0.0812225,0.464755,20.2256,488.003,19.1934,0.0,0.0
42,10.25,45.6741,46.9883,130.451,99.2764,11.6925,0.0821872,0.500521,20.1742,487.652,18.905,0.0,0.0
44,10.75,46.2183,48.0353,130.582,99.2103,13.8955,0.0829686,0.531039,20.1326,487.562,17.3735,0.0,0.0
46,11.25,46.6861,48.5587,126.251,99.1462,17.7612,0.0828077,0.555759,20.0988,487.492,15.1983,0.0,0.0
48,11.75,47.6502,49.2923,127.708,99.0854,20.0389,0.0819631,0.577018,20.0715,487.322,14.1265,0.0,0.0
50,12.25,47.8965,50.2065,130.898,99.0412,27.127,0.0812789,0.594238,20.0494,487.132,11.4458,0.0,0.0
52,12.75,49.0186,50.7686,133.468,98.984,28.4611,0.0796495,0.609272,20.0314,487.062,11.0164,0.0,0.0
54,13.25,49.4785,51.414,126.297,98.9381,27.5699,0.0783297,0.622428,20.0169,486.911,11.2934,0.0,0.0
56,13.75,50.3359,52.3737,129.676,98.8874,32.9722,0.0770817,0.635269,20.0052,486.771,9.70738,0.0,0.0
58,14.25,50.891,52.5961,124.597,98.8428,34.2353,0.0759097,0.647636,19.9921,486.651,9.37112,0.0,0.0
60,14.75,51.9118,53.7324,121.108,98.8169,32.051,0.074939,0.657653,19.9766,486.521,9.95151,0.0,0.0
62,15.25,52.0492,54.5374,125.126,98.7836,36.2566,0.0741528,0.672774,19.9596,486.341,8.85882,0.0,0.0
64,15.75,52.4305,55.7301,127.376,98.7556,36.2595,0.0736938,0.685021,19.9459,486.241,8.85562,0.0,0.0
66,16.25,53.8429,55.8251,127.697,98.7325,36.6266,0.0733221,0.699655,19.9273,486.091,8.76452,0.0,0.0
68,16.75,54.2469,57.0944,133.85,98.7159,36.0684,0.0730209,0.715752,19.9055,485.921,8.89876,0.0,0.0
70,17.25,54.5499,58.1093,127.144,98.7179,38.2207,0.0729295,0.732354,19.8878,485.76,8.38666,0.0,0.0
72,17.75,55.2894,58.9446,120.322,98.7049,37.3048,0.0729926,0.749008,19.8695,485.61,8.59988,0.0,0.0
74,18.25,56.7954,59.4042,124.713,98.7207,38.5903,0.0730437,0.765316,19.8547,485.46,8.30187,0.0,0.0
76,18.75,57.5955,60.3241,122.068,98.722,36.3418,0.0729243,0.78106,19.8427,485.31,8.83256,0.0,0.0
78,19.25,57.9761,61.1863,121.173,98.7451,37.6106,0.0728277,0.793813,19.8329,485.11,8.53131,0.0,0.0
80,19.75,59.1001,62.1517,126.103,98.7641,39.1573,0.0723648,0.80542,19.825,484.93,8.17682,0.0,0.0
82,20.25,59.4531,62.7613,123.164,98.7954,35.9913,0.0716437,0.815973,19.8187,484.75,8.92478,0.0,0.0
84,20.75,60.1278,63.823,128.195,98.8128,36.6136,0.0710597,0.82452,19.8135,484.609,8.77484,0.0,0.0
86,21.25,60.9241,64.8738,123.137,98.8635,36.0591,0.0697722,0.826847,19.8189,484.479,8.91425,0.0,0.0
88,21.75,61.1156,65.3469,133.535,98.8891,33.7027,0.0687294,0.828731,19.8319,484.369,9.51383,0.0,0.0
90,22.25,61.88,65.7523,127.45,98.9426,33.981,0.0672293,0.827413,19.8429,484.209,9.44594,0.0,0.0
92,22.75,62.1935,66.2107,134.698,98.9791,32.0936,0.0660142,0.823785,19.8522,484.129,9.95428,0.0,0.0
94,23.25,62.5583,66.7248,128.472,99.0379,29.4318,0.0644599,0.820846,19.8598,483.989,10.7248,0.0,0.0
96,23.75,63.3848,67.2703,127.662,99.0732,29.8756,0.0632009,0.816993,19.8659,483.879,10.5956,0.0,0.0
98,24.25,63.4389,67.8246,131.068,99.1547,33.1284,0.0617121,0.813872,19.8708,483.759,9.68947,0.0,0.0
100,24.75,63.9686,68.3509,129.075,99.1981,34.2276,0.0605061,0.814907,19.8749,483.608,9.40482,0.0,0.0
102,25.25,63.953,68.4068,124.729,99.2602,33.3997,0.0591155,0.815746,19.876,483.518,9.62676,0.0,0.0
104,25.75,64.8681,68.9515,118.366,99.3141,39.6729,0.057989,0.818635,19.875,483.418,8.11029,0.0,0.0
106,26.25,65.5534,70.414,125.448,99.3827,38.0264,0.0567523,0.822963,19.8743,483.278,8.49103,0.0,0.0
108,26.75,66.1908,70.5596,128.328,99.433,42.0808,0.0554586,0.830003,19.8736,483.158,7.60008,0.0,0.0
110,27.25,66.787,71.5837,125.716,99.5003,44.1191,0.0544108,0.835706,19.8731,483.008,7.18799,0.0,0.0
112,27.75,67.1186,72.0485,125.832,99.5526,44.0907,0.0530122,0.842477,19.8727,482.898,7.19833,0.0,0.0
114,28.25,67.263,72.2103,124.449,99.6277,42.3323,0.0518793,0.847961,19.8724,482.788,7.56471,0.0,0.0
116,28.75,68.3332,72.8254,123.825,99.6747,44.4687,0.0506866,0.852451,19.8721,482.658,7.1337,0.0,0.0
118,29.25,68.6803,73.9496,130.782,99.7473,44.8866,0.0494729,0.85613,19.8754,482.537,7.05748,0.0,0.0
120,29.75,68.8108,74.4848,128.463,99.7794,43.4587,0.0482101,0.85911,19.8781,482.437,7.34604,0.0,0.0
122,30.25,69.5254,74.7197,125.423,99.8398,47.713,0.0469356,0.858457,19.891,482.327,6.52595,0.0,0.0
124,30.75,69.9368,75.0283,132.114,99.871,48.5503,0.0456413,0.857928,19.9014,482.197,6.37497,0.0,0.0
126,31.25,70.1309,76.004,129.221,99.9104,47.309,0.0443571,0.854486,19.9231,482.087,6.60735,0.0,0.0
128,31.75,70.7719,76.1844,129.229,99.9368,49.2183,0.0433169,0.848986,19.9408,481.997,6.25999,0.0,0.0
130,32.25,70.9757,76.3413,134.668,99.9793,49.6856,0.0419436,0.840945,19.967,481.867,6.18023,0.0,0.0
132,32.75,71.5052,76.6156,138.28,100.001,51.3735,0.0408312,0.831205,19.9883,481.807,5.88691,0.0,0.0
134,33.25,71.5199,77.1363,133.871,100.036,53.1555,0.0395534,0.819336,20.0055,481.677,5.58858,0.0,0.0
136,33.75,71.5582,77.7803,131.97,100.051,53.381,0.0381793,0.806142,20.0319,481.557,5.55249,0.0,0.0
138,34.25,72.0299,77.6977,135.053,100.055,53.4495,0.0367896,0.795454,20.0533,481.466,5.5415,0.0,0.0
140,34.75,72.2242,77.9154,140.724,100.052,54.0945,0.0354148,0.778059,20.0831,481.386,5.43527,0.0,0.0
142,35.25,72.2504,78.075,139.498,100.055,54.9285,0.0340091,0.763969,20.1072,481.326,5.3003,0.0,0.0
144,35.75,71.9269,78.2341,140.825,100.035,53.5972,0.0326074,0.747278,20.1396,481.246,5.51536,0.0,0.0
146,36.25,72.5649,78.3735,141.304,100.037,54.6762,0.0311787,0.729008,20.1658,481.166,5.33938,0.0,0.0
148,36.75,72.2929,78.5986,141.411,100.019,51.698,0.0297573,0.70916,20.2022,481.126,5.8328,0.0,0.0
150,37.25,72.3393,78.2051,139.332,100.015,54.1302,0.0286059,0.688538,20.2316,481.056,5.42618,0.0,0.0
152,37.75,72.4631,78.8481,142.047,99.9745,58.3719,0.0271524,0.671835,20.2609,481.026,4.75576,0.0,0.0
154,38.25,72.4077,78.6709,142.865,99.968,55.2786,0.025975,0.650742,20.2894,480.946,5.23644,0.0,0.0
156,38.75,72.4503,78.5845,138.313,99.9165,56.1981,0.0245107,0.633657,20.3125,480.876,5.08607,0.0,0.0
158,39.25,72.1564,79.1002,144.857,99.8962,53.9696,0.0233246,0.611194,20.3366,480.836,5.4419,0.0,0.0
160,39.75,72.276,78.7988,146.041,99.8719,54.7411,0.0223638,0.592999,20.3609,480.766,5.3143,0.0,0.0
162,40.25,72.4868,78.0475,142.199,99.8564,56.244,0.0215856,0.570489,20.3806,480.736,5.07355,0.0,0.0
164,40.75,72.4926,78.0284,141.178,99.8098,56.4675,0.020155,0.552257,20.4014,480.656,5.03437,0.0,0.0
166,41.25,72.3421,78.4806,149.424,99.8029,56.5024,0.0189963,0.529004,20.4225,480.676,5.0283,0.0,0.0
168,41.75,71.5136,78.2094,143.803,99.7636,59.5081,0.0178236,0.510168,20.4396,480.656,4.56672,0.0,0.0
170,42.25,71.7473,78.4519,145.248,99.7344,64.1892,0.016663,0.494912,20.4641,480.616,3.89487,0.0,0.0
172,42.75,71.909,78.4669,140.847,99.693,65.8738,0.0155327,0.482555,20.4839,480.556,3.66223,0.0,0.0
174,43.25,71.8431,78.3087,145.408,99.6772,69.3623,0.014446,0.460192,20.512,480.496,3.20475,0.0,0.0
176,43.75,71.9497,78.2319,147.884,99.6626,72.0813,0.0134024,0.442079,20.5347,480.486,2.86361,0.0,0.0
178,44.25,71.501,78.0047,149.918,99.65,73.8709,0.01241,0.419718,20.57,480.496,2.64573,0.0,0.0
180,44.75,71.0698,77.0249,150.907,99.6289,77.8336,0.0114797,0.401605,20.5986,480.476,2.18202,0.0,0.0
182,45.25,71.4511,77.5162,148.366,99.6127,80.8811,0.0106121,0.383493,20.6324,480.415,1.84112,0.0,0.0
184,45.75,70.4364,77.4328,143.923,99.609,82.8866,0.00981365,0.365727,20.6598,480.426,1.62432,0.0,0.0
186,46.25,70.8576,77.4638,147.319,99.5843,85.2093,0.00942791,0.348582,20.6752,480.395,1.37785,0.0,0.0
188,46.75,71.0541,76.8552,138.02,99.5859,86.9345,0.00876829,0.332216,20.7128,480.365,1.20084,0.0,0.0
190,47.25,70.8455,76.6451,150.393,99.6727,88.5521,0.00782766,0.31896,20.7357,480.345,1.04559,0.0,0.0
192,47.75,70.4786,76.4323,149.103,99.7887,89.2847,0.00754654,0.303578,20.7473,480.335,0.983049,0.0,0.0
194,48.25,70.1873,76.6616,151.478,99.8666,90.3503,0.00706582,0.291119,20.7671,480.325,0.885083,0.0,0.0
196,48.75,70.1362,76.1955,155.395,99.9611,90.9105,0.00659495,0.277092,20.7859,480.315,0.838813,0.0,0.0
198,49.25,70.1536,76.0912,149.302,100.037,90.5633,0.00619342,0.271111,20.8036,480.285,0.879339,0.0,0.0
200,49.75,69.3616,75.776,146.128,100.108,91.448,0.00585007,0.252729,20.8218,480.275,0.799651,0.0,0.0
202,50.25,69.4917,75.4602,155.135,100.172,92.486,0.00555962,0.242199,20.8366,480.265,0.70562,0.0,0.0
204,50.75,69.2456,75.4239,150.854,100.226,92.2304,0.00531327,0.237709,20.8534,480.255,0.734833,0.0,0.0
206,51.25,68.8792,75.3436,156.449,100.294,92.355,0.0051001,0.227049,20.8671,480.225,0.728878,0.0,0.0
208,51.75,68.5533,74.7142,151.718,100.332,92.3448,0.00491519,0.218413,20.8817,480.235,0.733209,0.0,0.0
210,52.25,68.7363,74.5951,151.776,100.379,92.6146,0.0047654,0.208921,20.8935,480.245,0.711573,0.0,0.0
212,52.75,68.3305,74.3699,156.861,100.401,92.2759,0.00460838,0.201232,20.904,480.225,0.745848,0.0,0.0
214,53.25,67.8565,73.9576,153.64,100.423,93.1922,0.0044812,0.193312,20.9134,480.215,0.660512,0.0,0.0
216,53.75,67.6976,73.9689,155.554,100.443,93.4161,0.00437817,0.186897,20.9209,480.205,0.641051,0.0,0.0
218,54.25,67.8217,73.4859,154.802,100.447,92.5793,0.00428489,0.180245,20.9278,480.235,0.720939,0.0,0.0
220,54.75,67.2493,73.2408,156.453,100.456,92.6446,0.00420932,0.174857,20.934,480.205,0.715492,0.0,0.0
222,55.25,67.0798,73.0054,150.855,100.454,92.2268,0.00416534,0.16927,20.9399,480.195,0.755191,0.0,0.0
224,55.75,66.7264,72.708,154.512,100.45,92.8726,0.00414659,0.164745,20.9429,480.175,0.693234,0.0,0.0
226,56.25,66.5651,72.8225,158.971,100.417,92.5071,0.00412684,0.160371,20.9479,480.155,0.725157,0.0,0.0
228,56.75,66.1088,72.1348,157.741,100.404,92.5026,0.00412192,0.156192,20.9534,480.135,0.724441,0.0,0.0
230,57.25,65.7632,72.231,157.726,100.371,92.0118,0.0041401,0.152806,20.9583,480.115,0.768571,0.0,0.0
232,57.75,65.8635,72.0583,159.262,100.354,92.9306,0.00415483,0.149174,20.9626,480.095,0.679218,0.0,0.0
234,58.25,65.4482,71.818,155.546,100.286,92.0962,0.00417538,0.146232,20.9667,480.105,0.753002,0.0,0.0
236,58.75,65.4328,71.4931,154.581,100.264,92.5513,0.00419203,0.144674,20.9703,480.095,0.707429,0.0,0.0
238,59.25,65.1759,71.4697,155.936,100.185,92.8649,0.00420033,0.14201,20.9733,480.085,0.670561,0.0,0.0
240,59.75,65.1854,70.9556,153.104,100.131,92.5399,0.00420238,0.139578,20.9766,480.085,0.69685,0.0,0.0
242,60.25,64.5927,70.7067,157.536,100.068,92.3939,0.00420405,0.137361,20.9793,480.075,0.705186,0.0,0.0
244,60.75,64.3177,70.4012,157.528,100.007,91.3506,0.00419632,0.135292,20.9817,480.075,0.800215,0.0,0.0
246,61.25,64.2813,70.2197,154.122,99.9189,91.8435,0.00418189,0.13337,20.9838,480.085,0.744841,0.0,0.0
248,61.75,64.1471,70.0166,155.871,99.9205,91.5782,0.00416307,0.131496,20.9855,480.085,0.77055,0.0,0.0
250,62.25,63.2315,69.3172,155.68,99.9343,92.4552,0.00414141,0.129692,20.987,480.075,0.687534,0.0,0.0
252,62.75,62.8914,69.3662,160.331,99.9615,93.3143,0.00412387,0.128231,20.989,480.065,0.608186,0.0,0.0
254,63.25,63.3999,69.3906,156.272,99.9753,93.2863,0.00410966,0.126362,20.9906,480.045,0.612055,0.0,0.0
256,63.75,63.1702,69.2095,153.435,100.019,93.0133,0.00408708,0.124848,20.9925,480.035,0.641795,0.0,0.0
258,64.25,62.431,69.0635,151.578,100.035,93.2413,0.00406878,0.123276,20.9945,480.035,0.621557,0.0,0.0
260,64.75,62.0813,68.4077,151.113,100.076,93.1606,0.00404781,0.121691,20.9965,480.045,0.632866,0.0,0.0
262,65.25,62.8417,68.3842,156.688,100.101,93.3902,0.00403082,0.120407,20.9986,480.035,0.613331,0.0,0.0
264,65.75,62.7496,68.1807,155.292,100.153,93.1955,0.0040023,0.119001,21.0008,480.055,0.636396,0.0,0.0
266,66.25,62.2859,67.9436,163.727,100.17,94.4692,0.0039682,0.117531,21.0025,480.035,0.517852,0.0,0.0
268,66.75,61.9749,67.7723,157.013,100.215,93.2823,0.00393067,0.11634,21.0052,480.035,0.633644,0.0,0.0
270,67.25,61.9089,67.796,155.59,100.232,93.3658,0.00390028,0.114735,21.0075,480.025,0.62723,0.0,0.0
272,67.75,61.4815,67.1844,156.021,100.286,93.737,0.00386078,0.113435,21.0093,480.035,0.596921,0.0,0.0
274,68.25,61.7035,67.2329,157.935,100.315,93.9199,0.0038154,0.111965,21.0112,480.005,0.582227,0.0,0.0
276,68.75,61.3789,66.8839,158.615,100.367,94.4789,0.00376895,0.110774,21.0127,479.995,0.534353,0.0,0.0
278,69.25,61.2372,66.8406,156.25,100.383,93.2523,0.0037226,0.109518,21.0142,479.995,0.651213,0.0,0.0
280,69.75,60.3298,66.3536,154.132,100.435,93.7187,0.00368505,0.1085,21.0156,479.985,0.611752,0.0,0.0
282,70.25,60.0653,66.0926,156.854,100.449,93.1849,0.00363615,0.107508,21.0168,479.975,0.663453,0.0,0.0
284,70.75,60.2474,65.8238,158.212,100.49,93.7321,0.00359654,0.106553,21.0179,479.975,0.615343,0.0,0.0
286,71.25,60.4847,65.9067,154.473,100.518,93.7451,0.00354606,0.105619,21.019,479.965,0.61658,0.0,0.0
288,71.75,59.945,65.4574,152.048,100.554,94.0887,0.00350516,0.104718,21.0201,479.975,0.58735,0.0,0.0
290,72.25,59.12,64.9009,157.236,100.567,93.9179,0.00344139,0.103987,21.021,479.955,0.604547,0.0,0.0
292,72.75,59.8392,64.9922,155.819,100.595,94.04,0.00338973,0.103175,21.0217,479.955,0.595523,0.0,0.0
294,73.25,59.3598,65.0919,155.678,100.616,93.8996,0.00332828,0.102517,21.0225,479.955,0.610577,0.0,0.0
296,73.75,59.1678,64.4994,151.715,100.637,94.1795,0.00327851,0.101804,21.0234,479.955,0.586123,0.0,0.0
298,74.25,59.3511,64.1232,153.356,100.643,94.6874,0.0032382,0.101227,21.0241,479.925,0.539089,0.0,0.0
300,74.75,59.044,64.0485,156.63,100.683,93.5974,0.00319716,0.100664,21.0249,479.935,0.644944,0.0,0.0
302,75.25,58.8731,63.919,157.317,100.669,93.2596,0.00315639,0.100123,21.0258,479.925,0.675734,0.0,0.0
304,75.75,58.6929,63.908,158.486,100.696,93.7483,0.00311111,0.0994776,21.0265,479.935,0.631846,0.0,0.0
306,76.25,58.2559,63.9342,144.878,100.689,93.9252,0.00307444,0.0989545,21.027,479.955,0.614582,0.0,0.0
308,76.75,58.3938,63.323,151.942,100.712,93.307,0.00304023,0.0985308,21.0275,479.955,0.675012,0.0,0.0
310,77.25,57.9678,63.5409,155.892,100.695,93.4214,0.00300846,0.0980493,21.0279,479.935,0.662653,0.0,0.0
312,77.75,58.1643,63.3965,163.379,100.715,93.6165,0.00298151,0.0976592,21.0282,479.925,0.645957,0.0,0.0
314,78.25,57.7642,63.0353,155.849,100.714,93.5236,0.00295967,0.0972923,21.0284,479.915,0.654659,0.0,0.0
316,78.75,57.6052,62.7429,155.789,100.717,94.1017,0.00293619,0.0969492,21.0286,479.945,0.600486,0.0,0.0
318,79.25,57.4004,62.7617,157.224,100.712,94.0635,0.00291196,0.0966276,21.0292,479.945,0.603605,0.0,0.0
320,79.75,57.5414,62.6645,154.334,100.695,94.0226,0.00289233,0.0963278,21.0297,479.945,0.60596,0.0,0.0
322,80.25,57.3329,62.1524,158.49,100.673,93.7978,0.00285075,0.0960705,21.0301,479.895,0.625188,0.0,0.0
324,80.75,57.2493,62.3348,156.733,100.67,93.5431,0.00281707,0.0958489,21.0304,479.875,0.648938,0.0,0.0
326,81.25,57.3531,62.2195,161.77,100.651,93.3674,0.00278979,0.0956403,21.0307,479.815,0.663877,0.0,0.0
328,81.75,57.0309,62.3989,162.539,100.639,93.5642,0.00275424,0.0954452,21.0309,479.795,0.64424,0.0,0.0
330,82.25,56.6441,61.8939,160.606,100.617,93.6583,0.00272546,0.0952798,21.0311,479.805,0.633466,0.0,0.0
332,82.75,56.7505,61.7062,156.577,100.586,93.5139,0.00269725,0.0951394,21.0312,479.815,0.64436,0.0,0.0
334,83.25,56.2733,61.18,153.334,100.56,94.2497,0.0026744,0.0950256,21.0313,479.805,0.57277,0.0,0.0
336,83.75,56.4828,61.2951,146.398,100.544,94.0769,0.00265101,0.0948825,21.0314,479.775,0.587635,0.0,0.0
338,84.25,56.0411,61.1541,151.632,100.512,94.0023,0.00263206,0.0947207,21.0315,479.785,0.59176,0.0,0.0
340,84.75,56.1853,60.6984,151.595,100.494,93.8356,0.00261543,0.0945897,21.0315,479.765,0.605915,0.0,0.0
342,85.25,56.3809,60.9994,151.729,100.451,93.3626,0.0026008,0.0944421,21.0316,479.755,0.646796,0.0,0.0
344,85.75,55.8863,60.6983,161.279,100.421,93.5366,0.00258895,0.0943226,21.0316,479.755,0.62766,0.0,0.0
346,86.25,56.1038,60.3069,156.676,100.41,93.5046,0.00257549,0.0941981,21.0317,479.765,0.629725,0.0,0.0
348,86.75,55.6572,60.3667,159.574,100.357,93.2267,0.00256112,0.0940973,21.0318,479.755,0.65135,0.0,0.0
350,87.25,55.4786,60.6118,161.775,100.327,92.9054,0.00254626,0.0940011,21.032,479.725,0.679217,0.0,0.0
352,87.75,55.5206,59.4895,152.712,100.285,93.8287,0.00253134,0.0939101,21.0321,479.705,0.588174,0.0,0.0
354,88.25,54.7995,60.2327,157.399,100.257,92.7363,0.00251925,0.0938364,21.0322,479.715,0.68921,0.0,0.0
356,88.75,55.1663,59.7681,157.937,100.221,92.8888,0.00250689,0.0937403,21.0323,479.705,0.671539,0.0,0.0
358,89.25,54.644,59.1193,156.89,100.181,93.606,0.00249456,0.0936297,21.0323,479.705,0.599948,0.0,0.0
360,89.75,54.033,59.1344,158.799,100.148,92.7436,0.00248887,0.0935111,21.0324,479.725,0.678855,0.0,0.0
362,90.25,54.4422,59.4499,157.567,100.117,93.7824,0.00248868,0.0933888,21.0324,479.705,0.577684,0.0,0.0
364,90.75,54.3749,59.24,156.127,100.075,94.1012,0.00248836,0.0932898,21.0325,479.695,0.543998,0.0,0.0
366,91.25,54.7237,59.1602,159.822,100.036,93.5544,0.00249665,0.0931405,21.0325,479.685,0.592066,0.0,0.0
368,91.75,54.7965,59.3593,155.189,99.996,93.5536,0.0025053,0.0930196,21.0325,479.665,0.588594,0.0,0.0
370,92.25,54.3002,58.7493,155.386,99.9647,92.7034,0.00251403,0.092878,21.0325,479.675,0.666523,0.0,0.0
372,92.75,53.8138,58.87,154.873,99.9262,93.8907,0.0025224,0.0927241,21.0325,479.665,0.550637,0.0,0.0
374,93.25,53.4988,58.5706,157.236,99.882,92.8766,0.00253033,0.0925995,21.0326,479.695,0.642707,0.0,0.0
376,93.75,53.8607,58.1744,155.422,99.8394,93.1752,0.00253675,0.0924433,21.033,479.685,0.610571,0.0,0.0
378,94.25,53.8942,58.6178,156.046,99.8057,92.7756,0.00252974,0.0923167,21.0334,479.655,0.645573,0.0,0.0
380,94.75,53.7537,58.6732,155.85,99.7554,93.1849,0.00252406,0.0921452,21.0337,479.655,0.602212,0.0,0.0
382,95.25,53.903,58.2912,161.147,99.734,92.5744,0.00251946,0.0920063,21.0339,479.685,0.658402,0.0,0.0
384,95.75,53.8449,58.1465,157.099,99.6764,93.3557,0.00246326,0.0918799,21.0341,479.675,0.579019,0.0,0.0
386,96.25,53.6022,57.7601,154.799,99.6399,92.4625,0.00241773,0.091734,21.0343,479.665,0.660753,0.0,0.0
388,96.75,53.5926,58.0918,159.08,99.5851,93.4798,0.00235404,0.0915766,21.0344,479.635,0.559179,0.0,0.0
390,97.25,52.3172,57.1875,155.481,99.566,92.7768,0.00230244,0.0914491,21.0347,479.625,0.624204,0.0,0.0
392,97.75,52.8676,56.9626,156.569,99.5364,93.1736,0.00224116,0.0912514,21.0352,479.625,0.583862,0.0,0.0
394,98.25,53.2679,57.3883,156.197,99.4999,92.8251,0.00219152,0.0910062,21.0356,479.635,0.613735,0.0,0.0
396,98.75,53.4677,57.4654,160.357,99.4561,92.2146,0.00213913,0.0908077,21.0359,479.625,0.668162,0.0,0.0
398,99.25,52.8979,57.1429,156.491,99.4135,92.3189,0.0020967,0.0905917,21.0362,479.615,0.654391,0.0,0.0
400,99.75,52.2627,56.5651,158.436,99.3746,93.0604,0.00205502,0.0904168,21.0364,479.615,0.580222,0.0,0.0
402,100.25,53.3131,57.0285,156.136,99.3559,92.6767,0.00202126,0.0902475,21.0366,479.615,0.615082,0.0,0.0
404,100.75,52.9199,57.0746,157.046,99.304,92.8551,0.00199328,0.0901103,21.0367,479.605,0.593458,0.0,0.0
406,101.25,53.2584,57.0608,156.914,99.2728,92.3051,0.00197004,0.0899165,21.0368,479.625,0.64319,0.0,0.0
408,101.75,52.9293,56.9237,158.472,99.218,91.9173,0.00195121,0.0897015,21.0369,479.575,0.675522,0.0,0.0
410,102.25,52.3918,57.2351,153.287,99.1961,92.4458,0.00195552,0.089475,21.037,479.575,0.622894,0.0,0.0
412,102.75,52.8325,56.6946,159.619,99.1645,92.3818,0.00195902,0.0892916,21.0369,479.585,0.626205,0.0,0.0
414,103.25,52.7407,56.896,149.627,99.1272,92.4012,0.00198013,0.0890603,21.0368,479.585,0.621015,0.0,0.0
416,103.75,52.5467,56.6847,152.926,99.0817,91.9635,0.00199722,0.088873,21.0368,479.565,0.658929,0.0,0.0
418,104.25,52.7642,56.7958,156.631,99.0696,92.6677,0.00201748,0.088728,21.0367,479.565,0.590423,0.0,0.0
420,104.75,52.3438,56.5853,157.238,99.0225,92.2929,0.00203967,0.0886167,21.0366,479.545,0.622046,0.0,0.0
422,105.25,52.4259,56.679,156.662,99.0099,91.9566,0.00205764,0.0885266,21.0366,479.545,0.653185,0.0,0.0
424,105.75,52.1016,56.273,156.136,98.9665,92.4828,0.00207219,0.0884673,21.0366,479.545,0.598886,0.0,0.0
426,106.25,51.6477,56.3031,154.944,98.9617,91.8013,0.00208398,0.0884193,21.0365,479.545,0.66382,0.0,0.0
428,106.75,52.1776,55.9261,154.838,98.9207,92.0284,0.002085,0.088284,21.0365,479.535,0.638316,0.0,0.0
430,107.25,51.6112,56.1047,157.331,98.9106,92.4073,0.00208583,0.0881743,21.0369,479.555,0.6011,0.0,0.0
432,107.75,51.8883,55.9953,153.847,98.8895,92.5286,0.00208406,0.0880203,21.0373,479.535,0.587622,0.0,0.0
434,108.25,51.3587,55.8351,154.601,98.8696,93.0397,0.00208263,0.0878367,21.0376,479.555,0.537159,0.0,0.0
436,108.75,51.4385,55.6687,161.213,98.8453,92.4519,0.00208146,0.0876881,21.0378,479.545,0.590996,0.0,0.0
438,109.25,51.9858,55.5286,153.847,98.8408,92.5128,0.00208052,0.0875676,21.038,479.535,0.584782,0.0,0.0
440,109.75,52.1214,55.6846,156.783,98.8201,92.4596,0.00208098,0.0874701,21.0382,479.515,0.58801,0.0,0.0
442,110.25,51.4953,55.1805,156.381,98.8092,91.7761,0.00208135,0.0873911,21.0385,479.515,0.65261,0.0,0.0
444,110.75,51.6653,55.5607,157.671,98.7795,92.0402,0.00207069,0.0873271,21.0387,479.525,0.624566,0.0,0.0
446,111.25,50.9765,55.1048,153.046,98.7808,92.4633,0.00206205,0.0872202,21.0389,479.535,0.584141,0.0,0.0
448,111.75,51.5482,55.1272,156.438,98.7548,92.2483,0.00204539,0.0871335,21.039,479.515,0.602392,0.0,0.0
450,112.25,51.3612,55.3678,154.16,98.7654,91.7051,0.0020232,0.0870634,21.0391,479.525,0.655531,0.0,0.0
452,112.75,51.4611,55.0402,156.526,98.741,92.4446,0.00199818,0.0870065,21.0392,479.505,0.582368,0.0,0.0
454,113.25,51.2849,55.0162,156.761,98.7455,91.9177,0.00197157,0.0868735,21.0399,479.495,0.63329,0.0,0.0
456,113.75,51.0524,54.6899,156.625,98.7215,92.2073,0.00194105,0.0866875,21.0405,479.505,0.603342,0.0,0.0
458,114.25,51.1775,54.7572,152.535,98.7268,92.2564,0.00190826,0.0865517,21.0409,479.485,0.59911,0.0,0.0
460,114.75,50.734,55.1826,155.754,98.7057,91.9355,0.00187145,0.0864553,21.0413,479.475,0.628014,0.0,0.0
462,115.25,50.6813,54.237,145.406,98.7061,92.2515,0.00183242,0.0863409,21.0416,479.485,0.597725,0.0,0.0
464,115.75,50.7054,55.0112,152.586,98.7195,91.7226,0.00180081,0.0862156,21.0418,479.485,0.649747,0.0,0.0
466,116.25,51.3038,55.178,150.709,98.7301,92.3732,0.0017752,0.0860707,21.042,479.475,0.588216,0.0,0.0
468,116.75,51.0646,54.6092,154.181,98.7057,92.0244,0.00174473,0.0859142,21.0421,479.465,0.619478,0.0,0.0
470,117.25,50.5297,54.3967,156.818,98.7134,92.0219,0.00172133,0.0857874,21.0423,479.475,0.620403,0.0,0.0
472,117.75,49.9564,54.5411,157.485,98.7065,93.1565,0.00170353,0.0855883,21.0424,479.455,0.51148,0.0,0.0
474,118.25,50.6864,54.4544,151.066,98.7171,92.6556,0.00168911,0.0854271,21.0425,479.465,0.560082,0.0,0.0
476,118.75,50.085,54.3524,155.678,98.7179,92.5704,0.00167864,0.085253,21.0425,479.445,0.568284,0.0,0.0
478,119.25,50.6253,54.4936,160.845,98.7163,92.2438,0.00167017,0.0850729,21.0426,479.445,0.599371,0.0,0.0
480,119.75,50.3219,54.1776,156.121,98.7191,92.4041,0.00166209,0.0849271,21.0431,479.435,0.584286,0.0,0.0
482,120.25,50.0914,53.9358,152.315,98.7272,92.4434,0.0016517,0.0846713,21.0435,479.425,0.58125,0.0,0.0
484,120.75,49.8618,54.2256,161.161,98.7471,92.5326,0.00163983,0.0844642,21.0438,479.435,0.5745,0.0,0.0
486,121.25,49.8634,53.6258,162.413,98.743,92.2187,0.00163022,0.0842551,21.044,479.415,0.604178,0.0,0.0
488,121.75,50.1989,53.8117,155.744,98.7426,92.2743,0.00160785,0.0840858,21.0443,479.415,0.598817,0.0,0.0
490,122.25,49.7964,53.8685,155.325,98.7605,92.2661,0.00158973,0.0839761,21.0444,479.395,0.601192,0.0,0.0
492,122.75,49.8711,53.6172,155.321,98.7662,92.1286,0.00157505,0.0838873,21.0446,479.395,0.614882,0.0,0.0
494,123.25,49.8767,53.7305,158.358,98.7698,92.7428,0.00154017,0.0838016,21.0446,479.405,0.556486,0.0,0.0
496,123.75,49.5779,52.7702,162.51,98.795,92.1582,0.00151192,0.0837322,21.0445,479.425,0.614619,0.0,0.0
498,124.25,49.4197,53.6874,157.127,98.7925,92.1084,0.00148053,0.0836347,21.0445,479.405,0.619187,0.0,0.0
500,124.75,49.203,53.483,155.824,98.8063,92.5201,0.00145511,0.0835558,21.0444,479.395,0.581001,0.0,0.0
502,125.25,49.0552,52.4494,159.111,98.8116,92.1051,0.00143005,0.0834918,21.0444,479.395,0.621203,0.0,0.0
504,125.75,49.4109,52.6069,155.113,98.829,92.7639,0.00140572,0.0833153,21.0444,479.395,0.559774,0.0,0.0
506,126.25,49.3504,53.3484,156.013,98.8367,92.2491,0.00138091,0.0831724,21.0444,479.365,0.609645,0.0,0.0
508,126.75,49.4411,52.7944,159.578,98.8611,92.1088,0.00135621,0.0829054,21.0448,479.355,0.625278,0.0,0.0
510,127.25,48.736,53.5157,157.28,98.8635,92.574,0.00133684,0.0826892,21.0451,479.365,0.580963,0.0,0.0
512,127.75,49.5508,53.0735,157.735,98.8765,92.6612,0.00132173,0.0824706,21.0454,479.365,0.573801,0.0,0.0
514,128.25,48.6529,52.253,162.276,98.8964,91.9883,0.0013178,0.0822545,21.0457,479.365,0.64,0.0,0.0
516,128.75,48.7347,52.2049,157.719,98.9146,92.6053,0.00132208,0.0820795,21.0458,479.355,0.582549,0.0,0.0
518,129.25,48.9442,52.772,157.533,98.9248,92.2848,0.00132555,0.081869,21.046,479.355,0.614093,0.0,0.0
520,129.75,49.0113,52.8907,159.981,98.9381,92.6117,0.00133923,0.0816696,21.0461,479.335,0.584032,0.0,0.0
522,130.25,49.246,52.4271,153.166,98.9394,92.5578,0.00136008,0.081482,21.0462,479.324,0.58929,0.0,0.0
524,130.75,49.0269,52.9476,155.034,98.9564,92.3781,0.00138081,0.0813301,21.0463,479.344,0.607989,0.0,0.0
526,131.25,48.5882,52.6338,151.284,98.9742,92.6454,0.00140106,0.0811521,21.0463,479.335,0.584044,0.0,0.0
528,131.75,48.9282,52.6676,151.868,98.9901,92.9148,0.00141745,0.0810079,21.0464,479.344,0.559798,0.0,0.0
530,132.25,48.305,51.7273,153.419,98.9953,92.1124,0.00143074,0.0808694,21.0464,479.335,0.636923,0.0,0.0
532,132.75,48.7698,51.9788,156.162,99.0298,92.4162,0.00142085,0.0807378,21.0464,479.335,0.610896,0.0,0.0
534,133.25,49.1716,52.1167,153.168,99.0176,92.0503,0.00141284,0.0806311,21.0463,479.324,0.644872,0.0,0.0
536,133.75,48.8259,52.1096,154.805,99.0412,92.6945,0.00138086,0.0804486,21.0463,479.314,0.585336,0.0,0.0
538,134.25,48.6667,52.0925,157.977,99.0412,92.9967,0.00135496,0.0803007,21.0462,479.324,0.556569,0.0,0.0
540,134.75,49.0018,51.7052,153.319,99.059,92.4365,0.00132185,0.0801809,21.0462,479.304,0.611562,0.0,0.0
542,135.25,48.4423,52.2094,153.567,99.0647,92.1538,0.00129502,0.080029,21.0461,479.314,0.639144,0.0,0.0
544,135.75,48.9719,51.8111,160.166,99.1032,92.8997,0.00127585,0.079906,21.0461,479.304,0.571324,0.0,0.0
546,136.25,48.0464,51.5741,160.129,99.0874,92.3647,0.00126262,0.0797651,21.0461,479.304,0.620963,0.0,0.0
548,136.75,47.8623,51.5498,154.905,99.1174,92.3185,0.00125191,0.079651,21.046,479.284,0.628065,0.0,0.0
550,137.25,48.5538,52.1628,153.612,99.1272,93.0547,0.00125536,0.0794935,21.046,479.284,0.558728,0.0,0.0
552,137.75,48.7192,52.0474,156.524,99.1474,93.2474,0.00126908,0.0793075,21.0465,479.304,0.542254,0.0,0.0
554,138.25,48.5762,51.5858,150.92,99.1503,92.3002,0.00128211,0.0791062,21.0468,479.284,0.632742,0.0,0.0
556,138.75,48.7116,52.0325,155.015,99.1697,92.8868,0.00129439,0.0788977,21.0471,479.284,0.578489,0.0,0.0
558,139.25,48.5015,51.743,156.532,99.1762,92.5379,0.00130561,0.0787288,21.0473,479.284,0.612324,0.0,0.0
560,139.75,48.4693,51.6091,165.095,99.203,92.2426,0.00131586,0.078527,21.0475,479.304,0.64296,0.0,0.0
562,140.25,48.473,51.5361,155.308,99.2058,92.9391,0.00133118,0.078305,21.0477,479.294,0.576729,0.0,0.0
564,140.75,48.42,51.9998,159.034,99.2375,93.0283,0.00134992,0.0781253,21.0482,479.294,0.571064,0.0,0.0
566,141.25,48.3386,51.7341,159.237,99.2448,92.327,0.00137725,0.0779796,21.0487,479.294,0.638601,0.0,0.0
568,141.75,47.9949,51.211,155.923,99.2764,92.8823,0.00141032,0.0778617,21.049,479.274,0.588416,0.0,0.0
570,142.25,48.3839,51.1769,149.901,99.2748,92.2244,0.00144479,0.0777387,21.0493,479.284,0.651103,0.0,0.0
572,142.75,48.0474,51.5895,155.392,99.2922,92.2118,0.00147961,0.0776247,21.0496,479.274,0.65386,0.0,0.0
574,143.25,48.2266,51.2812,156.974,99.2947,93.1504,0.00150782,0.0775193,21.0498,479.274,0.564564,0.0,0.0
576,143.75,48.5019,51.2593,152.854,99.3324,92.9375,0.00153067,0.0773978,21.0499,479.284,0.58815,0.0,0.0
578,144.25,48.3256,51.1985,155.208,99.3141,93.118,0.00153581,0.077267,21.0501,479.284,0.569377,0.0,0.0
580,144.75,48.14,51.3306,156.449,99.33,92.9732,0.00153997,0.0771105,21.0502,479.264,0.58454,0.0,0.0
582,145.25,48.2042,51.1098,154.925,99.3413,92.7639,0.00151904,0.0769382,21.0503,479.264,0.60547,0.0,0.0
584,145.75,47.9133,51.0454,159.626,99.3612,93.0794,0.00150209,0.0767987,21.0503,479.284,0.577221,0.0,0.0
586,146.25,47.7778,51.6617,152.567,99.3738,92.8016,0.00146407,0.0766208,21.0504,479.274,0.604764,0.0,0.0
588,146.75,47.2085,51.4363,149.165,99.392,92.6272,0.00143328,0.0764182,21.0504,479.274,0.623014,0.0,0.0
590,147.25,47.8843,51.0459,151.54,99.3957,93.5565,0.00140132,0.0762541,21.0505,479.254,0.535107,0.0,0.0
592,147.75,48.2258,51.1343,156.87,99.4233,92.8211,0.00138436,0.0760389,21.0505,479.254,0.607309,0.0,0.0
594,148.25,47.8018,51.0523,153.544,99.4302,92.742,0.00135537,0.0758647,21.0505,479.254,0.615457,0.0,0.0
596,148.75,47.9162,50.7529,157.371,99.4411,92.518,0.00132703,0.0756947,21.0505,479.254,0.637795,0.0,0.0
598,149.25,48.2397,51.2058,155.011,99.4496,92.5748,0.00130407,0.075531,21.0506,479.234,0.633129,0.0,0.0
600,149.75,47.4186,50.6507,159.353,99.4683,93.0113,0.00128063,0.0753984,21.0508,479.224,0.593214,0.0,0.0
602,150.25,47.9892,51.1256,156.327,99.4744,93.206,0.00126164,0.0751951,21.0512,479.224,0.575272,0.0,0.0
604,150.75,47.5942,50.5793,156.872,99.5076,93.1711,0.00124626,0.0751084,21.0515,479.234,0.581535,0.0,0.0
606,151.25,47.9763,50.6461,160.428,99.5036,93.7443,0.0012241,0.074878,21.0518,479.234,0.52697,0.0,0.0
608,151.75,47.4091,51.0104,154.425,99.5437,93.9763,0.00120615,0.0746914,21.052,479.234,0.508688,0.0,0.0
610,152.25,47.9155,50.9399,153.508,99.5312,93.0076,0.00117463,0.0745042,21.0524,479.204,0.599146,0.0,0.0
612,152.75,47.2901,50.4279,156.868,99.5437,92.66,0.00114911,0.0743201,21.053,479.214,0.633359,0.0,0.0
614,153.25,47.7531,50.4794,154.594,99.5539,93.5167,0.0011144,0.074171,21.0534,479.214,0.552918,0.0,0.0
616,153.75,47.5716,50.8211,153.493,99.5782,93.4474,0.00107367,0.0740229,21.0538,479.214,0.561636,0.0,0.0
618,154.25,47.9771,50.7547,156.483,99.5782,92.6304,0.00102729,0.0739029,21.0541,479.214,0.639245,0.0,0.0
620,154.75,47.7831,50.4635,157.684,99.6005,93.6583,0.00097768,0.0737235,21.0543,479.234,0.543689,0.0,0.0
622,155.25,47.835,50.8019,156.445,99.5932,93.0421,0.000937496,0.0735782,21.0545,479.204,0.601379,0.0,0.0
624,155.75,47.5399,50.531,158.098,99.6167,93.5524,0.000904947,0.0734245,21.0546,479.214,0.555124,0.0,0.0
626,156.25,47.958,50.4564,154.334,99.6212,93.3192,0.000850756,0.0732675,21.055,479.174,0.577583,0.0,0.0
628,156.75,47.6823,50.8312,159.076,99.6305,92.7931,0.000806861,0.0731188,21.0552,479.164,0.62838,0.0,0.0
630,157.25,47.4494,50.3536,157.829,99.6399,93.0198,0.000768887,0.0729789,21.0554,479.204,0.607637,0.0,0.0
632,157.75,47.2088,50.5994,153.721,99.6549,93.3111,0.000738128,0.0728656,21.0556,479.164,0.581338,0.0,0.0
634,158.25,47.4261,50.4203,159.245,99.6585,93.8899,0.000713213,0.0727737,21.0557,479.164,0.527003,0.0,0.0
636,158.75,47.3797,50.4347,156.921,99.6715,93.2283,0.000708757,0.0726173,21.0561,479.164,0.590654,0.0,0.0
638,159.25,47.1533,50.3048,160.761,99.667,93.4437,0.000705147,0.0724905,21.0566,479.154,0.569863,0.0,0.0
640,159.75,47.6258,50.6802,156.43,99.6841,93.965,0.000725217,0.0722373,21.057,479.154,0.522208,0.0,0.0
642,160.25,47.3524,50.2272,154.91,99.6764,93.4859,0.000741474,0.0720322,21.0573,479.124,0.5667,0.0,0.0
644,160.75,46.7173,50.629,157.987,99.678,92.9866,0.000769172,0.0718661,21.0576,479.144,0.614179,0.0,0.0
646,161.25,46.8109,49.8921,152.984,99.6861,93.7216,0.000791607,0.0716221,21.0578,479.154,0.54531,0.0,0.0
648,161.75,47.0348,49.9382,159.646,99.6995,93.247,0.000810991,0.0714245,21.0579,479.174,0.591367,0.0,0.0
650,162.25,46.7744,50.33,158.445,99.6983,93.1452,0.000826692,0.0712212,21.0581,479.154,0.600915,0.0,0.0
652,162.75,47.1634,49.9188,156.663,99.7003,93.247,0.000832143,0.0710176,21.0584,479.174,0.591439,0.0,0.0
654,163.25,46.7014,49.2365,158.995,99.7287,93.2032,0.000836559,0.070824,21.0589,479.164,0.598109,0.0,0.0
656,163.75,46.6477,49.6409,159.064,99.7173,93.0754,0.000833081,0.0706412,21.0593,479.164,0.609228,0.0,0.0
658,164.25,47.1372,50.0847,156.892,99.723,93.0036,0.000823914,0.0704716,21.0596,479.154,0.616552,0.0,0.0
660,164.75,47.261,49.6866,152.132,99.7279,93.3853,0.000816489,0.0703148,21.0599,479.174,0.580782,0.0,0.0
662,165.25,46.7855,49.8327,152.09,99.7376,93.5342,0.000806843,0.0701518,21.0602,479.174,0.567567,0.0,0.0
664,165.75,47.4143,49.6565,151.668,99.7287,93.928,0.000799031,0.0699873,21.0605,479.164,0.529636,0.0,0.0
666,166.25,46.8797,49.7746,156.352,99.7368,93.5325,0.000799073,0.0697858,21.0608,479.154,0.567649,0.0,0.0
668,166.75,47.1888,49.8526,158.197,99.7421,94.188,0.000804842,0.0696226,21.061,479.164,0.50639,0.0,0.0
670,167.25,46.868,49.7363,148.788,99.7559,93.1099,0.000809515,0.0694903,21.0611,479.144,0.609369,0.0,0.0
672,167.75,46.9927,49.7573,146.954,99.751,92.8823,0.00082662,0.0692884,21.0613,479.144,0.630566,0.0,0.0
674,168.25,46.8788,49.552,155.476,99.768,94.0635,0.000839838,0.0691248,21.0614,479.134,0.520382,0.0,0.0
676,168.75,47.2219,49.7807,154.567,99.7571,93.2729,0.00084997,0.0689563,21.0615,479.124,0.594011,0.0,0.0
678,169.25,46.7034,50.1852,151.596,99.7786,93.5861,0.000858177,0.0687875,21.0615,479.114,0.566291,0.0,0.0
680,169.75,46.6231,49.5701,158.265,99.7672,93.9357,0.000862403,0.068622,21.0616,479.124,0.532325,0.0,0.0
682,170.25,46.6123,49.3466,155.54,99.7696,93.0279,0.000865827,0.068462,21.0617,479.114,0.618372,0.0,0.0
684,170.75,46.9093,49.2262,149.517,99.7644,93.4676,0.000875866,0.0683325,21.0619,479.144,0.576227,0.0,0.0
686,171.25,46.8856,49.4066,161.508,99.781,94.1207,0.000883998,0.0680909,21.0624,479.134,0.516161,0.0,0.0
688,171.75,47.1157,49.6259,154.047,99.7713,93.4474,0.000890585,0.0678953,21.0627,479.144,0.578757,0.0,0.0
690,172.25,46.4125,49.796,157.142,99.7842,93.3171,0.000906824,0.0676548,21.063,479.144,0.592231,0.0,0.0
692,172.75,47.1202,49.5595,149.835,99.7729,93.1533,0.000925717,0.0674601,21.0632,479.114,0.606758,0.0,0.0
694,173.25,46.5315,49.2319,155.303,99.8074,93.2409,0.000946188,0.0671794,21.0634,479.114,0.601503,0.0,0.0
696,173.75,47.2897,49.5306,155.506,99.794,93.1314,0.000962769,0.0669521,21.0636,479.094,0.610706,0.0,0.0
698,174.25,46.6595,49.3686,159.083,99.7993,93.3184,0.000992045,0.0667177,21.0637,479.114,0.593443,0.0,0.0
700,174.75,46.6267,49.6507,154.99,99.8037,93.2701,0.00101576,0.0664826,21.0638,479.124,0.598412,0.0,0.0
702,175.25,45.9076,48.901,158.004,99.7964,93.8802,0.00103982,0.0662921,21.0638,479.114,0.540142,0.0,0.0
704,175.75,46.1329,49.0046,153.741,99.7944,93.812,0.00105007,0.0661105,21.0637,479.094,0.546381,0.0,0.0
706,176.25,46.5424,49.7114,156.538,99.8037,93.3038,0.00106634,0.0659634,21.0637,479.074,0.595223,0.0,0.0
708,176.75,46.166,49.3861,155.191,99.8021,92.8247,0.00107836,0.0657761,21.0636,479.054,0.640575,0.0,0.0
710,177.25,46.8159,48.7219,157.649,99.8139,93.2604,0.00108427,0.0656243,21.0635,479.094,0.600233,0.0,0.0
712,177.75,46.8622,48.7873,153.739,99.8118,93.8376,0.00108561,0.0654578,21.0635,479.084,0.545518,0.0,0.0
714,178.25,46.6197,49.0657,157.043,99.8082,92.8572,0.0010867,0.0652839,21.0635,479.034,0.638025,0.0,0.0
716,178.75,46.1649,49.1884,153.96,99.8021,93.2425,,0.0652097,,479.044,0.600882,0.0,0.0
718,179.25,46.4746,49.0983,159.958,99.8252,93.9921,,0.0650419,,479.034,0.532159,0.0,0.0
720,179.75,46.2516,49.4137,155.83,99.8183,93.4279,,0.064906,,479.034,0.584766,0.0,0.0
722,180.25,46.2188,49.041,156.023,99.8354,93.3322,,0.0646732,,479.024,0.595334,0.0,0.0
724,180.75,46.4438,49.137,158.072,99.8199,93.5512,,0.0644846,,479.024,0.57325,0.0,0.0
726,181.25,46.7994,48.7423,151.617,99.8406,93.1626,,0.0643318,,479.024,0.611872,0.0,0.0
728,181.75,46.4686,49.3362,154.894,99.8248,93.6072,,,,479.024,0.568395,0.0,0.0
730,182.25,46.6283,48.9767,151.014,99.8455,93.464,,,,479.024,0.583757,0.0,0.0
732,182.75,46.309,48.683,152.193,99.8297,93.2348,,,,479.014,0.604056,0.0,0.0
734,183.25,46.3163,48.6474,154.48,99.8386,93.1212,,,,479.014,0.615619,0.0,0.0
736,183.75,46.1656,48.7957,151.584,99.8345,93.2535,,,,478.994,0.602717,0.0,0.0
738,184.25,46.1549,49.1222,154.543,99.8443,93.9881,,,,479.004,0.534227,0.0,0.0
740,184.75,46.3603,48.7446,158.059,99.8264,93.853,,,,479.004,0.545358,0.0,0.0
742,185.25,46.3934,49.4548,154.982,99.8487,93.0397,,,,479.004,0.624258,0.0,0.0
744,185.75,46.6585,48.3325,155.282,99.8451,93.1448,,,,479.004,0.613961,0.0,0.0
746,186.25,46.5639,48.7956,155.73,99.8317,92.7476,,,,479.004,0.650538,0.0,0.0
748,186.75,47.146,48.8978,155.799,99.8224,93.3565,,,,479.014,0.59188,0.0,0.0
750,187.25,46.6537,48.8408,155.104,99.856,93.234,,,,479.004,0.606466,0.0,0.0
752,187.75,46.3707,49.0551,156.747,99.8248,93.6108,,,,479.014,0.56805,0.0,0.0
754,188.25,46.4869,49.2864,156.023,99.8272,93.6453,,,,479.014,0.56501,0.0,0.0
756,188.75,46.1394,49.2102,156.317,99.8317,92.7748,,,,478.994,0.647949,0.0,0.0
758,189.25,46.3852,48.1957,156.229,99.837,93.4271,,,,479.034,0.586493,0.0,0.0
759,189.5,46.1714,49.4757,158.473,99.8293,93.7033,,,,479.014,0.559717,0.0,0.0