File: 01_Data/Vinyl_Plank_Flooring/Cone/Vinyl_Plank_Flooring_Cone_HF25Scan_220311_R2.csv
Names,Time,Stack TC,Smoke TC,Exh Press,Smoke Comp,Smoke Meas,CO Meter,CO2 Meter,O2 Meter,Sample Mass,Ext Coeff,Start Test,Flame Verif
Chan Gain,,500,500,1,1,1,1,1,1,1,1,1.0,1.0
Offset,,0,0,0.136191,0,0,0,0,0,0,0,0.0,0.0
Gain,,1,1,25.011,13.291,13.2919,1,1,1,1.00093,1.00758,1.0,1.0
Units,sec,C,C,Pa,%,%,%,%,%,g,/m,,
Baseline,,18.7468,19.1011,175.706,99.6598,95.0209,0.000399565,0.0413229,21.084,-1.08709,0.421387,,
2,0.25,16.8777,17.8158,175.437,99.8224,95.697,0.000487279,0.0437971,21.0822,500.644,0.373026,0.0,0.0
4,0.75,17.2209,17.788,176.638,99.8354,95.4524,0.00053785,0.043703,21.0823,500.444,0.396796,0.0,0.0
6,1.25,17.1143,17.873,174.052,99.8212,95.7631,0.000597293,0.0436629,21.0823,500.414,0.366814,0.0,0.0
8,1.75,17.488,17.8681,170.671,99.8325,95.437,0.000689693,0.0435943,21.0823,500.514,0.397972,0.0,0.0
10,2.25,16.7172,17.6767,176.078,99.8285,95.7834,0.000714549,0.0434846,21.0824,500.424,0.365589,0.0,0.0
12,2.75,17.284,17.7021,169.081,99.85,95.7201,0.000757052,0.0433957,21.0824,500.394,0.373333,0.0,0.0
14,3.25,17.425,17.0525,172.813,99.85,96.0759,0.00076605,0.0433237,21.0824,500.504,0.340547,0.0,0.0
16,3.75,17.6459,17.2795,171.965,99.8297,95.1754,0.000773338,0.0432654,21.0824,500.494,0.421983,0.0,0.0
18,4.25,17.1537,17.8454,175.472,99.8354,96.0102,0.0007502,0.0432182,21.0826,500.384,0.345302,0.0,0.0
20,4.75,17.7046,18.0922,174.635,99.835,95.8998,0.000731458,0.0431637,21.0831,500.404,0.355427,0.0,0.0
22,5.25,17.5329,17.7092,178.228,99.8272,95.9408,0.000698138,0.0431215,21.0834,500.384,0.35097,0.0,0.0
24,5.75,17.5357,17.6619,169.925,99.8386,95.785,0.000671148,0.0430968,21.0837,500.404,0.366337,0.0,0.0
26,6.25,17.3622,17.5553,174.11,99.8305,95.9846,0.000638408,0.0430546,21.0839,500.414,0.347223,0.0,0.0
28,6.75,17.0946,17.6723,179.49,99.8439,96.3063,0.000611888,0.0430275,21.084,500.414,0.318838,0.0,0.0
30,7.25,17.2617,17.9215,172.013,99.835,96.1594,0.000584365,0.0430119,21.0842,500.354,0.331534,0.0,0.0
32,7.75,17.6349,17.6273,157.657,99.8524,95.3502,0.000562071,0.0429858,21.0843,500.354,0.407773,0.0,0.0
34,8.25,17.6295,18.0809,164.42,99.8463,95.9534,0.000544013,0.0429647,21.0844,500.364,0.3515,0.0,0.0
36,8.75,17.646,17.6977,171.903,99.8459,95.7972,0.000526968,0.0428977,21.0845,500.344,0.365861,0.0,0.0
38,9.25,17.5539,17.3655,178.617,99.8345,95.8207,0.000513162,0.0427985,21.0845,500.404,0.362684,0.0,0.0
40,9.75,16.9813,17.6684,173.433,99.8467,95.826,0.000505605,0.0427111,21.0846,500.424,0.363276,0.0,0.0
42,10.25,17.3249,18.1046,177.05,99.8301,95.7554,0.000499484,0.0426339,21.0846,500.374,0.368316,0.0,0.0
44,10.75,17.6507,18.0353,175.556,99.8548,95.9286,0.000494526,0.0425571,21.0847,500.304,0.354534,0.0,0.0
46,11.25,17.7483,17.7833,177.772,99.85,95.9254,0.00049051,0.0424821,21.0847,500.304,0.354402,0.0,0.0
48,11.75,17.422,17.8826,173.1,99.8495,95.6938,0.000479626,0.0424214,21.0847,500.374,0.375732,0.0,0.0
50,12.25,17.4838,17.9049,169.828,99.8414,95.7575,0.000463942,0.0423508,21.0847,500.384,0.369134,0.0,0.0
52,12.75,17.1854,18.1673,173.037,99.8435,96.1716,0.000451238,0.0422744,21.0847,500.314,0.33117,0.0,0.0
54,13.25,16.9702,17.5783,179.452,99.8471,95.4074,0.000419211,0.0421769,21.0847,500.304,0.402006,0.0,0.0
56,13.75,17.1837,17.7431,173.818,99.8585,95.9128,0.000393269,0.0420659,21.0848,500.314,0.356314,0.0,0.0
58,14.25,17.7198,17.3763,173.43,99.8406,95.4946,0.000368635,0.0419689,21.085,500.274,0.393357,0.0,0.0
60,14.75,17.2897,17.9935,173.277,99.8491,95.8061,0.000348681,0.0418839,21.0854,500.264,0.365324,0.0,0.0
62,15.25,17.7476,17.8631,173.674,99.8443,95.9899,0.000341415,0.0418151,21.0857,500.364,0.347958,0.0,0.0
64,15.75,17.6654,17.4997,172.953,99.8516,94.6878,0.000343536,0.0417458,21.086,500.284,0.469317,0.0,0.0
66,16.25,17.8902,17.7549,175.589,99.8512,95.4086,0.000345255,0.0416896,21.0862,500.254,0.402253,0.0,0.0
68,16.75,17.7727,18.4656,175.758,99.8471,94.7267,0.000373226,0.0416299,21.0864,500.344,0.465287,0.0,0.0
70,17.25,17.4356,17.5268,182.435,99.8475,94.8476,0.000395882,0.0415688,21.0865,500.364,0.454053,0.0,0.0
72,17.75,17.2496,17.3408,177.625,99.8629,94.3864,0.000419539,0.0415121,21.0866,500.304,0.4985,0.0,0.0
74,18.25,17.3329,17.9228,176.654,99.8443,95.0289,0.000459994,0.0414598,21.0867,500.294,0.436884,0.0,0.0
76,18.75,17.7181,17.7348,173.729,99.8475,94.2217,0.000508489,0.0414174,21.0865,500.284,0.512571,0.0,0.0
78,19.25,17.2981,17.5504,165.884,99.839,94.5069,0.00054777,0.0414372,21.0862,500.284,0.485107,0.0,0.0
80,19.75,17.0028,17.6093,173.203,99.8451,94.1783,0.00059411,0.0414532,21.0857,500.254,0.516428,0.0,0.0
82,20.25,17.7696,17.7818,173.344,99.856,94.0051,0.000631645,0.0415339,21.0851,500.274,0.533667,0.0,0.0
84,20.75,17.8976,18.1058,174.832,99.8382,93.4689,0.000708075,0.0415682,21.0846,500.284,0.58265,0.0,0.0
86,21.25,17.1523,17.5142,173.664,99.8362,93.6376,0.000769984,0.0416676,21.0833,500.294,0.566528,0.0,0.0
88,21.75,17.7287,17.8032,173.891,99.8427,93.3034,0.00082013,0.041748,21.0823,500.314,0.598709,0.0,0.0
90,22.25,17.2263,17.7766,177.455,99.839,92.3351,0.00107826,0.0420982,21.0814,500.304,0.690584,0.0,0.0
92,22.75,17.7019,18.0044,175.887,99.8394,92.4231,0.00148311,0.0426383,21.079,500.304,0.682199,0.0,0.0
94,23.25,17.357,17.9696,179.924,99.8345,92.7866,0.00237308,0.044842,21.077,500.264,0.647079,0.0,0.0
96,23.75,17.844,17.8774,172.351,99.8297,90.5827,0.00359978,0.0482168,21.0685,500.324,0.859108,0.0,0.0
98,24.25,17.6321,18.3753,169.234,99.8309,92.1015,0.00551996,0.0509504,21.0617,500.284,0.71226,0.0,0.0
100,24.75,17.3948,18.5239,170.871,99.8293,91.0225,0.0079092,0.0663036,21.0562,500.204,0.816272,0.0,1.0
102,25.25,17.8438,18.2024,167.551,99.8321,87.1129,0.00984448,0.0787398,21.0398,500.104,1.20454,0.0,1.0
104,25.75,17.6684,18.7108,159.123,99.8272,82.4952,0.0114121,0.100737,21.0159,499.864,1.6855,0.0,1.0
106,26.25,18.4731,18.0781,154.439,99.8293,82.3601,0.0163738,0.129286,20.9574,499.964,1.70016,0.0,1.0
108,26.75,18.704,18.4305,152.493,99.8256,77.965,0.0203928,0.152411,20.9101,499.763,2.18454,0.0,1.0
110,27.25,19.7182,19.5422,152.139,99.8228,70.8652,0.0257377,0.195399,20.8479,499.593,3.02819,0.0,1.0
112,27.75,19.8008,19.898,147.17,99.8171,65.445,0.030067,0.23022,20.7762,499.443,3.73094,0.0,1.0
114,28.25,20.0977,20.3192,141.217,99.8236,61.3469,0.034838,0.258425,20.7108,499.163,4.30307,0.0,1.0
116,28.75,20.4882,20.6928,138.102,99.8171,52.3211,0.0387025,0.305268,20.6514,498.963,5.70908,0.0,1.0
118,29.25,21.2732,21.155,151.469,99.8135,49.2966,0.0419663,0.34321,20.6033,498.813,6.23503,0.0,0.0
120,29.75,22.0542,21.9785,151.374,99.8159,52.1612,0.0447304,0.375495,20.5643,498.753,5.73602,0.0,0.0
122,30.25,22.7574,22.7377,148.557,99.811,51.752,0.0466405,0.401646,20.5327,498.552,5.80521,0.0,0.0
124,30.75,23.1602,23.2524,154.995,99.7997,53.4869,0.0478919,0.41678,20.5071,498.422,5.51277,0.0,0.0
126,31.25,22.7467,22.6559,155.069,99.8017,50.8758,0.0489055,0.429038,20.4864,498.332,5.9553,0.0,0.0
128,31.75,23.5695,23.7993,159.7,99.794,51.111,0.0485111,0.433715,20.4759,498.232,5.91384,0.0,0.0
130,32.25,23.6273,23.8949,156.818,99.7907,44.5345,0.0481916,0.432774,20.473,498.152,7.13093,0.0,0.0
132,32.75,24.8286,24.9267,160.925,99.7765,44.7933,0.0474539,0.432013,20.4708,498.072,7.07846,0.0,0.0
134,33.25,24.9325,25.3234,162.656,99.7903,47.3536,0.0464253,0.423532,20.4815,498.012,6.58839,0.0,0.0
136,33.75,25.1585,25.5147,157.686,99.7725,44.6529,0.0452142,0.416663,20.4901,497.912,7.10584,0.0,0.0
138,34.25,25.5901,26.1091,156.153,99.7794,49.2751,0.043893,0.407094,20.5007,497.832,6.23586,0.0,0.0
140,34.75,25.6648,26.223,158.555,99.7672,48.2075,0.0426402,0.399343,20.5093,497.722,6.42839,0.0,0.0
142,35.25,25.8491,26.6755,164.117,99.7611,46.7634,0.0414611,0.392293,20.5162,497.631,6.69666,0.0,0.0
144,35.75,26.4011,26.9935,156.575,99.7502,44.3901,0.040506,0.385888,20.5218,497.551,7.15604,0.0,0.0
146,36.25,26.5292,27.12,160.911,99.7486,49.6268,0.0396424,0.381188,20.5264,497.471,6.17028,0.0,0.0
148,36.75,26.4986,27.21,154.092,99.7157,43.7495,0.0388618,0.377822,20.5301,497.331,7.28145,0.0,0.0
150,37.25,27.0112,27.7569,153.107,99.7372,47.4968,0.0382527,0.375096,20.5331,497.211,6.557,0.0,0.0
152,37.75,27.111,27.7708,154.313,99.7194,49.0086,0.0377803,0.375117,20.5324,497.121,6.27848,0.0,0.0
154,38.25,27.5631,28.3671,155.64,99.7121,51.9179,0.0374652,0.375134,20.5318,497.101,5.76815,0.0,0.0
156,38.75,27.1172,27.8733,154.22,99.6897,50.9115,0.0372708,0.378411,20.5265,496.981,5.93918,0.0,0.0
158,39.25,28.0804,28.8043,151.713,99.6987,48.7482,0.0371946,0.381065,20.5222,496.891,6.32373,0.0,0.0
160,39.75,28.4223,29.406,150.543,99.6979,47.6623,0.0372061,0.38505,20.5138,496.821,6.52277,0.0,0.0
162,40.25,28.8,29.4948,157.933,99.6824,47.9856,0.0373114,0.38993,20.5071,496.721,6.46165,0.0,0.0
164,40.75,28.8771,29.7342,155.718,99.6695,50.8648,0.0374831,0.39531,20.4967,496.661,5.94549,0.0,0.0
166,41.25,29.3196,30.0426,155.221,99.6707,48.0919,0.0377223,0.400952,20.4883,496.58,6.44106,0.0,0.0
168,41.75,29.5256,30.3626,158.326,99.6504,49.8706,0.0380063,0.407037,20.4771,496.5,6.11826,0.0,0.0
170,42.25,29.8974,30.6516,156.62,99.6524,49.435,0.0382363,0.413329,20.468,496.31,6.19599,0.0,0.0
172,42.75,30.3213,31.2867,156.414,99.6386,49.5583,0.038576,0.419827,20.4606,496.15,6.17275,0.0,0.0
174,43.25,30.4188,31.4171,158.154,99.6285,49.8986,0.0389892,0.426353,20.4506,496.03,6.11136,0.0,0.0
176,43.75,31.0789,32.1171,159.477,99.6236,52.0363,0.0394267,0.43298,20.4426,495.96,5.74017,0.0,0.0
178,44.25,30.2668,31.2094,151.593,99.605,50.3635,0.0398736,0.439555,20.4342,495.86,6.02732,0.0,0.0
180,44.75,31.1656,32.1433,147.076,99.5891,49.4305,0.0402356,0.444881,20.4257,495.71,6.19118,0.0,0.0
182,45.25,31.5113,32.4232,156.122,99.5973,50.247,0.0406986,0.451414,20.4174,495.66,6.04709,0.0,0.0
184,45.75,32.0098,33.0291,147.232,99.5859,47.3764,0.0410736,0.456706,20.4095,495.55,6.56603,0.0,0.0
186,46.25,32.5269,33.4619,147.757,99.5754,49.4999,0.0414361,0.461719,20.4028,495.469,6.17756,0.0,0.0
188,46.75,33.0127,34.1659,152.735,99.5689,50.664,0.0417297,0.466435,20.3972,495.409,5.97152,0.0,0.0
190,47.25,33.2471,34.4479,147.059,99.5599,51.0648,0.041966,0.470255,20.3926,495.349,5.90109,0.0,0.0
192,47.75,33.2595,34.5261,156.683,99.534,51.6599,0.0421575,0.473261,20.3889,495.269,5.79638,0.0,0.0
194,48.25,33.5789,34.8535,154.936,99.5259,55.1666,0.0423125,0.475695,20.3859,495.159,5.21519,0.0,0.0
196,48.75,33.4899,35.0831,149.849,99.5125,49.3538,0.0423208,0.477241,20.3841,495.049,6.19809,0.0,0.0
198,49.25,34.502,35.7806,155.03,99.5068,49.9619,0.0423276,0.478493,20.3832,494.919,6.08936,0.0,0.0
200,49.75,34.7605,36.0672,155.88,99.4946,50.6482,0.042333,0.478781,20.3825,494.759,5.96769,0.0,0.0
202,50.25,35.1763,36.5721,149.546,99.4772,52.4026,0.0421431,0.479014,20.3831,494.719,5.66517,0.0,0.0
204,50.75,35.2337,36.6115,156.434,99.4581,52.5888,0.0419892,0.479203,20.3846,494.649,5.63213,0.0,0.0
206,51.25,35.6412,36.811,148.959,99.4431,48.1665,0.041703,0.47747,20.387,494.599,6.40715,0.0,0.0
208,51.75,35.8933,37.1882,148.834,99.4322,49.5603,0.0414712,0.476067,20.39,494.358,6.15405,0.0,0.0
210,52.25,35.8556,37.3425,151.868,99.4273,49.0524,0.0411109,0.474929,20.3945,494.288,6.24466,0.0,0.0
212,52.75,35.8352,37.5549,146.752,99.4054,49.3721,0.040819,0.471525,20.4,494.118,6.1853,0.0,0.0
214,53.25,36.654,38.224,158.171,99.3953,47.8927,0.0404853,0.468767,20.4045,494.078,6.45328,0.0,0.0
216,53.75,36.637,38.4098,156.979,99.3867,51.12,0.0401274,0.465028,20.4135,494.058,5.87616,0.0,0.0
218,54.25,36.9388,38.7037,155.182,99.3701,46.4089,0.0397549,0.460646,20.4208,493.988,6.72921,0.0,0.0
220,54.75,37.3303,38.9098,164.394,99.3571,48.5665,0.039379,0.456156,20.4293,493.868,6.32642,0.0,0.0
222,55.25,37.4608,39.061,153.031,99.3454,48.4363,0.0389696,0.451673,20.4362,493.748,6.3491,0.0,0.0
224,55.75,37.5857,39.4166,149.32,99.3271,45.7457,0.0385436,0.447385,20.4436,493.668,6.8526,0.0,0.0
226,56.25,37.439,39.2128,141.645,99.3206,46.4645,0.0381986,0.443321,20.4496,493.578,6.71423,0.0,0.0
228,56.75,37.3261,39.2446,152.878,99.304,48.1365,0.0377728,0.439429,20.4544,493.558,6.40029,0.0,0.0
230,57.25,38.0085,39.9683,156.102,99.3113,50.1473,0.0372963,0.435737,20.4605,493.428,6.03924,0.0,0.0
232,57.75,38.2459,40.0504,155.059,99.276,51.2384,0.0368125,0.432746,20.4655,493.267,5.84585,0.0,0.0
234,58.25,38.4166,40.3966,149.9,99.2618,49.168,0.0363326,0.429374,20.4709,493.207,6.20913,0.0,0.0
236,58.75,38.7996,40.8413,148.225,99.2444,48.6058,0.0358466,0.426643,20.4752,493.127,6.30922,0.0,0.0
238,59.25,38.5825,40.6202,154.844,99.2334,48.5697,0.0353652,0.423992,20.4792,493.137,6.31481,0.0,0.0
240,59.75,38.787,40.7692,155.024,99.2229,50.0373,0.0349006,0.421844,20.4824,493.007,6.05077,0.0,0.0
242,60.25,39.2047,41.0881,149.533,99.2144,50.6616,0.0344569,0.420175,20.4854,492.897,5.94042,0.0,0.0
244,60.75,39.2365,41.2002,150.01,99.1888,47.0531,0.0340229,0.418887,20.4879,492.687,6.59124,0.0,0.0
246,61.25,39.434,41.3646,158.71,99.1799,46.2535,0.0336044,0.417773,20.4903,492.577,6.74191,0.0,0.0
248,61.75,39.5427,41.9623,160.875,99.1612,48.5754,0.0331851,0.416807,20.4923,492.577,6.30735,0.0,0.0
250,62.25,39.7371,41.9349,155.777,99.145,47.4518,0.0327734,0.416024,20.4939,492.557,6.51275,0.0,0.0
252,62.75,39.7401,41.8471,156.957,99.1247,46.2698,0.0324398,0.41517,20.4952,492.517,6.73389,0.0,0.0
254,63.25,40.4823,42.6668,158.384,99.1109,46.6693,0.0320394,0.414479,20.4962,492.407,6.65667,0.0,0.0
256,63.75,39.9563,42.0244,162.642,99.1053,45.5396,0.0315976,0.413851,20.4975,492.347,6.87274,0.0,0.0
258,64.25,40.1644,42.559,147.966,99.0886,43.7045,0.031124,0.413139,20.4986,492.256,7.23479,0.0,0.0
260,64.75,40.3919,42.5394,159.807,99.0728,45.914,0.0306362,0.412378,20.5003,492.166,6.79748,0.0,0.0
262,65.25,40.2548,42.4857,154.444,99.0525,45.0066,0.0302411,0.411762,20.5017,492.096,6.97209,0.0,0.0
264,65.75,40.378,42.8955,159.625,99.0391,45.2293,0.0296485,0.410237,20.5036,492.056,6.92727,0.0,0.0
266,66.25,39.9655,42.3442,155.553,99.0254,42.9667,0.0291686,0.409001,20.5059,492.066,7.37964,0.0,0.0
268,66.75,40.6658,42.9376,155.865,99.0172,43.6863,0.0285541,0.408,20.5096,491.956,7.23211,0.0,0.0
270,67.25,40.8137,43.2873,160.28,99.001,46.5716,0.0280563,0.405401,20.5143,491.856,6.66539,0.0,0.0
272,67.75,40.7545,43.3098,157.682,98.9864,49.3575,0.027411,0.403296,20.5195,491.806,6.15059,0.0,0.0
274,68.25,40.8329,43.5217,158.245,98.9588,47.0871,0.0268882,0.400725,20.5249,491.736,6.56432,0.0,0.0
276,68.75,40.9424,43.487,156.662,98.9459,49.9684,0.0261794,0.397861,20.5312,491.736,6.03824,0.0,0.0
278,69.25,41.3737,43.8284,151.358,98.9264,47.2672,0.0256053,0.394672,20.538,491.706,6.52768,0.0,0.0
280,69.75,41.1452,43.7977,159.187,98.9146,50.5521,0.0251403,0.391306,20.5435,491.616,5.9328,0.0,0.0
282,70.25,41.3342,43.5499,155.661,98.8943,50.6235,0.0243465,0.387516,20.5479,491.536,5.91852,0.0,0.0
284,70.75,41.215,43.9371,155.778,98.8943,50.9545,0.0237036,0.383489,20.5536,491.516,5.86092,0.0,0.0
286,71.25,41.4844,44.0843,161.07,98.8769,51.4579,0.0231828,0.377265,20.5601,491.486,5.77247,0.0,0.0
288,71.75,41.4001,44.1723,161.102,98.8526,56.536,0.0222701,0.372224,20.568,491.426,4.93847,0.0,0.0
290,72.25,41.0302,43.7498,165.297,98.8307,56.7502,0.0215308,0.366127,20.5767,491.376,4.90309,0.0,0.0
292,72.75,41.1057,44.1917,159.581,98.8262,60.2561,0.0205695,0.359375,20.5865,491.306,4.37287,0.0,0.0
294,73.25,41.3586,43.7955,159.808,98.7994,62.0754,0.0197909,0.353907,20.597,491.296,4.10758,0.0,0.0
296,73.75,41.3404,44.1201,161.85,98.7974,62.2239,0.0188502,0.349477,20.6095,491.246,4.08628,0.0,0.0
298,74.25,41.2464,43.9299,165.415,98.7645,63.6513,0.0180883,0.34067,20.6231,491.155,3.88288,0.0,0.0
300,74.75,41.089,43.8901,161.554,98.7645,66.8149,0.017289,0.333535,20.6379,491.165,3.45416,0.0,0.0
302,75.25,41.0938,43.8578,162.463,98.739,66.0004,0.0164775,0.326288,20.6533,491.105,3.56028,0.0,0.0
304,75.75,41.2428,44.1594,172.297,98.7378,68.0618,0.0156436,0.319095,20.6657,491.105,3.28834,0.0,0.0
306,76.25,41.3289,44.0849,161.852,98.7268,68.669,0.0148092,0.310567,20.678,491.085,3.20886,0.0,0.0
308,76.75,41.0852,43.821,167.29,98.7021,70.8704,0.0141333,0.303659,20.69,491.065,2.92775,0.0,0.0
310,77.25,41.2181,43.7755,165.524,98.6879,73.4462,0.0133927,0.295386,20.6997,491.005,2.61094,0.0,0.0
312,77.75,41.2333,43.6719,163.285,98.6757,74.3638,0.012619,0.288686,20.712,490.975,2.50012,0.0,0.0
314,78.25,40.616,43.433,165.693,98.6571,77.1623,0.0118776,0.281671,20.722,490.945,2.17194,0.0,0.0
316,78.75,40.9787,43.7696,166.227,98.6546,76.4901,0.0111738,0.274561,20.7322,490.965,2.24905,0.0,0.0
318,79.25,40.633,43.5049,161.736,98.6368,78.3427,0.0106037,0.268801,20.7423,490.945,2.03594,0.0,0.0
320,79.75,40.8205,43.5124,162.034,98.6352,78.1354,0.00993635,0.261422,20.7526,490.945,2.05921,0.0,0.0
322,80.25,40.593,43.3967,169.791,98.6234,78.3025,0.00939583,0.255444,20.7629,490.975,2.03927,0.0,0.0
324,80.75,40.4284,43.274,172.284,98.6068,79.5109,0.0088544,0.250602,20.773,490.875,1.90243,0.0,0.0
326,81.25,40.5633,43.5289,165.207,98.5999,79.9198,0.00841584,0.244568,20.7829,490.875,1.85648,0.0,0.0
328,81.75,39.9856,42.7313,168.434,98.6023,81.4125,0.00797221,0.23968,20.7919,490.865,1.69313,0.0,0.0
330,82.25,40.0276,42.7924,168.212,98.5869,79.2837,0.00761286,0.235028,20.8,490.845,1.92593,0.0,0.0
332,82.75,40.0584,42.789,166.27,98.5796,79.2067,0.00728779,0.230636,20.8075,490.835,1.93388,0.0,0.0
334,83.25,39.1232,42.0406,165.507,98.565,79.7226,0.00699387,0.226552,20.8144,490.845,1.87518,0.0,0.0
336,83.75,39.5187,42.3002,167.535,98.5686,80.6142,0.00675579,0.222769,20.82,490.795,1.77721,0.0,0.0
338,84.25,39.5135,42.4118,166.542,98.5471,79.5924,0.00649597,0.219186,20.825,490.815,1.88802,0.0,0.0
340,84.75,39.2381,42.5279,168.392,98.5447,80.5055,0.00628551,0.215819,20.8294,490.805,1.78699,0.0,0.0
342,85.25,39.1941,42.3295,166.357,98.5463,78.8684,0.00608636,0.212605,20.8331,490.775,1.96872,0.0,0.0
344,85.75,39.0723,42.0639,171.272,98.5374,78.8813,0.00589923,0.209565,20.8378,490.765,1.96647,0.0,0.0
346,86.25,38.9909,41.7999,164.832,98.5281,80.0569,0.00574766,0.206451,20.8416,490.785,1.83489,0.0,0.0
348,86.75,39.1732,42.4751,165.835,98.5321,81.3878,0.00555441,0.20334,20.8456,490.775,1.68953,0.0,0.0
350,87.25,38.5925,41.4336,170.836,98.5301,82.2441,0.00539788,0.20082,20.8497,490.715,1.59684,0.0,0.0
352,87.75,39.0723,42.3061,164.871,98.511,81.5825,0.00520444,0.197908,20.8546,490.715,1.66652,0.0,0.0
354,88.25,38.8629,42.075,167.412,98.5118,83.8784,0.00504776,0.194765,20.8601,490.695,1.42129,0.0,0.0
356,88.75,39.2154,42.2111,170.751,98.5086,85.3736,0.00485678,0.191314,20.8664,490.705,1.26484,0.0,0.0
358,89.25,38.8,41.3611,169.162,98.4936,85.0892,0.00470209,0.187705,20.8732,490.675,1.29298,0.0,0.0
360,89.75,38.3545,41.2066,167.552,98.5021,85.8547,0.00452144,0.184781,20.8801,490.715,1.21459,0.0,0.0
362,90.25,38.8358,41.3506,167.538,98.4981,86.4903,0.00437511,0.180473,20.8869,490.705,1.14903,0.0,0.0
364,90.75,38.0699,41.5832,171.514,98.4895,88.5513,0.00425658,0.176984,20.8925,490.645,0.940123,0.0,0.0
366,91.25,38.1396,41.4296,174.017,98.4972,88.4008,0.00403031,0.172358,20.9027,490.585,0.955848,0.0,0.0
368,91.75,37.9341,40.7545,162.087,98.4912,88.6231,0.00396944,0.168611,20.9054,490.555,0.933106,0.0,0.0
370,92.25,38.1425,41.1737,166.875,98.4883,89.709,0.0038347,0.163658,20.9118,490.575,0.825214,0.0,0.0
372,92.75,37.598,40.4788,171.813,98.4956,90.4412,0.00372555,0.159646,20.9184,490.515,0.754025,0.0,0.0
374,93.25,37.783,41.0502,169.034,98.4952,91.2695,0.00361998,0.155304,20.9237,490.545,0.673411,0.0,0.0
376,93.75,37.2294,40.2272,168.086,98.4948,92.1696,0.00353447,0.150803,20.9294,490.645,0.586636,0.0,0.0
378,94.25,37.6491,40.5342,171.942,98.4964,91.9753,0.00346521,0.144767,20.9353,490.585,0.605433,0.0,0.0
380,94.75,36.7297,39.5545,164.196,98.4968,91.45,0.00340665,0.142616,20.941,490.625,0.656093,0.0,0.0
382,95.25,37.1456,40.2255,170.678,98.5098,92.1254,0.00335922,0.138938,20.9463,490.615,0.592223,0.0,0.0
384,95.75,37.0896,40.387,170.42,98.5086,92.4308,0.00332403,0.13481,20.9506,490.545,0.562859,0.0,0.0
386,96.25,37.173,39.821,176.869,98.5058,92.5777,0.00329843,0.131467,20.9559,490.535,0.548574,0.0,0.0
388,96.75,36.8233,39.8996,170.902,98.5114,92.7525,0.00327769,0.128759,20.9602,490.635,0.532408,0.0,0.0
390,97.25,36.304,39.5263,175.202,98.5135,93.3253,0.00327438,0.125773,20.9643,490.495,0.47818,0.0,0.0
392,97.75,35.7736,38.6858,166.4,98.5248,92.7416,0.00327169,0.12264,20.9683,490.595,0.534652,0.0,0.0
394,98.25,36.2547,39.4026,169.153,98.5281,93.2279,0.00326952,0.119576,20.9716,490.605,0.488714,0.0,0.0
396,98.75,35.7841,39.3133,171.609,98.5333,92.8401,0.00327757,0.116619,20.9756,490.615,0.526028,0.0,0.0
398,99.25,35.4374,38.2924,175.273,98.5333,93.0803,0.00328408,0.114225,20.9801,490.595,0.503196,0.0,0.0
400,99.75,35.7438,38.7024,172.786,98.55,92.9379,0.00329795,0.110857,20.9847,490.595,0.518217,0.0,0.0
402,100.25,35.5198,38.0256,173.657,98.5569,93.3054,0.00330918,0.10813,20.9893,490.575,0.483955,0.0,0.0
404,100.75,35.6355,38.5347,169.196,98.5536,93.0296,0.00331705,0.105121,20.9941,490.585,0.50983,0.0,0.0
406,101.25,35.0625,38.0229,172.231,98.5707,93.9581,0.00332343,0.101964,20.9991,490.555,0.423582,0.0,0.0
408,101.75,34.8302,37.6569,173.55,98.5747,93.7735,0.00331388,0.0994064,21.0043,490.545,0.441325,0.0,0.0
410,102.25,33.9982,37.1078,174.148,98.5873,92.0479,0.00330614,0.0959451,21.0096,490.555,0.606608,0.0,0.0
412,102.75,33.9522,36.9203,170.586,98.5986,92.602,0.00327903,0.0931413,21.0145,490.595,0.554581,0.0,0.0
414,103.25,34.1157,37.0505,170.453,98.6027,93.0957,0.00325708,0.0899369,21.0192,490.575,0.507951,0.0,0.0
416,103.75,33.8429,36.6739,175.115,98.6173,92.8831,0.00322214,0.0873414,21.0234,490.555,0.529463,0.0,0.0
418,104.25,33.9069,36.6259,177.702,98.621,94.259,0.00319384,0.0844992,21.0273,490.535,0.399823,0.0,0.0
420,104.75,33.8143,36.0795,169.441,98.6412,93.5167,0.00317092,0.082197,21.0304,490.515,0.471521,0.0,0.0
422,105.25,32.9369,36.1184,173.958,98.6611,94.6537,0.00315358,0.080073,21.0332,490.525,0.36649,0.0,0.0
424,105.75,33.1283,36.4749,169.669,98.6688,94.3357,0.00313953,0.0781192,21.0356,490.575,0.396927,0.0,0.0
426,106.25,32.848,35.2903,170.043,98.6786,94.4655,0.0031404,0.0763353,21.0378,490.585,0.385644,0.0,0.0
428,106.75,32.8832,35.5047,169.972,98.7005,94.3974,0.00314111,0.074709,21.0398,490.575,0.393985,0.0,0.0
430,107.25,32.8003,36.4138,177.201,98.7207,94.4817,0.00314749,0.0732479,21.0414,490.585,0.387904,0.0,0.0
432,107.75,32.7213,35.3192,176.661,98.7187,95.2135,0.00315788,0.0719351,21.0432,490.525,0.319533,0.0,0.0
434,108.25,31.8881,35.4359,173.243,98.756,94.8983,0.00316694,0.0708716,21.0446,490.585,0.352179,0.0,0.0
436,108.75,32.4815,35.0665,172.981,98.7755,95.0285,0.00317486,0.0697509,21.0462,490.615,0.341802,0.0,0.0
438,109.25,32.0579,35.1837,177.601,98.7755,94.8184,0.00318128,0.0688431,21.0475,490.565,0.361366,0.0,0.0
440,109.75,31.9197,34.8544,177.743,98.7921,94.7206,0.00318157,0.0679857,21.049,490.565,0.371972,0.0,0.0
442,110.25,31.4272,33.919,174.051,98.8221,94.1158,0.00318181,0.0671814,21.0502,490.545,0.431273,0.0,0.0
444,110.75,30.829,33.4645,170.695,98.8254,94.6906,0.00318078,0.0665299,21.0512,490.555,0.377748,0.0,0.0
446,111.25,31.8345,34.3253,173.503,98.8591,94.5588,0.00317994,0.0658112,21.052,490.585,0.393073,0.0,0.0
448,111.75,31.3838,34.1241,164.356,98.8736,94.8383,0.00317733,0.0652291,21.0526,490.575,0.368293,0.0,0.0
450,112.25,31.106,34.4409,172.127,98.8862,94.7851,0.00317347,0.0646213,21.0536,490.585,0.374371,0.0,0.0
452,112.75,31.3313,33.6257,171.718,98.8996,94.7332,0.00316648,0.0641289,21.0544,490.605,0.380409,0.0,0.0
454,113.25,31.3594,33.8005,177.488,98.926,95.0853,0.00315733,0.063553,21.055,490.615,0.349977,0.0,0.0
456,113.75,31.2774,33.8787,176.168,98.9414,94.6436,0.00314476,0.0630864,21.0555,490.585,0.392509,0.0,0.0
458,114.25,30.2173,33.1686,173.792,98.9641,94.9872,0.00312994,0.0626153,21.0564,490.575,0.362511,0.0,0.0
460,114.75,30.0287,32.6452,173.783,98.9828,94.5795,0.00310891,0.0621498,21.0571,490.575,0.402193,0.0,0.0
462,115.25,30.5572,33.671,175.911,98.9994,95.0297,0.00308376,0.0617728,21.0576,490.585,0.3617,0.0,0.0
464,115.75,30.7724,33.5891,177.277,99.016,95.3689,0.00306338,0.0613176,21.0581,490.565,0.331701,0.0,0.0
466,116.25,30.2838,33.2756,176.591,99.0391,94.9162,0.00302363,0.0609489,21.0584,490.585,0.375819,0.0,0.0
468,116.75,30.3081,33.2459,174.76,99.0562,94.6614,0.00299142,0.0605277,21.0587,490.575,0.401091,0.0,0.0
470,117.25,30.2985,33.067,162.198,99.0825,95.2435,0.00296534,0.0601865,21.059,490.525,0.349262,0.0,0.0
472,117.75,29.9263,32.6433,172.274,99.087,94.9717,0.0029204,0.0598013,21.0592,490.525,0.374916,0.0,0.0
474,118.25,29.1277,31.8348,172.281,99.1113,95.4755,0.00286257,0.0594892,21.0594,490.555,0.330325,0.0,0.0
476,118.75,29.2391,31.9071,177.802,99.132,95.3161,0.00281572,0.0591548,21.0596,490.525,0.346939,0.0,0.0
478,119.25,29.3114,32.4767,176.161,99.1503,95.2768,0.00276299,0.058884,21.0597,490.525,0.352215,0.0,0.0
480,119.75,29.3215,31.9695,171.458,99.1604,95.4378,0.00270697,0.0586646,21.0599,490.535,0.338193,0.0,0.0
482,120.25,28.6197,31.3881,175.779,99.2136,95.5311,0.00264875,0.0584797,21.06,490.555,0.334292,0.0,0.0
484,120.75,28.4661,31.4387,172.661,99.2192,95.5104,0.00259002,0.0583235,21.06,490.555,0.336711,0.0,0.0
486,121.25,29.3723,31.3124,174.837,99.2383,96.0305,0.00252897,0.058197,21.0601,490.565,0.290417,0.0,0.0
488,121.75,29.4225,31.9308,175.941,99.2501,94.9717,0.00246738,0.0579721,21.0606,490.565,0.389448,0.0,0.0
490,122.25,28.8063,31.5381,169.133,99.2882,95.6731,0.00240659,0.0577899,21.061,490.585,0.327812,0.0,0.0
492,122.75,28.9143,31.3369,173.277,99.2955,96.0065,0.00234753,0.0575707,21.0613,490.565,0.297712,0.0,0.0
494,123.25,29.251,31.5333,172.464,99.3235,95.6634,0.00228751,0.0573288,21.0617,490.555,0.331853,0.0,0.0
496,123.75,28.6644,31.2062,173.277,99.3369,95.813,0.00222793,0.0571041,21.0618,490.535,0.319226,0.0,0.0
498,124.25,28.7331,31.4232,172.687,99.364,95.291,0.00216621,0.0568964,21.062,490.495,0.369933,0.0,0.0
500,124.75,28.7344,30.8213,173.411,99.3794,94.9876,0.00210411,0.0566924,21.0626,490.505,0.39949,0.0,0.0
502,125.25,28.589,30.5906,177.372,99.4062,95.721,0.00205381,0.056495,21.063,490.435,0.333892,0.0,0.0
504,125.75,27.5571,30.591,174.551,99.4464,95.6268,0.00197656,0.0562778,21.0634,490.445,0.346156,0.0,0.0
506,126.25,28.5704,30.8813,179.048,99.4577,95.2881,0.001914,0.0559534,21.0637,490.485,0.378526,0.0,0.0
508,126.75,27.9144,29.9789,175.054,99.4861,94.9373,0.00184861,0.0558303,21.064,490.485,0.413654,0.0,0.0
510,127.25,28.2438,30.5118,170.574,99.4914,95.9278,0.0017824,0.0556199,21.0642,490.495,0.322382,0.0,0.0
512,127.75,27.6458,30.6373,175.568,99.5133,95.9031,0.00172366,0.0554495,21.0643,490.475,0.326607,0.0,0.0
514,128.25,28.1779,30.4626,174.224,99.5458,95.607,0.00167147,0.0552299,21.0647,490.465,0.356821,0.0,0.0
516,128.75,27.395,30.5315,171.228,99.5502,95.2719,0.0016292,0.0550521,21.0652,490.485,0.388245,0.0,0.0
518,129.25,27.7189,29.7492,172.739,99.5701,95.1364,0.00159739,0.0548723,21.0656,490.435,0.402587,0.0,0.0
520,129.75,27.8465,30.0208,171.704,99.5802,95.5814,0.00157162,0.0546944,21.066,490.435,0.362244,0.0,0.0
522,130.25,27.5607,30.006,175.679,99.6102,95.4942,0.00155197,0.0545003,21.0662,490.455,0.372976,0.0,0.0
524,130.75,27.9722,29.8939,162.435,99.6309,95.6905,0.00153605,0.054298,21.0664,490.445,0.356659,0.0,0.0
526,131.25,27.0521,29.7465,171.739,99.6573,95.8572,0.00152923,0.0541342,21.0668,490.445,0.343612,0.0,0.0
528,131.75,27.6441,29.6385,179.506,99.6759,95.7968,0.0015237,0.0538656,21.0674,490.395,0.350841,0.0,0.0
530,132.25,27.2816,29.8537,176.314,99.7048,95.5907,0.0015269,0.0536481,21.0678,490.445,0.372426,0.0,0.0
532,132.75,27.3961,29.8613,173.164,99.7295,96.2815,0.0015364,0.0533904,21.0682,490.465,0.310978,0.0,0.0
534,133.25,27.0888,29.3187,172.942,99.7518,96.3813,0.00155497,0.0531817,21.0685,490.435,0.303799,0.0,0.0
536,133.75,26.6456,29.6025,175.212,99.7656,95.5165,0.00157981,0.0529719,21.0687,490.455,0.384684,0.0,0.0
538,134.25,27.0814,29.0798,172.975,99.7984,96.084,0.00161401,0.052802,21.0689,490.425,0.335239,0.0,0.0
540,134.75,26.7565,29.5704,177.093,99.8171,95.549,0.00165439,0.0526358,21.0695,490.445,0.386244,0.0,0.0
542,135.25,26.7062,28.3324,173.751,99.8398,95.9197,0.00170248,0.0524754,21.07,490.455,0.354028,0.0,0.0
544,135.75,26.5769,28.9146,172.256,99.856,96.5371,0.00175527,0.0523455,21.0704,490.445,0.298757,0.0,0.0
546,136.25,26.3072,28.9719,171.329,99.8865,95.5307,0.00180637,0.0521995,21.0707,490.495,0.394072,0.0,0.0
548,136.75,26.1866,28.6847,175.613,99.9145,95.74,0.00185526,0.0520456,21.0709,490.415,0.377205,0.0,0.0
550,137.25,26.5095,28.4173,175.398,99.9238,96.1481,0.00189486,0.0518888,21.0711,490.415,0.340439,0.0,0.0
552,137.75,26.4864,28.6304,175.535,99.9465,96.7999,0.00192501,0.0517617,21.0715,490.435,0.282727,0.0,0.0
554,138.25,26.2085,28.6659,173.878,99.9749,96.3217,0.00194771,0.0516588,21.0721,490.505,0.329013,0.0,0.0
556,138.75,26.0503,28.3562,173.224,99.9939,96.6077,0.00196609,0.0515755,21.0725,490.515,0.304496,0.0,0.0
558,139.25,25.8594,28.3161,175.723,100.019,96.8807,0.00193227,0.0515215,21.0729,490.475,0.281742,0.0,0.0
560,139.75,25.3798,28.4094,170.07,100.039,96.4243,0.00190488,0.0514778,21.0729,490.455,0.325265,0.0,0.0
562,140.25,26.1009,28.2968,176.244,100.063,96.361,0.0018827,0.0514017,21.0728,490.435,0.333181,0.0,0.0
564,140.75,26.3073,27.6285,176.64,100.082,96.3107,0.00180272,0.0513401,21.073,490.375,0.339516,0.0,0.0
566,141.25,25.4234,28.0181,170.188,100.101,95.9773,0.00173794,0.0512401,21.0736,490.375,0.371779,0.0,0.0
568,141.75,25.3144,27.9244,173.878,100.128,96.3493,0.00165512,0.0511142,21.0741,490.395,0.339991,0.0,0.0
570,142.25,25.7106,28.2429,177.398,100.134,96.5639,0.00158803,0.0510122,21.0744,490.345,0.320866,0.0,0.0
572,142.75,25.7483,27.8622,169.289,100.168,96.297,0.00152155,0.0509295,21.0747,490.375,0.348336,0.0,0.0
574,143.25,25.1882,28.1207,176.812,100.181,96.3866,0.0014677,0.0508055,21.075,490.395,0.341292,0.0,0.0
576,143.75,25.6346,27.8195,177.061,100.204,96.4284,0.00141924,0.0506536,21.0752,490.345,0.339466,0.0,0.0
578,144.25,25.2692,27.7454,169.71,100.214,96.9545,0.00137998,0.0505162,21.0753,490.345,0.292269,0.0,0.0
580,144.75,25.4436,27.6439,177.069,100.246,96.4596,0.00134332,0.0503921,21.0755,490.445,0.340288,0.0,0.0
582,145.25,25.3146,27.8163,175.422,100.249,96.3464,0.00131364,0.0502702,21.0756,490.445,0.350985,0.0,0.0
584,145.75,25.0925,27.5811,174.69,100.268,96.3395,0.00128959,0.0501521,21.0757,490.405,0.353263,0.0,0.0
586,146.25,24.365,26.2514,172.166,100.295,96.8567,0.00126283,0.0500023,21.0757,490.475,0.308266,0.0,0.0
588,146.75,24.2735,26.7973,178.054,100.301,96.273,0.00124116,0.0498809,21.0758,490.525,0.362263,0.0,0.0
590,147.25,24.8787,27.5152,174.905,100.32,96.7156,0.00122846,0.0497825,21.0758,490.465,0.323372,0.0,0.0
592,147.75,25.129,26.7787,172.313,100.335,96.2901,0.00121817,0.0497029,21.0759,490.395,0.363666,0.0,0.0
594,148.25,24.9923,26.9178,176.357,100.34,96.6665,0.00121711,0.0496241,21.0759,490.475,0.329646,0.0,0.0
596,148.75,25.1599,27.0144,174.554,100.361,97.0973,0.00121625,0.0495474,21.0759,490.465,0.292239,0.0,0.0
598,149.25,24.5608,26.7358,174.084,100.37,96.1404,0.00122131,0.0494853,21.076,490.445,0.380524,0.0,0.0
600,149.75,24.847,26.6116,169.334,100.389,96.6332,0.00123058,0.0493808,21.076,490.415,0.337045,0.0,0.0
602,150.25,23.6653,26.0309,170.962,100.385,96.2564,0.00124127,0.0492961,21.076,490.415,0.371222,0.0,0.0
604,150.75,23.8217,26.4159,169.439,100.419,96.8945,0.00125282,0.0491868,21.076,490.355,0.315826,0.0,0.0
606,151.25,24.6548,26.7693,176.414,100.423,96.4925,0.00125833,0.0490982,21.076,490.365,0.352892,0.0,0.0
608,151.75,23.8674,26.6152,173.651,100.434,96.5614,0.00125935,0.0490551,21.076,490.385,0.347577,0.0,0.0
610,152.25,24.2391,26.3997,173.671,100.438,96.6876,0.00126018,0.0490458,21.076,490.375,0.336324,0.0,0.0
612,152.75,24.2727,26.4363,168.056,100.463,96.6742,0.00123052,0.0490098,21.076,490.385,0.339759,0.0,0.0
614,153.25,24.5218,26.3171,178.591,100.462,96.4641,0.0012065,0.0489549,21.076,490.385,0.358883,0.0,0.0
616,153.75,24.3956,26.0961,179.469,100.464,96.4892,0.00117556,0.0489104,21.076,490.405,0.356758,0.0,0.0
618,154.25,23.8093,25.4766,178.987,100.481,97.3098,0.00114016,0.0488202,21.076,490.465,0.283479,0.0,0.0
620,154.75,24.1486,25.3978,172.638,100.518,96.8924,0.00110512,0.0487471,21.076,490.445,0.324647,0.0,0.0
622,155.25,23.9195,26.6776,173.206,100.494,96.8636,0.00107099,0.0486472,21.076,490.485,0.325205,0.0,0.0
624,155.75,23.9203,25.9413,180.732,100.522,97.0807,0.00103888,0.0485663,21.076,490.495,0.307886,0.0,0.0
626,156.25,24.405,25.6426,171.392,100.508,96.572,0.00100886,0.0485079,21.0765,490.475,0.353071,0.0,0.0
628,156.75,24.1286,25.6123,172.515,100.533,96.5306,0.000980721,0.048467,21.0768,490.435,0.359069,0.0,0.0
630,157.25,23.6762,24.8717,174.738,100.538,96.8202,0.000954485,0.0484267,21.0771,490.485,0.333054,0.0,0.0
632,157.75,23.2309,25.5853,171.78,100.533,96.1964,0.00093196,0.0483877,21.0774,490.485,0.389725,0.0,0.0
634,158.25,23.6822,25.8514,175.531,100.529,97.0076,0.000912567,0.0483133,21.0776,490.415,0.315107,0.0,0.0
636,158.75,23.6698,25.8286,173.454,100.542,96.6892,0.00089686,0.0482145,21.0777,490.465,0.345308,0.0,0.0
638,159.25,24.0326,25.1483,176.968,100.544,96.3533,0.000884136,0.0481273,21.0778,490.455,0.376241,0.0,0.0
640,159.75,24.0246,25.5206,176.816,100.544,97.1078,0.000891995,0.0480502,21.0779,490.415,0.307302,0.0,0.0
642,160.25,23.7142,25.461,171.9,100.536,96.7318,0.000898361,0.0479736,21.078,490.395,0.340916,0.0,0.0
644,160.75,23.4418,25.8664,175.199,100.549,97.0892,0.000910532,0.0478986,21.0781,490.435,0.309465,0.0,0.0
646,161.25,23.7403,25.1461,180.606,100.54,97.0466,0.000926703,0.0478379,21.0781,490.365,0.312593,0.0,0.0
648,161.75,23.4048,25.4614,174.357,100.547,96.6227,0.000939801,0.0477888,21.0782,490.435,0.35189,0.0,0.0
650,162.25,23.7513,24.967,176.937,100.534,96.8146,0.000949136,0.0477489,21.0782,490.455,0.33318,0.0,0.0
652,162.75,23.3812,25.4017,174.62,100.531,97.1293,0.000955549,0.0477167,21.078,490.415,0.304205,0.0,0.0
654,163.25,23.464,25.7197,177.232,100.534,97.1837,0.00095118,0.0477448,21.0776,490.435,0.299546,0.0,0.0
656,163.75,23.355,25.4299,174.248,100.546,96.8912,0.000939034,0.0477675,21.0773,490.475,0.327253,0.0,0.0
658,164.25,23.5723,24.9542,173.284,100.527,97.2758,0.000920911,0.0478131,21.0771,490.435,0.290534,0.0,0.0
660,164.75,22.8401,25.4457,167.003,100.523,96.4523,0.000898775,0.04785,21.0769,490.425,0.365348,0.0,0.0
662,165.25,23.5392,25.2305,174.756,100.518,97.1606,0.000874793,0.0478798,21.0767,490.315,0.300293,0.0,0.0
664,165.75,23.5475,24.7196,169.315,100.515,96.6052,0.000855367,0.0478826,21.0766,490.335,0.350669,0.0,0.0
666,166.25,23.309,25.1124,164.859,100.494,96.7038,0.000839632,0.0478656,21.0765,490.375,0.339765,0.0,0.0
668,166.75,23.2483,25.263,170.725,100.493,97.0121,0.000836571,0.047859,21.0764,490.435,0.311562,0.0,0.0
670,167.25,23.1742,24.466,174.381,100.476,97.1309,0.000834092,0.0478601,21.0763,490.365,0.299242,0.0,0.0
672,167.75,23.5528,24.9589,170.155,100.478,97.2956,0.000846615,0.0478609,21.0763,490.375,0.284483,0.0,0.0
674,168.25,23.39,24.9865,170.363,100.454,96.5651,0.000856758,0.0478616,21.0762,490.345,0.348956,0.0,0.0
676,168.75,23.3526,24.3589,173.494,100.453,96.5497,0.000872626,0.0478479,21.0762,490.375,0.350296,0.0,0.0
678,169.25,22.7792,24.2407,178.004,100.436,97.045,0.000892364,0.0478239,21.0762,490.375,0.303537,0.0,0.0
680,169.75,22.9373,24.6326,177.823,100.421,96.9042,0.000908989,0.0478045,21.0761,490.375,0.315046,0.0,0.0
682,170.25,22.674,24.1855,170.334,100.418,97.0924,0.00092303,0.047796,21.0761,490.385,0.297646,0.0,0.0
684,170.75,22.9178,24.4788,172.234,100.399,96.9366,0.000934403,0.0477954,21.0761,490.395,0.310194,0.0,0.0
686,171.25,22.6814,24.4556,171.9,100.407,96.5042,0.000933923,0.0477879,21.0761,490.455,0.350387,0.0,0.0
688,171.75,22.6327,24.265,179.697,100.376,96.9103,0.000933534,0.0477753,21.0761,490.495,0.310526,0.0,0.0
690,172.25,22.8714,23.9128,178.43,100.356,96.6868,0.000929585,0.0477652,21.0761,490.435,0.32922,0.0,0.0
692,172.75,22.9067,24.2366,177.28,100.342,96.9143,0.000926386,0.0477569,21.0761,490.435,0.307228,0.0,0.0
694,173.25,22.1089,24.9712,174.278,100.325,97.1662,0.000927621,0.0477503,21.0761,490.405,0.282749,0.0,0.0
696,173.75,23.2071,24.1486,173.56,100.312,96.9476,0.000932063,0.0477163,21.0761,490.405,0.301479,0.0,0.0
698,174.25,22.8694,24.2914,172.916,100.295,97.0084,0.000933957,0.0476631,21.0761,490.455,0.294505,0.0,0.0
700,174.75,23.3187,24.2962,177.533,100.286,96.5667,0.00094083,0.0476343,21.076,490.505,0.333986,0.0,0.0
702,175.25,22.5215,24.2039,176.347,100.264,96.5245,0.000946397,0.0476239,21.076,490.425,0.335952,0.0,0.0
704,175.75,22.6179,24.7214,175.701,100.263,96.101,0.000954542,0.0476011,21.076,490.475,0.374743,0.0,0.0
706,176.25,22.6372,24.3465,168.813,100.236,96.5124,0.00096114,0.0475698,21.076,490.465,0.334599,0.0,0.0
708,176.75,23.141,24.3378,171.362,100.206,96.4065,0.000971331,0.0475445,21.076,490.475,0.341653,0.0,0.0
710,177.25,22.734,23.7786,178.536,100.194,96.7914,0.000979586,0.0475194,21.076,490.435,0.305358,0.0,0.0
712,177.75,22.5504,24.1858,174.402,100.172,96.4077,0.000988696,0.0474765,21.0763,490.445,0.338536,0.0,0.0
714,178.25,21.888,23.9476,171.962,100.153,96.3911,0.000996075,0.0474061,21.0767,490.445,0.338414,0.0,0.0
716,178.75,22.1274,23.8224,177.735,100.142,96.8567,0.00100569,0.047317,21.0768,490.485,0.29478,0.0,0.0
718,179.25,22.2683,23.9208,176.137,100.13,96.9663,0.00101347,0.0472377,21.0766,490.465,0.283754,0.0,0.0
720,179.75,22.7337,23.7919,164.397,100.11,96.7894,0.00101978,0.047167,21.0765,490.465,0.298098,0.0,0.0
722,180.25,22.475,23.9927,172.291,100.093,96.7456,0.00102965,0.0471027,21.0767,490.485,0.300596,0.0,0.0
724,180.75,22.0386,23.3016,175.289,100.078,96.3302,0.00103765,0.0470441,21.077,490.475,0.337298,0.0,0.0
726,181.25,21.9204,23.8998,175.602,100.065,96.4008,0.00104285,0.0469425,21.0772,490.425,0.329751,0.0,0.0
728,181.75,22.2445,24.0814,175.363,100.038,96.3452,0.00104591,0.0468602,21.0776,490.405,0.332446,0.0,0.0
730,182.25,21.8161,22.9819,173.232,100.029,96.5622,0.00105286,0.0467796,21.0779,490.365,0.311773,0.0,0.0
732,182.75,21.5045,23.0576,175.634,100.002,96.1805,0.00106251,0.0467018,21.0782,490.325,0.344377,0.0,0.0
734,183.25,21.9525,23.7325,173.878,99.9879,96.6093,0.00107607,0.0466389,21.0784,490.355,0.303809,0.0,0.0
736,183.75,22.0795,23.7716,173.854,99.9627,96.7111,0.00109222,0.0465472,21.0785,490.395,0.292277,0.0,0.0
738,184.25,22.3226,23.9358,172.337,99.9574,96.4178,0.0011053,0.046473,21.0787,490.365,0.318654,0.0,0.0
740,184.75,22.2408,23.0726,175.94,99.9331,96.116,0.00110824,0.0464057,21.0788,490.275,0.344209,0.0,0.0
742,185.25,21.8483,22.6438,180.695,99.9291,96.7002,0.00110373,0.0463448,21.0788,490.405,0.290301,0.0,0.0
744,185.75,21.3656,23.2074,174.069,99.8982,96.5456,0.00108732,0.0462812,21.0789,490.395,0.301711,0.0,0.0
746,186.25,22.1737,23.4894,164.054,99.8913,96.5602,0.00106254,0.0462168,21.0789,490.425,0.299764,0.0,0.0
748,186.75,21.9153,23.3568,174.768,99.8678,97.0628,0.00104248,0.0461647,21.0789,490.395,0.2518,0.0,0.0
750,187.25,21.7751,23.5146,176.569,99.8654,95.9919,0.00101092,0.0461225,21.0789,490.425,0.349638,0.0,0.0
752,187.75,21.8644,23.0504,179.88,99.8289,96.8137,0.000971597,0.0460883,21.079,490.415,0.271061,0.0,0.0
754,188.25,21.9615,23.0264,172.504,99.8341,96.2523,0.000939107,0.0460606,21.079,490.465,0.322928,0.0,0.0
756,188.75,21.9978,23.1141,176.181,99.8053,96.4166,0.000912216,0.0460517,21.079,490.445,0.305306,0.0,0.0
758,189.25,20.5516,22.4387,172.842,99.826,96.2507,0.000890435,0.0460445,21.079,490.415,0.322359,0.0,0.0
760,189.75,21.3801,22.5101,171.682,99.7782,96.2605,0.000888619,0.0460387,21.079,490.375,0.317227,0.0,0.0
762,190.25,21.9471,22.8412,175.027,99.7851,96.7858,0.000887148,0.046034,21.079,490.385,0.269737,0.0,0.0
764,190.75,21.9787,23.219,176.407,99.7652,96.0041,0.000887168,0.0460444,21.0787,490.405,0.339646,0.0,0.0
766,191.25,21.5056,22.9401,172.825,99.7623,96.5764,0.000887184,0.0460657,21.0781,490.395,0.286859,0.0,0.0
768,191.75,21.7788,22.493,173.908,99.7453,96.6061,0.000869995,0.0460687,21.0777,490.345,0.28264,0.0,0.0
770,192.25,21.9764,22.9521,174.584,99.7364,96.4673,0.00084059,0.0460582,21.0778,490.375,0.294551,0.0,0.0
772,192.75,21.439,22.7782,173.368,99.7457,96.0345,0.000800857,0.0460498,21.0779,490.375,0.335121,0.0,0.0
774,193.25,20.9181,22.3223,174.648,99.798,97.034,0.000754351,0.0460016,21.0779,490.425,0.248245,0.0,0.0
776,193.75,20.5236,22.2611,179.49,99.8341,96.3919,0.000716682,0.0459626,21.078,490.365,0.310124,0.0,0.0
778,194.25,21.3963,22.9504,181.315,99.8642,96.196,0.000687442,0.0459381,21.078,490.335,0.330764,0.0,0.0
780,194.75,21.6221,23.1547,179.599,99.9055,96.23,0.000664903,0.0459246,21.078,490.265,0.331295,0.0,0.0
782,195.25,21.6273,23.1508,174.832,99.9388,96.9675,0.000655557,0.0459138,21.0781,490.325,0.266763,0.0,0.0
784,195.75,21.9769,22.9617,178.159,99.966,96.6422,0.000656007,0.0458643,21.0781,490.335,0.298868,0.0,0.0
786,196.25,21.6988,22.4116,179.91,99.9968,97.0527,0.000656371,0.0458243,21.0781,490.305,0.26413,0.0,0.0
788,196.75,20.8688,22.7564,174.376,100.022,96.6028,0.000663924,0.0457918,21.0781,490.375,0.30738,0.0,0.0
790,197.25,21.5326,22.6448,178.085,100.059,97.4189,0.000670042,0.0457656,21.0781,490.345,0.236319,0.0,0.0
792,197.75,21.1095,22.6806,170.372,100.065,96.89,0.000670159,0.0457443,21.0781,490.435,0.285013,0.0,0.0
794,198.25,21.3714,22.1434,175.66,100.095,96.9091,0.000667707,0.045727,21.0781,490.445,0.285852,0.0,0.0
796,198.75,21.1692,22.53,173.38,100.12,96.2507,0.000663429,0.0457131,21.0786,490.425,0.348357,0.0,0.0
798,199.25,21.1057,22.8265,169.108,100.155,96.4945,0.000665057,0.0456747,21.0789,490.435,0.329113,0.0,0.0
800,199.75,21.0427,22.16,171.63,100.16,96.531,0.00067096,0.0456436,21.0792,490.405,0.326164,0.0,0.0
802,200.25,21.2514,22.7951,171.471,100.195,96.4872,0.000675741,0.0456184,21.0795,490.435,0.33329,0.0,0.0
804,200.75,21.5172,22.5554,174.093,100.206,96.802,0.000697452,0.045598,21.0797,490.455,0.305434,0.0,0.0
806,201.25,21.5235,22.3181,177.312,100.226,96.2901,0.000731092,0.0455814,21.0798,490.425,0.354085,0.0,0.0
808,201.75,21.3843,22.8295,170.478,100.237,97.0859,0.00075834,0.045568,21.08,490.425,0.282335,0.0,0.0
810,202.25,21.601,22.3608,175.006,100.267,96.8239,0.000789973,0.0455707,21.0801,490.425,0.308797,0.0,0.0
812,202.75,21.5507,22.4466,172.394,100.263,96.0219,0.000824203,0.0455729,21.0801,490.415,0.381985,0.0,0.0
814,203.25,21.4016,22.4973,176.081,100.292,96.759,0.0008592,0.0455961,21.0802,490.415,0.317012,0.0,0.0
816,203.75,21.38,22.3865,178.207,100.285,96.6409,0.000887548,0.0456341,21.0803,490.385,0.327158,0.0,0.0
818,204.25,21.2417,22.4542,170.165,100.299,96.2264,0.000910509,0.0456649,21.0803,490.395,0.366405,0.0,0.0
820,204.75,21.1183,22.3324,174.108,100.294,97.5536,0.000929108,0.0456221,21.0803,490.355,0.244829,0.0,0.0
822,205.25,21.5728,21.9952,172.83,100.303,97.051,0.000944173,0.0455874,21.0801,490.425,0.291268,0.0,0.0
824,205.75,21.5938,22.5881,179.233,100.305,96.7488,0.000956376,0.0455522,21.0798,490.415,0.31901,0.0,0.0
826,206.25,21.3205,22.3347,176.892,100.318,96.965,0.000974744,0.0455173,21.0795,490.435,0.300461,0.0,0.0
828,206.75,21.3528,22.314,168.946,100.306,96.5874,0.000989621,0.0454747,21.0792,490.475,0.333915,0.0,0.0
830,207.25,21.1995,22.1411,177.784,100.316,96.3619,0.00100167,0.0454274,21.079,490.425,0.35547,0.0,0.0
832,207.75,21.3025,22.2365,177.648,100.304,96.3586,0.00101143,0.0454105,21.0789,490.455,0.35466,0.0,0.0
834,208.25,21.056,22.031,172.6,100.307,96.9926,0.00104117,0.0454161,21.0787,490.455,0.296947,0.0,0.0
836,208.75,21.2377,22.3125,169.699,100.291,96.716,0.00106525,0.0454491,21.0787,490.455,0.320833,0.0,0.0
838,209.25,21.1345,22.5286,174.741,100.293,96.8916,0.00108839,0.0455015,21.0786,490.425,0.304976,0.0,0.0
840,209.75,20.681,22.3616,174.103,100.286,96.8356,0.00110714,0.0455439,21.0786,490.455,0.309404,0.0,0.0
842,210.25,21.2314,22.5663,177.469,100.281,96.9638,0.00112871,0.0455783,21.0785,490.365,0.29732,0.0,0.0
844,210.75,21.1739,22.2245,175.975,100.262,96.5201,0.00115193,0.0456197,21.0785,490.365,0.336182,0.0,0.0
846,211.25,21.2729,22.4036,175.902,100.263,97.2733,,0.0456532,,490.365,0.267544,0.0,0.0
848,211.75,20.5671,22.2403,177.443,100.23,97.2137,,0.0456518,,490.395,0.270102,0.0,0.0
850,212.25,20.852,22.2101,175.437,100.22,97.3151,,0.0456251,,490.405,0.259957,0.0,0.0
852,212.75,20.6623,22.2945,176.503,100.209,97.2088,,0.0455606,,490.395,0.268613,0.0,0.0
854,213.25,20.9888,21.749,177.617,100.196,96.9224,,0.0454699,,490.355,0.293581,0.0,0.0
856,213.75,21.3475,22.0318,178.786,100.166,97.1374,,0.0453964,,490.365,0.27135,0.0,0.0
858,214.25,21.0455,22.1083,175.56,100.146,97.4871,,,,490.325,0.237802,0.0,0.0
860,214.75,20.9777,22.0951,176.686,100.118,97.3459,,,,490.315,0.248211,0.0,0.0
862,215.25,21.109,22.1945,175.841,100.1,97.0251,,,,490.285,0.275779,0.0,0.0
864,215.75,20.4709,21.7266,171.475,100.074,96.6649,,,,490.355,0.306361,0.0,0.0
866,216.25,21.0259,22.2462,175.35,100.047,96.7922,,,,490.345,0.292287,0.0,0.0
868,216.75,20.9726,22.4243,173.41,100.026,96.6008,,,,490.355,0.307923,0.0,0.0
870,217.25,20.7199,21.5742,172.672,99.9846,95.7189,,,,490.365,0.385358,0.0,0.0
872,217.75,20.5964,22.1576,176.074,99.9623,96.92,,,,490.425,0.273171,0.0,0.0
874,218.25,20.8679,22.2835,173.179,99.9315,96.1282,,,,490.425,0.342948,0.0,0.0
876,218.75,20.7194,22.0247,177.933,99.8934,96.6328,,,,490.365,0.2933,0.0,0.0
878,219.25,20.412,21.0828,175.568,99.8491,96.3777,,,,490.365,0.312755,0.0,0.0
880,219.75,19.7296,21.718,173.977,99.8248,96.3752,,,,490.385,0.310824,0.0,0.0
882,220.25,21.056,22.1537,174.359,99.7863,96.6507,,,,490.365,0.282188,0.0,0.0
884,220.75,20.9875,21.9338,169.392,99.7449,96.0913,,,,490.355,0.329824,0.0,0.0
886,221.25,20.5624,21.9314,178.112,99.7031,96.2641,,,,490.365,0.310242,0.0,0.0
888,221.75,20.7207,21.5174,172.519,99.6597,96.5188,,,,490.345,0.283036,0.0,0.0
889,222,20.7805,21.8481,173.039,99.6342,96.4259,,,,490.355,0.289279,0.0,0.0