File: 01_Data/Vinyl_Plank_Flooring/Cone/Vinyl_Plank_Flooring_Cone_HF75Scan_220311_R2.csv
Names,Time,Stack TC,Smoke TC,Exh Press,Smoke Comp,Smoke Meas,CO Meter,CO2 Meter,O2 Meter,Sample Mass,Ext Coeff,Start Test,Flame Verif
Chan Gain,,500,500,1,1,1,1,1,1,1,1,1.0,1.0
Offset,,0,0,0.136191,0,0,0,0,0,0,0,0.0,0.0
Gain,,1,1,25.011,13.291,13.2919,1,1,1,1.00093,1.00758,1.0,1.0
Units,sec,C,C,Pa,%,%,%,%,%,g,/m,,
Baseline,,41.2882,42.9776,160.365,99.0911,93.67,0.000473103,0.0405177,21.0891,-3.79523,0.497351,,
2,0.25,37.0511,38.663,156.182,100.755,95.2342,0.000754702,0.0405663,21.0902,497.401,0.498058,0.0,0.0
4,0.75,37.631,38.7933,157.511,100.729,96.7574,0.00103754,0.0405585,21.0911,497.381,0.355574,0.0,0.0
6,1.25,37.4716,38.9983,163.726,100.744,95.1604,0.00223541,0.0405521,21.0919,497.351,0.503952,0.0,0.0
8,1.75,37.8467,39.2118,166.191,100.732,95.3644,0.00320496,0.0407769,21.0916,497.351,0.483954,0.0,0.0
10,2.25,37.1925,39.08,160.917,100.731,95.7372,0.0048629,0.040959,21.091,497.361,0.449436,0.0,0.0
12,2.75,37.7035,39.1565,154.982,100.712,94.6233,0.0103559,0.0447989,21.0842,497.321,0.551163,0.0,0.0
14,3.25,37.9476,38.6652,161.621,100.733,94.5389,0.0148053,0.0479093,21.073,497.151,0.560934,0.0,1.0
16,3.75,37.7001,38.9577,158.372,100.709,92.4479,0.0233316,0.0625092,21.033,497.241,0.756485,0.0,1.0
18,4.25,37.7413,39.3731,148.674,100.721,84.0366,0.030238,0.0852077,20.973,497.311,1.60064,0.0,1.0
20,4.75,37.8009,39.5623,138.106,100.707,63.5807,0.0358321,0.0948844,20.9243,496.921,4.06483,0.0,1.0
22,5.25,37.9632,39.3084,125.536,100.713,47.8664,0.0470394,0.152878,20.7734,496.38,6.57453,0.0,1.0
24,5.75,38.3826,39.9971,116.942,100.693,38.7951,0.0561172,0.199853,20.6512,496.16,8.42993,0.0,1.0
26,6.25,39.525,41.2048,107.883,100.695,36.0684,0.0662496,0.2743,20.5221,495.77,9.07422,0.0,1.0
28,6.75,41.0667,42.404,116.349,100.681,28.4757,0.0744568,0.334602,20.3904,495.479,11.1621,0.0,1.0
30,7.25,42.5083,43.5797,124.819,100.679,22.2751,0.0812936,0.395943,20.2779,495.309,13.3325,0.0,1.0
32,7.75,43.581,43.8156,131.135,100.661,15.918,0.0870015,0.456874,20.1815,495.009,16.3007,0.0,0.0
34,8.25,44.4864,45.4164,128.937,100.66,8.62992,0.0911558,0.506229,20.1034,494.789,21.7116,0.0,0.0
36,8.75,45.3449,46.929,129.849,100.642,9.63752,0.0940987,0.551107,20.037,494.609,20.734,0.0,0.0
38,9.25,46.1824,47.7448,123.684,100.647,11.9793,0.0958027,0.591871,19.9832,494.378,18.812,0.0,0.0
40,9.75,47.1469,48.6032,131.643,100.634,16.7715,0.0965713,0.627315,19.937,494.228,15.8368,0.0,0.0
42,10.25,48.0057,49.5795,125.158,100.62,17.7243,0.0966188,0.658207,19.8996,494.068,15.3471,0.0,0.0
44,10.75,48.4274,50.5873,126.117,100.597,21.2379,0.0961397,0.685425,19.8662,493.938,13.7466,0.0,0.0
46,11.25,49.5185,51.3846,124,100.601,23.0925,0.0957516,0.709449,19.8391,493.728,13.0071,0.0,0.0
48,11.75,50.5501,52.5669,125.716,100.578,26.1141,0.0949961,0.731642,19.8172,493.598,11.9182,0.0,0.0
50,12.25,51.4318,53.1968,118.421,100.589,27.1854,0.093987,0.752079,19.795,493.378,11.5638,0.0,0.0
52,12.75,52.0593,54.6448,123.749,100.563,25.9867,0.0930999,0.772107,19.777,493.237,11.9601,0.0,0.0
54,13.25,52.9556,55.2039,123.157,100.551,26.5652,0.0923186,0.791456,19.7527,493.067,11.7645,0.0,0.0
56,13.75,53.8301,56.419,119.908,100.534,27.7099,0.0916858,0.80713,19.733,492.877,11.3901,0.0,0.0
58,14.25,54.4419,57.2862,123.746,100.514,28.2911,0.0912173,0.8292,19.7114,492.737,11.2048,0.0,0.0
60,14.75,56.0002,58.6349,115.526,100.506,29.188,0.0908378,0.847078,19.6889,492.557,10.9283,0.0,0.0
62,15.25,55.9855,59.4292,119.405,100.481,31.0434,0.0905799,0.861558,19.6653,492.367,10.3815,0.0,0.0
64,15.75,57.2349,60.4343,112.791,100.486,31.5873,0.090371,0.882865,19.6413,492.206,10.2283,0.0,0.0
66,16.25,57.9834,61.2788,118.429,100.453,28.2445,0.0901182,0.900123,19.6219,491.966,11.2141,0.0,0.0
68,16.75,58.6914,62.4957,122.582,100.437,27.849,0.0898382,0.920538,19.6062,491.786,11.3373,0.0,0.0
70,17.25,59.4082,63.0147,118.767,100.433,27.9362,0.0893999,0.937075,19.5934,491.596,11.3093,0.0,0.0
72,17.75,61.0536,64.1326,118.635,100.417,26.7193,0.0888545,0.955472,19.5831,491.416,11.7015,0.0,0.0
74,18.25,61.6292,64.8162,115.472,100.393,28.9219,0.0884128,0.970375,19.5747,491.195,10.9994,0.0,0.0
76,18.75,62.663,66.5081,125.12,100.398,27.2925,0.0870927,0.983375,19.5691,491.085,11.5123,0.0,0.0
78,19.25,63.2014,66.8097,118.609,100.365,26.0463,0.0850681,0.993906,19.5642,490.875,11.9224,0.0,0.0
80,19.75,63.7718,67.5425,127.286,100.363,24.7954,0.0842084,1.00146,19.5628,490.725,12.3573,0.0,0.0
82,20.25,64.2561,69.0019,124.91,100.338,25.861,0.0815419,1.00669,19.5685,490.565,11.9832,0.0,0.0
84,20.75,64.6332,69.1704,124.244,100.333,28.1342,0.0804652,1.01094,19.5732,490.415,11.2382,0.0,0.0
86,21.25,65.2841,70.3018,118.906,100.316,26.8122,0.0786241,1.00986,19.5769,490.245,11.662,0.0,0.0
88,21.75,66.1521,70.6338,125.209,100.315,26.2269,0.0771327,1.00899,19.5893,490.104,11.857,0.0,0.0
90,22.25,66.3865,71.1743,118.844,100.283,27.346,0.0749282,1.00085,19.5993,489.964,11.4849,0.0,0.0
92,22.75,67.1354,71.7571,132.519,100.268,29.9753,0.0722455,0.997537,19.6255,489.814,10.6721,0.0,0.0
94,23.25,68.1337,72.7507,126.061,100.25,30.3968,0.0694916,0.988196,19.6467,489.674,10.5472,0.0,0.0
96,23.75,68.5473,73.3181,122.955,100.241,30.2345,0.0667381,0.977324,19.6798,489.514,10.5936,0.0,0.0
98,24.25,68.8624,74.0862,128.756,100.22,31.9978,0.0639926,0.968516,19.7067,489.474,10.0908,0.0,0.0
100,24.75,69.1181,74.421,132.193,100.209,35.1724,0.0613052,0.955349,19.7445,489.334,9.25374,0.0,0.0
102,25.25,69.2237,74.2977,131.768,100.191,37.1405,0.0591283,0.939252,19.775,489.194,8.77094,0.0,0.0
104,25.75,69.5764,74.5404,125.912,100.188,36.9422,0.0566468,0.926215,19.8091,489.094,8.81805,0.0,0.0
106,26.25,70.0756,75.8343,129.742,100.152,36.1086,0.0539902,0.90735,19.8452,488.983,9.01659,0.0,0.0
108,26.75,70.222,75.5847,135.466,100.155,40.3024,0.0512868,0.892069,19.8744,488.893,8.04566,0.0,0.0
110,27.25,70.998,76.2507,133.446,100.125,41.22,0.0486007,0.873303,19.9104,488.773,7.84408,0.0,0.0
112,27.75,71.2184,76.8993,134.757,100.126,42.3436,0.046425,0.858102,19.9397,488.663,7.60641,0.0,0.0
114,28.25,71.4501,76.8039,143.065,100.104,44.1053,0.0437103,0.841427,19.9758,488.613,7.24424,0.0,0.0
116,28.75,71.4095,77.0771,135.583,100.095,47.1532,0.0415113,0.823993,20.005,488.483,6.65281,0.0,0.0
118,29.25,71.0732,76.8567,142.927,100.078,48.6379,0.0388475,0.805306,20.0451,488.403,6.37728,0.0,0.0
120,29.75,71.2265,77.0233,137.809,100.073,52.0481,0.0366897,0.786059,20.0776,488.333,5.77795,0.0,0.0
122,30.25,71.8625,77.6798,139.661,100.051,51.9471,0.034178,0.77047,20.1114,488.273,5.79319,0.0,0.0
124,30.75,72.0545,77.7574,140.588,100.052,55.8351,0.0321435,0.748764,20.1455,488.193,5.15536,0.0,0.0
126,31.25,72.3115,78.0687,138.8,100.027,56.8983,0.0297253,0.731182,20.1794,488.133,4.98643,0.0,0.0
128,31.75,72.337,77.9124,146.293,100.022,58.9415,0.0277665,0.709418,20.2126,488.053,4.67418,0.0,0.0
130,32.25,71.9277,78.1219,140.592,100.001,60.5754,0.0261799,0.691789,20.2395,487.993,4.43064,0.0,0.0
132,32.75,72.2848,77.7164,141.898,100,60.6184,0.0244392,0.669153,20.2612,487.942,4.42426,0.0,0.0
134,33.25,71.5419,77.6188,140.041,99.9911,64.5048,0.0226193,0.650818,20.2908,487.862,3.87425,0.0,0.0
136,33.75,71.726,77.8747,142.865,99.981,64.6658,0.0209339,0.631614,20.3148,487.822,3.85131,0.0,0.0
138,34.25,72.2953,77.9308,143.435,99.9538,68.02,0.0193785,0.612142,20.3403,487.752,3.40195,0.0,0.0
140,34.75,71.7502,77.8256,141.475,99.9562,70.249,0.0181186,0.596369,20.3664,487.732,3.11719,0.0,0.0
142,35.25,72.0315,77.9691,143.732,99.9441,69.559,0.0167604,0.573695,20.3927,487.652,3.20335,0.0,0.0
144,35.75,71.7033,77.6746,150.926,99.9376,68.6796,0.0150775,0.555329,20.4297,487.622,3.31523,0.0,0.0
146,36.25,71.4599,77.5837,139.593,99.927,71.289,0.0145531,0.540453,20.4486,487.572,2.98471,0.0,0.0
148,36.75,71.4415,77.8718,147.603,99.9818,76.568,0.0135705,0.518365,20.4808,487.532,2.35816,0.0,0.0
150,37.25,72.2806,76.8133,149.202,100.006,75.8147,0.0126974,0.500474,20.5117,487.492,2.44766,0.0,0.0
152,37.75,70.8802,77.3222,150.355,100.051,74.4632,0.0119902,0.478242,20.5413,487.482,2.61063,0.0,0.0
154,38.25,70.538,77.7866,147.827,100.06,77.2823,0.0112612,0.460234,20.5698,487.462,2.28301,0.0,0.0
156,38.75,71.1436,77.3436,151.684,100.109,79.0602,0.0106707,0.42991,20.5972,487.422,2.08628,0.0,0.0
158,39.25,71.3973,77.4111,148.698,100.127,79.8792,0.0101924,0.421753,20.6194,487.422,1.9968,0.0,0.0
160,39.75,70.9796,76.8101,149.017,100.165,78.8396,0.00964452,0.40222,20.6408,487.392,2.11592,0.0,0.0
162,40.25,70.7655,76.6356,145.553,100.187,78.4988,0.00920072,0.386399,20.6613,487.392,2.15617,0.0,0.0
164,40.75,70.541,76.7234,150.718,100.22,82.5836,0.00873877,0.370612,20.6819,487.372,1.71076,0.0,0.0
166,41.25,69.7702,76.5936,148.85,100.239,84.828,0.00836459,0.355151,20.7022,487.362,1.47544,0.0,0.0
168,41.75,70.273,76.2648,148.511,100.276,84.9618,0.007973,0.342628,20.7228,487.402,1.46472,0.0,0.0
170,42.25,69.9263,76.188,153.495,100.278,89.507,0.00765581,0.326661,20.7433,487.362,1.00433,0.0,0.0
172,42.75,69.4488,75.6549,157.127,100.333,90.3004,0.00733918,0.313727,20.7599,487.372,0.931115,0.0,0.0
174,43.25,69.7419,75.5315,152.735,100.323,90.8793,0.0070827,0.297498,20.7827,487.322,0.873818,0.0,0.0
176,43.75,69.4157,75.7377,151.074,100.355,92.7748,0.00684358,0.284353,20.8011,487.322,0.694188,0.0,0.0
178,44.25,69.1433,74.8817,156.15,100.359,93.0141,0.00662164,0.271491,20.816,487.322,0.671739,0.0,0.0
180,44.75,68.9156,74.6966,151.52,100.387,93.5626,0.00644188,0.259081,20.8335,487.302,0.622279,0.0,0.0
182,45.25,68.482,74.8453,157.44,100.389,93.6425,0.00629627,0.247144,20.8476,487.272,0.614877,0.0,0.0
184,45.75,68.414,74.484,154.418,100.415,93.795,0.00611508,0.235778,20.8605,487.262,0.602742,0.0,0.0
186,46.25,68.0704,74.1905,157.849,100.42,94.07,0.00596831,0.224949,20.8724,487.272,0.577329,0.0,0.0
188,46.75,67.9439,74.1066,157.597,100.445,93.5037,0.00584943,0.214719,20.882,487.242,0.632871,0.0,0.0
190,47.25,67.6564,73.5347,154.059,100.444,94.8144,0.00568382,0.206432,20.8919,487.232,0.509811,0.0,0.0
192,47.75,66.9422,73.1817,153.831,100.462,94.4026,0.00554967,0.19972,20.9018,487.232,0.549809,0.0,0.0
194,48.25,67.1196,73.0026,157.192,100.468,94.2603,0.00542084,0.190731,20.9098,487.232,0.56372,0.0,0.0
196,48.75,67.0089,72.98,155.919,100.487,94.2935,0.00529833,0.18345,20.9194,487.232,0.562242,0.0,0.0
198,49.25,66.6721,72.532,157.771,100.472,95.0411,0.0051939,0.176447,20.9272,487.212,0.491125,0.0,0.0
200,49.75,66.5495,72.5165,153.536,100.499,94.1714,0.00510463,0.169778,20.9366,487.222,0.574765,0.0,0.0
202,50.25,66.215,71.9095,153.432,100.495,94.1442,0.00503232,0.164377,20.9442,487.222,0.576959,0.0,0.0
204,50.75,65.7664,71.8543,152.248,100.51,94.874,0.00497375,0.158209,20.9526,487.232,0.510069,0.0,0.0
206,51.25,65.5578,71.3775,158.632,100.497,94.354,0.00492046,0.153212,20.9594,487.222,0.557472,0.0,0.0
208,51.75,65.1626,71.4902,159.052,100.516,94.3819,0.00487203,0.148506,20.9662,487.222,0.556526,0.0,0.0
210,52.25,65.3389,71.1295,158.799,100.503,94.2676,0.00481786,0.144102,20.9717,487.232,0.566068,0.0,0.0
212,52.75,65.0601,70.5679,155.094,100.513,94.4712,0.00476053,0.140084,20.9776,487.242,0.547888,0.0,0.0
214,53.25,64.1583,70.1594,153.965,100.509,94.4436,0.00471409,0.136424,20.9823,487.212,0.550147,0.0,0.0
216,53.75,63.8326,69.787,157.771,100.518,95.6333,0.00464335,0.13346,20.9861,487.212,0.440252,0.0,0.0
218,54.25,63.8216,69.468,156.017,100.495,94.6485,0.00455622,0.130318,20.9905,487.222,0.529786,0.0,0.0
220,54.75,63.1227,69.2746,157.984,100.495,95.3332,0.0044701,0.127449,20.9941,487.212,0.466041,0.0,0.0
222,55.25,63.2171,68.9537,155.577,100.49,94.4274,0.00438634,0.124834,20.9976,487.212,0.549954,0.0,0.0
224,55.75,63.3184,68.9184,156.118,100.481,94.1917,0.00431136,0.122716,21.0004,487.182,0.571256,0.0,0.0
226,56.25,62.6804,68.6099,151.39,100.477,95.0338,0.00424423,0.120331,21.0032,487.182,0.492304,0.0,0.0
228,56.75,62.1908,67.7277,154.927,100.471,95.3328,0.00418596,0.1184,21.0059,487.162,0.463938,0.0,0.0
230,57.25,63.0374,68.3195,163.549,100.451,94.3527,0.00413526,0.116528,21.0085,487.162,0.553554,0.0,0.0
232,57.75,62.1606,67.922,159.299,100.449,95.3555,0.00408313,0.114735,21.0111,487.152,0.459904,0.0,0.0
234,58.25,61.7355,67.5092,159.289,100.427,94.5154,0.0040409,0.113283,21.0136,487.122,0.536188,0.0,0.0
236,58.75,61.8275,67.4573,159.24,100.415,94.2355,0.00399311,0.111732,21.0156,487.142,0.561401,0.0,0.0
238,59.25,61.4719,67.5937,156.34,100.399,94.5779,0.00394217,0.1103,21.0177,487.122,0.527921,0.0,0.0
240,59.75,61.1354,67.4279,155.827,100.379,94.1029,0.00390091,0.108982,21.0194,487.132,0.570672,0.0,0.0
242,60.25,60.6451,66.3316,155.657,100.359,94.5442,0.00384357,0.107753,21.0207,487.132,0.527532,0.0,0.0
244,60.75,60.3749,65.9562,156.095,100.34,94.8103,0.00377559,0.106614,21.0218,487.122,0.501011,0.0,0.0
246,61.25,60.8007,66.1063,155.59,100.316,95.0448,0.00370374,0.105545,21.0227,487.112,0.477109,0.0,0.0
248,61.75,61.0802,66.0126,156.786,100.311,95.1312,0.00363044,0.104548,21.0235,487.112,0.468613,0.0,0.0
250,62.25,60.2666,66.0646,160.222,100.284,94.1832,0.00354899,0.10374,21.0241,487.112,0.554771,0.0,0.0
252,62.75,60.1787,65.9827,158.949,100.262,93.548,0.00348301,0.102836,21.0245,487.072,0.612617,0.0,0.0
254,63.25,59.6993,65.6318,158.703,100.256,94.9166,0.00342222,0.102104,21.0254,487.082,0.483746,0.0,0.0
256,63.75,60.0297,65.4567,156.932,100.207,93.9138,0.00337298,0.101402,21.0265,487.082,0.573251,0.0,0.0
258,64.25,58.9798,64.3255,158.33,100.194,94.0445,0.00332342,0.100735,21.0274,487.082,0.559787,0.0,0.0
260,64.75,59.1362,64.0192,154.43,100.168,93.8863,0.00327457,0.100078,21.0286,487.092,0.572449,0.0,0.0
262,65.25,59.3403,64.8889,156.729,100.132,95.8288,0.00322727,0.0994406,21.0295,487.082,0.388255,0.0,0.0
264,65.75,59.4419,63.9803,153.565,100.086,93.8222,0.003182,0.0988226,21.0303,487.082,0.571252,0.0,0.0
266,66.25,58.9953,64.2802,157.301,100.086,94.3637,0.00314533,0.0982302,21.0309,487.092,0.520313,0.0,0.0
268,66.75,59.0521,64.2973,157.554,100.039,93.7719,0.00310918,0.0976849,21.0314,487.082,0.571835,0.0,0.0
270,67.25,58.5648,63.6068,154.07,100.012,94.2136,0.0030741,0.0971843,21.0318,487.092,0.527896,0.0,0.0
272,67.75,58.474,63.428,156.325,99.9765,94.6813,0.00304569,0.0967787,21.0322,487.062,0.480974,0.0,0.0
274,68.25,58.5661,63.6462,160.629,99.9376,94.1248,0.00301881,0.0964364,21.0324,487.052,0.529636,0.0,0.0
276,68.75,58.0556,63.3746,153.915,99.9047,93.5962,0.00300552,0.0961592,21.0325,487.042,0.576501,0.0,0.0
278,69.25,57.6607,63.4943,157.402,99.8865,94.2477,0.00298279,0.0960037,21.0325,487.042,0.513581,0.0,0.0
280,69.75,58.0569,63.1614,151.097,99.8252,94.0416,0.00295827,0.0958778,21.0325,487.032,0.527506,0.0,0.0
282,70.25,57.6558,63.209,155.489,99.794,94.0871,0.0029384,0.0957758,21.0326,487.032,0.520471,0.0,0.0
284,70.75,57.5435,62.7223,159.166,99.7579,93.492,0.00291497,0.0956932,21.0326,487.012,0.573351,0.0,0.0
286,71.25,57.7312,62.5954,158.526,99.7104,93.8295,0.00289599,0.0956539,21.0326,487.012,0.537298,0.0,0.0
288,71.75,57.3293,62.7275,155.386,99.6666,93.8218,0.00287328,0.0956372,21.0326,486.992,0.53414,0.0,0.0
290,72.25,57.5296,62.2444,154.065,99.6938,94.0927,0.00285488,0.0955118,21.0327,486.982,0.51106,0.0,0.0
292,72.75,57.4863,62.4597,157.922,99.6634,93.6725,0.00282164,0.0954102,21.0327,486.952,0.547926,0.0,0.0
294,73.25,57.1493,62.0249,157.444,99.6837,94.3957,0.00279471,0.0952588,21.0327,486.982,0.481744,0.0,0.0
296,73.75,56.8153,61.7341,156.879,99.6739,94.2404,0.00275425,0.0951361,21.0327,486.972,0.495439,0.0,0.0
298,74.25,56.9544,61.7466,160.943,99.6922,93.5001,0.00272817,0.0950222,21.0329,486.982,0.56676,0.0,0.0
300,74.75,56.4712,61.3967,158.212,99.6808,94.2075,0.00268357,0.0949169,21.0333,486.972,0.499133,0.0,0.0
302,75.25,56.2981,60.8991,156.317,99.706,94.0676,0.00264234,0.0947901,21.0336,486.932,0.514502,0.0,0.0
304,75.75,56.3997,61.143,157.387,99.6922,94.1398,0.00260436,0.0946874,21.0339,486.932,0.506498,0.0,0.0
306,76.25,56.0688,61.3477,157.375,99.71,94.4854,0.00258067,0.0946041,21.0341,486.942,0.475692,0.0,0.0
308,76.75,55.9923,60.7908,159.335,99.71,93.3719,0.00256784,0.0945368,21.0337,486.932,0.580468,0.0,0.0
310,77.25,55.9235,60.6604,155.349,99.7242,93.2251,0.00256709,0.094508,21.0333,486.922,0.595637,0.0,0.0
312,77.75,55.9429,60.6504,160.72,99.7189,93.2729,0.00257516,0.094488,21.0331,486.892,0.590633,0.0,0.0
314,78.25,56.1727,60.8842,159.858,99.7453,93.2859,0.002592,0.094498,21.0328,486.892,0.591739,0.0,0.0
316,78.75,55.4434,59.9829,154.924,99.7323,93.3492,0.0026149,0.0944837,21.0326,486.892,0.584595,0.0,0.0
318,79.25,55.4126,60.0697,156.217,99.7502,94.5925,0.00263988,0.0944521,21.0325,486.911,0.46924,0.0,0.0
320,79.75,55.4401,60.0236,158.872,99.7498,95.0577,0.00266591,0.0944047,21.0324,486.902,0.425837,0.0,0.0
322,80.25,55.1261,59.5001,154.479,99.7591,93.9118,0.00268699,0.0943466,21.0323,486.911,0.533858,0.0,0.0
324,80.75,54.994,59.8342,158.953,99.7595,94.2436,0.00270085,0.0942996,21.0322,486.881,0.502721,0.0,0.0
326,81.25,54.9776,59.246,157.133,99.7721,94.5361,0.00270918,0.0942477,21.0326,486.871,0.47645,0.0,0.0
328,81.75,54.5888,59.2138,160.712,99.7887,93.7508,0.00270564,0.0942057,21.0329,486.861,0.55165,0.0,0.0
330,82.25,54.573,59.27,155.025,99.7915,93.4555,0.0026935,0.0941716,21.0336,486.871,0.579785,0.0,0.0
332,82.75,54.6791,59.1804,158.166,99.7932,94.2842,0.0026708,0.094144,21.0341,486.841,0.5019,0.0,0.0
334,83.25,54.5735,59.2795,153.884,99.8175,93.8631,0.00264085,0.0940635,21.0346,486.851,0.543614,0.0,0.0
336,83.75,54.2659,58.6784,155.895,99.8066,94.3179,0.00260245,0.0939459,21.0349,486.841,0.49993,0.0,0.0
338,84.25,54.2608,59.2394,156.463,99.8256,94.1763,0.00255862,0.0938506,21.0352,486.841,0.514894,0.0,0.0
340,84.75,53.6129,58.7078,159.176,99.8159,93.5115,0.00251092,0.0936629,21.0355,486.831,0.576648,0.0,0.0
342,85.25,53.6967,58.5075,157.61,99.8362,93.8128,0.0024613,0.0935109,21.0357,486.831,0.550004,0.0,0.0
344,85.75,54.2017,58.2627,159.227,99.8358,94.2383,0.00242111,0.0933601,21.0358,486.831,0.50997,0.0,0.0
346,86.25,53.1431,58.1479,158.842,99.8568,93.7199,0.00238855,0.093238,21.036,486.821,0.56059,0.0,0.0
348,86.75,53.0765,57.7814,155.618,99.856,93.5362,0.00236218,0.0931115,21.0361,486.841,0.577865,0.0,0.0
350,87.25,54.1448,58.2309,157.326,99.8706,94.0084,0.00234082,0.093009,21.0362,486.811,0.534654,0.0,0.0
352,87.75,53.2326,58.1623,152.532,99.8783,94.3941,0.00234548,0.0928845,21.0362,486.811,0.499142,0.0,0.0
354,88.25,53.5786,57.9483,156.674,99.8893,93.2466,0.00234926,0.0927837,21.0363,486.801,0.608218,0.0,0.0
356,88.75,53.0943,58.1037,162.057,99.8698,94.0956,0.00236818,0.0927748,21.0363,486.781,0.526386,0.0,0.0
358,89.25,53.0358,57.1624,157.883,99.8808,93.9674,0.00238351,0.0928329,21.0364,486.781,0.539404,0.0,0.0
360,89.75,53.1113,57.8868,158.76,99.8759,94.2704,0.00239715,0.0930037,21.0364,486.781,0.510519,0.0,0.0
362,90.25,53.0152,56.9064,156.094,99.8982,93.8712,0.0024082,0.0932533,21.0362,486.771,0.549994,0.0,0.0
364,90.75,52.743,57.6135,157.407,99.8958,93.7715,0.00241715,0.0934555,21.0358,486.751,0.559179,0.0,0.0
366,91.25,53.0779,56.8997,157.728,99.9226,94.5977,0.00240513,0.0936745,21.0355,486.761,0.484007,0.0,0.0
368,91.75,52.2298,56.6702,159.928,99.9104,94.1491,0.00237805,0.093852,21.0357,486.741,0.524948,0.0,0.0
370,92.25,52.2737,56.4743,156.911,99.9189,93.8579,0.00234456,0.0939593,21.0359,486.731,0.553084,0.0,0.0
372,92.75,51.967,56.5319,157.996,99.925,94.745,0.00230704,0.0940135,21.0361,486.751,0.470477,0.0,0.0
374,93.25,52.4459,56.7578,160.897,99.9343,94.9101,0.00227344,0.0940574,21.0362,486.741,0.455913,0.0,0.0
376,93.75,51.9556,56.6161,157.811,99.9331,93.9082,0.00224333,0.0940566,21.0363,486.731,0.549605,0.0,0.0
378,94.25,52.0161,55.9138,152.108,99.951,93.7191,0.00221895,0.0940233,21.0364,486.731,0.568991,0.0,0.0
380,94.75,52.3937,56.1418,155.896,99.9461,94.7466,0.00220754,0.0939962,21.0364,486.721,0.472191,0.0,0.0
382,95.25,51.1411,56.5045,156.165,99.9441,94.1106,0.00220581,0.0939467,21.0365,486.721,0.531544,0.0,0.0
384,95.75,52.025,56.1096,157.669,99.9639,94.6626,0.00220507,0.0938774,21.0365,486.691,0.481604,0.0,0.0
386,96.25,51.389,56.2335,157.811,99.9684,94.1848,0.0022282,0.0937952,21.0366,486.711,0.526727,0.0,0.0
388,96.75,51.5349,55.2012,155.312,99.9793,94.0234,0.00224694,0.0937285,21.0366,486.701,0.542858,0.0,0.0
390,97.25,51.6962,55.8773,157.419,99.9793,94.5547,0.00228164,0.0935779,21.0366,486.681,0.493047,0.0,0.0
392,97.75,51.2429,55.7284,156.056,99.9773,94.3925,0.00230975,0.0934558,21.0366,486.701,0.508047,0.0,0.0
394,98.25,51.5052,55.3361,157.537,99.9798,94.5223,0.00233124,0.0933134,21.0367,486.711,0.496117,0.0,0.0
396,98.75,51.3414,55.4319,154.635,99.9891,94.5925,0.00234748,0.093232,21.0371,486.701,0.490382,0.0,0.0
398,99.25,51.2605,55.4411,149.204,99.9846,94.4537,0.00235036,0.0930928,21.0375,486.681,0.502959,0.0,0.0
400,99.75,51.4739,55.3285,150.133,100.006,94.936,0.00234345,0.0929582,21.0378,486.681,0.459844,0.0,0.0
402,100.25,50.8724,54.8318,162.305,99.9879,94.2306,0.0023295,0.0928296,21.038,486.671,0.524147,0.0,0.0
404,100.75,50.7032,54.5391,157.596,100.005,94.1053,0.00231069,0.0926527,21.0387,486.671,0.537454,0.0,0.0
406,101.25,50.8664,55.2277,160.067,99.998,94.9097,0.00229546,0.0924441,21.0392,486.671,0.461582,0.0,0.0
408,101.75,51.2798,54.7369,156.162,100.017,94.0311,0.00227606,0.0922242,21.0396,486.671,0.545467,0.0,0.0
410,102.25,51.1367,54.8711,156.317,100.014,94.4931,0.00225399,0.0920003,21.0399,486.651,0.501895,0.0,0.0
412,102.75,50.7969,54.6367,158.035,100.024,93.5995,0.00223034,0.0917682,21.0402,486.661,0.586774,0.0,0.0
414,103.25,50.105,54.4933,154.483,100.019,94.1288,0.00220599,0.0915343,21.0404,486.641,0.536462,0.0,0.0
416,103.75,50.2127,54.0232,161.521,100.038,94.3288,0.00218177,0.0913449,21.0406,486.621,0.51939,0.0,0.0
418,104.25,50.8473,54.5013,155.817,100.024,94.3673,0.00215812,0.0910674,21.0412,486.621,0.514526,0.0,0.0
420,104.75,50.2443,55.114,160.652,100.035,94.3069,0.00213575,0.0908425,21.0417,486.601,0.521156,0.0,0.0
422,105.25,51.0641,54.5305,156.352,100.038,93.623,0.00211475,0.0906604,21.0421,486.611,0.585735,0.0,0.0
424,105.75,50.4542,54.1327,160.23,100.052,93.999,0.00209325,0.0904577,21.0424,486.611,0.551526,0.0,0.0
426,106.25,50.505,54.2099,156.488,100.026,93.9666,0.0020718,0.0902935,21.0426,486.601,0.55232,0.0,0.0
428,106.75,49.9624,54.2596,158.324,100.047,95.6402,0.00205442,0.0901468,21.0429,486.601,0.398183,0.0,0.0
430,107.25,50.2748,54.359,156.087,100.044,95.08,0.00203303,0.0900279,21.043,486.621,0.44978,0.0,0.0
432,107.75,50.2354,54.0145,160.585,100.062,94.4769,0.00201571,0.0899315,21.0432,486.591,0.507605,0.0,0.0
434,108.25,49.9037,53.9946,155.828,100.045,94.3199,0.00199976,0.0898681,21.0433,486.571,0.520871,0.0,0.0
436,108.75,49.971,53.9777,154.541,100.053,94.4059,0.00198511,0.0898297,21.0434,486.591,0.513498,0.0,0.0
438,109.25,49.7622,53.9243,160.206,100.032,94.2209,0.00197645,0.0897987,21.0434,486.581,0.528931,0.0,0.0
440,109.75,49.7844,53.6413,158.053,100.05,94.7239,0.00197231,0.0897597,21.0435,486.581,0.483487,0.0,0.0
442,110.25,49.9894,53.946,160.032,100.028,94.1714,0.00196897,0.0897281,21.0435,486.591,0.533289,0.0,0.0
444,110.75,49.7517,53.815,155.845,100.036,95.0545,0.00196991,0.08963,21.0436,486.561,0.45144,0.0,0.0
446,111.25,49.5662,54.0811,156.504,100.035,94.3203,0.0019649,0.0894852,21.0436,486.531,0.519902,0.0,0.0
448,111.75,49.6967,53.0332,162.499,100.045,94.0408,0.00195566,0.0893679,21.0441,486.521,0.54699,0.0,0.0
450,112.25,49.4799,53.0897,160.793,100.034,94.373,0.00194817,0.0890799,21.0444,486.531,0.514889,0.0,0.0
452,112.75,49.6096,53.4698,156.042,100.04,94.3694,0.00192141,0.0888466,21.0448,486.561,0.515769,0.0,0.0
454,113.25,49.6147,53.2862,161.168,100.012,95.1904,0.00189973,0.0884647,21.0452,486.521,0.436699,0.0,0.0
456,113.75,49.1687,53.2821,159.117,100.035,93.4579,0.00188217,0.0881554,21.0458,486.531,0.60112,0.0,0.0
458,114.25,49.6344,53.3898,155.612,100.022,94.4769,0.00185944,0.087712,21.0461,486.511,0.504094,0.0,0.0
460,114.75,49.0239,52.6627,160.817,100.023,94.5758,0.00184102,0.0873529,21.0461,486.501,0.494947,0.0,0.0
462,115.25,49.1469,53.0141,160.054,100.016,94.4391,0.00183317,0.0869381,21.0461,486.521,0.507087,0.0,0.0
464,115.75,49.2543,52.5165,159.375,100.02,94.5353,0.00181462,0.0866021,21.0461,486.521,0.498488,0.0,0.0
466,116.25,49.6637,52.9133,156.768,100.008,94.7778,0.00179498,0.08633,21.0461,486.491,0.474763,0.0,0.0
468,116.75,48.999,53.0332,159.841,100.011,93.6084,0.00178036,0.0862472,21.0461,486.481,0.584784,0.0,0.0
470,117.25,48.8229,52.4446,153.568,99.9903,94.3901,0.00176967,0.0861802,21.0461,486.481,0.509423,0.0,0.0
472,117.75,49.2011,52.0487,161.703,99.9996,94.2765,0.00176613,0.0861259,21.0461,486.491,0.520889,0.0,0.0
474,118.25,48.6912,52.5255,159.242,99.981,93.4056,0.00176787,0.086139,21.0461,486.491,0.601266,0.0,0.0
476,118.75,48.6569,52.5061,156.877,99.9911,94.1682,0.00177185,0.0861614,21.0461,486.481,0.530296,0.0,0.0
478,119.25,48.7508,52.6736,155.814,99.9708,94.0148,0.00177475,0.0861867,21.0461,486.471,0.542905,0.0,0.0
480,119.75,48.4225,52.3165,159.68,99.9834,94.5422,0.00177973,0.0862138,21.0461,486.451,0.494582,0.0,0.0
482,120.25,48.9634,52.2115,158.553,99.9562,93.7155,0.0017801,0.0862357,21.0465,486.431,0.569803,0.0,0.0
484,120.75,48.6747,52.4147,159.319,99.9668,94.0185,0.00178041,0.086102,21.0469,486.451,0.542204,0.0,0.0
486,121.25,48.4108,52.1144,157.451,99.9534,94.4858,0.00176727,0.0859938,21.0472,486.451,0.4972,0.0,0.0
488,121.75,49.0986,51.9095,161.313,99.9445,94.3694,0.00175663,0.0857684,21.0474,486.461,0.507308,0.0,0.0
490,122.25,48.3813,51.9921,155.541,99.9307,94.1605,0.00174802,0.0856723,21.0476,486.451,0.525675,0.0,0.0
492,122.75,48.5772,51.7021,157.515,99.9189,94.3138,0.00173252,0.0854667,21.0477,486.461,0.510254,0.0,0.0
494,123.25,48.3634,51.7662,158.426,99.9104,94.687,0.00171998,0.0853002,21.0479,486.451,0.474598,0.0,0.0
496,123.75,48.3919,52.0957,158.297,99.9072,93.9378,0.00170495,0.085124,21.048,486.441,0.544522,0.0,0.0
498,124.25,47.9171,51.6471,157.994,99.8921,93.6104,0.00169277,0.0849813,21.0481,486.451,0.574047,0.0,0.0
500,124.75,48.0919,51.8067,157.048,99.8913,94.8476,0.00167562,0.0848078,21.0481,486.441,0.457929,0.0,0.0
502,125.25,48.2084,51.9082,161.376,99.8706,94.9721,0.00166172,0.0846151,21.0482,486.441,0.444502,0.0,0.0
504,125.75,48.2992,51.6357,165.296,99.8743,94.4022,0.00164074,0.0844591,21.0482,486.461,0.498023,0.0,0.0
506,126.25,48.1542,51.4156,160.13,99.856,93.9576,0.00162375,0.0842964,21.0483,486.431,0.53813,0.0,0.0
508,126.75,47.662,51.4545,159.259,99.856,93.5857,0.0016027,0.0841321,21.0483,486.421,0.57319,0.0,0.0
510,127.25,47.7906,51.3454,158.022,99.8414,94.3751,0.00158564,0.0839411,21.0483,486.421,0.49766,0.0,0.0
512,127.75,48.0945,51.0701,155.841,99.8455,93.7865,0.00157183,0.0837343,21.0483,486.421,0.553314,0.0,0.0
514,128.25,47.9731,51.3634,160.351,99.8285,94.6655,0.00156064,0.0835089,21.0483,486.411,0.469353,0.0,0.0
516,128.75,48.0683,50.633,156.111,99.8325,94.2339,0.00155157,0.0832742,21.0483,486.401,0.510101,0.0,0.0
518,129.25,47.7723,50.9224,161.302,99.8151,94.0015,0.00153087,0.0830552,21.0486,486.391,0.530384,0.0,0.0
520,129.75,47.6505,51.731,158.465,99.8025,94.3957,0.0015141,0.0828517,21.049,486.401,0.492275,0.0,0.0
522,130.25,47.5389,50.936,153.336,99.7847,94.225,0.00149221,0.0826507,21.0493,486.381,0.506699,0.0,0.0
524,130.75,47.68,51.0296,153.577,99.7842,93.5873,0.00146699,0.0824554,21.0496,486.371,0.566679,0.0,0.0
526,131.25,47.3888,50.5783,156.318,99.7688,93.7289,0.00144019,0.0822971,21.0498,486.341,0.551955,0.0,0.0
528,131.75,47.3316,50.3013,159.355,99.7615,93.6181,0.00142573,0.0821415,21.0499,486.341,0.561757,0.0,0.0
530,132.25,47.4954,51.064,155.489,99.7437,93.9548,0.00140101,0.0820154,21.0501,486.331,0.528447,0.0,0.0
532,132.75,47.9517,50.8031,157.861,99.7392,94.3426,0.0013822,0.0818482,21.0502,486.331,0.491647,0.0,0.0
534,133.25,47.9255,50.7519,159.941,99.7315,93.7459,0.00136697,0.0816542,21.0503,486.291,0.547042,0.0,0.0
536,133.75,47.8299,50.7155,160.46,99.7206,94.3231,0.00136485,0.0814392,21.0504,486.311,0.491817,0.0,0.0
538,134.25,47.6132,50.988,157.092,99.7064,94.1284,0.00137233,0.081213,21.0504,486.311,0.508823,0.0,0.0
540,134.75,47.4126,50.6373,159.886,99.6946,94.2984,0.00138287,0.0811166,21.0505,486.321,0.491835,0.0,0.0
542,135.25,46.7014,49.5689,158.168,99.6764,93.5613,0.00139544,0.0808555,21.0505,486.291,0.55957,0.0,0.0
544,135.75,46.8007,49.9266,156.759,99.6622,94.8586,0.00140561,0.0806441,21.0506,486.291,0.436609,0.0,0.0
546,136.25,47.237,50.3882,159.89,99.6557,94.7032,0.00139321,0.0804316,21.0506,486.251,0.45052,0.0,0.0
548,136.75,46.8881,50.4049,161.392,99.6248,94.1094,0.00138317,0.0802595,21.0509,486.271,0.503383,0.0,0.0
550,137.25,47.1654,50.531,158.61,99.6293,94.3945,0.00137503,0.0800768,21.0513,486.261,0.477038,0.0,0.0
552,137.75,47.4368,50.4133,158.203,99.6094,93.9288,0.00133844,0.0798897,21.0516,486.261,0.518985,0.0,0.0
554,138.25,47.1803,50.6152,159.942,99.605,94.1309,0.00128179,0.0797382,21.0521,486.261,0.4996,0.0,0.0
556,138.75,47.5553,50.7427,159.901,99.5729,93.1825,0.00122315,0.0795194,21.0525,486.241,0.586256,0.0,0.0
558,139.25,46.5007,49.3239,157.681,99.5713,93.9228,0.00116417,0.0793422,21.0528,486.231,0.516173,0.0,0.0
560,139.75,46.6959,49.884,156.391,99.5494,94.0891,0.00111513,0.0791986,21.053,486.231,0.498593,0.0,0.0
562,140.25,47.1883,50.1934,155.565,99.5482,94.2651,0.00107425,0.0789956,21.0537,486.251,0.481963,0.0,0.0
564,140.75,47.2065,50.3386,159.344,99.5194,93.7431,0.00104433,0.0787532,21.0542,486.261,0.528491,0.0,0.0
566,141.25,46.9207,50.111,160.335,99.5113,94.0477,0.00102297,0.0785569,21.0546,486.261,0.499095,0.0,0.0
568,141.75,47.0977,50.0261,157.919,99.4934,93.6039,0.00100566,0.0782607,21.055,486.221,0.539312,0.0,0.0
570,142.25,47.387,49.6662,154.285,99.4788,93.6084,0.00100618,0.0779486,21.0557,486.231,0.537593,0.0,0.0
572,142.75,46.7113,50.0513,160.085,99.4537,94.8407,0.0010066,0.0776308,21.0563,486.231,0.419763,0.0,0.0
574,143.25,46.9475,50.1185,154.185,99.4529,94.8853,0.00101843,0.0773229,21.0567,486.241,0.415534,0.0,0.0
576,143.75,47.3262,50.0266,160.591,99.4192,94.8963,0.00103834,0.077028,21.0571,486.211,0.411521,0.0,0.0
578,144.25,46.9689,50.0527,153.785,99.4188,94.4103,0.00105447,0.0767892,21.0574,486.241,0.456862,0.0,0.0
580,144.75,46.9148,50.0253,160.944,99.4022,93.6993,0.00108573,0.0764998,21.0577,486.221,0.522205,0.0,0.0
582,145.25,46.82,49.6677,158.263,99.3867,93.8055,0.00111105,0.0762654,21.0579,486.211,0.510815,0.0,0.0
584,145.75,46.7804,50.0463,161.129,99.3701,93.9865,0.00115219,0.0760344,21.0581,486.201,0.492306,0.0,0.0
586,146.25,46.758,49.5289,160.309,99.3535,94.0205,0.00118551,0.0758473,21.0582,486.241,0.487624,0.0,0.0
588,146.75,46.9798,49.5181,160.667,99.3267,93.7272,0.00121761,0.0756957,21.0583,486.231,0.512854,0.0,0.0
590,147.25,46.7767,49.555,159.039,99.3182,93.9986,0.00124822,0.0754907,21.0588,486.221,0.486543,0.0,0.0
592,147.75,46.2089,49.8412,153.59,99.302,93.004,0.00127301,0.0753247,21.0593,486.201,0.579119,0.0,0.0
594,148.25,46.3799,50.1314,159.38,99.2931,93.6153,0.00129309,0.0751491,21.0596,486.191,0.520421,0.0,0.0
596,148.75,46.7956,49.828,156.057,99.2764,93.7581,0.00130935,0.0750069,21.0599,486.191,0.50547,0.0,0.0
598,149.25,46.6276,49.4254,157.962,99.272,93.9889,0.00133345,0.0748628,21.0599,486.201,0.483343,0.0,0.0
600,149.75,47.244,50.0968,160.796,99.2561,93.2928,0.00135298,0.0747202,21.0597,486.171,0.547634,0.0,0.0
602,150.25,46.852,49.4513,160.49,99.2509,94.0493,0.00137838,0.0746047,21.0595,486.191,0.475783,0.0,0.0
604,150.75,46.2991,49.2099,157.458,99.2387,93.4644,0.00140759,0.0745111,21.0598,486.181,0.52984,0.0,0.0
606,151.25,46.4364,49.644,158.953,99.2257,93.49,0.00143253,0.0744353,21.06,486.191,0.526268,0.0,0.0
608,151.75,46.8275,49.5126,154.395,99.205,92.9087,0.00145388,0.0742095,21.0602,486.191,0.57955,0.0,0.0
610,152.25,46.4304,49.1532,161.004,99.2022,93.4518,0.00146606,0.0740266,21.0604,486.191,0.527777,0.0,0.0
612,152.75,46.5976,49.1885,156.688,99.175,93.1204,0.00147132,0.0738353,21.0605,486.171,0.556755,0.0,0.0
614,153.25,46.5385,48.9432,157.571,99.1754,93.4157,0.00146599,0.0736414,21.0606,486.171,0.528808,0.0,0.0
616,153.75,46.2895,49.1663,156.672,99.1418,93.9731,0.00145305,0.0734843,21.0612,486.161,0.473231,0.0,0.0
618,154.25,46.3453,49.4348,156.897,99.1478,93.2916,0.00144256,0.0731928,21.0616,486.141,0.5381,0.0,0.0
620,154.75,45.8028,48.9127,157.289,99.1211,93.5735,0.00141222,0.0729567,21.0619,486.151,0.509046,0.0,0.0
622,155.25,46.4449,49.2164,159.187,99.1174,94.3629,0.00138764,0.072656,21.0622,486.131,0.434473,0.0,0.0
624,155.75,46.2009,49.2878,156.313,99.0854,93.5942,0.00135924,0.0724124,21.0625,486.141,0.503908,0.0,0.0
626,156.25,46.1435,49.028,155.385,99.089,93.0474,0.00133623,0.0721056,21.0626,486.131,0.556021,0.0,0.0
628,156.75,46.4231,48.7097,151.968,99.0619,93.3528,0.00131759,0.0718572,21.0628,486.131,0.524631,0.0,0.0
630,157.25,46.529,49.3388,155.077,99.0671,93.1987,0.00128309,0.0715738,21.0629,486.151,0.539707,0.0,0.0
632,157.75,45.8982,48.7447,157.349,99.044,93.681,0.00125514,0.0713443,21.063,486.151,0.492023,0.0,0.0
634,158.25,46.0564,48.9174,158.29,99.0367,93.7013,0.00120826,0.071108,21.0631,486.151,0.489458,0.0,0.0
636,158.75,46.2099,49.2524,156.614,99.0152,92.9172,0.00117029,0.0708713,21.0632,486.151,0.561811,0.0,0.0
638,159.25,46.2094,48.6324,155.039,99.0128,93.5062,0.00112127,0.0706508,21.0632,486.151,0.505746,0.0,0.0
640,159.75,45.8395,48.7349,157.875,98.9832,93.7289,0.00108156,0.0704462,21.0632,486.131,0.482077,0.0,0.0
642,160.25,46.1258,48.6421,158.522,98.9884,93.1991,0.0010494,0.0702805,21.0633,486.131,0.532645,0.0,0.0
644,160.75,45.5457,48.6592,158.912,98.9621,93.5962,0.0010282,0.069996,21.0633,486.131,0.49271,0.0,0.0
646,161.25,45.6724,48.7057,157.853,98.9491,93.3906,0.00101102,0.0697655,21.0634,486.121,0.510994,0.0,0.0
648,161.75,45.6861,49.1141,156.759,98.9321,93.7962,0.00100923,0.0694924,21.0635,486.131,0.471166,0.0,0.0
650,162.25,46.5297,49.0084,154.031,98.939,93.0381,,0.0691936,,486.151,0.543512,0.0,0.0
652,162.75,45.7103,49.0896,159.237,98.9183,94.6558,,0.0689516,,486.131,0.389308,0.0,0.0
654,163.25,45.5181,48.6612,156.524,98.9106,92.6795,,0.0686553,,486.131,0.575105,0.0,0.0
656,163.75,46.4998,48.7079,154.342,98.9053,93.3711,,0.0683251,,486.141,0.508922,0.0,0.0
658,164.25,46.0825,48.593,160.531,98.8789,93.6181,,0.0680504,,486.121,0.483214,0.0,0.0
660,164.75,46.0971,48.9743,157.645,98.8765,92.9691,,0.0678215,,486.121,0.544483,0.0,0.0
662,165.25,45.4675,48.0816,155.872,98.8745,93.6339,,,,486.111,0.481322,0.0,0.0
664,165.75,45.4464,47.9052,159.264,98.8513,94.1288,,,,486.111,0.432665,0.0,0.0
666,166.25,46.3439,48.4427,156.704,98.8485,93.5938,,,,486.091,0.482792,0.0,0.0
668,166.75,45.705,48.182,155.421,98.8335,92.9736,,,,486.081,0.540215,0.0,0.0
670,167.25,45.4314,47.8364,160.132,98.8311,92.9837,,,,486.071,0.539032,0.0,0.0
672,167.75,45.5407,48.1602,157.33,98.8246,93.6749,,,,486.081,0.472995,0.0,0.0
674,168.25,45.7679,48.6664,155.431,98.8189,93.4319,,,,486.081,0.495441,0.0,0.0
676,168.75,45.4932,48.2532,159.197,98.8063,92.4191,,,,486.061,0.590655,0.0,0.0
678,169.25,45.8917,48.4218,162.002,98.8051,93.2794,,,,486.071,0.508648,0.0,0.0
680,169.75,45.8798,47.7618,154.355,98.8002,93.4311,,,,486.091,0.493849,0.0,0.0
682,170.25,45.6568,48.5467,162.382,98.7828,93.3001,,,,486.081,0.504692,0.0,0.0
684,170.75,45.7107,48.2839,158.752,98.7804,93.2239,,,,486.081,0.511701,0.0,0.0
686,171.25,45.5874,48.1416,154.975,98.7735,93.0888,,,,486.071,0.5239,0.0,0.0
688,171.75,45.4847,48.0584,159.319,98.7735,92.8787,,,,486.071,0.543872,0.0,0.0
690,172.25,45.6584,48.2229,155.832,98.7564,92.7513,,,,486.061,0.554477,0.0,0.0
692,172.75,45.5085,48.1946,156.433,98.7491,92.3818,,,,486.061,0.589108,0.0,0.0