File: 01_Data/Cotton_Ball/STA/N2/10K_min/Cotton_Ball_STA_N2_10KData_210713_R3.csv
##Temp./Â°C,Time/min,Mass loss(subtr.2)/mg,DSC(subtr.2)/(mW/mg),Sensit./(uV/mW)
49.308,10.01,-0.0135,-0.02461505,0.61831
49.908,11.397,-0.01377525,-0.00502875,0.61863
50.508,11.7424,-0.01530875,0.009855478,0.61894
51.108,11.98017,-0.01514059,0.02365479,0.61926
51.708,12.18443,-0.01351244,0.03312802,0.61958
52.308,12.35655,-0.01504986,0.03868335,0.61989
52.908,12.51213,-0.007048039,0.04976828,0.6202
53.508,12.65687,-0.01592686,0.05900164,0.62052
54.108,12.79485,-0.01523033,0.06416488,0.62083
54.708,12.92334,-0.01518894,0.0671972,0.62114
55.308,13.04589,-0.01432119,0.07475033,0.62144
55.908,13.1626,-0.02168155,0.08013884,0.62175
56.508,13.2767,-0.01808632,0.08346743,0.62206
57.108,13.3877,-0.01745482,0.09156532,0.62236
57.708,13.49435,-0.01683494,0.09853291,0.62266
58.308,13.5979,-0.01791756,0.10067,0.62297
58.908,13.69994,-0.01679245,0.10674,0.62327
59.508,13.8001,-0.01810005,0.11325,0.62356
60.108,13.89739,-0.01830057,0.11429,0.62386
60.708,13.9936,-0.01904813,0.11969,0.62416
61.308,14.0885,-0.01942934,0.12578,0.62446
61.908,14.1813,-0.02067303,0.13003,0.62475
62.508,14.2729,-0.02066673,0.13218,0.62504
63.108,14.3626,-0.02062793,0.13641,0.62533
63.708,14.45144,-0.02052051,0.1384,0.62562
64.308,14.5392,-0.0218299,0.14059,0.62591
64.908,14.626,-0.02186393,0.14775,0.6262
65.508,14.7118,-0.0211826,0.15077,0.62649
66.108,14.79626,-0.02185687,0.15383,0.62677
66.708,14.8796,-0.02317061,0.15556,0.62706
67.308,14.96235,-0.02183948,0.15985,0.62734
67.908,15.0446,-0.02314963,0.16316,0.62762
68.508,15.12522,-0.02445924,0.16801,0.6279
69.108,15.20476,-0.024463,0.17256,0.62818
69.708,15.28387,-0.02447027,0.17202,0.62846
70.308,15.3625,-0.02466297,0.17919,0.62874
70.908,15.4406,-0.02449502,0.18058,0.62901
71.508,15.5179,-0.02576873,0.18268,0.62929
72.108,15.5945,-0.0258739,0.18777,0.62956
72.708,15.67075,-0.02578349,0.18692,0.62983
73.308,15.74562,-0.027092,0.19172,0.6301
73.908,15.8204,-0.02709979,0.19816,0.63037
74.508,15.89427,-0.02749708,0.19988,0.63064
75.108,15.96861,-0.02916721,0.20613,0.6309
75.708,16.042,-0.02852984,0.20231,0.63117
76.308,16.11486,-0.02983987,0.2049,0.63143
76.908,16.18711,-0.02984,0.2105,0.6317
77.508,16.2586,-0.02983512,0.21273,0.63196
78.108,16.32929,-0.03081974,0.21339,0.63222
78.708,16.40029,-0.03080908,0.21395,0.63248
79.308,16.4708,-0.03116023,0.21875,0.63273
79.908,16.54104,-0.03221908,0.21927,0.63299
80.508,16.61024,-0.03211947,0.22439,0.63325
81.108,16.67932,-0.03247655,0.22661,0.6335
81.708,16.7482,-0.0354104,0.22743,0.63375
82.308,16.81651,-0.03859701,0.22835,0.634
82.908,16.88446,-0.04268001,0.23183,0.63425
83.508,16.95205,-0.04287793,0.23634,0.6345
84.108,17.01965,-0.03950444,0.23906,0.63475
84.708,17.08676,-0.03540551,0.24093,0.635
85.308,17.1536,-0.03543991,0.24363,0.63524
85.908,17.21975,-0.0341161,0.24901,0.63548
86.508,17.28574,-0.03402336,0.24692,0.63573
87.108,17.35134,-0.03680918,0.24946,0.63597
87.708,17.41691,-0.0380436,0.25335,0.63621
88.308,17.48205,-0.03806752,0.25693,0.63645
88.908,17.54692,-0.03773037,0.26002,0.63668
89.508,17.61133,-0.03806962,0.26045,0.63692
90.108,17.67577,-0.03871095,0.26118,0.63716
90.708,17.7398,-0.04070012,0.26362,0.63739
91.308,17.80351,-0.04200614,0.26792,0.63762
91.908,17.8669,-0.04195089,0.26722,0.63785
92.508,17.9302,-0.04135909,0.27302,0.63808
93.108,17.99345,-0.04199624,0.26949,0.63831
93.708,18.05625,-0.04332844,0.27308,0.63854
94.308,18.11894,-0.04328029,0.27305,0.63876
94.908,18.1814,-0.04465814,0.2764,0.63899
95.508,18.24324,-0.04597048,0.2781,0.63921
96.108,18.3053,-0.04597,0.27531,0.63943
96.708,18.36717,-0.04596352,0.27906,0.63966
97.308,18.4296,-0.04727988,0.28304,0.63988
97.908,18.4915,-0.04624931,0.28172,0.64009
98.508,18.5531,-0.04642935,0.28476,0.64031
99.108,18.61425,-0.04898141,0.28705,0.64053
99.708,18.67513,-0.04892998,0.2906,0.64074
100.308,18.7361,-0.0488338,0.29177,0.64096
100.908,18.79675,-0.05024989,0.29129,0.64117
101.508,18.85755,-0.05137217,0.29108,0.64138
102.108,18.91832,-0.05253125,0.28956,0.64159
102.708,18.97899,-0.05122933,0.29466,0.6418
103.308,19.0396,-0.05122996,0.29568,0.642
103.908,19.0997,-0.0515617,0.2983,0.64221
104.508,19.15975,-0.05287917,0.29459,0.64241
105.108,19.2197,-0.05420035,0.29661,0.64262
105.708,19.27969,-0.0542,0.2983,0.64282
106.308,19.33899,-0.05420004,0.2981,0.64302
106.908,19.39874,-0.05474558,0.30252,0.64322
107.508,19.45815,-0.05469664,0.3007,0.64342
108.108,19.51768,-0.05419962,0.30308,0.64361
108.708,19.57752,-0.05549878,0.30197,0.64381
109.308,19.63694,-0.05682455,0.30205,0.644
109.908,19.6961,-0.05681377,0.30787,0.6442
110.508,19.75525,-0.05644549,0.30305,0.64439
111.108,19.81435,-0.05682018,0.30772,0.64458
111.708,19.87333,-0.05682012,0.30304,0.64477
112.308,19.93236,-0.05843891,0.30666,0.64496
112.908,19.99136,-0.05847352,0.30178,0.64514
113.508,20.05012,-0.05978026,0.30509,0.64533
114.108,20.1089,-0.059778,0.3027,0.64551
114.708,20.16749,-0.06109303,0.30169,0.6457
115.308,20.2259,-0.06109999,0.30273,0.64588
115.908,20.28426,-0.06109424,0.30444,0.64606
116.508,20.34273,-0.06241823,0.30428,0.64624
117.108,20.4011,-0.06242019,0.30272,0.64642
117.708,20.45955,-0.06401886,0.30628,0.64659
118.308,20.5175,-0.06502695,0.29859,0.64677
118.908,20.57537,-0.06373953,0.30282,0.64694
119.508,20.63317,-0.06374437,0.30619,0.64712
120.108,20.6907,-0.06631359,0.30429,0.64729
120.708,20.7486,-0.06505004,0.30476,0.64746
121.308,20.8067,-0.06506339,0.30684,0.64763
121.908,20.8645,-0.06641734,0.30344,0.6478
122.508,20.9222,-0.06768045,0.30303,0.64796
123.108,20.98,-0.06767875,0.30468,0.64813
123.708,21.03748,-0.06844747,0.30439,0.64829
124.308,21.0951,-0.06735196,0.30438,0.64845
124.908,21.15239,-0.06734668,0.30582,0.64862
125.508,21.20969,-0.06866322,0.30557,0.64878
126.108,21.26695,-0.06965071,0.3094,0.64894
126.708,21.32374,-0.06957754,0.30383,0.64909
127.308,21.3807,-0.07096995,0.30843,0.64925
127.908,21.4375,-0.07097401,0.30724,0.64941
128.508,21.4944,-0.06998432,0.30842,0.64956
129.108,21.55126,-0.06998604,0.30711,0.64971
129.708,21.60793,-0.07129983,0.30593,0.64986
130.308,21.66461,-0.07162069,0.30623,0.65001
130.908,21.72104,-0.07205457,0.30495,0.65016
131.508,21.77731,-0.07285017,0.30544,0.65031
132.108,21.83372,-0.07390344,0.30441,0.65046
132.708,21.88973,-0.07525017,0.30409,0.6506
133.308,21.94586,-0.07525,0.30626,0.65075
133.908,22.00202,-0.07524999,0.30227,0.65089
134.508,22.0581,-0.0752701,0.29952,0.65103
135.108,22.11415,-0.07657048,0.30204,0.65117
135.708,22.1701,-0.07656999,0.30141,0.65131
136.308,22.2258,-0.07795951,0.30203,0.65145
136.908,22.2817,-0.07788003,0.30355,0.65159
137.508,22.33754,-0.07788,0.30183,0.65172
138.108,22.39331,-0.07788,0.30379,0.65186
138.708,22.44891,-0.07788037,0.30325,0.65199
139.308,22.50445,-0.07822477,0.30281,0.65212
139.908,22.55988,-0.0808395,0.30274,0.65225
140.508,22.61526,-0.07958978,0.29725,0.65238
141.108,22.6707,-0.07952997,0.30036,0.65251
141.708,22.72606,-0.07987212,0.29602,0.65264
142.308,22.78151,-0.08084018,0.29657,0.65276
142.908,22.83684,-0.08082836,0.29847,0.65289
143.508,22.89199,-0.08097196,0.29402,0.65301
144.108,22.9471,-0.08123208,0.29239,0.65313
144.708,23.0021,-0.08227495,0.29427,0.65325
145.308,23.05721,-0.08324747,0.29162,0.65337
145.908,23.11245,-0.08325,0.29412,0.65349
146.508,23.1675,-0.08325,0.29469,0.65361
147.108,23.22243,-0.08325,0.29176,0.65372
147.708,23.27721,-0.08325001,0.29482,0.65384
148.308,23.332,-0.08325528,0.29221,0.65395
148.908,23.3868,-0.08456095,0.29465,0.65406
149.508,23.44158,-0.08456999,0.29275,0.65417
150.108,23.49641,-0.08457186,0.29566,0.65428
150.708,23.55101,-0.0858935,0.29075,0.65439
151.308,23.6056,-0.08588999,0.29273,0.6545
151.908,23.66023,-0.08589,0.29572,0.6546
152.508,23.71484,-0.08589,0.29287,0.65471
153.108,23.76934,-0.08589,0.29503,0.65481
153.708,23.82387,-0.08589067,0.29075,0.65491
154.308,23.87831,-0.08594619,0.29148,0.65501
154.908,23.93265,-0.08676621,0.29449,0.65511
155.508,23.98705,-0.08720015,0.2933,0.65521
156.108,24.04139,-0.0872,0.2947,0.65531
156.708,24.09589,-0.0872,0.2948,0.6554
157.308,24.1505,-0.0872,0.29757,0.6555
157.908,24.20491,-0.0872,0.29715,0.65559
158.508,24.2593,-0.08720157,0.29649,0.65569
159.108,24.31304,-0.08819429,0.29854,0.65578
159.708,24.36733,-0.08817117,0.29299,0.65587
160.308,24.42139,-0.08754089,0.29654,0.65596
160.908,24.47578,-0.08754,0.29645,0.65604
161.508,24.53085,-0.08753996,0.29634,0.65613
162.108,24.58521,-0.08781956,0.29771,0.65621
162.708,24.63952,-0.08884992,0.29757,0.6563
163.308,24.69386,-0.08885,0.29787,0.65638
163.908,24.74812,-0.08885,0.29393,0.65646
164.508,24.80234,-0.08884975,0.29702,0.65654
165.108,24.85693,-0.0902306,0.29698,0.65662
165.708,24.9113,-0.09017062,0.29262,0.6567
166.308,24.96557,-0.08984821,0.29452,0.65678
166.908,25.02001,-0.08984,0.28904,0.65685
167.508,25.0744,-0.08984001,0.28986,0.65693
168.108,25.12848,-0.08983523,0.29457,0.657
168.708,25.1822,-0.09115844,0.29021,0.65707
169.308,25.23631,-0.09116,0.29243,0.65714
169.908,25.2905,-0.09116,0.29468,0.65721
170.508,25.34466,-0.09115672,0.29284,0.65728
171.108,25.39926,-0.09247638,0.29615,0.65735
171.708,25.45326,-0.09147448,0.29603,0.65741
172.308,25.5073,-0.09038581,0.29556,0.65748
172.908,25.56136,-0.09062576,0.29509,0.65754
173.508,25.6155,-0.09149482,0.29863,0.6576
174.108,25.66965,-0.09012268,0.29589,0.65766
174.708,25.7237,-0.0826167,0.29557,0.65772
175.308,25.77773,-0.10082,0.29891,0.65778
175.908,25.83172,-0.09583911,0.29733,0.65784
176.508,25.88587,-0.09337435,0.29795,0.6579
177.108,25.93994,-0.09378595,0.29596,0.65795
177.708,25.994,-0.09307875,0.30006,0.658
178.308,26.04792,-0.09429321,0.29772,0.65806
178.908,26.10191,-0.09445883,0.29599,0.65811
179.508,26.15585,-0.09251384,0.29409,0.65816
180.108,26.20983,-0.09115981,0.29558,0.65821
180.708,26.26383,-0.09133536,0.29831,0.65826
181.308,26.31772,-0.0924604,0.29421,0.6583
181.908,26.3716,-0.09508816,0.29461,0.65835
182.508,26.42547,-0.09381244,0.29682,0.65839
183.108,26.4794,-0.09379867,0.29594,0.65844
183.708,26.53296,-0.094778,0.29547,0.65848
184.308,26.5867,-0.09477993,0.29716,0.65852
184.908,26.64023,-0.09477246,0.29808,0.65856
185.508,26.69395,-0.09481732,0.29639,0.6586
186.108,26.7481,-0.09609146,0.29669,0.65864
186.708,26.8019,-0.09472987,0.29773,0.65867
187.308,26.85598,-0.09477006,0.29828,0.65871
187.908,26.90935,-0.09477,0.30073,0.65874
188.508,26.96288,-0.09477,0.29899,0.65877
189.108,27.01645,-0.09477,0.29715,0.65881
189.708,27.07007,-0.09477,0.29765,0.65884
190.308,27.12388,-0.09477,0.29882,0.65887
190.908,27.17731,-0.09476996,0.29886,0.65889
191.508,27.23072,-0.09475649,0.29863,0.65892
192.108,27.28417,-0.09583766,0.29841,0.65895
192.708,27.33772,-0.09444982,0.29838,0.65897
193.308,27.3913,-0.09444999,0.29851,0.65899
193.908,27.44492,-0.09447377,0.30247,0.65902
194.508,27.49835,-0.09575941,0.29877,0.65904
195.108,27.55169,-0.09574845,0.3002,0.65906
195.708,27.60505,-0.0960822,0.30107,0.65908
196.308,27.65823,-0.09705985,0.29882,0.65909
196.908,27.71145,-0.09576758,0.30146,0.65911
197.508,27.76476,-0.09577001,0.30219,0.65913
198.108,27.81803,-0.09576541,0.30435,0.65914
198.708,27.8714,-0.09609935,0.30341,0.65915
199.308,27.92476,-0.09565362,0.30473,0.65917
199.908,27.97822,-0.09477466,0.30254,0.65918
200.508,28.03156,-0.0960964,0.30386,0.65919
201.108,28.085,-0.09739864,0.30495,0.6592
201.708,28.13855,-0.09606325,0.30641,0.6592
202.308,28.19185,-0.09689304,0.30585,0.65921
202.908,28.2451,-0.09737581,0.30936,0.65921
203.508,28.2984,-0.09729717,0.30649,0.65922
204.108,28.35176,-0.09740973,0.30706,0.65922
204.708,28.40502,-0.0978686,0.31048,0.65922
205.308,28.45828,-0.09954668,0.30719,0.65922
205.908,28.5116,-0.10004,0.30849,0.65922
206.508,28.5649,-0.09990563,0.31095,0.65922
207.108,28.61826,-0.09872121,0.3108,0.65922
207.708,28.6717,-0.09879646,0.31036,0.65922
208.308,28.72482,-0.09872988,0.31282,0.65921
208.908,28.7781,-0.09873,0.31275,0.6592
209.508,28.8315,-0.09872999,0.31287,0.6592
210.108,28.88498,-0.09874262,0.31415,0.65919
210.708,28.9386,-0.10004,0.31378,0.65918
211.308,28.99215,-0.10004,0.31496,0.65917
211.908,29.04565,-0.09935453,0.31782,0.65916
212.508,29.0991,-0.09905013,0.3165,0.65915
213.108,29.15258,-0.09904645,0.31628,0.65913
213.708,29.20597,-0.10037,0.31869,0.65912
214.308,29.25927,-0.10036,0.3165,0.6591
214.908,29.3125,-0.10036,0.31859,0.65908
215.508,29.3659,-0.10036,0.31713,0.65906
216.108,29.41927,-0.10163,0.31608,0.65905
216.708,29.47281,-0.10169,0.32109,0.65903
217.308,29.52645,-0.10069,0.32197,0.659
217.908,29.5799,-0.10069,0.32009,0.65898
218.508,29.6333,-0.10063,0.31787,0.65896
219.108,29.6868,-0.10201,0.31867,0.65893
219.708,29.74036,-0.10201,0.32338,0.65891
220.308,29.7934,-0.10338,0.32274,0.65888
220.908,29.84696,-0.10324,0.3235,0.65885
221.508,29.90042,-0.10465,0.32137,0.65882
222.108,29.9539,-0.10334,0.322,0.65879
222.708,30.00784,-0.10354,0.32263,0.65876
223.308,30.06135,-0.10432,0.32594,0.65873
223.908,30.1149,-0.10569,0.32673,0.65869
224.508,30.1683,-0.10568,0.32975,0.65866
225.108,30.22164,-0.10433,0.32646,0.65862
225.708,30.27515,-0.10564,0.32728,0.65859
226.308,30.3286,-0.10564,0.32734,0.65855
226.908,30.38205,-0.10564,0.32494,0.65851
227.508,30.43569,-0.10599,0.32487,0.65847
228.108,30.4891,-0.10662,0.32513,0.65843
228.708,30.54253,-0.10662,0.32502,0.65839
229.308,30.59592,-0.10662,0.32513,0.65834
229.908,30.6493,-0.10696,0.32588,0.6583
230.508,30.7028,-0.10727,0.32608,0.65825
231.108,30.7564,-0.10727,0.32697,0.65821
231.708,30.80963,-0.10725,0.32886,0.65816
232.308,30.8627,-0.10859,0.32935,0.65811
232.908,30.9161,-0.10894,0.32806,0.65806
233.508,30.9695,-0.10991,0.32833,0.65801
234.108,31.0233,-0.10991,0.328,0.65796
234.708,31.0772,-0.10991,0.33281,0.65791
235.308,31.1305,-0.10991,0.32979,0.65785
235.908,31.1841,-0.11091,0.32771,0.6578
236.508,31.2376,-0.11254,0.32724,0.65774
237.108,31.291,-0.11255,0.33076,0.65769
237.708,31.3445,-0.11295,0.33365,0.65763
238.308,31.39775,-0.11386,0.33357,0.65757
238.908,31.45092,-0.11386,0.33246,0.65751
239.508,31.50439,-0.11381,0.33293,0.65745
240.108,31.55782,-0.11284,0.33566,0.65739
240.708,31.6113,-0.11441,0.33362,0.65732
241.308,31.6647,-0.11545,0.33535,0.65726
241.908,31.7182,-0.11573,0.33409,0.65719
242.508,31.77175,-0.11618,0.33319,0.65713
243.108,31.8252,-0.11803,0.33578,0.65706
243.708,31.8787,-0.11802,0.33311,0.65699
244.308,31.93215,-0.11802,0.33384,0.65692
244.908,31.9857,-0.11797,0.33693,0.65685
245.508,32.03924,-0.11934,0.33917,0.65678
246.108,32.09271,-0.11934,0.33673,0.65671
246.708,32.14626,-0.1197,0.3374,0.65663
247.308,32.19958,-0.12066,0.3374,0.65656
247.908,32.25308,-0.12066,0.33908,0.65648
248.508,32.30656,-0.12313,0.34037,0.65641
249.108,32.36013,-0.1233,0.3416,0.65633
249.708,32.41369,-0.12461,0.34096,0.65625
250.308,32.46728,-0.12037,0.33676,0.65617
250.908,32.52087,-0.1268,0.33635,0.65609
251.508,32.57435,-0.13202,0.34133,0.65601
252.108,32.62792,-0.12923,0.34018,0.65593
252.708,32.68148,-0.12921,0.34112,0.65585
253.308,32.73496,-0.12855,0.34146,0.65576
253.908,32.78855,-0.12931,0.33813,0.65568
254.508,32.84219,-0.13117,0.33936,0.65559
255.108,32.89571,-0.13242,0.33742,0.6555
255.708,32.9494,-0.13382,0.33632,0.65541
256.308,33.00308,-0.13511,0.33504,0.65532
256.908,33.0565,-0.13513,0.33443,0.65523
257.508,33.11006,-0.13679,0.33803,0.65514
258.108,33.1631,-0.13779,0.3327,0.65505
258.708,33.21647,-0.13928,0.33547,0.65496
259.308,33.2701,-0.13953,0.32986,0.65486
259.908,33.3238,-0.14095,0.33372,0.65477
260.508,33.37798,-0.14103,0.33292,0.65467
261.108,33.43169,-0.14326,0.33303,0.65457
261.708,33.48478,-0.14621,0.33171,0.65447
262.308,33.53842,-0.14742,0.33099,0.65438
262.908,33.59198,-0.14693,0.32789,0.65428
263.508,33.64567,-0.14898,0.32305,0.65417
264.108,33.69984,-0.15049,0.32578,0.65407
264.708,33.7534,-0.15257,0.32184,0.65397
265.308,33.8072,-0.15465,0.3194,0.65387
265.908,33.86087,-0.15552,0.32173,0.65376
266.508,33.91455,-0.15686,0.31535,0.65365
267.108,33.96836,-0.1582,0.3148,0.65355
267.708,34.02186,-0.15952,0.31215,0.65344
268.308,34.07547,-0.15999,0.30832,0.65333
268.908,34.12914,-0.16161,0.31016,0.65322
269.508,34.18258,-0.16523,0.30554,0.65311
270.108,34.23635,-0.16666,0.30515,0.653
270.708,34.29014,-0.16806,0.30544,0.65289
271.308,34.34377,-0.17017,0.30126,0.65277
271.908,34.39758,-0.17347,0.30301,0.65266
272.508,34.4512,-0.17569,0.29767,0.65254
273.108,34.50488,-0.17843,0.29691,0.65243
273.708,34.5589,-0.18008,0.29627,0.65231
274.308,34.61261,-0.18297,0.29149,0.65219
274.908,34.6664,-0.1845,0.28993,0.65207
275.508,34.72017,-0.18879,0.28728,0.65195
276.108,34.77382,-0.19076,0.28806,0.65183
276.708,34.82761,-0.19373,0.28139,0.65171
277.308,34.8814,-0.19664,0.2808,0.65159
277.908,34.93517,-0.19921,0.27558,0.65146
278.508,34.98914,-0.20123,0.27176,0.65134
279.108,35.04509,-0.20558,0.27269,0.65121
279.708,35.1017,-0.20886,0.27134,0.65109
280.308,35.15814,-0.21176,0.26768,0.65096
280.908,35.2144,-0.21537,0.26378,0.65083
281.508,35.26838,-0.21843,0.26015,0.6507
282.108,35.32225,-0.22216,0.25946,0.65057
282.708,35.3757,-0.21273,0.25806,0.65044
283.308,35.42951,-0.24335,0.25205,0.65031
283.908,35.48338,-0.23455,0.25392,0.65018
284.508,35.5374,-0.23905,0.25192,0.65004
285.108,35.59189,-0.24122,0.24894,0.64991
285.708,35.6458,-0.24604,0.2443,0.64977
286.308,35.69962,-0.2492,0.24387,0.64964
286.908,35.75343,-0.25321,0.2418,0.6495
287.508,35.80727,-0.25924,0.23918,0.64936
288.108,35.86114,-0.2637,0.23609,0.64922
288.708,35.915,-0.2676,0.23457,0.64908
289.308,35.969,-0.27213,0.23479,0.64894
289.908,36.0229,-0.27877,0.23336,0.6488
290.508,36.07692,-0.28402,0.23144,0.64866
291.108,36.13105,-0.28902,0.23046,0.64852
291.708,36.18507,-0.29471,0.22646,0.64837
292.308,36.23914,-0.30185,0.22516,0.64823
292.908,36.2932,-0.30727,0.22452,0.64808
293.508,36.34726,-0.31424,0.22646,0.64793
294.108,36.4014,-0.31897,0.22313,0.64779
294.708,36.45545,-0.32582,0.22299,0.64764
295.308,36.50951,-0.33315,0.22022,0.64749
295.908,36.56342,-0.33828,0.22253,0.64734
296.508,36.6173,-0.34528,0.22061,0.64719
297.108,36.67138,-0.35204,0.22199,0.64704
297.708,36.72541,-0.36127,0.2224,0.64688
298.308,36.7795,-0.36841,0.21899,0.64673
298.908,36.8334,-0.37673,0.22279,0.64657
299.508,36.88756,-0.38454,0.22448,0.64642
300.108,36.94177,-0.39405,0.22282,0.64626
300.708,36.99595,-0.39983,0.22231,0.64611
301.308,37.05038,-0.40799,0.22321,0.64595
301.908,37.10422,-0.41696,0.22314,0.64579
302.508,37.1584,-0.42645,0.22439,0.64563
303.108,37.21269,-0.43355,0.22089,0.64547
303.708,37.26682,-0.44429,0.22059,0.64531
304.308,37.32115,-0.45264,0.22471,0.64515
304.908,37.37543,-0.46222,0.22289,0.64498
305.508,37.4296,-0.47203,0.22551,0.64482
306.108,37.48382,-0.48373,0.22458,0.64466
306.708,37.53815,-0.49369,0.22796,0.64449
307.308,37.59239,-0.50339,0.22512,0.64433
307.908,37.64674,-0.51566,0.23056,0.64416
308.508,37.70097,-0.52987,0.22627,0.64399
309.108,37.7553,-0.5399,0.22766,0.64382
309.708,37.80948,-0.55185,0.22723,0.64365
310.308,37.8637,-0.56357,0.22751,0.64348
310.908,37.91802,-0.57727,0.23095,0.64331
311.508,37.97204,-0.58948,0.22652,0.64314
312.108,38.02649,-0.60307,0.22578,0.64297
312.708,38.08039,-0.61653,0.23041,0.6428
313.308,38.13455,-0.63195,0.22792,0.64262
313.908,38.189,-0.64517,0.22538,0.64245
314.508,38.24334,-0.66102,0.22793,0.64227
315.108,38.29803,-0.67672,0.22529,0.6421
315.708,38.35243,-0.69309,0.22454,0.64192
316.308,38.40687,-0.71023,0.22319,0.64174
316.908,38.46116,-0.7274,0.22357,0.64156
317.508,38.51558,-0.74397,0.22491,0.64138
318.108,38.56994,-0.76196,0.22549,0.6412
318.708,38.6242,-0.78297,0.22479,0.64102
319.308,38.67856,-0.8007,0.22343,0.64084
319.908,38.73301,-0.81915,0.22337,0.64066
320.508,38.78757,-0.84213,0.22257,0.64047
321.108,38.84218,-0.86241,0.22099,0.64029
321.708,38.8966,-0.88386,0.222,0.6401
322.308,38.9512,-0.90729,0.21753,0.63992
322.908,39.00555,-0.92931,0.21972,0.63973
323.508,39.0599,-0.95194,0.21783,0.63955
324.108,39.11421,-0.97524,0.21708,0.63936
324.708,39.16837,-0.99983,0.21655,0.63917
325.308,39.22262,-1.02749,0.21828,0.63898
325.908,39.27695,-1.05293,0.21545,0.63879
326.508,39.33137,-1.08084,0.21806,0.6386
327.108,39.38605,-1.10734,0.21576,0.63841
327.708,39.4407,-1.13563,0.21777,0.63822
328.308,39.4953,-1.16509,0.21545,0.63802
328.908,39.54975,-1.19328,0.21625,0.63783
329.508,39.60425,-1.22266,0.21602,0.63763
330.108,39.65865,-1.25563,0.21655,0.63744
330.708,39.71313,-1.28625,0.21681,0.63724
331.308,39.76777,-1.31767,0.21859,0.63705
331.908,39.82217,-1.3504,0.22376,0.63685
332.508,39.87664,-1.38027,0.22417,0.63665
333.108,39.93128,-1.4155,0.22972,0.63645
333.708,39.98587,-1.44992,0.23659,0.63625
334.308,40.0406,-1.48303,0.23907,0.63605
334.908,40.09537,-1.51828,0.24596,0.63585
335.508,40.15003,-1.55109,0.24588,0.63565
336.108,40.2047,-1.5851,0.25212,0.63545
336.708,40.25949,-1.61963,0.25916,0.63525
337.308,40.31434,-1.65332,0.26279,0.63504
337.908,40.36923,-1.68721,0.26871,0.63484
338.508,40.42437,-1.72196,0.27116,0.63463
339.108,40.47933,-1.75558,0.27565,0.63443
339.708,40.5342,-1.78925,0.284,0.63422
340.308,40.5892,-1.8235,0.28773,0.63401
340.908,40.6442,-1.85652,0.29004,0.63381
341.508,40.69925,-1.89088,0.2922,0.6336
342.108,40.75437,-1.92104,0.29683,0.63339
342.708,40.80958,-1.95434,0.29961,0.63318
343.308,40.8647,-1.98574,0.30321,0.63297
343.908,40.92,-2.01778,0.29974,0.63276
344.508,40.9752,-2.04637,0.30602,0.63255
345.108,41.03042,-2.07566,0.30513,0.63233
345.708,41.08566,-2.10448,0.30549,0.63212
346.308,41.1408,-2.1316,0.30519,0.63191
346.908,41.19608,-2.15893,0.30748,0.63169
347.508,41.25144,-2.1849,0.30845,0.63148
348.108,41.30683,-2.21186,0.30244,0.63126
348.708,41.3623,-2.23783,0.302,0.63104
349.308,41.4176,-2.26212,0.30308,0.63083
349.908,41.47273,-2.28461,0.3022,0.63061
350.508,41.52782,-2.30631,0.30046,0.63039
351.108,41.5831,-2.32879,0.2968,0.63017
351.708,41.6385,-2.34869,0.28967,0.62995
352.308,41.69403,-2.36962,0.28982,0.62973
352.908,41.74948,-2.38618,0.28575,0.62951
353.508,41.8048,-2.40557,0.27839,0.62929
354.108,41.86016,-2.42368,0.27482,0.62907
354.708,41.9155,-2.43944,0.26879,0.62884
355.308,41.971,-2.45297,0.26124,0.62862
355.908,42.02647,-2.46681,0.25222,0.6284
356.508,42.08194,-2.48333,0.2486,0.62817
357.108,42.13736,-2.49714,0.23917,0.62795
357.708,42.1927,-2.51277,0.2331,0.62772
358.308,42.24794,-2.52415,0.22375,0.62749
358.908,42.30317,-2.53521,0.21918,0.62727
359.508,42.3583,-2.54631,0.21118,0.62704
360.108,42.41341,-2.55751,0.20134,0.62681
360.708,42.4687,-2.56631,0.19152,0.62658
361.308,42.52408,-2.57355,0.18367,0.62635
361.908,42.57949,-2.58333,0.17336,0.62612
362.508,42.63493,-2.59115,0.16612,0.62589
363.108,42.68979,-2.59933,0.15821,0.62566
363.708,42.74515,-2.60579,0.14645,0.62543
364.308,42.8004,-2.61355,0.14457,0.62519
364.908,42.8557,-2.61941,0.13595,0.62496
365.508,42.9114,-2.62435,0.12746,0.62473
366.108,42.96671,-2.62889,0.12026,0.62449
366.708,43.02197,-2.63317,0.11453,0.62426
367.308,43.07735,-2.63856,0.10694,0.62402
367.908,43.1327,-2.64343,0.09844026,0.62379
368.508,43.1877,-2.64685,0.08951195,0.62355
369.108,43.24305,-2.65176,0.08780646,0.62331
369.708,43.29844,-2.65696,0.08171542,0.62307
370.308,43.35391,-2.6577,0.07960299,0.62284
370.908,43.4097,-2.6602,0.07399481,0.6226
371.508,43.46525,-2.66249,0.07201632,0.62236
372.108,43.5206,-2.66528,0.07002275,0.62212
372.708,43.57591,-2.66876,0.06535453,0.62188
373.308,43.63134,-2.67188,0.06039265,0.62164
373.908,43.6868,-2.67467,0.06110065,0.62139
374.508,43.74222,-2.6749,0.05897008,0.62115
375.108,43.79777,-2.67758,0.06158924,0.62091
375.708,43.85326,-2.68055,0.05578553,0.62067
376.308,43.90872,-2.6822,0.05796333,0.62042
376.908,43.96433,-2.68547,0.05461798,0.62018
377.508,44.01979,-2.68666,0.05666734,0.61993
378.108,44.07546,-2.68807,0.05726947,0.61969
378.708,44.1312,-2.68956,0.05626948,0.61944
379.308,44.1869,-2.69105,0.05599769,0.61919
379.908,44.2427,-2.694,0.056978,0.61895
380.508,44.29806,-2.69684,0.05623929,0.6187
381.108,44.35375,-2.69813,0.05530687,0.61845
381.708,44.4095,-2.69949,0.05212797,0.6182
382.308,44.4653,-2.6988,0.05205539,0.61795
382.908,44.5214,-2.70171,0.05234751,0.6177
383.508,44.57728,-2.71078,0.05495169,0.61745
384.108,44.63309,-2.70925,0.05484361,0.6172
384.708,44.68919,-2.70925,0.05323113,0.61695
385.308,44.74512,-2.71145,0.05328134,0.6167
385.908,44.80105,-2.71265,0.05620612,0.61645
386.508,44.85711,-2.7141,0.05507392,0.6162
387.108,44.9129,-2.71702,0.05145043,0.61594
387.708,44.9687,-2.71999,0.05330087,0.61569
388.308,45.02478,-2.72131,0.05543343,0.61543
388.908,45.0807,-2.72263,0.05327984,0.61518
389.508,45.1367,-2.72276,0.05199355,0.61492
390.108,45.1928,-2.72636,0.05407211,0.61467
390.708,45.2488,-2.7279,0.05243805,0.61441
391.308,45.30495,-2.72919,0.05147259,0.61416
391.908,45.36088,-2.73053,0.05320623,0.6139
392.508,45.41621,-2.73179,0.05453441,0.61364
393.108,45.47215,-2.73312,0.05154771,0.61338
393.708,45.52825,-2.73577,0.0499237,0.61312
394.308,45.5844,-2.73667,0.05463156,0.61286
394.908,45.64089,-2.73709,0.04762191,0.61261
395.508,45.69689,-2.73965,0.0526812,0.61235
396.108,45.753,-2.74159,0.04505487,0.61208
396.708,45.8093,-2.74301,0.0460356,0.61182
397.308,45.86533,-2.74599,0.04454909,0.61156
397.908,45.9214,-2.74697,0.04273046,0.6113
398.508,45.9775,-2.74876,0.04789707,0.61104
399.108,46.0336,-2.75138,0.04656572,0.61078
399.708,46.0898,-2.75137,0.04662332,0.61051
400.308,46.14595,-2.75167,0.04496328,0.61025
400.908,46.20213,-2.75367,0.04920824,0.60998
401.508,46.25826,-2.75531,0.04671525,0.60972
402.108,46.31447,-2.75754,0.04249917,0.60946
402.708,46.37077,-2.76105,0.04453569,0.60919
403.308,46.4271,-2.76103,0.04155798,0.60892
403.908,46.48346,-2.76251,0.04161856,0.60866
404.508,46.53971,-2.76311,0.0375499,0.60839
405.108,46.59597,-2.76341,0.04575834,0.60812
405.708,46.6522,-2.76731,0.04272902,0.60786
406.308,46.70864,-2.76884,0.04119441,0.60759
406.908,46.76491,-2.7694,0.04116342,0.60732
407.508,46.8212,-2.77159,0.04055805,0.60705
408.108,46.8776,-2.77376,0.03819081,0.60678
408.708,46.93395,-2.77463,0.03838942,0.60651
409.308,46.99057,-2.77726,0.04055501,0.60624
409.908,47.04707,-2.77855,0.03906194,0.60597
410.508,47.10358,-2.78014,0.03613748,0.6057
411.108,47.15997,-2.78198,0.03448002,0.60543
411.708,47.2164,-2.78198,0.03521912,0.60516
412.308,47.2729,-2.78336,0.03570173,0.60489
412.908,47.32946,-2.78588,0.03517902,0.60461
413.508,47.3861,-2.7876,0.03793253,0.60434
414.108,47.4426,-2.78911,0.03346226,0.60407
414.708,47.49927,-2.79042,0.03396979,0.60379
415.308,47.55587,-2.79172,0.03580358,0.60352
415.908,47.61244,-2.79436,0.03752176,0.60325
416.508,47.66904,-2.79597,0.03925896,0.60297
417.108,47.72575,-2.79791,0.03733627,0.6027
417.708,47.7826,-2.79864,0.03710568,0.60242
418.308,47.83928,-2.79997,0.03847914,0.60214
418.908,47.89611,-2.80137,0.03662387,0.60187
419.508,47.95265,-2.80493,0.03664632,0.60159
420.108,48.00931,-2.80545,0.03502066,0.60131
420.708,48.06582,-2.80675,0.03865799,0.60104
421.308,48.12256,-2.80852,0.03985506,0.60076
421.908,48.1792,-2.8106,0.04085008,0.60048
422.508,48.23572,-2.80916,0.04181158,0.6002
423.108,48.29273,-2.80793,0.03713958,0.59992
423.708,48.34944,-2.82019,0.03685702,0.59964
424.308,48.40641,-2.81793,0.03870803,0.59936
424.908,48.46315,-2.81795,0.0397498,0.59908
425.508,48.5197,-2.81795,0.03927591,0.5988
426.108,48.57648,-2.81897,0.04172048,0.59852
426.708,48.63337,-2.82051,0.03799053,0.59824
427.308,48.68991,-2.82201,0.03817842,0.59796
427.908,48.7468,-2.82357,0.0388948,0.59768
428.508,48.8033,-2.82476,0.04156568,0.5974
429.108,48.85999,-2.82618,0.0385635,0.59712
429.708,48.9169,-2.82812,0.03746046,0.59683
430.308,48.97372,-2.82978,0.03469769,0.59655
430.908,49.03049,-2.83187,0.0353914,0.59627
431.508,49.08724,-2.83454,0.03362969,0.59598
432.108,49.14412,-2.83487,0.03632704,0.5957
432.708,49.20086,-2.83586,0.03773285,0.59542
433.308,49.25772,-2.83579,0.03248541,0.59513
433.908,49.31447,-2.83817,0.03346441,0.59485
434.508,49.37138,-2.83981,0.04006711,0.59456
435.108,49.42843,-2.84062,0.04141436,0.59428
435.708,49.48547,-2.84367,0.03719021,0.59399
436.308,49.54265,-2.84525,0.03850577,0.5937
436.908,49.5996,-2.84765,0.03845837,0.59342
437.508,49.65659,-2.83816,0.03740058,0.59313
438.108,49.7136,-2.86004,0.03765204,0.59284
438.708,49.77061,-2.85465,0.03957952,0.59256
439.308,49.82784,-2.85504,0.04017683,0.59227
439.908,49.885,-2.85504,0.04007397,0.59198
440.508,49.94212,-2.85687,0.04028955,0.59169
441.108,49.9992,-2.85765,0.03565749,0.59141
441.708,50.05628,-2.85776,0.03447674,0.59112
442.308,50.11318,-2.86039,0.04438428,0.59083
442.908,50.17002,-2.85996,0.04692083,0.59054
443.508,50.22705,-2.86148,0.04715581,0.59025
444.108,50.28416,-2.86265,0.04444117,0.58996
444.708,50.34158,-2.86442,0.04202591,0.58967
445.308,50.39884,-2.86562,0.04437036,0.58938
445.908,50.45603,-2.86719,0.0472278,0.58909
446.508,50.5132,-2.86756,0.04551312,0.5888
447.108,50.57046,-2.86876,0.04395069,0.58851
447.708,50.62758,-2.87131,0.04237053,0.58821
448.308,50.6849,-2.87354,0.03765785,0.58792
448.908,50.74203,-2.87396,0.03749603,0.58763
449.508,50.79947,-2.87532,0.04271393,0.58734
450.108,50.8568,-2.87598,0.04112966,0.58705
450.708,50.9142,-2.87668,0.04108343,0.58675
451.308,50.9715,-2.8806,0.04184548,0.58646
451.908,51.02887,-2.88225,0.0424252,0.58617
452.508,51.08631,-2.88323,0.04243937,0.58587
453.108,51.14396,-2.88374,0.04308124,0.58558
453.708,51.20155,-2.88534,0.04309269,0.58529
454.308,51.25928,-2.88618,0.04601072,0.58499
454.908,51.31695,-2.8875,0.04413075,0.5847
455.508,51.3746,-2.88902,0.04377669,0.5844
456.108,51.43207,-2.89024,0.04762985,0.58411
456.708,51.48963,-2.89155,0.04846469,0.58381
457.308,51.54707,-2.89357,0.05071467,0.58352
457.908,51.6047,-2.8941,0.05324364,0.58322
458.508,51.6623,-2.89548,0.04914744,0.58293
459.108,51.71993,-2.89714,0.04893967,0.58263
459.708,51.7776,-2.89816,0.05211152,0.58234
460.308,51.83511,-2.89956,0.05424009,0.58204
460.908,51.89269,-2.90086,0.05165869,0.58174
461.508,51.95032,-2.90219,0.05160884,0.58145
462.108,52.008,-2.90219,0.05673851,0.58115
462.708,52.06572,-2.90351,0.05687398,0.58085
463.308,52.12325,-2.90483,0.05358467,0.58056
463.908,52.18071,-2.90613,0.05368786,0.58026
464.508,52.23826,-2.90755,0.05674844,0.57996
465.108,52.2958,-2.91029,0.0581412,0.57966
465.708,52.3534,-2.91157,0.05704807,0.57936
466.308,52.41087,-2.91122,0.05790404,0.57907
466.908,52.4685,-2.91152,0.06089509,0.57877
467.508,52.52601,-2.91285,0.06224347,0.57847
468.108,52.5836,-2.91416,0.06715189,0.57817
468.708,52.6412,-2.91655,0.06583948,0.57787
469.308,52.69869,-2.91813,0.06722076,0.57757
469.908,52.7563,-2.91943,0.06491759,0.57727
470.508,52.8138,-2.92084,0.06770037,0.57697
471.108,52.87145,-2.92215,0.06701705,0.57667
471.708,52.929,-2.92347,0.06661327,0.57637
472.308,52.98686,-2.92336,0.06901516,0.57607
472.908,53.04444,-2.92438,0.06883867,0.57577
473.508,53.1021,-2.92625,0.06824873,0.57547
474.108,53.1598,-2.92653,0.06441956,0.57517
474.708,53.21744,-2.92774,0.06631429,0.57487
475.308,53.2752,-2.92917,0.06738095,0.57457
475.908,53.33277,-2.92917,0.07429202,0.57427
476.508,53.39045,-2.93163,0.07256805,0.57397
477.108,53.4484,-2.93347,0.0698162,0.57367
477.708,53.5063,-2.93477,0.07573115,0.57336
478.308,53.56437,-2.93477,0.07677824,0.57306
478.908,53.62235,-2.93612,0.07545487,0.57276
479.508,53.68036,-2.93763,0.07388675,0.57246
480.108,53.73815,-2.93894,0.07362735,0.57216
480.708,53.7961,-2.93895,0.07002542,0.57185
481.308,53.8541,-2.94044,0.07349072,0.57155
481.908,53.9121,-2.94262,0.07327865,0.57125
482.508,53.97028,-2.94409,0.07491546,0.57095
483.108,54.0283,-2.94541,0.07793157,0.57064
483.708,54.0862,-2.94501,0.07627725,0.57034
484.308,54.14434,-2.9454,0.07752779,0.57004
484.908,54.20231,-2.9467,0.07702575,0.56974
485.508,54.26056,-2.94804,0.07656911,0.56943
486.108,54.3186,-2.94948,0.07714029,0.56913
486.708,54.3764,-2.94978,0.07791174,0.56883
487.308,54.4344,-2.95209,0.07493005,0.56852
487.908,54.4923,-2.95341,0.07584378,0.56822
488.508,54.55033,-2.95342,0.080093,0.56791
489.108,54.60827,-2.95471,0.08839766,0.56761
489.708,54.66645,-2.9547,0.08691039,0.56731
490.308,54.72458,-2.95496,0.08779705,0.567
490.908,54.7831,-2.95605,0.08507617,0.5667
491.508,54.84135,-2.95749,0.0844016,0.56639
492.108,54.8994,-2.95879,0.08843121,0.56609
492.708,54.95765,-2.95878,0.08527125,0.56578
493.308,55.01576,-2.96009,0.0922349,0.56548
493.908,55.0738,-2.9611,0.0929441,0.56517
494.508,55.13201,-2.95999,0.09239642,0.56487
495.108,55.1902,-2.96131,0.09580064,0.56457
495.708,55.24836,-2.96229,0.09142098,0.56426
496.308,55.3064,-2.96298,0.09472901,0.56396
496.908,55.36444,-2.96511,0.09723785,0.56365
497.508,55.42252,-2.96602,0.09811772,0.56334
498.108,55.4806,-2.96601,0.09787207,0.56304
498.708,55.53885,-2.96731,0.09457907,0.56273
499.308,55.59692,-2.96865,0.09912005,0.56243
499.908,55.65511,-2.96997,0.09833736,0.56212
500.508,55.71323,-2.96998,0.09792128,0.56182
501.108,55.77105,-2.97129,0.09590237,0.56151
501.708,55.8292,-2.97261,0.09585374,0.56121
502.308,55.88762,-2.97261,0.09673379,0.5609
502.908,55.94596,-2.97357,0.09346911,0.56059
503.508,56.00486,-2.97391,0.09389534,0.56029
504.108,56.0633,-2.97541,0.09227041,0.55998
504.708,56.12155,-2.97753,0.09592789,0.55968
505.308,56.18,-2.97886,0.09382504,0.55937
505.908,56.23842,-2.97753,0.1003,0.55906
506.508,56.29685,-2.97886,0.09962563,0.55876
507.108,56.35524,-2.97886,0.09939339,0.55845
507.708,56.4136,-2.97886,0.10179,0.55815
508.308,56.47204,-2.98015,0.10477,0.55784
508.908,56.5306,-2.98149,0.1072,0.55753
509.508,56.58909,-2.9815,0.10959,0.55723
510.108,56.64739,-2.98281,0.11378,0.55692
510.708,56.7057,-2.98406,0.11713,0.55661
511.308,56.76416,-2.98544,0.1202,0.55631
511.908,56.8225,-2.9868,0.12661,0.556
512.508,56.88091,-2.98675,0.12781,0.55569
513.108,56.9394,-2.98675,0.13084,0.55539
513.708,56.99785,-2.98807,0.13114,0.55508
514.308,57.0565,-2.98877,0.13121,0.55477
514.908,57.11526,-2.98938,0.13538,0.55447
515.508,57.1739,-2.9907,0.13436,0.55416
516.108,57.23259,-2.9907,0.13494,0.55385
516.708,57.2912,-2.99202,0.1358,0.55355
517.308,57.3497,-2.99334,0.1387,0.55324
517.908,57.40834,-2.99352,0.13927,0.55293
518.508,57.467,-2.99432,0.13785,0.55263
519.108,57.5258,-2.99342,0.13543,0.55232
519.708,57.5845,-2.99334,0.13417,0.55201
520.308,57.6432,-2.99336,0.13705,0.55171
520.908,57.7017,-2.99466,0.13818,0.5514
521.508,57.76036,-2.99598,0.13542,0.55109
522.108,57.8191,-2.9974,0.1448,0.55079
522.708,57.8778,-2.9974,0.14183,0.55048
523.308,57.9366,-2.99872,0.14593,0.55017
523.908,57.99515,-2.99899,0.14191,0.54987
524.508,58.05386,-3.001,0.14164,0.54956
525.108,58.1125,-3.00135,0.14395,0.54925
525.708,58.1713,-3.00135,0.14156,0.54895
526.308,58.22967,-3.00134,0.13944,0.54864
526.908,58.28856,-3.00396,0.13094,0.54833
527.508,58.3475,-3.00399,0.13346,0.54803
528.108,58.40674,-3.00431,0.13167,0.54772
528.708,58.46586,-3.00537,0.13546,0.54741
529.308,58.5246,-3.01352,0.12848,0.54711
529.908,58.58355,-2.99867,0.12842,0.5468
530.508,58.64239,-3.00262,0.12998,0.54649
531.108,58.70145,-3.00565,0.12714,0.54619
531.708,58.7603,-3.0075,0.12754,0.54588
532.308,58.8193,-3.00749,0.1302,0.54557
532.908,58.8784,-3.00854,0.12169,0.54527
533.508,58.9375,-3.01013,0.12533,0.54496
534.108,58.9961,-3.01008,0.12291,0.54465
534.708,59.05515,-3.01012,0.12856,0.54435
535.308,59.11415,-3.01088,0.12704,0.54404
535.908,59.17331,-3.0128,0.12521,0.54373
536.508,59.23235,-3.0114,0.12376,0.54343
537.108,59.29133,-3.01281,0.12525,0.54312
537.708,59.35043,-3.01407,0.1282,0.54282
538.308,59.40951,-3.01538,0.13009,0.54251
538.908,59.4688,-3.01562,0.13006,0.5422
539.508,59.52809,-3.01794,0.13077,0.5419
540.108,59.5874,-3.01665,0.13504,0.54159
540.708,59.6467,-3.01673,0.13198,0.54129
541.308,59.7056,-3.01802,0.13288,0.54098
541.908,59.7646,-3.01802,0.13473,0.54068
542.508,59.82345,-3.01802,0.13404,0.54037
543.108,59.88222,-3.02491,0.12943,0.54006
543.708,59.9413,-3.01689,0.13272,0.53976
544.308,60.0002,-3.01674,0.13854,0.53945
544.908,60.05936,-3.01836,0.14075,0.53915
545.508,60.11869,-3.02098,0.13949,0.53884
546.108,60.17811,-3.02177,0.14124,0.53854
546.708,60.23746,-3.0224,0.13787,0.53823
547.308,60.2967,-3.02241,0.13974,0.53793
547.908,60.356,-3.02372,0.13743,0.53762
548.508,60.4151,-3.02513,0.1392,0.53732
549.108,60.47433,-3.02504,0.13981,0.53701
549.708,60.53344,-3.02491,0.14174,0.53671
550.308,60.5926,-3.02483,0.14347,0.5364
550.908,60.6521,-3.0253,0.14112,0.5361
551.508,60.71136,-3.02787,0.14377,0.53579
552.108,60.77097,-3.02715,0.14829,0.53549
552.708,60.83021,-3.02756,0.14579,0.53518
553.308,60.8897,-3.02855,0.14419,0.53488
553.908,60.9492,-3.02986,0.14705,0.53458
554.508,61.0087,-3.02986,0.14758,0.53427
555.108,61.0682,-3.02987,0.14672,0.53397
555.708,61.12765,-3.03052,0.14848,0.53366
556.308,61.18724,-3.03053,0.14726,0.53336
556.908,61.2467,-3.03184,0.14787,0.53306
557.508,61.3062,-3.03243,0.14915,0.53275
558.108,61.36563,-3.03205,0.149,0.53245
558.708,61.42516,-3.03183,0.14977,0.53215
559.308,61.48454,-3.03043,0.1454,0.53184
559.908,61.544,-3.03074,0.14806,0.53154
560.508,61.60343,-3.03315,0.14633,0.53124
561.108,61.66251,-3.0356,0.14408,0.53093
561.708,61.722,-3.03439,0.14769,0.53063
562.308,61.78145,-3.03447,0.14581,0.53033
562.908,61.84111,-3.03573,0.14843,0.53003
563.508,61.9006,-3.03447,0.15071,0.52972
564.108,61.96,-3.03579,0.14816,0.52942
564.708,62.0194,-3.03579,0.15008,0.52912
565.308,62.0788,-3.03455,0.14922,0.52882
565.908,62.1383,-3.03579,0.14639,0.52852
566.508,62.1979,-3.03758,0.15118,0.52821
567.108,62.25744,-3.03842,0.14941,0.52791
567.708,62.317,-3.03909,0.15177,0.52761
568.308,62.3763,-3.03909,0.15425,0.52731
568.908,62.43552,-3.03842,0.15002,0.52701
569.508,62.49462,-3.03866,0.15162,0.52671
570.108,62.55398,-3.04022,0.15177,0.52641
570.708,62.61355,-3.04039,0.1515,0.5261
571.308,62.67354,-3.03902,0.15681,0.5258
571.908,62.7332,-3.03972,0.1564,0.5255
572.508,62.79275,-3.04039,0.15126,0.5252
573.108,62.85236,-3.04176,0.15449,0.5249
573.708,62.9119,-3.04167,0.15381,0.5246
574.308,62.97165,-3.04313,0.15067,0.5243
574.908,63.0314,-3.04313,0.16145,0.524
575.508,63.09121,-3.04313,0.16536,0.5237
576.108,63.15099,-3.04312,0.16149,0.5234
576.708,63.2109,-3.04445,0.15572,0.5231
577.308,63.27065,-3.0438,0.16211,0.5228
577.908,63.3304,-3.0438,0.15987,0.52251
578.508,63.3902,-3.04613,0.16293,0.52221
579.108,63.44999,-3.04774,0.16375,0.52191
579.708,63.50971,-3.04612,0.16876,0.52161
580.308,63.5694,-3.04544,0.1678,0.52131
580.908,63.62908,-3.04602,0.16839,0.52101
581.508,63.6887,-3.04676,0.17287,0.52071
582.108,63.7485,-3.04676,0.1756,0.52042
582.708,63.80845,-3.04807,0.17593,0.52012
583.308,63.86834,-3.04807,0.17391,0.51982
583.908,63.928,-3.04807,0.17398,0.51952
584.508,63.9877,-3.04936,0.17689,0.51923
585.108,64.0474,-3.03733,0.17622,0.51893
585.708,64.10701,-3.06266,0.175,0.51863
586.308,64.1669,-3.05114,0.18002,0.51833
586.908,64.22674,-3.04971,0.18143,0.51804
587.508,64.2864,-3.05069,0.1815,0.51774
588.108,64.34643,-3.0507,0.17508,0.51745
588.708,64.4063,-3.05068,0.17709,0.51715
589.308,64.46589,-3.05072,0.17976,0.51685
589.908,64.52598,-3.05147,0.17918,0.51656
590.508,64.5859,-3.05153,0.18311,0.51626
591.108,64.64572,-3.04172,0.18376,0.51597
591.708,64.7056,-3.05959,0.1842,0.51567
592.308,64.76527,-3.05237,0.18404,0.51538
592.908,64.82512,-3.05301,0.18342,0.51508
593.508,64.88538,-3.05301,0.19005,0.51479
594.108,64.94536,-3.05392,0.18543,0.51449
594.708,65.00535,-3.05498,0.19004,0.5142
595.308,65.06536,-3.05498,0.18735,0.5139
595.908,65.12533,-3.05532,0.19185,0.51361
596.508,65.18511,-3.05499,0.19315,0.51332
597.108,65.24494,-3.05499,0.1952,0.51302
597.708,65.3049,-3.05499,0.19859,0.51273
598.308,65.36448,-3.05499,0.19644,0.51244
598.908,65.42474,-3.0564,0.19641,0.51214
599.508,65.48476,-3.05498,0.19821,0.51185
600.108,65.54475,-3.05498,0.20115,0.51156
600.708,65.60509,-3.05498,0.1938,0.51127
601.308,65.6653,-3.05631,0.20049,0.51098
601.908,65.72569,-3.05723,0.19795,0.51068
602.508,65.78586,-3.05761,0.20211,0.51039
603.108,65.846,-3.05631,0.20115,0.5101
603.708,65.90608,-3.0563,0.20633,0.50981
604.308,65.9659,-3.0563,0.20397,0.50952
604.908,66.02619,-3.0563,0.20915,0.50923
605.508,66.08634,-3.0573,0.20016,0.50894
606.108,66.14671,-3.05761,0.20728,0.50865
606.708,66.20703,-3.05894,0.20878,0.50836
607.308,66.26724,-3.05894,0.20969,0.50807
607.908,66.3276,-3.05894,0.21124,0.50778
608.508,66.38797,-3.05916,0.21138,0.50749
609.108,66.4483,-3.05992,0.21149,0.5072
609.708,66.50846,-3.05992,0.2147,0.50691
610.308,66.56855,-3.0586,0.22143,0.50662
610.908,66.62875,-3.05991,0.2152,0.50633
611.508,66.68903,-3.05902,0.22202,0.50604
612.108,66.74922,-3.05893,0.2284,0.50576
612.708,66.8095,-3.06025,0.22946,0.50547
613.308,66.86957,-3.06154,0.22902,0.50518
613.908,66.92997,-3.06157,0.23343,0.50489
614.508,66.99036,-3.06026,0.23327,0.50461
615.108,67.05074,-3.06025,0.23508,0.50432
615.708,67.1112,-3.06158,0.23332,0.50403
616.308,67.17161,-3.063,0.23582,0.50375
616.908,67.23195,-3.06419,0.23625,0.50346
617.508,67.29233,-3.06288,0.24224,0.50317
618.108,67.3526,-3.06429,0.23776,0.50289
618.708,67.413,-3.0642,0.2471,0.5026
619.308,67.47349,-3.0642,0.24311,0.50232
619.908,67.5337,-3.0642,0.24555,0.50203
620.508,67.59415,-3.06451,0.24511,0.50175
621.108,67.6545,-3.06452,0.25196,0.50146
621.708,67.71497,-3.06582,0.24825,0.50118
622.308,67.77577,-3.06584,0.24859,0.50089
622.908,67.83599,-3.06548,0.24818,0.50061
623.508,67.8964,-3.06554,0.25137,0.50033
624.108,67.95658,-3.06649,0.25968,0.50004
624.708,68.01702,-3.06659,0.26156,0.49976
625.308,68.07735,-3.06518,0.25164,0.49948
625.908,68.13766,-3.0678,0.25629,0.4992
626.508,68.1982,-3.06727,0.26739,0.49891
627.108,68.25865,-3.06804,0.26776,0.49863
627.708,68.31908,-3.06804,0.26487,0.49835
628.308,68.37954,-3.06804,0.26829,0.49807
628.908,68.4401,-3.06804,0.26859,0.49779
629.508,68.50075,-3.06804,0.27552,0.49751
630.108,68.56152,-3.06673,0.27484,0.49723
630.708,68.6223,-3.06806,0.27717,0.49694
631.308,68.68292,-3.07072,0.27985,0.49666
631.908,68.74355,-3.07067,0.27885,0.49638
632.508,68.80404,-3.07067,0.29001,0.4961
633.108,68.86466,-3.06985,0.28973,0.49583
633.708,68.92529,-3.07043,0.29017,0.49555
634.308,68.9861,-3.07067,0.29648,0.49527
634.908,69.04666,-3.07067,0.2998,0.49499
635.508,69.10735,-3.07067,0.30116,0.49471
636.108,69.16781,-3.07034,0.30212,0.49443
636.708,69.22851,-3.06935,0.30654,0.49415
637.308,69.2893,-3.07066,0.29963,0.49388
637.908,69.3497,-3.07196,0.2973,0.4936
638.508,69.41036,-3.0733,0.29985,0.49332
639.108,69.471,-3.07163,0.30425,0.49305
639.708,69.53178,-3.07165,0.30104,0.49277
640.308,69.5925,-3.07165,0.30569,0.49249
640.908,69.65329,-3.07162,0.30832,0.49222
641.508,69.7141,-3.07299,0.30971,0.49194
642.108,69.7749,-3.07429,0.31091,0.49167
642.708,69.8357,-3.07363,0.31132,0.49139
643.308,69.8965,-3.07461,0.31043,0.49112
643.908,69.95733,-3.07463,0.31293,0.49084
644.508,70.01823,-3.07596,0.31988,0.49057
645.108,70.07904,-3.07502,0.31943,0.49029
645.708,70.13931,-3.07397,0.316,0.49002
646.308,70.2,-3.07429,0.32192,0.48975
646.908,70.26082,-3.07561,0.32521,0.48947
647.508,70.32159,-3.07561,0.31932,0.4892
648.108,70.38257,-3.07556,0.32576,0.48893
648.708,70.4431,-3.07692,0.32883,0.48866
649.308,70.50373,-3.07692,0.33316,0.48838
649.908,70.564,-3.07692,0.33509,0.48811
650.508,70.62478,-3.07692,0.33904,0.48784
651.108,70.68552,-3.07692,0.34093,0.48757
651.708,70.74661,-3.07658,0.33468,0.4873
652.308,70.8075,-3.07705,0.33269,0.48703
652.908,70.86808,-3.07692,0.33128,0.48676
653.508,70.9289,-3.07692,0.33045,0.48649
654.108,70.9893,-3.07823,0.33057,0.48622
654.708,71.04974,-3.07922,0.32513,0.48595
655.308,71.11068,-3.07789,0.32947,0.48568
655.908,71.17153,-3.07798,0.32536,0.48541
656.508,71.23302,-3.07823,0.33039,0.48514
657.108,71.29386,-3.07778,0.32916,0.48487
657.708,71.35468,-3.07921,0.32995,0.48461
658.308,71.41539,-3.07921,0.32577,0.48434
658.908,71.47618,-3.08022,0.33453,0.48407
659.508,71.53703,-3.07895,0.33507,0.4838
660.108,71.5979,-3.07879,0.3358,0.48354
660.708,71.6589,-3.07912,0.3359,0.48327
661.308,71.71992,-3.08009,0.34134,0.483
661.908,71.78093,-3.08175,0.34732,0.48274
662.508,71.84188,-3.08175,0.34923,0.48247
663.108,71.90289,-3.08122,0.34609,0.48221
663.708,71.96374,-3.08072,0.34651,0.48194
664.308,72.02492,-3.08207,0.34777,0.48168
664.908,72.08609,-3.08175,0.34441,0.48141
665.508,72.14718,-3.08305,0.3504,0.48115
666.108,72.20815,-3.08305,0.34973,0.48089
666.708,72.26897,-3.08175,0.35138,0.48062
667.308,72.32989,-3.08305,0.35015,0.48036
667.908,72.39075,-3.08175,0.34414,0.4801
668.508,72.45169,-3.08304,0.34959,0.47984
669.108,72.5126,-3.08306,0.34541,0.47957
669.708,72.57353,-3.08306,0.34911,0.47931
670.308,72.63455,-3.08306,0.35217,0.47905
670.908,72.69546,-3.08297,0.36002,0.47879
671.508,72.75645,-3.08439,0.35986,0.47853
672.108,72.81727,-3.08307,0.36413,0.47827
672.708,72.87828,-3.08307,0.36252,0.47801
673.308,72.9393,-3.08438,0.36798,0.47775
673.908,73.00044,-3.08438,0.36642,0.47749
674.508,73.06166,-3.0849,0.36761,0.47723
675.108,73.1228,-3.08438,0.36507,0.47697
675.708,73.18394,-3.08572,0.37476,0.47671
676.308,73.24508,-3.08416,0.37202,0.47645
676.908,73.3061,-3.08406,0.37604,0.47619
677.508,73.36743,-3.08548,0.37654,0.47594
678.108,73.42869,-3.08548,0.38099,0.47568
678.708,73.49005,-3.08647,0.38209,0.47542
679.308,73.5512,-3.08548,0.38569,0.47516
679.908,73.61214,-3.08547,0.38453,0.47491
680.508,73.67322,-3.08547,0.37874,0.47465
681.108,73.73437,-3.0868,0.37979,0.4744
681.708,73.79548,-3.08679,0.38824,0.47414
682.308,73.8567,-3.08679,0.38588,0.47388
682.908,73.91784,-3.08679,0.38828,0.47363
683.508,73.97907,-3.08741,0.39303,0.47338
684.108,74.04007,-3.08811,0.3955,0.47312
684.708,74.1014,-3.08811,0.39215,0.47287
685.308,74.16257,-3.08811,0.39502,0.47261
685.908,74.22397,-3.08779,0.39757,0.47236
686.508,74.2851,-3.0881,0.39892,0.47211
687.108,74.34625,-3.08941,0.39775,0.47185
687.708,74.40756,-3.08942,0.39637,0.4716
688.308,74.46892,-3.08942,0.38981,0.47135
688.908,74.5302,-3.08843,0.38684,0.4711
689.508,74.59165,-3.08712,0.3893,0.47085
690.108,74.65312,-3.08844,0.39733,0.4706
690.708,74.71444,-3.08844,0.40009,0.47035
691.308,74.7758,-3.08844,0.40087,0.4701
691.908,74.83713,-3.08846,0.40528,0.46985
692.508,74.89859,-3.08975,0.40469,0.4696
693.108,74.95997,-3.08975,0.41159,0.46935
693.708,75.0214,-3.08969,0.41059,0.4691
694.308,75.083,-3.08975,0.41081,0.46885
694.908,75.14443,-3.08975,0.40955,0.4686
695.508,75.2059,-3.08974,0.40993,0.46835
696.108,75.26727,-3.08909,0.41022,0.4681
696.708,75.32835,-3.08962,0.40956,0.46786
697.308,75.3899,-3.09173,0.40977,0.46761
697.908,75.45116,-3.09041,0.40828,0.46736
698.508,75.51262,-3.09041,0.41203,0.46712
699.108,75.57417,-3.09169,0.41626,0.46687
699.708,75.6356,-3.09172,0.40969,0.46662
700.308,75.69691,-3.09172,0.41393,0.46638
700.908,75.75832,-3.09172,0.41458,0.46613
701.508,75.81952,-3.09172,0.42114,0.46589
702.108,75.8809,-3.09172,0.42066,0.46564
702.708,75.9423,-3.09216,0.41617,0.4654
703.308,76.00364,-3.09206,0.41994,0.46516
703.908,76.0651,-3.09206,0.42657,0.46491
704.508,76.1266,-3.09271,0.42477,0.46467
705.108,76.1882,-3.0924,0.42729,0.46443
705.708,76.25,-3.09173,0.42582,0.46418
706.308,76.3114,-3.09308,0.43205,0.46394
706.908,76.37294,-3.09422,0.43073,0.4637
707.508,76.43441,-3.09428,0.43309,0.46346
708.108,76.49577,-3.09337,0.43924,0.46322
708.708,76.55726,-3.09337,0.43867,0.46298
709.308,76.61877,-3.09337,0.43626,0.46274
709.908,76.68034,-3.09337,0.4384,0.4625
710.508,76.7419,-3.09337,0.44129,0.46226
711.108,76.8035,-3.09405,0.44131,0.46202
711.708,76.865,-3.09469,0.44413,0.46178
712.308,76.92653,-3.09469,0.44327,0.46154
712.908,76.98801,-3.09454,0.44695,0.4613
713.508,77.0496,-3.09438,0.44593,0.46106
714.108,77.1113,-3.09436,0.44818,0.46083
714.708,77.17314,-3.09436,0.44915,0.46059
715.308,77.23478,-3.09436,0.4525,0.46035
715.908,77.29647,-3.09436,0.448,0.46011
716.508,77.35806,-3.0957,0.45268,0.45988
717.108,77.4197,-3.09568,0.45467,0.45964
717.708,77.48129,-3.09568,0.45838,0.45941
718.308,77.54289,-3.09436,0.45625,0.45917
718.908,77.60457,-3.09709,0.45999,0.45894
719.508,77.666,-3.09668,0.45993,0.4587
720.108,77.72755,-3.09675,0.45962,0.45847
720.708,77.7891,-3.09794,0.4567,0.45823
721.308,77.8506,-3.09798,0.46586,0.458
721.908,77.91241,-3.09609,0.46895,0.45777
722.508,77.97413,-3.09531,0.47356,0.45753
723.108,78.03588,-3.09567,0.48186,0.4573
723.708,78.0976,-3.09793,0.48452,0.45707
724.308,78.1592,-3.0993,0.48378,0.45684
724.908,78.22071,-3.09825,0.48783,0.4566
725.508,78.28228,-3.09798,0.48847,0.45637
726.108,78.3439,-3.09798,0.49173,0.45614
726.708,78.4056,-3.09798,0.48999,0.45591
727.308,78.46738,-3.09789,0.49218,0.45568
727.908,78.5291,-3.09929,0.49434,0.45545
728.508,78.59087,-3.09928,0.49561,0.45522
729.108,78.6525,-3.09798,0.49785,0.45499
729.708,78.71427,-3.09798,0.50228,0.45476
730.308,78.77598,-3.09798,0.50146,0.45453
730.908,78.83782,-3.09816,0.50017,0.45431
731.508,78.89953,-3.0993,0.50157,0.45408
732.108,78.9612,-3.09974,0.50192,0.45385
732.708,79.0227,-3.10038,0.50401,0.45362
733.308,79.0845,-3.09821,0.50702,0.4534
733.908,79.1462,-3.0993,0.50911,0.45317
734.508,79.20793,-3.0993,0.51379,0.45294
735.108,79.26977,-3.09929,0.52115,0.45272
735.708,79.33151,-3.09995,0.51702,0.45249
736.308,79.39317,-3.09995,0.51787,0.45227
736.908,79.45501,-3.10091,0.51819,0.45204
737.508,79.5166,-3.10094,0.52731,0.45182
738.108,79.57845,-3.09963,0.5401,0.45159
738.708,79.64035,-3.10029,0.54041,0.45137
739.308,79.7021,-3.10028,0.54281,0.45114
739.908,79.76402,-3.10028,0.54004,0.45092
740.508,79.82597,-3.10028,0.53882,0.4507
741.108,79.88771,-3.10036,0.53941,0.45048
741.708,79.9494,-3.10028,0.5398,0.45025
742.108,79.98955,-3.10028,0.54116,0.45011