File: 01_Data/Cotton_Ball/STA/N2/10K_min/Cotton_Ball_STA_N2_10KData_210712_R2.csv
##Temp./Â°C,Time/min,Mass loss(subtr.2)/mg,DSC(subtr.2)/(mW/mg),Sensit./(uV/mW)
49.501,10.01,-0.05112,0.05072659,0.61841
50.101,11.4252,-0.05301373,0.06774492,0.61873
50.701,11.75784,-0.05381016,0.08460178,0.61905
51.301,12.0015,-0.05267566,0.0962853,0.61936
51.901,12.20107,-0.05533396,0.10579,0.61968
52.501,12.37582,-0.0539867,0.11106,0.61999
53.101,12.53482,-0.05398385,0.11922,0.6203
53.701,12.6792,-0.05554195,0.12431,0.62062
54.301,12.81419,-0.05376212,0.13014,0.62093
54.901,12.94256,-0.05566349,0.13733,0.62124
55.501,13.0649,-0.0562744,0.14206,0.62154
56.101,13.18149,-0.0554035,0.14909,0.62185
56.701,13.29464,-0.05554044,0.15181,0.62215
57.301,13.4052,-0.05808458,0.15758,0.62246
57.901,13.51232,-0.05859176,0.16149,0.62276
58.501,13.6165,-0.05860102,0.16524,0.62306
59.101,13.71831,-0.05845956,0.17084,0.62336
59.701,13.8183,-0.05982215,0.17516,0.62366
60.301,13.9162,-0.0585822,0.17634,0.62396
60.901,14.0127,-0.05973717,0.17845,0.62425
61.501,14.1075,-0.05857726,0.18107,0.62455
62.101,14.19912,-0.05948128,0.18928,0.62484
62.701,14.29098,-0.06018338,0.18812,0.62514
63.301,14.3821,-0.06089951,0.19555,0.62543
63.901,14.47117,-0.06049207,0.19692,0.62572
64.501,14.55895,-0.06141369,0.20297,0.62601
65.101,14.6457,-0.06142051,0.20359,0.62629
65.701,14.7316,-0.06136419,0.20619,0.62658
66.301,14.8165,-0.06275221,0.21419,0.62687
66.901,14.90042,-0.06294824,0.21623,0.62715
67.501,14.98196,-0.06395517,0.21857,0.62743
68.101,15.06373,-0.06526808,0.22109,0.62771
68.701,15.1456,-0.06527013,0.22545,0.62799
69.301,15.22582,-0.06603725,0.22909,0.62827
69.901,15.3048,-0.06663826,0.22951,0.62855
70.501,15.3834,-0.06693876,0.2367,0.62883
71.101,15.4613,-0.06687574,0.23968,0.6291
71.701,15.539,-0.06805303,0.2392,0.62937
72.301,15.61544,-0.06948526,0.24218,0.62965
72.901,15.69105,-0.06944566,0.24737,0.62992
73.501,15.7662,-0.06960698,0.24988,0.63019
74.101,15.8411,-0.07013863,0.25932,0.63046
74.701,15.9155,-0.07108548,0.2585,0.63072
75.301,15.98916,-0.07107971,0.26422,0.63099
75.901,16.06229,-0.07191802,0.26567,0.63125
76.501,16.1349,-0.07347514,0.26833,0.63152
77.101,16.20699,-0.07482054,0.27121,0.63178
77.701,16.27887,-0.07481134,0.27242,0.63204
78.301,16.35022,-0.074817,0.27835,0.6323
78.901,16.42124,-0.07608451,0.27673,0.63256
79.501,16.4916,-0.07612488,0.28138,0.63282
80.101,16.56136,-0.07744435,0.28355,0.63307
80.701,16.63075,-0.07744,0.28365,0.63333
81.301,16.69995,-0.07743848,0.28978,0.63358
81.901,16.7689,-0.07942386,0.2919,0.63383
82.501,16.83747,-0.07941,0.29249,0.63408
83.101,16.90565,-0.07940917,0.29345,0.63433
83.701,16.97318,-0.07939421,0.30307,0.63458
84.301,17.04068,-0.08073018,0.3014,0.63483
84.901,17.10766,-0.08089584,0.3026,0.63507
85.501,17.17432,-0.08336078,0.30423,0.63532
86.101,17.24035,-0.08204995,0.30607,0.63556
86.701,17.30637,-0.08336023,0.3051,0.63581
87.301,17.37225,-0.08319681,0.30683,0.63605
87.901,17.43786,-0.08495398,0.3091,0.63629
88.501,17.50284,-0.08682199,0.31023,0.63652
89.101,17.56784,-0.08752994,0.31336,0.63676
89.701,17.63253,-0.08752999,0.30982,0.637
90.301,17.69712,-0.08904927,0.31475,0.63723
90.901,17.76106,-0.08881111,0.31706,0.63746
91.501,17.82483,-0.08878337,0.31867,0.6377
92.101,17.8885,-0.08940197,0.31741,0.63793
92.701,17.952,-0.08936957,0.31536,0.63816
93.301,18.01526,-0.09070908,0.31709,0.63838
93.901,18.0782,-0.09070475,0.31983,0.63861
94.501,18.14076,-0.09201719,0.31837,0.63884
95.101,18.2033,-0.09333958,0.31649,0.63906
95.701,18.2657,-0.09464371,0.31759,0.63928
96.301,18.32828,-0.09467031,0.31859,0.63951
96.901,18.39024,-0.09564041,0.31538,0.63973
97.501,18.452,-0.09728531,0.31844,0.63995
98.101,18.51345,-0.09729,0.31959,0.64016
98.701,18.57478,-0.09729,0.32036,0.64038
99.301,18.63595,-0.09729187,0.32186,0.6406
99.901,18.6969,-0.09856407,0.32094,0.64081
100.501,18.75764,-0.09993039,0.32088,0.64102
101.101,18.81849,-0.10125,0.31964,0.64124
101.701,18.8792,-0.10124,0.31907,0.64145
102.301,18.93972,-0.10125,0.31829,0.64165
102.901,19.00023,-0.10256,0.32102,0.64186
103.501,19.0604,-0.10256,0.3223,0.64207
104.101,19.12069,-0.1039,0.32052,0.64227
104.701,19.18091,-0.10388,0.31682,0.64248
105.301,19.24097,-0.10388,0.31543,0.64268
105.901,19.30098,-0.10462,0.3166,0.64288
106.501,19.36058,-0.10519,0.3171,0.64308
107.101,19.42014,-0.10651,0.31368,0.64328
107.701,19.47949,-0.10651,0.31738,0.64348
108.301,19.53891,-0.10651,0.3158,0.64368
108.901,19.59829,-0.10783,0.31775,0.64387
109.501,19.65767,-0.10904,0.31472,0.64407
110.101,19.71725,-0.10913,0.3112,0.64426
110.701,19.77661,-0.11045,0.30889,0.64445
111.301,19.83592,-0.11056,0.31169,0.64464
111.901,19.8947,-0.10947,0.31064,0.64483
112.501,19.9529,-0.10947,0.30822,0.64502
113.101,20.0118,-0.10947,0.3084,0.6452
113.701,20.07066,-0.11078,0.30556,0.64539
114.301,20.1301,-0.11211,0.3077,0.64557
114.901,20.18887,-0.11211,0.30456,0.64576
115.501,20.2473,-0.11211,0.30296,0.64594
116.101,20.30575,-0.11317,0.304,0.64612
116.701,20.36422,-0.11332,0.30349,0.6463
117.301,20.4226,-0.11331,0.30251,0.64647
117.901,20.48087,-0.11331,0.29947,0.64665
118.501,20.53891,-0.11331,0.29973,0.64682
119.101,20.59689,-0.11331,0.29855,0.647
119.701,20.65484,-0.11484,0.29901,0.64717
120.301,20.71288,-0.1147,0.29779,0.64734
120.901,20.77088,-0.11572,0.29175,0.64751
121.501,20.82848,-0.11572,0.29521,0.64768
122.101,20.88587,-0.11499,0.29462,0.64785
122.701,20.94345,-0.11528,0.29299,0.64802
123.301,21.00096,-0.1183,0.29409,0.64818
123.901,21.05839,-0.12273,0.2933,0.64834
124.501,21.11609,-0.11224,0.29064,0.64851
125.101,21.1732,-0.11897,0.29147,0.64867
125.701,21.23037,-0.11923,0.29031,0.64883
126.301,21.28751,-0.11857,0.28828,0.64899
126.901,21.34437,-0.11867,0.28912,0.64914
127.501,21.40158,-0.11857,0.29023,0.6493
128.101,21.45838,-0.12086,0.28413,0.64946
128.701,21.5153,-0.12088,0.28957,0.64961
129.301,21.57197,-0.12087,0.2855,0.64976
129.901,21.62846,-0.11956,0.28434,0.64991
130.501,21.68499,-0.12089,0.2862,0.65006
131.101,21.74155,-0.12088,0.2849,0.65021
131.701,21.7981,-0.12223,0.28412,0.65036
132.301,21.85441,-0.12219,0.28255,0.65051
132.901,21.9108,-0.1222,0.28374,0.65065
133.501,21.96694,-0.12153,0.28231,0.65079
134.101,22.02295,-0.12129,0.28627,0.65094
134.701,22.07903,-0.12157,0.27911,0.65108
135.301,22.1347,-0.12164,0.28135,0.65122
135.901,22.19079,-0.12295,0.27656,0.65136
136.501,22.2468,-0.12398,0.27684,0.65149
137.101,22.3027,-0.12461,0.27774,0.65163
137.701,22.35855,-0.12461,0.28267,0.65177
138.301,22.41402,-0.12461,0.27995,0.6519
138.901,22.46939,-0.12489,0.27642,0.65203
139.501,22.52488,-0.12612,0.27358,0.65216
140.101,22.5803,-0.12263,0.27543,0.65229
140.701,22.63575,-0.12425,0.27413,0.65242
141.301,22.69135,-0.12948,0.27466,0.65255
141.901,22.7468,-0.12406,0.27638,0.65268
142.501,22.80235,-0.12069,0.27663,0.6528
143.101,22.85746,-0.12368,0.27212,0.65293
143.701,22.9127,-0.12517,0.27043,0.65305
144.301,22.96793,-0.12384,0.27134,0.65317
144.901,23.02303,-0.12303,0.27104,0.65329
145.501,23.0781,-0.12393,0.27533,0.65341
146.101,23.1329,-0.12462,0.2716,0.65353
146.701,23.18766,-0.12548,0.26929,0.65364
147.301,23.2426,-0.12482,0.2707,0.65376
147.901,23.2976,-0.12482,0.26872,0.65387
148.501,23.35249,-0.12482,0.26905,0.65399
149.101,23.40739,-0.12482,0.27018,0.6541
149.701,23.46213,-0.1261,0.27119,0.65421
150.301,23.51684,-0.12813,0.26838,0.65432
150.901,23.57155,-0.12724,0.27053,0.65442
151.501,23.62634,-0.12594,0.26949,0.65453
152.101,23.68096,-0.12697,0.26927,0.65464
152.701,23.73565,-0.12822,0.26984,0.65474
153.301,23.7904,-0.12825,0.26794,0.65484
153.901,23.84504,-0.12823,0.26975,0.65495
154.501,23.8996,-0.12793,0.26751,0.65505
155.101,23.95415,-0.12687,0.26749,0.65514
155.701,24.00856,-0.12559,0.26982,0.65524
156.301,24.0629,-0.12688,0.27006,0.65534
156.901,24.11736,-0.12735,0.26904,0.65544
157.501,24.17197,-0.12823,0.26672,0.65553
158.101,24.22653,-0.12823,0.27054,0.65562
158.701,24.28111,-0.12692,0.26916,0.65572
159.301,24.33547,-0.12799,0.27032,0.65581
159.901,24.38981,-0.12823,0.26867,0.6559
160.501,24.4442,-0.12824,0.2704,0.65598
161.101,24.49863,-0.1259,0.2696,0.65607
161.701,24.55315,-0.12592,0.2696,0.65616
162.301,24.60755,-0.12742,0.27021,0.65624
162.901,24.6618,-0.12746,0.26875,0.65633
163.501,24.7161,-0.12813,0.27219,0.65641
164.101,24.77035,-0.1268,0.27099,0.65649
164.701,24.82486,-0.1268,0.27386,0.65657
165.301,24.87934,-0.12743,0.269,0.65665
165.901,24.93384,-0.12746,0.27408,0.65672
166.501,24.98828,-0.12798,0.27378,0.6568
167.101,25.04265,-0.12944,0.27514,0.65688
167.701,25.097,-0.12889,0.27687,0.65695
168.301,25.15136,-0.12889,0.27484,0.65702
168.901,25.2055,-0.12889,0.27474,0.65709
169.501,25.25975,-0.12889,0.27405,0.65716
170.101,25.31395,-0.13021,0.27209,0.65723
170.701,25.36814,-0.12902,0.2752,0.6573
171.301,25.4224,-0.12886,0.27552,0.65737
171.901,25.47636,-0.1303,0.27555,0.65743
172.501,25.5305,-0.12887,0.27695,0.6575
173.101,25.58462,-0.1302,0.27827,0.65756
173.701,25.63881,-0.1302,0.27994,0.65762
174.301,25.6932,-0.13026,0.27668,0.65768
174.901,25.74736,-0.12889,0.27659,0.65774
175.501,25.80142,-0.12868,0.27753,0.6578
176.101,25.85551,-0.12888,0.27616,0.65786
176.701,25.90951,-0.13019,0.2779,0.65791
177.301,25.96363,-0.12889,0.2779,0.65797
177.901,26.01764,-0.13024,0.28023,0.65802
178.501,26.07163,-0.12889,0.28016,0.65807
179.101,26.1256,-0.12945,0.28207,0.65813
179.701,26.1795,-0.12888,0.28172,0.65818
180.301,26.2335,-0.13021,0.28198,0.65822
180.901,26.28759,-0.1302,0.27979,0.65827
181.501,26.34158,-0.1302,0.28154,0.65832
182.101,26.3957,-0.1302,0.28291,0.65836
182.701,26.44967,-0.1302,0.28583,0.65841
183.301,26.50362,-0.12888,0.28292,0.65845
183.901,26.55753,-0.12888,0.28373,0.65849
184.501,26.6114,-0.12887,0.28415,0.65853
185.101,26.6652,-0.12954,0.28646,0.65857
185.701,26.7188,-0.12954,0.28348,0.65861
186.301,26.77252,-0.13021,0.28635,0.65865
186.901,26.82627,-0.12889,0.28482,0.65868
187.501,26.8798,-0.12987,0.28861,0.65872
188.101,26.9335,-0.12987,0.28776,0.65875
188.701,26.9871,-0.12987,0.29232,0.65878
189.301,27.0408,-0.12989,0.28831,0.65882
189.901,27.0945,-0.1302,0.29144,0.65885
190.501,27.1481,-0.1302,0.29342,0.65887
191.101,27.2018,-0.13025,0.29208,0.6589
191.701,27.25538,-0.13053,0.29391,0.65893
192.301,27.3091,-0.13053,0.29498,0.65895
192.901,27.36265,-0.13053,0.29575,0.65898
193.501,27.41579,-0.13193,0.29793,0.659
194.101,27.4692,-0.13058,0.29899,0.65902
194.701,27.5228,-0.12916,0.29938,0.65904
195.301,27.576,-0.12924,0.29575,0.65906
195.901,27.63,-0.13053,0.2977,0.65908
196.501,27.6837,-0.12916,0.29889,0.6591
197.101,27.7372,-0.13059,0.29931,0.65912
197.701,27.7912,-0.13053,0.30061,0.65913
198.301,27.84501,-0.13053,0.29865,0.65915
198.901,27.8986,-0.13139,0.29939,0.65916
199.501,27.9522,-0.13185,0.30055,0.65917
200.101,28.00558,-0.13132,0.2976,0.65918
200.701,28.0589,-0.13053,0.30555,0.65919
201.301,28.1121,-0.13053,0.30184,0.6592
201.901,28.1655,-0.13044,0.30465,0.65921
202.501,28.219,-0.13184,0.30479,0.65921
203.101,28.2725,-0.13119,0.30577,0.65922
203.701,28.32623,-0.13118,0.30406,0.65922
204.301,28.3798,-0.13118,0.31033,0.65922
204.901,28.4333,-0.13118,0.3055,0.65922
205.501,28.48678,-0.13113,0.30889,0.65922
206.101,28.54025,-0.13249,0.31288,0.65922
206.701,28.59368,-0.13119,0.3102,0.65922
207.301,28.6471,-0.13372,0.3139,0.65922
207.901,28.7005,-0.13382,0.31341,0.65921
208.501,28.75403,-0.13386,0.31315,0.65921
209.101,28.80743,-0.13251,0.31549,0.6592
209.701,28.861,-0.13382,0.31303,0.6592
210.301,28.91436,-0.1326,0.31308,0.65919
210.901,28.96792,-0.13251,0.31482,0.65918
211.501,29.0216,-0.13115,0.31281,0.65917
212.101,29.0752,-0.13119,0.31073,0.65915
212.701,29.1291,-0.13119,0.31442,0.65914
213.301,29.18266,-0.13322,0.31329,0.65913
213.901,29.2364,-0.13316,0.31481,0.65911
214.501,29.29,-0.13316,0.31996,0.6591
215.101,29.34347,-0.13448,0.31503,0.65908
215.701,29.39665,-0.13513,0.31768,0.65906
216.301,29.4501,-0.13382,0.31687,0.65904
216.901,29.50358,-0.13382,0.3159,0.65902
217.501,29.55718,-0.13372,0.31652,0.659
218.101,29.61102,-0.13481,0.31744,0.65897
218.701,29.6645,-0.13583,0.31838,0.65895
219.301,29.718,-0.13612,0.31995,0.65892
219.901,29.7714,-0.13612,0.3177,0.6589
220.501,29.8248,-0.13612,0.31899,0.65887
221.101,29.87838,-0.13479,0.31931,0.65884
221.701,29.932,-0.13327,0.32041,0.65881
222.301,29.9855,-0.13383,0.32034,0.65878
222.901,30.0389,-0.13625,0.32114,0.65875
223.501,30.0923,-0.13784,0.31999,0.65872
224.101,30.1456,-0.1392,0.3224,0.65868
224.701,30.19919,-0.13924,0.3227,0.65865
225.301,30.25277,-0.13645,0.32237,0.65861
225.901,30.30629,-0.13656,0.321,0.65858
226.501,30.36005,-0.13788,0.32164,0.65854
227.101,30.4136,-0.13832,0.32291,0.6585
227.701,30.46718,-0.13832,0.32545,0.65846
228.301,30.52086,-0.137,0.32194,0.65842
228.901,30.5744,-0.13739,0.32385,0.65837
229.501,30.6279,-0.13689,0.32575,0.65833
230.101,30.68137,-0.13767,0.32487,0.65829
230.701,30.7347,-0.13972,0.32577,0.65824
231.301,30.78813,-0.1382,0.32926,0.65819
231.901,30.84143,-0.13919,0.32932,0.65815
232.501,30.89498,-0.14052,0.32846,0.6581
233.101,30.94875,-0.14057,0.33173,0.65805
233.701,31.0023,-0.13805,0.3326,0.658
234.301,31.05615,-0.14031,0.33131,0.65794
234.901,31.1098,-0.14151,0.33323,0.65789
235.501,31.1633,-0.13997,0.33456,0.65784
236.101,31.21691,-0.14181,0.33457,0.65778
236.701,31.2705,-0.14296,0.33645,0.65772
237.301,31.324,-0.14391,0.33688,0.65767
237.901,31.3775,-0.14391,0.3347,0.65761
238.501,31.43122,-0.14391,0.33892,0.65755
239.101,31.48485,-0.14524,0.34144,0.65749
239.701,31.5384,-0.14657,0.3384,0.65743
240.301,31.5921,-0.14654,0.33625,0.65737
240.901,31.6457,-0.14781,0.33979,0.6573
241.501,31.69913,-0.14761,0.33585,0.65724
242.101,31.75277,-0.14765,0.33816,0.65717
242.701,31.8063,-0.14825,0.34078,0.65711
243.301,31.85987,-0.14896,0.34269,0.65704
243.901,31.9135,-0.15027,0.34407,0.65697
244.501,31.96718,-0.15027,0.34287,0.6569
245.101,32.02095,-0.15034,0.34709,0.65683
245.701,32.07468,-0.15317,0.34546,0.65676
246.301,32.12847,-0.15397,0.34494,0.65668
246.901,32.1821,-0.15444,0.34642,0.65661
247.501,32.23565,-0.15442,0.34896,0.65654
248.101,32.28918,-0.15445,0.35057,0.65646
248.701,32.3429,-0.15444,0.34822,0.65638
249.301,32.39654,-0.15576,0.35038,0.65631
249.901,32.4503,-0.15575,0.35295,0.65623
250.501,32.504,-0.15812,0.34942,0.65615
251.101,32.55757,-0.15936,0.34936,0.65607
251.701,32.6112,-0.1607,0.35028,0.65598
252.301,32.66493,-0.1607,0.34753,0.6559
252.901,32.71869,-0.16203,0.34931,0.65582
253.501,32.77247,-0.16352,0.35007,0.65573
254.101,32.82615,-0.16365,0.3482,0.65565
254.701,32.87965,-0.16365,0.35394,0.65556
255.301,32.93322,-0.16637,0.35109,0.65547
255.901,32.98684,-0.16771,0.3573,0.65538
256.501,33.0405,-0.16903,0.35072,0.65529
257.101,33.09422,-0.16903,0.34953,0.6552
257.701,33.14795,-0.17037,0.34908,0.65511
258.301,33.20173,-0.17116,0.3526,0.65502
258.901,33.25548,-0.17304,0.35093,0.65493
259.501,33.30917,-0.17307,0.3525,0.65483
260.101,33.3628,-0.17452,0.34882,0.65474
260.701,33.41633,-0.17564,0.34876,0.65464
261.301,33.47007,-0.17836,0.35422,0.65454
261.901,33.52377,-0.17986,0.35249,0.65444
262.501,33.57754,-0.17977,0.34979,0.65434
263.101,33.6314,-0.18096,0.34995,0.65424
263.701,33.68503,-0.18328,0.35014,0.65414
264.301,33.7387,-0.18496,0.35074,0.65404
264.901,33.79242,-0.18718,0.35163,0.65394
265.501,33.8462,-0.18731,0.34939,0.65383
266.101,33.9001,-0.18866,0.345,0.65373
266.701,33.95398,-0.19106,0.34382,0.65362
267.301,34.00778,-0.19253,0.3448,0.65351
267.901,34.06145,-0.19504,0.3389,0.6534
268.501,34.11526,-0.19538,0.3397,0.6533
269.101,34.16899,-0.19774,0.33798,0.65319
269.701,34.22275,-0.20093,0.3379,0.65307
270.301,34.2766,-0.20241,0.33551,0.65296
270.901,34.3302,-0.20238,0.33699,0.65285
271.501,34.3839,-0.20698,0.33398,0.65274
272.101,34.43757,-0.20844,0.33762,0.65262
272.701,34.49146,-0.21218,0.3341,0.65251
273.301,34.54552,-0.21469,0.33278,0.65239
273.901,34.59941,-0.21751,0.33076,0.65227
274.501,34.65352,-0.21888,0.3298,0.65215
275.101,34.70732,-0.22349,0.32645,0.65203
275.701,34.76116,-0.22669,0.32401,0.65191
276.301,34.81505,-0.23003,0.32282,0.65179
276.901,34.86886,-0.23166,0.32203,0.65167
277.501,34.92281,-0.23609,0.31877,0.65155
278.101,34.97675,-0.2388,0.3173,0.65142
278.701,35.0308,-0.2419,0.31823,0.6513
279.301,35.0848,-0.24345,0.3155,0.65117
279.901,35.13884,-0.24635,0.31451,0.65105
280.501,35.19283,-0.2516,0.31302,0.65092
281.101,35.24677,-0.25462,0.31393,0.65079
281.701,35.30082,-0.25676,0.31305,0.65066
282.301,35.35477,-0.26126,0.30937,0.65053
282.901,35.4086,-0.26545,0.31112,0.6504
283.501,35.46263,-0.26776,0.30432,0.65027
284.101,35.51657,-0.2742,0.30556,0.65013
284.701,35.57051,-0.27897,0.30436,0.65
285.301,35.62464,-0.28201,0.3036,0.64987
285.901,35.67869,-0.28614,0.3013,0.64973
286.501,35.7329,-0.2908,0.30075,0.64959
287.101,35.78706,-0.29469,0.29854,0.64946
287.701,35.841,-0.29995,0.29856,0.64932
288.301,35.8951,-0.30602,0.29798,0.64918
288.901,35.94919,-0.31155,0.30008,0.64904
289.501,36.00323,-0.3176,0.29903,0.6489
290.101,36.05743,-0.32205,0.2939,0.64876
290.701,36.11148,-0.32801,0.29136,0.64861
291.301,36.1656,-0.33387,0.29368,0.64847
291.901,36.2198,-0.33957,0.29291,0.64832
292.501,36.27405,-0.34641,0.29142,0.64818
293.101,36.3283,-0.3523,0.291,0.64803
293.701,36.38258,-0.35862,0.29382,0.64789
294.301,36.4368,-0.36405,0.29246,0.64774
294.901,36.49102,-0.37198,0.29157,0.64759
295.501,36.5453,-0.37999,0.29264,0.64744
296.101,36.59943,-0.38623,0.29492,0.64729
296.701,36.6535,-0.39371,0.29569,0.64714
297.301,36.7076,-0.40141,0.29281,0.64699
297.901,36.76178,-0.40809,0.29718,0.64683
298.501,36.81606,-0.41623,0.29918,0.64668
299.101,36.8703,-0.4242,0.29743,0.64652
299.701,36.92456,-0.43203,0.30198,0.64637
300.301,36.97887,-0.43973,0.30265,0.64621
300.901,37.03309,-0.44745,0.305,0.64606
301.501,37.08739,-0.4577,0.30339,0.6459
302.101,37.14167,-0.46472,0.30761,0.64574
302.701,37.19595,-0.47363,0.31,0.64558
303.301,37.25028,-0.48413,0.31182,0.64542
303.901,37.30461,-0.49431,0.31407,0.64526
304.501,37.35888,-0.50425,0.31142,0.6451
305.101,37.41323,-0.5131,0.31719,0.64493
305.701,37.4677,-0.52282,0.31869,0.64477
306.301,37.5221,-0.53656,0.31849,0.6446
306.901,37.57662,-0.54709,0.3206,0.64444
307.501,37.6308,-0.55878,0.32377,0.64427
308.101,37.68483,-0.57158,0.32606,0.64411
308.701,37.73921,-0.5828,0.32568,0.64394
309.301,37.79354,-0.59397,0.33049,0.64377
309.901,37.84813,-0.60529,0.33443,0.6436
310.501,37.90276,-0.62036,0.3346,0.64343
311.101,37.95713,-0.63317,0.33817,0.64326
311.701,38.0117,-0.64639,0.34459,0.64309
312.301,38.0661,-0.65879,0.34577,0.64291
312.901,38.1207,-0.67269,0.34549,0.64274
313.501,38.17521,-0.68796,0.34984,0.64257
314.101,38.2296,-0.70015,0.35479,0.64239
314.701,38.2841,-0.71667,0.35418,0.64222
315.301,38.33854,-0.73311,0.36117,0.64204
315.901,38.3925,-0.74854,0.36432,0.64186
316.501,38.44682,-0.76569,0.36623,0.64168
317.101,38.50137,-0.78284,0.36973,0.6415
317.701,38.5558,-0.80005,0.37231,0.64132
318.301,38.61074,-0.81981,0.37398,0.64114
318.901,38.6653,-0.83661,0.37942,0.64096
319.501,38.71966,-0.85509,0.38257,0.64078
320.101,38.7742,-0.87506,0.38417,0.6406
320.701,38.8288,-0.89491,0.38941,0.64041
321.301,38.8834,-0.91749,0.38924,0.64023
321.901,38.9381,-0.93716,0.39742,0.64005
322.501,38.99283,-0.95907,0.39821,0.63986
323.101,39.0475,-0.9847,0.40387,0.63967
323.701,39.10215,-1.00731,0.40813,0.63949
324.301,39.1569,-1.03141,0.41015,0.6393
324.901,39.21154,-1.05463,0.41561,0.63911
325.501,39.26618,-1.07965,0.42308,0.63892
326.101,39.3208,-1.10547,0.42249,0.63873
326.701,39.37525,-1.13178,0.42736,0.63854
327.301,39.42993,-1.15858,0.43269,0.63835
327.901,39.48474,-1.18779,0.43313,0.63815
328.501,39.53949,-1.21684,0.43852,0.63796
329.101,39.59426,-1.24503,0.44404,0.63777
329.701,39.64905,-1.27617,0.44354,0.63757
330.301,39.70335,-1.30553,0.45018,0.63738
330.901,39.75813,-1.33861,0.45642,0.63718
331.501,39.8129,-1.36905,0.45933,0.63698
332.101,39.8676,-1.40286,0.46288,0.63679
332.701,39.9225,-1.43705,0.46574,0.63659
333.301,39.97715,-1.46978,0.4733,0.63639
333.901,40.03203,-1.50139,0.47183,0.63619
334.501,40.0869,-1.5378,0.47815,0.63599
335.101,40.14177,-1.57291,0.48279,0.63579
335.701,40.1967,-1.60708,0.48292,0.63559
336.301,40.25148,-1.64759,0.4874,0.63538
336.901,40.30632,-1.68233,0.49211,0.63518
337.501,40.36122,-1.71683,0.49636,0.63498
338.101,40.4161,-1.75424,0.50071,0.63477
338.701,40.47088,-1.79026,0.50296,0.63457
339.301,40.52576,-1.82924,0.50324,0.63436
339.901,40.58064,-1.86416,0.50295,0.63415
340.501,40.6355,-1.89939,0.50452,0.63395
341.101,40.69057,-1.93799,0.50499,0.63374
341.701,40.7455,-1.97284,0.50464,0.63353
342.301,40.80066,-2.01041,0.50107,0.63332
342.901,40.8557,-2.04758,0.50041,0.63311
343.501,40.91063,-2.07937,0.50094,0.6329
344.101,40.9657,-2.11591,0.49334,0.63269
344.701,41.02067,-2.14909,0.49221,0.63248
345.301,41.07587,-2.18213,0.49072,0.63226
345.901,41.131,-2.21811,0.48631,0.63205
346.501,41.18602,-2.24887,0.47645,0.63184
347.101,41.24116,-2.28228,0.47543,0.63162
347.701,41.296,-2.31198,0.46716,0.63141
348.301,41.35089,-2.34184,0.46302,0.63119
348.901,41.40625,-2.37309,0.45315,0.63097
349.501,41.4615,-2.3997,0.44728,0.63076
350.101,41.51715,-2.42778,0.43585,0.63054
350.701,41.5725,-2.45486,0.42556,0.63032
351.301,41.62785,-2.48069,0.41591,0.6301
351.901,41.68311,-2.50425,0.40738,0.62988
352.501,41.73858,-2.53046,0.39623,0.62966
353.101,41.79395,-2.55255,0.38401,0.62944
353.701,41.84913,-2.57336,0.37332,0.62922
354.301,41.90444,-2.59499,0.36106,0.62899
354.901,41.95968,-2.61329,0.34953,0.62877
355.501,42.01497,-2.63446,0.33707,0.62855
356.101,42.07036,-2.65245,0.32527,0.62832
356.701,42.1257,-2.67208,0.31373,0.6281
357.301,42.18107,-2.6888,0.29855,0.62787
357.901,42.23644,-2.70229,0.292,0.62765
358.501,42.29183,-2.71918,0.27588,0.62742
359.101,42.34709,-2.73163,0.2668,0.62719
359.701,42.40227,-2.74528,0.25074,0.62697
360.301,42.4577,-2.75928,0.23576,0.62674
360.901,42.51305,-2.76993,0.2245,0.62651
361.501,42.5685,-2.7815,0.21462,0.62628
362.101,42.62383,-2.79062,0.20114,0.62605
362.701,42.67907,-2.79873,0.188,0.62582
363.301,42.73445,-2.80736,0.17834,0.62558
363.901,42.78989,-2.81464,0.16892,0.62535
364.501,42.84548,-2.82199,0.15058,0.62512
365.101,42.90098,-2.82926,0.14471,0.62489
365.701,42.9566,-2.83393,0.13808,0.62465
366.301,43.01209,-2.84131,0.13039,0.62442
366.901,43.0677,-2.84751,0.11948,0.62418
367.501,43.12312,-2.85313,0.11235,0.62395
368.101,43.17855,-2.85892,0.10724,0.62371
368.701,43.23402,-2.86262,0.10172,0.62347
369.301,43.28947,-2.86637,0.08996196,0.62324
369.901,43.34516,-2.8724,0.08905523,0.623
370.501,43.40097,-2.87541,0.08718367,0.62276
371.101,43.45667,-2.87812,0.07875107,0.62252
371.701,43.51248,-2.88064,0.07586332,0.62228
372.301,43.5682,-2.88348,0.07300794,0.62204
372.901,43.62388,-2.88576,0.07037652,0.6218
373.501,43.67978,-2.88672,0.06838441,0.62156
374.101,43.7356,-2.88979,0.06505403,0.62132
374.701,43.7915,-2.89295,0.06337352,0.62107
375.301,43.84721,-2.89432,0.06525567,0.62083
375.901,43.9028,-2.89758,0.06102524,0.62059
376.501,43.95851,-2.89818,0.06117223,0.62034
377.101,44.01435,-2.89884,0.06011487,0.6201
377.701,44.07006,-2.9012,0.05690762,0.61985
378.301,44.12583,-2.90391,0.05622497,0.61961
378.901,44.18139,-2.90514,0.05342788,0.61936
379.501,44.23715,-2.90673,0.05400992,0.61912
380.101,44.29316,-2.90828,0.05247507,0.61887
380.701,44.3491,-2.91124,0.05298009,0.61862
381.301,44.40527,-2.91286,0.05015912,0.61837
381.901,44.46127,-2.91446,0.05047791,0.61812
382.501,44.51717,-2.91634,0.04919694,0.61787
383.101,44.57291,-2.91436,0.04910588,0.61762
383.701,44.62858,-2.91614,0.04556473,0.61737
384.301,44.68458,-2.91961,0.04610448,0.61712
384.901,44.74047,-2.91965,0.0448229,0.61687
385.501,44.79651,-2.92265,0.04290732,0.61662
386.101,44.85233,-2.92421,0.04061672,0.61637
386.701,44.90815,-2.92647,0.03919553,0.61611
387.301,44.96413,-2.92866,0.03712195,0.61586
387.901,45.02016,-2.93104,0.04164238,0.61561
388.501,45.0764,-2.93272,0.03704412,0.61535
389.101,45.13242,-2.93183,0.0356813,0.6151
389.701,45.1885,-2.93364,0.03691294,0.61484
390.301,45.24426,-2.93421,0.03178639,0.61459
390.901,45.3001,-2.93445,0.02899555,0.61433
391.501,45.35625,-2.93681,0.03243549,0.61407
392.101,45.41233,-2.93978,0.03088722,0.61382
392.701,45.46853,-2.94212,0.0282049,0.61356
393.301,45.5248,-2.9435,0.02994863,0.6133
393.901,45.5809,-2.94484,0.02836336,0.61304
394.501,45.63704,-2.94485,0.0267405,0.61278
395.101,45.69292,-2.94654,0.02463639,0.61252
395.701,45.74905,-2.9484,0.02528328,0.61226
396.301,45.80505,-2.94935,0.0252866,0.612
396.901,45.8611,-2.9507,0.02198212,0.61174
397.501,45.9174,-2.95347,0.02279034,0.61148
398.101,45.97343,-2.95352,0.02302738,0.61122
398.701,46.02973,-2.9535,0.02006256,0.61095
399.301,46.0861,-2.95639,0.01709083,0.61069
399.901,46.14235,-2.95886,0.01935894,0.61043
400.501,46.1987,-2.96177,0.01706232,0.61016
401.101,46.25501,-2.96292,0.01318085,0.6099
401.701,46.31142,-2.96381,0.01548667,0.60963
402.301,46.3675,-2.96328,0.01065135,0.60937
402.901,46.4237,-2.9646,0.008135793,0.6091
403.501,46.47984,-2.96592,0.00515532,0.60884
404.101,46.5358,-2.9661,0.009264515,0.60857
404.701,46.59218,-2.96851,0.01123177,0.60831
405.301,46.6485,-2.97024,0.00262464,0.60804
405.901,46.70471,-2.97256,0.003103211,0.60777
406.501,46.76149,-2.97502,0.003533838,0.6075
407.101,46.81795,-2.9735,0.005681775,0.60723
407.701,46.8747,-2.97668,0.005356798,0.60696
408.301,46.9313,-2.97668,0.002531027,0.6067
408.901,46.9878,-2.9779,0.00730483,0.60643
409.501,47.04433,-2.97912,0.002411603,0.60616
410.101,47.10088,-2.98081,-0.000247857,0.60588
410.701,47.15735,-2.98215,0.00158442,0.60561
411.301,47.21398,-2.98347,0.00134679,0.60534
411.901,47.27063,-2.98346,0.002556479,0.60507
412.501,47.32718,-2.98679,0.001270347,0.6048
413.101,47.38393,-2.98903,0.00188298,0.60453
413.701,47.4406,-2.98977,-0.0002340189,0.60425
414.301,47.49726,-2.992,0.0005898644,0.60398
414.901,47.5538,-2.99527,0.002789585,0.60371
415.501,47.61043,-2.99585,0.0002971273,0.60343
416.101,47.6669,-2.99586,0.0007703084,0.60316
416.701,47.72354,-2.99718,-0.00362149,0.60288
417.301,47.78027,-2.99849,-0.003277224,0.60261
417.901,47.8369,-3.00004,4.829995e-05,0.60233
418.501,47.89362,-3.00021,-0.0006851793,0.60206
419.101,47.95005,-3.00266,0.001228584,0.60178
419.701,48.00658,-3.0041,0.0004520253,0.6015
420.301,48.06301,-3.0054,-0.0009632976,0.60122
420.901,48.11957,-3.00538,-0.000329686,0.60095
421.501,48.17631,-3.00724,0.0001852729,0.60067
422.101,48.233,-3.00725,0.000951455,0.60039
422.701,48.28971,-3.00792,0.002117203,0.60011
423.301,48.34636,-3.01027,0.002865951,0.59983
423.901,48.40325,-3.01187,0.001669904,0.59955
424.501,48.4599,-3.01319,0.00587831,0.59927
425.101,48.51685,-3.01313,0.00424031,0.59899
425.701,48.57387,-3.01576,0.002980718,0.59871
426.301,48.6307,-3.01855,0.005008244,0.59843
426.901,48.6875,-3.01994,0.00126625,0.59815
427.501,48.74432,-3.02131,0.003076453,0.59787
428.101,48.80124,-3.02119,0.000113005,0.59759
428.701,48.8581,-3.0199,0.002581434,0.59731
429.301,48.91548,-3.0218,0.001599567,0.59703
429.901,48.97233,-3.02566,0.002103044,0.59674
430.501,49.0293,-3.02692,-0.004018745,0.59646
431.101,49.0863,-3.02834,-0.0003304361,0.59618
431.701,49.14346,-3.03063,-0.003880312,0.59589
432.301,49.20049,-3.03194,0.001901296,0.59561
432.901,49.25741,-3.03327,-0.001389745,0.59532
433.501,49.31438,-3.03419,-0.003233783,0.59504
434.101,49.37141,-3.03463,0.004330968,0.59475
434.701,49.4285,-3.03745,0.0002358975,0.59447
435.301,49.48563,-3.03901,0.00046213,0.59418
435.901,49.5426,-3.03886,-0.001801264,0.5939
436.501,49.59965,-3.03886,-0.003492897,0.59361
437.101,49.6566,-3.04145,-0.000939155,0.59333
437.701,49.71368,-3.04362,-0.004790728,0.59304
438.301,49.77074,-3.04423,0.000232324,0.59275
438.901,49.82765,-3.04549,-0.002712402,0.59246
439.501,49.88463,-3.04731,-0.00188605,0.59218
440.101,49.94182,-3.048,-0.00013715,0.59189
440.701,49.99905,-3.04851,-0.003246003,0.5916
441.301,50.0562,-3.04863,-0.004764374,0.59131
441.901,50.11298,-3.04999,-0.002227573,0.59102
442.501,50.17001,-3.05125,-0.003770323,0.59073
443.101,50.22725,-3.05387,-0.00323975,0.59045
443.701,50.28452,-3.05389,-0.002581406,0.59016
444.301,50.34223,-3.05378,0.0008574651,0.58987
444.901,50.39942,-3.05672,-0.007192299,0.58958
445.501,50.4566,-3.05791,-0.00374526,0.58929
446.101,50.51392,-3.05958,-0.003316944,0.58899
446.701,50.57128,-3.05997,-0.00184062,0.5887
447.301,50.62871,-3.06092,-0.002415479,0.58841
447.901,50.68593,-3.06095,-0.003550894,0.58812
448.501,50.74309,-3.06265,-0.003388097,0.58783
449.101,50.80043,-3.06409,0.0001487342,0.58754
449.701,50.85772,-3.06685,-0.001565368,0.58725
450.301,50.91506,-3.07037,-0.001291605,0.58695
450.901,50.97249,-3.0722,-0.002694295,0.58666
451.501,51.02984,-3.0722,-0.000955497,0.58637
452.101,51.08719,-3.07321,-0.00209171,0.58607
452.701,51.14465,-3.07447,-0.0039952,0.58578
453.301,51.20194,-3.07505,-0.001882159,0.58549
453.901,51.25935,-3.07656,-0.00291071,0.58519
454.501,51.31662,-3.07811,-4.417513e-05,0.5849
455.101,51.37403,-3.08451,-0.00183498,0.5846
455.701,51.43156,-3.07614,-0.0004153489,0.58431
456.301,51.48908,-3.07778,-0.00169495,0.58401
456.901,51.54659,-3.08183,-0.00404228,0.58372
457.501,51.60393,-3.08172,-0.001039088,0.58342
458.101,51.66131,-3.08242,-0.002316764,0.58313
458.701,51.71868,-3.08484,-0.00135658,0.58283
459.301,51.77618,-3.08743,-0.00332904,0.58254
459.901,51.83367,-3.08778,-0.003249751,0.58224
460.501,51.89113,-3.08777,-0.002321642,0.58194
461.101,51.94874,-3.08789,-0.003248095,0.58165
461.701,52.00629,-3.09043,0.00168071,0.58135
462.301,52.06389,-3.09077,0.0008410198,0.58105
462.901,52.1216,-3.09759,-0.0003587189,0.58076
463.501,52.17929,-3.08698,-1.287375e-06,0.58046
464.101,52.23705,-3.09104,0.00136708,0.58016
464.701,52.29476,-3.09524,-0.0036736,0.57986
465.301,52.35236,-3.09438,-0.00306799,0.57957
465.901,52.4099,-3.09436,-0.001901295,0.57927
466.501,52.4676,-3.09604,-0.00524878,0.57897
467.101,52.5253,-3.09966,-0.008588,0.57867
467.701,52.58302,-3.09844,-0.003189242,0.57837
468.301,52.64082,-3.09978,-0.006163509,0.57807
468.901,52.6984,-3.09973,-0.000183706,0.57777
469.501,52.75642,-3.10295,-0.002185416,0.57747
470.101,52.8141,-3.10395,0.0005758122,0.57718
470.701,52.87184,-3.10456,0.002514894,0.57688
471.301,52.92977,-3.10456,-0.0007753757,0.57658
471.901,52.9877,-3.10456,0.00205411,0.57628
472.501,53.04557,-3.10646,0.0006362136,0.57598
473.101,53.10337,-3.10835,0.006008524,0.57568
473.701,53.16117,-3.10954,0.004984026,0.57537
474.301,53.219,-3.11081,0.005563327,0.57507
474.901,53.277,-3.11219,0.007058313,0.57477
475.501,53.33481,-3.11083,0.007590856,0.57447
476.101,53.39284,-3.11137,0.00794027,0.57417
476.701,53.4505,-3.11345,0.006114474,0.57387
477.301,53.5084,-3.11211,0.005610377,0.57357
477.901,53.56638,-3.11337,0.008564549,0.57327
478.501,53.62429,-3.11514,0.01003747,0.57297
479.101,53.68235,-3.11607,0.00682117,0.57266
479.701,53.7402,-3.11871,0.008743826,0.57236
480.301,53.798,-3.12002,0.008604394,0.57206
480.901,53.85592,-3.12006,0.008804465,0.57176
481.501,53.9139,-3.12134,0.008644956,0.57145
482.101,53.97175,-3.12084,0.01020412,0.57115
482.701,54.02964,-3.12135,0.0071444,0.57085
483.301,54.0876,-3.12178,0.01052733,0.57055
483.901,54.1456,-3.12244,0.009769006,0.57024
484.501,54.2036,-3.12244,0.01161092,0.56994
485.101,54.2617,-3.12241,0.01480114,0.56964
485.701,54.31981,-3.12375,0.01402403,0.56933
486.301,54.37795,-3.12375,0.01195115,0.56903
486.901,54.436,-3.12408,0.01679967,0.56873
487.501,54.49403,-3.12536,0.01782636,0.56842
488.101,54.55199,-3.12539,0.0184541,0.56812
488.701,54.61005,-3.1277,0.02026646,0.56782
489.301,54.66805,-3.12805,0.01639345,0.56751
489.901,54.7262,-3.12944,0.01719782,0.56721
490.501,54.7843,-3.13077,0.0200344,0.5669
491.101,54.8424,-3.12946,0.02144148,0.5666
491.701,54.90051,-3.12944,0.01987349,0.5663
492.301,54.9587,-3.13099,0.02076293,0.56599
492.901,55.01661,-3.13238,0.0225761,0.56569
493.501,55.0749,-3.13368,0.02286319,0.56538
494.101,55.1331,-3.13495,0.02326593,0.56508
494.701,55.19135,-3.13494,0.02689143,0.56477
495.301,55.24963,-3.13494,0.02474593,0.56447
495.901,55.30786,-3.13625,0.02835932,0.56416
496.501,55.36591,-3.13626,0.03761897,0.56386
497.101,55.42391,-3.1382,0.04009488,0.56355
497.701,55.48203,-3.14035,0.04306534,0.56325
498.301,55.54022,-3.14153,0.04948356,0.56294
498.901,55.59861,-3.14153,0.05400377,0.56264
499.501,55.65705,-3.14021,0.0526217,0.56233
500.101,55.71536,-3.14128,0.05310094,0.56202
500.701,55.7736,-3.14297,0.05345189,0.56172
501.301,55.8318,-3.14301,0.05250329,0.56141
501.901,55.89,-3.14559,0.05260209,0.56111
502.501,55.9482,-3.14609,0.05171338,0.5608
503.101,56.0064,-3.14689,0.05533895,0.5605
503.701,56.0649,-3.14822,0.05773948,0.56019
504.301,56.1232,-3.14819,0.05877869,0.55988
504.901,56.18156,-3.1469,0.05879813,0.55958
505.501,56.2398,-3.14855,0.06136124,0.55927
506.101,56.29824,-3.15008,0.05940995,0.55897
506.701,56.3566,-3.15008,0.05993535,0.55866
507.301,56.4151,-3.15091,0.0562183,0.55835
507.901,56.47394,-3.15172,0.06278257,0.55805
508.501,56.5326,-3.15172,0.060173,0.55774
509.101,56.5912,-3.15164,0.06407742,0.55743
509.701,56.64966,-3.15171,0.05907726,0.55713
510.301,56.7082,-3.15421,0.0631473,0.55682
510.901,56.76673,-3.15462,0.06294968,0.55651
511.501,56.8252,-3.1537,0.06095133,0.55621
512.101,56.88377,-3.15402,0.06461563,0.5559
512.701,56.94236,-3.15501,0.06616697,0.5556
513.301,57.00094,-3.15501,0.06438303,0.55529
513.901,57.05966,-3.15501,0.06789908,0.55498
514.501,57.1184,-3.155,0.06608209,0.55468
515.101,57.1771,-3.15518,0.06572245,0.55437
515.701,57.2354,-3.15603,0.06431915,0.55406
516.301,57.2941,-3.15917,0.05921706,0.55376
516.901,57.35275,-3.15763,0.06257815,0.55345
517.501,57.41169,-3.16034,0.061486,0.55314
518.101,57.4704,-3.16159,0.05170409,0.55284
518.701,57.5289,-3.16004,0.05425463,0.55253
519.301,57.5877,-3.16003,0.04899056,0.55222
519.901,57.6466,-3.15874,0.04557264,0.55191
520.501,57.7057,-3.15967,0.04606865,0.55161
521.101,57.7645,-3.16151,0.0434576,0.5513
521.701,57.8232,-3.16136,0.04388494,0.55099
522.301,57.8818,-3.16139,0.03805253,0.55069
522.901,57.94045,-3.16237,0.03786506,0.55038
523.501,57.99901,-3.16372,0.03374407,0.55007
524.101,58.0576,-3.16453,0.03414224,0.54977
524.701,58.11625,-3.16438,0.03221874,0.54946
525.301,58.17488,-3.16395,0.03092707,0.54915
525.901,58.2337,-3.16845,0.03258068,0.54885
526.501,58.29257,-3.16885,0.02891182,0.54854
527.101,58.35151,-3.16852,0.02527459,0.54823
527.701,58.41033,-3.17125,0.02778018,0.54793
528.301,58.46898,-3.1713,0.02333104,0.54762
528.901,58.5278,-3.16985,0.02730323,0.54731
529.501,58.5865,-3.17136,0.02791399,0.54701
530.101,58.64527,-3.17162,0.02486401,0.5467
530.701,58.7042,-3.17135,0.02358517,0.54639
531.301,58.7631,-3.17291,0.02523756,0.54609
531.901,58.822,-3.1741,0.02096093,0.54578
532.501,58.88097,-3.17355,0.0209315,0.54547
533.101,58.93991,-3.17355,0.01909019,0.54517
533.701,58.99887,-3.17223,0.02257729,0.54486
534.301,59.05769,-3.1768,0.01910081,0.54456
534.901,59.1168,-3.17799,0.02391865,0.54425
535.501,59.17584,-3.17805,0.02373677,0.54394
536.101,59.23483,-3.17805,0.01984531,0.54364
536.701,59.29399,-3.17675,0.02085442,0.54333
537.301,59.35309,-3.17803,0.01999308,0.54302
537.901,59.41209,-3.17682,0.01660179,0.54272
538.501,59.471,-3.17972,0.02288817,0.54241
539.101,59.53,-3.18277,0.02191613,0.54211
539.701,59.5891,-3.18277,0.02361661,0.5418
540.301,59.64826,-3.18277,0.02205436,0.54149
540.901,59.7072,-3.18292,0.02361709,0.54119
541.501,59.7665,-3.18277,0.01733072,0.54088
542.101,59.8256,-3.18272,0.02039382,0.54058
542.701,59.8849,-3.18434,0.0191401,0.54027
543.301,59.94412,-3.18504,0.01648764,0.53997
543.901,60.00316,-3.18408,0.01227644,0.53966
544.501,60.06216,-3.18449,0.01713888,0.53935
545.101,60.1213,-3.18595,0.01549374,0.53905
545.701,60.18059,-3.18592,0.01219538,0.53874
546.301,60.23978,-3.1866,0.01650094,0.53844
546.901,60.29905,-3.1866,0.01869515,0.53813
547.501,60.3583,-3.18785,0.01518958,0.53783
548.101,60.4174,-3.18792,0.009766839,0.53752
548.701,60.47654,-3.18939,0.00957069,0.53722
549.301,60.5357,-3.19078,0.01064877,0.53691
549.901,60.59508,-3.19087,0.00954588,0.53661
550.501,60.65445,-3.18969,0.008380263,0.5363
551.101,60.7137,-3.19083,0.00713507,0.536
551.701,60.77285,-3.19077,0.01172844,0.5357
552.301,60.83195,-3.19077,0.01195775,0.53539
552.901,60.89124,-3.18944,0.007920523,0.53509
553.501,60.95049,-3.19176,0.00951447,0.53478
554.101,61.01,-3.19253,0.005899387,0.53448
554.701,61.06925,-3.19253,0.00760094,0.53417
555.301,61.1286,-3.19387,0.005845635,0.53387
555.901,61.188,-3.19385,0.006206687,0.53357
556.501,61.2472,-3.19528,0.00595319,0.53326
557.101,61.3067,-3.19383,0.00966348,0.53296
557.701,61.3663,-3.19261,0.007843755,0.53266
558.301,61.4259,-3.19177,0.009688839,0.53235
558.901,61.4858,-3.19342,0.01168645,0.53205
559.501,61.54526,-3.19605,0.01335485,0.53175
560.101,61.6047,-3.1974,0.01044203,0.53144
560.701,61.6639,-3.19874,0.01114968,0.53114
561.301,61.72299,-3.19842,0.008825573,0.53084
561.901,61.78241,-3.19801,0.009264131,0.53053
562.501,61.8417,-3.19801,0.009022774,0.53023
563.101,61.9011,-3.19793,0.01160315,0.52993
563.701,61.9606,-3.19669,0.01492283,0.52963
564.301,62.01995,-3.19801,0.01295863,0.52932
564.901,62.0795,-3.19772,0.01399936,0.52902
565.501,62.1389,-3.19669,0.01612199,0.52872
566.101,62.19817,-3.19668,0.01488289,0.52842
566.701,62.2574,-3.19933,0.01143669,0.52812
567.301,62.31665,-3.20062,0.01195209,0.52781
567.901,62.37599,-3.20202,0.01370483,0.52751
568.501,62.43546,-3.20065,0.01351741,0.52721
569.101,62.49501,-3.2007,0.01503952,0.52691
569.701,62.5543,-3.19933,0.01453777,0.52661
570.301,62.61374,-3.1992,0.01081827,0.52631
570.901,62.6731,-3.20009,0.01248461,0.52601
571.501,62.73265,-3.202,0.01210956,0.52571
572.101,62.79237,-3.20271,0.01217732,0.52541
572.701,62.8521,-3.20305,0.01163657,0.52511
573.301,62.91177,-3.20305,0.01226844,0.52481
573.901,62.97136,-3.20174,0.01748196,0.52451
574.501,63.0309,-3.20436,0.01686782,0.52421
575.101,63.0904,-3.20372,0.0102391,0.52391
575.701,63.14977,-3.20503,0.008196728,0.52361
576.301,63.20918,-3.20636,0.01055893,0.52331
576.901,63.2685,-3.20635,0.01489404,0.52301
577.501,63.32809,-3.20635,0.01753396,0.52271
578.101,63.38769,-3.20634,0.01945845,0.52241
578.701,63.4474,-3.20571,0.02096257,0.52211
579.301,63.5071,-3.20711,0.01622829,0.52181
579.901,63.56675,-3.20711,0.02093996,0.52151
580.501,63.6263,-3.20711,0.02460001,0.52121
581.101,63.68577,-3.20711,0.0228285,0.52092
581.701,63.74535,-3.20848,0.0232694,0.52062
582.301,63.805,-3.20851,0.0221108,0.52032
582.901,63.8649,-3.20908,0.02311572,0.52002
583.501,63.92476,-3.20965,0.0238836,0.51972
584.101,63.9848,-3.20865,0.02447614,0.51943
584.701,64.0445,-3.20765,0.02645975,0.51913
585.301,64.10441,-3.20865,0.03102955,0.51883
585.901,64.16412,-3.20723,0.03253574,0.51854
586.501,64.22381,-3.20855,0.02932602,0.51824
587.101,64.2838,-3.20998,0.03148401,0.51794
587.701,64.3436,-3.20997,0.03242014,0.51765
588.301,64.40355,-3.20997,0.03168533,0.51735
588.901,64.46347,-3.20728,0.03468825,0.51705
589.501,64.5236,-3.20726,0.0355502,0.51676
590.101,64.58378,-3.20866,0.037509,0.51646
590.701,64.6439,-3.21053,0.0373,0.51617
591.301,64.7038,-3.21151,0.0385379,0.51587
591.901,64.76375,-3.21146,0.04353779,0.51558
592.501,64.82373,-3.21264,0.05009299,0.51528
593.101,64.8836,-3.21154,0.04981765,0.51499
593.701,64.94372,-3.20948,0.05067237,0.51469
594.301,65.00375,-3.21019,0.05080151,0.5144
594.901,65.0639,-3.21017,0.05598452,0.5141
595.501,65.12402,-3.21182,0.05148267,0.51381
596.101,65.18417,-3.21139,0.04902503,0.51352
596.701,65.24423,-3.21139,0.05398767,0.51322
597.301,65.30419,-3.2114,0.05646306,0.51293
597.901,65.36418,-3.21276,0.06147649,0.51264
598.501,65.42407,-3.21272,0.05907805,0.51234
599.101,65.48405,-3.21404,0.05900259,0.51205
599.701,65.5441,-3.21402,0.06339873,0.51176
600.301,65.60395,-3.2153,0.06820977,0.51147
600.901,65.6638,-3.21407,0.07048089,0.51117
601.501,65.72368,-3.21258,0.07648866,0.51088
602.101,65.7836,-3.21261,0.07633584,0.51059
602.701,65.84368,-3.21129,0.08117404,0.5103
603.301,65.90379,-3.21137,0.08076822,0.51001
603.901,65.96383,-3.21259,0.08378765,0.50972
604.501,66.0237,-3.21273,0.08145934,0.50943
605.101,66.08372,-3.21423,0.08228749,0.50913
605.701,66.14313,-3.2166,0.07953525,0.50884
606.301,66.2034,-3.21788,0.0836814,0.50855
606.901,66.26366,-3.2205,0.09113249,0.50826
607.501,66.32417,-3.21844,0.09080381,0.50797
608.101,66.38469,-3.21513,0.09403657,0.50768
608.701,66.4446,-3.21694,0.09491636,0.50739
609.301,66.50469,-3.21944,0.09308092,0.50711
609.901,66.56498,-3.22083,0.0952607,0.50682
610.501,66.6254,-3.22215,0.09617058,0.50653
611.101,66.686,-3.21847,0.10417,0.50624
611.701,66.74638,-3.21567,0.11056,0.50595
612.301,66.80675,-3.21567,0.10975,0.50566
612.901,66.86712,-3.21567,0.11558,0.50538
613.501,66.92756,-3.21558,0.12101,0.50509
614.101,66.98777,-3.21666,0.1244,0.5048
614.701,67.0481,-3.21674,0.12352,0.50451
615.301,67.1084,-3.21596,0.12268,0.50423
615.901,67.16839,-3.21545,0.12053,0.50394
616.501,67.22856,-3.21677,0.1171,0.50365
617.101,67.28855,-3.21759,0.12252,0.50337
617.701,67.34874,-3.21764,0.12067,0.50308
618.301,67.40912,-3.21764,0.12356,0.5028
618.901,67.4692,-3.22147,0.11993,0.50251
619.501,67.5293,-3.22277,0.11532,0.50223
620.101,67.5896,-3.2229,0.1169,0.50194
620.701,67.6499,-3.21841,0.11984,0.50166
621.301,67.71055,-3.21841,0.12188,0.50137
621.901,67.77086,-3.21614,0.12558,0.50109
622.501,67.8314,-3.21545,0.11664,0.5008
623.101,67.89195,-3.21677,0.11893,0.50052
623.701,67.9526,-3.21738,0.11205,0.50024
624.301,68.01305,-3.21822,0.11376,0.49995
624.901,68.07347,-3.21676,0.11238,0.49967
625.501,68.13377,-3.21936,0.11224,0.49939
626.101,68.1943,-3.2194,0.10974,0.49911
626.701,68.25479,-3.22089,0.11178,0.49882
627.301,68.31531,-3.22216,0.11264,0.49854
627.901,68.37578,-3.22115,0.11568,0.49826
628.501,68.4361,-3.22242,0.11507,0.49798
629.101,68.4966,-3.22235,0.12315,0.4977
629.701,68.557,-3.22222,0.1249,0.49742
630.301,68.6174,-3.2212,0.12546,0.49714
630.901,68.6776,-3.22239,0.12123,0.49685
631.501,68.73785,-3.22389,0.11203,0.49657
632.101,68.79812,-3.22452,0.11942,0.49629
632.701,68.8587,-3.22456,0.11228,0.49602
633.301,68.91925,-3.22423,0.11202,0.49574
633.901,68.97963,-3.22423,0.12282,0.49546
634.501,69.04011,-3.22423,0.12785,0.49518
635.101,69.1005,-3.22324,0.13299,0.4949
635.701,69.16128,-3.22324,0.13643,0.49462
636.301,69.22189,-3.22193,0.13849,0.49434
636.901,69.28271,-3.22254,0.13648,0.49407
637.501,69.3434,-3.22455,0.14125,0.49379
638.101,69.40417,-3.22598,0.14676,0.49351
638.701,69.46494,-3.22599,0.14971,0.49323
639.301,69.52547,-3.22467,0.15117,0.49296
639.901,69.58618,-3.22462,0.14411,0.49268
640.501,69.64672,-3.22588,0.1485,0.4924
641.101,69.70743,-3.22729,0.14895,0.49213
641.701,69.76825,-3.22879,0.15072,0.49185
642.301,69.82887,-3.22864,0.14461,0.49158
642.901,69.88951,-3.2272,0.14636,0.4913
643.501,69.95005,-3.22587,0.15162,0.49103
644.101,70.0105,-3.2272,0.14694,0.49075
644.701,70.071,-3.22761,0.14269,0.49048
645.301,70.1317,-3.22712,0.14697,0.49021
645.901,70.19246,-3.22719,0.14619,0.48993
646.501,70.2531,-3.22736,0.15093,0.48966
647.101,70.31381,-3.22851,0.15499,0.48939
647.701,70.37445,-3.22851,0.14933,0.48911
648.301,70.43521,-3.2286,0.1561,0.48884
648.901,70.49605,-3.22719,0.16066,0.48857
649.501,70.557,-3.2285,0.15874,0.4883
650.101,70.61759,-3.2285,0.16543,0.48802
650.701,70.67815,-3.22719,0.16654,0.48775
651.301,70.73846,-3.22719,0.16872,0.48748
651.901,70.79873,-3.22719,0.17102,0.48721
652.501,70.8595,-3.22875,0.17235,0.48694
653.101,70.9202,-3.22973,0.17887,0.48667
653.701,70.9811,-3.22861,0.18139,0.4864
654.301,71.04171,-3.2275,0.18824,0.48613
654.901,71.10245,-3.22819,0.17936,0.48586
655.501,71.16298,-3.23335,0.19206,0.48559
656.101,71.22371,-3.23186,0.18445,0.48532
656.701,71.28452,-3.23282,0.19148,0.48506
657.301,71.3453,-3.22772,0.19753,0.48479
657.901,71.40648,-3.22551,0.20108,0.48452
658.501,71.46728,-3.2273,0.20752,0.48425
659.101,71.5281,-3.23198,0.20161,0.48399
659.701,71.58888,-3.23783,0.2034,0.48372
660.301,71.6497,-3.23304,0.20806,0.48345
660.901,71.7108,-3.22928,0.2131,0.48319
661.501,71.77195,-3.22923,0.21388,0.48292
662.101,71.83292,-3.23211,0.2167,0.48265
662.701,71.89394,-3.22927,0.20952,0.48239
663.301,71.95478,-3.22927,0.2117,0.48212
663.901,72.01579,-3.2293,0.21071,0.48186
664.501,72.07681,-3.23229,0.20763,0.48159
665.101,72.13765,-3.2306,0.21155,0.48133
665.701,72.19881,-3.23215,0.21294,0.48107
666.301,72.25963,-3.23149,0.21065,0.4808
666.901,72.32069,-3.22948,0.21456,0.48054
667.501,72.3814,-3.2322,0.20568,0.48028
668.101,72.44233,-3.23311,0.21458,0.48001
668.701,72.50328,-3.23311,0.21694,0.47975
669.301,72.56432,-3.23311,0.22058,0.47949
669.901,72.62575,-3.23311,0.22583,0.47923
670.501,72.68677,-3.23194,0.22698,0.47897
671.101,72.74791,-3.23157,0.23082,0.4787
671.701,72.8089,-3.2325,0.23041,0.47844
672.301,72.86998,-3.23355,0.23952,0.47818
672.901,72.9311,-3.23276,0.24716,0.47792
673.501,72.992,-3.23146,0.2475,0.47766
674.101,73.05309,-3.23171,0.2508,0.4774
674.701,73.11404,-3.23124,0.25436,0.47714
675.301,73.1751,-3.23152,0.24793,0.47689
675.901,73.23608,-3.23503,0.2527,0.47663
676.501,73.2971,-3.23156,0.2508,0.47637
677.101,73.35806,-3.2296,0.25771,0.47611
677.701,73.41892,-3.23262,0.25519,0.47585
678.301,73.4799,-3.23136,0.26583,0.4756
678.901,73.54088,-3.23211,0.25629,0.47534
679.501,73.6019,-3.23132,0.26576,0.47508
680.101,73.66323,-3.23201,0.26289,0.47483
680.701,73.72434,-3.23206,0.26063,0.47457
681.301,73.7855,-3.23342,0.25855,0.47431
681.901,73.8466,-3.23332,0.25305,0.47406
682.501,73.90775,-3.23332,0.25203,0.4738
683.101,73.96888,-3.23055,0.25591,0.47355
683.701,74.0299,-3.23179,0.26591,0.47329
684.301,74.0912,-3.23312,0.26888,0.47304
684.901,74.1525,-3.23443,0.26553,0.47279
685.501,74.2139,-3.23214,0.27479,0.47253
686.101,74.27512,-3.23344,0.27107,0.47228
686.701,74.3364,-3.23377,0.27715,0.47203
687.301,74.39763,-3.23423,0.27967,0.47177
687.901,74.4592,-3.23508,0.27679,0.47152
688.501,74.52067,-3.23378,0.2854,0.47127
689.101,74.58211,-3.23311,0.28977,0.47102
689.701,74.64339,-3.23264,0.29661,0.47077
690.301,74.70481,-3.23385,0.29968,0.47052
690.901,74.7663,-3.23376,0.30106,0.47026
691.501,74.82769,-3.2351,0.30048,0.47001
692.101,74.889,-3.23422,0.299,0.46976
692.701,74.95034,-3.23311,0.3034,0.46952
693.301,75.01176,-3.23312,0.30512,0.46927
693.901,75.07302,-3.23589,0.3045,0.46902
694.501,75.1344,-3.23716,0.3045,0.46877
695.101,75.19578,-3.23522,0.30116,0.46852
695.701,75.25723,-3.23306,0.29802,0.46827
696.301,75.3186,-3.23532,0.30258,0.46802
696.901,75.38003,-3.2353,0.30993,0.46778
697.501,75.44142,-3.23377,0.30739,0.46753
698.101,75.5026,-3.23378,0.30549,0.46728
698.701,75.56379,-3.23652,0.30125,0.46704
699.301,75.62496,-3.23651,0.29802,0.46679
699.901,75.68616,-3.23651,0.29974,0.46655
700.501,75.74721,-3.23661,0.30548,0.4663
701.101,75.8082,-3.23421,0.30478,0.46605
701.701,75.86915,-3.23418,0.31,0.46581
702.301,75.93056,-3.23552,0.3018,0.46557
702.901,75.9919,-3.2356,0.30284,0.46532
703.501,76.05336,-3.23871,0.29847,0.46508
704.101,76.11465,-3.23727,0.30138,0.46483
704.701,76.17589,-3.23781,0.30285,0.46459
705.301,76.23727,-3.24024,0.30333,0.46435
705.901,76.29868,-3.23881,0.30532,0.46411
706.501,76.36013,-3.24114,0.30814,0.46386
707.101,76.42155,-3.24086,0.30695,0.46362
707.701,76.4829,-3.23986,0.30901,0.46338
708.301,76.54439,-3.23876,0.30951,0.46314
708.901,76.60579,-3.23901,0.31911,0.4629
709.501,76.66736,-3.24014,0.31871,0.46266
710.101,76.72887,-3.23903,0.322,0.46242
710.701,76.79041,-3.24054,0.32017,0.46218
711.301,76.85167,-3.2406,0.32275,0.46194
711.901,76.91293,-3.23925,0.32897,0.4617
712.501,76.9742,-3.23792,0.32624,0.46146
713.101,77.03569,-3.23793,0.33106,0.46122
713.701,77.0973,-3.23928,0.33413,0.46099
714.301,77.1592,-3.24056,0.33895,0.46075
714.901,77.22102,-3.23926,0.34622,0.46051
715.501,77.28268,-3.2409,0.35125,0.46027
716.101,77.34435,-3.24012,0.34901,0.46004
716.701,77.40586,-3.23958,0.36074,0.4598
717.301,77.46757,-3.23958,0.35852,0.45957
717.901,77.52903,-3.23958,0.36594,0.45933
718.501,77.59054,-3.23958,0.35874,0.45909
719.101,77.6519,-3.23958,0.36333,0.45886
719.701,77.7136,-3.23951,0.35851,0.45863
720.301,77.7752,-3.24089,0.36048,0.45839
720.901,77.83699,-3.24188,0.35997,0.45816
721.501,77.89855,-3.24188,0.35806,0.45792
722.101,77.9602,-3.24188,0.36139,0.45769
722.701,78.02194,-3.24257,0.36075,0.45746
723.301,78.08389,-3.24254,0.36228,0.45722
723.901,78.1457,-3.24245,0.36866,0.45699
724.501,78.20744,-3.24123,0.3646,0.45676
725.101,78.26895,-3.24126,0.36755,0.45653
725.701,78.33062,-3.24123,0.36555,0.4563
726.301,78.39232,-3.24123,0.36546,0.45607
726.901,78.45394,-3.24123,0.37004,0.45584
727.501,78.51559,-3.24248,0.37101,0.45561
728.101,78.57743,-3.23977,0.37552,0.45538
728.701,78.6391,-3.24039,0.37239,0.45515
729.301,78.70081,-3.24115,0.37517,0.45492
729.901,78.762,-3.24318,0.38078,0.45469
730.501,78.82366,-3.24397,0.37437,0.45446
731.101,78.8853,-3.24396,0.38124,0.45423
731.701,78.9472,-3.24134,0.37915,0.454
732.301,79.00891,-3.24133,0.37633,0.45378
732.901,79.0708,-3.24133,0.38037,0.45355
733.501,79.1327,-3.24133,0.38583,0.45332
734.101,79.19442,-3.24265,0.38385,0.4531
734.701,79.25586,-3.24133,0.39079,0.45287
735.301,79.3173,-3.24135,0.39204,0.45264
735.901,79.3789,-3.24269,0.38283,0.45242
736.501,79.4406,-3.24333,0.38458,0.45219
737.101,79.50238,-3.24266,0.38084,0.45197
737.701,79.56426,-3.24266,0.38851,0.45174
738.301,79.62598,-3.24266,0.38629,0.45152
738.901,79.6876,-3.24266,0.38588,0.4513
739.501,79.7492,-3.24266,0.38736,0.45107
740.101,79.81116,-3.24266,0.38749,0.45085
740.701,79.87306,-3.24397,0.39172,0.45063
741.301,79.93511,-3.24444,0.3879,0.4504
741.901,79.99755,-3.24528,0.39097,0.45018