File: 01_Data/Cotton_Ball/STA/N2/10K_min/Cotton_Ball_STA_N2_10KData_210712_R1.csv
##Temp./Â°C,Time/min,Mass loss(subtr.2)/mg,DSC(subtr.2)/(mW/mg),Sensit./(uV/mW)
49.293,10.01,-0.02292,0.03895183,0.6183
49.893,11.3963,-0.02424989,0.06114424,0.61862
50.493,11.73654,-0.02575976,0.07681439,0.61894
51.093,11.98365,-0.02464503,0.09102589,0.61925
51.693,12.18285,-0.02577061,0.10372,0.61957
52.293,12.35783,-0.0246097,0.11284,0.61988
52.893,12.51494,-0.01787933,0.12295,0.6202
53.493,12.65926,-0.02377637,0.12743,0.62051
54.093,12.79477,-0.02485846,0.13465,0.62082
54.693,12.92325,-0.02487859,0.14222,0.62113
55.293,13.04551,-0.0250924,0.15145,0.62144
55.893,13.16301,-0.02632253,0.15463,0.62174
56.493,13.2769,-0.02535836,0.15978,0.62205
57.093,13.38688,-0.02650721,0.16542,0.62235
57.693,13.49375,-0.02504617,0.16791,0.62266
58.293,13.5984,-0.02533269,0.17279,0.62296
58.893,13.70038,-0.02740789,0.17506,0.62326
59.493,13.80073,-0.02829391,0.18507,0.62356
60.093,13.8985,-0.02752223,0.18477,0.62386
60.693,13.994,-0.0273304,0.19025,0.62415
61.293,14.0879,-0.02754428,0.19242,0.62445
61.893,14.1806,-0.02885217,0.19627,0.62474
62.493,14.27183,-0.02751161,0.20044,0.62504
63.093,14.3623,-0.02884503,0.20461,0.62533
63.693,14.45146,-0.03019335,0.20689,0.62562
64.293,14.5396,-0.02883625,0.21341,0.62591
64.893,14.6258,-0.03016179,0.21573,0.62619
65.493,14.7107,-0.0301689,0.21965,0.62648
66.093,14.7949,-0.03015983,0.22405,0.62677
66.693,14.87796,-0.03174821,0.22613,0.62705
67.293,14.9611,-0.03187502,0.22873,0.62733
67.893,15.0433,-0.030059,0.23125,0.62762
68.493,15.1248,-0.03049976,0.23466,0.6279
69.093,15.20421,-0.03174695,0.23783,0.62817
69.693,15.28336,-0.03268001,0.2412,0.62845
70.293,15.3619,-0.03275708,0.24483,0.62873
70.893,15.44028,-0.03367631,0.2519,0.629
71.493,15.51789,-0.0331668,0.2501,0.62928
72.093,15.59464,-0.0346657,0.25797,0.62955
72.693,15.6705,-0.03499,0.26054,0.62982
73.293,15.74591,-0.03500675,0.26078,0.63009
73.893,15.82059,-0.0354325,0.26834,0.63036
74.493,15.8949,-0.03542978,0.26849,0.63063
75.093,15.9689,-0.03683907,0.27111,0.6309
75.693,16.04211,-0.03971276,0.27603,0.63116
76.293,16.11495,-0.03937013,0.27744,0.63143
76.893,16.1872,-0.03820803,0.28335,0.63169
77.493,16.25868,-0.03850019,0.28582,0.63195
78.093,16.3298,-0.03850003,0.28786,0.63221
78.693,16.40072,-0.03848783,0.29025,0.63247
79.293,16.4713,-0.03859985,0.29691,0.63273
79.893,16.5415,-0.04123907,0.29703,0.63298
80.493,16.6112,-0.04125081,0.30138,0.63324
81.093,16.67997,-0.04124015,0.30133,0.63349
81.693,16.74867,-0.04255014,0.30415,0.63375
82.293,16.81716,-0.04255,0.30683,0.634
82.893,16.88574,-0.0425495,0.3091,0.63425
83.493,16.95372,-0.04387683,0.31319,0.6345
84.093,17.02078,-0.0452109,0.31485,0.63474
84.693,17.08773,-0.04519001,0.31713,0.63499
85.293,17.15408,-0.04518452,0.32115,0.63523
85.893,17.2204,-0.04649969,0.32017,0.63548
86.493,17.2863,-0.04781911,0.32052,0.63572
87.093,17.35201,-0.04649472,0.32725,0.63596
87.693,17.41756,-0.04784482,0.32828,0.6362
88.293,17.48274,-0.04803862,0.33179,0.63644
88.893,17.5476,-0.04913001,0.33192,0.63668
89.493,17.61249,-0.04913066,0.33222,0.63691
90.093,17.6765,-0.04970812,0.33623,0.63715
90.693,17.73995,-0.05177006,0.33857,0.63738
91.293,17.80367,-0.05298216,0.33996,0.63762
91.893,17.86722,-0.05440424,0.34249,0.63785
92.493,17.9314,-0.05439985,0.33998,0.63808
93.093,17.99456,-0.05541338,0.34466,0.63831
93.693,18.05732,-0.05367931,0.34266,0.63853
94.293,18.11991,-0.05439997,0.34493,0.63876
94.893,18.18219,-0.05580711,0.34483,0.63898
95.493,18.24442,-0.05696035,0.3466,0.63921
96.093,18.3065,-0.05697082,0.34832,0.63943
96.693,18.36823,-0.05823044,0.34621,0.63965
97.293,18.4301,-0.05836153,0.35064,0.63987
97.893,18.4917,-0.05704,0.35091,0.64009
98.493,18.5534,-0.05974067,0.3526,0.64031
99.093,18.61475,-0.05967015,0.35341,0.64052
99.693,18.67578,-0.06107102,0.35221,0.64074
100.293,18.73665,-0.06099002,0.3525,0.64095
100.893,18.7973,-0.06099001,0.3545,0.64116
101.493,18.8582,-0.06100914,0.35504,0.64137
102.093,18.91868,-0.06230011,0.36,0.64158
102.693,18.979,-0.06230062,0.35581,0.64179
103.293,19.0394,-0.0649277,0.35734,0.642
103.893,19.09935,-0.06492989,0.35522,0.6422
104.493,19.15934,-0.06591266,0.35491,0.64241
105.093,19.21929,-0.06591984,0.35623,0.64261
105.693,19.27915,-0.06754589,0.35441,0.64281
106.293,19.33916,-0.06787907,0.35405,0.64301
106.893,19.39892,-0.06820126,0.35517,0.64321
107.493,19.45872,-0.06722338,0.35767,0.64341
108.093,19.51827,-0.06777567,0.35806,0.64361
108.693,19.5777,-0.07020195,0.35829,0.6438
109.293,19.6371,-0.07019339,0.35818,0.644
109.893,19.69622,-0.07151847,0.35695,0.64419
110.493,19.75539,-0.07146859,0.3567,0.64438
111.093,19.81448,-0.07282861,0.3552,0.64457
111.693,19.8733,-0.07401329,0.35599,0.64476
112.293,19.93219,-0.07414157,0.35762,0.64495
112.893,19.99045,-0.07283328,0.35647,0.64514
113.493,20.0493,-0.07309797,0.35756,0.64532
114.093,20.1081,-0.07464206,0.3551,0.64551
114.693,20.16698,-0.0754101,0.35512,0.64569
115.293,20.22575,-0.07687421,0.35524,0.64587
115.893,20.2842,-0.07647063,0.35436,0.64605
116.493,20.3425,-0.07786323,0.35585,0.64623
117.093,20.40069,-0.07820006,0.35332,0.64641
117.693,20.45885,-0.0782,0.35119,0.64659
118.293,20.51699,-0.0782,0.35359,0.64676
118.893,20.57509,-0.0782005,0.3526,0.64694
119.493,20.63342,-0.08086517,0.35198,0.64711
120.093,20.6914,-0.08083997,0.35186,0.64728
120.693,20.74926,-0.08088057,0.35236,0.64745
121.293,20.807,-0.07985063,0.35162,0.64762
121.893,20.86457,-0.08122032,0.34987,0.64779
122.493,20.92215,-0.08117002,0.34693,0.64796
123.093,20.97983,-0.08117,0.34938,0.64812
123.693,21.0374,-0.08117,0.34662,0.64829
124.293,21.09477,-0.08117007,0.34668,0.64845
124.893,21.1521,-0.08125406,0.34414,0.64861
125.493,21.2091,-0.08380228,0.34813,0.64877
126.093,21.26614,-0.08281159,0.34706,0.64893
126.693,21.3231,-0.0827999,0.34822,0.64909
127.293,21.38008,-0.08379995,0.34556,0.64925
127.893,21.43695,-0.08379324,0.34477,0.6494
128.493,21.49375,-0.08511815,0.34607,0.64956
129.093,21.55059,-0.08512,0.3444,0.64971
129.693,21.60714,-0.08508645,0.34205,0.64986
130.293,21.66368,-0.08673419,0.34309,0.65001
130.893,21.72022,-0.08675996,0.34304,0.65016
131.493,21.77654,-0.0856125,0.34234,0.65031
132.093,21.83294,-0.08545951,0.34372,0.65045
132.693,21.88936,-0.08643006,0.34312,0.6506
133.293,21.9455,-0.0881073,0.34113,0.65074
133.893,22.0014,-0.08807001,0.34261,0.65089
134.493,22.0573,-0.08807,0.33931,0.65103
135.093,22.11318,-0.08807,0.34023,0.65117
135.693,22.16935,-0.08807,0.3397,0.65131
136.293,22.2253,-0.08807185,0.34218,0.65145
136.893,22.2811,-0.08939375,0.34141,0.65158
137.493,22.33696,-0.08939,0.33899,0.65172
138.093,22.39252,-0.08939,0.33941,0.65185
138.693,22.44815,-0.08939148,0.3369,0.65199
139.293,22.5038,-0.090707,0.33808,0.65212
139.893,22.55914,-0.0907,0.34083,0.65225
140.493,22.61461,-0.0907,0.33992,0.65238
141.093,22.66999,-0.0907,0.3369,0.65251
141.693,22.7254,-0.09070007,0.33801,0.65263
142.293,22.78077,-0.09072666,0.33576,0.65276
142.893,22.83604,-0.09202056,0.33649,0.65288
143.493,22.89126,-0.09266875,0.33741,0.65301
144.093,22.94641,-0.09268004,0.33778,0.65313
144.693,23.0015,-0.09269983,0.33772,0.65325
145.293,23.05648,-0.09202097,0.33559,0.65337
145.893,23.11143,-0.09202,0.33897,0.65349
146.493,23.16631,-0.09202108,0.33599,0.6536
147.093,23.22129,-0.09296523,0.33695,0.65372
147.693,23.27621,-0.0923597,0.33556,0.65383
148.293,23.33126,-0.09235779,0.33699,0.65395
148.893,23.38615,-0.09202804,0.33591,0.65406
149.493,23.4411,-0.0920301,0.33663,0.65417
150.093,23.49586,-0.09147044,0.33471,0.65428
150.693,23.5505,-0.09075687,0.33387,0.65439
151.293,23.6051,-0.09333235,0.3365,0.65449
151.893,23.6597,-0.09466036,0.33292,0.6546
152.493,23.7144,-0.09465988,0.335,0.6547
153.093,23.76888,-0.09471211,0.33512,0.65481
153.693,23.82366,-0.09334014,0.33474,0.65491
154.293,23.87835,-0.09333237,0.33447,0.65501
154.893,23.93307,-0.0959689,0.33363,0.65511
155.493,23.9878,-0.09465731,0.33454,0.65521
156.093,24.04253,-0.09466,0.33346,0.65531
156.693,24.09695,-0.09466006,0.33698,0.6554
157.293,24.15149,-0.0947082,0.33592,0.6555
157.893,24.20586,-0.09466071,0.33397,0.65559
158.493,24.26022,-0.09466,0.33459,0.65568
159.093,24.31468,-0.09471715,0.33242,0.65577
159.693,24.36901,-0.09597967,0.33222,0.65586
160.293,24.42343,-0.09598002,0.33332,0.65595
160.893,24.47784,-0.09596843,0.33391,0.65604
161.493,24.53211,-0.09465683,0.33261,0.65613
162.093,24.5864,-0.09467428,0.33275,0.65621
162.693,24.6407,-0.09492658,0.33362,0.6563
163.293,24.69495,-0.09465866,0.33638,0.65638
163.893,24.74932,-0.09399639,0.33456,0.65646
164.493,24.80384,-0.09531377,0.33503,0.65654
165.093,24.8582,-0.09531,0.33483,0.65662
165.693,24.9125,-0.09531001,0.33542,0.6567
166.293,24.9668,-0.09530306,0.33607,0.65677
166.893,25.02117,-0.09662878,0.33689,0.65685
167.493,25.07548,-0.09554602,0.33877,0.65692
168.093,25.1297,-0.09399548,0.34018,0.657
168.693,25.18402,-0.09566287,0.33673,0.65707
169.293,25.2382,-0.09685098,0.33629,0.65714
169.893,25.29262,-0.09685999,0.33494,0.65721
170.493,25.347,-0.09686,0.33922,0.65728
171.093,25.40118,-0.09686,0.33811,0.65734
171.693,25.45521,-0.09686,0.34055,0.65741
172.293,25.50924,-0.09686,0.34183,0.65748
172.893,25.56333,-0.09687247,0.33824,0.65754
173.493,25.61743,-0.09751258,0.34011,0.6576
174.093,25.67156,-0.09751006,0.34212,0.65766
174.693,25.7257,-0.09730816,0.34004,0.65772
175.293,25.77981,-0.09684997,0.33937,0.65778
175.893,25.83396,-0.09556578,0.34145,0.65784
176.493,25.88823,-0.09553999,0.34241,0.65789
177.093,25.9423,-0.09553684,0.34125,0.65795
177.693,25.9964,-0.09684316,0.34187,0.658
178.293,26.05043,-0.09883075,0.3392,0.65806
178.893,26.10445,-0.09891397,0.34191,0.65811
179.493,26.15846,-0.09750986,0.33986,0.65816
180.093,26.21209,-0.09751152,0.34062,0.65821
180.693,26.2653,-0.09614294,0.34178,0.65826
181.293,26.31885,-0.09619001,0.34292,0.6583
181.893,26.37275,-0.09618985,0.34419,0.65835
182.493,26.4269,-0.0965977,0.34312,0.65839
183.093,26.4813,-0.09751353,0.34262,0.65844
183.693,26.53521,-0.09880621,0.34465,0.65848
184.293,26.58874,-0.09642059,0.34517,0.65852
184.893,26.64235,-0.09367007,0.34553,0.65856
185.493,26.69605,-0.1021,0.3453,0.6586
186.093,26.74972,-0.09816821,0.34299,0.65864
186.693,26.80335,-0.09635083,0.34541,0.65867
187.293,26.857,-0.09532005,0.3458,0.65871
187.893,26.91062,-0.09570385,0.3469,0.65874
188.493,26.9641,-0.09698995,0.34671,0.65877
189.093,27.0177,-0.09789533,0.34768,0.65881
189.693,27.07115,-0.09925905,0.34644,0.65884
190.293,27.1247,-0.0979766,0.3489,0.65886
190.893,27.17807,-0.09923944,0.3489,0.65889
191.493,27.2316,-0.09793739,0.35078,0.65892
192.093,27.2851,-0.09793977,0.35086,0.65895
192.693,27.3384,-0.09845747,0.35191,0.65897
193.293,27.392,-0.10077,0.35073,0.65899
193.893,27.4456,-0.10069,0.35155,0.65902
194.493,27.49901,-0.10069,0.35225,0.65904
195.093,27.55273,-0.09929144,0.35541,0.65906
195.693,27.60622,-0.09802061,0.35353,0.65908
196.293,27.65966,-0.09806097,0.34984,0.65909
196.893,27.7132,-0.09741127,0.35408,0.65911
197.493,27.7665,-0.09882827,0.35648,0.65913
198.093,27.82002,-0.10014,0.35484,0.65914
198.693,27.87335,-0.10014,0.35417,0.65915
199.293,27.9267,-0.10015,0.35348,0.65917
199.893,27.98,-0.10015,0.35556,0.65918
200.493,28.0333,-0.10146,0.35529,0.65919
201.093,28.0867,-0.10002,0.35754,0.6592
201.693,28.14003,-0.09882774,0.35629,0.6592
202.293,28.1935,-0.09124315,0.35546,0.65921
202.893,28.2469,-0.10899,0.35498,0.65921
203.493,28.3002,-0.10166,0.35475,0.65922
204.093,28.3537,-0.09981186,0.35549,0.65922
204.693,28.40705,-0.1008,0.3552,0.65922
205.293,28.4605,-0.09946459,0.35635,0.65922
205.893,28.51394,-0.09948559,0.35641,0.65922
206.493,28.56731,-0.1008,0.35777,0.65922
207.093,28.6208,-0.1008,0.36068,0.65922
207.693,28.67418,-0.1008,0.35661,0.65922
208.293,28.7277,-0.1008,0.35815,0.65921
208.893,28.7811,-0.1008,0.3603,0.65921
209.493,28.8345,-0.10251,0.35877,0.6592
210.093,28.8879,-0.10343,0.35833,0.65919
210.693,28.94114,-0.10343,0.35785,0.65918
211.293,28.99445,-0.10343,0.35795,0.65917
211.893,29.04775,-0.10343,0.35818,0.65916
212.493,29.10125,-0.10343,0.35986,0.65915
213.093,29.1546,-0.10483,0.36135,0.65913
213.693,29.208,-0.10474,0.36134,0.65912
214.293,29.26107,-0.10572,0.36118,0.6591
214.893,29.3145,-0.10573,0.35797,0.65908
215.493,29.36808,-0.10573,0.35828,0.65907
216.093,29.42135,-0.10568,0.36255,0.65905
216.693,29.47516,-0.10509,0.3585,0.65903
217.293,29.5284,-0.10508,0.36027,0.659
217.893,29.5817,-0.10428,0.36102,0.65898
218.493,29.63529,-0.10394,0.35969,0.65896
219.093,29.6886,-0.1053,0.36261,0.65893
219.693,29.74179,-0.1054,0.35985,0.65891
220.293,29.79513,-0.1054,0.35974,0.65888
220.893,29.84863,-0.1054,0.3601,0.65885
221.493,29.90219,-0.1054,0.35916,0.65882
222.093,29.9558,-0.10673,0.35728,0.65879
222.693,30.0091,-0.10732,0.35979,0.65876
223.293,30.06247,-0.10893,0.3583,0.65873
223.893,30.11575,-0.10644,0.35966,0.6587
224.493,30.1692,-0.10639,0.35873,0.65866
225.093,30.22283,-0.10756,0.35697,0.65862
225.693,30.27648,-0.10771,0.35876,0.65859
226.293,30.3299,-0.10902,0.35592,0.65855
226.893,30.38332,-0.11237,0.3574,0.65851
227.493,30.43667,-0.12179,0.3563,0.65847
228.093,30.4899,-0.09601625,0.35915,0.65843
228.693,30.5433,-0.10529,0.35913,0.65839
229.293,30.5967,-0.10977,0.35946,0.65835
229.893,30.65028,-0.10867,0.35727,0.6583
230.493,30.7039,-0.11011,0.35585,0.65826
231.093,30.75742,-0.10992,0.35613,0.65821
231.693,30.81089,-0.11133,0.35607,0.65816
232.293,30.86437,-0.1114,0.35861,0.65811
232.893,30.91777,-0.11402,0.3603,0.65806
233.493,30.9714,-0.11134,0.36045,0.65801
234.093,31.02474,-0.1127,0.35892,0.65796
234.693,31.07811,-0.11382,0.35974,0.65791
235.293,31.13151,-0.11526,0.36339,0.65786
235.893,31.1851,-0.11528,0.36209,0.6578
236.493,31.2385,-0.11528,0.36044,0.65774
237.093,31.2919,-0.11605,0.36353,0.65769
237.693,31.34555,-0.11656,0.3614,0.65763
238.293,31.39903,-0.11782,0.36112,0.65757
238.893,31.45283,-0.11823,0.35924,0.65751
239.493,31.5064,-0.11823,0.35894,0.65745
240.093,31.5598,-0.11823,0.35823,0.65739
240.693,31.61317,-0.11932,0.35963,0.65732
241.293,31.6665,-0.12054,0.35934,0.65726
241.893,31.72,-0.12054,0.35836,0.65719
242.493,31.77341,-0.12185,0.36186,0.65713
243.093,31.82682,-0.1232,0.35835,0.65706
243.693,31.8804,-0.12216,0.36067,0.65699
244.293,31.934,-0.12218,0.35957,0.65692
244.893,31.9878,-0.12266,0.35986,0.65685
245.493,32.0416,-0.12351,0.35799,0.65678
246.093,32.09523,-0.12482,0.35653,0.65671
246.693,32.14869,-0.12476,0.35756,0.65664
247.293,32.20207,-0.12624,0.36075,0.65656
247.893,32.25561,-0.12843,0.35876,0.65649
248.493,32.309,-0.13031,0.35769,0.65641
249.093,32.36266,-0.13026,0.35764,0.65633
249.693,32.41626,-0.13073,0.3572,0.65625
250.293,32.46997,-0.13096,0.35817,0.65618
250.893,32.5237,-0.13174,0.35673,0.65609
251.493,32.57748,-0.13219,0.35699,0.65601
252.093,32.63125,-0.13437,0.35454,0.65593
252.693,32.68484,-0.13563,0.35252,0.65585
253.293,32.73837,-0.1372,0.35442,0.65576
253.893,32.79148,-0.13832,0.35477,0.65568
254.493,32.84502,-0.13962,0.3534,0.65559
255.093,32.8987,-0.14096,0.35214,0.6555
255.693,32.95251,-0.14226,0.35258,0.65542
256.293,33.00649,-0.14383,0.35415,0.65533
256.893,33.06,-0.14511,0.35104,0.65524
257.493,33.1135,-0.14526,0.34968,0.65514
258.093,33.16695,-0.14814,0.34921,0.65505
258.693,33.2206,-0.14949,0.3518,0.65496
259.293,33.27433,-0.15074,0.34795,0.65486
259.893,33.32809,-0.15213,0.34732,0.65477
260.493,33.3818,-0.15352,0.34537,0.65467
261.093,33.43546,-0.15436,0.34451,0.65458
261.693,33.48912,-0.15472,0.34288,0.65448
262.293,33.5428,-0.158,0.3454,0.65438
262.893,33.5965,-0.16082,0.34246,0.65428
263.493,33.65014,-0.16255,0.34147,0.65418
264.093,33.70382,-0.16257,0.34249,0.65407
264.693,33.7575,-0.16627,0.34041,0.65397
265.293,33.81114,-0.1698,0.34099,0.65387
265.893,33.86483,-0.17145,0.34125,0.65376
266.493,33.91858,-0.17194,0.33793,0.65366
267.093,33.9722,-0.1747,0.33829,0.65355
267.693,34.0259,-0.17632,0.3359,0.65344
268.293,34.07955,-0.17922,0.33665,0.65333
268.893,34.1332,-0.18154,0.33424,0.65322
269.493,34.18676,-0.18514,0.33329,0.65311
270.093,34.2404,-0.18684,0.32944,0.653
270.693,34.29424,-0.18995,0.32949,0.65289
271.293,34.34799,-0.18768,0.32727,0.65278
271.893,34.40177,-0.19164,0.32756,0.65266
272.493,34.4555,-0.19518,0.32319,0.65255
273.093,34.5092,-0.20752,0.32475,0.65243
273.693,34.5629,-0.20425,0.32356,0.65231
274.293,34.61657,-0.20718,0.3209,0.65219
274.893,34.67033,-0.21082,0.32003,0.65208
275.493,34.7241,-0.21296,0.31934,0.65196
276.093,34.77776,-0.21627,0.3151,0.65183
276.693,34.83162,-0.2249,0.3176,0.65171
277.293,34.88547,-0.22531,0.31486,0.65159
277.893,34.93918,-0.21897,0.3099,0.65147
278.493,34.99296,-0.22728,0.30899,0.65134
279.093,35.04671,-0.23292,0.31001,0.65122
279.693,35.1005,-0.23683,0.30563,0.65109
280.293,35.15452,-0.2413,0.30678,0.65096
280.893,35.2085,-0.24465,0.30543,0.65083
281.493,35.26226,-0.24979,0.29843,0.65071
282.093,35.31603,-0.25619,0.29911,0.65058
282.693,35.3699,-0.26799,0.29972,0.65044
283.293,35.42365,-0.25625,0.29399,0.65031
283.893,35.47766,-0.2682,0.29692,0.65018
284.493,35.53164,-0.27462,0.29647,0.65005
285.093,35.58549,-0.27712,0.29381,0.64991
285.693,35.6395,-0.28568,0.28963,0.64978
286.293,35.69338,-0.28954,0.29059,0.64964
286.893,35.74738,-0.2948,0.28767,0.6495
287.493,35.80126,-0.29988,0.28628,0.64937
288.093,35.85516,-0.30612,0.28773,0.64923
288.693,35.9091,-0.31328,0.28769,0.64909
289.293,35.96305,-0.31888,0.28545,0.64895
289.893,36.01706,-0.32524,0.28665,0.6488
290.493,36.07101,-0.32973,0.28651,0.64866
291.093,36.12509,-0.33719,0.28217,0.64852
291.693,36.17902,-0.34375,0.28149,0.64837
292.293,36.23294,-0.35112,0.27798,0.64823
292.893,36.287,-0.35834,0.28128,0.64808
293.493,36.341,-0.36595,0.28023,0.64794
294.093,36.39515,-0.37382,0.27803,0.64779
294.693,36.44912,-0.38271,0.27881,0.64764
295.293,36.5032,-0.39157,0.28083,0.64749
295.893,36.55727,-0.40583,0.28422,0.64734
296.493,36.61157,-0.40086,0.28218,0.64719
297.093,36.66595,-0.41467,0.28036,0.64704
297.693,36.72017,-0.42318,0.28338,0.64689
298.293,36.77413,-0.43217,0.2822,0.64673
298.893,36.82842,-0.44173,0.2848,0.64658
299.493,36.8825,-0.45177,0.28334,0.64642
300.093,36.93665,-0.45946,0.2841,0.64627
300.693,36.991,-0.47069,0.28674,0.64611
301.293,37.04513,-0.48105,0.28842,0.64595
301.893,37.09942,-0.49192,0.2888,0.64579
302.493,37.1537,-0.50296,0.29364,0.64563
303.093,37.20802,-0.51556,0.29243,0.64547
303.693,37.26235,-0.52611,0.29434,0.64531
304.293,37.31671,-0.53734,0.29856,0.64515
304.893,37.37103,-0.54815,0.29816,0.64499
305.493,37.42518,-0.5597,0.29671,0.64483
306.093,37.47948,-0.5721,0.29971,0.64466
306.693,37.53368,-0.58625,0.29998,0.6445
307.293,37.58795,-0.60002,0.3018,0.64433
307.893,37.64233,-0.61284,0.30353,0.64416
308.493,37.69657,-0.62654,0.30665,0.644
309.093,37.75073,-0.64229,0.30832,0.64383
309.693,37.80495,-0.65346,0.31084,0.64366
310.293,37.85923,-0.66516,0.31366,0.64349
310.893,37.9135,-0.68114,0.31422,0.64332
311.493,37.96777,-0.69894,0.31601,0.64315
312.093,38.0221,-0.71458,0.31734,0.64297
312.693,38.07633,-0.73052,0.32074,0.6428
313.293,38.13074,-0.74658,0.32338,0.64263
313.893,38.1852,-0.76562,0.32711,0.64245
314.493,38.23957,-0.78324,0.32797,0.64228
315.093,38.2939,-0.80114,0.32956,0.6421
315.693,38.34807,-0.81802,0.33149,0.64192
316.293,38.40258,-0.83689,0.33495,0.64174
316.893,38.457,-0.85549,0.3381,0.64157
317.493,38.5114,-0.87642,0.33956,0.64139
318.093,38.56599,-0.89696,0.34469,0.64121
318.693,38.62043,-0.92045,0.34743,0.64103
319.293,38.6749,-0.93895,0.34927,0.64084
319.893,38.72935,-0.96199,0.35379,0.64066
320.493,38.78367,-0.98508,0.3563,0.64048
321.093,38.83807,-1.00827,0.36232,0.64029
321.693,38.89249,-1.03246,0.36349,0.64011
322.293,38.94686,-1.05804,0.37073,0.63992
322.893,39.00128,-1.08332,0.36981,0.63974
323.493,39.05572,-1.11104,0.37575,0.63955
324.093,39.11015,-1.13663,0.37624,0.63936
324.693,39.16467,-1.16422,0.38007,0.63917
325.293,39.2192,-1.1934,0.38638,0.63899
325.893,39.2736,-1.22143,0.39005,0.6388
326.493,39.32821,-1.25114,0.38983,0.6386
327.093,39.38272,-1.28455,0.39616,0.63841
327.693,39.437,-1.31649,0.39973,0.63822
328.293,39.49116,-1.34805,0.40107,0.63803
328.893,39.54564,-1.38272,0.40611,0.63783
329.493,39.60025,-1.415,0.41117,0.63764
330.093,39.65506,-1.45447,0.41721,0.63744
330.693,39.7099,-1.48785,0.42157,0.63725
331.293,39.76447,-1.52243,0.42668,0.63705
331.893,39.81888,-1.56109,0.43074,0.63686
332.493,39.8735,-1.59724,0.4335,0.63666
333.093,39.92811,-1.63511,0.44024,0.63646
333.693,39.98271,-1.67693,0.44558,0.63626
334.293,40.0374,-1.71603,0.44552,0.63606
334.893,40.09211,-1.75786,0.45325,0.63586
335.493,40.14662,-1.79928,0.45997,0.63566
336.093,40.2012,-1.83876,0.46461,0.63545
336.693,40.25578,-1.88118,0.46715,0.63525
337.293,40.31054,-1.92183,0.47064,0.63505
337.893,40.3654,-1.9637,0.47183,0.63484
338.493,40.42023,-2.00754,0.47785,0.63464
339.093,40.4751,-2.04964,0.48265,0.63443
339.693,40.52995,-2.09319,0.48348,0.63423
340.293,40.5848,-2.13652,0.4851,0.63402
340.893,40.63962,-2.17721,0.48748,0.63381
341.493,40.6946,-2.2226,0.48688,0.6336
342.093,40.74941,-2.26398,0.48765,0.63339
342.693,40.80426,-2.30823,0.48909,0.63318
343.293,40.85923,-2.35065,0.48908,0.63297
343.893,40.9142,-2.38811,0.48403,0.63276
344.493,40.9692,-2.42995,0.4828,0.63255
345.093,41.02411,-2.46996,0.48284,0.63234
345.693,41.07905,-2.50586,0.47651,0.63212
346.293,41.13404,-2.5488,0.47371,0.63191
346.893,41.18923,-2.58764,0.47091,0.6317
347.493,41.24446,-2.6216,0.46127,0.63148
348.093,41.29975,-2.65983,0.45582,0.63127
348.693,41.35488,-2.69378,0.44713,0.63105
349.293,41.40996,-2.72754,0.43738,0.63083
349.893,41.46497,-2.76308,0.42804,0.63061
350.493,41.5201,-2.79379,0.41791,0.6304
351.093,41.57546,-2.82437,0.40892,0.63018
351.693,41.63077,-2.8557,0.39986,0.62996
352.293,41.68622,-2.88293,0.38739,0.62974
352.893,41.74154,-2.9101,0.37722,0.62952
353.493,41.7969,-2.9363,0.36678,0.62929
354.093,41.8521,-2.96246,0.35203,0.62907
354.693,41.90736,-2.98668,0.33895,0.62885
355.293,41.96273,-3.00861,0.32572,0.62863
355.893,42.01805,-3.03206,0.31402,0.6284
356.493,42.07332,-3.05087,0.29842,0.62818
357.093,42.12858,-3.07184,0.28485,0.62795
357.693,42.1836,-3.09055,0.26954,0.62773
358.293,42.23856,-3.10903,0.25756,0.6275
358.893,42.2941,-3.12643,0.24526,0.62727
359.493,42.34933,-3.14105,0.23466,0.62704
360.093,42.40493,-3.15708,0.21927,0.62682
360.693,42.46052,-3.17082,0.20441,0.62659
361.293,42.5158,-3.18397,0.19674,0.62636
361.893,42.5713,-3.19403,0.18273,0.62613
362.493,42.62686,-3.20713,0.16807,0.6259
363.093,42.68221,-3.21983,0.15894,0.62566
363.693,42.7376,-3.22923,0.14783,0.62543
364.293,42.79283,-3.23881,0.13713,0.6252
364.893,42.848,-3.24653,0.12673,0.62497
365.493,42.90338,-3.25539,0.11521,0.62473
366.093,42.95867,-3.26225,0.10431,0.6245
366.693,43.01412,-3.26691,0.09765027,0.62426
367.293,43.06961,-3.27319,0.09330966,0.62403
367.893,43.125,-3.27864,0.08327501,0.62379
368.493,43.18056,-3.28447,0.07756681,0.62356
369.093,43.23585,-3.28908,0.07093,0.62332
369.693,43.29126,-3.2945,0.06435239,0.62308
370.293,43.3467,-3.29803,0.05956738,0.62284
370.893,43.40197,-3.30261,0.05609241,0.6226
371.493,43.45755,-3.30603,0.05603643,0.62236
372.093,43.5131,-3.30943,0.04704808,0.62212
372.693,43.56859,-3.31282,0.0490232,0.62188
373.293,43.62423,-3.31454,0.04542724,0.62164
373.893,43.6798,-3.31614,0.04684168,0.6214
374.493,43.7353,-3.31777,0.0406097,0.62116
375.093,43.7909,-3.32266,0.04167771,0.62092
375.693,43.8464,-3.32708,0.03724923,0.62067
376.293,43.90197,-3.32966,0.03814657,0.62043
376.893,43.95765,-3.33278,0.03806502,0.62018
377.493,44.0133,-3.3334,0.03808011,0.61994
378.093,44.06917,-3.33555,0.03399992,0.61969
378.693,44.125,-3.33891,0.03310038,0.61945
379.293,44.18049,-3.3403,0.03189733,0.6192
379.893,44.23611,-3.34181,0.03345773,0.61895
380.493,44.2918,-3.34309,0.03246855,0.61871
381.093,44.34754,-3.34624,0.02772687,0.61846
381.693,44.4037,-3.34836,0.02711469,0.61821
382.293,44.45953,-3.34968,0.02825273,0.61796
382.893,44.51531,-3.35133,0.02734165,0.61771
383.493,44.57096,-3.35483,0.03046903,0.61746
384.093,44.62682,-3.35696,0.02521102,0.61721
384.693,44.6828,-3.35894,0.02388315,0.61696
385.293,44.73884,-3.36023,0.02486993,0.61671
385.893,44.79476,-3.36172,0.02376367,0.61645
386.493,44.85046,-3.36476,0.02385361,0.6162
387.093,44.90567,-3.36777,0.0229513,0.61595
387.693,44.96093,-3.3681,0.02212046,0.61569
388.293,45.01665,-3.3701,0.02417298,0.61544
388.893,45.07275,-3.37273,0.02221699,0.61519
389.493,45.12914,-3.37428,0.02125257,0.61493
390.093,45.1856,-3.37559,0.0185777,0.61467
390.693,45.24154,-3.37802,0.01882577,0.61442
391.293,45.29764,-3.38019,0.018133,0.61416
391.893,45.35369,-3.38279,0.01828511,0.6139
392.493,45.40961,-3.38454,0.01737115,0.61365
393.093,45.46569,-3.38416,0.01529272,0.61339
393.693,45.52174,-3.38487,0.01332086,0.61313
394.293,45.57796,-3.38868,0.01226361,0.61287
394.893,45.63422,-3.39002,0.01266181,0.61261
395.493,45.6905,-3.39076,0.01013557,0.61235
396.093,45.74662,-3.39267,0.01360857,0.61209
396.693,45.8027,-3.39426,0.01140175,0.61183
397.293,45.85883,-3.39555,0.008301476,0.61157
397.893,45.91491,-3.39692,0.01020248,0.61131
398.493,45.9711,-3.39967,0.00749671,0.61104
399.093,46.02722,-3.40129,0.009644926,0.61078
399.693,46.08343,-3.40188,0.008866126,0.61052
400.293,46.1396,-3.404,0.00689598,0.61026
400.893,46.19575,-3.40848,0.007482873,0.60999
401.493,46.2519,-3.40887,0.006633113,0.60973
402.093,46.30807,-3.41259,0.0054578,0.60946
402.693,46.3643,-3.4139,0.0004224882,0.6092
403.293,46.4206,-3.41392,0.003710036,0.60893
403.893,46.47688,-3.417,0.003126254,0.60866
404.493,46.53314,-3.41825,0.002419105,0.6084
405.093,46.5895,-3.41887,0.0007905134,0.60813
405.693,46.64584,-3.42143,0.00186882,0.60786
406.293,46.702,-3.4244,0.00127955,0.6076
406.893,46.75841,-3.42569,0.001283193,0.60733
407.493,46.81475,-3.42714,0.002347059,0.60706
408.093,46.87109,-3.42821,0.004282665,0.60679
408.693,46.9275,-3.42861,-7.56506e-06,0.60652
409.293,46.98379,-3.43144,8.20521e-05,0.60625
409.893,47.0402,-3.43262,6.811866e-05,0.60598
410.493,47.09667,-3.43403,-0.000863821,0.60571
411.093,47.15312,-3.43703,-0.001038321,0.60544
411.693,47.20964,-3.43883,0.0009084109,0.60516
412.293,47.26632,-3.44106,-0.0008252421,0.60489
412.893,47.32289,-3.44234,-0.001131549,0.60462
413.493,47.3793,-3.44311,-0.002291314,0.60435
414.093,47.43578,-3.44426,-0.00213723,0.60407
414.693,47.49219,-3.44503,-0.00512986,0.6038
415.293,47.5488,-3.44787,-0.00351829,0.60353
415.893,47.6054,-3.44983,-0.00346211,0.60325
416.493,47.66182,-3.45096,-0.003860157,0.60298
417.093,47.7184,-3.45226,-0.00416085,0.6027
417.693,47.77498,-3.45351,-0.00427619,0.60243
418.293,47.83167,-3.45509,-0.005721808,0.60215
418.893,47.88836,-3.45735,-0.007693354,0.60187
419.493,47.9452,-3.45926,-0.002533431,0.6016
420.093,48.00183,-3.46076,-0.007554002,0.60132
420.693,48.05857,-3.4621,-0.00564279,0.60104
421.293,48.11545,-3.46654,-0.006686271,0.60077
421.893,48.17208,-3.46679,-0.01101968,0.60049
422.493,48.22878,-3.46792,-0.009646325,0.60021
423.093,48.28561,-3.46949,-0.007876993,0.59993
423.693,48.34236,-3.4717,-0.00928555,0.59965
424.293,48.39924,-3.47366,-0.009174082,0.59937
424.893,48.4561,-3.47527,-0.01209633,0.59909
425.493,48.5129,-3.47633,-0.0119678,0.59881
426.093,48.56981,-3.47692,-0.01428436,0.59853
426.693,48.6267,-3.47784,-0.01531432,0.59825
427.293,48.6833,-3.48051,-0.01163807,0.59797
427.893,48.73995,-3.48177,-0.01568777,0.59769
428.493,48.7967,-3.48445,-0.01488354,0.59741
429.093,48.85357,-3.4852,-0.0137891,0.59712
429.693,48.9105,-3.48739,-0.01278888,0.59684
430.293,48.96747,-3.48731,-0.01509134,0.59656
430.893,49.02442,-3.48862,-0.01652264,0.59627
431.493,49.0813,-3.49078,-0.01701831,0.59599
432.093,49.13823,-3.49291,-0.01810218,0.59571
432.693,49.19505,-3.49448,-0.02032662,0.59542
433.293,49.25176,-3.49591,-0.02184076,0.59514
433.893,49.30857,-3.49718,-0.02094401,0.59485
434.493,49.36553,-3.49856,-0.01545384,0.59457
435.093,49.42259,-3.50095,-0.01984452,0.59428
435.693,49.47951,-3.50271,-0.02158815,0.594
436.293,49.53655,-3.50391,-0.01691929,0.59371
436.893,49.59357,-3.50426,-0.017406,0.59343
437.493,49.65062,-3.50687,-0.01773793,0.59314
438.093,49.7077,-3.50983,-0.01684407,0.59285
438.693,49.7646,-3.50992,-0.01825756,0.59256
439.293,49.8217,-3.51204,-0.0176522,0.59228
439.893,49.87876,-3.5139,-0.01856129,0.59199
440.493,49.93573,-3.51393,-0.01649755,0.5917
441.093,49.99273,-3.51652,-0.01690806,0.59141
441.693,50.04991,-3.51905,-0.01888587,0.59112
442.293,50.10695,-3.51945,-0.01638715,0.59083
442.893,50.1641,-3.52072,-0.01659754,0.59055
443.493,50.22126,-3.522,-0.01693764,0.59026
444.093,50.27855,-3.52355,-0.02197837,0.58997
444.693,50.33574,-3.52453,-0.02136434,0.58968
445.293,50.393,-3.52711,-0.02058204,0.58939
445.893,50.45023,-3.52849,-0.02165259,0.5891
446.493,50.50745,-3.5292,-0.02231169,0.5888
447.093,50.56475,-3.53121,-0.02082015,0.58851
447.693,50.62172,-3.53263,-0.01882554,0.58822
448.293,50.67924,-3.53547,-0.01863248,0.58793
448.893,50.73653,-3.53821,-0.02398811,0.58764
449.493,50.79384,-3.53944,-0.02282965,0.58735
450.093,50.8514,-3.53861,-0.02046794,0.58705
450.693,50.90872,-3.54106,-0.01828919,0.58676
451.293,50.96615,-3.54242,-0.02015297,0.58647
451.893,51.02355,-3.54371,-0.02155557,0.58618
452.493,51.0807,-3.54373,-0.02125051,0.58588
453.093,51.13773,-3.54507,-0.02102009,0.58559
453.693,51.19506,-3.54529,-0.022482,0.58529
454.293,51.2524,-3.54803,-0.01885705,0.585
454.893,51.31027,-3.54933,-0.02426288,0.58471
455.493,51.36795,-3.55198,-0.02043504,0.58441
456.093,51.42536,-3.5526,-0.02274355,0.58412
456.693,51.48274,-3.55345,-0.02280403,0.58382
457.293,51.54018,-3.55581,-0.02351094,0.58353
457.893,51.59765,-3.55716,-0.02189447,0.58323
458.493,51.6552,-3.55843,-0.01984296,0.58294
459.093,51.71266,-3.5596,-0.02232144,0.58264
459.693,51.77001,-3.56052,-0.02109627,0.58234
460.293,51.82734,-3.56198,-0.02108387,0.58205
460.893,51.88473,-3.56315,-0.02307568,0.58175
461.493,51.94211,-3.56399,-0.02649949,0.58145
462.093,51.99962,-3.56662,-0.02362602,0.58116
462.693,52.05701,-3.5673,-0.02574245,0.58086
463.293,52.11466,-3.56881,-0.02714546,0.58056
463.893,52.1721,-3.57242,-0.02976274,0.58027
464.493,52.22958,-3.57386,-0.02447972,0.57997
465.093,52.28665,-3.57423,-0.0269415,0.57967
465.693,52.34405,-3.57553,-0.02825051,0.57937
466.293,52.40182,-3.57702,-0.02617609,0.57907
466.893,52.45966,-3.5785,-0.02542056,0.57877
467.493,52.51795,-3.57982,-0.02716827,0.57848
468.093,52.5755,-3.57986,-0.0262821,0.57818
468.693,52.633,-3.5812,-0.02327749,0.57788
469.293,52.6907,-3.58279,-0.02290543,0.57758
469.893,52.7483,-3.5839,-0.02351649,0.57728
470.493,52.806,-3.58411,-0.02345724,0.57698
471.093,52.86374,-3.58643,-0.02252509,0.57668
471.693,52.9216,-3.58827,-0.02275672,0.57638
472.293,52.97931,-3.59075,-0.02261358,0.57608
472.893,53.0368,-3.59113,-0.02135737,0.57578
473.493,53.0945,-3.59119,-0.02146956,0.57548
474.093,53.15229,-3.59145,-0.02256148,0.57518
474.693,53.20994,-3.59277,-0.01967259,0.57488
475.293,53.268,-3.59375,-0.02430155,0.57458
475.893,53.32555,-3.59525,-0.02425448,0.57428
476.493,53.3833,-3.59608,-0.01988525,0.57397
477.093,53.4412,-3.59745,-0.0235121,0.57367
477.693,53.49909,-3.59869,-0.02347464,0.57337
478.293,53.5571,-3.60032,-0.02464664,0.57307
478.893,53.61485,-3.60158,-0.01792003,0.57277
479.493,53.67258,-3.60402,-0.02141667,0.57247
480.093,53.7306,-3.60395,-0.02068519,0.57216
480.693,53.7885,-3.60559,-0.01915971,0.57186
481.293,53.84665,-3.60659,-0.02158886,0.57156
481.893,53.90469,-3.6067,-0.02233432,0.57126
482.493,53.9625,-3.60787,-0.01997435,0.57095
483.093,54.0205,-3.60791,-0.0214875,0.57065
483.693,54.0785,-3.60791,-0.01812697,0.57035
484.293,54.13655,-3.6092,-0.01749875,0.57005
484.893,54.1949,-3.61053,-0.02013312,0.56974
485.493,54.25306,-3.6125,-0.01819799,0.56944
486.093,54.31122,-3.61392,-0.02088461,0.56914
486.693,54.36928,-3.61394,-0.01815568,0.56883
487.293,54.4276,-3.61525,-0.02123148,0.56853
487.893,54.48596,-3.61628,-0.02109113,0.56823
488.493,54.5442,-3.61768,-0.01856622,0.56792
489.093,54.6024,-3.61925,-0.01888058,0.56762
489.693,54.6605,-3.62064,-0.01761598,0.56731
490.293,54.71866,-3.62226,-0.01896999,0.56701
490.893,54.7769,-3.62195,-0.01743175,0.56671
491.493,54.83501,-3.62458,-0.01722184,0.5664
492.093,54.8929,-3.62547,-0.02075406,0.5661
492.693,54.9508,-3.62578,-0.02235849,0.56579
493.293,55.0088,-3.62578,-0.01661424,0.56549
493.893,55.0672,-3.62468,-0.0192654,0.56518
494.493,55.12559,-3.62576,-0.01724764,0.56488
495.093,55.18387,-3.62608,-0.01651915,0.56457
495.693,55.24191,-3.6298,-0.01536611,0.56427
496.293,55.29996,-3.62973,-0.01863029,0.56396
496.893,55.3581,-3.63109,-0.01766801,0.56366
497.493,55.4164,-3.63265,-0.01788609,0.56335
498.093,55.47459,-3.63176,-0.01539469,0.56305
498.693,55.53306,-3.63258,-0.01552593,0.56274
499.293,55.5914,-3.63401,-0.01477504,0.56244
499.893,55.64951,-3.63615,-0.01492289,0.56213
500.493,55.708,-3.63682,-0.01516398,0.56182
501.093,55.76631,-3.63819,-0.01785956,0.56152
501.693,55.82479,-3.6395,-0.0174578,0.56121
502.293,55.88315,-3.63908,-0.01284311,0.56091
502.893,55.94125,-3.63823,-0.01126771,0.5606
503.493,55.9995,-3.64103,-0.009733616,0.5603
504.093,56.05789,-3.64235,-0.005285284,0.55999
504.693,56.11648,-3.64264,-0.005577585,0.55968
505.293,56.175,-3.64224,-0.00340464,0.55938
505.893,56.2336,-3.64356,-0.002232482,0.55907
506.493,56.29217,-3.64492,0.00126171,0.55877
507.093,56.35075,-3.64618,0.001982898,0.55846
507.693,56.4094,-3.64618,0.001295607,0.55815
508.293,56.468,-3.64617,0.001310114,0.55785
508.893,56.52646,-3.64749,-0.000239025,0.55754
509.493,56.5849,-3.64884,0.0105936,0.55723
510.093,56.6433,-3.6498,0.01370066,0.55693
510.693,56.70159,-3.6498,0.02523956,0.55662
511.293,56.7601,-3.64981,0.03226631,0.55631
511.893,56.8188,-3.65112,0.04735537,0.55601
512.493,56.87764,-3.65244,0.05596308,0.5557
513.093,56.93623,-3.65244,0.06003054,0.55539
513.693,56.99481,-3.65235,0.06576433,0.55509
514.293,57.05345,-3.6552,0.06770353,0.55478
514.893,57.11231,-3.65642,0.06993798,0.55448
515.493,57.17111,-3.65638,0.07270536,0.55417
516.093,57.2301,-3.65639,0.07385051,0.55386
516.693,57.2889,-3.65606,0.07763637,0.55355
517.293,57.3477,-3.65605,0.07988182,0.55325
517.893,57.40634,-3.65745,0.07820773,0.55294
518.493,57.46525,-3.66052,0.07298394,0.55263
519.093,57.5241,-3.66187,0.07702046,0.55233
519.693,57.583,-3.66083,0.07391863,0.55202
520.293,57.6418,-3.66372,0.07203615,0.55171
520.893,57.70069,-3.6633,0.07379222,0.55141
521.493,57.75956,-3.66462,0.07280049,0.5511
522.093,57.8183,-3.66412,0.07087879,0.55079
522.693,57.87693,-3.66461,0.07093567,0.55049
523.293,57.93571,-3.66461,0.07333255,0.55018
523.893,57.99448,-3.66592,0.07398206,0.54987
524.493,58.05361,-3.66593,0.07280274,0.54957
525.093,58.11254,-3.66478,0.0736135,0.54926
525.693,58.1715,-3.66591,0.07310395,0.54895
526.293,58.2304,-3.66727,0.07456589,0.54865
526.893,58.28925,-3.66877,0.07352542,0.54834
527.493,58.34831,-3.66754,0.07375011,0.54803
528.093,58.40735,-3.66965,0.07261573,0.54773
528.693,58.46629,-3.67008,0.07083623,0.54742
529.293,58.52525,-3.67009,0.06813159,0.54711
529.893,58.58418,-3.6714,0.07078551,0.54681
530.493,58.6432,-3.67272,0.07066691,0.5465
531.093,58.70199,-3.67404,0.07032601,0.54619
531.693,58.76089,-3.67404,0.07030106,0.54589
532.293,58.81974,-3.67534,0.07228997,0.54558
532.893,58.87868,-3.67428,0.07486564,0.54527
533.493,58.9375,-3.67536,0.07249508,0.54497
534.093,58.9965,-3.67536,0.07433089,0.54466
534.693,59.05551,-3.67566,0.07161749,0.54436
535.293,59.1144,-3.67668,0.07475313,0.54405
535.893,59.17331,-3.67804,0.07182553,0.54374
536.493,59.23208,-3.67942,0.07012497,0.54344
537.093,59.2908,-3.67945,0.06995318,0.54313
537.693,59.34992,-3.68074,0.06966446,0.54282
538.293,59.40911,-3.68037,0.07008621,0.54252
538.893,59.46827,-3.68073,0.07142183,0.54221
539.493,59.52745,-3.68072,0.07019681,0.54191
540.093,59.58659,-3.68205,0.06974843,0.5416
540.693,59.64566,-3.68195,0.06950787,0.54129
541.293,59.70479,-3.68337,0.06864762,0.54099
541.893,59.7637,-3.6836,0.06464044,0.54068
542.493,59.82266,-3.68435,0.06745929,0.54038
543.093,59.8816,-3.68483,0.0665809,0.54007
543.693,59.9405,-3.68567,0.06682345,0.53977
544.293,59.9996,-3.68602,0.07204538,0.53946
544.893,60.0587,-3.68567,0.06618582,0.53916
545.493,60.11778,-3.68567,0.0638022,0.53885
546.093,60.17685,-3.68701,0.06322132,0.53854
546.693,60.236,-3.68698,0.06294325,0.53824
547.293,60.29501,-3.68696,0.06699613,0.53793
547.893,60.35408,-3.687,0.06634784,0.53763
548.493,60.41316,-3.68699,0.06611847,0.53732
549.093,60.47217,-3.687,0.06879702,0.53702
549.693,60.5311,-3.687,0.06612538,0.53671
550.293,60.5904,-3.68699,0.06785317,0.53641
550.893,60.64979,-3.68962,0.06611305,0.53611
551.493,60.7095,-3.69023,0.0663916,0.5358
552.093,60.76915,-3.69225,0.06709869,0.5355
552.693,60.8285,-3.6936,0.06695514,0.53519
553.293,60.8878,-3.69357,0.06951165,0.53489
553.893,60.94706,-3.69398,0.07194179,0.53458
554.493,61.00639,-3.69488,0.07349346,0.53428
555.093,61.0657,-3.69642,0.0725824,0.53398
555.693,61.12523,-3.69642,0.07334383,0.53367
556.293,61.18455,-3.69642,0.07195759,0.53337
556.893,61.24419,-3.69663,0.07273386,0.53306
557.493,61.3036,-3.69773,0.07271996,0.53276
558.093,61.3627,-3.69905,0.07304578,0.53246
558.693,61.4218,-3.69908,0.07320026,0.53215
559.293,61.48109,-3.69849,0.07355692,0.53185
559.893,61.5405,-3.70037,0.07554448,0.53155
560.493,61.6,-3.70004,0.07697885,0.53124
561.093,61.6595,-3.70311,0.07602945,0.53094
561.693,61.71856,-3.70226,0.07572731,0.53064
562.293,61.7779,-3.70179,0.07653122,0.53034
562.893,61.83732,-3.70309,0.07760629,0.53003
563.493,61.89702,-3.70441,0.07851621,0.52973
564.093,61.9567,-3.70338,0.08417275,0.52943
564.693,62.0161,-3.70248,0.08411556,0.52913
565.293,62.07526,-3.70466,0.08064099,0.52882
565.893,62.1346,-3.70515,0.08430404,0.52852
566.493,62.194,-3.70536,0.08839163,0.52822
567.093,62.25363,-3.70542,0.08811297,0.52792
567.693,62.31318,-3.70659,0.09186812,0.52762
568.293,62.3727,-3.70777,0.09206768,0.52732
568.893,62.4322,-3.70688,0.09349669,0.52701
569.493,62.4918,-3.70721,0.08877198,0.52671
570.093,62.55132,-3.70771,0.09246783,0.52641
570.693,62.61091,-3.71035,0.09181239,0.52611
571.293,62.67043,-3.71034,0.09398517,0.52581
571.893,62.73005,-3.71035,0.09596367,0.52551
572.493,62.78963,-3.71035,0.09349597,0.52521
573.093,62.8493,-3.71035,0.09362205,0.52491
573.693,62.90846,-3.709,0.09429469,0.52461
574.293,62.9681,-3.70963,0.09527204,0.52431
574.893,63.02777,-3.71164,0.09888578,0.52401
575.493,63.0875,-3.71265,0.10008,0.52371
576.093,63.14768,-3.71282,0.09977915,0.52341
576.693,63.20726,-3.71396,0.09758361,0.52311
577.293,63.26718,-3.71231,0.09627301,0.52281
577.893,63.32679,-3.71332,0.09954555,0.52251
578.493,63.3864,-3.71408,0.09770203,0.52221
579.093,63.44631,-3.71539,0.10104,0.52191
579.693,63.5059,-3.7154,0.099265,0.52162
580.293,63.5654,-3.7168,0.09988218,0.52132
580.893,63.62503,-3.71572,0.10259,0.52102
581.493,63.6847,-3.71572,0.09983009,0.52072
582.093,63.7448,-3.71713,0.10442,0.52042
582.693,63.8047,-3.71572,0.10381,0.52013
583.293,63.86461,-3.71675,0.10913,0.51983
583.893,63.9241,-3.71704,0.10613,0.51953
584.493,63.98379,-3.71727,0.10779,0.51923
585.093,64.04382,-3.71939,0.10776,0.51894
585.693,64.10367,-3.72045,0.10497,0.51864
586.293,64.16373,-3.71945,0.11056,0.51834
586.893,64.2234,-3.72039,0.10787,0.51805
587.493,64.28319,-3.72077,0.1071,0.51775
588.093,64.34277,-3.72078,0.10784,0.51745
588.693,64.4025,-3.72209,0.10805,0.51716
589.293,64.46219,-3.72208,0.10703,0.51686
589.893,64.52211,-3.72208,0.10472,0.51656
590.493,64.5824,-3.72198,0.10477,0.51627
591.093,64.64236,-3.72274,0.10786,0.51597
591.693,64.70233,-3.72405,0.10783,0.51568
592.293,64.76216,-3.72546,0.11011,0.51538
592.893,64.82194,-3.72536,0.10886,0.51509
593.493,64.88186,-3.72669,0.11088,0.51479
594.093,64.9419,-3.72538,0.11259,0.5145
594.693,65.00195,-3.72406,0.10873,0.51421
595.293,65.06182,-3.72509,0.11321,0.51391
595.893,65.12176,-3.72504,0.10826,0.51362
596.493,65.18162,-3.72635,0.10882,0.51332
597.093,65.2414,-3.72669,0.11021,0.51303
597.693,65.30119,-3.72592,0.11601,0.51274
598.293,65.36117,-3.7267,0.1148,0.51244
598.893,65.4211,-3.7267,0.11471,0.51215
599.493,65.4812,-3.72801,0.11609,0.51186
600.093,65.54139,-3.72801,0.11743,0.51157
600.693,65.60152,-3.72801,0.1193,0.51127
601.293,65.66149,-3.72834,0.11866,0.51098
601.893,65.72157,-3.72907,0.11981,0.51069
602.493,65.78165,-3.72883,0.12038,0.5104
603.093,65.84182,-3.72965,0.12024,0.51011
603.693,65.9019,-3.72965,0.12104,0.50982
604.293,65.9619,-3.72966,0.12281,0.50953
604.893,66.02211,-3.73097,0.12291,0.50924
605.493,66.08224,-3.73152,0.12232,0.50894
606.093,66.14237,-3.73229,0.1201,0.50865
606.693,66.20251,-3.73097,0.12284,0.50836
607.293,66.26253,-3.73097,0.12266,0.50807
607.893,66.32265,-3.7324,0.12327,0.50778
608.493,66.38277,-3.73348,0.12047,0.5075
609.093,66.44289,-3.7323,0.11947,0.50721
609.693,66.50312,-3.73366,0.12514,0.50692
610.293,66.56303,-3.73214,0.1262,0.50663
610.893,66.6233,-3.73349,0.12369,0.50634
611.493,66.68327,-3.73482,0.12737,0.50605
612.093,66.74319,-3.73348,0.12831,0.50576
612.693,66.80336,-3.73349,0.12804,0.50548
613.293,66.86336,-3.73349,0.12944,0.50519
613.893,66.92331,-3.73482,0.1265,0.5049
614.493,66.98361,-3.73481,0.12388,0.50461
615.093,67.04378,-3.73513,0.12394,0.50433
615.693,67.1044,-3.73616,0.12394,0.50404
616.293,67.1645,-3.73623,0.12481,0.50375
616.893,67.22461,-3.73612,0.11931,0.50347
617.493,67.28482,-3.73741,0.12374,0.50318
618.093,67.345,-3.73591,0.1249,0.5029
618.693,67.40531,-3.7372,0.12956,0.50261
619.293,67.46576,-3.73591,0.12528,0.50232
619.893,67.5261,-3.73762,0.12476,0.50204
620.493,67.5865,-3.73854,0.12446,0.50175
621.093,67.64675,-3.73853,0.1227,0.50147
621.693,67.70695,-3.73853,0.12417,0.50119
622.293,67.76736,-3.73985,0.12765,0.5009
622.893,67.82794,-3.73855,0.12903,0.50062
623.493,67.8885,-3.73854,0.13073,0.50033
624.093,67.94898,-3.73854,0.13281,0.50005
624.693,68.00922,-3.73996,0.13082,0.49977
625.293,68.06963,-3.73996,0.13162,0.49949
625.893,68.1294,-3.73996,0.13052,0.4992
626.493,68.18985,-3.74128,0.13285,0.49892
627.093,68.2504,-3.74128,0.13354,0.49864
627.693,68.31119,-3.74126,0.13867,0.49836
628.293,68.37183,-3.74259,0.1417,0.49808
628.893,68.43228,-3.74143,0.1404,0.49779
629.493,68.49271,-3.73893,0.13863,0.49751
630.093,68.55332,-3.73927,0.14231,0.49723
630.693,68.61392,-3.74192,0.14161,0.49695
631.293,68.67433,-3.74304,0.14827,0.49667
631.893,68.73474,-3.74304,0.14522,0.49639
632.493,68.79516,-3.74171,0.14748,0.49611
633.093,68.85569,-3.74172,0.14639,0.49583
633.693,68.9161,-3.74172,0.15547,0.49555
634.293,68.9765,-3.74172,0.15435,0.49527
634.893,69.03681,-3.74239,0.15331,0.495
635.493,69.09732,-3.74193,0.15652,0.49472
636.093,69.15788,-3.74172,0.16122,0.49444
636.693,69.21849,-3.74306,0.15741,0.49416
637.293,69.27906,-3.74444,0.15621,0.49388
637.893,69.33978,-3.74579,0.15787,0.49361
638.493,69.40029,-3.74448,0.1566,0.49333
639.093,69.46066,-3.7445,0.15651,0.49305
639.693,69.52112,-3.74577,0.15703,0.49278
640.293,69.58166,-3.74577,0.15211,0.4925
640.893,69.64214,-3.74577,0.15326,0.49222
641.493,69.70285,-3.74577,0.15551,0.49195
642.093,69.76346,-3.74577,0.15674,0.49167
642.693,69.82417,-3.74577,0.15124,0.4914
643.293,69.88458,-3.74559,0.15392,0.49112
643.893,69.94497,-3.74578,0.15421,0.49085
644.393,69.99551,-3.74707,0.15223,0.49062