File: 01_Data/Plastic_Laminate_Counterop/Cone/Plastic_Laminate_Countertop_Cone_HF50Scan_220504_R1.csv
Names,Time,Stack TC,Smoke TC,Exh Press,Smoke Comp,Smoke Meas,CO Meter,CO2 Meter,O2 Meter,Sample Mass,Ext Coeff,Start Test,Flame Verif
Chan Gain,,500,500,1,1,1,1,1,1,1,1,1.0,1.0
Offset,,0,0,0.134921,0,0,0,0,0,0,0,0.0,0.0
Gain,,1,1,25.011,13.0391,14.631,1,1,1,1.0009,1.01612,1.0,1.0
Units,sec,C,C,Pa,%,%,%,%,%,g,/m,,
Baseline,,32.8061,33.97,132.553,99.0103,101.658,0.00109404,0.0579748,21.0083,-477.229,-0.235161,,
38,9.25,30.902,30.917,130.186,98.9478,102.159,0.000999069,0.0646409,21.0012,718.075,-0.284682,0.0,0.0
76,18.75,30.9326,32.5482,131.634,98.8367,100.688,0.00106791,0.0707778,20.9936,718.025,-0.165431,0.0,0.0
114,28.25,32.3984,32.7345,132.008,98.6688,94.3163,0.00499719,0.0769523,20.9966,716.884,0.40213,0.0,0.0
152,37.75,38.5363,37.2285,116.958,98.5479,104.473,0.00492566,0.356613,20.5799,716.084,-0.520403,0.0,1.0
190,47.25,43.3105,43.2585,123.907,98.4468,104.079,0.00340621,0.323025,20.7176,715.043,-0.495925,0.0,0.0
228,56.75,46.2495,46.0524,119.346,98.3811,104.196,0.00315945,0.306893,20.7282,714.112,-0.511884,0.0,0.0
266,66.25,47.5963,47.8554,126.832,98.5136,100.75,0.00369114,0.275411,20.782,713.351,-0.20007,0.0,0.0
304,75.75,46.6368,48.0349,125.621,98.6955,102.844,0.00437003,0.195127,20.8717,712.851,-0.367036,0.0,0.0
342,85.25,44.9086,46.7904,129.607,98.8161,102.857,0.00466623,0.158819,20.9054,712.48,-0.357237,0.0,0.0
380,94.75,43.1839,45.4864,130.307,98.9147,102.702,0.00489746,0.143888,20.917,712.17,-0.334943,0.0,0.0
418,104.25,42.6986,45.1489,126.175,98.9808,103.285,0.00481602,0.144362,20.9108,711.76,-0.37942,0.0,0.0
456,113.75,41.9857,44.7167,129.171,99.0449,101.863,0.00492777,0.153824,20.8962,711.379,-0.250074,0.0,0.0
494,123.25,42.4275,44.7892,126.773,99.0898,101.127,0.00470522,0.171954,20.8729,710.919,-0.181407,0.0,0.0
532,132.75,42.6341,45.5285,127.697,99.1201,100.484,0.00464481,0.194752,20.8471,710.328,-0.121835,0.0,0.0
570,142.25,43.6085,45.845,119.179,99.1507,99.3805,0.00504762,0.223018,20.8127,709.678,-0.0206316,0.0,0.0
608,151.75,45.3622,47.5367,123.568,99.1646,99.1836,0.00505427,0.254603,20.7764,708.897,-0.00170184,0.0,0.0
646,161.25,46.8574,48.642,121.371,99.1547,98.8192,0.00508242,0.285502,20.7383,707.996,0.0302071,0.0,0.0
684,170.75,48.7638,50.4482,124.691,99.171,98.3388,0.00483569,0.308137,20.7191,707.116,0.0751144,0.0,0.0
722,180.25,50.535,51.8705,123.776,99.1567,98.8719,0.00499226,0.32402,20.7046,706.095,0.0256355,0.0,0.0
760,189.75,51.6301,53.4205,123.351,99.179,100.173,0.0051267,0.331149,20.6962,705.044,-0.088892,0.0,0.0
798,199.25,52.9408,54.6607,121.991,99.2052,100.728,0.00547138,0.336396,20.694,704.053,-0.135741,0.0,0.0
836,208.75,53.5075,55.7191,122.525,99.1893,98.7049,0.00580355,0.333394,20.6977,703.002,0.0436352,0.0,0.0
874,218.25,54.6949,57.0936,121.888,99.1953,99.2827,0.00593227,0.329716,20.7021,702.051,-0.00785149,0.0,0.0
912,227.75,55.5285,58.4266,120.624,99.1555,100.649,0.00571903,0.326273,20.7069,701.04,-0.133254,0.0,0.0
950,237.25,54.9217,58.0514,121.705,99.0942,101.989,0.00608134,0.320248,20.7135,700.059,-0.256684,0.0,0.0
988,246.75,55.6176,58.3846,118.527,99.0238,101.988,0.005372,0.314092,20.7208,699.158,-0.262944,0.0,0.0
1026,256.25,55.361,58.5449,124.204,98.9135,102.161,0.00552513,0.308286,20.7267,698.208,-0.28796,0.0,0.0
1064,265.75,55.6385,58.7087,120.851,98.7938,102.013,0.00576365,0.300977,20.735,697.267,-0.285856,0.0,0.0
1102,275.25,55.4121,58.5884,123.057,98.7751,103.135,0.00530182,0.296306,20.7415,696.426,-0.385008,0.0,0.0
1140,284.75,54.6962,58.5551,119.632,98.8459,103.202,0.00508742,0.289573,20.7487,695.475,-0.384405,0.0,0.0
1178,294.25,55.3507,58.8158,123.737,98.9756,103.213,0.00481787,0.28583,20.7503,694.604,-0.37368,0.0,0.0
1216,303.75,54.8245,58.2917,123.592,99.0747,105.423,0.00484616,0.281013,20.7563,693.714,-0.553577,0.0,0.0
1254,313.25,54.8178,58.6692,126.179,99.1567,103.357,0.00417074,0.277289,20.7606,692.793,-0.369759,0.0,0.0
1292,322.75,55.1571,58.8944,121.555,99.2534,104.99,0.00383181,0.274703,20.7621,691.992,-0.500823,0.0,0.0
1330,332.25,55.0615,58.1799,127.107,99.3202,104.712,0.00285773,0.271913,20.7682,691.091,-0.471175,0.0,0.0
1368,341.75,55.0142,57.8247,119.539,99.4074,105.038,0.00266935,0.269549,20.7715,690.23,-0.491059,0.0,0.0
1406,351.25,55.1827,58.3316,120.407,99.4953,103.754,0.00246609,0.267064,20.7735,689.45,-0.373574,0.0,0.0
1444,360.75,54.8652,58.0704,126.778,99.5164,105.507,0.00226353,0.265202,20.774,688.579,-0.521059,0.0,0.0
1482,370.25,54.6409,58.4134,124.308,99.5645,104.954,0.00189899,0.261439,20.7802,687.838,-0.469889,0.0,0.0
1520,379.75,54.9394,58.1066,122.661,99.5924,105.31,0.00208532,0.257921,20.7823,687.038,-0.497567,0.0,0.0
1558,389.25,54.9741,57.4887,124.4,99.5832,105.362,0.00214423,0.256331,20.784,686.257,-0.502806,0.0,0.0
1596,398.75,54.6366,57.9026,124.073,99.5813,105.887,0.00243688,0.255091,20.7839,685.556,-0.547295,0.0,0.0
1634,408.25,54.9802,57.995,121.521,99.5542,105.473,0.0020196,0.253832,20.7856,684.806,-0.514732,0.0,0.0
1672,417.75,54.3429,57.297,121.199,99.5116,106.14,0.00216786,0.252501,20.7859,684.045,-0.574778,0.0,0.0
1710,427.25,54.8281,57.6302,121.732,99.4957,105.164,0.00199594,0.251916,20.789,683.364,-0.493897,0.0,0.0
1748,436.75,54.122,57.0587,122.167,99.4432,105.656,0.0020064,0.25253,20.7882,682.574,-0.54021,0.0,0.0
1786,446.25,54.2668,57.2712,124.563,99.4026,104.755,0.00167041,0.251015,20.7909,681.913,-0.467509,0.0,0.0
1824,455.75,54.5103,57.0654,118.48,99.3513,105.563,0.00208685,0.249172,20.7928,681.232,-0.540577,0.0,0.0
1862,465.25,54.5351,57.1167,118.622,99.2605,105.864,0.00197498,0.245935,20.7972,680.462,-0.574094,0.0,0.0
1900,474.75,54.396,57.4579,121.462,99.2036,104.972,0.00170803,0.244037,20.7964,679.841,-0.503775,0.0,0.0
1938,484.25,53.8497,56.7959,123.373,99.0854,104.125,0.00185762,0.241405,20.7997,679.16,-0.442187,0.0,0.0
1976,493.75,53.7895,56.5296,124.203,98.9545,104.727,0.00205318,0.239224,20.8029,678.41,-0.505383,0.0,0.0
2014,503.25,53.6633,56.5601,123.051,98.8192,105.457,0.00188723,0.235911,20.8066,677.799,-0.579458,0.0,0.0
2052,512.75,53.7638,56.407,124.731,98.6406,104.198,0.00174002,0.234341,20.8072,677.159,-0.488562,0.0,0.0
2090,522.25,53.4772,56.1146,121.904,98.512,104.165,0.00153654,0.232021,20.8104,676.518,-0.497358,0.0,0.0
2128,531.75,53.2351,56.1383,125.125,98.4404,103.529,0.00174143,0.229019,20.8134,675.908,-0.449267,0.0,0.0
2166,541.25,52.8494,55.9198,125.951,98.3342,104.49,0.00176838,0.2245,20.8218,675.217,-0.541199,0.0,0.0
2204,550.75,52.854,55.4614,124.12,98.2434,103.475,0.00182269,0.224161,20.8216,674.656,-0.462467,0.0,0.0
2242,560.25,52.5958,54.9235,122.07,98.1077,103.2,0.00179783,0.221002,20.8258,674.036,-0.451063,0.0,0.0
2280,569.75,52.7268,55.3671,119.056,97.9788,103.326,0.00143904,0.219411,20.83,673.395,-0.473613,0.0,0.0
2318,579.25,52.4686,54.9177,120.07,97.8965,103.782,0.0015303,0.217734,20.8324,672.835,-0.520388,0.0,0.0
2356,588.75,51.8791,54.4437,123.361,97.8451,103.668,0.00166948,0.214268,20.8336,672.214,-0.515279,0.0,0.0
2394,598.25,51.7134,54.1588,121.973,97.8149,102.707,0.00168354,0.213036,20.8352,671.664,-0.435034,0.0,0.0
2432,607.75,51.5614,54.0779,125.565,97.8336,102.902,0.00161896,0.210382,20.8375,671.113,-0.450247,0.0,0.0
2470,617.25,51.5417,54.1041,123.666,97.8754,102.657,0.00171639,0.208089,20.8375,670.493,-0.425183,0.0,0.0
2508,626.75,51.6732,53.893,126.02,97.953,102.864,0.00166721,0.206631,20.8382,669.982,-0.436012,0.0,0.0
2546,636.25,51.1454,53.9932,126.643,98.0369,103.852,0.00154596,0.203879,20.8443,669.442,-0.513627,0.0,0.0
2584,645.75,51.5479,53.9348,123.513,98.1205,103.42,0.00183456,0.201865,20.8464,668.861,-0.468821,0.0,0.0
2622,655.25,50.8078,53.1395,127.165,98.2434,103.161,0.00184424,0.199902,20.848,668.361,-0.435387,0.0,0.0
2660,664.75,50.7552,53.2643,125.391,98.3505,103.766,0.00174242,0.197733,20.8536,667.7,-0.477802,0.0,0.0
2698,674.25,50.4392,52.6549,124.147,98.4663,103.725,0.00148472,0.195439,20.8541,667.19,-0.463747,0.0,0.0
2736,683.75,50.7636,52.7723,122.177,98.5936,103.417,0.00182579,0.193459,20.8562,666.709,-0.425752,0.0,0.0
2774,693.25,50.1604,51.9291,124.785,98.6633,102.997,0.00159688,0.191021,20.8592,666.149,-0.383134,0.0,0.0
2812,702.75,49.9393,52.4305,121.319,98.7599,103.098,0.00140542,0.188995,20.8635,665.708,-0.383131,0.0,0.0
2850,712.25,49.5815,51.4928,125.43,98.8232,103.938,0.00172982,0.188907,20.8626,665.208,-0.449817,0.0,0.0
2888,721.75,49.5225,51.7052,124.848,98.8642,103.756,0.00126155,0.188724,20.8632,664.647,-0.430484,0.0,0.0
2926,731.25,49.5134,51.4188,122.515,98.9462,103.004,0.00169435,0.187189,20.8651,664.187,-0.358229,0.0,0.0
2964,740.75,49.4996,50.9366,124.446,99.0082,103.409,0.00160071,0.186464,20.8657,663.677,-0.387615,0.0,0.0
3002,750.25,49.1094,51.4469,126.273,99.0301,103.862,0.00164249,0.184922,20.8678,663.206,-0.424584,0.0,0.0
3040,759.75,48.6535,51.0269,126.544,99.0524,104.637,0.00165188,0.184221,20.8687,662.726,-0.488853,0.0,0.0
3078,769.25,49.1738,50.7692,121.613,99.0576,103.908,0.00174873,0.183544,20.8687,662.135,-0.426098,0.0,0.0
3116,778.75,48.6786,50.4535,123.357,99.0608,103.305,0.00166323,0.18323,20.8714,661.705,-0.373915,0.0,0.0
3154,788.25,48.7497,50.6071,126.704,99.0556,103.463,0.00164987,0.183026,20.8703,661.224,-0.388046,0.0,0.0
3192,797.75,48.366,50.5356,126.575,99.0337,104.819,0.00180089,0.182063,20.8722,660.694,-0.506041,0.0,0.0
3230,807.25,48.6698,50.7564,125.865,99.0484,104.128,0.00209296,0.181996,20.8733,660.243,-0.445746,0.0,0.0
3268,816.75,48.8742,50.989,122.274,99.0333,104.412,0.00190746,0.181334,20.8738,659.733,-0.471382,0.0,0.0
3306,826.25,48.7357,50.2857,124.155,99.0166,104.89,0.00163158,0.181295,20.8733,659.233,-0.513616,0.0,0.0
3344,835.75,48.8148,50.5437,122.654,98.9868,104.497,0.00160009,0.181179,20.8725,658.782,-0.48285,0.0,0.0
3382,845.25,48.7953,50.74,125.798,98.9505,103.979,0.00204996,0.181667,20.8731,658.252,-0.441784,0.0,0.0
3420,854.75,48.4367,50.6897,127.55,98.9104,103.984,0.00199144,0.181149,20.8733,657.771,-0.445864,0.0,0.0
3458,864.25,48.0134,50.067,122.874,98.8511,104.448,0.00187202,0.181262,20.8727,657.301,-0.490887,0.0,0.0
3496,873.75,48.4342,50.5613,123.97,98.7977,104.16,0.00197629,0.18195,20.87,656.75,-0.471086,0.0,0.0
3534,883.25,48.4378,50.3714,124.475,98.758,103.45,0.00221089,0.18149,20.8719,656.34,-0.413716,0.0,0.0
3572,892.75,48.9563,50.2905,124.384,98.7297,104.759,0.00183929,0.180173,20.8745,655.87,-0.528393,0.0,0.0
3610,902.25,47.9031,50.4804,125.138,98.6999,104.374,0.00183048,0.179358,20.8757,655.299,-0.498205,0.0,0.0
3648,911.75,48.519,49.9808,127.904,98.6835,103.368,0.00178436,0.178702,20.8758,654.859,-0.413392,0.0,0.0
3686,921.25,48.0737,49.7,124.98,98.6048,102.933,0.00228024,0.178885,20.8767,654.318,-0.382931,0.0,0.0
3724,930.75,47.9154,49.7208,127.898,98.5514,104.029,0.00211237,0.178407,20.8769,653.898,-0.482171,0.0,0.0
3762,940.25,47.9704,49.9279,126.557,98.5447,103.139,0.00209617,0.17783,20.8764,653.457,-0.406132,0.0,0.0
3800,949.75,47.8404,50.1279,126.889,98.522,102.522,0.00220143,0.176464,20.8772,652.907,-0.354774,0.0,0.0
3838,959.25,47.6496,49.2021,124.253,98.5208,103.064,0.00195236,0.177183,20.8771,652.496,-0.401845,0.0,0.0
3876,968.75,47.6047,49.5613,122.061,98.5112,103.403,0.00199429,0.177406,20.8771,652.016,-0.432008,0.0,0.0
3914,978.25,47.5458,49.5188,121.738,98.5192,105.071,0.00203358,0.176403,20.879,651.486,-0.573896,0.0,0.0
3952,987.75,47.6539,49.4286,126.375,98.514,103.429,0.0021931,0.175191,20.8815,651.045,-0.433989,0.0,0.0
3990,997.25,47.8968,49.3664,126.456,98.4953,103.711,0.00174721,0.174364,20.8832,650.565,-0.45989,0.0,0.0
4028,1006.75,47.6695,49.6052,124.204,98.4742,104.283,0.001872,0.174638,20.8817,650.114,-0.510821,0.0,0.0
4066,1016.25,47.8782,49.3835,125.941,98.4575,103.016,0.00192767,0.174595,20.882,649.664,-0.403438,0.0,0.0
4104,1025.75,47.4556,49.3091,128.73,98.4213,104.32,0.00191835,0.174943,20.8794,649.133,-0.518818,0.0,0.0
4142,1035.25,47.6889,49.672,122.548,98.4094,103.764,0.0019456,0.17302,20.8815,648.723,-0.472237,0.0,0.0
4180,1044.75,47.2441,49.0371,125.373,98.52,103.983,0.00202719,0.174343,20.88,648.243,-0.480997,0.0,0.0
4218,1054.25,47.5448,49.1924,128.114,98.6227,102.956,0.00165196,0.173749,20.881,647.702,-0.383246,0.0,0.0
4256,1063.75,47.1867,49.0535,126.804,98.7484,103.797,0.00221772,0.173755,20.881,647.312,-0.444458,0.0,0.0
4294,1073.25,47.4813,49.2856,123.533,98.8857,103.652,0.00220167,0.173071,20.8793,646.791,-0.419605,0.0,0.0
4332,1082.75,48.1072,49.4303,131.225,99.0206,103.166,0.00173944,0.173929,20.8779,646.331,-0.365581,0.0,0.0
4370,1092.25,47.2299,49.4313,128.007,99.0735,103.6,0.00210102,0.173137,20.88,645.921,-0.398198,0.0,0.0
4408,1101.75,47.4035,49.0024,129.507,99.1165,103.346,0.00190613,0.173705,20.8825,645.39,-0.372486,0.0,0.0
4446,1111.25,47.315,48.689,122.102,99.1646,103.636,0.00203402,0.173425,20.8826,644.96,-0.393077,0.0,0.0
4484,1120.75,47.0041,48.9498,127.636,99.1809,104.27,0.00184181,0.173184,20.8829,644.519,-0.446013,0.0,0.0
4522,1130.25,47.6688,49.9466,126.812,99.1989,104.139,0.00209172,0.174002,20.8819,643.979,-0.433176,0.0,0.0
4560,1139.75,47.0395,49.1758,124.263,99.2247,103.748,0.00185678,0.172756,20.8847,643.578,-0.397311,0.0,0.0
4598,1149.25,47.1246,49.1885,124.647,99.2152,103.984,0.00176223,0.172795,20.885,643.068,-0.418477,0.0,0.0
4636,1158.75,47.8396,49.2708,124.943,99.1973,103.733,0.00218064,0.173191,20.885,642.618,-0.39855,0.0,0.0
4674,1168.25,46.9175,49.0833,126.249,99.1849,103.596,0.00201371,0.173184,20.8841,642.147,-0.387873,0.0,0.0
4712,1177.75,47.2904,49.4204,128.23,99.1483,103.402,0.00206581,0.173254,20.8833,641.627,-0.374437,0.0,0.0
4750,1187.25,47.5515,49.0259,124.27,99.1439,104.24,0.00185711,0.173072,20.8868,641.226,-0.446744,0.0,0.0
4788,1196.75,47.6507,49.4135,125.342,99.1232,103.667,0.00227983,0.17313,20.8824,640.756,-0.399524,0.0,0.0
4826,1206.25,47.4739,49.2135,120.903,99.0986,104.306,0.00191117,0.172834,20.8821,640.215,-0.456472,0.0,0.0
4864,1215.75,47.0972,49.0427,121.192,99.0862,103.196,0.00182639,0.172351,20.8842,639.825,-0.362257,0.0,0.0
4902,1225.25,47.3587,48.9222,124.535,99.0568,103.729,0.00223028,0.173759,20.8834,639.305,-0.410759,0.0,0.0
4940,1234.75,47.0256,49.0898,124.261,99.0218,102.921,0.00221236,0.174176,20.8811,638.824,-0.344271,0.0,0.0
4978,1244.25,46.7495,48.8833,123.618,98.9657,103.917,0.00199152,0.174213,20.8792,638.384,-0.435177,0.0,0.0
5016,1253.75,46.6795,48.6654,122.776,98.8479,103.555,0.002013,0.174138,20.8805,637.863,-0.414677,0.0,0.0
5054,1263.25,47.6982,49.3797,128.465,98.7731,104.324,0.00196961,0.174862,20.8807,637.433,-0.487323,0.0,0.0
5092,1272.75,47.5965,48.6299,123.852,98.8232,103.74,0.00215132,0.175571,20.8807,636.932,-0.432761,0.0,0.0
5130,1282.25,47.0638,49.3008,124.431,98.8789,103.083,0.00216269,0.175945,20.8792,636.412,-0.371164,0.0,0.0
5168,1291.75,47.394,49.1452,127.749,98.9466,103.693,0.00202515,0.176027,20.8794,636.002,-0.417651,0.0,0.0
5206,1301.25,47.023,48.5496,125.265,98.9995,103.502,0.00220013,0.176458,20.8813,635.441,-0.396404,0.0,0.0
5244,1310.75,47.0063,49.4271,122.919,99.0588,104.062,0.00226132,0.177352,20.8772,635.001,-0.439194,0.0,0.0
5282,1320.25,47.0999,49.1297,121.898,99.1539,104.021,0.00194408,0.178377,20.8747,634.53,-0.427122,0.0,0.0
5320,1329.75,47.1295,49.0615,126.269,99.2168,103.952,0.00213476,0.17949,20.874,633.98,-0.415578,0.0,0.0
5358,1339.25,47.2503,49.9576,128.94,99.3067,104.17,0.0020283,0.180245,20.8738,633.549,-0.426167,0.0,0.0
5396,1348.75,47.4721,49.4333,125.83,99.3727,104.48,0.00178945,0.180713,20.8733,633.049,-0.446677,0.0,0.0
5434,1358.25,47.3157,49.32,125.949,99.4277,104.906,0.00194005,0.181951,20.8715,632.479,-0.478094,0.0,0.0
5472,1367.75,47.3756,49.7248,127.018,99.5184,104.562,0.0018305,0.182103,20.8722,632.058,-0.440667,0.0,0.0
5510,1377.25,47.387,49.7848,122.748,99.5474,104.154,0.00212559,0.183694,20.869,631.558,-0.40317,0.0,0.0
5548,1386.75,47.7079,49.6067,125.795,99.5765,104,0.00201182,0.183547,20.871,630.997,-0.387455,0.0,0.0
5586,1396.25,48.0154,49.9835,125.918,99.6067,104.204,0.00187761,0.183642,20.8703,630.517,-0.402142,0.0,0.0
5624,1405.75,47.3644,49.9988,127.552,99.6314,104.791,0.00201605,0.1829,20.8732,629.976,-0.450055,0.0,0.0
5662,1415.25,47.8698,49.86,125.795,99.6362,105.247,0.00191932,0.183895,20.8732,629.536,-0.488282,0.0,0.0
5700,1424.75,47.8781,49.6407,123.766,99.6266,105.089,0.00187216,0.185086,20.8726,629.005,-0.475778,0.0,0.0
5738,1434.25,48.0356,49.6694,122.367,99.5777,105.774,0.0019865,0.185191,20.8723,628.455,-0.538063,0.0,0.0
5776,1443.75,48.4582,49.9141,126.164,99.5403,104.418,0.00164972,0.186071,20.8699,627.984,-0.426442,0.0,0.0
5814,1453.25,47.8829,49.8331,125.231,99.4873,104.197,0.00186657,0.186123,20.8705,627.474,-0.412258,0.0,0.0
5852,1462.75,48.1234,50.3515,126.594,99.4304,103.303,0.00206454,0.187247,20.8679,626.893,-0.34056,0.0,0.0
5890,1472.25,48.1728,49.8758,123.283,99.3954,104.179,0.00172576,0.187406,20.8712,626.413,-0.418969,0.0,0.0
5928,1481.75,47.8902,50.4525,122.165,99.3123,105.077,0.00197413,0.188118,20.8693,625.833,-0.502963,0.0,0.0
5966,1491.25,48.3329,50.3137,124.659,99.2701,104.137,0.00161396,0.188843,20.869,625.392,-0.426663,0.0,0.0
6004,1500.75,48.3236,50.8544,127.15,99.1921,103.868,0.00165723,0.188584,20.8689,624.872,-0.410556,0.0,0.0
6042,1510.25,48.2954,50.1996,124.87,99.0827,104.018,0.00163956,0.188892,20.8686,624.291,-0.43326,0.0,0.0
6080,1519.75,48.7094,50.8718,123.365,99.0464,104.104,0.00184997,0.189716,20.8672,623.801,-0.443937,0.0,0.0
6118,1529.25,48.4751,50.8119,124.355,98.9693,103.534,0.00185784,0.189431,20.8673,623.3,-0.401934,0.0,0.0
6156,1538.75,48.6899,50.7071,127.635,98.9482,104.526,0.00179457,0.191643,20.8646,622.7,-0.488802,0.0,0.0
6194,1548.25,48.6175,50.4468,123.744,98.9637,105.382,0.0020555,0.191277,20.8661,622.219,-0.560097,0.0,0.0
6232,1557.75,48.8405,50.9727,126.72,98.9597,103.595,0.00186856,0.192871,20.8622,621.659,-0.407982,0.0,0.0
6270,1567.25,48.6476,50.5113,123.982,98.9478,103.943,0.00195402,0.192687,20.8629,621.158,-0.438973,0.0,0.0
6308,1576.75,49.145,51.0998,129.253,98.908,104.471,0.00181786,0.194124,20.8611,620.668,-0.4877,0.0,0.0
6346,1586.25,48.3566,50.9297,127.252,98.8921,103.816,0.00175901,0.194766,20.8642,620.067,-0.433112,0.0,0.0
6384,1595.75,48.8496,50.7099,124.909,98.8714,103.25,0.00202604,0.196181,20.8623,619.597,-0.386235,0.0,0.0
6422,1605.25,49.2461,51.4135,123.219,98.8017,103.779,0.00191181,0.196901,20.8601,619.036,-0.438036,0.0,0.0
6460,1614.75,49.0068,51.0946,120.505,98.7599,103.798,0.00217403,0.200104,20.8558,618.426,-0.443493,0.0,0.0
6498,1624.25,49.4993,51.3574,124.921,98.7401,103.148,0.00178363,0.20026,20.8572,617.945,-0.389326,0.0,0.0
6536,1633.75,49.5515,51.4272,126.106,98.7452,105.438,0.00171059,0.20017,20.8585,617.325,-0.584514,0.0,0.0
6574,1643.25,49.4134,51.6618,126.636,98.7556,103.827,0.00207182,0.201284,20.8555,616.844,-0.44638,0.0,0.0
6612,1652.75,49.6245,51.8564,123.586,98.8021,103.667,0.00205296,0.202449,20.8565,616.264,-0.428408,0.0,0.0
6650,1662.25,49.7065,51.378,123.364,98.7989,103.626,0.0019673,0.20323,20.8555,615.633,-0.425162,0.0,0.0
6688,1671.75,49.8475,51.8426,128.798,98.8153,104.66,0.0018329,0.204693,20.8526,615.123,-0.512197,0.0,0.0
6726,1681.25,49.9612,52.1141,118.111,98.8137,103.73,0.00175018,0.205285,20.8486,614.532,-0.432816,0.0,0.0
6764,1690.75,50.0759,52.0144,125.082,98.7997,104.342,0.00167197,0.207722,20.8456,613.922,-0.486444,0.0,0.0
6802,1700.25,50.1099,52.0617,125.691,98.8172,103.504,0.00197151,0.207739,20.849,613.401,-0.41302,0.0,0.0
6840,1709.75,50.3637,52.2312,126.99,98.7874,104.313,0.00156138,0.209482,20.8467,612.771,-0.485153,0.0,0.0
6878,1719.25,50.5997,52.817,125.41,98.7595,103.148,0.00172982,0.211626,20.8433,612.24,-0.387528,0.0,0.0
6916,1728.75,50.4026,52.5917,124.84,98.7233,105.022,0.00153234,0.212833,20.8402,611.64,-0.551278,0.0,0.0
6954,1738.25,50.4166,52.9939,123.099,98.6935,104.726,0.00185962,0.213375,20.8409,610.959,-0.528776,0.0,0.0
6992,1747.75,50.5438,53.6363,125.453,98.6704,103.727,0.00176631,0.214901,20.841,610.429,-0.445479,0.0,0.0
7030,1757.25,50.8684,53.2239,122.985,98.6338,103.031,0.00203751,0.216268,20.8372,609.818,-0.388769,0.0,0.0
7068,1766.75,51.1087,52.6594,121.215,98.5717,103.795,0.00200331,0.218447,20.8354,609.138,-0.460228,0.0,0.0
7106,1776.25,51.4396,53.3737,126.559,98.5443,103.798,0.00173453,0.220114,20.8331,608.607,-0.462979,0.0,0.0
7144,1785.75,51.7206,53.6088,122.056,98.4667,103.719,0.0018059,0.221525,20.8305,607.946,-0.463174,0.0,0.0
7182,1795.25,51.5499,53.4866,125.985,98.3919,102.889,0.0019872,0.22328,20.8271,607.356,-0.398328,0.0,0.0
7220,1804.75,51.5056,53.8186,123.03,98.3274,103.789,0.00175485,0.224168,20.8262,606.735,-0.481811,0.0,0.0
7258,1814.25,51.8372,54.0467,124.878,98.2323,104.114,0.00178904,0.226523,20.8258,606.025,-0.518347,0.0,0.0
7296,1823.75,52.2757,54.4126,120.078,98.1511,102.889,0.00175897,0.228163,20.8236,605.494,-0.420164,0.0,0.0
7334,1833.25,52.4341,54.6502,121.741,98.0855,103.62,0.00145298,0.230882,20.8185,604.804,-0.489302,0.0,0.0
7372,1842.75,52.2987,54.3514,121.494,98.0079,104.994,0.00176561,0.234319,20.8126,604.113,-0.613761,0.0,0.0
7410,1852.25,52.9647,54.816,124.211,97.9593,104.058,0.00179051,0.236473,20.8102,603.563,-0.538333,0.0,0.0
7448,1861.75,52.6725,54.95,124.262,97.9335,103.811,0.00197497,0.236466,20.8119,602.832,-0.519473,0.0,0.0
7486,1871.25,53.262,55.3738,122.862,97.9048,103.404,0.0022463,0.237907,20.8113,602.161,-0.487125,0.0,0.0
7524,1880.75,53.4557,55.4892,121.241,97.9048,103.603,0.00193731,0.23745,20.8112,601.531,-0.504197,0.0,0.0
7562,1890.25,53.8887,56.3359,121.945,97.9052,103.812,0.00219235,0.239483,20.8086,600.82,-0.522121,0.0,0.0
7600,1899.75,53.3964,55.9444,120.36,97.9323,103.393,0.00171934,0.240031,20.8085,600.199,-0.483626,0.0,0.0
7638,1909.25,53.7826,56.0752,126.443,97.9621,104.113,0.00180768,0.240922,20.8061,599.539,-0.542821,0.0,0.0
7676,1918.75,53.7418,56.0093,123.33,97.99,104.028,0.00178484,0.241135,20.8051,598.808,-0.532944,0.0,0.0
7714,1928.25,53.6937,56.092,121.045,98.0461,103.897,0.00183855,0.242117,20.8033,598.198,-0.516626,0.0,0.0
7752,1937.75,54.2665,56.249,120.578,98.1074,104.199,0.00222674,0.242736,20.8029,597.537,-0.536914,0.0,0.0
7790,1947.25,54.7978,56.3483,119.426,98.173,103.426,0.00213962,0.24404,20.802,596.806,-0.464628,0.0,0.0
7828,1956.75,54.7919,56.4116,124.569,98.2478,104.171,0.00186471,0.244606,20.7987,596.206,-0.521793,0.0,0.0
7866,1966.25,54.261,57.2891,123.589,98.3131,104.053,0.00154882,0.244822,20.7996,595.495,-0.505782,0.0,0.0
7904,1975.75,54.3464,57.214,121.657,98.4253,104.477,0.0018095,0.244165,20.8014,594.855,-0.531876,0.0,0.0
7942,1985.25,54.83,57.3554,121.413,98.5359,104.711,0.00172821,0.243955,20.8022,594.224,-0.541764,0.0,0.0
7980,1994.75,54.7605,57.1356,127.908,98.6362,103.972,0.0018395,0.24403,20.7996,593.473,-0.469572,0.0,0.0
8018,2004.25,54.6808,56.7851,122.943,98.7444,104.21,0.00191378,0.243089,20.8014,592.883,-0.480176,0.0,0.0
8056,2013.75,55.003,57.3204,121.62,98.785,104.587,0.0019029,0.242603,20.8005,592.212,-0.508725,0.0,0.0
8094,2023.25,54.895,57.1817,121.758,98.8208,104.806,0.00211884,0.244096,20.7985,591.502,-0.524159,0.0,0.0
8132,2032.75,55.3061,57.2907,122.073,98.8857,103.998,0.00180311,0.242662,20.8016,590.901,-0.449313,0.0,0.0
8170,2042.25,55.0275,55.7983,121.271,98.9151,106.214,0.00195966,0.243596,20.8014,590.19,-0.634589,0.0,0.0
8208,2051.75,54.6219,57.2417,117.288,98.9565,104.031,0.00167843,0.243386,20.8001,589.57,-0.445762,0.0,0.0
8246,2061.25,55.9682,57.531,122.896,98.9828,104.969,0.00180395,0.244642,20.7972,588.949,-0.523412,0.0,0.0
8284,2070.75,55.0124,56.9882,122.741,99.0003,104.442,0.00213546,0.245494,20.7976,588.219,-0.476908,0.0,0.0
8322,2080.25,54.752,57.1729,123.147,99.0377,104.197,0.00168429,0.245301,20.7977,587.638,-0.452673,0.0,0.0
8360,2089.75,55.0319,57.5717,121.255,99.058,104.465,0.00189952,0.245926,20.7968,586.968,-0.473734,0.0,0.0
8398,2099.25,54.9772,57.4699,118.432,99.0751,105.152,0.00202023,0.247603,20.794,586.277,-0.530635,0.0,0.0
8436,2108.75,55.001,57.919,121.569,99.1053,104.004,0.00173908,0.250415,20.7913,585.636,-0.430071,0.0,0.0
8474,2118.25,54.9285,58.7621,123.773,99.1045,105.767,0.0019888,0.250686,20.7891,584.936,-0.579913,0.0,0.0
8512,2127.75,55.3107,57.5998,124.799,99.1121,105.136,0.0021221,0.249306,20.7929,584.265,-0.525943,0.0,0.0
8550,2137.25,55.4861,58.108,125.221,99.1197,105.144,0.00185787,0.249244,20.7924,583.635,-0.525944,0.0,0.0
8588,2146.75,55.6283,57.5461,122.206,99.1153,105.362,0.00203887,0.24988,20.7915,582.924,-0.54479,0.0,0.0
8626,2156.25,55.6579,57.9851,123.812,99.1236,104.808,0.00183527,0.247457,20.7938,582.373,-0.497039,0.0,0.0
8664,2165.75,55.8351,58.1622,120.676,99.1153,105.119,0.00191717,0.246331,20.7955,581.703,-0.524181,0.0,0.0
8702,2175.25,55.3046,57.5759,125.618,99.0878,104.041,0.00214046,0.245595,20.7962,581.022,-0.434822,0.0,0.0
8740,2184.75,55.4156,57.9446,122.814,99.0739,104.649,0.00210798,0.243279,20.7992,580.462,-0.487946,0.0,0.0
8778,2194.25,55.0588,57.6516,124.363,99.0484,103.697,0.0018587,0.241791,20.7998,579.791,-0.408825,0.0,0.0
8816,2203.75,55.0564,57.6756,122.022,99.0238,106.05,0.00215447,0.242105,20.7979,579.151,-0.611043,0.0,0.0
8854,2213.25,55.1487,57.2702,125.269,98.9697,104.721,0.00174948,0.240958,20.7981,578.59,-0.503452,0.0,0.0
8892,2222.75,54.9574,56.7889,124.339,98.9,105.094,0.00202336,0.237771,20.8036,577.929,-0.54144,0.0,0.0
8930,2232.25,55.3307,57.5126,121.51,98.826,104.232,0.00197238,0.235449,20.8061,577.389,-0.474687,0.0,0.0
8968,2241.75,54.9932,57.1928,120.921,98.7524,105.029,0.00172351,0.233704,20.8102,576.768,-0.549262,0.0,0.0
9006,2251.25,54.6693,57.1108,118.662,98.6652,105.013,0.00155442,0.2329,20.813,576.128,-0.555768,0.0,0.0
9044,2260.75,54.7156,57.0438,124.444,98.5805,105.695,0.00202944,0.231419,20.8149,575.627,-0.621111,0.0,0.0
9082,2270.25,55.3638,57.1186,121.92,98.514,105.181,0.00220339,0.229293,20.8158,574.977,-0.583677,0.0,0.0
9120,2279.75,54.3585,57.1585,120.385,98.4643,102.963,0.00193539,0.227465,20.8169,574.436,-0.398228,0.0,0.0
9158,2289.25,53.9157,56.507,124.099,98.4444,103.388,0.00183153,0.225459,20.8178,573.916,-0.436712,0.0,0.0
9196,2298.75,54.4726,56.6317,123.683,98.5307,104.052,0.00178265,0.224673,20.8201,573.285,-0.485994,0.0,0.0
9234,2308.25,53.9799,56.5197,123.26,98.6824,104.049,0.00215486,0.223743,20.8209,572.795,-0.471983,0.0,0.0
9272,2317.75,53.7419,56.0314,124.206,98.8125,104.967,0.00208755,0.222635,20.8246,572.244,-0.538534,0.0,0.0
9310,2327.25,54.1188,56.5155,121.655,98.9565,103.894,0.00179945,0.221068,20.8279,571.634,-0.434009,0.0,0.0
9348,2336.75,53.868,56.4272,125.14,99.0576,104.513,0.00199288,0.220096,20.8282,571.163,-0.477808,0.0,0.0
9386,2346.25,53.6014,55.8898,122.55,99.1125,103.924,0.0022017,0.218954,20.8278,570.563,-0.422536,0.0,0.0
9424,2355.75,52.9706,56.0967,125.766,99.1567,104.976,0.00218291,0.217998,20.8286,570.052,-0.508374,0.0,0.0
9462,2365.25,53.4076,55.6005,124.182,99.2311,105.122,0.00190255,0.217349,20.8288,569.562,-0.514001,0.0,0.0
9500,2374.75,53.4199,55.5509,123.27,99.2311,105.141,0.00196984,0.216448,20.831,568.971,-0.515666,0.0,0.0
9538,2384.25,53.1348,55.4015,124.032,99.1992,105.264,0.00183023,0.216155,20.8311,568.521,-0.528967,0.0,0.0
9576,2393.75,53.3675,55.2183,123.835,99.1431,104.663,0.00187185,0.215424,20.8328,567.981,-0.482936,0.0,0.0
9614,2403.25,52.7951,55.2938,126,98.9947,105.146,0.00157197,0.216848,20.8286,567.39,-0.537339,0.0,0.0
9652,2412.75,52.8546,54.818,123.315,98.8901,103.933,0.00184373,0.215729,20.8328,566.95,-0.443291,0.0,0.0
9690,2422.25,52.5588,54.7466,121.41,98.8085,104.763,0.00186266,0.214931,20.8321,566.359,-0.521625,0.0,0.0
9728,2431.75,52.9648,54.9237,120.498,98.8292,104.457,0.0018839,0.215251,20.8314,565.879,-0.49366,0.0,0.0
9766,2441.25,52.6418,55.0047,124.321,98.8722,104.794,0.00176233,0.216553,20.831,565.398,-0.518504,0.0,0.0
9804,2450.75,52.8682,55.2122,124.106,98.9116,104.037,0.00153058,0.215733,20.8315,564.788,-0.450349,0.0,0.0
9842,2460.25,52.6331,54.9565,123.934,98.9521,105.582,0.00176747,0.215718,20.8312,564.367,-0.578076,0.0,0.0
9880,2469.75,52.9399,55.1377,124.173,99.0063,104.288,0.00176586,0.217315,20.8295,563.777,-0.463214,0.0,0.0
9918,2479.25,52.8127,54.8281,126.839,99.0369,104.667,0.00198906,0.217372,20.8285,563.216,-0.492798,0.0,0.0
9956,2488.75,52.4762,54.5327,120.555,99.1185,104.645,0.00190806,0.218728,20.8286,562.726,-0.483595,0.0,0.0
9994,2498.25,52.8604,54.7472,121.882,99.1634,104.144,0.00213799,0.218067,20.8303,562.205,-0.436817,0.0,0.0
10032,2507.75,53.0882,55.025,123.783,99.2311,104.836,0.00198281,0.218328,20.8285,561.605,-0.489738,0.0,0.0
10070,2517.25,53.1572,54.8198,123.452,99.2848,105.359,0.00218136,0.218252,20.8277,561.134,-0.529295,0.0,0.0
10108,2526.75,52.9138,55.0526,124.336,99.3405,105.212,0.00188354,0.218819,20.8285,560.544,-0.511858,0.0,0.0
10146,2536.25,53.0964,55.1953,123.626,99.4285,104.555,0.00178116,0.219664,20.8294,560.063,-0.448078,0.0,0.0
10184,2545.75,53.0378,55.1927,120.167,99.524,104.285,0.00187732,0.218816,20.8305,559.513,-0.416538,0.0,0.0
10222,2555.25,52.991,55.0471,124.749,99.5872,105.807,0.00173486,0.22039,20.8266,558.912,-0.539993,0.0,0.0
10260,2564.75,52.8216,54.8676,126.02,99.6493,105.267,0.0017457,0.221111,20.826,558.432,-0.488809,0.0,0.0
10298,2574.25,53.2363,55.0402,129.989,99.6772,105.49,0.00203999,0.221509,20.8244,557.841,-0.505239,0.0,0.0
10336,2583.75,52.9332,55.208,122.598,99.6911,105.691,0.00176397,0.223172,20.8238,557.271,-0.520918,0.0,0.0
10374,2593.25,53.1365,54.9995,123.527,99.6891,104.901,0.0016832,0.224579,20.8218,556.771,-0.454233,0.0,0.0
10412,2602.75,53.6608,55.5511,120.855,99.6632,105.264,0.00219363,0.226158,20.8203,556.15,-0.487375,0.0,0.0
10450,2612.25,53.3187,55.6252,126.036,99.6433,105.852,0.0019104,0.22698,20.8198,555.649,-0.538733,0.0,0.0
10488,2621.75,53.688,54.8766,123.096,99.6175,106.302,0.00172258,0.228925,20.8179,555.109,-0.578903,0.0,0.0
10526,2631.25,53.6987,55.76,120.778,99.5836,105.197,0.00174106,0.228972,20.8167,554.478,-0.488784,0.0,0.0
10564,2640.75,53.7304,55.634,122.657,99.5649,105.072,0.00184016,0.229847,20.8179,553.958,-0.479859,0.0,0.0
10602,2650.25,53.8952,55.98,122.771,99.5303,105.748,0.0022525,0.232216,20.8151,553.347,-0.540083,0.0,0.0
10640,2659.75,54.1387,56.2763,122.197,99.4698,105.755,0.00209759,0.231836,20.8155,552.737,-0.546141,0.0,0.0
10678,2669.25,53.6278,56.3963,127.787,99.4292,105.937,0.00196578,0.234325,20.8106,552.186,-0.565082,0.0,0.0
10716,2678.75,54.0582,55.9836,123.795,99.3819,105.612,0.00195143,0.235469,20.8104,551.566,-0.541937,0.0,0.0
10754,2688.25,54.3332,56.5075,126.273,99.3723,105.481,0.00200092,0.238564,20.8061,550.995,-0.531708,0.0,0.0
10792,2697.75,54.4829,56.5139,120.493,99.3469,106.631,0.00185039,0.23979,20.8073,550.395,-0.630659,0.0,0.0
10830,2707.25,54.9791,57.1319,124.275,99.3214,105.001,0.00181435,0.240565,20.8058,549.744,-0.495701,0.0,0.0
10868,2716.75,54.898,57.0745,121.707,99.321,104.618,0.0019596,0.24402,20.8027,549.194,-0.463156,0.0,0.0
10906,2726.25,54.9807,57.2998,121.332,99.3139,106.241,0.00187316,0.246782,20.8004,548.493,-0.601018,0.0,0.0
10944,2735.75,55.4612,57.6428,124.163,99.2597,106.017,0.00171862,0.249148,20.7981,547.802,-0.587013,0.0,0.0
10982,2745.25,55.3617,58.0601,120.607,99.2267,106.051,0.00217098,0.25268,20.7923,547.222,-0.592869,0.0,0.0
11020,2754.75,55.7119,57.9966,127.592,99.1933,105.337,0.00188731,0.255857,20.7872,546.491,-0.535663,0.0,0.0
11058,2764.25,55.5018,57.9766,119.499,99.1813,106.056,0.0018325,0.260916,20.7816,545.891,-0.597321,0.0,0.0
11096,2773.75,56.288,58.4364,123.31,99.2112,104.91,0.00191533,0.265048,20.778,545.22,-0.497862,0.0,0.0
11134,2783.25,56.3407,58.2609,120.995,99.1825,105.32,0.00186832,0.269396,20.776,544.379,-0.535156,0.0,0.0
11172,2792.75,56.4974,58.7852,120.586,99.1881,105.085,0.0013167,0.272566,20.7714,543.739,-0.514794,0.0,0.0
11210,2802.25,56.9647,59.2227,120.355,99.1503,105.239,0.00177297,0.279326,20.7641,542.988,-0.53121,0.0,0.0
11248,2811.75,57.377,59.4271,121.386,99.1368,104.969,0.00185873,0.283994,20.7591,542.177,-0.509519,0.0,0.0
11286,2821.25,57.6686,59.8862,123.388,99.0958,104.134,0.00204286,0.29012,20.7506,541.467,-0.442021,0.0,0.0
11324,2830.75,57.7876,60.4932,124.908,98.9955,105.253,0.00187302,0.296135,20.7453,540.596,-0.546309,0.0,0.0
11362,2840.25,58.6167,60.7495,121.571,98.9139,105.915,0.00203914,0.304474,20.7365,539.845,-0.609518,0.0,0.0
11400,2849.75,59.4391,61.7081,123.733,98.7878,104.509,0.00193018,0.312075,20.7271,539.034,-0.501851,0.0,0.0
11438,2859.25,59.649,62.0602,120.158,98.5928,104.986,0.00188301,0.319238,20.7182,538.084,-0.560038,0.0,0.0
11476,2868.75,60.7873,62.6745,119.372,98.411,105.371,0.0021265,0.326678,20.709,537.273,-0.609111,0.0,0.0
11514,2878.25,61.1388,63.4136,120.105,98.253,104.082,0.00215388,0.334152,20.7009,536.342,-0.513717,0.0,0.0
11552,2887.75,61.8763,64.9584,120.897,98.1077,104.189,0.00212347,0.341634,20.6912,535.381,-0.536075,0.0,0.0
11590,2897.25,61.82,64.9372,114.55,98.0644,103.06,0.00252203,0.349417,20.6793,534.48,-0.442848,0.0,0.0
11628,2906.75,63.1735,65.5437,119.988,98.0043,103.265,0.00266179,0.357346,20.6681,533.459,-0.466095,0.0,0.0
11666,2916.25,63.5371,66.3035,120.091,97.9991,103.139,0.00276618,0.37036,20.6508,532.519,-0.455614,0.0,0.0
11704,2925.75,64.3816,67.0931,119.07,98.0214,102.207,0.00283887,0.381637,20.6387,531.498,-0.37269,0.0,0.0
11742,2935.25,65.2258,68.2199,113.739,98.0576,102.588,0.00293457,0.393799,20.6252,530.387,-0.402551,0.0,0.0
11780,2944.75,66.4503,68.8715,117.815,98.1054,102.085,0.00308632,0.402763,20.611,529.366,-0.354461,0.0,0.0
11818,2954.25,66.5253,69.68,121.955,98.1173,101.653,0.00283323,0.399389,20.6132,528.335,-0.315519,0.0,0.0
11856,2963.75,67.2599,70.184,119.35,98.134,101.687,0.00276684,0.37526,20.6413,527.294,-0.316976,0.0,0.0
11894,2973.25,66.5414,70.2446,119.452,98.1798,103.694,0.00283595,0.329996,20.6975,526.523,-0.487033,0.0,0.0
11932,2982.75,64.5669,68.5929,124.083,98.2104,103.281,0.00253026,0.274937,20.7582,525.893,-0.448678,0.0,0.0
11970,2992.25,62.3304,66.8591,119.788,98.2371,103.693,0.00223862,0.235809,20.7993,525.372,-0.481756,0.0,0.0
12008,3001.75,61.1397,64.6982,124.673,98.294,102.837,0.00241389,0.214192,20.824,525.002,-0.402752,0.0,0.0
12046,3011.25,58.8627,62.6105,125.586,98.3198,104.268,0.00254478,0.19586,20.8417,524.582,-0.523585,0.0,0.0
12084,3020.75,56.8582,61.4063,123.815,98.3736,103.337,0.0024959,0.179865,20.8621,524.341,-0.438777,0.0,0.0
12122,3030.25,55.8138,59.8301,123.412,98.4476,104.301,0.00261008,0.16663,20.8794,524.071,-0.514799,0.0,0.0
12160,3039.75,54.1893,57.7477,126.208,98.4699,105.102,0.00278136,0.155533,20.8906,523.761,-0.580974,0.0,0.0
12198,3049.25,52.6418,56.2238,129.275,98.5626,103.259,0.00325268,0.145819,20.9025,523.611,-0.414887,0.0,0.0
12236,3058.75,51.8251,55.1616,124.923,98.6282,103.743,0.00371636,0.139396,20.9104,523.4,-0.450632,0.0,0.0
12274,3068.25,50.3084,53.7299,126.725,98.7118,103.568,0.00372221,0.13472,20.9174,523.17,-0.428072,0.0,0.0
12312,3077.75,50.3916,52.5765,128,98.822,104.066,0.00423181,0.129894,20.9234,523.06,-0.46083,0.0,0.0
12350,3087.25,48.8169,51.3512,128.464,98.9175,103.945,0.00442102,0.126448,20.9287,522.84,-0.441927,0.0,0.0
12388,3096.75,48.4907,50.538,125.926,99.015,104.571,0.00571607,0.121257,20.9347,522.76,-0.486665,0.0,0.0
12426,3106.25,47.5202,49.9931,129.243,99.0974,104.328,0.00566815,0.120934,20.9349,522.64,-0.458449,0.0,0.0
12464,3115.75,47.3878,49.5387,129.097,99.1324,103.589,0.00556495,0.120496,20.9343,522.45,-0.391941,0.0,0.0
12502,3125.25,46.7924,49.0199,125.358,99.1722,103.815,0.00577877,0.117175,20.9395,522.37,-0.407821,0.0,0.0
12540,3134.75,45.7884,47.4068,130.193,99.2052,103.168,0.00531464,0.115912,20.937,522.239,-0.349132,0.0,0.0
12578,3144.25,45.6898,47.3205,128.492,99.2056,104.377,0.00564389,0.114305,20.9399,522.089,-0.452953,0.0,0.0
12616,3153.75,45.5587,46.8518,128.156,99.2271,103.885,0.0060637,0.11303,20.9414,522.009,-0.408866,0.0,0.0
12654,3163.25,45.0928,46.539,129.154,99.2056,104.211,0.00626047,0.112127,20.9407,521.839,-0.438719,0.0,0.0
12692,3172.75,44.655,45.6314,126.013,99.208,104.25,0.00630102,0.113879,20.9388,521.789,-0.441826,0.0,0.0
12730,3182.25,44.3456,45.4839,127.529,99.2072,103.161,0.00620258,0.112794,20.9395,521.679,-0.348374,0.0,0.0
12768,3191.75,44.6061,45.2458,127.109,99.1805,103.368,0.00626953,0.111772,20.9421,521.519,-0.368575,0.0,0.0
12806,3201.25,43.6261,45.7578,126.379,99.1682,103.439,0.00633019,0.111275,20.9436,521.449,-0.375804,0.0,0.0
12844,3210.75,43.8165,45.4093,129.307,99.1356,104.059,0.00655119,0.110842,20.9444,521.349,-0.432057,0.0,0.0
12882,3220.25,43.9303,45.4891,127.129,99.1157,103.747,0.006705,0.110091,20.9457,521.188,-0.407034,0.0,0.0
12920,3229.75,43.838,44.916,132.874,99.1006,103.552,0.00663113,0.110574,20.944,521.148,-0.391653,0.0,0.0
12958,3239.25,43.479,44.9566,123.46,99.0528,102.686,0.00634904,0.109457,20.9455,521.008,-0.321075,0.0,0.0
12996,3248.75,43.5951,45.1486,132.142,99.0206,103.123,0.00662758,0.108709,20.9442,520.938,-0.3618,0.0,0.0
13034,3258.25,43.5614,44.9143,127.848,98.9947,103.24,0.00654947,0.108211,20.9454,520.858,-0.374311,0.0,0.0
13072,3267.75,43.618,44.4156,131.125,98.9697,103.475,0.00676976,0.108234,20.9471,520.718,-0.396784,0.0,0.0
13110,3277.25,43.7855,44.3544,129.828,98.9681,103.843,0.0065475,0.108312,20.9468,520.668,-0.428602,0.0,0.0
13148,3286.75,43.4978,44.5538,128.547,98.9509,103.93,0.00659368,0.108394,20.9467,520.578,-0.437576,0.0,0.0
13186,3296.25,42.7491,44.6403,131.472,98.937,102.462,0.00711428,0.107371,20.9485,520.428,-0.312062,0.0,0.0
13224,3305.75,42.8175,44.3389,123.97,98.9291,103.377,0.00696437,0.106059,20.9499,520.408,-0.392013,0.0,0.0
13262,3315.25,42.9027,43.9726,129.57,98.8845,103.162,0.00699269,0.107184,20.949,520.258,-0.377493,0.0,0.0
13300,3324.75,42.5064,44.7634,129.129,98.8348,104.16,0.00711093,0.109966,20.9469,520.198,-0.467747,0.0,0.0
13338,3334.25,43.1128,44.1884,127.881,98.8188,102.995,0.00731854,0.11054,20.9457,520.158,-0.368934,0.0,0.0
13376,3343.75,42.9354,43.6888,130.309,98.7591,103.203,0.00737896,0.108357,20.9473,519.997,-0.392308,0.0,0.0
13414,3353.25,42.2835,43.9719,128.466,98.7321,102.985,0.00704482,0.107074,20.9475,519.947,-0.375912,0.0,0.0
13452,3362.75,42.6512,44.1804,132.57,98.6871,103.482,0.00670754,0.107018,20.9485,519.867,-0.422842,0.0,0.0
13490,3372.25,42.403,43.8506,123.432,98.6489,102.972,0.00678842,0.106431,20.9486,519.727,-0.382302,0.0,0.0
13528,3381.75,43.0056,44.27,129.536,98.6167,102.816,0.00707058,0.105393,20.9496,519.687,-0.371716,0.0,0.0
13566,3391.25,42.5213,43.7281,128.411,98.596,103.023,0.00716709,0.105543,20.9494,519.557,-0.391491,0.0,0.0
13604,3400.75,42.7179,43.2932,126.332,98.5797,103.207,0.00732116,0.106393,20.9494,519.497,-0.408828,0.0,0.0
13642,3410.25,42.4145,43.4181,129.602,98.5777,103.153,0.00730732,0.105406,20.948,519.467,-0.404379,0.0,0.0
13680,3419.75,41.9147,43.4908,128.777,98.5339,102.697,0.00752611,0.106155,20.9503,519.307,-0.368859,0.0,0.0
13718,3429.25,42.2587,43.2698,132.118,98.5284,102.822,0.00731613,0.10669,20.948,519.287,-0.380207,0.0,0.0
13756,3438.75,42.1014,43.6283,128.415,98.5697,103.107,0.00739588,0.105534,20.9495,519.217,-0.401163,0.0,0.0
13794,3448.25,42.1339,43.4496,126.942,98.6513,102.578,0.00711498,0.106313,20.9474,519.047,-0.347932,0.0,0.0
13832,3457.75,42.2124,43.4404,130.04,98.6935,102.443,0.00716697,0.105393,20.9503,519.037,-0.332398,0.0,0.0
13870,3467.25,41.7183,43.4655,127.35,98.7309,103.164,0.00738131,0.105049,20.9507,518.896,-0.391503,0.0,0.0
13908,3476.75,42.2928,42.6914,124.977,98.7126,103.365,0.00741819,0.104956,20.9523,518.836,-0.410537,0.0,0.0
13946,3486.25,41.9508,43.1583,126.606,98.7074,103.599,0.00732267,0.105035,20.9536,518.796,-0.43108,0.0,0.0
13984,3495.75,41.5418,43.2832,130.328,98.664,103.584,0.00755351,0.103978,20.9553,518.646,-0.433768,0.0,0.0
14022,3505.25,42.0237,43.1033,132.484,98.674,103.089,0.00726744,0.103441,20.953,518.566,-0.390119,0.0,0.0
14060,3514.75,41.4119,43.6443,125.392,98.6744,103.324,0.00718305,0.103285,20.9543,518.556,-0.410445,0.0,0.0
14098,3524.25,41.1699,43.2329,131.328,98.6298,103.175,0.00685882,0.103631,20.9546,518.406,-0.401597,0.0,0.0
14136,3533.75,41.9065,42.9163,130.119,98.6167,103.921,0.00728904,0.103574,20.9544,518.376,-0.46697,0.0,0.0
14174,3543.25,41.179,43.559,124.584,98.6147,103.087,0.00727014,0.105163,20.952,518.306,-0.395361,0.0,0.0
14212,3552.75,41.6976,42.7819,127.027,98.6187,103.67,0.00744116,0.105006,20.9519,518.156,-0.445202,0.0,0.0
14250,3562.25,41.3873,42.8005,125.969,98.6991,103.414,0.00739965,0.103811,20.9533,518.196,-0.415916,0.0,0.0
14288,3571.75,41.6549,42.8315,126.728,98.7524,104.049,0.00760094,0.102975,20.9567,518.016,-0.465698,0.0,0.0
14326,3581.25,41.5436,42.8616,125.271,98.7846,103.545,0.00752586,0.103711,20.9549,517.956,-0.419539,0.0,0.0
14364,3590.75,41.1565,42.884,129.379,98.8511,104.512,0.00761611,0.103627,20.9544,517.896,-0.496334,0.0,0.0
14402,3600.25,41.4316,43.0099,129.852,98.9565,103.282,0.0077689,0.103196,20.9554,517.775,-0.381336,0.0,0.0
14440,3609.75,41.4775,42.2364,127.939,99.0341,102.865,0.00758778,0.104247,20.9552,517.765,-0.338286,0.0,0.0
14478,3619.25,41.2229,42.9116,128.775,99.0612,103.232,0.00734763,0.106117,20.9513,517.695,-0.367636,0.0,0.0
14516,3628.75,40.931,42.3402,128.488,99.0707,103.34,0.00754697,0.104969,20.951,517.545,-0.376063,0.0,0.0
14554,3638.25,41.4192,42.5335,126.298,99.1197,103.268,0.00779267,0.106125,20.9501,517.535,-0.365458,0.0,0.0
14592,3647.75,41.3405,42.2929,127.126,99.1264,103.341,0.00799089,0.104235,20.9533,517.395,-0.371168,0.0,0.0
14630,3657.25,41.1247,42.0175,127.942,99.13,103.716,0.00784129,0.10391,20.9535,517.345,-0.403099,0.0,0.0
14668,3666.75,41.467,42.3137,131.239,99.1495,102.847,0.0077427,0.10403,20.9529,517.325,-0.32632,0.0,0.0
14706,3676.25,41.0343,42.7424,130.138,99.1734,103.287,0.00779808,0.102817,20.9543,517.195,-0.362286,0.0,0.0
14744,3685.75,40.9422,42.185,129.026,99.2215,103.244,0.00761801,0.101916,20.9552,517.165,-0.35426,0.0,0.0
14782,3695.25,40.702,41.9539,128.478,99.2339,103.184,0.00734554,0.101727,20.9568,517.095,-0.347908,0.0,0.0
14820,3704.75,40.9099,42.2523,125.305,99.2327,104.079,0.00772521,0.10187,20.9576,516.955,-0.425015,0.0,0.0
14858,3714.25,40.3609,42.2396,126.53,99.2565,102.959,0.00753405,0.102557,20.9592,516.935,-0.326411,0.0,0.0
14896,3723.75,40.9276,42.3446,129.354,99.2462,104,0.00746118,0.101365,20.9597,516.805,-0.417068,0.0,0.0
14934,3733.25,40.7578,41.6941,128.5,99.253,103.001,0.00745448,0.102073,20.9576,516.754,-0.330365,0.0,0.0
14972,3742.75,40.6887,42.0715,128.491,99.2621,103.201,0.00744498,0.103563,20.9556,516.694,-0.346874,0.0,0.0
15010,3752.25,40.5395,42.2173,127.518,99.2768,103.021,0.00773761,0.1092,20.9478,516.584,-0.329998,0.0,0.0
15048,3761.75,40.6332,42.1409,131.589,99.2753,103.124,0.0075922,0.108261,20.9498,516.584,-0.339021,0.0,0.0
15086,3771.25,40.3477,42.2367,124.572,99.2828,103.855,0.00725729,0.10526,20.952,516.454,-0.401333,0.0,0.0
15124,3780.75,40.5893,42.2444,129.407,99.2689,103.853,0.00733373,0.106662,20.9506,516.354,-0.402393,0.0,0.0
15162,3790.25,40.9119,42.3171,130.029,99.2745,103.441,0.00733018,0.10596,20.9521,516.344,-0.366451,0.0,0.0
15200,3799.75,40.4528,42.1899,129.776,99.2629,103.654,0.00712042,0.10382,20.9534,516.214,-0.385821,0.0,0.0
15238,3809.25,40.7368,41.9009,127.27,99.2613,103.907,0.00723624,0.104208,20.9535,516.164,-0.407708,0.0,0.0
15276,3818.75,40.2252,42.3836,130.407,99.2514,103.34,0.00723313,0.104947,20.9512,516.114,-0.359786,0.0,0.0
15314,3828.25,40.7062,42.4984,129.158,99.2144,104.434,0.00734701,0.106262,20.9512,515.984,-0.456969,0.0,0.0
15352,3837.75,40.7209,41.7584,127.142,99.2307,102.579,0.00726398,0.103679,20.9547,515.984,-0.295777,0.0,0.0
15390,3847.25,40.6502,42.1447,132.707,99.2156,103.769,0.00717708,0.103315,20.9538,515.894,-0.399936,0.0,0.0
15428,3856.75,40.8335,42.1108,128.665,99.2092,103.829,0.00713142,0.102947,20.9525,515.764,-0.405723,0.0,0.0
15466,3866.25,40.3025,41.9937,129.361,99.2267,103.088,0.00730307,0.106543,20.9485,515.734,-0.340255,0.0,0.0
15504,3875.75,40.6191,41.9113,130.92,99.1996,103.519,0.0073148,0.107497,20.9482,515.583,-0.379863,0.0,0.0
15542,3885.25,40.5406,41.8984,129.58,99.1933,103.2,0.00726857,0.105407,20.9526,515.593,-0.352942,0.0,0.0
15580,3894.75,40.0865,42.729,126.429,99.1706,103.242,0.00709057,0.103464,20.9509,515.573,-0.358605,0.0,0.0
15618,3904.25,41.0547,41.4597,126.678,99.1236,103.771,0.00716042,0.105263,20.9498,515.423,-0.408428,0.0,0.0
15656,3913.75,40.5772,41.7384,126.858,99.0843,102.724,0.00701469,0.107592,20.9458,515.393,-0.32154,0.0,0.0
15694,3923.25,40.3939,42.1195,129.036,99.0313,102.644,0.00711889,0.109522,20.9436,515.303,-0.319365,0.0,0.0
15732,3932.75,40.5411,41.8543,129.267,98.9422,103.211,0.00697611,0.107045,20.9484,515.193,-0.376497,0.0,0.0
15770,3942.25,40.4639,42.0731,131.514,98.8718,102.863,0.00709623,0.102308,20.954,515.173,-0.352717,0.0,0.0
15808,3951.75,40.3525,42.1433,130.441,98.8527,103.424,0.00712441,0.101356,20.955,515.023,-0.402902,0.0,0.0
15846,3961.25,40.5313,42.2582,129.893,98.8666,102.489,0.00723531,0.101629,20.9551,515.003,-0.320779,0.0,0.0
15884,3970.75,40.5982,42.2414,129.516,98.8893,103.023,0.00735064,0.101737,20.9552,514.963,-0.365056,0.0,0.0
15922,3980.25,40.5167,42.0947,126.33,98.8813,102.595,0.00729091,0.102151,20.9552,514.823,-0.328612,0.0,0.0
15960,3989.75,40.821,42.0059,131.251,98.9004,102.529,0.00704088,0.102056,20.9568,514.823,-0.321186,0.0,0.0
15998,3999.25,40.1968,42.2587,131.012,98.8734,103.421,0.00739026,0.101154,20.957,514.733,-0.400806,0.0,0.0
16036,4008.75,40.362,42.062,128.452,98.8507,103.268,0.00737513,0.100826,20.959,514.623,-0.389642,0.0,0.0
16074,4018.25,40.4342,42.057,127.33,98.9299,102.7,0.00702456,0.100023,20.9615,514.603,-0.333386,0.0,0.0
16112,4027.75,40.2563,42.1561,129.493,98.9883,102.076,0.00735556,0.101498,20.957,514.502,-0.273816,0.0,0.0
16150,4037.25,40.5764,42.1634,132.209,99.0043,102.878,0.00734104,0.101807,20.9552,514.392,-0.342134,0.0,0.0
16188,4046.75,40.4196,42.3486,126.825,99.0508,102.652,0.00685659,0.101482,20.9552,514.402,-0.318308,0.0,0.0
16226,4056.25,40.3786,42.1828,129.171,99.0564,102.744,0.00716905,0.102074,20.9554,514.272,-0.32579,0.0,0.0
16264,4065.75,40.6591,41.9424,130.476,99.0683,103.529,0.00696692,0.100518,20.9586,514.242,-0.392553,0.0,0.0
16302,4075.25,40.6263,42.0896,130.473,99.0759,104.302,0.00749442,0.101595,20.9575,514.152,-0.458207,0.0,0.0
16340,4084.75,40.6144,41.7012,129.445,99.0763,102.892,0.00703226,0.102667,20.956,514.032,-0.336812,0.0,0.0
16378,4094.25,40.4171,42.0368,129.97,99.1125,103.706,0.00703352,0.101821,20.9565,514.012,-0.403791,0.0,0.0
16416,4103.75,40.8062,41.9912,126.127,99.124,103.055,0.00697278,0.100636,20.9572,513.922,-0.346624,0.0,0.0
16454,4113.25,40.3874,42.0473,131.748,99.1228,103.314,0.00686939,0.102049,20.9557,513.832,-0.36914,0.0,0.0
16492,4122.75,40.2894,41.9672,127.633,99.1352,103.532,0.00683083,0.101344,20.9578,513.832,-0.386849,0.0,0.0
16530,4132.25,40.6892,42.1271,128.29,99.1475,102.649,0.00698379,0.100572,20.9585,513.702,-0.309378,0.0,0.0
16568,4141.75,40.4216,41.6784,129.594,99.173,102.422,0.00694419,0.100269,20.9588,513.672,-0.287294,0.0,0.0
16606,4151.25,40.5658,41.9355,130.763,99.1877,102.41,0.00702304,0.0996323,20.9605,513.642,-0.284961,0.0,0.0
16644,4160.75,40.2336,41.6854,128.415,99.1821,103.149,0.00682336,0.0996107,20.9605,513.502,-0.349546,0.0,0.0
16682,4170.25,40.7146,41.8983,129.683,99.2108,103.598,0.00712522,0.100128,20.9584,513.472,-0.385664,0.0,0.0
16720,4179.75,39.9288,41.6606,129.375,99.2136,103.038,0.00660832,0.0999264,20.9601,513.391,-0.337109,0.0,0.0
16758,4189.25,40.4451,41.7524,129.266,99.2195,103.117,0.00689981,0.0991777,20.9606,513.281,-0.343445,0.0,0.0
16796,4198.75,40.0975,41.6402,128.327,99.241,102.94,0.0069764,0.100224,20.9608,513.271,-0.326219,0.0,0.0
16834,4208.25,40.6697,42.2238,129.54,99.2374,103.156,0.00685137,0.101013,20.9585,513.111,-0.345194,0.0,0.0
16872,4217.75,40.1289,41.6329,128.116,99.2522,103.689,0.00687569,0.0994286,20.9598,513.091,-0.38978,0.0,0.0
16910,4227.25,40.0849,42.1471,127.347,99.2737,103.774,0.00669922,0.0990952,20.9602,513.031,-0.395217,0.0,0.0
16948,4236.75,40.4799,41.8557,126.483,99.2701,103.469,0.00667004,0.0988355,20.9613,512.911,-0.36923,0.0,0.0
16986,4246.25,40.6609,41.3012,131.897,99.3083,103.019,0.00693584,0.0999594,20.9596,512.901,-0.327021,0.0,0.0
17024,4255.75,40.7155,41.3647,132.969,99.278,103.244,0.00666466,0.102084,20.9568,512.821,-0.349146,0.0,0.0
17062,4265.25,40.1059,42.0133,129.631,99.28,103.244,0.00666192,0.101312,20.9575,512.721,-0.348929,0.0,0.0
17100,4274.75,40.4419,41.7596,129.483,99.2884,102.167,0.00688753,0.100969,20.9592,512.731,-0.254752,0.0,0.0
17138,4284.25,40.4847,42.1714,127.516,99.2924,103.719,0.00694188,0.100014,20.9573,512.571,-0.388743,0.0,0.0
17176,4293.75,40.2226,41.6596,129.154,99.2749,103.642,0.00681965,0.100603,20.9565,512.551,-0.383712,0.0,0.0
17214,4303.25,40.7633,41.9855,127.829,99.2896,103.184,0.00670016,0.10435,20.9518,512.501,-0.342906,0.0,0.0
17252,4312.75,40.6923,41.8805,130.79,99.2741,102.873,0.00711575,0.103728,20.9556,512.371,-0.317452,0.0,0.0
17290,4322.25,40.2605,41.6215,128.801,99.2876,104.013,0.00674395,0.101926,20.9578,512.381,-0.41446,0.0,0.0
17328,4331.75,40.793,41.4898,132.447,99.288,102.466,0.00670567,0.0996319,20.9602,512.31,-0.280849,0.0,0.0
17366,4341.25,39.9931,41.935,130.44,99.2884,103.189,0.00674565,0.0995072,20.9606,512.21,-0.343436,0.0,0.0
17404,4350.75,40.467,41.8563,128.895,99.2824,103.355,0.00649706,0.100089,20.959,512.18,-0.358308,0.0,0.0
17442,4360.25,40.4041,41.2872,127.094,99.2645,103.09,0.00657773,0.102054,20.9556,512.08,-0.337091,0.0,0.0
17480,4369.75,40.3632,41.5293,128.79,99.2633,103.449,0.00661622,0.101817,20.9558,512.03,-0.368106,0.0,0.0
17518,4379.25,39.5442,42.1878,125.78,99.2601,103.351,0.00638805,0.0999933,20.9605,511.96,-0.359962,0.0,0.0
17556,4388.75,40.203,41.3885,128.875,99.2144,103.207,0.00644439,0.100043,20.9592,511.84,-0.351626,0.0,0.0
17594,4398.25,39.9454,41.4199,132.759,99.2275,103.549,0.00631696,0.107149,20.9511,511.84,-0.379974,0.0,0.0
17632,4407.75,39.9515,40.8645,132.382,99.2124,102.503,0.00631085,0.104996,20.9548,511.76,-0.290823,0.0,0.0
17670,4417.25,39.4561,41.2955,127.755,99.2016,103.604,0.00620455,0.100502,20.9582,511.65,-0.387062,0.0,0.0
17708,4426.75,39.9071,41.0924,128.229,99.1921,102.803,0.00640981,0.0997273,20.9581,511.65,-0.318738,0.0,0.0
17746,4436.25,39.6087,41.2036,131.163,99.1686,102.168,0.00647571,0.0989535,20.9601,511.49,-0.265589,0.0,0.0
17784,4445.75,39.6435,41.4008,130.604,99.1197,104.201,0.00623198,0.0990675,20.96,511.43,-0.445604,0.0,0.0
17822,4455.25,39.8136,41.5065,129.507,99.0671,103.147,0.00646438,0.0991694,20.9595,511.47,-0.359694,0.0,0.0
17860,4464.75,39.5242,41.3099,129.071,99.0035,102.948,0.00651362,0.0990689,20.9614,511.3,-0.348199,0.0,0.0
17898,4474.25,39.5943,41.3768,127.819,98.939,103.27,0.00630454,0.0983234,20.9648,511.3,-0.381911,0.0,0.0
17936,4483.75,39.7223,41.4662,127.433,98.898,104.171,0.00637923,0.0975228,20.9647,511.22,-0.463036,0.0,0.0
17974,4493.25,39.6922,41.0027,130.573,98.9044,103.723,0.00650325,0.0984292,20.9594,511.119,-0.423984,0.0,0.0
18012,4502.75,39.2424,41.158,124.874,98.9243,102.519,0.00615928,0.0985135,20.9579,511.099,-0.318142,0.0,0.0
18050,4512.25,39.4302,40.196,128.519,98.945,103.721,,,,511.029,-0.420212,0.0,0.0
18073,4518,39.723,41.0858,130.465,98.9549,102.892,,,,510.939,-0.347737,0.0,0.0