File: 01_Data/Plastic_Laminate_Counterop/Cone/Plastic_Laminate_Countertop_Cone_HF75Scan_220504_R2.csv
Names,Time,Stack TC,Smoke TC,Exh Press,Smoke Comp,Smoke Meas,CO Meter,CO2 Meter,O2 Meter,Sample Mass,Ext Coeff,Start Test,Flame Verif
Chan Gain,,500,500,1,1,1,1,1,1,1,1,1.0,1.0
Offset,,0,0,0.136848,0,0,0,0,0,0,0,0.0,0.0
Gain,,1,1,25.011,13.1423,14.7137,1,1,1,1.0009,1.01396,1.0,1.0
Units,sec,C,C,Pa,%,%,%,%,%,g,/m,,
Baseline,,42.6108,44.379,128.38,100.611,108.968,0.00072945,0.0466922,20.9846,-445.793,-0.709577,,
32,7.75,40.4515,42.4731,131.45,100.782,109.917,0.00079293,0.0504011,20.9804,743.998,-0.771685,0.0,0.0
64,15.75,42.6996,43.8416,127.309,100.82,100.039,0.00520528,0.102384,20.8956,743.467,0.069194,0.0,0.0
96,23.75,47.2258,46.4634,111.035,100.822,110.852,0.00519176,0.277528,20.6171,742.176,-0.843581,0.0,0.0
128,31.75,57.3944,54.7362,113.491,100.827,104.907,0.00562631,0.465637,20.4519,740.665,-0.352804,0.0,0.0
160,39.75,60.8018,58.7252,113.829,100.82,104.956,0.00646997,0.418387,20.5625,739.504,-0.357592,0.0,0.0
192,47.75,61.6462,60.8461,117.534,100.816,106.366,0.00614227,0.349338,20.6563,738.703,-0.476636,0.0,0.0
224,55.75,60.7821,61.6734,112.75,100.809,109.301,0.00432316,0.284084,20.7367,738.052,-0.719357,0.0,0.0
256,63.75,60.1887,61.4524,117.601,100.761,107.646,0.00302771,0.243349,20.7709,737.512,-0.587891,0.0,0.0
288,71.75,59.574,61.2337,121.917,100.696,106.388,0.00294209,0.226307,20.7765,736.991,-0.489097,0.0,0.0
320,79.75,58.8408,61.3984,117.815,100.607,104.128,0.00367273,0.228603,20.7605,736.371,-0.305992,0.0,0.0
352,87.75,59.1874,61.9139,118.352,100.49,101.314,0.00404864,0.244212,20.7382,735.73,-0.0726373,0.0,0.0
384,95.75,59.8804,62.0356,117.656,100.359,101.489,0.0049619,0.273193,20.6986,734.98,-0.0995378,0.0,0.0
416,103.75,60.8336,63.3921,119.452,100.265,99.6306,0.00584336,0.3093,20.6564,734.119,0.0564875,0.0,0.0
448,111.75,62.7798,65.2808,118.396,100.142,98.5547,0.00707481,0.34694,20.621,733.198,0.142128,0.0,0.0
480,119.75,64.5804,67.2562,116.535,100.161,100.135,0.00770276,0.380991,20.587,732.167,0.00236519,0.0,0.0
512,127.75,66.2181,68.9117,113.906,100.376,100.121,0.00841963,0.406506,20.5634,731.166,0.0226317,0.0,0.0
544,135.75,67.8802,70.5054,117.885,100.615,101.423,0.00932391,0.419216,20.5582,730.035,-0.0710671,0.0,0.0
576,143.75,69.203,71.6956,111.139,100.769,100.967,0.0103207,0.426691,20.5537,728.924,-0.0174398,0.0,0.0
608,151.75,70.3006,73.3662,114.879,100.847,101.963,0.0103199,0.426891,20.5556,727.763,-0.0978792,0.0,0.0
640,159.75,70.206,73.8421,114.636,100.841,102.74,0.0111542,0.422205,20.5577,726.602,-0.165915,0.0,0.0
672,167.75,70.9477,74.9882,116.737,100.824,104.11,0.0103907,0.415078,20.5682,725.431,-0.285184,0.0,0.0
704,175.75,71.898,76.167,112.149,100.739,104.328,0.00953948,0.403201,20.5798,724.35,-0.311347,0.0,0.0
736,183.75,72.2865,76.2182,115.046,100.652,105.576,0.00841099,0.388206,20.5999,723.259,-0.424822,0.0,0.0
768,191.75,72.0712,77.0866,114.211,100.557,106.204,0.00823061,0.374923,20.6135,722.128,-0.485921,0.0,0.0
800,199.75,71.7585,76.337,116.818,100.418,107.026,0.00718487,0.361499,20.6282,721.127,-0.566864,0.0,0.0
832,207.75,72.0911,76.0639,115.269,100.51,107.103,0.00668562,0.353806,20.6354,720.096,-0.565148,0.0,0.0
864,215.75,71.9092,76.3015,114.883,100.635,107.835,0.00620183,0.344762,20.6438,719.115,-0.614656,0.0,0.0
896,223.75,72.0301,76.9942,116.611,100.825,108.213,0.00562186,0.340013,20.6488,718.084,-0.629,0.0,0.0
928,231.75,71.6968,76.4309,113.146,101.052,108.155,0.00506646,0.334406,20.6537,717.104,-0.604199,0.0,0.0
960,239.75,71.669,76.4573,112.988,101.241,108.302,0.00501505,0.330327,20.658,716.173,-0.599617,0.0,0.0
992,247.75,71.5814,76.556,116.048,101.305,107.811,0.00443423,0.328117,20.6593,715.262,-0.553655,0.0,0.0
1024,255.75,71.5541,76.8029,113.948,101.212,108.467,0.00421387,0.326627,20.6637,714.371,-0.615788,0.0,0.0
1056,263.75,72.3224,77.175,113.231,100.955,108.265,0.00405713,0.323845,20.666,713.44,-0.621787,0.0,0.0
1088,271.75,71.4624,76.3813,117.07,100.572,108.722,0.0035305,0.321913,20.6665,712.63,-0.693035,0.0,0.0
1120,279.75,71.6232,76.7459,116,100.122,107.545,0.00354025,0.320359,20.6674,711.839,-0.63608,0.0,0.0
1152,287.75,72.396,75.9685,118.217,99.7576,107.731,0.00363602,0.316764,20.6712,710.948,-0.683924,0.0,0.0
1184,295.75,71.4186,76.4725,118.715,99.6028,107.714,0.00335253,0.315321,20.6728,710.097,-0.696329,0.0,0.0
1216,303.75,71.7603,76.1131,115.328,99.7343,107.887,0.00343772,0.313178,20.6756,709.246,-0.698854,0.0,0.0
1248,311.75,71.8613,76.6246,120.371,100.043,108.716,0.00298494,0.311794,20.676,708.466,-0.739465,0.0,0.0
1280,319.75,71.7394,76.6201,111.587,100.452,109.068,0.00330552,0.309504,20.6787,707.705,-0.731923,0.0,0.0
1312,327.75,72.0626,76.4227,113.745,100.725,109.763,0.00331318,0.307706,20.6791,706.904,-0.764277,0.0,0.0
1344,335.75,71.9158,76.4827,109.205,100.816,109.494,0.00286653,0.305691,20.6829,706.124,-0.734383,0.0,0.0
1376,343.75,71.3176,76.0724,116.024,100.682,109.958,0.00289683,0.302129,20.6867,705.373,-0.783808,0.0,0.0
1408,351.75,71.6535,76.197,115.093,100.406,109.204,0.00281853,0.299159,20.69,704.632,-0.747097,0.0,0.0
1440,359.75,71.4332,76.3287,113.709,100.116,109.49,0.0026602,0.295599,20.6938,703.902,-0.796086,0.0,0.0
1472,367.75,71.5906,75.942,115.73,100.394,109.376,0.00283775,0.29177,20.6984,703.181,-0.762159,0.0,0.0
1504,375.75,71.3165,75.8411,119.78,100.733,110.154,0.00250331,0.288984,20.702,702.43,-0.795275,0.0,0.0
1536,383.75,71.4598,75.7395,117.406,100.797,110.381,0.00268847,0.284946,20.707,701.72,-0.807866,0.0,0.0
1568,391.75,70.8547,75.4573,117.117,100.552,110.228,0.00283976,0.280775,20.7102,701.019,-0.817133,0.0,0.0
1600,399.75,70.763,75.612,118.126,100.554,110.201,0.00311573,0.276221,20.7153,700.369,-0.814781,0.0,0.0
1632,407.75,71.0358,75.2042,121.344,100.894,110.876,0.00262927,0.272401,20.72,699.658,-0.839125,0.0,0.0
1664,415.75,70.6458,74.6927,116.234,101.189,111.319,0.00280371,0.268582,20.7219,699.007,-0.848586,0.0,0.0
1696,423.75,70.2809,74.3265,121.285,101.292,112.053,0.00304718,0.265221,20.7253,698.367,-0.897996,0.0,0.0
1728,431.75,70.0489,74.2911,118.256,101.148,111.51,0.00310221,0.262007,20.7283,697.796,-0.867452,0.0,0.0
1760,439.75,70.4154,73.8846,118.717,100.802,111.329,0.00300659,0.258622,20.7369,697.136,-0.883459,0.0,0.0
1792,447.75,69.9615,73.799,114.605,100.353,110.289,0.00300828,0.254834,20.7422,696.525,-0.839745,0.0,0.0
1824,455.75,69.3597,73.6786,115.789,99.9016,110.637,0.00275068,0.250644,20.7474,695.895,-0.90781,0.0,0.0
1856,463.75,69.1833,73.5714,118.872,99.6413,108.996,0.00289927,0.24796,20.7487,695.224,-0.798124,0.0,0.0
1888,471.75,69.6039,72.9973,117.847,99.7183,109.472,0.00309842,0.244408,20.7516,694.623,-0.830045,0.0,0.0
1920,479.75,68.5839,72.833,120.075,100.079,110.122,0.00334929,0.243353,20.7527,693.973,-0.850505,0.0,0.0
1952,487.75,68.6385,72.2099,119.31,100.518,110.326,0.00320383,0.240467,20.7576,693.412,-0.828117,0.0,0.0
1984,495.75,68.769,72.4959,118.421,100.775,110.953,0.00298191,0.237185,20.7603,692.842,-0.855789,0.0,0.0
2016,503.75,68.2592,72.2564,116.515,100.831,110.617,0.00304296,0.235022,20.7612,692.311,-0.823905,0.0,0.0
2048,511.75,68.1953,71.6969,118.999,100.649,111.065,0.00339868,0.233349,20.7647,691.711,-0.875941,0.0,0.0
2080,519.75,68.0998,71.6614,118.148,100.333,111.275,0.0034452,0.232022,20.765,691.11,-0.920691,0.0,0.0
2112,527.75,67.8027,71.6286,119.763,100.053,110.25,0.0035943,0.230268,20.7664,690.51,-0.863188,0.0,0.0
2144,535.75,68.2313,71.495,117.44,100.46,111.293,0.00379474,0.228344,20.7678,689.969,-0.910862,0.0,0.0
2176,543.75,67.9273,71.2352,121.891,100.756,111.118,0.00381489,0.227856,20.7676,689.389,-0.870618,0.0,0.0
2208,551.75,67.6001,70.6412,117.681,100.593,110.758,0.00395391,0.22597,20.7703,688.818,-0.856239,0.0,0.0
2240,559.75,68.0279,70.7753,114.648,100.462,110.802,0.00449761,0.225159,20.7709,688.268,-0.871376,0.0,0.0
2272,567.75,67.6559,70.6501,122.282,100.797,111.994,0.00445168,0.222879,20.7738,687.727,-0.936926,0.0,0.0
2304,575.75,67.5823,70.7453,120.826,101.099,111.965,0.00420219,0.222724,20.7754,687.207,-0.908034,0.0,0.0
2336,583.75,67.4347,70.4805,119.997,101.238,112.128,0.00390759,0.22146,20.7769,686.686,-0.908666,0.0,0.0
2368,591.75,67.3579,70.4667,120.013,101.154,112.441,0.00406852,0.219406,20.7779,686.116,-0.940896,0.0,0.0
2400,599.75,67.078,69.939,118.001,100.833,111.464,0.00413878,0.21914,20.778,685.545,-0.891526,0.0,0.0
2432,607.75,67.2943,70.1083,119.616,100.342,111.162,0.0038452,0.217825,20.7799,685.025,-0.910824,0.0,0.0
2464,615.75,67.1771,69.8239,122.489,99.8659,109.686,0.0036449,0.217038,20.7803,684.464,-0.834202,0.0,0.0
2496,623.75,67.0205,70.0491,117.364,99.618,110.854,0.0039281,0.217008,20.7815,683.904,-0.950546,0.0,0.0
2528,631.75,66.5404,69.8466,121.47,99.699,110.039,0.00400046,0.215718,20.7821,683.383,-0.877684,0.0,0.0
2560,639.75,66.5971,69.7095,119.12,100.005,110.551,0.00445731,0.214934,20.783,682.823,-0.891706,0.0,0.0
2592,647.75,66.2074,69.5668,120.13,100.396,110.64,0.00479217,0.213221,20.7851,682.332,-0.864107,0.0,0.0
2624,655.75,66.451,69.2465,120.383,100.732,111.611,0.00478739,0.212875,20.7854,681.852,-0.912226,0.0,0.0
2656,663.75,66.5681,69.2476,118.181,100.831,111.397,0.00461336,0.212606,20.7854,681.341,-0.886399,0.0,0.0
2688,671.75,66.1866,69.2906,121.961,100.678,111.765,0.00410742,0.212766,20.7868,680.781,-0.929131,0.0,0.0
2720,679.75,66.178,69.2659,117.866,100.335,111.194,0.00440738,0.212278,20.7852,680.21,-0.914015,0.0,0.0
2752,687.75,65.8882,68.8471,117.638,100.042,110.34,0.00452552,0.211797,20.7869,679.68,-0.871428,0.0,0.0
2784,695.75,65.4728,68.7433,118.151,100.447,110.82,0.00494721,0.212232,20.7882,679.18,-0.874096,0.0,0.0
2816,703.75,66.0609,68.9594,114.862,100.705,111.589,0.0047286,0.210447,20.7882,678.639,-0.91281,0.0,0.0
2848,711.75,66.1541,68.6211,120.467,100.597,111.304,0.00427869,0.210507,20.7898,678.119,-0.899659,0.0,0.0
2880,719.75,65.9549,68.4073,120.787,100.394,111.27,0.00450602,0.210136,20.7881,677.588,-0.914786,0.0,0.0
2912,727.75,66.1096,68.829,115.647,100.682,111.022,0.00430489,0.209665,20.7906,677.128,-0.869583,0.0,0.0
2944,735.75,65.6792,69.0832,117.485,101.011,111.575,0.00448061,0.210166,20.7895,676.597,-0.884678,0.0,0.0
2976,743.75,65.7582,68.6703,118.63,101.204,112.3,0.00479872,0.209997,20.7871,676.067,-0.925363,0.0,0.0
3008,751.75,66.0432,68.4986,120.931,101.183,112.14,0.00488649,0.210829,20.7865,675.506,-0.914492,0.0,0.0
3040,759.75,65.7152,68.7315,116.219,100.903,111.185,0.00525131,0.210816,20.7887,674.996,-0.863094,0.0,0.0
3072,767.75,66.0168,69.4453,120.323,100.442,111.171,0.00508533,0.21001,20.791,674.435,-0.902623,0.0,0.0
3104,775.75,66.1054,68.3786,118.897,99.9742,110.809,0.00490823,0.210155,20.789,673.955,-0.915236,0.0,0.0
3136,783.75,65.9614,69.2008,116.075,99.6774,110.068,0.00489581,0.2092,20.7884,673.424,-0.881939,0.0,0.0
3168,791.75,66.2321,67.9724,115.334,99.6866,110.272,0.00486769,0.211235,20.7861,672.894,-0.897573,0.0,0.0
3200,799.75,65.7595,68.9506,123.613,99.9697,110.884,0.00523046,0.211355,20.7862,672.413,-0.921573,0.0,0.0
3232,807.75,66.1693,68.4073,118.474,100.362,111.201,0.00550756,0.212332,20.7848,671.933,-0.912243,0.0,0.0
3264,815.75,65.9241,68.7657,119.24,100.682,111.101,0.00612725,0.209951,20.7855,671.603,-0.875912,0.0,0.0
3296,823.75,65.8864,68.8014,119.382,100.858,111.364,0.0054183,0.213505,20.7821,670.882,-0.88134,0.0,0.0
3328,831.75,66.2669,68.9335,125.365,100.76,111.625,0.00552938,0.215451,20.7811,670.362,-0.910821,0.0,0.0
3360,839.75,66.8368,69.2565,118.492,100.51,111.323,0.00532634,0.216855,20.7809,669.791,-0.908758,0.0,0.0
3392,847.75,66.4623,68.3538,119.081,100.169,110.397,0.00564345,0.21648,20.7823,669.271,-0.864763,0.0,0.0
3424,855.75,66.3932,68.982,119.059,100.31,111.052,0.00555135,0.217108,20.7813,668.75,-0.904862,0.0,0.0
3456,863.75,66.5037,69.3156,119.693,100.577,110.497,0.00577668,0.217094,20.7825,668.22,-0.836611,0.0,0.0
3488,871.75,66.5392,69.2967,121.638,100.676,111.085,0.0058937,0.216005,20.7832,667.719,-0.875149,0.0,0.0
3520,879.75,66.5137,69.4708,118.006,100.421,110.428,0.00571325,0.216876,20.7818,667.199,-0.844958,0.0,0.0
3552,887.75,66.4996,69.1441,116.443,100.46,111.421,0.00577479,0.216434,20.7815,666.678,-0.921084,0.0,0.0
3584,895.75,66.2701,69.7,122.931,100.78,111.056,0.00526509,0.217584,20.7801,666.138,-0.863603,0.0,0.0
3616,903.75,66.6815,69.1643,117.979,101.053,111.738,0.00538081,0.217284,20.7805,665.587,-0.893954,0.0,0.0
3648,911.75,66.5928,69.5411,116.402,101.198,111.623,0.00545892,0.218465,20.7783,665.037,-0.872065,0.0,0.0
3680,919.75,66.7299,69.1555,119.706,101.161,111.805,0.0054678,0.220077,20.7764,664.506,-0.889824,0.0,0.0
3712,927.75,67.0952,69.7671,117.743,100.881,111.351,0.00558848,0.220694,20.7757,663.956,-0.878355,0.0,0.0
3744,935.75,66.9506,69.6637,119.19,100.476,111.023,0.00591693,0.22146,20.7762,663.445,-0.88785,0.0,0.0
3776,943.75,66.9003,69.499,126.009,100.102,110.536,0.00608737,0.221223,20.7757,662.895,-0.881957,0.0,0.0
3808,951.75,66.7037,69.3671,118.868,99.8029,110.582,0.00558649,0.220191,20.7752,662.404,-0.912193,0.0,0.0
3840,959.75,67.3071,69.7868,119.291,99.6802,110.387,0.00539904,0.220459,20.776,661.874,-0.907413,0.0,0.0
3872,967.75,67.1193,69.4624,115.992,99.7367,109.676,0.00552544,0.220821,20.7761,661.323,-0.844947,0.0,0.0
3904,975.75,67.3893,69.6193,116.395,99.9016,110.573,0.00533658,0.220404,20.7766,660.823,-0.902719,0.0,0.0
3936,983.75,67.4158,70.3166,118.136,100.165,110.984,0.00590008,0.222167,20.7753,660.192,-0.912205,0.0,0.0
3968,991.75,67.524,69.9257,123.044,100.447,111.479,0.00572201,0.222496,20.7742,659.692,-0.926843,0.0,0.0
4000,999.75,67.2742,70.2763,116.676,100.693,111.58,0.0056756,0.223103,20.7735,659.132,-0.913086,0.0,0.0
4032,1007.75,67.5435,70.0332,117.278,100.85,111.285,0.00597148,0.223089,20.7735,658.581,-0.875697,0.0,0.0
4064,1015.75,67.3763,70.2389,114.602,100.883,111.389,0.00618289,0.224014,20.7733,658.081,-0.881084,0.0,0.0
4096,1023.75,67.8376,70.9317,117.466,100.802,110.91,0.00552961,0.22389,20.7735,657.55,-0.84989,0.0,0.0
4128,1031.75,67.7522,70.1436,118.497,100.66,111.976,0.00565018,0.222579,20.7737,656.98,-0.947576,0.0,0.0
4160,1039.75,67.5107,70.4656,117.169,100.498,111.607,0.00565944,0.223372,20.7757,656.439,-0.932467,0.0,0.0
4192,1047.75,67.3089,70.6001,120.022,100.309,110.723,0.00618451,0.224565,20.7738,655.909,-0.878497,0.0,0.0
4224,1055.75,67.7378,70.2083,117.637,100.127,110.435,0.00581282,0.224309,20.7741,655.338,-0.871506,0.0,0.0
4256,1063.75,68.3004,70.1103,120.229,100.251,110.62,0.00604694,0.225147,20.7727,654.808,-0.875463,0.0,0.0
4288,1071.75,67.7271,69.863,116.761,100.441,111.194,0.00657907,0.225529,20.7705,654.247,-0.904634,0.0,0.0
4320,1079.75,67.7976,71.0106,116.383,100.569,110.946,0.00642333,0.224557,20.7723,653.697,-0.873355,0.0,0.0
4352,1087.75,68.0917,70.0778,117.438,100.672,110.947,0.00648659,0.225621,20.7712,653.166,-0.864352,0.0,0.0
4384,1095.75,68.7181,70.9841,117.405,100.613,111.696,0.00627608,0.225445,20.7726,652.646,-0.929439,0.0,0.0
4416,1103.75,67.9865,71.2904,117.613,100.434,111.459,0.00619019,0.224895,20.7719,652.155,-0.926439,0.0,0.0
4448,1111.75,68.3101,70.7789,116.487,100.36,111.18,0.0062201,0.224944,20.7725,651.595,-0.910733,0.0,0.0
4480,1119.75,67.8286,70.999,115.343,100.496,111.459,0.00633618,0.224906,20.7709,651.074,-0.920935,0.0,0.0
4512,1127.75,67.8895,70.8824,117.442,100.7,111.701,0.00601373,0.224403,20.7717,650.494,-0.922177,0.0,0.0
4544,1135.75,67.9381,70.7255,118.785,100.889,111.331,0.0058992,0.224619,20.7715,649.973,-0.876034,0.0,0.0
4576,1143.75,67.9873,70.9771,121.674,101.06,112.09,0.00612036,0.223892,20.7728,649.373,-0.921297,0.0,0.0
4608,1151.75,67.9325,71.1852,119.105,101.163,112.237,0.00622085,0.225236,20.7693,648.952,-0.924015,0.0,0.0
4640,1159.75,68.1167,70.8176,117.212,101.158,112.529,0.00654448,0.225501,20.7688,648.362,-0.947502,0.0,0.0
4672,1167.75,67.6399,70.6815,122.399,101.031,112.095,0.00767561,0.225524,20.7654,647.881,-0.924266,0.0,0.0
4704,1175.75,67.5583,70.6029,115.686,100.736,111.739,0.00789869,0.228522,20.7652,647.451,-0.922064,0.0,0.0
4736,1183.75,67.6879,70.6943,117.423,100.386,111.625,0.00854007,0.227967,20.7645,646.88,-0.943879,0.0,0.0
4768,1191.75,67.2041,70.3575,121.739,100.049,111.123,0.00834556,0.226498,20.7676,646.31,-0.93376,0.0,0.0
4800,1199.75,67.2705,70.3768,113.714,99.8378,110.821,0.0088847,0.228595,20.7619,645.76,-0.928278,0.0,0.0
4832,1207.75,67.6012,70.3874,118.404,99.7163,110.359,0.00922982,0.228186,20.7618,645.149,-0.901949,0.0,0.0
4864,1215.75,67.2048,70.6824,119.736,99.7199,110.457,0.00912211,0.229981,20.7588,644.679,-0.909549,0.0,0.0
4896,1223.75,67.9822,70.3029,120.468,99.8715,110.706,0.00927875,0.229276,20.7606,644.148,-0.916046,0.0,0.0
4928,1231.75,67.414,70.4851,117.931,100.108,110.977,0.00982277,0.229145,20.7599,643.608,-0.916724,0.0,0.0
4960,1239.75,67.7516,70.9238,118.259,100.36,110.473,0.00946633,0.230692,20.7585,643.057,-0.853904,0.0,0.0
4992,1247.75,67.9149,70.3032,116.569,100.599,111.358,0.00945956,0.231919,20.757,642.527,-0.90368,0.0,0.0
5024,1255.75,68.2272,70.9177,119.226,100.731,111.708,0.00929904,0.231396,20.7574,641.986,-0.920058,0.0,0.0
5056,1263.75,68.267,70.5803,117.839,100.841,111.986,0.00893632,0.231683,20.7571,641.486,-0.932427,0.0,0.0
5088,1271.75,68.0659,71.0894,117.866,100.896,111.758,0.00784769,0.229497,20.7615,640.925,-0.909412,0.0,0.0
5120,1279.75,67.4609,71.2655,118.578,100.928,112.009,0.0073864,0.229756,20.7629,640.385,-0.926574,0.0,0.0
5152,1287.75,68.6389,71.5418,119.263,100.915,112.172,0.007086,0.230517,20.7643,639.844,-0.940602,0.0,0.0
5184,1295.75,67.7788,71.2443,118.694,100.895,111.47,0.0072894,0.228853,20.768,639.284,-0.886545,0.0,0.0
5216,1303.75,68.0342,70.6897,117.519,100.881,111.618,0.00708198,0.230358,20.7661,638.783,-0.899528,0.0,0.0
5248,1311.75,67.8857,71.0004,115.402,100.854,111.487,0.00655563,0.23069,20.7651,638.193,-0.89155,0.0,0.0
5280,1319.75,68.2892,70.6655,115.617,100.805,112.087,0.00699671,0.230922,20.7641,637.692,-0.943633,0.0,0.0
5312,1327.75,68.7373,70.9491,116.582,100.748,111.764,0.00750558,0.232829,20.7609,637.222,-0.922896,0.0,0.0
5344,1335.75,68.2974,71.2182,119.35,100.667,111.72,0.00779175,0.234454,20.7601,636.641,-0.926549,0.0,0.0
5376,1343.75,68.49,71.0643,118.215,100.561,111.145,0.00761136,0.234549,20.7599,636.061,-0.890069,0.0,0.0
5408,1351.75,68.5293,71.2254,119.492,100.413,111.448,0.00766801,0.234084,20.7596,635.47,-0.927461,0.0,0.0
5440,1359.75,68.6086,71.7815,117.938,100.254,111.431,0.00736611,0.234591,20.7601,634.93,-0.940179,0.0,0.0
5472,1367.75,68.1331,72.0018,116.738,100.152,110.763,0.00690787,0.235323,20.7598,634.379,-0.895694,0.0,0.0
5504,1375.75,68.6169,71.9879,119.333,100.228,111.26,0.00668918,0.23396,20.7606,633.829,-0.928755,0.0,0.0
5536,1383.75,68.3177,72.0703,116.902,100.358,111.289,0.00717038,0.23483,20.7609,633.258,-0.919564,0.0,0.0
5568,1391.75,68.9987,71.1282,117.827,100.478,110.657,0.00756218,0.236758,20.7572,632.748,-0.858305,0.0,0.0
5600,1399.75,68.3001,72.2274,116.521,100.532,111.234,0.00712572,0.238084,20.7539,632.237,-0.899735,0.0,0.0
5632,1407.75,69.0387,71.9591,115.876,100.575,111.324,0.00744914,0.239573,20.7533,631.647,-0.903117,0.0,0.0
5664,1415.75,68.8943,71.668,121.143,100.673,111.54,0.00723305,0.239725,20.7532,631.096,-0.911706,0.0,0.0
5696,1423.75,68.7365,71.9167,116.863,100.682,111.461,0.00795938,0.240639,20.7519,630.476,-0.904695,0.0,0.0
5728,1431.75,68.9197,71.7843,120.287,100.633,111.628,0.00808185,0.243399,20.7477,629.925,-0.92223,0.0,0.0
5760,1439.75,68.8066,71.9795,118.84,100.565,111.365,0.00858551,0.244367,20.7465,629.355,-0.907268,0.0,0.0
5792,1447.75,69.3959,72.3352,122.98,100.427,111.585,0.00866632,0.244526,20.7452,628.774,-0.937069,0.0,0.0
5824,1455.75,68.7262,71.798,119.093,100.318,111.153,0.00912402,0.247888,20.7421,628.194,-0.912167,0.0,0.0
5856,1463.75,69.5278,72.2719,119.165,100.404,111.374,0.00874149,0.248145,20.7418,627.663,-0.922292,0.0,0.0
5888,1471.75,68.9637,71.9326,116.567,100.478,111.099,0.00844346,0.24961,20.7396,627.103,-0.893749,0.0,0.0
5920,1479.75,68.5237,71.7862,115.411,100.534,111.285,0.00866105,0.250114,20.7387,626.482,-0.903614,0.0,0.0
5952,1487.75,69.7369,72.4837,111.551,100.582,111.454,0.00851139,0.251384,20.7369,625.912,-0.912912,0.0,0.0
5984,1495.75,70.1209,73.2343,115.889,100.633,111.67,0.00830637,0.25025,20.7378,625.311,-0.925593,0.0,0.0
6016,1503.75,69.0898,72.7056,118.193,100.689,111.241,0.00785062,0.252579,20.7394,624.701,-0.886447,0.0,0.0
6048,1511.75,70.1023,73.1029,115.811,100.73,111.011,0.00808243,0.254138,20.7366,624.12,-0.864432,0.0,0.0
6080,1519.75,69.7309,72.9575,116.517,100.766,110.898,0.00811525,0.255248,20.7373,623.53,-0.852139,0.0,0.0
6112,1527.75,70.053,73.4158,114.706,100.807,111.755,0.00822928,0.256168,20.7334,622.929,-0.917014,0.0,0.0
6144,1535.75,70.2112,73.2718,117.718,100.84,111.558,0.00802032,0.256656,20.7324,622.339,-0.898375,0.0,0.0
6176,1543.75,69.9648,73.7721,115.444,100.859,112.071,0.00782264,0.258041,20.7316,621.788,-0.937573,0.0,0.0
6208,1551.75,70.7098,73.625,119.502,100.886,111.649,0.00783812,0.258731,20.7277,621.157,-0.901607,0.0,0.0
6240,1559.75,69.9988,73.1329,116.277,100.894,111.936,0.00756876,0.258625,20.7286,620.567,-0.923729,0.0,0.0
6272,1567.75,70.025,73.6724,120.68,100.906,111.532,0.00714151,0.259119,20.7271,619.906,-0.890534,0.0,0.0
6304,1575.75,71.1196,74.4159,113.403,100.912,111.923,0.00705979,0.260248,20.7288,619.286,-0.921139,0.0,0.0
6336,1583.75,70.9258,73.9347,117.848,100.959,111.908,0.00667069,0.261215,20.7278,618.655,-0.915755,0.0,0.0
6368,1591.75,71.1534,74.0287,113.719,100.99,111.888,0.00651695,0.261217,20.7306,618.065,-0.911464,0.0,0.0
6400,1599.75,70.9323,74.016,115.025,100.999,111.496,0.00620537,0.2614,20.729,617.444,-0.879435,0.0,0.0
6432,1607.75,70.6674,73.7191,121.499,101.01,112.123,0.00613479,0.262551,20.726,616.864,-0.928418,0.0,0.0
6464,1615.75,71.6141,74.8354,114.773,101.029,111.957,0.00583293,0.262712,20.7297,616.283,-0.913463,0.0,0.0
6496,1623.75,71.7485,74.8744,116.134,101.059,112.019,0.00594902,0.263083,20.7289,615.652,-0.915736,0.0,0.0
6528,1631.75,71.7968,74.9739,120.316,101.065,112.003,0.0058429,0.262703,20.7303,615.022,-0.914066,0.0,0.0
6560,1639.75,71.3253,74.8533,117.862,101.079,111.924,0.00571063,0.263585,20.7302,614.381,-0.906445,0.0,0.0
6592,1647.75,71.6956,74.9301,117.895,101.114,112.109,0.00598049,0.264958,20.7282,613.761,-0.918029,0.0,0.0
6624,1655.75,71.9192,75.3222,116.978,101.169,111.908,0.00574143,0.264907,20.7287,613.18,-0.89733,0.0,0.0
6656,1663.75,71.8554,75.125,117.953,101.196,111.716,0.00549908,0.265382,20.727,612.49,-0.879645,0.0,0.0
6688,1671.75,72.049,75.1498,113.065,101.229,112.266,0.00555211,0.265945,20.7248,611.889,-0.920476,0.0,0.0
6720,1679.75,71.8151,75.3384,112.805,101.24,112.417,0.00529898,0.266398,20.7229,611.299,-0.931399,0.0,0.0
6752,1687.75,72.2245,75.3928,114.94,101.25,112.189,0.00494949,0.266208,20.7282,610.678,-0.912487,0.0,0.0
6784,1695.75,71.5569,74.4277,117.995,101.226,112.53,0.00518613,0.266015,20.7274,610.098,-0.941544,0.0,0.0
6816,1703.75,72.5818,75.7646,117.292,101.204,112.385,0.00504714,0.264932,20.7289,609.457,-0.932083,0.0,0.0
6848,1711.75,71.6097,74.6374,116.908,101.184,112.113,0.00453104,0.266202,20.7311,608.796,-0.912213,0.0,0.0
6880,1719.75,72.6194,75.5368,115.604,101.179,112.2,0.00432997,0.266134,20.7317,608.156,-0.919616,0.0,0.0
6912,1727.75,72.1498,75.9839,118.013,101.185,111.762,0.00451028,0.265392,20.7311,607.505,-0.884314,0.0,0.0
6944,1735.75,72.2273,75.884,116.228,101.205,111.664,0.00441225,0.266688,20.7292,606.875,-0.874721,0.0,0.0
6976,1743.75,72.5411,75.7987,115.534,101.221,111.92,0.00443379,0.266309,20.731,606.224,-0.89371,0.0,0.0
7008,1751.75,72.7679,75.8231,117.034,101.22,111.803,0.00415877,0.266478,20.7288,605.583,-0.884497,0.0,0.0
7040,1759.75,72.7339,75.9401,120.41,101.237,111.977,0.00393822,0.26958,20.729,604.983,-0.896796,0.0,0.0
7072,1767.75,72.8185,76.1185,117.452,101.25,111.827,0.00436775,0.27174,20.7255,604.422,-0.883819,0.0,0.0
7104,1775.75,73.1708,76.3799,115.032,101.252,111.081,0.00441311,0.272067,20.7237,603.772,-0.824051,0.0,0.0
7136,1783.75,73.2514,76.5309,115.202,101.232,111.113,0.00459488,0.272625,20.7224,603.111,-0.828438,0.0,0.0
7168,1791.75,72.8154,76.7299,116.081,101.232,111.519,0.00417153,0.274547,20.7209,602.441,-0.860799,0.0,0.0
7200,1799.75,73.1606,76.7348,115.481,101.248,111.444,0.00452139,0.275551,20.7178,601.77,-0.853443,0.0,0.0
7232,1807.75,73.1878,76.8485,116.182,101.24,111.764,0.00438072,0.278343,20.7123,601.169,-0.879627,0.0,0.0
7264,1815.75,74.1075,77.3838,117.488,101.239,111.69,0.00454028,0.279726,20.7104,600.549,-0.873835,0.0,0.0
7296,1823.75,74.1107,77.1963,120.929,101.185,111.602,0.00478333,0.280997,20.7086,599.848,-0.871547,0.0,0.0
7328,1831.75,73.6538,76.8378,117.188,100.971,111.795,0.00474295,0.277397,20.7114,599.248,-0.905732,0.0,0.0
7360,1839.75,74.3354,77.308,114.353,100.582,111.032,0.00465417,0.282677,20.7055,598.597,-0.8792,0.0,0.0
7392,1847.75,73.8002,77.427,116.042,100.532,111.198,0.0047328,0.28279,20.7044,598.097,-0.896897,0.0,0.0
7424,1855.75,74.2421,77.0579,115.589,100.56,110.944,0.00486079,0.282341,20.7068,597.416,-0.874027,0.0,0.0
7456,1863.75,73.7969,77.3034,115.002,100.287,111.145,0.00450804,0.281964,20.7063,596.755,-0.914331,0.0,0.0
7488,1871.75,74.1919,77.2115,118.488,100.897,111.523,0.00451247,0.281583,20.7077,596.125,-0.890667,0.0,0.0
7520,1879.75,74.6087,77.2499,117.494,100.603,111.19,0.0047408,0.287019,20.7025,595.284,-0.889973,0.0,0.0
7552,1887.75,73.9518,77.429,116.332,99.7788,110.277,0.00450066,0.28363,20.7053,594.754,-0.889817,0.0,0.0
7584,1895.75,74.3592,77.612,113.85,100.204,110.799,0.00410886,0.28339,20.7043,594.283,-0.894021,0.0,0.0
7616,1903.75,74.2706,78.0953,118.121,101.205,112.187,0.00427342,0.287156,20.7004,593.523,-0.916256,0.0,0.0
7648,1911.75,74.284,77.8022,115.654,100.783,111.6,0.00390799,0.285853,20.7019,592.972,-0.906799,0.0,0.0
7680,1919.75,74.3117,77.5073,117.049,100.719,111.389,0.00404304,0.287566,20.7028,592.191,-0.895594,0.0,0.0
7712,1927.75,75.0593,78.4395,115.854,100.256,110.337,0.00379692,0.287164,20.7026,591.651,-0.852226,0.0,0.0
7744,1935.75,74.7651,78.4151,114.748,100.924,111.681,0.0039137,0.287037,20.703,590.8,-0.900752,0.0,0.0
7776,1943.75,74.8255,78.4712,115.018,100.015,110.354,0.00386601,0.290396,20.7002,590.33,-0.87494,0.0,0.0
7808,1951.75,75.0651,78.8032,113.447,100.076,110.144,0.00361903,0.291861,20.7006,589.569,-0.852639,0.0,0.0
7840,1959.75,74.3477,79.1475,113.422,101.237,112.028,0.00357242,0.291788,20.6984,588.909,-0.900826,0.0,0.0
7872,1967.75,74.9136,78.9112,119.029,100.523,110.158,0.00365842,0.294511,20.6966,588.318,-0.814106,0.0,0.0
7904,1975.75,74.8681,78.6839,115.496,100.5,111.216,0.00417311,0.29531,20.6957,587.637,-0.901174,0.0,0.0
7936,1983.75,75.4962,79.2371,114.432,100.752,111.017,0.00357169,0.293899,20.6972,587.027,-0.862953,0.0,0.0
7968,1991.75,75.3779,79.1878,116.109,100.427,110.104,0.00363152,0.298357,20.6924,586.386,-0.818168,0.0,0.0
8000,1999.75,75.0483,78.9681,114.979,99.77,109.71,0.00374344,0.297484,20.6948,585.535,-0.844709,0.0,0.0
8032,2007.75,75.1265,79.3191,117.862,101.124,111.265,0.00361098,0.298034,20.6926,584.965,-0.850028,0.0,0.0
8064,2015.75,75.0985,79.0668,112.574,100.729,111.104,0.00364926,0.303052,20.6876,584.274,-0.871948,0.0,0.0
8096,2023.75,75.6725,79.0732,114.923,100.689,110.869,0.00372659,0.30343,20.6867,583.654,-0.856598,0.0,0.0
8128,2031.75,75.2336,79.4145,114.025,100.519,110.568,0.00390701,0.303698,20.6863,582.893,-0.8475,0.0,0.0
8160,2039.75,75.905,79.4684,114.364,100.657,110.446,0.00396537,0.304038,20.686,582.172,-0.825471,0.0,0.0
8192,2047.75,75.8651,79.9256,114.764,99.6665,109.172,0.00390813,0.305194,20.6854,581.582,-0.810257,0.0,0.0
8224,2055.75,75.6844,79.9063,115.301,100.584,110.545,0.00344412,0.303623,20.6883,580.791,-0.839874,0.0,0.0
8256,2063.75,75.595,79.418,116.325,101.248,111.222,0.00360828,0.309085,20.6827,580.211,-0.835723,0.0,0.0
8288,2071.75,75.8524,79.6842,114.164,100.445,109.836,0.00345698,0.309063,20.6821,579.57,-0.794923,0.0,0.0
8320,2079.75,76.0394,79.8873,113.635,100.516,110.619,0.00345953,0.309907,20.6801,578.829,-0.851793,0.0,0.0
8352,2087.75,76.4989,80.027,117.534,100.54,110.032,0.00358178,0.309955,20.6792,578.079,-0.802351,0.0,0.0
8384,2095.75,76.2164,80.1127,117.937,100.727,110.195,0.00363766,0.311415,20.6781,577.398,-0.798998,0.0,0.0
8416,2103.75,76.3431,80.3714,114.31,99.8209,109.485,0.00356809,0.308885,20.6792,576.497,-0.821949,0.0,0.0
8448,2111.75,76.5426,80.1998,115.273,99.9124,109.087,0.00395354,0.313761,20.6741,575.847,-0.781354,0.0,0.0
8480,2119.75,77.0093,80.4362,117.405,101.045,110.408,0.003818,0.31457,20.6732,575.236,-0.78812,0.0,0.0
8512,2127.75,76.5556,79.8873,115.925,101.084,110.965,0.00345065,0.316339,20.6711,574.496,-0.829545,0.0,0.0
8544,2135.75,76.6463,81.091,117.64,100.493,109.657,0.00354906,0.315141,20.6734,573.915,-0.776251,0.0,0.0
8576,2143.75,76.4656,80.5128,119.097,100.422,109.781,0.00356313,0.316583,20.6718,573.054,-0.79251,0.0,0.0
8608,2151.75,76.3654,80.8995,116.527,100.516,109.453,0.00365415,0.317494,20.6691,572.384,-0.757605,0.0,0.0
8640,2159.75,76.3365,81.1917,114.868,100.7,109.542,0.0035107,0.315328,20.6724,571.683,-0.748588,0.0,0.0
8672,2167.75,76.9952,81.0204,118.95,99.8266,108.951,0.00374778,0.320277,20.6666,571.123,-0.777897,0.0,0.0
8704,2175.75,76.7783,81.0177,115.463,99.7784,108.392,0.00353835,0.316606,20.6714,570.322,-0.736505,0.0,0.0
8736,2183.75,77.0872,81.064,112.611,100.897,109.958,0.00333993,0.317379,20.6711,569.611,-0.764874,0.0,0.0
8768,2191.75,76.6693,80.9834,112.971,101.175,111.178,0.00370617,0.315011,20.6717,568.76,-0.838581,0.0,0.0
8800,2199.75,76.6623,81.1187,114.509,100.453,108.782,0.00345602,0.317927,20.6678,568.08,-0.708462,0.0,0.0
8832,2207.75,76.5402,81.0714,115.194,100.737,110.159,0.00333165,0.311978,20.6743,567.479,-0.795213,0.0,0.0
8864,2215.75,76.6851,80.8849,118.344,100.082,108.5,0.00326512,0.307204,20.6822,566.819,-0.718285,0.0,0.0
8896,2223.75,76.2603,80.4073,111.38,100.7,109.563,0.00336578,0.30852,20.6808,566.168,-0.750194,0.0,0.0
8928,2231.75,75.9813,80.3512,112.066,100.4,109.343,0.00317665,0.306085,20.684,565.477,-0.758923,0.0,0.0
8960,2239.75,76.4371,80.6838,118.13,99.5963,108.61,0.00326906,0.300539,20.6872,564.707,-0.770566,0.0,0.0
8992,2247.75,75.6487,80.1434,111.901,99.7431,108.933,0.00302513,0.301435,20.6885,564.156,-0.783867,0.0,0.0
9024,2255.75,76.0983,80.0591,113.458,100.754,109.585,0.00312842,0.298007,20.6927,563.386,-0.74727,0.0,0.0
9056,2263.75,75.8321,80.1361,114.608,101.194,110.839,0.00310829,0.295607,20.692,562.745,-0.809691,0.0,0.0
9088,2271.75,75.5095,79.991,114.123,100.723,110.114,0.00330852,0.292718,20.6935,562.124,-0.79279,0.0,0.0
9120,2279.75,75.3599,79.6786,115.358,100.515,110.162,0.00296709,0.290158,20.6962,561.514,-0.815178,0.0,0.0
9152,2287.75,75.2575,79.3973,117.72,100.574,109.646,0.00296073,0.288018,20.6982,560.933,-0.768173,0.0,0.0
9184,2295.75,75.032,79.3963,119.526,100.046,109.788,0.00303741,0.284757,20.7042,560.273,-0.826512,0.0,0.0
9216,2303.75,75.3616,79.4179,114.74,100.56,109.706,0.00331362,0.283604,20.7047,559.712,-0.774222,0.0,0.0
9248,2311.75,74.92,79.3196,114.054,100.525,109.096,0.00303062,0.281616,20.7076,559.062,-0.727805,0.0,0.0
9280,2319.75,74.5089,78.8997,115.873,99.9352,108.737,0.00349929,0.276916,20.7146,558.491,-0.750753,0.0,0.0
9312,2327.75,74.1836,78.5614,116.262,99.4094,108.53,0.00356034,0.275175,20.7149,557.881,-0.780762,0.0,0.0
9344,2335.75,73.8548,78.2385,118.153,99.5619,108.202,0.00343192,0.271837,20.72,557.17,-0.740232,0.0,0.0
9376,2343.75,73.9508,77.6805,118.562,100.306,109.447,0.00320217,0.267308,20.7252,556.67,-0.77571,0.0,0.0
9408,2351.75,73.257,78.0957,114.969,100.981,109.678,0.00314612,0.262658,20.7284,556.129,-0.73483,0.0,0.0
9440,2359.75,72.9192,78.044,115.788,101.055,109.969,0.00284893,0.259203,20.7306,555.589,-0.751897,0.0,0.0
9472,2367.75,73.5564,76.9037,114.746,100.63,110.007,0.00263862,0.255118,20.7361,555.148,-0.792445,0.0,0.0
9504,2375.75,72.2913,76.8858,120.984,100.236,108.871,0.00304862,0.249661,20.7429,554.578,-0.735069,0.0,0.0
9536,2383.75,72.6811,76.3205,119.536,100.652,110.403,0.00314435,0.244981,20.7478,553.957,-0.82246,0.0,0.0
9568,2391.75,71.9386,76.3807,118.97,100.213,109.837,0.0031504,0.243056,20.7476,553.497,-0.815619,0.0,0.0
9600,2399.75,72.1563,76.569,117.343,99.9513,109.623,0.0030563,0.235785,20.7554,553.176,-0.821534,0.0,0.0
9632,2407.75,71.5801,75.8009,115.686,100.34,109.822,0.00288364,0.229812,20.7637,552.726,-0.803143,0.0,0.0
9664,2415.75,71.4595,75.1261,122.734,100.482,110.096,0.00292489,0.225612,20.7675,552.236,-0.812721,0.0,0.0
9696,2423.75,70.5821,74.7407,120.94,100.218,110.003,0.00256372,0.215722,20.7776,551.865,-0.828601,0.0,0.0
9728,2431.75,70.4231,74.1754,121.381,99.7086,109.362,0.00265357,0.210311,20.7846,551.435,-0.821961,0.0,0.0
9760,2439.75,69.7611,73.6505,120.978,99.3004,109.468,0.00295136,0.200055,20.7938,551.145,-0.867034,0.0,0.0
9792,2447.75,69.4868,73.673,117.414,99.2999,108.692,0.00301008,0.184868,20.8138,550.724,-0.803839,0.0,0.0
9824,2455.75,68.1821,72.3987,120.735,99.8085,109.642,0.00315102,0.16652,20.8364,550.574,-0.835779,0.0,0.0
9856,2463.75,67.1946,71.6531,122.921,100.467,111.205,0.00317513,0.152075,20.8516,550.324,-0.903116,0.0,0.0
9888,2471.75,66.3188,69.9416,119.715,100.921,111.976,0.00295779,0.140273,20.8606,550.134,-0.9245,0.0,0.0
9920,2479.75,65.7251,70.0065,119.402,100.979,111.811,0.00301027,0.13311,20.8694,549.964,-0.906312,0.0,0.0
9952,2487.75,64.7964,69.0115,123.714,100.735,112.11,0.00311063,0.128422,20.8754,549.733,-0.951644,0.0,0.0
9984,2495.75,63.8689,67.9033,121.158,100.334,111.814,0.00319766,0.123113,20.8834,549.673,-0.963585,0.0,0.0
10016,2503.75,63.3155,67.3831,120.424,100.301,111.074,0.00320543,0.120546,20.8865,549.673,-0.907335,0.0,0.0
10048,2511.75,63.1082,66.4414,120.977,100.579,110.195,0.00337135,0.117336,20.8905,549.383,-0.812183,0.0,0.0
10080,2519.75,62.212,65.6213,123.455,100.275,111.114,0.00329206,0.114415,20.8947,549.403,-0.912989,0.0,0.0
10112,2527.75,61.6981,65.3936,124.553,99.7684,110.463,0.00336814,0.113702,20.8944,549.263,-0.905692,0.0,0.0
10144,2535.75,61.5048,64.5872,127.835,100.016,111.488,0.00329103,0.112311,20.8957,549.113,-0.965784,0.0,0.0
10176,2543.75,61.1015,63.9977,126.79,100.283,111.231,0.00334228,0.110384,20.8995,548.913,-0.921512,0.0,0.0
10208,2551.75,60.5507,63.689,119.993,100.36,111.396,0.003373,0.109683,20.9016,548.753,-0.927994,0.0,0.0
10240,2559.75,59.9824,63.513,123.299,100.198,111.211,0.00356937,0.108177,20.9017,548.782,-0.927512,0.0,0.0
10272,2567.75,60.1432,63.3193,116.76,99.8631,110.438,0.00355611,0.108167,20.902,548.702,-0.895269,0.0,0.0
10304,2575.75,60.2075,63.0743,124.201,99.4704,110.181,0.00376241,0.107829,20.9047,548.642,-0.909564,0.0,0.0
10336,2583.75,59.5304,63.1756,117.762,99.1495,110.135,0.00379347,0.107285,20.904,548.572,-0.934566,0.0,0.0
10368,2591.75,59.9929,62.4493,122.2,99.1143,110.017,0.00387641,0.106546,20.904,548.482,-0.928263,0.0,0.0
10400,2599.75,59.6508,62.1503,121.679,99.3048,110.17,0.00389845,0.106511,20.9055,548.392,-0.923481,0.0,0.0
10432,2607.75,59.802,62.8095,124.451,99.7415,110.963,0.00376268,0.106125,20.9061,548.312,-0.948238,0.0,0.0
10464,2615.75,59.3197,62.6284,120.804,100.251,110.564,0.00395655,0.105037,20.9083,548.132,-0.870913,0.0,0.0
10496,2623.75,59.5863,61.7191,123.582,100.627,110.524,0.00390536,0.104521,20.9085,547.982,-0.834418,0.0,0.0
10528,2631.75,58.9066,61.5619,121.334,100.844,111.722,0.0036982,0.103541,20.9084,547.932,-0.91115,0.0,0.0
10560,2639.75,59.0553,61.6839,120.849,100.894,111.265,0.00386154,0.103209,20.9077,547.782,-0.870228,0.0,0.0
10592,2647.75,59.025,61.1217,122.773,100.749,111.378,0.00380231,0.104018,20.9066,547.702,-0.892076,0.0,0.0
10624,2655.75,58.7962,61.4679,122.186,100.5,111.452,0.00371189,0.104966,20.9065,547.721,-0.920006,0.0,0.0
10656,2663.75,58.6199,61.4805,120.99,100.217,110.496,0.00348565,0.106379,20.9056,547.621,-0.86841,0.0,0.0
10688,2671.75,58.6103,61.0879,123.332,100.028,109.756,0.00355596,0.105007,20.9077,547.391,-0.825461,0.0,0.0
10720,2679.75,58.5598,60.8842,125.418,100.368,110.698,0.00324521,0.103169,20.9093,547.421,-0.871321,0.0,0.0
10752,2687.75,58.6553,61.0592,123.73,100.479,111.774,0.00383841,0.103374,20.9102,547.281,-0.947545,0.0,0.0
10784,2695.75,58.4227,61.1142,121.793,100.327,111.585,0.00393017,0.103242,20.9123,547.001,-0.945883,0.0,0.0
10816,2703.75,58.5613,60.9696,121.275,99.904,110.474,0.0035867,0.102176,20.9125,547.121,-0.894519,0.0,0.0
10848,2711.75,58.4298,60.8414,122.63,99.6593,110.603,0.0033981,0.102226,20.9119,547.061,-0.926732,0.0,0.0
10880,2719.75,58.2752,61.1761,125.12,99.8197,110.286,0.00350741,0.101766,20.9121,546.981,-0.88686,0.0,0.0
10912,2727.75,58.3961,60.9933,121.937,100.045,110.272,0.00355178,0.100988,20.9128,546.601,-0.865676,0.0,0.0
10944,2735.75,58.3582,60.733,121.853,100.2,110.639,0.00375577,0.100913,20.9134,546.881,-0.881464,0.0,0.0
10976,2743.75,58.5346,60.7663,120.863,100.224,110.694,0.00350091,0.101514,20.9125,546.801,-0.883731,0.0,0.0
11008,2751.75,58.4296,60.6054,122.917,100.132,110.012,0.0037067,0.100541,20.9129,546.631,-0.836982,0.0,0.0
11040,2759.75,58.1894,60.6352,124.391,99.922,110.522,0.0036809,0.100633,20.9129,546.33,-0.896743,0.0,0.0
11072,2767.75,58.5013,60.3718,123.053,99.628,109.932,0.0035691,0.100661,20.9132,546.46,-0.875377,0.0,0.0
11104,2775.75,58.0204,60.726,121.842,99.2943,108.996,0.00379479,0.0999889,20.9135,546.37,-0.829146,0.0,0.0
11136,2783.75,58.0892,60.6355,125.288,99.026,109.98,0.00361477,0.10093,20.9136,546.29,-0.933171,0.0,0.0
11168,2791.75,58.0029,60.5272,120.94,98.9398,109.096,0.00359974,0.0998223,20.9142,546.11,-0.869092,0.0,0.0
11200,2799.75,57.9788,60.1005,121.914,99.0136,109.333,0.00349337,0.0989421,20.9165,546.21,-0.881806,0.0,0.0
11232,2807.75,57.7472,60.2764,124.946,99.2446,109.223,0.00382692,0.0993614,20.9162,546.12,-0.852087,0.0,0.0
11264,2815.75,57.9088,60.0322,123.901,99.5558,109.762,0.00350821,0.0994086,20.9155,545.99,-0.868081,0.0,0.0
11296,2823.75,57.7514,60.3351,125.118,99.9136,110.744,0.00374617,0.0986653,20.9165,545.78,-0.915398,0.0,0.0
11328,2831.75,57.3707,59.4401,123.339,100.231,110.026,0.00395696,0.100103,20.9143,545.84,-0.829349,0.0,0.0
11360,2839.75,58.0005,60.7238,121.702,100.486,110.378,0.00367446,0.100292,20.917,545.73,-0.835118,0.0,0.0
11392,2847.75,56.8505,60.8881,120.881,100.642,111.191,0.00384639,0.100335,20.915,545.68,-0.886605,0.0,0.0
11424,2855.75,57.8342,60.3957,123.338,100.743,110.449,0.00353323,0.0985209,20.9183,545.56,-0.818142,0.0,0.0
11456,2863.75,57.7807,60.2126,125.604,100.758,109.914,0.00379497,0.0979277,20.9192,545.62,-0.773591,0.0,0.0
11488,2871.75,57.4443,59.9591,122.416,100.678,111.417,0.00382625,0.10176,20.913,545.52,-0.901465,0.0,0.0
11520,2879.75,57.5012,60.159,120.306,100.54,110.722,0.00371826,0.100389,20.9162,545.409,-0.858071,0.0,0.0
11552,2887.75,57.4623,60.0405,125.027,100.359,110.086,0.00371938,0.0990782,20.9168,545.409,-0.822829,0.0,0.0
11584,2895.75,57.2351,59.74,124.047,100.159,110.018,0.00405063,0.0988594,20.915,545.209,-0.835068,0.0,0.0
11616,2903.75,56.948,59.7083,123.194,99.9826,109.91,0.00352832,0.0988701,20.916,544.989,-0.841964,0.0,0.0
11648,2911.75,57.7784,59.6542,124.631,99.926,109.892,0.00350086,0.0984564,20.919,544.989,-0.845542,0.0,0.0
11680,2919.75,56.6305,59.651,121.548,100.199,109.548,0.00335563,0.0978384,20.9187,544.969,-0.793382,0.0,0.0
11712,2927.75,57.6062,60.0427,124.599,100.34,109.884,0.00343337,0.0984224,20.9166,545.009,-0.80816,0.0,0.0
11744,2935.75,56.9704,59.8267,122.357,100.364,110.565,0.00361011,0.0988071,20.9184,544.899,-0.86092,0.0,0.0
11776,2943.75,57.5325,59.9145,122.083,100.245,110.687,0.00349145,0.0997011,20.9177,544.789,-0.881339,0.0,0.0
11808,2951.75,57.2605,59.873,124.553,100.007,110.179,0.00389831,0.0984751,20.9185,544.739,-0.861599,0.0,0.0
11840,2959.75,57.0518,60.1423,123.661,99.6874,110.204,0.00370499,0.100161,20.9156,544.669,-0.892031,0.0,0.0
11872,2967.75,56.8926,59.7726,122.88,99.5141,110.482,0.00382618,0.0995529,20.9159,544.449,-0.929908,0.0,0.0
11904,2975.75,57.5453,60.1843,123.72,99.6036,108.766,0.00376647,0.0988168,20.9187,544.589,-0.78271,0.0,0.0
11936,2983.75,56.8066,60.1884,122.165,99.7183,109.465,0.00384622,0.0979437,20.9204,544.489,-0.829461,0.0,0.0
11968,2991.75,56.5812,59.5416,123.26,99.8209,109.712,0.00392912,0.0976668,20.9214,544.278,-0.840315,0.0,0.0
12000,2999.75,57.1759,59.9744,121.591,99.9505,109.499,0.00385927,0.0981338,20.9209,544.308,-0.811545,0.0,0.0
12032,3007.75,57.699,60.0144,126.084,100.043,109.361,0.00373455,0.0970324,20.9215,544.128,-0.792063,0.0,0.0
12064,3015.75,57.0023,59.8071,123.844,100.074,110.028,0.00339964,0.0972469,20.9217,544.088,-0.84342,0.0,0.0
12096,3023.75,56.9919,59.8145,125.5,100.044,110.557,0.00350385,0.0972009,20.9204,544.078,-0.888679,0.0,0.0
12128,3031.75,57.3247,59.6926,121.541,99.9525,109.918,0.00390693,0.0972988,20.9184,544.078,-0.845331,0.0,0.0
12160,3039.75,57.2074,60.0637,118.799,99.8346,109.392,0.00391466,0.0974275,20.919,544.018,-0.81318,0.0,0.0
12192,3047.75,57.2565,59.8632,122.829,99.6858,109.937,0.00420436,0.0966142,20.92,543.828,-0.870586,0.0,0.0
12224,3055.75,56.8066,59.6782,122.365,99.4937,108.61,0.00394497,0.0965779,20.9185,543.718,-0.779777,0.0,0.0
12256,3063.75,57.3724,59.9717,118.69,99.3056,109.202,0.00362286,0.0966968,20.9193,543.788,-0.84498,0.0,0.0
12288,3071.75,56.7771,59.5955,120.863,99.1596,108.463,0.00386163,0.0957298,20.9215,543.608,-0.797625,0.0,0.0
12320,3079.75,57.1859,59.6821,120.974,99.0112,108.378,0.00380477,0.0957774,20.9209,543.598,-0.803984,0.0,0.0
12352,3087.75,56.7268,59.7211,118.298,98.852,108.562,0.00393595,0.0971328,20.918,543.588,-0.833395,0.0,0.0
12384,3095.75,56.8465,59.7299,122.867,98.7778,108.378,0.00372162,0.0976256,20.9206,543.448,-0.824977,0.0,0.0
12416,3103.75,56.7813,59.433,124.03,98.7958,108.949,0.00356019,0.0963379,20.9207,543.478,-0.870104,0.0,0.0
12448,3111.75,56.8397,59.6478,123.539,98.8788,107.96,0.0036671,0.0978211,20.919,543.207,-0.78147,0.0,0.0
12480,3119.75,57.2398,59.7169,122.202,99.0521,107.844,0.0039341,0.098043,20.9213,543.248,-0.756386,0.0,0.0
12512,3127.75,56.525,60.2174,121.088,99.2582,109.628,0.00393671,0.0981822,20.9197,543.198,-0.883823,0.0,0.0
12544,3135.75,56.1993,59.0748,123.515,99.5466,109.246,0.00395583,0.0986265,20.92,543.047,-0.826927,0.0,0.0
12576,3143.75,56.0533,58.811,125.837,99.8683,109.078,0.00392557,0.0963265,20.9223,542.917,-0.784623,0.0,0.0
12608,3151.75,56.438,59.1494,121.625,100.177,110.673,0.00389655,0.0970727,20.921,542.987,-0.886164,0.0,0.0
12640,3159.75,56.6162,59.5694,124.362,100.423,111.047,0.00373112,0.0975086,20.9214,542.927,-0.894371,0.0,0.0
12672,3167.75,57.1531,59.6557,124.198,100.565,111.068,0.00386316,0.0967073,20.9212,542.847,-0.883532,0.0,0.0
12704,3175.75,56.5877,59.6943,124.959,100.633,111.113,0.00396983,0.0953746,20.9221,542.697,-0.881134,0.0,0.0
12736,3183.75,56.7879,59.3469,124.548,100.622,111.011,0.00395969,0.0960947,20.9212,542.727,-0.873929,0.0,0.0
12768,3191.75,56.6953,59.3385,122.967,100.561,110.363,0.00391559,0.0954912,20.9246,542.557,-0.827288,0.0,0.0
12800,3199.75,56.6573,59.6326,125.791,100.453,108.532,0.00370712,0.0983652,20.9196,542.487,-0.68806,0.0,0.0
12832,3207.75,56.3805,59.0934,123.248,100.301,110.609,0.0036482,0.10393,20.9145,542.427,-0.870078,0.0,0.0
12864,3215.75,56.5657,59.4983,125.347,100.13,109.579,0.00376427,0.0996815,20.9202,542.427,-0.802059,0.0,0.0
12896,3223.75,57.0134,59.5352,125.403,99.9998,109.708,0.00371128,0.0979444,20.9206,542.297,-0.824136,0.0,0.0
12928,3231.75,57.0662,59.4404,123.437,99.8975,110.669,0.0033385,0.0989884,20.9187,542.267,-0.910766,0.0,0.0
12960,3239.75,56.7162,59.3536,125.913,99.8221,109.174,0.0035494,0.101137,20.9152,542.297,-0.796491,0.0,0.0
12992,3247.75,57.1252,59.8239,121.627,99.8089,110.279,0.00315878,0.10196,20.9147,542.267,-0.887282,0.0,0.0
13024,3255.75,56.1042,59.3979,126.175,100.067,109.182,0.00345243,0.0997352,20.918,542.257,-0.775413,0.0,0.0
13056,3263.75,56.6033,59.7131,121.906,100.192,109.364,0.00354885,0.101095,20.9177,542.137,-0.779063,0.0,0.0
13088,3271.75,56.5966,59.6384,123.812,100.239,110.24,0.00395044,0.10079,20.9177,541.886,-0.845898,0.0,0.0
13120,3279.75,57.2014,59.5048,123.802,100.24,109.35,0.0036854,0.0991308,20.9189,541.756,-0.773695,0.0,0.0
13152,3287.75,56.7324,59.3757,125.085,100.192,109.93,0.00369826,0.0983228,20.9203,541.806,-0.82503,0.0,0.0
13184,3295.75,56.4926,59.3739,123.447,100.128,109.436,0.0038139,0.0987945,20.9194,541.656,-0.790603,0.0,0.0
13216,3303.75,56.5267,59.0168,119.732,100.035,109.241,0.00365646,0.0959518,20.924,541.646,-0.78302,0.0,0.0
13248,3311.75,56.7697,59.9175,126.745,99.914,108.468,0.00346295,0.0946567,20.9258,541.716,-0.730654,0.0,0.0
13280,3319.75,55.6531,59.3888,122.166,99.7355,108.852,0.00374702,0.0947904,20.9248,541.656,-0.777945,0.0,0.0
13312,3327.75,56.2788,59.0055,125.127,99.4371,108.544,0.00367547,0.0943042,20.9262,541.736,-0.779427,0.0,0.0
13344,3335.75,56.222,59.4698,120.326,99.385,108.627,0.00366445,0.0942719,20.9271,541.456,-0.79086,0.0,0.0
13376,3343.75,56.1806,58.7065,120.821,99.4427,109.287,0.00324105,0.0938118,20.9278,541.306,-0.839611,0.0,0.0
13408,3351.75,56.4359,58.9409,123.93,99.5286,109.626,0.00316946,0.0937557,20.9293,541.256,-0.859487,0.0,0.0
13440,3359.75,56.2753,58.6875,125.107,99.6172,110.126,0.00334658,0.0939208,20.9293,541.266,-0.892024,0.0,0.0
13472,3367.75,56.3106,58.7686,125.312,99.6798,108.943,0.00361615,0.0947831,20.9273,541.196,-0.790399,0.0,0.0
13504,3375.75,56.2055,58.8851,121.843,99.7973,110.485,0.00376106,0.0942519,20.9277,541.256,-0.904926,0.0,0.0
13536,3383.75,56.0053,59.0881,123.12,99.8887,110.085,0.00351513,0.0933452,20.929,540.975,-0.864477,0.0,0.0
13568,3391.75,56.1791,59.0682,122.492,99.9144,109.641,0.00353192,0.0939523,20.9296,541.136,-0.82624,0.0,0.0
13600,3399.75,56.1072,58.9021,121.423,99.8811,110.025,0.00351019,0.0932548,20.9281,541.066,-0.860293,0.0,0.0
13632,3407.75,56.8235,59.0978,121.976,99.8041,108.008,0.00364804,0.0935532,20.9267,540.955,-0.702658,0.0,0.0
13664,3415.75,56.1498,58.6259,122.764,99.6709,108.788,0.0034592,0.0939953,20.9282,540.835,-0.778457,0.0,0.0
13696,3423.75,56.3494,59.0376,123.761,99.6248,108.625,0.00348263,0.0939043,20.9273,540.765,-0.769275,0.0,0.0
13728,3431.75,56.0428,58.7744,124.846,99.632,108.884,0.00331527,0.0943326,20.9264,540.695,-0.789819,0.0,0.0
13760,3439.75,56.0812,58.7877,123.36,99.7171,108.736,0.00367411,0.0947984,20.9268,540.575,-0.77012,0.0,0.0
13792,3447.75,56.2875,58.7706,125.769,99.8229,108.801,0.00356615,0.0951133,20.9266,540.545,-0.766005,0.0,0.0
13824,3455.75,56.4306,58.8352,122.38,99.8831,108.619,0.00324134,0.0928384,20.9276,540.475,-0.74573,0.0,0.0
13856,3463.75,56.3959,58.9585,122.052,99.8675,108.588,0.00301749,0.0937986,20.9265,540.395,-0.744621,0.0,0.0
13888,3471.75,56.3169,58.915,126.721,99.6405,108.993,0.00364799,0.0957773,20.9234,540.385,-0.797939,0.0,0.0
13920,3479.75,55.9872,58.8618,122.476,99.395,108.667,0.00387391,0.095331,20.9244,540.345,-0.793234,0.0,0.0
13952,3487.75,56.0751,58.2793,120.526,99.8739,108.84,0.0033883,0.0953547,20.9247,540.205,-0.764623,0.0,0.0
13984,3495.75,55.9066,58.3178,123.574,100.197,108.929,0.00350277,0.0953791,20.9233,540.115,-0.743217,0.0,0.0
14016,3503.75,56.261,58.4237,122.135,99.7487,108.663,0.00346927,0.0949582,20.9248,540.035,-0.761305,0.0,0.0
14048,3511.75,55.9515,58.7685,121.877,100.288,109.017,0.00331353,0.0936415,20.9283,539.995,-0.742357,0.0,0.0
14080,3519.75,55.9692,58.488,122.96,100.525,110.266,0.00336309,0.0934828,20.9278,539.945,-0.822661,0.0,0.0
14112,3527.75,55.5444,58.4477,123.345,99.924,109.735,0.00351265,0.0932577,20.9287,539.854,-0.833065,0.0,0.0
14144,3535.75,55.84,58.2069,122.746,98.9346,107.324,0.0036059,0.093896,20.9265,539.804,-0.723957,0.0,0.0
14176,3543.75,55.6336,58.3875,128.935,98.7216,107.297,0.00349381,0.09499,20.9242,539.824,-0.740853,0.0,0.0
14208,3551.75,55.8656,58.7447,125.265,99.4652,109.042,0.00323322,0.0931516,20.9282,539.754,-0.817591,0.0,0.0
14240,3559.75,55.7623,58.6045,125.094,99.9244,108.525,0.0035116,0.0931462,20.9281,539.674,-0.734364,0.0,0.0
14272,3567.75,56.2188,59.1207,125.806,99.4893,107.723,0.00326056,0.0925857,20.9302,539.534,-0.707213,0.0,0.0
14304,3575.75,56.1687,58.4289,121.761,100.074,108.267,0.00300007,0.0935989,20.9284,539.514,-0.699944,0.0,0.0
14336,3583.75,56.4422,58.922,123.826,99.705,108.1,0.00286443,0.0956635,20.9243,539.474,-0.718995,0.0,0.0
14368,3591.75,56.1144,58.8426,119.415,100.372,109.124,0.00331522,0.0938064,20.9283,539.384,-0.743606,0.0,0.0
14400,3599.75,55.7568,58.5429,124.94,100.394,108.363,0.00307663,0.0928775,20.9296,539.334,-0.679399,0.0,0.0
14432,3607.75,53.8905,57.1671,125.394,99.3016,107.845,0.00365432,0.0921819,20.931,539.294,-0.734087,0.0,0.0
14464,3615.75,54.6538,57.4613,122.483,98.6923,106.817,0.00338326,0.0919452,20.9304,539.264,-0.703612,0.0,0.0
14496,3623.75,54.4559,56.8091,124.72,99.3405,108.292,0.0032713,0.0910513,20.9312,539.224,-0.767375,0.0,0.0
14528,3631.75,54.4983,56.8855,123.211,99.9264,108.671,0.00346168,0.0912704,20.9317,539.144,-0.746174,0.0,0.0
14560,3639.75,53.9534,56.8729,125.244,99.6148,109.018,0.0033902,0.0911289,20.9317,539.044,-0.802282,0.0,0.0
14592,3647.75,54.1818,57.057,119.867,99.6822,108.35,0.00313368,0.0910714,20.9312,539.004,-0.741625,0.0,0.0
14624,3655.75,54.3255,56.3512,122.845,100.099,108.771,0.00315916,0.0906156,20.931,538.914,-0.739029,0.0,0.0
14656,3663.75,53.7056,57.1539,122.118,99.9846,109.25,0.00325754,0.0912509,20.9289,538.854,-0.788246,0.0,0.0
14688,3671.75,54.3248,56.8451,122.83,100.525,108.83,0.00339999,0.0915113,20.93,538.764,-0.706035,0.0,0.0
14720,3679.75,54.6704,57.1621,122.44,100.117,108.828,0.00320241,0.0909365,20.9313,538.743,-0.742087,0.0,0.0
14752,3687.75,53.7948,56.9196,121.529,99.0553,107.449,0.00344421,0.0918591,20.9309,538.723,-0.723486,0.0,0.0
14784,3695.75,54.5281,57.0952,123.874,98.7966,107.626,0.00330035,0.091842,20.9311,538.643,-0.761378,0.0,0.0
14816,3703.75,54.7407,56.7481,123.121,99.5606,109.003,0.0030431,0.0911314,20.9331,538.603,-0.805909,0.0,0.0
14848,3711.75,54.9602,56.8287,123.19,99.9537,109.011,,0.0909197,,538.503,-0.771524,0.0,0.0
14880,3719.75,54.3557,57.4579,120.01,99.4395,107.879,,,,538.463,-0.724552,0.0,0.0
14883,3720.5,54.3072,57.1774,121.609,99.401,108.032,,,,538.513,-0.740576,0.0,0.0