File: 01_Data/Plastic_Laminate_Counterop/Cone/Plastic_Laminate_Countertop_Cone_HF25Scan_220509_R2.csv
Names,Time,Stack TC,Smoke TC,Exh Press,Smoke Comp,Smoke Meas,CO Meter,CO2 Meter,O2 Meter,Sample Mass,Ext Coeff,Start Test,Flame Verif
Chan Gain,,500,500,1,1,1,1,1,1,1,1,1.0,1.0
Offset,,0,0,0.136848,0,0,0,0,0,0,0,0.0,0.0
Gain,,1,1,25.011,13.1423,14.7137,1,1,1,1.0009,1.01396,1.0,1.0
Units,sec,C,C,Pa,%,%,%,%,%,g,/m,,
Baseline,,21.9851,22.4499,147.379,99.6185,102.463,0.000538629,0.0434118,20.9928,-442.593,-0.250364,,
32,7.75,20.0063,20.026,146.433,99.8723,103.26,0.00072391,0.0434187,20.9938,750.223,-0.2967,0.0,0.0
64,15.75,20.1342,20.4583,152.069,99.8683,102.585,0.00053095,0.0423846,20.9931,750.233,-0.238734,0.0,0.0
96,23.75,20.1059,20.6689,144.845,99.8615,102.928,0.000633192,0.0421311,20.9932,750.183,-0.269036,0.0,0.0
128,31.75,20.1414,20.8246,147.594,99.8358,102.733,0.000236535,0.04205,20.9935,750.153,-0.254427,0.0,0.0
160,39.75,19.9629,20.5579,152.211,99.7905,102.294,0.000767377,0.0422994,20.9937,750.103,-0.220365,0.0,0.0
192,47.75,20.5364,21.0399,146.853,99.7487,102.476,0.000585401,0.0434317,20.9914,750.083,-0.239921,0.0,0.0
224,55.75,21.072,21.5206,154.055,99.6693,102.382,0.000569324,0.0438075,20.9906,750.093,-0.238816,0.0,0.0
256,63.75,20.5217,21.2929,144.16,99.5727,102.961,0.000671986,0.0474865,20.9874,750.013,-0.297587,0.0,0.0
288,71.75,20.9687,21.0462,144.558,99.452,101.957,0.000602376,0.0480157,20.9903,749.803,-0.221257,0.0,0.0
320,79.75,21.2177,21.2071,146.247,99.336,99.8129,0.00188879,0.0509395,20.9892,749.683,-0.0425914,0.0,0.0
352,87.75,21.7082,21.7629,150.226,99.5839,99.8587,0.00302761,0.0524508,20.9893,749.533,-0.0245063,0.0,0.0
384,95.75,21.6718,21.5882,144.044,99.926,100.85,0.00342202,0.0565566,20.9824,749.352,-0.0818744,0.0,0.0
416,103.75,22.8988,22.5859,142.263,100.098,102.703,0.00240303,0.0704558,20.9588,749.092,-0.228449,0.0,1.0
448,111.75,22.1018,21.3731,145.681,100.171,103.413,0.00142326,0.0871676,20.9454,748.822,-0.283308,0.0,1.0
480,119.75,22.6613,22.2638,147.473,100.144,103.292,0.00156551,0.086595,20.95,748.612,-0.275335,0.0,0.0
512,127.75,22.5512,22.536,142.13,100.058,103.247,0.00129036,0.0807552,20.9581,748.472,-0.279059,0.0,0.0
544,135.75,22.408,22.728,143.988,99.9336,102.965,0.00128223,0.071018,20.9702,748.342,-0.265789,0.0,0.0
576,143.75,22.5668,23.3129,145.148,99.7905,102.486,0.00152995,0.0642983,20.9774,748.221,-0.237098,0.0,0.0
608,151.75,22.2488,22.6023,143.444,99.6665,102.483,0.00174321,0.0593894,20.9823,748.111,-0.247879,0.0,0.0
640,159.75,21.5721,22.5996,145.409,99.691,101.927,0.00219051,0.0544741,20.9863,748.041,-0.197319,0.0,0.0
672,167.75,21.5499,22.4759,149.692,99.703,102.57,0.00216736,0.0500418,20.992,747.901,-0.252179,0.0,0.0
704,175.75,21.1278,21.6305,144.399,99.6986,102.432,0.00205257,0.0482029,20.9923,747.901,-0.240571,0.0,0.0
736,183.75,21.3073,22.4323,146.378,99.6898,101.811,0.00169057,0.0479875,20.9926,747.761,-0.187312,0.0,0.0
768,191.75,20.7696,22.1257,146.443,99.6814,102.471,0.00159429,0.0496068,20.9875,747.721,-0.245502,0.0,0.0
800,199.75,20.8701,21.4898,149.76,99.6685,101.929,0.00165193,0.052386,20.9847,747.701,-0.19948,0.0,0.0
832,207.75,20.5574,21.9438,144.263,99.6549,102.934,0.00179917,0.0490192,20.9921,747.651,-0.287956,0.0,0.0
864,215.75,21.1441,21.3066,143.102,99.7475,102.053,0.00154529,0.0472421,20.9919,747.601,-0.203201,0.0,0.0
896,223.75,20.304,21.6439,148.216,99.8262,102.513,0.00133684,0.0467423,20.9918,747.551,-0.236216,0.0,0.0
928,231.75,20.7732,21.5706,143.998,99.8623,103,0.00216007,0.0467793,20.9931,747.491,-0.275132,0.0,0.0
960,239.75,19.9227,21.371,146.111,99.9004,102.842,0.00211948,0.0464317,20.992,747.431,-0.258158,0.0,0.0
992,247.75,20.0276,21.3903,144.357,99.9533,102.849,0.00156183,0.0464069,20.9945,747.341,-0.253989,0.0,0.0
1024,255.75,20.7963,21.8579,145.243,100.009,102.93,0.00171999,0.0462936,20.9949,747.271,-0.256094,0.0,0.0
1056,263.75,20.5021,21.7205,146.162,100.08,102.789,0.00172989,0.0463909,20.9928,747.211,-0.237591,0.0,0.0
1088,271.75,20.2798,21.2749,148.101,100.135,102.732,0.00159069,0.0481191,20.988,747.181,-0.227809,0.0,0.0
1120,279.75,20.7856,20.8661,146.923,100.156,102.775,0.00161491,0.0498988,20.9899,747.12,-0.229575,0.0,0.0
1152,287.75,20.5566,21.1081,145.894,100.181,103.046,0.00191946,0.047896,20.9925,747.05,-0.250846,0.0,0.0
1184,295.75,20.8448,21.1653,146.967,100.151,102.891,0.00196239,0.0468672,20.9938,746.98,-0.240096,0.0,0.0
1216,303.75,20.8535,21.0951,144.27,100.085,103.361,0.00198054,0.0463122,20.9959,746.94,-0.286451,0.0,0.0
1248,311.75,20.3522,21.0951,143.939,99.9657,103.344,0.00220148,0.0465922,20.994,746.88,-0.29565,0.0,0.0
1280,319.75,20.799,21.4901,146.501,99.7913,102.838,0.00194493,0.0464072,20.9949,746.79,-0.267487,0.0,0.0
1312,327.75,21.0036,21.7128,148.205,99.5398,102.442,0.00156695,0.0464728,20.9926,746.71,-0.25565,0.0,0.0
1344,335.75,20.6206,21.6308,151.823,99.257,101.935,0.00166777,0.0467294,20.9932,746.64,-0.236748,0.0,0.0
1376,343.75,20.899,21.8754,147.104,99.3208,102.272,0.00200159,0.0471253,20.9921,746.6,-0.260411,0.0,0.0
1408,351.75,21.1208,21.6386,147.381,99.3794,102.48,0.00190651,0.0471059,20.9936,746.55,-0.27323,0.0,0.0
1440,359.75,20.6993,21.6667,146.364,99.4407,102.29,0.00209425,0.0470388,20.9929,746.49,-0.25124,0.0,0.0
1472,367.75,20.9537,21.4078,147.472,99.4941,102.553,0.00211927,0.0472624,20.9932,746.41,-0.26936,0.0,0.0
1504,375.75,20.9897,21.869,143.371,99.5406,102.463,0.00209949,0.0472869,20.9932,746.36,-0.257331,0.0,0.0
1536,383.75,20.6358,21.4225,147.678,99.5723,102.479,0.00209174,0.0473409,20.9941,746.26,-0.255942,0.0,0.0
1568,391.75,20.7276,21.5751,147.378,99.6308,102.452,0.0021036,0.0473463,20.9907,746.21,-0.248335,0.0,0.0
1600,399.75,21.1417,21.4636,146.165,99.6701,102.546,0.00214383,0.0475961,20.9906,746.16,-0.253011,0.0,0.0
1632,407.75,20.8643,21.5265,148.072,99.7255,102.595,0.00220043,0.0477753,20.9918,746.019,-0.252278,0.0,0.0
1664,415.75,21.0483,21.7696,143.983,99.7852,102.719,0.00208531,0.0477164,20.9941,745.949,-0.257765,0.0,0.0
1696,423.75,20.9872,21.4488,142.866,99.8282,102.933,0.00195616,0.0482863,20.993,745.909,-0.272428,0.0,0.0
1728,431.75,21.1861,22.0394,147.861,99.8366,103.056,0.00209897,0.0485026,20.9942,745.819,-0.282264,0.0,0.0
1760,439.75,20.681,21.5998,146.952,99.851,103.12,0.00234954,0.0490673,20.9921,745.739,-0.286557,0.0,0.0
1792,447.75,21.2731,21.3445,144.114,99.851,102.922,0.00182245,0.0492493,20.9907,745.659,-0.269461,0.0,0.0
1824,455.75,21.4001,21.8313,146.408,99.8474,102.69,0.00234845,0.0498545,20.9909,745.559,-0.249698,0.0,0.0
1856,463.75,21.3698,21.9012,145.615,99.8446,102.66,0.00233852,0.0499486,20.9935,745.459,-0.247303,0.0,0.0
1888,471.75,21.3087,21.6625,145.775,99.8049,102.61,0.00290568,0.0509264,20.9938,745.339,-0.246521,0.0,0.0
1920,479.75,20.963,22.0048,145.47,99.7804,102.485,0.00254718,0.0509987,20.9923,745.209,-0.237875,0.0,0.0
1952,487.75,21.3443,21.8438,145.506,99.7239,103.14,0.0019282,0.0556661,20.9848,745.079,-0.299554,0.0,0.0
1984,495.75,21.6982,21.8348,145.758,99.6417,102.895,0.00174754,0.0589833,20.9811,744.999,-0.285762,0.0,0.0
2016,503.75,21.6376,22.2873,145.19,99.541,102.836,0.00223968,0.061643,20.981,744.838,-0.289666,0.0,0.0
2048,511.75,21.7376,22.6512,140.341,99.4439,102.789,0.00213622,0.0635922,20.9789,744.698,-0.294264,0.0,0.0
2080,519.75,21.7129,22.9512,146.107,99.332,102.778,0.00266303,0.0653952,20.9775,744.548,-0.303346,0.0,0.0
2112,527.75,22.4853,23.1011,143.71,99.2201,102.462,0.00274325,0.0667798,20.973,744.368,-0.285972,0.0,0.0
2144,535.75,22.3489,22.9754,145.386,99.1179,102.331,0.00324497,0.0689808,20.9724,744.188,-0.283757,0.0,0.0
2176,543.75,22.5287,23.387,147.666,99.0056,102.319,0.0038088,0.0707562,20.9723,743.968,-0.292824,0.0,0.0
2208,551.75,22.5462,23.4105,145.253,98.9233,102.296,0.00412629,0.0714424,20.9744,743.747,-0.298145,0.0,0.0
2240,559.75,22.6262,23.6968,145.875,98.8632,101.619,0.00459017,0.0726149,20.9727,743.517,-0.244564,0.0,0.0
2272,567.75,22.7483,23.182,147.05,98.8151,101.676,0.00473133,0.0827215,20.959,743.267,-0.253845,0.0,0.0
2304,575.75,23.1721,24.1027,142.882,98.7778,101.537,0.0046417,0.0900791,20.9532,742.997,-0.245019,0.0,0.0
2336,583.75,23.5818,24.5303,142.58,98.7256,101.253,0.00497993,0.0936778,20.9507,742.677,-0.224861,0.0,0.0
2368,591.75,24.151,24.2465,143.145,98.6975,100.98,0.00531506,0.0993221,20.9436,742.346,-0.203337,0.0,0.0
2400,599.75,24.5997,24.9858,145.717,98.645,101.009,0.00558493,0.107976,20.9305,742.016,-0.210644,0.0,0.0
2432,607.75,24.6924,24.9634,139.622,98.6434,99.7711,0.00545915,0.115053,20.9256,741.636,-0.101105,0.0,0.0
2464,615.75,25.1642,25.1505,142.567,98.6398,100.358,0.005884,0.118437,20.9226,741.235,-0.153557,0.0,0.0
2496,623.75,25.456,26.2622,138.735,98.6326,100.265,0.0055638,0.121404,20.9202,740.785,-0.146046,0.0,0.0
2528,631.75,26.0905,26.712,143.534,98.6346,100.97,0.00578863,0.123732,20.9175,740.364,-0.208143,0.0,0.0
2560,639.75,26.777,26.9327,143.752,98.6366,100.383,0.00584374,0.129128,20.9114,739.934,-0.156114,0.0,0.0
2592,647.75,26.1109,27.4469,144.358,98.6334,100.062,0.00616006,0.132713,20.9068,739.504,-0.127871,0.0,0.0
2624,655.75,27.2725,27.6305,142.245,98.5933,99.9381,0.00567175,0.133233,20.9066,739.063,-0.120505,0.0,0.0
2656,663.75,27.7628,27.2902,143.609,98.5985,99.4429,0.0057939,0.132806,20.9058,738.603,-0.075847,0.0,0.0
2688,671.75,27.4718,28.7595,138.295,98.5764,100.318,0.0058551,0.131685,20.907,738.152,-0.15573,0.0,0.0
2720,679.75,27.7664,28.3219,143.096,98.5728,100.681,0.0055901,0.131248,20.9065,737.702,-0.188245,0.0,0.0
2752,687.75,28.496,28.7118,144.472,98.5596,100.464,0.00568533,0.130664,20.9082,737.272,-0.170179,0.0,0.0
2784,695.75,28.2954,29.2353,144.566,98.5491,100.758,0.00585674,0.129068,20.9109,736.801,-0.197121,0.0,0.0
2816,703.75,28.0856,29.4541,142.764,98.5479,100.824,0.00535957,0.127123,20.9125,736.361,-0.203094,0.0,0.0
2848,711.75,28.5683,29.3209,142.895,98.564,100.378,0.00542599,0.125097,20.9135,735.95,-0.162225,0.0,0.0
2880,719.75,27.803,29.3964,137.442,98.5676,101.395,0.00541535,0.122557,20.9179,735.56,-0.251525,0.0,0.0
2912,727.75,28.1682,29.1702,138.688,98.5776,101.314,0.00516988,0.119836,20.9178,735.15,-0.243567,0.0,0.0
2944,735.75,27.9874,28.7994,141.992,98.578,101.377,0.00504015,0.118254,20.9181,734.769,-0.249047,0.0,0.0
2976,743.75,27.7462,29.7274,140.803,98.5961,101.007,0.00491682,0.117405,20.9191,734.379,-0.214858,0.0,0.0
3008,751.75,28.295,29.4023,141.98,98.6081,101.469,0.00447459,0.118619,20.9184,733.989,-0.254406,0.0,0.0
3040,759.75,27.9878,30.0184,141.568,98.6045,101.694,0.00405092,0.117387,20.9184,733.598,-0.274389,0.0,0.0
3072,767.75,28.4929,29.5081,143.061,98.6141,102.042,0.00417822,0.115483,20.9203,733.198,-0.303906,0.0,0.0
3104,775.75,28.2144,29.5464,143.251,98.6129,101.645,0.00400937,0.113116,20.9222,732.828,-0.269387,0.0,0.0
3136,783.75,27.3314,28.9573,141.183,98.6165,101.898,0.00371168,0.11109,20.9258,732.527,-0.291156,0.0,0.0
3168,791.75,27.9342,29.2741,142.828,98.6061,102.013,0.00364204,0.110754,20.926,732.187,-0.302085,0.0,0.0
3200,799.75,27.6215,29.2994,144.377,98.6157,102.186,0.00337373,0.110106,20.9259,731.837,-0.316277,0.0,0.0
3232,807.75,28.045,28.9535,144.477,98.6093,102.118,0.0034348,0.110047,20.925,731.526,-0.310991,0.0,0.0
3264,815.75,27.904,28.8261,139.627,98.6221,102.162,0.0031582,0.10983,20.9236,731.206,-0.313665,0.0,0.0
3296,823.75,28.1754,29.2589,139.712,98.6249,102.502,0.00321856,0.111072,20.9239,730.886,-0.342917,0.0,0.0
3328,831.75,27.821,29.5216,142.602,98.5981,102.143,0.00305427,0.109436,20.9262,730.566,-0.314194,0.0,0.0
3360,839.75,28.4276,29.7791,144.484,98.5852,102.311,0.00313867,0.108441,20.9265,730.215,-0.329963,0.0,0.0
3392,847.75,28.3778,28.9784,142.858,98.5728,102.845,0.00304845,0.108141,20.926,729.925,-0.377338,0.0,0.0
3424,855.75,28.2201,29.0214,140.537,98.5716,102.763,0.00338132,0.106976,20.9266,729.625,-0.370338,0.0,0.0
3456,863.75,28.1322,29.1387,142.464,98.5664,102.009,0.00295171,0.106047,20.9273,729.365,-0.305354,0.0,0.0
3488,871.75,28.213,29.1094,139.917,98.5608,102.869,0.00282409,0.105188,20.9303,729.054,-0.38056,0.0,0.0
3520,879.75,28.6093,28.9563,141.4,98.576,102.37,0.0030943,0.104019,20.9316,728.754,-0.335908,0.0,0.0
3552,887.75,27.8375,29.2921,143.181,98.5556,102.221,0.00287623,0.103251,20.9328,728.474,-0.324791,0.0,0.0
3584,895.75,28.0813,29.3564,144.948,98.5483,102.649,0.0026809,0.101904,20.9347,728.184,-0.362638,0.0,0.0
3616,903.75,28.0104,28.8813,144.86,98.5435,103.358,0.00292246,0.100591,20.9329,727.863,-0.424257,0.0,0.0
3648,911.75,28.1051,28.9653,143.558,98.5471,102.279,0.00279594,0.100196,20.9328,727.603,-0.33063,0.0,0.0
3680,919.75,27.9238,29.1854,141.101,98.5624,102.557,0.00280615,0.0993753,20.934,727.343,-0.353392,0.0,0.0
3712,927.75,27.2547,28.0264,143.856,98.6033,102.22,0.00276056,0.09832,20.9363,727.113,-0.320407,0.0,0.0
3744,935.75,27.3685,28.7622,142.18,98.6229,102.397,0.00293701,0.0975379,20.9371,726.812,-0.334015,0.0,0.0
3776,943.75,27.2983,28.9847,143.247,98.6811,102.197,0.00246565,0.0964037,20.9387,726.572,-0.311399,0.0,0.0
3808,951.75,27.2045,28.2162,142.343,98.7288,102.139,0.00256556,0.0964905,20.9394,726.312,-0.302016,0.0,0.0
3840,959.75,27.2487,28.5849,146.655,98.7882,102.55,0.00281491,0.095664,20.9415,726.062,-0.332416,0.0,0.0
3872,967.75,26.8986,28.0812,143.973,98.8471,102.682,0.0025667,0.0953356,20.9374,725.801,-0.338551,0.0,0.0
3904,975.75,26.9316,28.3424,145.959,98.9013,102.347,0.0028332,0.0949246,20.9371,725.531,-0.304578,0.0,0.0
3936,983.75,27.6624,27.8995,143.789,98.9695,103.387,0.00288317,0.0949219,20.9372,725.271,-0.388368,0.0,0.0
3968,991.75,26.8611,28.7684,139.847,99.0236,103.268,0.00265216,0.0947201,20.9383,725.031,-0.373299,0.0,0.0
4000,999.75,27.1914,28.2862,143.441,99.0741,103.041,0.00276926,0.0944718,20.9401,724.81,-0.349172,0.0,0.0
4032,1007.75,27.4616,28.5864,144.711,99.1463,103.491,0.00285195,0.0941746,20.9391,724.58,-0.381444,0.0,0.0
4064,1015.75,27.278,28.3048,142.483,99.2446,102.825,0.00260455,0.0942154,20.9413,724.32,-0.315257,0.0,0.0
4096,1023.75,27.0563,27.5548,144.072,99.318,102.846,0.00320283,0.0942034,20.9404,724.08,-0.310469,0.0,0.0
4128,1031.75,26.7379,28.1804,140.616,99.4295,102.898,0.00249081,0.0936862,20.9419,723.84,-0.304992,0.0,0.0
4160,1039.75,27.4268,28.3571,143.525,99.5715,103.155,0.00299999,0.0934115,20.9405,723.599,-0.314513,0.0,0.0
4192,1047.75,27.0008,28.2076,143.059,99.6758,103.434,0.00278564,0.093381,20.9415,723.359,-0.329213,0.0,0.0
4224,1055.75,27.3771,28.5444,145.313,99.7532,103.378,0.00268115,0.0937812,20.9401,723.099,-0.317443,0.0,0.0
4256,1063.75,26.9292,28.0667,142.868,99.8013,103.705,0.00285647,0.0935824,20.9403,722.819,-0.34131,0.0,0.0
4288,1071.75,27.2204,28.329,144.947,99.8282,103.618,0.0026029,0.0932048,20.9394,722.599,-0.331402,0.0,0.0
4320,1079.75,27.2233,28.2533,146.052,99.8462,103.942,0.00322731,0.092894,20.941,722.408,-0.357541,0.0,0.0
4352,1087.75,27.4607,28.0119,143.177,99.8209,104.024,0.00285593,0.0937041,20.9411,722.158,-0.366858,0.0,0.0
4384,1095.75,27.3551,27.8777,143.744,99.7881,103.565,0.00288358,0.0931084,20.9414,721.938,-0.330466,0.0,0.0
4416,1103.75,27.154,27.5966,142.27,99.7275,103.48,0.00260063,0.0929259,20.9403,721.708,-0.328497,0.0,0.0
4448,1111.75,26.8865,27.781,142.718,99.6332,103.024,0.00290695,0.0927712,20.9393,721.467,-0.297685,0.0,0.0
4480,1119.75,27.4029,27.915,144.934,99.5639,103.392,0.00260567,0.0930653,20.9397,721.227,-0.335612,0.0,0.0
4512,1127.75,26.7957,27.6735,144.08,99.4804,102.907,0.00274854,0.0930901,20.941,720.987,-0.301213,0.0,0.0
4544,1135.75,26.7656,27.8382,139.927,99.4018,103.106,0.00300547,0.0925801,20.9416,720.717,-0.325382,0.0,0.0
4576,1143.75,26.5996,27.3884,145.111,99.3417,103.121,0.00363585,0.0919948,20.9427,720.477,-0.332122,0.0,0.0
4608,1151.75,26.5153,27.4915,141.212,99.2883,102.806,0.00338418,0.0917007,20.9387,720.286,-0.30967,0.0,0.0
4640,1159.75,26.1695,27.7729,141.321,99.2526,102.865,0.00293036,0.091953,20.9383,720.046,-0.317995,0.0,0.0
4672,1167.75,26.8439,27.9542,142.791,99.3898,103.363,0.00278973,0.0918441,20.9397,719.826,-0.348626,0.0,0.0
4704,1175.75,27.3624,27.873,145.731,99.5835,103.242,0.00310872,0.0914694,20.9428,719.566,-0.320869,0.0,0.0
4736,1183.75,27.015,27.6979,142.444,99.778,103.726,0.00308855,0.0913212,20.9438,719.346,-0.345154,0.0,0.0
4768,1191.75,27.0073,27.9575,143.109,99.9361,103.273,0.00298733,0.09108,20.9421,719.125,-0.292106,0.0,0.0
4800,1199.75,26.9081,28.0893,150.723,100.061,103.951,0.00299522,0.0911736,20.9411,718.875,-0.339215,0.0,0.0
4832,1207.75,26.6971,27.8756,142.752,100.129,103.778,0.00312258,0.0911198,20.9414,718.625,-0.318391,0.0,0.0
4864,1215.75,27.306,27.9767,140.268,100.157,103.724,0.00331462,0.0905556,20.9418,718.395,-0.311276,0.0,0.0
4896,1223.75,26.7481,28.0971,142.987,100.126,104.479,0.00300688,0.0905882,20.9401,718.144,-0.378509,0.0,0.0
4928,1231.75,26.6188,28.1901,149.106,100.064,103.835,0.003262,0.0906458,20.9401,717.974,-0.32905,0.0,0.0
4960,1239.75,27.195,27.3038,140.071,99.9842,104.035,0.0034754,0.0900173,20.9431,717.714,-0.353248,0.0,0.0
4992,1247.75,26.9755,27.1977,143.827,99.8819,103.15,0.00301593,0.0901082,20.9437,717.494,-0.2864,0.0,0.0
5024,1255.75,26.9771,27.7475,142.912,99.7455,103.375,0.00277994,0.090635,20.9437,717.254,-0.31789,0.0,0.0
5056,1263.75,27.0033,27.7919,138.69,99.6489,103.67,0.00367695,0.0904797,20.9424,717.013,-0.35186,0.0,0.0
5088,1271.75,26.9122,28.2476,140.905,99.6802,102.753,0.00334755,0.090688,20.942,716.783,-0.270051,0.0,0.0
5120,1279.75,26.9059,27.3804,146.533,99.7102,103.637,0.00333268,0.0908747,20.9419,716.563,-0.343572,0.0,0.0
5152,1287.75,27.1541,27.7221,140.99,99.7191,103.332,0.00314909,0.0908849,20.9415,716.293,-0.31658,0.0,0.0
5184,1295.75,26.5133,27.9275,141.17,99.7487,103.669,0.0030513,0.0910571,20.9402,716.053,-0.342835,0.0,0.0
5216,1303.75,26.4639,27.8448,138.383,99.7776,103.35,0.00354863,0.0905492,20.9426,715.842,-0.312905,0.0,0.0
5248,1311.75,26.9427,27.671,144.464,99.8173,103.423,0.0031187,0.090504,20.943,715.622,-0.315624,0.0,0.0
5280,1319.75,26.4583,27.7988,145.205,99.8739,103.487,0.00325184,0.0907142,20.9437,715.392,-0.316106,0.0,0.0
5312,1327.75,26.8738,27.9131,143.311,99.9425,103.847,0.00306581,0.0903721,20.9439,715.162,-0.34086,0.0,0.0
5344,1335.75,26.3972,27.2028,142.91,100.025,103.279,0.00313187,0.0908687,20.9422,714.912,-0.284726,0.0,0.0
5376,1343.75,26.5085,27.3986,146.349,100.089,103.08,0.00358335,0.0908913,20.944,714.691,-0.261914,0.0,0.0
5408,1351.75,26.7923,28.0297,143.976,100.133,104.261,0.00324736,0.0906542,20.9422,714.441,-0.359347,0.0,0.0
5440,1359.75,27.0492,27.7093,142.783,100.159,103.194,0.0035456,0.0907215,20.9434,714.171,-0.265507,0.0,0.0
5472,1367.75,26.217,27.5998,139.483,100.191,104.338,0.00350216,0.0906026,20.9428,713.941,-0.360693,0.0,0.0
5504,1375.75,27.1459,27.5418,143.493,100.221,103.138,0.00357675,0.0900067,20.9436,713.69,-0.255188,0.0,0.0
5536,1383.75,26.981,27.9222,140.909,100.25,103.926,0.00369925,0.090087,20.9424,713.51,-0.320255,0.0,0.0
5568,1391.75,27.1636,28.0821,141.327,100.282,104.183,0.00353936,0.0897479,20.9419,713.26,-0.339399,0.0,0.0
5600,1399.75,26.599,27.5647,143.345,100.314,104.695,0.00367597,0.0897974,20.9419,713.03,-0.380147,0.0,0.0
5632,1407.75,26.366,27.9558,142.775,100.35,103.81,0.00376259,0.0897247,20.9438,712.78,-0.301441,0.0,0.0
5664,1415.75,27.0568,27.575,145.343,100.372,103.788,0.00393585,0.0896255,20.9439,712.549,-0.297639,0.0,0.0
5696,1423.75,26.696,27.2295,145.363,100.38,103.344,0.003795,0.0893714,20.9434,712.309,-0.258751,0.0,0.0
5728,1431.75,26.6128,27.5436,147.407,100.396,104.276,0.00372223,0.0893073,20.943,712.049,-0.337198,0.0,0.0
5760,1439.75,26.8105,27.5237,146.077,100.42,103.88,0.00362764,0.0893333,20.944,711.819,-0.301295,0.0,0.0
5792,1447.75,26.5647,27.5154,146.909,100.448,103.86,0.00362953,0.0886228,20.9437,711.579,-0.297152,0.0,0.0
5824,1455.75,26.3582,27.6808,144.959,100.467,104.27,0.00387209,0.0882256,20.9453,711.368,-0.330448,0.0,0.0
5856,1463.75,26.806,27.4151,141.718,100.483,103.75,0.00367051,0.0883764,20.9453,711.138,-0.284563,0.0,0.0
5888,1471.75,26.1848,27.6523,140.059,100.484,103.374,0.00388959,0.0880314,20.9445,710.898,-0.25225,0.0,0.0
5920,1479.75,26.5391,27.2901,143.08,100.474,104.59,0.00349272,0.0883167,20.9443,710.678,-0.357077,0.0,0.0
5952,1487.75,26.9762,27.0246,143.502,100.46,103.938,0.0035521,0.0879916,20.9447,710.458,-0.302702,0.0,0.0
5984,1495.75,26.183,27.9118,143.879,100.424,103.718,0.00329877,0.0877785,20.948,710.217,-0.287085,0.0,0.0
6016,1503.75,25.9394,27.377,142.502,100.378,104.009,0.00389373,0.0873197,20.9497,709.987,-0.316089,0.0,0.0
6048,1511.75,26.3265,28.0447,144.846,100.313,103.627,0.00372395,0.0872444,20.9492,709.707,-0.289078,0.0,0.0
6080,1519.75,26.7079,27.2203,145.73,100.241,103.802,0.00366488,0.0870908,20.9479,709.487,-0.310422,0.0,0.0
6112,1527.75,26.8352,27.5591,151.664,100.134,103.67,0.00384571,0.0863847,20.9477,709.297,-0.308649,0.0,0.0
6144,1535.75,25.6666,27.6955,146.256,100.018,103.564,0.00368873,0.0864591,20.9477,709.096,-0.309851,0.0,0.0
6176,1543.75,26.3958,27.6396,142.564,99.8554,103.545,0.00385745,0.0868345,20.9477,708.846,-0.322688,0.0,0.0
6208,1551.75,26.5339,27.0146,143.783,99.6982,103.203,0.00366503,0.0860937,20.9477,708.616,-0.307302,0.0,0.0
6240,1559.75,26.4307,27.5114,146.046,99.4925,103.225,0.00364971,0.0861496,20.9472,708.386,-0.327572,0.0,0.0
6272,1567.75,26.549,27.6523,139.043,99.3012,103.173,0.00399541,0.0869459,20.9478,708.135,-0.340241,0.0,0.0
6304,1575.75,26.4991,27.1083,141.142,99.0609,103.195,0.00335673,0.0898982,20.9447,707.885,-0.363682,0.0,0.0
6336,1583.75,26.7839,27.3643,142.215,98.8307,102.959,0.00379518,0.0911101,20.9446,707.635,-0.363996,0.0,0.0
6368,1591.75,26.3621,27.5291,143.381,98.6947,102.303,0.00337219,0.0913063,20.943,707.415,-0.319348,0.0,0.0
6400,1599.75,27.499,27.7422,144.173,98.6286,102.076,0.00370197,0.091194,20.9415,707.215,-0.305617,0.0,0.0
6432,1607.75,26.6519,27.6009,145.901,98.588,102.118,0.00333648,0.0922008,20.9416,706.984,-0.312909,0.0,0.0
6464,1615.75,26.3711,27.479,142.427,98.5716,102.934,0.00353336,0.0922199,20.942,706.764,-0.38521,0.0,0.0
6496,1623.75,26.5527,27.4596,143.907,98.6057,102.443,0.00345882,0.092191,20.9424,706.544,-0.339548,0.0,0.0
6528,1631.75,26.6384,28.0316,146.847,98.6442,102.562,0.00333728,0.0926732,20.9415,706.304,-0.346401,0.0,0.0
6560,1639.75,27.1246,27.8905,144.528,98.7252,102.634,0.00331704,0.0927192,20.9414,706.094,-0.345366,0.0,0.0
6592,1647.75,26.5497,27.4716,138.542,98.7749,102.478,0.00313745,0.0927028,20.9421,705.863,-0.327373,0.0,0.0
6624,1655.75,26.5671,27.9012,149.456,98.8391,102.364,0.00353295,0.0928667,20.9416,705.603,-0.311653,0.0,0.0
6656,1663.75,26.7797,28.008,144.336,98.8856,102.769,0.00290585,0.0939444,20.9414,705.373,-0.34263,0.0,0.0
6688,1671.75,26.7078,27.7233,142.918,98.9518,102.978,0.00337873,0.0934198,20.9414,705.143,-0.354692,0.0,0.0
6720,1679.75,26.4939,27.9821,143.353,99.0276,102.794,0.00345117,0.093082,20.9404,704.933,-0.332006,0.0,0.0
6752,1687.75,26.818,27.8575,141.729,99.0982,102.871,0.00336741,0.0935544,20.9386,704.692,-0.332308,0.0,0.0
6784,1695.75,27.0804,27.9869,146.972,99.1897,103.132,0.00313649,0.0942594,20.9384,704.472,-0.346672,0.0,0.0
6816,1703.75,27.5307,28.1439,141.235,99.2675,102.674,0.00337045,0.0941291,20.9375,704.282,-0.300148,0.0,0.0
6848,1711.75,26.9992,27.6307,145.176,99.3449,103.146,0.00340582,0.0945908,20.9361,704.012,-0.334004,0.0,0.0
6880,1719.75,27.0731,27.5309,146.54,99.4006,103.054,0.00339215,0.0949544,20.9362,703.762,-0.321072,0.0,0.0
6912,1727.75,27.0926,28.3807,142.28,99.4363,102.875,0.00351313,0.0955993,20.9377,703.491,-0.302402,0.0,0.0
6944,1735.75,27.4489,28.3369,140.755,99.4905,103.429,0.00325779,0.0956937,20.9377,703.231,-0.3453,0.0,0.0
6976,1743.75,27.1418,28.3184,145.991,99.5711,103.353,0.00331498,0.096513,20.9376,703.011,-0.331568,0.0,0.0
7008,1751.75,27.3609,27.9635,142.217,99.6032,103.757,0.00338001,0.0961419,20.9368,702.811,-0.363413,0.0,0.0
7040,1759.75,27.4673,28.2647,144.599,99.6304,103.893,0.00340327,0.0961522,20.9348,702.57,-0.372594,0.0,0.0
7072,1767.75,28.062,28.2024,142.329,99.6461,103.548,0.00325555,0.0964759,20.9344,702.32,-0.341626,0.0,0.0
7104,1775.75,27.3857,28.1665,144.588,99.6738,103.917,0.00329298,0.0965228,20.9328,702.07,-0.370842,0.0,0.0
7136,1783.75,27.7346,28.7718,143.851,99.6814,103.504,0.0029569,0.096706,20.932,701.85,-0.334696,0.0,0.0
7168,1791.75,27.6033,27.8691,142.867,99.7114,103.51,0.00273727,0.0979109,20.9322,701.6,-0.332513,0.0,0.0
7200,1799.75,27.1896,28.7631,146.395,99.7195,103.275,0.00287558,0.0976148,20.9343,701.349,-0.311595,0.0,0.0
7232,1807.75,27.7232,28.2593,140.838,99.7046,103.843,0.00331385,0.0968815,20.9336,701.089,-0.361743,0.0,0.0
7264,1815.75,27.5388,28.4449,142.434,99.7058,103.711,0.00356543,0.0972789,20.9338,700.839,-0.350283,0.0,0.0
7296,1823.75,27.8559,28.905,146.796,99.7106,103.721,0.00339784,0.0980607,20.933,700.669,-0.350739,0.0,0.0
7328,1831.75,27.5776,28.8066,144.423,99.7111,103.714,0.00315811,0.098402,20.9321,700.429,-0.350087,0.0,0.0
7360,1839.75,27.7979,28.1423,142.762,99.7167,103.775,0.00320534,0.0976463,20.9315,700.158,-0.354783,0.0,0.0
7392,1847.75,28.1982,28.5514,143.136,99.7295,103.397,0.00318451,0.0982503,20.935,699.898,-0.321252,0.0,0.0
7424,1855.75,27.8078,28.9298,143.927,99.7471,103.302,0.00331013,0.0980809,20.9353,699.658,-0.311486,0.0,0.0
7456,1863.75,27.6337,28.9833,146.378,99.7596,103.508,0.00321016,0.0972614,20.9351,699.408,-0.328067,0.0,0.0
7488,1871.75,28.0099,28.5747,142.232,99.77,103.615,0.00322869,0.0981747,20.9342,699.157,-0.336316,0.0,0.0
7520,1879.75,27.8255,28.2394,147.036,99.7937,103.371,0.00337651,0.0970855,20.937,698.887,-0.31329,0.0,0.0
7552,1887.75,27.9529,28.9296,143.769,99.8161,103.545,0.00346747,0.096831,20.937,698.677,-0.326228,0.0,0.0
7584,1895.75,27.9717,29.0135,144.273,99.8278,103.737,0.00336979,0.0974343,20.937,698.407,-0.341646,0.0,0.0
7616,1903.75,27.6633,29.3739,142.233,99.8314,103.683,0.00325052,0.0971378,20.9364,698.197,-0.336665,0.0,0.0
7648,1911.75,28.5012,28.9087,142.928,99.833,103.987,0.00347592,0.0970481,20.9381,697.936,-0.362561,0.0,0.0
7680,1919.75,27.693,28.6851,144.105,99.7844,103.536,0.00364972,0.0966911,20.939,697.686,-0.328241,0.0,0.0
7712,1927.75,28.3767,28.4144,143.973,99.7111,103.989,0.00354752,0.0969235,20.9368,697.456,-0.373661,0.0,0.0
7744,1935.75,27.8435,28.5412,145.59,99.5819,103.269,0.00405025,0.0966991,20.9379,697.206,-0.323333,0.0,0.0
7776,1943.75,28.1929,28.1748,142.119,99.4876,103.536,0.00369052,0.0976563,20.935,696.985,-0.354775,0.0,0.0
7808,1951.75,27.839,29.1556,144.042,99.4167,103.082,0.00361665,0.0967813,20.9371,696.725,-0.322039,0.0,0.0
7840,1959.75,27.6518,28.6757,145.009,99.3573,103.189,0.0036059,0.0968261,20.9335,696.435,-0.33653,0.0,0.0
7872,1967.75,28.045,29.0157,143.721,99.3164,103.308,0.00361199,0.0963051,20.9356,696.175,-0.350443,0.0,0.0
7904,1975.75,27.8644,28.3688,140.994,99.3004,103.148,0.00391021,0.0961162,20.9353,695.965,-0.338145,0.0,0.0
7936,1983.75,27.7502,29.0969,142.149,99.2618,103.237,0.00377076,0.0959302,20.9374,695.734,-0.349218,0.0,0.0
7968,1991.75,27.3063,28.6794,142.331,99.2434,102.652,0.00370112,0.0950206,20.9376,695.464,-0.30036,0.0,0.0
8000,1999.75,28.038,29.0571,140.994,99.2366,103.183,0.00344707,0.0966615,20.9351,695.244,-0.34684,0.0,0.0
8032,2007.75,27.9398,28.882,142.116,99.2747,103.114,0.00394221,0.0954207,20.9369,694.984,-0.337502,0.0,0.0
8064,2015.75,27.8325,28.5529,143.458,99.2871,102.979,0.00396131,0.0951306,20.9379,694.733,-0.324761,0.0,0.0
8096,2023.75,27.1027,28.4383,141.845,99.308,103.34,0.0041045,0.0944408,20.9376,694.483,-0.354019,0.0,0.0
8128,2031.75,27.5906,28.5269,146.877,99.2883,102.845,0.00394388,0.0943909,20.9369,694.243,-0.313011,0.0,0.0
8160,2039.75,27.6468,29.0164,141.525,99.3376,103.66,0.00382191,0.0939096,20.9375,693.973,-0.378797,0.0,0.0
8192,2047.75,27.4213,28.1071,145.795,99.4564,103.21,0.00375027,0.0933709,20.939,693.753,-0.329523,0.0,0.0
8224,2055.75,26.8669,28.1225,141.422,99.547,103.271,0.00408396,0.0931396,20.9389,693.542,-0.326681,0.0,0.0
8256,2063.75,27.5227,28.0801,145.539,99.6697,103.326,0.00418211,0.0926146,20.9413,693.302,-0.320478,0.0,0.0
8288,2071.75,27.3462,28.6362,143.101,99.7612,103.881,0.00413484,0.0921853,20.9392,693.082,-0.359891,0.0,0.0
8320,2079.75,27.9966,28.7652,142.229,99.8482,103.934,0.00428538,0.0915859,20.9413,692.832,-0.356747,0.0,0.0
8352,2087.75,27.3205,28.4988,145.334,99.9284,103.304,0.00414487,0.0902981,20.9426,692.592,-0.295452,0.0,0.0
8384,2095.75,27.2614,28.0772,146.772,99.989,103.375,0.00449339,0.0887985,20.9447,692.321,-0.296246,0.0,0.0
8416,2103.75,27.2337,28.0585,145.702,100.05,103.388,0.00403909,0.0897999,20.945,692.111,-0.291868,0.0,0.0
8448,2111.75,27.6381,28.0928,145.009,100.095,103.762,0.00418101,0.0892082,20.945,691.821,-0.319999,0.0,0.0
8480,2119.75,27.7408,27.9931,146.395,100.066,103.685,0.00405516,0.0887098,20.9453,691.631,-0.316013,0.0,0.0
8512,2127.75,27.3413,28.1632,142.84,99.9717,104.185,0.00406101,0.08901,20.9472,691.42,-0.367127,0.0,0.0
8544,2135.75,26.8906,28.308,139.084,99.784,103.453,0.00453545,0.0876826,20.9473,691.18,-0.321138,0.0,0.0
8576,2143.75,26.9027,28.6311,141.332,99.608,102.93,0.00485166,0.0838504,20.9511,690.97,-0.291797,0.0,0.0
8608,2151.75,26.9303,28.1166,142.086,99.7227,103.446,0.00459783,0.0832057,20.9502,690.72,-0.326031,0.0,0.0
8640,2159.75,26.5501,27.4979,143.657,99.9288,103.715,0.00453518,0.0826295,20.9504,690.46,-0.330758,0.0,0.0
8672,2167.75,26.4028,27.9897,147.009,100.14,103.181,0.00461337,0.0832133,20.9512,690.239,-0.266062,0.0,0.0
8704,2175.75,26.926,27.9583,142.834,100.296,103.752,0.00512073,0.0826903,20.951,689.999,-0.301312,0.0,0.0
8736,2183.75,27.1605,27.6472,140.879,100.375,103.9,0.00466043,0.0830146,20.9493,689.739,-0.307002,0.0,0.0
8768,2191.75,26.6402,27.6652,144.505,100.429,103.542,0.00498417,0.0820117,20.9512,689.519,-0.271478,0.0,0.0
8800,2199.75,26.377,27.3113,142.599,100.447,103.713,0.00489059,0.082367,20.9511,689.309,-0.284599,0.0,0.0
8832,2207.75,26.9426,27.3463,146.205,100.443,103.983,0.00463197,0.0822849,20.9504,689.098,-0.308074,0.0,0.0
8864,2215.75,26.3378,27.3856,142.023,100.422,103.87,0.00472151,0.0820817,20.9493,688.868,-0.300272,0.0,0.0
8896,2223.75,27.0216,27.2756,145.167,100.406,103.646,0.00496906,0.0819747,20.9507,688.638,-0.282486,0.0,0.0
8928,2231.75,26.3864,27.5885,148.226,100.39,103.811,0.00473075,0.0813489,20.9533,688.438,-0.29804,0.0,0.0
8960,2239.75,26.4978,26.965,142.497,100.368,103.917,0.00466095,0.0809124,20.9542,688.198,-0.309063,0.0,0.0
8992,2247.75,26.1,26.9198,142.135,100.322,103.291,0.00436535,0.0821284,20.9527,687.957,-0.259383,0.0,0.0
9024,2255.75,25.9107,27.4199,144.632,100.278,103.352,0.00460033,0.0817485,20.9522,687.737,-0.268551,0.0,0.0
9056,2263.75,26.2236,27.2034,142.8,100.212,103.196,0.00453818,0.0815361,20.9542,687.487,-0.26093,0.0,0.0
9088,2271.75,25.9432,27.286,147.381,100.174,103.304,0.00492576,0.0820099,20.9523,687.277,-0.273631,0.0,0.0
9120,2279.75,26.6492,26.8987,151.892,100.175,103.406,0.00476633,0.0817448,20.9528,687.087,-0.282331,0.0,0.0
9152,2287.75,26.6424,27.6553,146.699,100.105,103.836,0.00452993,0.0809589,20.9523,686.866,-0.325418,0.0,0.0
9184,2295.75,26.6652,27.1943,137.872,100.084,103.203,0.00480637,0.0809796,20.9526,686.636,-0.272947,0.0,0.0
9216,2303.75,26.5517,27.1853,141.089,99.9906,103.249,0.00462269,0.0812295,20.953,686.416,-0.285202,0.0,0.0
9248,2311.75,26.2531,27.3767,143.28,99.8899,102.967,0.00463638,0.081297,20.953,686.216,-0.269836,0.0,0.0
9280,2319.75,25.9516,26.9062,146.003,99.7644,103.311,0.00482111,0.0808865,20.953,685.996,-0.310683,0.0,0.0
9312,2327.75,26.3692,27.1147,142.632,99.6729,103.354,0.00466444,0.0811368,20.9536,685.745,-0.322588,0.0,0.0
9344,2335.75,26.164,27.3298,145.716,99.5887,103.452,0.00477357,0.0811305,20.9536,685.515,-0.338489,0.0,0.0
9376,2343.75,26.082,26.5464,147.853,99.4989,102.729,0.00460138,0.0812341,20.9536,685.295,-0.284182,0.0,0.0
9408,2351.75,26.6151,26.9432,145.936,99.4171,103.031,0.00460294,0.0816789,20.9524,685.115,-0.317586,0.0,0.0
9440,2359.75,26.087,27.2591,140.862,99.3737,103.24,0.00459655,0.0816403,20.9523,684.885,-0.339507,0.0,0.0
9472,2367.75,26.5537,27.1586,145.738,99.3561,102.891,0.00457079,0.0809987,20.9524,684.684,-0.310939,0.0,0.0
9504,2375.75,26.0783,26.7558,142.427,99.334,102.276,0.00477583,0.080908,20.9529,684.474,-0.259577,0.0,0.0
9536,2383.75,26.3259,27.2589,142.586,99.3593,103.154,0.00459076,0.0810419,20.9523,684.274,-0.33333,0.0,0.0
9568,2391.75,26.1288,27.3946,145.309,99.3473,102.023,0.00437753,0.0815884,20.9517,684.064,-0.23638,0.0,0.0
9600,2399.75,26.3519,26.7012,147.626,99.3308,102.363,0.00475201,0.0814568,20.9513,683.844,-0.267476,0.0,0.0
9632,2407.75,25.9666,26.7654,143.797,99.2659,102.964,0.00451216,0.081168,20.9513,683.583,-0.325346,0.0,0.0
9664,2415.75,26.0783,26.5306,142.919,99.2394,102.279,0.00481985,0.0808276,20.953,683.353,-0.268368,0.0,0.0
9696,2423.75,26.2101,27.1328,143.836,99.2065,102.459,0.00490899,0.0807099,20.955,683.153,-0.286922,0.0,0.0
9728,2431.75,26.4253,27.5411,145.901,99.1512,102.684,0.00498735,0.0804683,20.9537,683.013,-0.311432,0.0,0.0
9760,2439.75,25.6823,26.8471,145.442,99.0509,102.156,0.00498705,0.0812933,20.9512,682.773,-0.274574,0.0,0.0
9792,2447.75,25.9999,27.3987,148.286,98.9651,102.449,0.00456072,0.0809968,20.9507,682.543,-0.307737,0.0,0.0
9824,2455.75,26.0407,27.0933,143.918,98.8812,101.958,0.00461306,0.0805349,20.9526,682.342,-0.272563,0.0,0.0
9856,2463.75,26.2884,27.3334,150.911,98.7926,102.458,0.00459844,0.0812889,20.9527,682.122,-0.323992,0.0,0.0
9888,2471.75,27.0112,27.3649,143.493,98.6787,101.66,0.00478226,0.0818641,20.9499,681.912,-0.264714,0.0,0.0
9920,2479.75,26.403,27.3223,145.418,98.5985,101.882,0.00513034,0.0805543,20.9534,681.692,-0.291333,0.0,0.0
9952,2487.75,26.2335,27.1334,142.277,98.5664,101.44,0.00496149,0.0799776,20.9552,681.452,-0.255571,0.0,0.0
9984,2495.75,26.2547,26.8839,138.511,98.5832,102.19,0.00516298,0.0815879,20.9515,681.231,-0.319598,0.0,0.0
10016,2503.75,26.2144,27.1461,142.503,98.6145,101.861,0.0047186,0.0824187,20.9506,681.051,-0.288122,0.0,0.0
10048,2511.75,26.4086,27.1374,145.204,98.6446,102.145,0.00456834,0.0819327,20.9502,680.821,-0.310155,0.0,0.0
10080,2519.75,26.4505,26.3885,146.4,98.6727,102.401,0.00453815,0.0818272,20.9496,680.611,-0.329843,0.0,0.0
10112,2527.75,26.7108,27.1297,145.721,98.7517,102.034,0.00497613,0.0808381,20.9514,680.381,-0.290802,0.0,0.0
10144,2535.75,26.3841,27.3188,149.121,98.8287,102.058,0.00519375,0.0810319,20.9534,680.16,-0.285983,0.0,0.0
10176,2543.75,26.5265,26.764,142.657,98.8949,102.1,0.0049797,0.0813456,20.9533,679.95,-0.283667,0.0,0.0
10208,2551.75,26.0802,27.03,143.377,98.9526,102.87,0.00484945,0.0823534,20.9531,679.74,-0.345308,0.0,0.0
10240,2559.75,25.8237,27.1912,148.754,99.0004,103.119,0.00468961,0.0827055,20.9534,679.49,-0.36254,0.0,0.0
10272,2567.75,25.9654,27.6366,144.97,99.0368,102.179,0.00462554,0.0828583,20.9531,679.28,-0.277829,0.0,0.0
10304,2575.75,26.5038,27.3265,148.829,99.0352,102.467,0.00457937,0.0823958,20.9533,679.089,-0.30303,0.0,0.0
10336,2583.75,26.9582,26.8448,146.268,98.9971,102.525,0.00455103,0.0832033,20.9494,678.869,-0.311441,0.0,0.0
10368,2591.75,25.8056,27.0368,147.687,98.9715,102.662,0.00440633,0.0840937,20.9486,678.669,-0.325619,0.0,0.0
10400,2599.75,26.5739,26.8991,142.229,98.9538,102.62,0.00461369,0.0833734,20.9517,678.449,-0.323548,0.0,0.0
10432,2607.75,26.6232,26.9105,143.059,98.933,102.355,0.0043776,0.0842876,20.9483,678.229,-0.302432,0.0,0.0
10464,2615.75,26.138,27.1603,144.33,98.9173,102.676,0.00472595,0.0844901,20.9503,678.008,-0.331732,0.0,0.0
10496,2623.75,26.4826,27.4671,144.72,98.8812,102.296,0.00485749,0.0834623,20.9503,677.778,-0.302011,0.0,0.0
10528,2631.75,26.346,27.3759,144.811,98.8311,101.672,0.00466444,0.0832696,20.9503,677.548,-0.252088,0.0,0.0
10560,2639.75,26.2604,26.9168,147.768,98.7918,102.416,0.00473768,0.0847875,20.9482,677.308,-0.320477,0.0,0.0
10592,2647.75,26.2283,26.7304,143.502,98.7513,102.254,0.00437919,0.0853293,20.9486,677.108,-0.310036,0.0,0.0
10624,2655.75,25.7709,27.0052,140.81,98.7525,102.654,0.00437944,0.0851505,20.9493,676.907,-0.344621,0.0,0.0
10656,2663.75,26.753,27.4394,145.108,98.7252,102.966,0.00445805,0.0860636,20.9493,676.697,-0.374115,0.0,0.0
10688,2671.75,26.1911,27.1983,143.491,98.7011,101.506,0.00465899,0.0851257,20.9493,676.477,-0.249244,0.0,0.0
10720,2679.75,27.2338,27.7326,146.454,98.6831,102.311,0.00424842,0.0854278,20.9493,676.267,-0.321099,0.0,0.0
10752,2687.75,26.4972,27.4046,146.308,98.6759,102.576,0.00445994,0.0855356,20.9493,676.037,-0.34479,0.0,0.0
10784,2695.75,26.8071,27.7263,142.061,98.6719,102.083,0.00432268,0.0862982,20.9475,675.797,-0.30226,0.0,0.0
10816,2703.75,26.319,26.9316,140.942,98.6602,101.854,0.00441444,0.0858928,20.9476,675.606,-0.283372,0.0,0.0
10848,2711.75,26.5791,27.1432,143.83,98.6506,101.514,0.00428753,0.0864594,20.9457,675.346,-0.254468,0.0,0.0
10880,2719.75,26.3809,27.6024,145.757,98.6514,101.879,0.00440328,0.0858385,20.948,675.126,-0.286363,0.0,0.0
10912,2727.75,26.4564,27.0886,143.361,98.6438,101.819,0.00432145,0.0862343,20.9492,674.936,-0.281796,0.0,0.0
10944,2735.75,26.5856,27.3704,144.46,98.6257,101.582,0.00480976,0.0857234,20.9501,674.726,-0.262649,0.0,0.0
10976,2743.75,26.6244,27.3018,142.69,98.6205,102.046,0.00438855,0.0868395,20.9472,674.505,-0.303719,0.0,0.0
11008,2751.75,26.7018,27.4004,147.773,98.5868,102.105,0.00438464,0.0873592,20.947,674.265,-0.311883,0.0,0.0
11040,2759.75,26.1352,27.6989,146.241,98.586,102.16,0.00486151,0.0869302,20.947,674.055,-0.316726,0.0,0.0
11072,2767.75,27.278,27.6212,144.513,98.5852,101.804,0.00455686,0.087128,20.9466,673.815,-0.285782,0.0,0.0
11104,2775.75,26.9365,27.5307,142.348,98.5748,101.816,0.00386228,0.0880052,20.9466,673.594,-0.287704,0.0,0.0
11136,2783.75,26.9718,27.5674,145.364,98.5652,101.694,0.00433472,0.0882863,20.9455,673.344,-0.277975,0.0,0.0
11168,2791.75,26.463,27.9549,143.438,98.5596,102.539,0.00415921,0.0864584,20.9486,673.124,-0.352048,0.0,0.0
11200,2799.75,26.6333,27.5814,144.424,98.5764,102.418,0.00437754,0.0879481,20.9451,672.934,-0.340006,0.0,0.0
11232,2807.75,27.159,27.5294,141.849,98.5836,102.617,0.00409808,0.0886628,20.9451,672.734,-0.356613,0.0,0.0
11264,2815.75,26.7493,27.3405,144.821,98.5993,102.309,0.00388397,0.0907807,20.9443,672.544,-0.328541,0.0,0.0
11296,2823.75,26.3148,28.0202,142.605,98.5925,102.21,0.00401741,0.090449,20.9441,672.293,-0.320485,0.0,0.0
11328,2831.75,27.1865,27.9058,139.897,98.5872,102.872,0.00409545,0.0912662,20.9426,672.063,-0.378367,0.0,0.0
11360,2839.75,27.6616,27.8823,140.995,98.5784,102.298,0.00436977,0.0913307,20.9439,671.813,-0.329446,0.0,0.0
11392,2847.75,26.4792,27.979,142.504,98.5708,102.007,0.00410365,0.0919845,20.9447,671.573,-0.304799,0.0,0.0
11424,2855.75,27.1713,27.7109,143.925,98.5764,102.039,0.00391517,0.0927388,20.9423,671.302,-0.307072,0.0,0.0
11456,2863.75,27.5469,28.1679,141.736,98.5836,102.425,0.00391121,0.0937417,20.9385,671.082,-0.340017,0.0,0.0
11488,2871.75,27.5124,28.147,141.283,98.5692,102.394,0.00417556,0.0945297,20.9377,670.922,-0.338629,0.0,0.0
11520,2879.75,27.6314,28.2628,145.702,98.582,101.898,0.00419136,0.0934189,20.9388,670.662,-0.294267,0.0,0.0
11552,2887.75,27.2798,28.2665,146.61,98.6217,101.915,0.00408525,0.0945722,20.9382,670.432,-0.292175,0.0,0.0
11584,2895.75,27.6203,27.9785,141.297,98.726,102.19,0.00395267,0.0953362,20.9372,670.181,-0.306725,0.0,0.0
11616,2903.75,28.0351,28.5185,142.751,98.8712,102.613,0.00380408,0.0958404,20.937,669.961,-0.330394,0.0,0.0
11648,2911.75,27.8645,28.1667,141.549,99.0693,102.35,0.00366265,0.0959702,20.9366,669.731,-0.289751,0.0,0.0
11680,2919.75,27.4517,28.7328,146.846,99.3028,102.902,0.00364813,0.096296,20.937,669.481,-0.316648,0.0,0.0
11712,2927.75,27.4419,28.4571,142.025,99.4856,102.907,0.0035841,0.0971987,20.9359,669.211,-0.300747,0.0,0.0
11744,2935.75,27.9114,28.0005,142.628,99.6368,103.489,0.00372018,0.0983275,20.9354,668.98,-0.337395,0.0,0.0
11776,2943.75,27.5692,28.4393,142.571,99.7183,103.09,0.00384268,0.098365,20.9354,668.83,-0.295794,0.0,0.0
11808,2951.75,27.7862,28.6154,144.847,99.7692,103.942,0.00320782,0.0988632,20.9345,668.56,-0.364403,0.0,0.0
11840,2959.75,28.3983,28.6007,148.271,99.7953,103.879,0.00344672,0.0999156,20.9337,668.32,-0.356737,0.0,0.0
11872,2967.75,27.7702,28.6099,144.77,99.8201,103.639,0.00368162,0.100357,20.9322,668.06,-0.33389,0.0,0.0
11904,2975.75,28.3366,29.1731,142.159,99.8262,103.503,0.00382693,0.101683,20.9303,667.829,-0.321708,0.0,0.0
11936,2983.75,28.519,28.6972,143.44,99.8282,104.722,0.00335837,0.101814,20.9281,667.559,-0.42564,0.0,0.0
11968,2991.75,28.1771,28.4912,140.294,99.8286,103.533,0.00329782,0.102457,20.9293,667.309,-0.324117,0.0,0.0
12000,2999.75,28.1512,28.0877,147.063,99.8205,104.313,0.00360767,0.102854,20.9292,667.019,-0.391509,0.0,0.0
12032,3007.75,27.9228,28.8469,142.323,99.8173,103.519,0.00347086,0.102504,20.9305,666.758,-0.323845,0.0,0.0
12064,3015.75,28.3657,29.288,141.822,99.8189,103.652,0.00367763,0.103725,20.9271,666.498,-0.335153,0.0,0.0
12096,3023.75,28.2962,29.1718,138.84,99.8173,103.939,0.00330272,0.10481,20.9288,666.298,-0.359883,0.0,0.0
12128,3031.75,28.5011,28.957,139.401,99.8085,103.569,0.0029409,0.104803,20.9268,666.048,-0.328951,0.0,0.0
12160,3039.75,28.1081,29.7189,144.29,99.76,103.297,0.00301943,0.105597,20.9269,665.777,-0.309878,0.0,0.0
12192,3047.75,28.8882,29.5704,140.339,99.7203,103.163,0.00308887,0.105895,20.9282,665.517,-0.301889,0.0,0.0
12224,3055.75,28.9255,29.3753,143.844,99.6645,103.355,0.00290365,0.106717,20.9271,665.267,-0.323417,0.0,0.0
12256,3063.75,28.9281,29.4608,144.225,99.6216,103.847,0.00318445,0.107336,20.9265,665.017,-0.369498,0.0,0.0
12288,3071.75,28.4158,30.0529,145.398,99.529,103.253,0.00316425,0.107464,20.9261,664.737,-0.326747,0.0,0.0
12320,3079.75,29.0642,29.449,143.625,99.46,103.712,0.00337016,0.108418,20.924,664.416,-0.372318,0.0,0.0
12352,3087.75,28.6362,29.6127,142.45,99.3633,103.38,0.00336795,0.108906,20.9232,664.166,-0.352463,0.0,0.0
12384,3095.75,29.0746,29.8124,144.167,99.2582,103.299,0.00309039,0.109653,20.9231,663.936,-0.354918,0.0,0.0
12416,3103.75,28.6259,29.2884,144.512,99.1608,102.726,0.00283992,0.11001,20.9214,663.656,-0.314185,0.0,0.0
12448,3111.75,29.2475,29.848,144.592,99.038,103.111,0.00298718,0.111035,20.9204,663.365,-0.358456,0.0,0.0
12480,3119.75,29.1924,29.8155,142.29,98.9085,103.282,0.00300627,0.111564,20.9204,663.105,-0.384844,0.0,0.0
12512,3127.75,29.0956,30.2872,142.885,98.7914,102.22,0.00315578,0.112143,20.9217,662.805,-0.303455,0.0,0.0
12544,3135.75,28.7396,30.016,141.441,98.6919,102.327,0.00293282,0.112452,20.92,662.545,-0.321748,0.0,0.0
12576,3143.75,28.8065,30.11,141.094,98.5949,102.135,0.00303335,0.113467,20.9185,662.224,-0.313779,0.0,0.0
12608,3151.75,29.8846,30.1863,142.499,98.5511,102.926,0.0032542,0.114508,20.9185,661.944,-0.386319,0.0,0.0
12640,3159.75,29.3235,30.3912,141.395,98.5612,102.705,0.00274271,0.115334,20.9174,661.614,-0.366264,0.0,0.0
12672,3167.75,29.6149,30.1533,141.148,98.5997,102.75,0.0029584,0.116235,20.9175,661.354,-0.366717,0.0,0.0
12704,3175.75,29.8365,30.1456,146.347,98.6346,102.707,0.00315628,0.116605,20.9175,661.093,-0.359877,0.0,0.0
12736,3183.75,28.9447,30.7694,140.265,98.6903,103.091,0.00290652,0.117976,20.9147,660.803,-0.387998,0.0,0.0
12768,3191.75,30.0817,30.9093,142.362,98.7577,103.376,0.00299067,0.118496,20.9131,660.483,-0.406493,0.0,0.0
12800,3199.75,29.8161,30.6301,143.576,98.8961,102.624,0.0030316,0.119043,20.9127,660.192,-0.329091,0.0,0.0
12832,3207.75,29.8639,30.378,140.209,99.0477,103.05,0.00253701,0.120465,20.9122,659.882,-0.352362,0.0,0.0
12864,3215.75,30.0798,31.1936,139.021,99.1905,103.749,0.0023318,0.122096,20.911,659.572,-0.399611,0.0,0.0
12896,3223.75,29.9464,30.8992,143.791,99.336,102.904,0.00257014,0.123123,20.9103,659.242,-0.313822,0.0,0.0
12928,3231.75,30.5855,30.8416,140.3,99.4423,104.008,0.00282844,0.125092,20.9048,658.931,-0.399238,0.0,0.0
12960,3239.75,30.595,31.5276,142.433,99.4965,103.767,0.00304995,0.124027,20.9062,658.591,-0.373829,0.0,0.0
12992,3247.75,30.5939,31.5084,142.675,99.5554,104.123,0.0028536,0.127051,20.903,658.291,-0.39899,0.0,0.0
13024,3255.75,30.6086,31.6631,144.75,99.6276,104.539,0.00252069,0.127284,20.9039,657.96,-0.428029,0.0,0.0
13056,3263.75,30.7536,31.6575,143.086,99.6581,104.247,0.00267831,0.128286,20.9039,657.64,-0.400441,0.0,0.0
13088,3271.75,30.998,32.1546,140.569,99.7532,104.895,0.00266897,0.128899,20.9034,657.26,-0.447034,0.0,0.0
13120,3279.75,31.2812,31.9619,143.072,99.8342,104.249,0.00255739,0.130955,20.9012,656.98,-0.384894,0.0,0.0
13152,3287.75,31.3396,32.0306,143.139,99.9076,104.553,0.00262688,0.132597,20.8977,656.639,-0.404255,0.0,0.0
13184,3295.75,31.139,32.1568,138.903,99.9517,105.16,0.00269838,0.132832,20.8992,656.269,-0.451824,0.0,0.0
13216,3303.75,30.9287,31.9796,139.46,100.018,104.952,0.00289792,0.134394,20.8972,655.889,-0.428223,0.0,0.0
13248,3311.75,31.508,32.339,139.608,100.093,104.102,0.00274068,0.134613,20.8941,655.518,-0.349228,0.0,0.0
13280,3319.75,31.9517,33.3703,141.933,100.149,104.834,0.0031428,0.136621,20.8932,655.208,-0.406664,0.0,0.0
13312,3327.75,31.5371,33.422,144.773,100.191,105.026,0.00256209,0.136706,20.8952,654.848,-0.419215,0.0,0.0
13344,3335.75,31.5965,32.8454,140.202,100.239,105.214,0.0025002,0.137617,20.8922,654.517,-0.430827,0.0,0.0
13376,3343.75,31.9,33.3094,144.579,100.297,104.874,0.0029046,0.138149,20.8935,654.147,-0.396849,0.0,0.0
13408,3351.75,32.4017,32.9868,142.566,100.333,106.276,0.00309485,0.138657,20.8939,653.777,-0.511826,0.0,0.0
13440,3359.75,32.4503,33.449,138.812,100.402,105.935,0.00291378,0.139309,20.8924,653.406,-0.477143,0.0,0.0
13472,3367.75,32.3126,33.7067,144.799,100.406,105.063,0.00251695,0.13916,20.8923,653.016,-0.403269,0.0,0.0
13504,3375.75,32.0081,33.4324,139.334,100.417,106.294,0.00274388,0.140062,20.8908,652.626,-0.505863,0.0,0.0
13536,3383.75,32.5642,33.3161,139.918,100.421,105.034,0.0027336,0.139631,20.8906,652.265,-0.39945,0.0,0.0
13568,3391.75,32.0494,33.2815,139.361,100.421,105.469,0.00279689,0.140475,20.8922,651.925,-0.436219,0.0,0.0
13600,3399.75,31.9494,33.2823,140.51,100.42,104.714,0.00273668,0.140425,20.8915,651.565,-0.37244,0.0,0.0
13632,3407.75,32.4493,34.1977,140.965,100.417,104.756,0.00266759,0.140362,20.8903,651.184,-0.376235,0.0,0.0
13664,3415.75,32.7358,33.9176,144.713,100.407,104.997,0.00254778,0.141157,20.8875,650.844,-0.397575,0.0,0.0
13696,3423.75,32.6645,34.0506,143.302,100.394,105.31,0.0026137,0.140586,20.8873,650.464,-0.42522,0.0,0.0
13728,3431.75,32.1525,33.6821,140.144,100.348,105.261,0.0027249,0.140903,20.887,650.093,-0.425138,0.0,0.0
13760,3439.75,32.2043,33.6313,142.119,100.319,105.184,0.00265723,0.141901,20.8889,649.723,-0.421166,0.0,0.0
13792,3447.75,32.8243,33.6708,139.44,100.256,105.261,0.00294727,0.141761,20.8877,649.323,-0.433318,0.0,0.0
13824,3455.75,32.8334,34.2404,142.813,100.212,105.211,0.00302744,0.146384,20.8846,648.922,-0.433055,0.0,0.0
13856,3463.75,33.0184,33.8362,140.39,100.157,104.91,0.00269213,0.14615,20.8819,648.572,-0.41239,0.0,0.0
13888,3471.75,32.9136,33.6712,144.878,100.116,105.164,0.00279628,0.144496,20.8833,648.192,-0.437542,0.0,0.0
13920,3479.75,32.3072,34.7364,142.773,100.061,105.05,0.00265533,0.145151,20.8836,647.831,-0.432812,0.0,0.0
13952,3487.75,33.008,34.1729,142.491,99.9962,104.671,0.00257328,0.145151,20.8858,647.461,-0.406409,0.0,0.0
13984,3495.75,32.5893,34.2864,140.155,99.9553,104.48,0.00262514,0.146068,20.884,647.041,-0.393741,0.0,0.0
14016,3503.75,33.0356,34.0441,142.398,99.904,105.06,0.00264581,0.146463,20.8832,646.66,-0.447561,0.0,0.0
14048,3511.75,32.8378,34.3616,141.281,99.8502,104.941,0.00280837,0.14736,20.8826,646.27,-0.442305,0.0,0.0
14080,3519.75,32.9747,34.1169,138.875,99.7969,105.358,0.00253181,0.148173,20.8806,645.87,-0.482344,0.0,0.0
14112,3527.75,33.2985,34.4511,143.052,99.7744,104.919,0.00282946,0.147988,20.8803,645.429,-0.447194,0.0,0.0
14144,3535.75,33.18,34.4121,142.773,99.7716,105.136,0.00304398,0.148454,20.8796,645.009,-0.465811,0.0,0.0
14176,3543.75,33.3467,34.8187,145.158,99.7796,104.475,0.00307301,0.149735,20.8781,644.649,-0.409004,0.0,0.0
14208,3551.75,33.8501,34.6356,137.799,99.774,105.035,0.00293438,0.149327,20.8792,644.268,-0.457008,0.0,0.0
14240,3559.75,33.8007,35.0532,144.238,99.7949,105.25,0.00280598,0.151455,20.8777,643.878,-0.473382,0.0,0.0
14272,3567.75,33.2473,34.6402,140.678,99.8498,105.398,0.00297359,0.151662,20.8773,643.447,-0.480999,0.0,0.0
14304,3575.75,34.0018,35.1731,140.794,99.8927,105.251,0.00291283,0.152586,20.8776,643.017,-0.464741,0.0,0.0
14336,3583.75,34.0282,34.9172,141.627,99.9108,104.856,0.00293837,0.153831,20.8755,642.617,-0.429678,0.0,0.0
14368,3591.75,34.4769,34.8583,135.993,99.93,104.736,0.00279271,0.154021,20.876,642.226,-0.417752,0.0,0.0
14400,3599.75,33.9662,35.2695,140.407,99.9529,105.132,0.00296125,0.152593,20.8773,641.776,-0.449324,0.0,0.0
14432,3607.75,32.0853,33.4534,142.98,99.9569,105.104,0.00298327,0.152562,20.8753,641.336,-0.446573,0.0,0.0
14464,3615.75,32.4145,33.353,140.581,99.9381,105.411,0.00288234,0.152987,20.875,640.945,-0.474242,0.0,0.0
14496,3623.75,32.1629,33.5761,141.242,99.9168,105.324,0.00240343,0.155844,20.8734,640.585,-0.468742,0.0,0.0
14528,3631.75,32.6933,33.8208,142.584,99.8787,104.869,0.00240373,0.158308,20.8711,640.174,-0.433678,0.0,0.0
14560,3639.75,33.2097,34.2422,140.418,99.8707,105.305,0.00281671,0.157795,20.8688,639.774,-0.471295,0.0,0.0
14592,3647.75,32.7891,33.93,138.286,99.8795,106.404,0.00270239,0.158262,20.8694,639.344,-0.562795,0.0,0.0
14624,3655.75,32.1651,33.5015,145.006,99.9252,105.323,0.00238873,0.158515,20.8674,638.903,-0.467917,0.0,0.0
14656,3663.75,33.2462,34.5051,140.075,99.9645,104.702,0.00220006,0.160539,20.8669,638.513,-0.411822,0.0,0.0
14688,3671.75,32.9156,34.5873,145.115,100.021,105.237,0.00212465,0.159852,20.8672,638.073,-0.452142,0.0,0.0
14720,3679.75,32.8531,34.3177,137.834,100.099,105.337,0.00242329,0.160556,20.8647,637.632,-0.453648,0.0,0.0
14752,3687.75,33.1643,34.4036,140.215,100.176,105.505,0.00240898,0.159968,20.8674,637.212,-0.460978,0.0,0.0
14784,3695.75,33.623,33.7296,142.857,100.254,105.394,0.00239183,0.16025,20.8672,636.832,-0.444681,0.0,0.0
14816,3703.75,32.8993,34.6565,141.203,100.31,105.885,0.00252068,0.159716,20.8678,636.431,-0.481099,0.0,0.0
14848,3711.75,32.7828,34.2476,138.588,100.356,105.868,0.00255192,0.160555,20.8671,636.021,-0.475609,0.0,0.0
14880,3719.75,33.3941,34.9497,139.333,100.374,105.989,,,,635.59,-0.484081,0.0,0.0
14892,3722.75,32.9826,34.6662,140.252,100.394,105.467,,,,635.45,-0.43841,0.0,0.0