File: 01_Data/Polyester_Carpet_High_Pile/MCC/Polyester_Carpet_High_Pile_MCC_30K_min_211027_R2.txt
Sample ID:	C:\MCC\MCC Cal\Test\Polyester_Carpet_HighPile_MCC_30K_min_211027_R2.txt
Sample Weight (mg):	4.74
Heating Rate (C/s):	0.5
Combustor Temp (C):	900
N2 Flow Rate (cc/min):	80
O2 Flow Rate (cc/min):	20
Calibration File:	C:\MCC\MCC Cal\Coeff1 JN10440_30_210304.txt.txt
T Correction Coefficients:	0	1.024463	0
Time Shift (s):	14
*
Time (s)	Temperature (C)	N2 flow rate (cc/min)	O2 flow rate (cc/min)	Flow Rate (cc/min)	Oxygen (%)	HRR (W/g)	Heating rate (C/s)
0.000	107.841	79.999	19.996	102.970	20.216	-0.023	-0.019
2.000	107.797	79.999	19.994	102.967	20.214	0.113	-0.015
4.000	107.779	79.999	19.996	102.967	20.214	0.127	-0.002
6.000	107.778	79.998	19.994	102.967	20.216	0.000	0.001
8.000	107.798	80.000	19.995	102.988	20.213	0.193	-0.005
10.000	107.800	79.998	19.994	103.000	20.211	0.297	0.017
12.001	107.770	79.999	19.995	103.021	20.207	0.606	0.022
14.000	107.813	80.000	19.994	103.043	20.206	0.676	0.009
16.000	107.844	79.998	19.994	103.049	20.205	0.701	0.015
18.000	107.946	80.000	19.995	103.080	20.197	1.280	0.048
20.000	108.004	80.000	19.994	103.092	20.198	1.225	0.015
22.001	108.116	79.998	19.994	103.138	20.190	1.777	0.070
24.000	108.293	79.998	19.995	103.166	20.186	2.032	0.090
26.000	108.445	79.999	19.995	103.169	20.182	2.259	0.072
28.000	108.636	79.998	19.994	103.147	20.186	2.010	0.111
30.000	108.883	79.997	19.996	103.124	20.186	2.032	0.133
32.000	109.108	79.997	19.996	103.112	20.181	2.326	0.103
34.001	109.393	79.999	19.996	103.140	20.181	2.390	0.156
36.000	109.607	79.998	19.997	103.166	20.179	2.500	0.087
38.000	109.916	80.000	19.995	103.181	20.175	2.757	0.144
40.000	110.237	79.999	19.996	103.192	20.177	2.595	0.178
42.000	110.617	80.000	19.996	103.189	20.181	2.333	0.178
44.000	110.954	80.000	19.996	103.185	20.177	2.608	0.157
46.000	111.359	80.000	19.996	103.180	20.180	2.394	0.198
48.000	111.773	80.000	19.996	103.203	20.176	2.726	0.202
50.001	112.267	79.998	19.995	103.230	20.177	2.642	0.247
52.000	112.714	80.000	19.996	103.199	20.173	2.935	0.226
54.001	113.164	79.999	19.995	103.194	20.170	3.073	0.229
56.000	113.684	79.999	19.995	103.198	20.171	3.022	0.244
58.000	114.231	79.997	19.996	103.206	20.170	3.113	0.269
60.001	114.760	79.999	19.996	103.201	20.165	3.413	0.283
62.000	115.300	79.998	19.996	103.208	20.168	3.218	0.254
64.000	115.925	79.999	19.998	103.216	20.166	3.348	0.313
66.000	116.489	79.999	19.996	103.206	20.170	3.096	0.298
68.000	117.112	79.999	19.996	103.220	20.165	3.417	0.309
70.001	117.769	80.000	19.996	103.232	20.166	3.397	0.319
72.001	118.402	80.001	19.996	103.234	20.169	3.142	0.338
74.001	119.092	80.000	19.996	103.238	20.169	3.206	0.336
76.000	119.785	80.000	19.995	103.239	20.167	3.295	0.387
78.000	120.480	79.999	19.996	103.238	20.165	3.441	0.363
80.000	121.207	79.998	19.995	103.234	20.166	3.350	0.347
82.000	121.977	79.998	19.995	103.234	20.169	3.206	0.377
84.000	122.701	79.998	19.996	103.228	20.172	2.966	0.402
86.001	123.447	79.997	19.994	103.234	20.171	3.068	0.391
88.001	124.208	79.997	19.996	103.239	20.166	3.407	0.370
90.000	125.010	79.997	19.995	103.238	20.168	3.250	0.412
92.000	125.815	79.998	19.995	103.239	20.167	3.295	0.401
94.000	126.603	79.998	19.994	103.244	20.165	3.419	0.401
96.000	127.437	79.998	19.995	103.245	20.170	3.131	0.394
98.000	128.301	79.997	19.996	103.239	20.166	3.409	0.422
100.000	129.144	79.997	19.995	103.238	20.166	3.404	0.433
102.001	129.963	80.000	19.997	103.239	20.165	3.419	0.397
104.002	130.860	79.998	19.997	103.243	20.168	3.236	0.455
106.000	131.708	79.998	19.999	103.243	20.162	3.633	0.403
108.000	132.604	80.000	19.997	103.246	20.167	3.288	0.443
110.000	133.521	79.998	19.996	103.240	20.169	3.140	0.450
112.001	134.402	79.999	19.995	103.255	20.168	3.238	0.448
114.001	135.299	79.997	19.997	103.270	20.167	3.341	0.469
116.001	136.229	79.997	19.996	103.256	20.168	3.217	0.445
118.001	137.148	79.999	19.996	103.246	20.172	2.986	0.441
120.001	138.082	79.998	19.995	103.241	20.165	3.413	0.483
122.000	139.032	79.998	19.996	103.237	20.165	3.470	0.444
124.001	140.034	79.999	19.996	103.236	20.164	3.493	0.517
126.001	141.008	80.000	19.996	103.233	20.168	3.265	0.511
128.000	141.953	79.998	19.996	103.234	20.163	3.568	0.488
130.000	142.927	80.000	19.996	103.239	20.165	3.415	0.486
132.000	143.886	79.999	19.996	103.237	20.168	3.238	0.499
134.000	144.925	79.999	19.996	103.242	20.164	3.489	0.509
136.000	145.891	79.999	19.995	103.245	20.165	3.454	0.522
138.000	146.857	80.000	19.995	103.236	20.165	3.471	0.477
140.000	147.856	80.000	19.995	103.238	20.168	3.248	0.516
142.000	148.885	79.998	19.995	103.240	20.168	3.259	0.478
144.000	149.886	80.000	19.995	103.238	20.169	3.205	0.535
146.000	150.888	80.000	19.995	103.238	20.170	3.130	0.513
148.001	151.869	80.000	19.995	103.232	20.168	3.211	0.498
150.001	152.896	80.000	19.995	103.231	20.170	3.099	0.509
152.000	153.888	80.001	19.996	103.225	20.171	3.031	0.492
154.000	154.894	80.001	19.996	103.213	20.170	3.098	0.506
156.001	155.875	79.998	19.997	103.214	20.170	3.087	0.527
158.000	156.899	79.999	19.997	103.205	20.167	3.318	0.492
160.000	157.883	79.998	19.996	103.206	20.171	3.058	0.448
162.000	158.945	79.999	19.996	103.203	20.172	2.987	0.511
164.000	159.915	79.998	19.997	103.226	20.173	2.883	0.502
166.000	160.940	79.998	19.997	103.237	20.172	2.980	0.537
168.000	161.988	79.999	19.995	103.234	20.175	2.754	0.511
170.000	162.987	79.998	19.995	103.235	20.173	2.896	0.513
172.000	163.992	79.999	19.996	103.222	20.175	2.772	0.531
174.000	165.035	79.998	19.995	103.205	20.175	2.791	0.552
176.000	166.042	79.998	19.995	103.207	20.174	2.830	0.527
178.000	167.093	79.999	19.995	103.207	20.173	2.868	0.507
180.000	168.069	79.999	19.996	103.201	20.172	2.962	0.510
182.000	169.041	79.999	19.995	103.211	20.172	2.951	0.493
184.000	170.088	79.998	19.996	103.210	20.172	2.943	0.504
186.000	171.085	79.999	19.995	103.227	20.176	2.669	0.506
188.000	172.084	79.999	19.996	103.201	20.176	2.703	0.518
190.000	173.096	79.998	19.996	103.194	20.176	2.716	0.502
192.000	174.073	79.998	19.996	103.195	20.175	2.743	0.489
194.000	175.041	79.998	19.995	103.195	20.175	2.768	0.467
196.000	176.058	79.998	19.995	103.193	20.177	2.653	0.492
198.000	177.073	79.998	19.995	103.194	20.177	2.621	0.493
200.000	178.061	79.997	19.996	103.194	20.176	2.716	0.485
202.000	179.074	79.996	19.995	103.199	20.175	2.735	0.532
204.000	180.032	79.998	19.994	103.202	20.174	2.847	0.499
206.000	181.020	79.999	19.995	103.131	20.174	2.851	0.483
208.000	182.029	80.000	19.995	103.245	20.176	2.695	0.497
210.000	182.999	80.001	19.995	103.220	20.178	2.582	0.486
212.000	183.996	79.999	19.994	103.191	20.178	2.550	0.512
214.000	184.984	79.999	19.995	103.191	20.178	2.546	0.483
216.000	185.990	80.000	19.996	103.196	20.178	2.583	0.520
218.000	186.972	79.999	19.995	103.188	20.180	2.454	0.472
220.000	187.959	80.000	19.996	103.199	20.179	2.470	0.475
222.000	188.955	79.998	19.996	103.200	20.178	2.549	0.475
224.000	189.922	79.998	19.995	103.197	20.183	2.225	0.501
226.000	190.898	79.998	19.994	103.188	20.180	2.413	0.493
228.000	191.825	80.000	19.996	103.170	20.183	2.235	0.463
230.001	192.832	80.002	19.996	103.180	20.179	2.479	0.492
232.000	193.838	80.003	19.996	103.189	20.180	2.451	0.483
234.000	194.788	80.002	19.996	103.186	20.180	2.438	0.493
236.000	195.734	80.003	19.995	103.192	20.183	2.248	0.474
238.000	196.695	80.002	19.995	103.189	20.182	2.313	0.457
240.000	197.671	80.002	19.996	103.192	20.183	2.243	0.499
242.000	198.666	80.001	19.995	103.193	20.181	2.343	0.481
244.000	199.615	79.998	19.997	103.195	20.181	2.343	0.510
246.001	200.607	79.998	19.996	103.192	20.184	2.152	0.500
248.000	201.580	79.999	19.996	103.191	20.180	2.443	0.475
250.000	202.518	79.999	19.996	103.187	20.185	2.108	0.474
252.000	203.502	79.998	19.998	103.194	20.182	2.301	0.493
254.000	204.510	80.000	19.996	103.183	20.185	2.051	0.510
256.000	205.407	79.999	19.996	103.189	20.184	2.174	0.450
258.000	206.423	79.999	19.996	103.192	20.184	2.183	0.507
260.000	207.392	80.001	19.996	103.175	20.185	2.115	0.487
262.000	208.371	79.999	19.995	103.173	20.182	2.309	0.499
264.000	209.349	80.000	19.995	103.176	20.180	2.455	0.482
266.000	210.314	80.000	19.995	103.169	20.183	2.235	0.491
268.000	211.274	79.999	19.995	103.172	20.183	2.253	0.465
270.000	212.233	79.999	19.996	103.165	20.182	2.320	0.432
272.000	213.235	80.000	19.996	103.181	20.183	2.196	0.498
274.000	214.213	79.999	19.996	103.197	20.183	2.208	0.466
276.000	215.213	79.997	19.996	103.185	20.178	2.528	0.494
278.000	216.132	79.999	19.996	103.165	20.178	2.562	0.492
280.000	217.104	79.998	19.996	103.164	20.182	2.301	0.493
282.000	218.070	79.998	19.995	103.164	20.183	2.229	0.487
284.000	219.072	79.998	19.995	103.165	20.181	2.367	0.494
286.000	220.006	79.999	19.995	103.176	20.184	2.136	0.486
288.000	221.015	80.000	19.996	103.170	20.187	1.951	0.483
290.000	221.944	80.000	19.994	103.180	20.187	1.983	0.454
292.000	222.997	80.001	19.995	103.164	20.185	2.112	0.508
294.000	223.991	80.001	19.995	103.174	20.185	2.108	0.481
296.000	224.966	80.002	19.994	103.177	20.184	2.155	0.520
298.000	225.951	80.001	19.994	103.189	20.183	2.229	0.500
300.000	226.908	80.000	19.995	103.186	20.188	1.867	0.471
302.000	227.920	79.999	19.996	103.187	20.183	2.231	0.520
304.000	228.938	80.000	19.997	103.175	20.185	2.051	0.490
306.000	229.918	80.001	19.996	103.173	20.186	2.001	0.456
308.000	230.917	79.999	19.995	103.167	20.187	1.983	0.472
310.000	231.912	80.000	19.995	103.172	20.186	2.034	0.495
312.000	232.936	80.000	19.996	103.162	20.187	1.954	0.526
314.000	233.932	80.001	19.996	103.171	20.184	2.123	0.504
316.000	234.909	80.002	19.996	103.163	20.184	2.160	0.472
318.000	235.931	80.002	19.998	103.160	20.186	2.028	0.501
320.000	236.925	80.002	19.996	103.164	20.184	2.172	0.503
322.000	237.945	80.001	19.995	103.155	20.185	2.094	0.489
324.000	238.951	80.001	19.996	103.159	20.186	2.022	0.517
326.000	239.906	79.999	19.995	103.155	20.187	1.982	0.488
328.000	240.911	79.999	19.995	103.156	20.183	2.238	0.482
330.000	241.925	79.999	19.995	103.157	20.186	2.037	0.511
332.000	242.960	80.000	19.996	103.160	20.190	1.759	0.538
334.000	243.925	79.998	19.996	103.161	20.188	1.852	0.505
336.000	244.913	79.999	19.995	103.160	20.188	1.876	0.487
338.000	245.936	79.999	19.996	103.160	20.191	1.702	0.473
340.000	246.949	79.999	19.996	103.159	20.190	1.740	0.516
342.000	247.944	79.999	19.996	103.158	20.185	2.079	0.485
344.000	248.959	79.999	19.996	103.157	20.190	1.757	0.511
346.000	250.021	79.999	19.997	103.157	20.188	1.901	0.514
348.000	250.991	79.998	19.997	103.156	20.187	1.954	0.478
350.000	251.998	79.997	19.997	103.150	20.188	1.892	0.500
352.000	253.010	79.998	19.997	103.151	20.189	1.846	0.504
354.000	253.972	79.999	19.997	103.146	20.188	1.901	0.469
356.000	255.000	79.996	19.995	103.146	20.185	2.054	0.511
358.001	255.967	79.998	19.996	103.137	20.187	1.956	0.501
360.000	256.923	79.997	19.995	103.159	20.186	2.033	0.470
362.000	257.890	79.998	19.995	103.151	20.187	1.935	0.471
364.000	258.854	79.998	19.995	103.152	20.187	1.975	0.487
366.001	259.828	79.999	19.996	103.149	20.185	2.088	0.501
368.000	260.780	79.999	19.996	103.148	20.188	1.878	0.487
370.000	261.745	79.999	19.994	103.144	20.191	1.672	0.490
372.000	262.640	80.000	19.995	103.155	20.189	1.802	0.435
374.000	263.645	79.999	19.996	103.153	20.187	1.982	0.468
376.000	264.578	80.000	19.996	103.149	20.187	1.956	0.466
378.000	265.530	80.000	19.997	103.142	20.184	2.151	0.472
380.000	266.530	80.001	19.996	103.137	20.188	1.869	0.509
382.000	267.544	80.000	19.995	103.145	20.187	1.973	0.497
384.000	268.458	79.999	19.995	103.152	20.188	1.899	0.451
386.000	269.461	80.000	19.996	103.152	20.186	2.007	0.494
388.000	270.451	79.999	19.995	103.151	20.189	1.840	0.481
390.000	271.473	80.000	19.995	103.153	20.186	1.992	0.520
392.000	272.486	80.000	19.995	103.152	20.188	1.890	0.508
394.000	273.435	80.000	19.996	103.146	20.189	1.812	0.479
396.000	274.433	80.001	19.997	103.153	20.189	1.812	0.509
398.000	275.439	80.002	19.995	103.144	20.190	1.755	0.500
400.000	276.392	80.001	19.995	103.144	20.189	1.829	0.478
402.000	277.395	80.002	19.995	103.155	20.187	1.975	0.516
404.000	278.377	80.001	19.995	103.155	20.186	1.986	0.451
406.000	279.398	80.000	19.995	103.139	20.187	1.931	0.493
408.000	280.367	79.999	19.996	103.137	20.185	2.096	0.501
410.000	281.386	79.999	19.995	103.149	20.185	2.117	0.511
412.000	282.332	79.997	19.996	103.159	20.189	1.816	0.492
414.001	283.375	79.998	19.997	103.150	20.183	2.217	0.529
416.000	284.337	79.998	19.996	103.154	20.187	1.920	0.513
418.000	285.297	79.998	19.995	103.150	20.187	1.916	0.437
420.001	286.286	79.998	19.996	103.139	20.190	1.725	0.471
422.001	287.337	79.998	19.996	103.154	20.188	1.867	0.491
424.000	288.355	79.999	19.995	103.160	20.186	2.016	0.503
426.000	289.291	79.999	19.996	103.153	20.189	1.787	0.482
428.000	290.308	79.998	19.995	103.156	20.187	1.971	0.510
430.000	291.345	79.999	19.995	103.153	20.186	1.997	0.564
432.000	292.326	79.999	19.995	103.138	20.183	2.204	0.492
434.000	293.342	79.998	19.997	103.155	20.188	1.880	0.470
436.000	294.322	79.999	19.996	103.156	20.187	1.952	0.523
438.000	295.356	79.997	19.997	103.148	20.189	1.811	0.506
440.000	296.343	79.998	19.996	103.142	20.188	1.855	0.488
442.000	297.352	79.997	19.997	103.144	20.187	1.947	0.517
444.000	298.352	79.998	19.996	103.136	20.188	1.884	0.509
446.000	299.335	79.998	19.996	103.144	20.184	2.166	0.503
448.000	300.348	79.999	19.996	103.128	20.185	2.054	0.531
450.000	301.387	79.999	19.996	103.128	20.182	2.254	0.515
452.000	302.348	80.001	19.996	103.128	20.180	2.400	0.513
454.000	303.302	80.000	19.994	103.074	20.180	2.422	0.478
456.000	304.307	80.000	19.995	103.188	20.176	2.706	0.516
458.000	305.299	80.001	19.995	103.118	20.179	2.482	0.508
460.000	306.290	80.000	19.995	103.119	20.179	2.479	0.512
462.000	307.275	80.000	19.995	103.123	20.184	2.126	0.463
464.000	308.248	80.001	19.995	103.140	20.181	2.382	0.479
466.000	309.212	80.000	19.996	103.171	20.178	2.548	0.483
468.000	310.229	79.999	19.995	103.149	20.177	2.643	0.510
470.000	311.220	80.000	19.995	103.152	20.171	3.016	0.508
472.000	312.230	80.000	19.996	103.157	20.175	2.791	0.506
474.000	313.254	79.999	19.996	103.165	20.176	2.674	0.499
476.000	314.263	80.000	19.995	103.141	20.168	3.259	0.549
478.000	315.302	80.001	19.995	103.123	20.167	3.278	0.494
480.000	316.239	80.000	19.995	103.138	20.165	3.476	0.493
482.000	317.238	80.001	19.995	103.159	20.164	3.522	0.501
484.000	318.283	80.001	19.995	103.163	20.165	3.465	0.474
486.000	319.187	80.000	19.994	103.163	20.162	3.616	0.486
488.000	320.175	80.000	19.995	103.160	20.159	3.849	0.410
490.000	321.033	79.998	19.996	103.159	20.156	4.069	0.312
492.000	322.371	79.999	19.995	103.158	20.154	4.169	0.585
494.000	323.286	80.000	19.996	103.156	20.150	4.440	0.506
496.000	324.276	79.998	19.996	103.152	20.148	4.628	0.525
498.000	325.228	79.999	19.996	103.141	20.146	4.741	0.500
500.000	326.315	79.998	19.996	103.144	20.141	5.055	0.550
502.000	327.295	79.999	19.995	103.156	20.138	5.302	0.514
504.000	328.320	79.998	19.996	103.153	20.135	5.497	0.542
506.000	329.303	79.999	19.996	103.156	20.128	5.961	0.493
508.000	330.335	79.999	19.996	103.158	20.131	5.771	0.505
510.000	331.377	79.998	19.996	103.156	20.126	6.118	0.528
512.000	332.351	79.999	19.996	103.157	20.119	6.582	0.511
514.000	333.431	79.997	19.995	103.156	20.112	7.015	0.520
516.000	334.428	79.997	19.995	103.157	20.112	7.053	0.485
518.000	335.443	79.999	19.995	103.157	20.106	7.415	0.496
520.000	336.484	79.997	19.996	103.157	20.100	7.837	0.493
522.000	337.485	79.998	19.996	103.157	20.097	8.082	0.475
524.000	338.539	79.997	19.996	103.157	20.092	8.405	0.511
526.000	339.517	79.997	19.996	103.159	20.087	8.733	0.517
528.000	340.573	79.997	19.996	103.161	20.080	9.211	0.503
530.000	341.611	79.996	19.997	103.161	20.082	9.046	0.502
532.000	342.586	79.998	19.997	103.165	20.075	9.578	0.508
534.000	343.606	79.999	19.996	103.161	20.068	10.037	0.495
536.000	344.597	79.999	19.997	103.160	20.068	10.014	0.493
538.001	345.616	79.999	19.996	103.171	20.061	10.491	0.471
540.001	346.612	80.000	19.996	103.171	20.059	10.674	0.480
542.001	347.632	80.000	19.995	103.172	20.054	11.011	0.513
544.001	348.661	79.999	19.996	103.168	20.050	11.278	0.503
546.000	349.709	79.999	19.995	103.182	20.045	11.563	0.545
548.000	350.667	79.999	19.996	103.173	20.041	11.836	0.482
550.001	351.671	79.999	19.994	103.171	20.037	12.116	0.474
552.000	352.689	79.998	19.996	103.166	20.034	12.343	0.520
554.000	353.705	79.999	19.997	103.165	20.032	12.462	0.491
556.000	354.709	79.999	19.996	103.160	20.026	12.904	0.519
558.000	355.692	80.000	19.995	103.158	20.024	13.048	0.516
560.000	356.670	80.002	19.996	103.156	20.022	13.150	0.473
562.000	357.678	80.000	19.995	103.158	20.022	13.158	0.505
564.000	358.651	80.001	19.995	103.156	20.022	13.137	0.471
566.000	359.666	80.000	19.995	103.162	20.015	13.603	0.483
568.000	360.671	80.000	19.995	103.163	20.013	13.772	0.543
570.000	361.668	80.001	19.994	103.178	20.013	13.792	0.498
572.000	362.677	79.999	19.996	103.173	20.008	14.115	0.503
574.000	363.651	79.998	19.996	103.169	20.005	14.326	0.498
576.000	364.646	79.999	19.996	103.113	20.003	14.413	0.488
578.000	365.649	79.998	19.995	103.134	20.004	14.365	0.503
580.000	366.661	80.001	19.996	103.239	20.001	14.562	0.500
582.000	367.642	79.999	19.996	103.185	19.998	14.806	0.512
584.000	368.633	79.999	19.995	103.162	19.998	14.810	0.519
586.000	369.630	80.000	19.996	103.161	19.992	15.187	0.506
588.000	370.619	79.999	19.996	103.157	19.994	15.044	0.472
590.001	371.635	79.999	19.996	103.158	19.990	15.346	0.497
592.000	372.644	79.998	19.995	103.155	19.983	15.818	0.498
594.000	373.691	79.997	19.995	103.159	19.980	16.000	0.533
596.000	374.702	79.999	19.996	103.176	19.980	16.026	0.492
598.000	375.710	79.999	19.996	103.174	19.979	16.095	0.526
600.000	376.681	79.998	19.997	103.177	19.974	16.444	0.492
602.000	377.705	79.998	19.996	103.181	19.975	16.332	0.493
604.000	378.689	79.997	19.996	103.193	19.970	16.664	0.498
606.000	379.730	79.997	19.996	103.198	19.972	16.564	0.526
608.000	380.751	79.998	19.996	103.190	19.968	16.797	0.497
610.000	381.742	79.997	19.996	103.192	19.964	17.076	0.505
612.000	382.771	79.999	19.996	103.192	19.961	17.275	0.520
614.000	383.749	79.999	19.995	103.184	19.958	17.468	0.517
616.000	384.820	79.998	19.997	103.164	19.953	17.843	0.513
618.000	385.783	79.999	19.996	103.159	19.947	18.259	0.475
620.000	386.820	80.001	19.997	103.173	19.943	18.544	0.503
622.000	387.764	80.000	19.998	103.178	19.939	18.782	0.489
624.000	388.849	80.000	19.997	103.158	19.937	18.921	0.518
626.001	389.849	79.998	19.996	103.180	19.930	19.380	0.515
628.000	390.836	79.999	19.997	103.184	19.924	19.797	0.486
630.000	391.851	80.000	19.997	103.179	19.924	19.779	0.536
632.000	392.816	79.999	19.996	103.174	19.918	20.208	0.479
634.000	393.873	80.000	19.996	103.166	19.910	20.755	0.482
636.000	394.901	80.001	19.995	103.185	19.906	21.016	0.512
638.000	395.903	80.001	19.996	103.190	19.896	21.751	0.524
640.000	396.920	80.001	19.996	103.183	19.888	22.235	0.528
642.000	397.930	80.001	19.995	103.194	19.884	22.512	0.494
644.000	398.997	80.001	19.996	103.192	19.881	22.737	0.509
646.000	400.000	80.002	19.995	103.196	19.867	23.711	0.533
648.000	400.999	80.002	19.995	103.204	19.863	23.943	0.515
650.000	402.000	80.000	19.996	103.223	19.858	24.298	0.510
652.000	402.992	80.001	19.997	103.231	19.845	25.206	0.476
654.000	404.036	79.999	19.996	103.217	19.839	25.615	0.495
656.000	405.054	79.999	19.996	103.188	19.823	26.662	0.503
658.000	406.089	80.000	19.996	103.180	19.810	27.557	0.517
660.000	407.047	79.999	19.996	103.198	19.803	28.039	0.483
662.000	408.079	79.998	19.996	103.223	19.789	28.998	0.497
664.000	409.018	79.999	19.996	103.232	19.774	29.992	0.506
666.000	410.038	79.999	19.996	103.231	19.763	30.734	0.519
668.000	411.047	79.999	19.996	103.237	19.751	31.565	0.492
670.000	412.042	79.999	19.996	103.245	19.739	32.376	0.476
672.000	413.041	79.999	19.994	103.240	19.723	33.489	0.495
674.000	414.034	79.999	19.995	103.238	19.706	34.645	0.504
676.000	415.028	80.000	19.995	103.238	19.688	35.828	0.499
678.000	416.061	79.999	19.995	103.239	19.667	37.284	0.527
680.000	417.085	80.000	19.996	103.236	19.646	38.698	0.498
682.000	418.125	79.999	19.995	103.239	19.632	39.657	0.533
684.000	419.150	79.999	19.995	103.243	19.616	40.734	0.532
686.000	420.190	79.999	19.996	103.250	19.590	42.492	0.535
688.001	421.263	79.998	19.997	103.242	19.572	43.768	0.526
690.000	422.277	79.998	19.996	103.244	19.554	44.963	0.526
692.001	423.297	79.998	19.996	103.261	19.530	46.631	0.532
694.000	424.317	79.999	19.996	103.269	19.509	48.070	0.494
696.001	425.391	79.999	19.996	103.244	19.489	49.383	0.535
698.000	426.458	79.999	19.996	103.249	19.466	50.993	0.584
700.000	427.488	80.000	19.996	103.273	19.444	52.485	0.505
702.001	428.497	80.001	19.996	103.274	19.428	53.517	0.509
704.000	429.573	80.000	19.994	103.273	19.406	55.022	0.515
706.000	430.608	80.001	19.996	103.282	19.387	56.310	0.507
708.001	431.663	80.000	19.997	103.307	19.366	57.767	0.544
710.000	432.671	80.000	19.997	103.298	19.350	58.874	0.494
712.000	433.713	79.998	19.997	103.291	19.331	60.156	0.527
714.000	434.769	79.999	19.998	103.283	19.311	61.497	0.517
716.001	435.793	80.000	19.998	103.278	19.298	62.434	0.494
718.000	436.841	80.000	19.997	103.282	19.280	63.584	0.531
720.000	437.859	79.999	19.997	103.304	19.272	64.140	0.524
722.000	438.892	80.000	19.996	103.297	19.261	64.882	0.529
724.000	439.865	80.001	19.996	103.307	19.256	65.231	0.497
726.000	440.901	80.001	19.995	103.312	19.256	65.247	0.499
728.001	441.918	80.003	19.995	103.303	19.250	65.646	0.516
730.000	442.883	80.001	19.996	103.273	19.256	65.195	0.486
732.000	443.915	80.001	19.994	103.275	19.264	64.669	0.495
734.000	444.902	80.002	19.995	103.274	19.275	63.941	0.509
736.000	445.938	80.000	19.996	103.258	19.294	62.627	0.499
738.000	446.934	79.999	19.994	103.242	19.314	61.281	0.532
740.001	447.948	79.998	19.995	103.239	19.340	59.459	0.538
742.001	448.917	79.998	19.996	103.239	19.367	57.661	0.506
744.000	449.933	79.999	19.995	103.232	19.393	55.897	0.499
746.000	450.945	79.997	19.995	103.230	19.424	53.733	0.479
748.000	451.933	79.999	19.996	103.209	19.456	51.580	0.509
750.000	452.905	79.999	19.996	103.199	19.486	49.544	0.493
752.000	453.898	79.999	19.995	103.195	19.514	47.668	0.508
754.000	454.891	80.000	19.995	103.179	19.544	45.620	0.496
756.000	455.864	80.000	19.996	103.164	19.573	43.598	0.479
758.001	456.836	80.000	19.995	103.168	19.602	41.671	0.496
760.000	457.810	80.000	19.997	103.154	19.624	40.145	0.491
762.000	458.814	80.000	19.995	103.156	19.642	38.943	0.496
764.000	459.769	80.000	19.996	103.149	19.658	37.869	0.473
766.000	460.783	79.999	19.995	103.132	19.663	37.500	0.469
768.000	461.767	80.000	19.996	103.120	19.666	37.327	0.498
770.000	462.724	79.999	19.996	103.117	19.668	37.138	0.483
772.000	463.729	79.999	19.994	103.120	19.666	37.306	0.471
774.000	464.717	79.999	19.996	103.118	19.657	37.882	0.509
776.000	465.685	79.998	19.996	103.102	19.650	38.359	0.493
778.000	466.667	79.999	19.995	103.082	19.638	39.187	0.495
780.000	467.657	80.000	19.996	103.074	19.624	40.110	0.528
782.000	468.628	80.001	19.997	103.071	19.606	41.355	0.453
784.000	469.639	80.000	19.996	103.076	19.590	42.467	0.498
786.000	470.634	80.000	19.996	103.075	19.573	43.568	0.517
788.000	471.588	80.000	19.996	103.075	19.558	44.590	0.507
790.001	472.613	80.000	19.996	103.073	19.543	45.621	0.516
792.000	473.659	79.999	19.996	103.064	19.527	46.722	0.523
794.000	474.623	79.999	19.996	103.057	19.515	47.546	0.479
796.000	475.642	79.999	19.996	103.041	19.506	48.128	0.492
798.000	476.626	79.999	19.996	103.042	19.502	48.376	0.496
800.000	477.632	80.002	19.995	103.041	19.504	48.267	0.476
802.000	478.655	80.002	19.996	103.037	19.512	47.702	0.476
804.000	479.688	80.001	19.996	103.021	19.531	46.403	0.521
806.000	480.679	80.001	19.996	103.015	19.566	44.046	0.487
808.000	481.680	80.001	19.995	103.002	19.609	41.149	0.520
810.000	482.669	79.999	19.996	103.003	19.657	37.916	0.483
812.000	483.740	80.001	19.997	103.004	19.712	34.153	0.533
814.001	484.689	79.999	19.996	103.016	19.772	30.110	0.486
816.001	485.714	80.000	19.996	103.026	19.825	26.483	0.497
818.000	486.755	79.999	19.996	103.032	19.878	22.919	0.501
820.000	487.797	79.999	19.997	103.039	19.929	19.430	0.504
822.000	488.796	79.998	19.996	103.041	19.975	16.313	0.518
824.000	489.805	80.002	19.996	103.049	20.010	13.950	0.519
826.000	490.844	79.999	19.995	103.059	20.047	11.471	0.515
828.000	491.849	79.999	19.996	103.070	20.077	9.411	0.515
830.000	492.894	79.998	19.996	103.081	20.101	7.814	0.512
832.000	493.896	80.002	19.996	103.088	20.119	6.583	0.502
834.000	494.964	80.000	19.996	103.089	20.131	5.761	0.510
836.000	496.018	80.000	19.995	103.080	20.141	5.057	0.511
838.000	497.005	79.999	19.996	103.084	20.150	4.451	0.507
840.000	498.044	79.999	19.996	103.085	20.157	4.016	0.506
842.000	499.057	79.999	19.996	103.089	20.163	3.563	0.513
844.000	500.096	80.000	19.995	103.109	20.165	3.414	0.514
846.000	501.137	80.000	19.996	103.102	20.168	3.261	0.508
848.000	502.122	80.001	19.996	103.106	20.168	3.268	0.517
850.000	503.134	80.000	19.996	103.096	20.169	3.151	0.512
852.000	504.146	80.000	19.994	103.106	20.172	2.970	0.488
854.000	505.178	79.998	19.995	103.102	20.173	2.909	0.513
856.000	506.183	80.000	19.995	103.113	20.175	2.763	0.499
858.000	507.204	80.000	19.995	103.097	20.172	2.962	0.508
860.000	508.218	80.000	19.994	103.094	20.171	3.061	0.492
862.000	509.228	80.000	19.995	103.105	20.173	2.896	0.516
864.000	510.232	80.001	19.996	103.117	20.174	2.852	0.507
866.000	511.254	80.002	19.995	103.116	20.172	2.947	0.529
868.000	512.283	80.001	19.995	103.114	20.175	2.754	0.508
870.000	513.329	80.000	19.996	103.113	20.172	2.988	0.537
872.000	514.338	80.001	19.996	103.121	20.173	2.915	0.525
874.000	515.410	80.000	19.995	103.113	20.173	2.884	0.531
876.000	516.413	80.001	19.995	103.119	20.177	2.642	0.522
878.000	517.404	80.000	19.997	103.114	20.176	2.716	0.512
880.000	518.436	80.001	19.996	103.111	20.173	2.915	0.521
882.000	519.447	80.001	19.996	103.113	20.175	2.792	0.506
884.000	520.471	80.002	19.997	103.116	20.171	3.024	0.513
886.000	521.538	80.000	19.996	103.114	20.174	2.816	0.498
888.000	522.529	80.003	19.996	103.103	20.177	2.617	0.515
890.000	523.582	80.005	19.996	103.112	20.176	2.699	0.526
892.000	524.623	80.003	19.996	103.110	20.173	2.890	0.528
894.000	525.634	80.002	19.997	103.113	20.177	2.648	0.492
896.000	526.647	80.004	19.995	103.107	20.173	2.899	0.513
898.000	527.687	80.000	19.995	103.111	20.179	2.519	0.528
900.000	528.702	80.001	19.996	103.106	20.176	2.669	0.523
902.000	529.742	80.000	19.997	103.108	20.178	2.589	0.525
904.000	530.798	79.999	19.996	103.112	20.181	2.351	0.526
906.000	531.851	79.999	19.997	103.106	20.180	2.442	0.493
908.000	532.873	79.998	19.998	103.112	20.182	2.262	0.517
910.000	533.933	80.001	19.997	103.116	20.181	2.360	0.490
912.000	535.004	79.999	19.997	103.116	20.181	2.377	0.520
914.000	536.044	79.998	19.996	103.113	20.183	2.246	0.509
916.000	537.063	80.001	19.996	103.115	20.187	1.981	0.516
918.000	538.118	80.000	19.995	103.116	20.184	2.176	0.523
920.000	539.144	79.998	19.995	103.117	20.183	2.233	0.534
922.000	540.164	79.999	19.994	103.105	20.181	2.385	0.510
924.000	541.145	80.000	19.995	103.106	20.180	2.417	0.497
926.000	542.202	80.000	19.995	103.091	20.178	2.543	0.493
928.000	543.184	80.001	19.994	103.087	20.176	2.663	0.500
930.000	544.185	80.000	19.995	103.097	20.179	2.468	0.485
932.000	545.194	80.000	19.995	103.105	20.175	2.739	0.534
934.000	546.165	79.998	19.995	103.108	20.177	2.648	0.484
936.000	547.145	80.000	19.995	103.100	20.177	2.654	0.483
938.000	548.134	79.998	19.997	103.112	20.177	2.620	0.513
940.000	549.147	80.000	19.996	103.123	20.175	2.784	0.456
942.000	550.172	80.001	19.994	103.123	20.177	2.604	0.489
944.000	551.192	80.001	19.995	103.120	20.176	2.703	0.493
946.000	552.277	80.000	19.995	103.121	20.172	2.945	0.541
948.001	553.308	80.004	19.995	103.122	20.175	2.739	0.538
950.000	554.368	80.001	19.995	103.121	20.171	3.045	0.553
952.000	555.475	80.002	19.996	103.115	20.169	3.166	0.536
954.000	556.521	80.000	19.995	103.116	20.169	3.144	0.512
956.000	557.630	79.999	19.996	103.103	20.167	3.299	0.543
958.000	558.766	80.001	19.995	103.112	20.166	3.343	0.573
960.000	559.836	80.000	19.995	103.117	20.166	3.378	0.551
962.000	560.907	80.002	19.996	103.116	20.163	3.595	0.535
964.000	562.024	80.000	19.996	103.118	20.157	3.952	0.581
966.000	563.077	80.002	19.995	103.119	20.154	4.206	0.541
968.000	564.229	80.000	19.995	103.117	20.153	4.257	0.558
970.000	565.322	80.002	19.995	103.116	20.151	4.402	0.557
972.000	566.402	80.001	19.998	103.126	20.148	4.567	0.531
974.000	567.534	80.004	19.996	103.125	20.145	4.806	0.568
976.000	568.597	80.001	19.996	103.122	20.142	5.007	0.537
978.000	569.684	80.001	19.995	103.116	20.134	5.522	0.506
980.000	570.773	80.001	19.996	103.119	20.132	5.690	0.561
982.000	571.873	79.999	19.996	103.117	20.125	6.134	0.554
984.000	572.987	79.999	19.996	103.126	20.118	6.617	0.525
986.000	574.115	80.000	19.996	103.139	20.109	7.272	0.553
988.000	575.232	79.998	19.995	103.136	20.104	7.587	0.568
990.000	576.351	79.999	19.996	103.123	20.095	8.220	0.566
992.000	577.418	79.998	19.996	103.122	20.087	8.751	0.533
994.000	578.514	79.998	19.995	103.119	20.077	9.425	0.568
996.001	579.574	80.000	19.997	103.123	20.070	9.888	0.562
998.000	580.651	79.997	19.998	103.133	20.061	10.527	0.528
1000.000	581.726	79.999	19.997	103.137	20.047	11.439	0.536
1002.000	582.838	80.000	19.996	103.155	20.034	12.358	0.551
1004.000	583.883	79.997	19.996	103.150	20.022	13.143	0.509
1006.000	584.923	80.000	19.995	103.158	20.014	13.686	0.505
1008.000	586.018	79.999	19.996	103.157	20.001	14.596	0.528
1010.000	587.101	79.999	19.996	103.158	19.992	15.205	0.537
1012.000	588.130	80.000	19.996	103.162	19.981	15.962	0.525
1014.000	589.195	80.000	19.996	103.172	19.972	16.560	0.518
1016.000	590.229	80.000	19.995	103.160	19.957	17.576	0.530
1018.000	591.283	79.997	19.995	103.166	19.948	18.213	0.488
1020.000	592.354	79.999	19.995	103.164	19.936	18.974	0.535
1022.000	593.452	79.998	19.996	103.167	19.924	19.790	0.548
1024.000	594.490	79.999	19.995	103.178	19.913	20.584	0.505
1026.000	595.611	80.000	19.996	103.179	19.907	20.956	0.525
1028.001	596.626	80.002	19.995	103.189	19.899	21.528	0.504
1030.000	597.650	80.000	19.994	103.189	19.891	22.043	0.507
1032.000	598.713	80.000	19.994	103.192	19.880	22.803	0.544
1034.000	599.750	80.000	19.995	103.194	19.875	23.118	0.508
1036.000	600.779	80.002	19.996	103.188	19.867	23.652	0.503
1038.000	601.841	80.002	19.995	103.187	19.862	24.015	0.510
1040.000	602.894	79.999	19.996	103.192	19.853	24.643	0.527
1042.000	603.921	80.003	19.994	103.193	19.847	25.051	0.503
1044.000	604.939	80.000	19.996	103.194	19.848	24.975	0.508
1046.001	606.038	80.002	19.995	103.195	19.845	25.156	0.534
1048.000	607.035	80.001	19.996	103.193	19.841	25.467	0.510
1050.000	608.079	80.001	19.995	103.212	19.850	24.828	0.522
1052.000	609.084	80.003	19.995	103.224	19.848	25.003	0.488
1054.001	610.105	80.003	19.995	103.199	19.855	24.495	0.499
1056.001	611.124	80.002	19.995	103.200	19.860	24.152	0.496
1058.001	612.147	80.001	19.995	103.200	19.873	23.238	0.513
1060.001	613.212	80.002	19.996	103.195	19.889	22.204	0.546
1062.001	614.210	79.998	19.995	103.188	19.901	21.337	0.485
1064.000	615.300	80.000	19.997	103.180	19.925	19.742	0.530
1066.000	616.303	79.999	19.998	103.164	19.948	18.154	0.502
1068.000	617.334	79.999	19.996	103.168	19.971	16.608	0.512
1070.000	618.322	79.998	19.997	103.159	20.004	14.378	0.488
1072.000	619.315	80.000	19.996	103.151	20.033	12.367	0.510
1074.000	620.358	79.999	19.996	103.127	20.065	10.202	0.513
1076.000	621.348	79.999	19.995	103.135	20.094	8.267	0.492
1078.000	622.375	79.999	19.996	103.145	20.114	6.876	0.503
1080.000	623.382	80.001	19.995	103.132	20.132	5.674	0.499
1082.000	624.380	79.998	19.996	103.118	20.144	4.858	0.500
1084.000	625.416	79.999	19.996	103.118	20.155	4.117	0.525
1086.000	626.412	80.000	19.997	103.117	20.162	3.644	0.504
1088.000	627.410	79.999	19.997	103.120	20.166	3.382	0.485
1090.000	628.404	79.999	19.996	103.117	20.171	3.066	0.486
1092.000	629.440	79.998	19.996	103.117	20.167	3.286	0.503
1094.000	630.472	79.999	19.996	103.099	20.174	2.852	0.535
1096.000	631.462	80.000	19.997	103.085	20.172	2.935	0.478
1098.000	632.475	79.999	19.997	103.089	20.173	2.873	0.502
1100.000	633.482	79.999	19.997	103.104	20.177	2.629	0.501
1102.000	634.499	79.998	19.997	103.116	20.175	2.742	0.515
1104.000	635.518	80.000	19.996	103.118	20.181	2.373	0.501
1106.000	636.569	80.000	19.996	103.102	20.173	2.886	0.511
1108.000	637.542	80.001	19.995	103.092	20.179	2.521	0.490
1110.000	638.551	80.002	19.995	103.113	20.178	2.579	0.464
1112.000	639.616	80.001	19.995	103.114	20.175	2.773	0.505
1114.000	640.579	80.001	19.995	103.104	20.177	2.640	0.513
1116.000	641.610	80.001	19.995	103.110	20.178	2.565	0.518
1118.000	642.606	80.001	19.997	103.120	20.174	2.805	0.492
1120.000	643.600	80.000	19.995	103.124	20.172	2.938	0.458
1122.000	644.643	80.000	19.995	103.058	20.170	3.074	0.518
1124.000	645.577	80.000	19.996	103.099	20.172	2.995	0.454
1126.000	646.632	79.999	19.995	103.160	20.178	2.575	0.525
1128.000	647.677	80.000	19.994	103.192	20.175	2.796	0.538
1130.000	648.634	80.000	19.997	103.126	20.174	2.807	0.465
1132.000	649.624	80.001	19.995	103.124	20.174	2.832	0.482
1134.000	650.633	80.000	19.995	103.125	20.175	2.758	0.505
1136.000	651.661	80.003	19.995	103.137	20.173	2.891	0.493
1138.001	652.661	80.003	19.995	103.144	20.167	3.304	0.520
1140.001	653.688	80.002	19.994	103.131	20.168	3.217	0.544
1142.001	654.674	80.001	19.994	103.120	20.174	2.829	0.489
1144.000	655.683	80.001	19.996	103.125	20.172	2.997	0.530
1146.000	656.698	80.001	19.995	103.148	20.169	3.202	0.497
1148.000	657.671	80.001	19.996	103.154	20.171	3.039	0.513
1150.000	658.704	80.000	19.996	103.155	20.168	3.236	0.514
1152.000	659.690	79.998	19.995	103.155	20.171	3.052	0.492
1154.000	660.673	79.999	19.996	103.157	20.165	3.421	0.485
1156.001	661.692	80.000	19.997	103.157	20.170	3.118	0.490
1158.002	662.672	80.000	19.996	103.157	20.171	3.067	0.488
1160.000	663.661	80.000	19.996	103.153	20.169	3.171	0.502
1162.000	664.669	80.000	19.996	103.151	20.166	3.379	0.504
1164.000	665.668	79.999	19.996	103.154	20.165	3.454	0.486
1166.000	666.639	80.000	19.997	103.153	20.161	3.686	0.485
1168.000	667.607	79.999	19.996	103.156	20.163	3.590	0.516
1170.000	668.614	80.001	19.998	103.156	20.161	3.737	0.484
1172.001	669.567	80.000	19.997	103.132	20.161	3.733	0.469
1174.000	670.580	80.000	19.996	103.156	20.159	3.826	0.462
1176.000	671.594	79.999	19.996	103.228	20.162	3.628	0.512
1178.000	672.528	79.999	19.997	103.199	20.167	3.318	0.480
1180.000	673.529	79.998	19.995	103.198	20.164	3.515	0.519
1182.000	674.484	79.998	19.997	103.199	20.162	3.617	0.468
1184.000	675.486	79.998	19.996	103.195	20.157	3.968	0.517
1186.000	676.432	79.999	19.997	103.175	20.159	3.822	0.468
1188.000	677.381	79.999	19.998	103.167	20.157	3.999	0.466
1190.000	678.351	80.000	19.996	103.171	20.157	3.970	0.497
1192.001	679.338	80.000	19.996	103.197	20.160	3.766	0.521
1194.000	680.297	80.001	19.996	103.246	20.157	3.965	0.474
1196.000	681.286	80.000	19.996	103.232	20.157	3.986	0.460
1198.000	682.231	80.001	19.995	103.223	20.153	4.287	0.468
1200.001	683.236	80.000	19.995	103.207	20.149	4.524	0.529
1202.001	684.155	80.001	19.995	103.187	20.152	4.352	0.503
1204.000	685.133	80.001	19.995	103.201	20.149	4.555	0.479
1206.000	686.033	80.001	19.996	103.203	20.151	4.393	0.477
1208.000	687.041	80.000	19.996	103.229	20.150	4.447	0.475
1210.001	688.012	80.002	19.997	103.253	20.149	4.553	0.484
1212.001	689.010	80.002	19.996	103.261	20.150	4.468	0.497
1214.000	689.929	80.003	19.996	103.266	20.148	4.579	0.481
1216.000	690.944	80.003	19.995	103.253	20.149	4.519	0.508
1218.000	691.910	80.003	19.995	103.239	20.146	4.741	0.501
1220.000	692.930	80.005	19.996	103.232	20.147	4.682	0.528
1222.001	693.873	80.003	19.995	103.236	20.146	4.723	0.480
1224.000	694.896	80.002	19.995	103.247	20.145	4.814	0.484
1226.000	695.848	80.002	19.995	103.266	20.143	4.911	0.495
1228.000	696.873	80.001	19.996	103.271	20.145	4.777	0.504
1230.001	697.869	80.001	19.995	103.270	20.145	4.809	0.495
1232.001	698.820	80.000	19.996	103.272	20.144	4.897	0.481
1234.001	699.819	80.001	19.995	103.266	20.144	4.895	0.478
1236.000	700.833	80.000	19.996	103.275	20.140	5.128	0.529
1238.000	701.840	80.000	19.995	103.273	20.137	5.374	0.480
1240.000	702.806	80.000	19.996	103.277	20.139	5.224	0.496
1242.000	703.820	80.001	19.996	103.275	20.138	5.279	0.501
1244.000	704.824	80.002	19.996	103.282	20.135	5.509	0.515
1246.000	705.800	80.000	19.996	103.278	20.134	5.529	0.470
1248.001	706.771	80.001	19.996	103.278	20.130	5.836	0.479
1250.001	707.775	80.000	19.996	103.278	20.130	5.843	0.504
1252.000	708.705	80.000	19.996	103.277	20.131	5.768	0.483
1254.000	709.634	80.000	19.997	103.276	20.126	6.112	0.477
1256.000	710.654	79.999	19.997	103.293	20.127	6.045	0.473
1258.000	711.683	79.999	19.997	103.317	20.126	6.132	0.511
1260.000	712.685	80.000	19.996	103.330	20.124	6.248	0.529
1262.001	713.759	79.999	19.996	103.331	20.123	6.274	0.492
1264.000	714.824	80.000	19.996	103.345	20.125	6.199	0.540
1266.000	715.901	80.000	19.996	103.343	20.122	6.349	0.543
1268.001	716.983	80.000	19.995	103.330	20.126	6.069	0.538
1270.000	718.116	80.001	19.996	103.323	20.120	6.495	0.548
1272.000	719.230	80.000	19.997	103.319	20.123	6.330	0.552
1274.000	720.336	80.000	19.996	103.339	20.123	6.322	0.561
1276.000	721.487	80.000	19.996	103.328	20.120	6.495	0.565
1278.000	722.559	80.002	19.996	103.322	20.122	6.381	0.506
1280.000	723.747	80.002	19.996	103.325	20.124	6.237	0.592
1282.000	724.909	80.001	19.996	103.316	20.120	6.487	0.604
1284.000	725.994	80.000	19.996	103.313	20.119	6.541	0.573
1286.000	727.122	80.000	19.996	103.315	20.120	6.504	0.578
1288.000	728.228	80.001	19.997	103.313	20.118	6.629	0.558
1290.000	729.428	80.001	19.996	103.313	20.123	6.284	0.601
1292.000	730.495	80.003	19.995	103.305	20.119	6.594	0.514
1294.001	731.630	80.001	19.996	103.296	20.122	6.388	0.639
1296.000	732.744	80.004	19.995	103.290	20.124	6.249	0.545
1298.000	733.849	80.004	19.995	103.273	20.129	5.917	0.536
1300.000	734.976	80.003	19.996	103.262	20.125	6.161	0.576
1302.000	736.052	80.003	19.996	103.235	20.129	5.867	0.540
1304.000	737.169	80.002	19.996	103.218	20.134	5.544	0.523
1306.000	738.234	80.001	19.995	103.199	20.140	5.162	0.506
1308.000	739.436	80.000	19.995	103.194	20.141	5.045	0.582
1310.000	740.532	80.000	19.996	103.184	20.150	4.433	0.537
1312.000	741.670	80.001	19.996	103.180	20.155	4.136	0.579
1314.000	742.783	80.000	19.995	103.163	20.164	3.533	0.538
1314.500	743.069	80.000	19.995	103.156	20.160	3.747	0.603