File: 01_Data/Polyester_Carpet_High_Pile/MCC/Polyester_Carpet_High_Pile_MCC_30K_min_211027_R3.txt
Sample ID:	C:\MCC\MCC Cal\Test\Polyester_Carpet_HighPile_MCC_30K_min_211027_R3.txt
Sample Weight (mg):	4.74
Heating Rate (C/s):	0.5
Combustor Temp (C):	900
N2 Flow Rate (cc/min):	80
O2 Flow Rate (cc/min):	20
Calibration File:	C:\MCC\MCC Cal\Coeff1 JN10440_30_210304.txt.txt
T Correction Coefficients:	0	1.024463	0
Time Shift (s):	14
*
Time (s)	Temperature (C)	N2 flow rate (cc/min)	O2 flow rate (cc/min)	Flow Rate (cc/min)	Oxygen (%)	HRR (W/g)	Heating rate (C/s)
0.000	108.184	79.998	19.995	102.997	20.260	-0.335	-0.019
1.999	108.189	79.998	19.995	103.004	20.261	-0.424	-0.027
4.000	108.203	79.999	19.996	103.004	20.260	-0.384	-0.014
6.000	108.213	79.997	19.996	103.006	20.261	-0.452	0.019
8.000	108.224	79.999	19.994	103.005	20.260	-0.327	-0.027
10.000	108.189	80.000	19.996	103.009	20.261	-0.461	-0.027
12.001	108.191	79.999	19.997	103.014	20.262	-0.486	0.012
14.000	108.244	80.000	19.996	103.037	20.261	-0.448	0.037
16.000	108.234	80.000	19.996	103.030	20.258	-0.223	0.024
18.000	108.249	80.000	19.996	103.023	20.258	-0.203	0.010
20.000	108.259	79.999	19.996	103.026	20.255	-0.053	-0.017
22.000	108.342	79.999	19.996	103.043	20.249	0.375	0.054
24.000	108.371	80.000	19.997	103.037	20.251	0.261	0.005
26.000	108.388	79.999	19.996	103.052	20.248	0.456	0.006
28.000	108.452	79.999	19.994	103.098	20.244	0.695	0.025
30.000	108.548	79.999	19.996	103.123	20.242	0.864	0.030
32.001	108.657	79.999	19.996	103.140	20.238	1.100	0.044
33.999	108.836	80.001	19.995	103.169	20.234	1.437	0.073
35.999	108.983	80.002	19.996	103.173	20.232	1.539	0.072
37.999	109.195	80.001	19.996	103.208	20.230	1.644	0.107
39.999	109.463	80.003	19.996	103.206	20.227	1.875	0.134
41.999	109.691	80.002	19.996	103.184	20.224	2.108	0.115
43.999	109.987	80.003	19.997	103.158	20.224	2.065	0.133
46.000	110.287	80.002	19.997	103.158	20.225	2.042	0.137
47.999	110.562	80.001	19.996	103.170	20.224	2.082	0.127
49.999	110.959	80.001	19.996	103.183	20.225	2.023	0.188
51.999	111.324	80.000	19.996	103.194	20.223	2.120	0.159
53.999	111.744	79.999	19.995	103.193	20.223	2.181	0.198
55.999	112.135	79.999	19.996	103.208	20.219	2.450	0.201
57.999	112.565	79.999	19.996	103.215	20.219	2.409	0.229
60.000	113.027	80.000	19.995	103.208	20.218	2.484	0.235
62.000	113.498	79.998	19.995	103.199	20.220	2.346	0.250
63.999	113.974	79.999	19.994	103.207	20.219	2.393	0.239
65.999	114.508	79.998	19.995	103.230	20.219	2.441	0.261
68.000	114.984	80.000	19.995	103.243	20.218	2.501	0.221
70.001	115.552	80.000	19.995	103.240	20.217	2.534	0.275
71.999	116.083	79.999	19.995	103.236	20.215	2.666	0.261
73.999	116.695	80.000	19.996	103.233	20.215	2.696	0.293
75.999	117.330	79.999	19.995	103.235	20.214	2.746	0.315
77.999	117.922	80.000	19.995	103.236	20.217	2.560	0.273
79.999	118.558	79.998	19.995	103.223	20.214	2.797	0.317
81.999	119.230	79.998	19.996	103.252	20.212	2.913	0.319
83.999	119.866	79.998	19.996	103.236	20.214	2.775	0.331
85.999	120.565	79.999	19.996	103.237	20.214	2.793	0.344
87.999	121.236	80.000	19.995	103.235	20.213	2.818	0.361
89.999	121.951	79.998	19.995	103.238	20.214	2.778	0.374
91.999	122.691	79.999	19.996	103.241	20.213	2.842	0.349
93.999	123.452	80.000	19.996	103.246	20.210	3.017	0.385
95.999	124.158	80.001	19.995	103.258	20.215	2.727	0.337
97.999	124.927	80.001	19.995	103.245	20.216	2.638	0.389
99.999	125.725	80.002	19.994	103.244	20.212	2.873	0.386
101.999	126.499	80.001	19.994	103.239	20.212	2.907	0.377
104.000	127.264	80.002	19.995	103.237	20.211	3.001	0.392
105.999	128.083	80.002	19.996	103.238	20.213	2.835	0.389
107.999	128.907	80.000	19.995	103.236	20.213	2.844	0.411
109.999	129.733	80.000	19.996	103.235	20.210	3.032	0.429
111.999	130.551	80.000	19.996	103.234	20.214	2.760	0.401
114.000	131.406	79.999	19.996	103.235	20.213	2.812	0.419
115.999	132.218	80.000	19.996	103.234	20.216	2.649	0.429
117.999	133.106	80.001	19.996	103.237	20.216	2.606	0.445
119.999	133.969	80.003	19.996	103.238	20.215	2.715	0.455
121.999	134.800	80.002	19.997	103.253	20.213	2.865	0.437
123.999	135.708	80.001	19.996	103.250	20.214	2.753	0.451
125.999	136.599	80.003	19.995	103.243	20.212	2.918	0.433
127.999	137.511	80.001	19.995	103.245	20.215	2.714	0.438
130.000	138.387	80.002	19.995	103.234	20.216	2.638	0.433
132.000	139.302	80.000	19.996	103.234	20.215	2.708	0.471
134.000	140.236	79.999	19.996	103.237	20.214	2.782	0.468
136.000	141.121	79.999	19.996	103.234	20.214	2.740	0.487
138.000	142.030	79.999	19.996	103.238	20.211	2.939	0.440
140.001	142.989	80.000	19.996	103.247	20.214	2.731	0.463
142.000	143.921	79.998	19.996	103.240	20.214	2.761	0.482
144.000	144.850	79.998	19.996	103.239	20.217	2.587	0.477
146.001	145.834	79.999	19.997	103.238	20.216	2.609	0.469
148.000	146.738	79.997	19.996	103.233	20.214	2.746	0.469
150.000	147.679	79.998	19.996	103.239	20.217	2.585	0.459
152.000	148.627	79.999	19.994	103.236	20.215	2.721	0.479
154.000	149.630	80.000	19.995	103.237	20.212	2.876	0.543
156.000	150.611	79.999	19.995	103.238	20.213	2.804	0.513
158.000	151.517	79.999	19.994	103.237	20.216	2.655	0.485
160.000	152.470	79.998	19.994	103.237	20.213	2.840	0.470
162.000	153.445	79.999	19.995	103.237	20.217	2.575	0.514
164.000	154.382	80.000	19.995	103.232	20.216	2.652	0.477
166.000	155.377	79.998	19.995	103.235	20.215	2.727	0.493
168.000	156.315	79.999	19.996	103.235	20.216	2.603	0.486
170.000	157.271	79.998	19.996	103.233	20.221	2.311	0.496
172.000	158.261	80.000	19.996	103.231	20.215	2.716	0.493
174.000	159.204	80.001	19.994	103.213	20.220	2.376	0.488
175.999	160.178	80.000	19.995	103.223	20.218	2.491	0.489
177.999	161.097	79.999	19.996	103.224	20.217	2.594	0.508
180.001	162.082	80.001	19.995	103.208	20.217	2.530	0.491
182.000	163.013	80.001	19.994	103.198	20.217	2.538	0.487
183.999	164.030	80.001	19.995	103.206	20.214	2.746	0.512
186.000	165.028	80.001	19.995	103.212	20.215	2.677	0.503
187.999	166.002	80.000	19.995	103.222	20.218	2.499	0.487
189.999	167.004	80.001	19.997	103.228	20.217	2.529	0.483
191.999	167.949	80.000	19.995	103.252	20.216	2.658	0.499
194.000	168.968	80.002	19.996	103.260	20.217	2.579	0.516
195.999	169.972	80.000	19.994	103.233	20.218	2.477	0.515
198.000	170.941	79.999	19.995	103.227	20.220	2.365	0.478
200.000	171.976	79.999	19.994	103.218	20.214	2.738	0.524
201.999	173.014	80.001	19.995	103.229	20.218	2.467	0.522
204.000	174.029	80.001	19.994	103.239	20.217	2.588	0.491
205.999	175.005	80.000	19.995	103.270	20.217	2.529	0.485
207.999	176.017	80.001	19.995	103.273	20.224	2.073	0.483
209.999	177.036	80.002	19.995	103.249	20.221	2.302	0.533
211.999	178.011	80.002	19.996	103.232	20.224	2.118	0.495
213.999	179.041	80.001	19.995	103.234	20.221	2.300	0.493
215.999	180.028	80.001	19.996	103.227	20.222	2.226	0.512
218.000	181.085	79.999	19.996	103.231	20.221	2.302	0.479
219.999	182.074	79.999	19.996	103.223	20.222	2.239	0.510
222.000	183.105	79.998	19.995	103.215	20.224	2.059	0.505
223.999	184.157	79.999	19.996	103.213	20.223	2.123	0.545
225.999	185.188	79.999	19.994	103.214	20.222	2.237	0.510
228.000	186.198	79.999	19.996	103.205	20.224	2.063	0.548
229.999	187.229	79.999	19.996	103.204	20.222	2.195	0.508
231.999	188.212	79.999	19.996	103.197	20.223	2.133	0.484
233.999	189.291	79.999	19.996	103.197	20.224	2.065	0.509
235.999	190.281	79.999	19.997	103.195	20.221	2.314	0.489
237.999	191.300	79.999	19.996	103.198	20.225	2.031	0.511
239.999	192.324	80.000	19.997	103.207	20.222	2.228	0.514
242.000	193.288	79.999	19.998	103.206	20.223	2.171	0.483
243.999	194.298	80.000	19.997	103.213	20.228	1.845	0.465
245.999	195.370	79.999	19.996	103.226	20.225	2.036	0.532
247.999	196.353	80.000	19.996	103.233	20.229	1.769	0.509
249.999	197.322	80.000	19.995	103.214	20.223	2.154	0.512
251.999	198.325	80.000	19.996	103.217	20.231	1.591	0.527
253.999	199.343	79.999	19.996	103.210	20.224	2.099	0.506
255.999	200.325	80.001	19.996	103.196	20.228	1.845	0.501
257.999	201.358	80.000	19.994	103.188	20.226	1.975	0.511
259.999	202.355	80.002	19.995	103.198	20.223	2.157	0.531
261.999	203.335	80.002	19.995	103.214	20.226	1.962	0.454
263.999	204.332	80.001	19.995	103.202	20.224	2.057	0.469
265.999	205.358	80.002	19.995	103.188	20.226	1.981	0.508
268.000	206.326	80.000	19.995	103.188	20.226	1.962	0.519
269.999	207.325	80.000	19.997	103.162	20.219	2.428	0.507
271.999	208.309	80.001	19.995	103.184	20.225	1.991	0.492
273.999	209.280	80.001	19.995	103.193	20.226	1.930	0.492
275.999	210.259	80.001	19.995	103.194	20.225	2.027	0.486
277.999	211.271	80.001	19.996	103.188	20.227	1.888	0.503
279.999	212.217	80.001	19.996	103.198	20.222	2.246	0.489
281.999	213.199	80.001	19.995	103.196	20.225	2.038	0.473
283.999	214.162	79.999	19.994	103.196	20.226	1.938	0.465
285.999	215.179	80.001	19.994	103.196	20.223	2.119	0.506
287.999	216.143	80.003	19.994	103.197	20.221	2.292	0.509
289.999	217.116	80.002	19.994	103.197	20.223	2.142	0.484
292.000	218.122	80.003	19.994	103.198	20.227	1.898	0.505
293.999	219.100	80.003	19.995	103.199	20.224	2.114	0.512
295.999	220.068	80.002	19.995	103.195	20.223	2.152	0.473
297.999	221.061	80.001	19.996	103.193	20.226	1.972	0.499
299.999	222.062	80.001	19.996	103.193	20.224	2.099	0.471
301.999	223.077	79.999	19.995	103.192	20.221	2.290	0.471
303.999	224.056	80.001	19.995	103.193	20.226	1.926	0.487
305.999	225.113	80.000	19.997	103.194	20.225	2.023	0.492
307.999	226.124	80.000	19.996	103.199	20.232	1.526	0.506
309.999	227.082	80.000	19.997	103.215	20.231	1.640	0.462
311.999	228.084	79.999	19.996	103.194	20.227	1.856	0.514
313.999	229.141	80.001	19.996	103.192	20.229	1.774	0.526
315.999	230.091	80.000	19.995	103.182	20.222	2.205	0.479
317.999	231.175	80.000	19.996	103.166	20.224	2.112	0.443
319.999	232.056	79.999	19.997	103.186	20.228	1.803	0.500
322.000	233.354	80.001	19.996	103.178	20.226	1.945	0.448
323.999	234.167	80.001	19.997	103.163	20.227	1.905	0.557
325.999	235.102	79.999	19.997	103.183	20.227	1.879	0.461
327.999	236.261	79.999	19.996	103.203	20.228	1.799	0.538
329.999	237.220	79.998	19.996	103.220	20.228	1.813	0.477
331.999	238.204	80.000	19.997	103.195	20.231	1.599	0.512
334.000	239.241	80.001	19.998	103.183	20.230	1.701	0.508
335.999	240.244	79.997	19.997	103.164	20.228	1.845	0.531
337.999	241.234	79.999	19.997	103.185	20.231	1.587	0.473
339.999	242.255	79.999	19.996	103.192	20.235	1.345	0.508
341.999	243.232	80.001	19.995	103.193	20.228	1.784	0.514
343.999	244.301	80.001	19.995	103.190	20.231	1.623	0.508
345.999	245.246	80.001	19.997	103.177	20.231	1.631	0.470
347.999	246.279	80.002	19.995	103.185	20.234	1.403	0.509
349.999	247.275	80.001	19.994	103.181	20.236	1.286	0.480
351.999	248.301	80.002	19.995	103.186	20.233	1.483	0.491
353.999	249.349	80.001	19.995	103.176	20.232	1.526	0.528
355.999	250.366	80.002	19.995	103.193	20.234	1.381	0.510
357.999	251.405	80.001	19.995	103.189	20.233	1.441	0.515
359.999	252.418	79.999	19.996	103.186	20.233	1.477	0.519
361.999	253.393	80.001	19.996	103.182	20.237	1.212	0.502
364.000	254.401	80.002	19.996	103.180	20.234	1.379	0.504
365.999	255.403	80.001	19.997	103.181	20.232	1.574	0.496
367.999	256.396	80.002	19.996	103.174	20.235	1.356	0.514
370.000	257.374	80.002	19.996	103.165	20.233	1.447	0.512
371.999	258.377	80.004	19.996	103.173	20.231	1.625	0.510
373.999	259.344	80.003	19.996	103.162	20.230	1.661	0.493
375.999	260.356	80.003	19.996	103.179	20.230	1.701	0.504
378.000	261.274	80.003	19.996	103.182	20.231	1.585	0.472
380.000	262.328	80.001	19.995	103.176	20.232	1.508	0.500
382.000	263.273	80.003	19.996	103.186	20.230	1.665	0.483
383.999	264.220	80.001	19.996	103.185	20.229	1.767	0.518
385.999	265.197	80.002	19.996	103.187	20.232	1.562	0.489
387.999	266.161	80.002	19.996	103.186	20.227	1.884	0.490
389.999	267.133	80.002	19.996	103.186	20.226	1.952	0.492
391.999	268.116	80.000	19.996	103.186	20.230	1.649	0.472
393.999	269.124	80.000	19.997	103.176	20.226	1.948	0.503
395.999	270.129	79.999	19.996	103.171	20.227	1.907	0.495
397.999	271.100	80.000	19.997	103.178	20.227	1.848	0.474
399.999	272.083	80.000	19.995	103.156	20.229	1.763	0.496
401.999	273.115	80.000	19.998	103.157	20.225	2.008	0.531
403.999	274.056	79.999	19.998	103.156	20.231	1.595	0.510
405.999	275.063	80.000	19.996	103.157	20.228	1.792	0.502
407.999	276.046	80.001	19.996	103.171	20.228	1.816	0.504
409.999	277.057	80.000	19.995	103.170	20.229	1.714	0.476
411.999	278.038	80.000	19.996	103.191	20.229	1.719	0.481
413.999	279.052	79.997	19.995	103.191	20.232	1.539	0.497
415.999	280.068	80.000	19.996	103.184	20.229	1.738	0.508
417.999	281.065	80.001	19.997	103.187	20.234	1.420	0.512
420.000	282.025	79.999	19.995	103.181	20.230	1.653	0.488
422.000	282.987	79.998	19.995	103.164	20.231	1.596	0.502
424.000	283.986	80.000	19.996	103.172	20.232	1.560	0.481
426.000	285.010	80.000	19.995	103.160	20.229	1.725	0.491
427.999	285.980	80.001	19.997	103.169	20.233	1.462	0.504
429.999	286.920	80.003	19.996	103.161	20.236	1.244	0.463
431.999	287.940	80.001	19.998	103.150	20.234	1.386	0.498
433.999	288.901	80.002	19.996	103.157	20.232	1.573	0.487
436.000	289.898	80.003	19.997	103.152	20.229	1.753	0.479
437.999	290.938	80.002	19.997	103.151	20.230	1.654	0.508
440.000	291.928	80.000	19.995	103.170	20.230	1.686	0.521
441.999	292.937	80.002	19.994	103.165	20.230	1.691	0.468
444.000	293.940	80.003	19.996	103.153	20.230	1.708	0.512
445.999	294.901	80.002	19.996	103.154	20.232	1.513	0.471
448.000	295.903	80.002	19.995	103.179	20.228	1.780	0.500
449.999	296.870	80.003	19.997	103.198	20.231	1.577	0.470
451.999	297.865	80.004	19.994	103.171	20.229	1.742	0.504
453.999	298.866	80.001	19.996	103.187	20.229	1.725	0.478
455.999	299.854	80.003	19.997	103.175	20.227	1.884	0.500
457.999	300.852	80.003	19.996	103.174	20.225	2.043	0.477
459.999	301.841	80.006	19.995	103.170	20.228	1.787	0.499
462.000	302.879	80.003	19.996	103.159	20.223	2.151	0.529
463.999	303.803	80.002	19.993	103.178	20.223	2.139	0.459
465.999	304.803	80.001	19.995	103.182	20.224	2.088	0.506
467.999	305.795	80.002	19.995	103.161	20.223	2.127	0.472
469.999	306.826	80.000	19.994	103.154	20.221	2.299	0.515
471.999	307.780	80.002	19.993	103.157	20.221	2.282	0.515
473.999	308.771	80.000	19.995	103.151	20.222	2.217	0.499
475.999	309.784	79.999	19.994	103.154	20.222	2.189	0.499
477.999	310.747	80.001	19.995	103.170	20.223	2.121	0.503
479.999	311.762	80.000	19.995	103.170	20.222	2.196	0.512
481.999	312.813	80.001	19.996	103.170	20.222	2.221	0.519
483.999	313.806	80.002	19.997	103.163	20.221	2.305	0.505
485.999	314.818	80.002	19.995	103.158	20.218	2.515	0.494
487.999	315.804	79.999	19.995	103.159	20.215	2.663	0.512
489.999	316.795	80.001	19.995	103.157	20.218	2.513	0.492
491.999	317.781	79.999	19.996	103.162	20.212	2.875	0.503
493.999	318.746	80.001	19.995	103.173	20.212	2.873	0.499
495.999	319.780	80.001	19.996	103.179	20.210	3.023	0.518
497.999	320.749	80.000	19.995	103.180	20.207	3.248	0.514
499.999	321.764	80.003	19.997	103.190	20.207	3.229	0.532
501.999	322.740	79.999	19.998	103.178	20.204	3.470	0.488
503.999	323.762	79.998	19.995	103.177	20.199	3.750	0.501
506.000	324.791	79.999	19.997	103.193	20.195	4.040	0.510
507.999	325.789	80.001	19.995	103.181	20.193	4.188	0.480
509.999	326.839	80.002	19.994	103.172	20.191	4.303	0.534
511.999	327.868	80.000	19.996	103.177	20.187	4.576	0.506
513.999	328.916	80.002	19.997	103.184	20.183	4.851	0.539
515.999	329.921	80.003	19.997	103.190	20.176	5.332	0.522
518.000	330.955	80.001	20.000	103.193	20.179	5.118	0.507
520.000	332.003	80.002	19.997	103.192	20.173	5.574	0.524
521.999	333.083	80.001	19.997	103.190	20.165	6.092	0.556
523.999	334.126	80.002	19.996	103.189	20.164	6.158	0.540
525.999	335.170	80.002	19.996	103.191	20.154	6.868	0.562
527.999	336.168	80.003	19.995	103.191	20.156	6.711	0.521
529.999	337.231	80.001	19.996	103.193	20.148	7.243	0.529
531.999	338.275	80.001	19.997	103.196	20.146	7.349	0.557
533.999	339.326	80.002	19.995	103.194	20.138	7.953	0.541
536.000	340.362	80.001	19.995	103.191	20.133	8.281	0.521
538.000	341.409	80.001	19.995	103.187	20.130	8.459	0.558
539.999	342.460	80.002	19.993	103.190	20.127	8.680	0.521
541.999	343.477	80.002	19.996	103.183	20.122	8.999	0.521
544.000	344.546	80.002	19.995	103.190	20.118	9.272	0.543
546.000	345.533	80.003	19.994	103.189	20.113	9.611	0.513
547.999	346.588	80.002	19.994	103.194	20.106	10.084	0.502
549.999	347.636	80.002	19.995	103.194	20.102	10.340	0.508
552.000	348.702	80.000	19.995	103.193	20.100	10.477	0.530
553.999	349.756	80.000	19.996	103.198	20.097	10.700	0.523
555.999	350.813	80.000	19.996	103.197	20.086	11.425	0.525
558.000	351.864	80.002	19.995	103.196	20.081	11.794	0.537
559.999	352.911	80.002	19.996	103.196	20.081	11.825	0.526
561.999	353.956	80.001	19.996	103.183	20.072	12.387	0.535
563.999	354.968	80.002	19.996	103.189	20.074	12.291	0.512
565.999	356.021	80.000	19.996	103.193	20.070	12.560	0.510
568.000	357.059	80.000	19.996	103.192	20.063	13.033	0.515
569.999	358.066	80.001	19.994	103.192	20.059	13.293	0.499
571.999	359.094	80.002	19.995	103.192	20.053	13.670	0.494
573.999	360.111	80.000	19.998	103.194	20.054	13.609	0.523
575.999	361.174	80.002	19.994	103.193	20.048	14.032	0.544
578.000	362.185	80.001	19.996	103.194	20.047	14.100	0.514
579.999	363.218	80.001	19.995	103.189	20.043	14.399	0.505
581.999	364.258	80.000	19.996	103.194	20.042	14.458	0.566
583.999	365.218	79.999	19.997	103.192	20.037	14.815	0.509
585.999	366.253	79.998	19.996	103.194	20.038	14.689	0.531
587.999	367.288	80.000	19.997	103.199	20.035	14.899	0.521
590.000	368.261	79.999	19.996	103.195	20.033	15.088	0.477
591.999	369.312	80.001	19.995	103.193	20.030	15.236	0.533
593.999	370.290	80.002	19.996	103.193	20.028	15.410	0.477
595.999	371.263	80.001	19.999	103.185	20.027	15.481	0.461
598.000	372.296	80.002	19.995	103.181	20.024	15.638	0.519
599.999	373.328	80.000	19.995	103.190	20.022	15.795	0.528
601.999	374.354	80.002	19.995	103.190	20.020	15.930	0.508
603.999	375.405	80.000	19.996	103.190	20.017	16.126	0.534
605.999	376.353	80.002	19.995	103.192	20.013	16.396	0.509
607.999	377.363	80.001	19.994	103.194	20.011	16.546	0.512
609.999	378.384	80.000	19.993	103.186	20.006	16.910	0.514
611.999	379.377	80.001	19.996	103.187	20.002	17.175	0.497
613.999	380.422	79.998	19.997	103.194	19.995	17.646	0.501
615.999	381.400	79.999	19.997	103.196	20.001	17.227	0.533
617.999	382.383	80.000	19.996	103.203	20.000	17.290	0.488
619.999	383.407	80.002	19.996	103.227	19.995	17.674	0.506
621.999	384.349	80.000	19.995	103.235	19.991	17.901	0.468
623.999	385.394	80.002	19.996	103.225	19.988	18.082	0.529
626.000	386.419	80.003	19.996	103.221	19.989	18.075	0.512
627.999	387.394	80.003	19.996	103.226	19.982	18.551	0.534
629.999	388.436	80.001	19.995	103.221	19.981	18.621	0.545
631.999	389.400	80.002	19.996	103.194	19.974	19.093	0.487
633.999	390.398	80.002	19.996	103.192	19.969	19.392	0.479
635.999	391.403	80.001	19.995	103.200	19.961	19.953	0.503
638.000	392.384	80.001	19.996	103.197	19.953	20.470	0.479
640.000	393.418	79.999	19.995	103.193	19.944	21.121	0.496
641.999	394.446	79.998	19.994	103.199	19.937	21.560	0.499
643.999	395.427	80.002	19.995	103.198	19.928	22.185	0.474
645.999	396.437	80.001	19.997	103.206	19.921	22.694	0.479
648.000	397.441	80.000	19.996	103.226	19.915	23.061	0.489
649.999	398.441	80.001	19.996	103.209	19.899	24.167	0.527
651.999	399.451	80.004	19.996	103.203	19.897	24.326	0.514
653.999	400.449	80.001	19.997	103.205	19.890	24.756	0.529
656.000	401.415	79.998	19.996	103.216	19.875	25.817	0.506
658.000	402.423	80.000	19.995	103.229	19.872	25.978	0.486
660.001	403.434	80.000	19.994	103.228	19.854	27.216	0.505
662.000	404.446	79.997	19.995	103.231	19.847	27.711	0.500
663.999	405.413	80.000	19.994	103.242	19.835	28.504	0.487
665.999	406.428	80.000	19.993	103.240	19.822	29.389	0.537
667.999	407.415	79.999	19.995	103.248	19.819	29.634	0.502
669.999	408.427	79.998	19.996	103.250	19.796	31.149	0.487
671.999	409.477	79.999	19.996	103.245	19.782	32.133	0.509
674.000	410.459	79.998	19.995	103.263	19.774	32.655	0.483
676.000	411.475	79.999	19.997	103.268	19.752	34.135	0.506
678.000	412.478	80.000	19.996	103.267	19.731	35.622	0.491
680.001	413.505	80.000	19.994	103.271	19.721	36.248	0.514
681.999	414.455	80.001	19.997	103.272	19.702	37.595	0.482
684.000	415.439	80.000	19.996	103.273	19.679	39.161	0.494
685.999	416.489	80.002	19.996	103.268	19.657	40.616	0.510
687.999	417.507	80.001	19.997	103.269	19.637	41.974	0.522
689.999	418.491	80.000	19.997	103.276	19.612	43.708	0.495
691.999	419.611	80.003	19.995	103.274	19.591	45.162	0.549
693.999	420.609	80.001	19.996	103.280	19.564	46.952	0.516
696.000	421.612	80.000	19.997	103.301	19.548	48.020	0.481
697.999	422.623	80.000	19.996	103.294	19.527	49.447	0.500
699.999	423.592	80.006	19.994	103.292	19.500	51.340	0.479
701.999	424.596	80.002	19.996	103.302	19.473	53.143	0.477
703.999	425.661	80.003	19.994	103.304	19.454	54.444	0.543
705.999	426.652	80.001	19.995	103.304	19.425	56.432	0.505
707.999	427.663	80.001	19.995	103.303	19.406	57.693	0.477
709.999	428.677	79.999	19.996	103.299	19.381	59.419	0.532
711.999	429.683	80.005	19.997	103.316	19.356	61.135	0.522
713.999	430.665	79.998	19.998	103.329	19.333	62.701	0.498
715.999	431.709	80.000	19.995	103.336	19.315	63.921	0.527
717.999	432.702	80.000	19.997	103.340	19.293	65.456	0.480
719.999	433.749	80.000	19.997	103.332	19.274	66.720	0.519
721.999	434.792	80.001	19.997	103.346	19.256	67.964	0.550
724.000	435.765	80.000	19.995	103.354	19.234	69.409	0.480
725.999	436.759	80.000	19.996	103.371	19.223	70.164	0.515
727.999	437.772	79.999	19.997	103.383	19.209	71.112	0.500
729.999	438.822	80.000	19.997	103.374	19.203	71.530	0.505
731.999	439.821	80.001	19.996	103.357	19.190	72.437	0.489
734.000	440.813	80.000	19.995	103.353	19.187	72.599	0.488
735.999	441.817	79.999	19.996	103.351	19.188	72.583	0.481
737.999	442.836	79.999	19.996	103.348	19.189	72.436	0.517
739.999	443.883	79.999	19.996	103.345	19.189	72.439	0.505
741.999	444.899	80.002	19.995	103.342	19.206	71.308	0.514
743.999	445.918	79.999	19.995	103.330	19.227	69.880	0.521
745.999	446.926	80.000	19.995	103.339	19.251	68.242	0.512
748.000	447.923	79.999	19.996	103.322	19.273	66.693	0.499
749.999	448.927	80.000	19.995	103.305	19.310	64.215	0.511
751.999	449.933	79.999	19.995	103.284	19.339	62.215	0.507
753.999	450.905	79.999	19.995	103.282	19.376	59.706	0.471
755.999	451.933	80.000	19.995	103.271	19.412	57.237	0.474
758.000	452.963	80.002	19.998	103.260	19.445	54.968	0.517
760.000	453.971	80.001	19.996	103.244	19.485	52.291	0.522
761.999	454.997	80.002	19.995	103.230	19.524	49.606	0.538
763.999	456.016	80.003	19.995	103.224	19.559	47.226	0.526
766.000	457.028	80.001	19.995	103.204	19.601	44.352	0.534
767.999	458.022	80.001	19.994	103.190	19.628	42.518	0.489
769.999	459.028	80.002	19.996	103.200	19.658	40.506	0.532
771.999	460.006	80.002	19.995	103.178	19.678	39.150	0.502
773.999	460.992	80.001	19.995	103.159	19.695	38.000	0.475
776.000	461.969	80.000	19.996	103.155	19.708	37.127	0.488
778.000	463.004	80.000	19.996	103.153	19.709	37.006	0.477
780.000	464.020	80.000	19.996	103.140	19.710	36.983	0.517
781.999	464.937	80.002	19.996	103.138	19.702	37.484	0.486
783.999	465.931	80.001	19.996	103.133	19.697	37.875	0.507
786.000	466.934	80.002	19.996	103.111	19.685	38.624	0.472
787.999	467.921	80.003	19.996	103.104	19.677	39.203	0.499
790.000	468.906	80.003	19.996	103.104	19.660	40.330	0.503
792.000	469.843	80.002	19.996	103.105	19.643	41.526	0.477
794.000	470.828	80.000	19.995	103.113	19.632	42.208	0.516
796.000	471.792	79.999	19.996	103.091	19.616	43.309	0.466
797.999	472.739	80.000	19.996	103.078	19.598	44.537	0.465
799.999	473.704	80.000	19.996	103.077	19.587	45.266	0.469
801.999	474.698	79.999	19.997	103.074	19.582	45.627	0.474
803.999	475.681	80.000	19.997	103.057	19.576	45.996	0.465
805.999	476.626	79.998	19.996	103.060	19.578	45.876	0.484
808.000	477.564	79.998	19.997	103.063	19.587	45.301	0.464
809.999	478.590	79.999	19.997	103.039	19.606	43.993	0.533
811.999	479.544	79.999	19.997	103.034	19.643	41.517	0.455
814.000	480.537	79.998	19.996	103.023	19.688	38.473	0.500
815.999	481.526	80.000	19.997	103.018	19.736	35.169	0.500
817.999	482.522	80.000	19.997	103.034	19.792	31.363	0.528
820.000	483.547	80.001	19.996	103.045	19.846	27.724	0.509
821.999	484.491	80.000	19.995	103.055	19.893	24.520	0.484
823.999	485.520	79.999	19.995	103.066	19.942	21.215	0.506
826.000	486.546	80.000	19.996	103.082	19.984	18.347	0.534
827.999	487.590	80.000	19.996	103.089	20.021	15.868	0.512
829.999	488.657	79.999	19.995	103.081	20.056	13.469	0.533
831.999	489.688	79.999	19.997	103.082	20.083	11.649	0.491
833.999	490.772	79.999	19.995	103.099	20.109	9.896	0.540
835.999	491.827	79.999	19.997	103.114	20.129	8.554	0.517
837.999	492.919	79.999	19.997	103.114	20.150	7.138	0.553
839.999	494.035	79.999	19.996	103.115	20.164	6.165	0.578
841.999	495.095	80.001	19.997	103.117	20.172	5.597	0.519
844.000	496.164	80.001	19.997	103.115	20.184	4.764	0.547
845.999	497.246	80.000	19.996	103.126	20.190	4.365	0.533
847.999	498.321	80.002	19.995	103.133	20.193	4.162	0.537
849.999	499.414	80.002	19.996	103.128	20.197	3.920	0.573
851.999	500.497	80.001	19.996	103.117	20.198	3.874	0.545
853.999	501.578	80.002	19.997	103.119	20.200	3.698	0.542
855.999	502.740	80.000	19.995	103.120	20.199	3.761	0.580
858.000	503.848	80.002	19.996	103.131	20.198	3.831	0.552
860.000	504.972	80.002	19.995	103.117	20.198	3.826	0.547
861.999	506.082	80.000	19.996	103.118	20.204	3.415	0.586
863.999	507.171	80.001	19.995	103.122	20.199	3.763	0.540
865.999	508.276	80.000	19.995	103.122	20.201	3.631	0.545
867.999	509.406	80.003	19.996	103.136	20.200	3.722	0.559
869.999	510.454	80.001	19.995	103.126	20.200	3.722	0.527
872.000	511.567	80.002	19.996	103.137	20.200	3.723	0.532
873.999	512.671	80.003	19.996	103.139	20.201	3.636	0.533
875.999	513.784	80.001	19.995	103.136	20.202	3.606	0.559
877.999	514.838	80.000	19.996	103.135	20.203	3.481	0.523
879.999	515.897	80.001	19.995	103.134	20.201	3.623	0.538
882.000	517.004	80.000	19.996	103.127	20.201	3.621	0.527
883.999	518.053	79.999	19.996	103.121	20.202	3.549	0.518
886.000	519.097	80.000	19.996	103.124	20.205	3.371	0.511
887.999	520.161	80.001	19.995	103.125	20.209	3.087	0.499
889.999	521.190	80.001	19.995	103.117	20.206	3.278	0.501
891.999	522.256	80.000	19.998	103.116	20.208	3.183	0.511
893.999	523.197	80.001	19.996	103.116	20.208	3.183	0.466
896.000	524.267	80.001	19.996	103.114	20.210	3.017	0.515
897.999	525.266	80.000	19.998	103.116	20.209	3.093	0.485
899.999	526.263	80.001	19.999	103.114	20.209	3.127	0.473
901.999	527.258	80.000	19.996	103.114	20.209	3.108	0.508
903.999	528.202	79.998	19.996	103.118	20.205	3.386	0.499
905.999	529.222	80.000	19.996	103.115	20.212	2.898	0.490
907.999	530.179	80.000	19.997	103.115	20.209	3.117	0.480
909.999	531.202	80.000	19.997	103.117	20.209	3.134	0.511
911.999	532.160	79.999	19.996	103.119	20.210	3.015	0.509
913.999	533.131	80.001	19.996	103.122	20.208	3.165	0.490
915.999	534.084	80.000	19.996	103.121	20.211	2.968	0.471
917.999	535.068	79.999	19.997	103.118	20.212	2.884	0.505
919.999	536.068	80.001	19.996	103.121	20.209	3.104	0.483
921.999	537.020	80.001	19.996	103.122	20.213	2.841	0.494
923.999	538.025	80.002	19.996	103.117	20.208	3.174	0.516
925.999	538.971	80.002	19.995	103.118	20.212	2.927	0.490
927.999	539.970	80.002	19.995	103.115	20.210	3.040	0.473
929.999	540.964	80.002	19.996	103.118	20.209	3.116	0.510
932.000	541.935	80.002	19.996	103.122	20.207	3.237	0.494
934.000	542.925	80.002	19.996	103.119	20.212	2.913	0.506
935.999	543.965	80.001	19.996	103.129	20.211	2.957	0.519
938.000	544.953	80.001	19.996	103.131	20.212	2.894	0.480
939.999	545.951	80.001	19.996	103.135	20.211	2.942	0.490
941.999	546.957	80.001	19.996	103.128	20.208	3.176	0.489
943.999	547.983	80.001	19.995	103.124	20.208	3.203	0.535
945.999	548.981	80.002	19.997	103.135	20.209	3.135	0.480
947.999	550.012	79.999	19.996	103.125	20.208	3.175	0.524
949.999	551.021	80.002	19.995	103.140	20.203	3.509	0.531
951.999	552.047	80.001	19.995	103.126	20.200	3.705	0.510
953.999	553.045	80.003	19.996	103.121	20.204	3.425	0.530
956.000	554.093	80.003	19.995	103.133	20.206	3.338	0.521
957.999	555.149	80.003	19.996	103.133	20.203	3.512	0.518
959.999	556.192	80.002	19.997	103.132	20.200	3.680	0.515
961.999	557.215	80.001	19.996	103.137	20.197	3.902	0.518
964.000	558.238	80.000	19.995	103.147	20.201	3.656	0.532
965.999	559.295	80.000	19.997	103.141	20.197	3.887	0.517
967.999	560.364	80.001	19.996	103.145	20.192	4.241	0.534
969.999	561.453	80.001	19.997	103.146	20.190	4.370	0.533
971.999	562.491	80.001	19.997	103.149	20.186	4.637	0.515
973.999	563.537	79.999	19.997	103.151	20.182	4.908	0.527
975.999	564.596	80.001	19.996	103.151	20.183	4.870	0.535
977.999	565.623	80.002	19.996	103.153	20.179	5.114	0.527
980.000	566.747	80.001	19.995	103.150	20.174	5.511	0.560
981.999	567.777	80.001	19.997	103.144	20.168	5.905	0.510
983.999	568.856	80.001	19.995	103.152	20.166	6.004	0.526
985.999	569.910	80.001	19.996	103.151	20.160	6.437	0.555
987.999	570.952	80.001	19.995	103.150	20.157	6.606	0.500
990.000	571.987	80.001	19.996	103.152	20.153	6.871	0.514
992.000	573.138	79.999	19.996	103.152	20.146	7.356	0.564
994.000	574.152	79.999	19.998	103.147	20.136	8.045	0.506
996.000	575.277	79.999	19.997	103.152	20.126	8.716	0.532
997.999	576.345	79.997	19.996	103.155	20.118	9.294	0.546
1000.000	577.374	79.997	19.997	103.155	20.111	9.779	0.540
1001.999	578.450	79.998	19.997	103.155	20.101	10.423	0.560
1004.000	579.519	79.999	19.997	103.156	20.091	11.117	0.560
1005.999	580.564	79.999	19.997	103.157	20.080	11.882	0.520
1008.000	581.616	79.999	19.996	103.159	20.071	12.496	0.532
1009.999	582.619	80.001	19.995	103.166	20.059	13.319	0.476
1012.000	583.688	80.001	19.996	103.182	20.044	14.284	0.559
1013.999	584.730	80.002	19.994	103.167	20.034	14.976	0.478
1015.999	585.740	80.002	19.996	103.167	20.023	15.710	0.527
1018.000	586.828	80.002	19.995	103.163	20.016	16.246	0.525
1020.000	587.826	80.000	19.996	103.176	20.006	16.920	0.517
1022.000	588.857	80.001	19.995	103.181	19.997	17.534	0.518
1024.000	589.904	80.001	19.996	103.188	19.984	18.357	0.525
1025.999	590.932	80.001	19.996	103.191	19.969	19.397	0.523
1027.999	591.994	80.001	19.996	103.194	19.961	19.959	0.516
1029.999	593.038	80.002	19.997	103.204	19.952	20.548	0.513
1031.999	594.083	80.002	19.998	103.209	19.945	21.039	0.505
1033.999	595.095	80.003	19.997	103.204	19.933	21.872	0.499
1036.000	596.141	80.003	19.995	103.196	19.919	22.779	0.527
1037.999	597.126	80.004	19.995	103.195	19.916	23.028	0.505
1039.999	598.151	80.002	19.995	103.198	19.905	23.762	0.540
1041.999	599.161	80.003	19.996	103.199	19.899	24.146	0.515
1043.999	600.171	80.002	19.995	103.203	19.891	24.740	0.478
1045.999	601.192	80.001	19.996	103.205	19.885	25.095	0.539
1047.999	602.196	80.001	19.995	103.211	19.879	25.544	0.506
1049.999	603.236	80.002	19.995	103.209	19.875	25.813	0.521
1051.999	604.213	80.001	19.995	103.207	19.870	26.111	0.509
1054.000	605.233	80.001	19.996	103.229	19.874	25.875	0.511
1056.000	606.259	80.000	19.995	103.232	19.875	25.814	0.488
1057.999	607.244	79.999	19.996	103.231	19.873	25.945	0.484
1060.001	608.270	80.000	19.996	103.233	19.880	25.477	0.512
1061.999	609.262	80.000	19.996	103.233	19.881	25.375	0.485
1064.000	610.272	80.000	19.995	103.223	19.894	24.527	0.480
1065.999	611.265	79.999	19.996	103.198	19.902	23.989	0.487
1067.999	612.303	80.000	19.995	103.206	19.913	23.178	0.518
1070.001	613.339	80.000	19.995	103.214	19.930	22.060	0.513
1071.999	614.303	80.000	19.996	103.195	19.947	20.915	0.512
1073.999	615.393	80.000	19.996	103.195	19.969	19.427	0.496
1075.999	616.358	79.999	19.995	103.195	19.995	17.656	0.522
1078.000	617.378	79.999	19.997	103.195	20.023	15.740	0.496
1079.999	618.404	80.000	19.995	103.182	20.052	13.790	0.493
1081.999	619.367	79.999	19.996	103.172	20.079	11.893	0.508
1083.999	620.422	79.999	19.996	103.163	20.112	9.692	0.523
1085.999	621.370	79.999	19.996	103.156	20.134	8.168	0.452
1087.999	622.327	79.999	19.997	103.152	20.159	6.518	0.489
1089.999	623.294	80.000	19.997	103.129	20.175	5.392	0.493
1092.000	624.239	80.000	19.997	103.129	20.183	4.889	0.473
1093.999	625.178	80.000	19.996	103.118	20.193	4.215	0.472
1095.999	626.086	80.002	19.996	103.111	20.199	3.759	0.466
1097.999	627.012	80.002	19.997	103.113	20.206	3.329	0.481
1099.999	627.914	80.002	19.996	103.112	20.206	3.318	0.454
1101.999	628.822	80.001	19.995	103.112	20.210	3.045	0.467
1103.999	629.766	80.000	19.995	103.113	20.212	2.909	0.460
1105.999	630.641	80.000	19.995	103.110	20.211	2.989	0.458
1107.999	631.532	80.000	19.996	103.113	20.208	3.149	0.415
1109.999	632.450	80.001	19.995	103.115	20.214	2.769	0.458
1111.999	633.357	80.000	19.995	103.116	20.212	2.887	0.462
1113.999	634.241	80.001	19.995	103.118	20.213	2.832	0.448
1115.999	635.198	80.003	19.997	103.117	20.212	2.921	0.465
1117.999	636.082	80.002	19.995	103.115	20.211	2.990	0.480
1119.999	636.997	80.003	19.996	103.114	20.212	2.884	0.494
1121.999	637.871	80.002	19.995	103.118	20.214	2.779	0.450
1123.999	638.833	80.003	19.996	103.129	20.212	2.925	0.486
1125.999	639.741	80.001	19.994	103.140	20.215	2.665	0.456
1127.999	640.637	80.001	19.995	103.155	20.213	2.843	0.473
1130.000	641.526	79.999	19.995	103.151	20.211	2.966	0.453
1132.000	642.439	80.001	19.995	103.154	20.213	2.815	0.437
1133.999	643.418	80.000	19.996	103.147	20.214	2.760	0.505
1135.999	644.313	79.999	19.995	103.152	20.213	2.823	0.473
1137.999	645.308	80.000	19.996	103.125	20.212	2.925	0.465
1139.999	646.192	80.000	19.996	103.121	20.210	3.001	0.452
1141.999	647.140	80.000	19.996	103.133	20.210	3.013	0.483
1143.999	648.058	80.000	19.995	103.124	20.207	3.270	0.454
1146.000	649.067	80.000	19.995	103.149	20.210	3.003	0.494
1147.999	650.017	80.000	19.995	103.155	20.210	3.001	0.467
1149.999	651.004	80.000	19.996	103.157	20.209	3.092	0.488
1152.000	651.988	80.000	19.995	103.171	20.208	3.202	0.496
1153.999	652.955	80.000	19.997	103.183	20.206	3.280	0.465
1155.999	653.962	80.000	19.996	103.174	20.203	3.513	0.515
1157.999	654.898	79.999	19.995	103.173	20.206	3.337	0.494
1159.999	655.957	80.000	19.998	103.167	20.204	3.432	0.509
1161.999	656.910	80.000	19.997	103.167	20.201	3.625	0.471
1164.000	657.902	79.999	19.995	103.175	20.199	3.781	0.452
1165.999	658.890	79.999	19.995	103.179	20.204	3.455	0.495
1167.999	659.889	79.999	19.996	103.192	20.203	3.514	0.505
1169.999	660.850	80.000	19.996	103.191	20.199	3.779	0.479
1171.999	661.879	80.001	19.995	103.192	20.204	3.472	0.505
1173.999	662.873	80.001	19.995	103.192	20.202	3.572	0.489
1175.999	663.868	80.000	19.996	103.194	20.201	3.654	0.530
1177.999	664.852	80.002	19.997	103.203	20.203	3.540	0.526
1179.999	665.858	80.001	19.996	103.194	20.201	3.653	0.517
1181.999	666.883	80.002	19.996	103.193	20.202	3.581	0.511
1183.999	667.875	80.001	19.997	103.194	20.199	3.793	0.483
1185.999	668.887	80.001	19.997	103.195	20.201	3.680	0.513
1187.999	669.884	79.999	19.997	103.203	20.197	3.888	0.520
1189.999	670.909	80.000	19.997	103.215	20.196	4.015	0.519
1192.000	671.937	80.001	19.996	103.222	20.198	3.835	0.505
1194.000	672.945	80.001	19.996	103.226	20.191	4.309	0.522
1195.999	674.044	80.001	19.996	103.230	20.197	3.951	0.517
1197.999	675.075	80.002	19.995	103.231	20.194	4.153	0.553
1199.999	676.125	80.002	19.995	103.232	20.191	4.351	0.513
1201.999	677.159	80.003	19.995	103.241	20.191	4.349	0.518
1203.999	678.156	80.002	19.995	103.235	20.191	4.338	0.526
1205.999	679.206	80.004	19.994	103.237	20.190	4.407	0.514
1208.000	680.251	80.003	19.995	103.236	20.187	4.630	0.523
1209.999	681.290	80.002	19.995	103.234	20.189	4.485	0.528
1212.000	682.339	80.000	19.995	103.242	20.188	4.511	0.534
1214.000	683.405	80.000	19.996	103.258	20.186	4.678	0.535
1215.999	684.469	80.001	19.997	103.264	20.186	4.670	0.530
1217.999	685.521	80.000	19.995	103.265	20.186	4.665	0.547
1219.999	686.574	80.001	19.995	103.261	20.186	4.686	0.526
1221.999	687.598	80.002	19.995	103.269	20.183	4.866	0.529
1223.999	688.637	80.001	19.995	103.269	20.180	5.107	0.529
1226.000	689.672	80.001	19.996	103.263	20.187	4.593	0.493
1227.999	690.691	80.001	19.995	103.268	20.184	4.809	0.499
1229.999	691.716	80.000	19.995	103.269	20.184	4.815	0.503
1231.999	692.703	80.001	19.994	103.269	20.182	4.971	0.488
1233.999	693.738	80.002	19.995	103.270	20.178	5.182	0.536
1235.999	694.783	80.002	19.995	103.278	20.175	5.405	0.540
1237.999	695.741	80.001	19.996	103.280	20.177	5.258	0.494
1239.999	696.766	80.002	19.995	103.280	20.174	5.465	0.509
1241.999	697.759	79.999	19.996	103.290	20.170	5.732	0.483
1243.999	698.760	80.001	19.995	103.298	20.171	5.662	0.499
1245.999	699.779	79.999	19.996	103.293	20.172	5.628	0.472
1247.999	700.732	79.999	19.996	103.304	20.170	5.748	0.484
1249.999	701.764	80.000	19.996	103.309	20.170	5.767	0.511
1251.999	702.762	80.000	19.998	103.310	20.168	5.874	0.511
1254.000	703.729	80.000	19.997	103.310	20.164	6.143	0.500
1255.999	704.705	80.002	19.996	103.309	20.165	6.078	0.492
1257.999	705.714	80.002	19.996	103.308	20.165	6.073	0.484
1259.999	706.736	80.002	19.996	103.311	20.165	6.099	0.513
1262.000	707.719	80.002	19.996	103.316	20.163	6.251	0.523
1263.999	708.732	80.002	19.996	103.336	20.168	5.883	0.495
1265.999	709.676	80.003	19.995	103.322	20.168	5.919	0.477
1267.999	710.652	80.001	19.996	103.328	20.164	6.152	0.487
1270.000	711.672	80.001	19.996	103.325	20.166	6.045	0.492
1271.999	712.685	80.001	19.996	103.320	20.162	6.336	0.540
1273.999	713.659	80.001	19.996	103.326	20.159	6.520	0.499
1276.000	714.677	80.000	19.996	103.329	20.158	6.588	0.511
1277.999	715.738	80.001	19.996	103.325	20.160	6.463	0.524
1279.999	716.783	80.002	19.996	103.333	20.155	6.772	0.514
1281.999	717.778	80.001	19.996	103.349	20.159	6.479	0.502
1283.999	718.798	80.002	19.997	103.346	20.157	6.651	0.510
1285.999	719.819	80.004	19.997	103.346	20.159	6.537	0.476
1287.999	720.864	80.003	19.996	103.343	20.156	6.731	0.511
1290.000	721.889	80.003	19.996	103.345	20.154	6.871	0.530
1292.001	722.863	80.003	19.996	103.340	20.155	6.749	0.506
1294.001	723.872	80.003	19.995	103.343	20.154	6.835	0.484
1296.000	724.926	80.001	19.996	103.345	20.154	6.855	0.509
1298.000	725.931	80.001	19.996	103.309	20.156	6.721	0.482
1300.000	726.964	80.001	19.995	103.279	20.158	6.544	0.518
1302.000	727.940	80.002	19.995	103.405	20.156	6.742	0.493
1304.000	728.932	79.999	19.995	103.334	20.160	6.425	0.498
1306.000	729.971	80.000	19.995	103.323	20.158	6.556	0.516
1308.000	730.982	80.002	19.995	103.318	20.160	6.419	0.539
1310.000	732.024	80.001	19.995	103.315	20.160	6.456	0.534
1312.001	733.053	79.999	19.995	103.306	20.162	6.329	0.514
1314.001	734.107	80.002	19.995	103.290	20.165	6.070	0.552
1316.000	735.128	80.001	19.996	103.276	20.169	5.804	0.529
1318.000	736.187	80.000	19.995	103.268	20.177	5.252	0.540
1320.000	737.187	80.002	19.995	103.243	20.179	5.127	0.484
1322.001	738.276	80.001	19.995	103.226	20.187	4.581	0.549
1324.001	739.333	80.002	19.995	103.198	20.194	4.151	0.534
1326.000	740.383	80.002	19.995	103.172	20.195	4.054	0.503
1328.000	741.453	80.000	19.995	103.156	20.197	3.907	0.497
1330.000	742.515	80.000	19.995	103.149	20.202	3.575	0.538
1331.500	743.308	80.000	19.995	103.141	20.207	3.267	0.540