File: 01_Data/Polyester_Carpet_High_Pile/MCC/Polyester_Carpet_High_Pile_MCC_30K_min_211027_R1.txt
Sample ID:	C:\MCC\MCC Cal\Test\Polyester_Carpet_HighPile_MCC_30K_min_211027_R1.txt
Sample Weight (mg):	4.74
Heating Rate (C/s):	0.5
Combustor Temp (C):	900
N2 Flow Rate (cc/min):	80
O2 Flow Rate (cc/min):	20
Calibration File:	C:\MCC\MCC Cal\Coeff1 JN10440_30_210304.txt.txt
T Correction Coefficients:	0	1.024463	0
Time Shift (s):	14
*
Time (s)	Temperature (C)	N2 flow rate (cc/min)	O2 flow rate (cc/min)	Flow Rate (cc/min)	Oxygen (%)	HRR (W/g)	Heating rate (C/s)
0.000	107.360	79.998	19.996	102.998	20.134	-0.446	0.011
2.000	107.369	79.999	19.995	102.986	20.134	-0.454	0.029
4.000	107.360	80.000	19.994	102.968	20.131	-0.204	0.029
6.000	107.332	79.999	19.995	102.978	20.129	-0.104	-0.043
8.000	107.362	79.999	19.996	102.986	20.128	-0.047	0.017
10.000	107.351	80.000	19.996	103.003	20.128	-0.011	-0.005
12.000	107.327	79.999	19.996	102.998	20.127	0.038	-0.015
14.001	107.366	79.995	19.996	103.032	20.125	0.210	0.000
16.000	107.409	79.997	19.996	103.041	20.120	0.543	0.007
18.000	107.431	79.995	19.997	103.047	20.118	0.687	0.004
20.000	107.487	79.996	19.997	103.076	20.110	1.186	0.032
22.000	107.590	79.997	19.997	103.112	20.112	1.078	0.024
24.000	107.697	79.996	19.997	103.125	20.110	1.212	0.036
26.000	107.838	79.996	19.997	103.124	20.101	1.813	0.037
28.000	108.016	79.995	19.997	103.127	20.102	1.710	0.086
30.000	108.215	79.994	19.996	103.163	20.100	1.850	0.114
32.000	108.459	79.996	19.997	103.197	20.100	1.879	0.124
34.000	108.683	79.998	19.996	103.180	20.102	1.757	0.124
36.000	108.976	79.996	19.996	103.195	20.097	2.110	0.121
38.001	109.290	79.997	19.995	103.178	20.098	2.038	0.136
40.000	109.592	79.996	19.995	103.164	20.099	1.974	0.118
42.000	109.976	79.996	19.994	103.172	20.098	2.002	0.176
44.000	110.329	79.995	19.997	103.183	20.094	2.260	0.199
46.000	110.745	79.995	19.996	103.183	20.094	2.258	0.232
48.000	111.156	79.997	19.996	103.192	20.094	2.298	0.204
50.000	111.561	79.997	19.996	103.187	20.094	2.294	0.221
52.000	112.044	79.997	19.997	103.197	20.091	2.486	0.267
54.000	112.491	79.996	19.996	103.195	20.098	2.014	0.228
56.000	112.971	79.998	19.995	103.187	20.093	2.330	0.233
58.001	113.499	79.999	19.995	103.190	20.095	2.199	0.262
60.000	114.016	79.999	19.995	103.208	20.095	2.197	0.273
62.000	114.522	79.999	19.996	103.216	20.097	2.105	0.264
64.001	115.108	79.999	19.996	103.220	20.094	2.277	0.277
66.000	115.648	79.998	19.996	103.203	20.096	2.182	0.285
68.000	116.265	80.000	19.995	103.201	20.094	2.287	0.310
70.001	116.806	79.997	19.996	103.205	20.096	2.145	0.291
72.000	117.505	79.999	19.995	103.201	20.094	2.306	0.311
74.000	118.134	80.000	19.996	103.200	20.091	2.486	0.316
76.000	118.774	80.000	19.995	103.200	20.089	2.655	0.349
78.001	119.423	79.999	19.995	103.218	20.092	2.430	0.315
80.001	120.121	79.999	19.996	103.238	20.088	2.690	0.368
82.000	120.834	79.998	19.995	103.238	20.091	2.477	0.353
84.000	121.576	79.999	19.996	103.238	20.094	2.320	0.365
86.000	122.307	79.998	19.996	103.238	20.091	2.490	0.388
88.000	122.979	80.001	19.996	103.244	20.090	2.583	0.339
90.001	123.763	79.998	19.996	103.260	20.088	2.706	0.373
92.001	124.515	79.996	19.995	103.255	20.085	2.908	0.424
94.001	125.294	79.998	19.996	103.243	20.089	2.627	0.376
96.000	126.129	79.998	19.996	103.242	20.087	2.754	0.438
98.002	126.930	79.996	19.997	103.252	20.085	2.868	0.415
100.000	127.771	79.997	19.996	103.252	20.084	2.937	0.398
102.000	128.569	79.997	19.996	103.262	20.088	2.708	0.404
104.000	129.421	79.996	19.996	103.270	20.086	2.861	0.411
106.000	130.293	79.995	19.997	103.259	20.087	2.746	0.423
108.000	131.123	79.998	19.996	103.252	20.090	2.572	0.429
110.000	132.041	79.996	19.997	103.257	20.087	2.768	0.476
112.000	132.903	79.997	19.998	103.240	20.084	2.958	0.440
114.001	133.798	79.998	19.998	103.239	20.086	2.846	0.469
116.000	134.719	79.997	19.997	103.254	20.090	2.570	0.460
118.001	135.610	79.997	19.997	103.263	20.088	2.689	0.440
120.000	136.556	79.997	19.998	103.239	20.087	2.750	0.477
122.001	137.478	79.996	19.996	103.238	20.089	2.606	0.480
124.000	138.432	79.995	19.997	103.239	20.088	2.680	0.469
126.000	139.308	79.997	19.995	103.258	20.088	2.686	0.471
128.000	140.283	79.996	19.995	103.259	20.088	2.664	0.480
130.000	141.263	79.998	19.996	103.244	20.087	2.738	0.503
132.000	142.187	79.997	19.996	103.262	20.086	2.820	0.472
134.000	143.161	79.996	19.996	103.254	20.088	2.721	0.507
136.000	144.161	79.999	19.995	103.256	20.086	2.817	0.513
138.000	145.111	79.999	19.996	103.261	20.086	2.827	0.490
140.000	146.113	79.999	19.996	103.239	20.087	2.746	0.489
142.000	147.053	80.000	19.996	103.245	20.086	2.861	0.450
144.000	148.059	79.999	19.995	103.236	20.089	2.651	0.490
146.000	149.055	79.998	19.995	103.228	20.088	2.669	0.468
148.000	150.071	79.998	19.995	103.228	20.086	2.803	0.504
150.000	151.050	79.998	19.996	103.237	20.083	3.034	0.509
152.000	152.038	79.998	19.996	103.238	20.086	2.799	0.475
154.000	153.106	79.998	19.996	103.239	20.087	2.786	0.511
156.000	154.067	79.998	19.996	103.246	20.088	2.695	0.502
158.000	155.081	79.997	19.995	103.190	20.088	2.719	0.530
160.000	156.079	79.997	19.996	103.281	20.089	2.653	0.493
162.001	157.078	80.000	19.994	103.302	20.091	2.467	0.522
164.000	158.056	80.000	19.994	103.250	20.090	2.550	0.468
166.000	159.061	80.000	19.994	103.256	20.090	2.537	0.487
168.000	160.118	80.000	19.996	103.236	20.091	2.457	0.522
170.000	161.094	80.001	19.994	103.239	20.090	2.544	0.470
172.001	162.127	79.999	19.995	103.222	20.090	2.539	0.489
174.000	163.130	80.000	19.996	103.222	20.090	2.534	0.488
176.000	164.196	79.997	19.997	103.218	20.096	2.136	0.525
178.000	165.187	79.998	19.995	103.219	20.097	2.086	0.512
180.000	166.206	79.997	19.996	103.212	20.099	1.967	0.503
182.000	167.162	79.996	19.996	103.233	20.108	1.349	0.464
184.000	168.250	79.995	19.996	103.240	20.108	1.317	0.518
186.000	169.201	79.997	19.997	103.238	20.111	1.161	0.497
188.000	170.261	79.998	19.996	103.238	20.108	1.362	0.510
190.000	171.251	79.996	19.997	103.235	20.108	1.362	0.497
192.000	172.200	79.998	19.996	103.230	20.109	1.260	0.465
194.000	173.224	79.996	19.997	103.226	20.104	1.582	0.478
196.000	174.213	79.998	19.996	103.224	20.101	1.818	0.476
198.001	175.204	79.999	19.998	103.217	20.103	1.686	0.496
200.000	176.197	79.997	19.997	103.207	20.100	1.883	0.498
202.000	177.186	79.999	19.996	103.201	20.097	2.059	0.483
204.000	178.200	79.999	19.997	103.200	20.091	2.464	0.475
206.000	179.209	79.997	19.997	103.199	20.094	2.271	0.548
208.000	180.198	79.998	19.997	103.186	20.090	2.527	0.501
210.000	181.169	79.997	19.997	103.185	20.089	2.654	0.504
212.000	182.164	79.996	19.996	103.180	20.092	2.421	0.487
214.000	183.168	79.996	19.996	103.181	20.089	2.640	0.489
216.000	184.120	80.000	19.995	103.172	20.091	2.489	0.482
218.000	185.103	79.998	19.996	103.182	20.091	2.485	0.487
220.000	186.114	79.999	19.996	103.197	20.089	2.627	0.519
222.000	187.106	79.999	19.995	103.197	20.090	2.529	0.460
224.000	188.081	79.999	19.994	103.198	20.091	2.502	0.476
226.000	189.075	79.999	19.995	103.192	20.091	2.497	0.499
228.000	190.099	79.997	19.996	103.198	20.088	2.663	0.519
230.000	191.067	79.998	19.994	103.203	20.093	2.341	0.522
232.000	192.008	79.999	19.995	103.192	20.092	2.440	0.454
234.000	192.964	79.998	19.996	103.200	20.092	2.402	0.498
236.000	193.970	79.998	19.995	103.207	20.093	2.349	0.498
238.000	194.942	79.999	19.995	103.205	20.090	2.538	0.476
240.000	195.945	79.997	19.996	103.203	20.094	2.303	0.462
242.000	196.895	79.999	19.996	103.202	20.092	2.394	0.509
244.001	197.920	80.000	19.995	103.200	20.093	2.379	0.526
246.000	198.881	80.001	19.996	103.199	20.092	2.404	0.463
248.000	199.910	80.001	19.995	103.196	20.091	2.470	0.513
250.000	200.943	80.001	19.996	103.197	20.092	2.415	0.507
252.000	201.841	80.000	19.996	103.195	20.093	2.351	0.494
254.000	202.878	80.000	19.995	103.197	20.098	2.042	0.520
256.000	203.866	79.999	19.996	103.200	20.096	2.152	0.495
258.000	204.862	79.998	19.996	103.201	20.099	1.977	0.491
260.000	205.854	79.997	19.996	103.197	20.094	2.288	0.483
262.000	206.887	79.996	19.997	103.201	20.096	2.152	0.466
264.000	207.897	79.998	19.996	103.185	20.096	2.148	0.511
266.000	208.942	79.998	19.996	103.190	20.095	2.203	0.529
268.000	209.956	79.998	19.997	103.195	20.096	2.159	0.521
270.000	210.952	79.999	19.997	103.193	20.099	1.922	0.482
272.001	211.970	79.997	19.996	103.195	20.101	1.799	0.503
274.001	212.970	79.998	19.997	103.184	20.098	1.987	0.495
276.000	213.962	79.997	19.996	103.192	20.099	1.920	0.532
278.000	214.973	79.998	19.997	103.179	20.101	1.812	0.516
280.001	215.991	79.997	19.997	103.191	20.098	2.025	0.502
282.001	216.971	79.998	19.996	103.182	20.099	1.936	0.477
284.000	217.990	79.998	19.995	103.187	20.098	1.989	0.483
286.000	219.008	79.998	19.995	103.175	20.099	1.953	0.487
288.000	220.007	79.996	19.995	103.168	20.100	1.905	0.504
290.000	221.002	79.996	19.996	103.189	20.101	1.805	0.491
292.000	222.003	79.996	19.997	103.193	20.100	1.898	0.532
294.000	223.019	79.996	19.996	103.201	20.103	1.668	0.496
296.000	224.003	79.997	19.997	103.195	20.101	1.825	0.507
298.000	225.010	79.995	19.997	103.193	20.102	1.725	0.495
300.000	225.994	79.996	19.997	103.190	20.103	1.704	0.509
302.000	226.986	79.996	19.996	103.181	20.105	1.541	0.502
304.000	227.979	79.997	19.997	103.179	20.104	1.577	0.489
306.000	229.071	79.999	19.996	103.172	20.103	1.685	0.553
308.000	230.036	79.999	19.996	103.168	20.103	1.647	0.515
310.000	231.024	79.997	19.997	103.168	20.103	1.691	0.500
312.001	232.043	79.997	19.996	103.159	20.102	1.740	0.526
314.000	233.057	79.998	19.996	103.160	20.102	1.772	0.488
316.000	234.003	79.998	19.995	103.162	20.103	1.700	0.467
318.000	234.936	79.997	19.995	103.161	20.102	1.757	0.463
320.000	235.944	79.997	19.996	103.161	20.103	1.659	0.505
322.000	236.953	79.996	19.996	103.165	20.104	1.577	0.476
324.000	237.973	79.999	19.995	103.162	20.102	1.727	0.488
326.000	238.919	79.998	19.996	103.162	20.101	1.789	0.493
328.000	239.918	79.999	19.997	103.163	20.105	1.570	0.496
330.000	240.881	80.000	19.996	103.165	20.104	1.634	0.499
332.000	241.893	79.999	19.995	103.167	20.103	1.699	0.519
334.000	242.869	79.998	19.996	103.167	20.105	1.517	0.508
336.000	243.885	79.998	19.995	103.160	20.105	1.542	0.504
338.000	244.872	79.999	19.995	103.170	20.106	1.504	0.519
340.000	245.873	79.996	19.996	103.165	20.105	1.568	0.516
342.000	246.833	79.996	19.998	103.178	20.104	1.610	0.497
344.000	247.859	79.997	19.995	103.169	20.105	1.538	0.471
346.000	248.850	79.996	19.996	103.175	20.103	1.699	0.513
348.000	249.859	79.996	19.995	103.172	20.102	1.742	0.532
350.000	250.876	79.997	19.996	103.164	20.107	1.435	0.473
352.000	251.890	79.997	19.996	103.169	20.108	1.327	0.509
354.000	252.879	79.996	19.995	103.174	20.106	1.449	0.489
356.000	253.839	79.997	19.996	103.162	20.109	1.252	0.476
358.000	254.798	79.997	19.996	103.162	20.111	1.161	0.444
360.000	255.807	79.997	19.996	103.161	20.107	1.401	0.493
362.000	256.798	79.995	19.995	103.160	20.110	1.168	0.474
364.000	257.799	79.998	19.996	103.161	20.112	1.064	0.522
366.000	258.835	79.996	19.996	103.170	20.108	1.367	0.516
368.000	259.788	79.996	19.996	103.161	20.110	1.225	0.466
370.000	260.797	79.995	19.996	103.161	20.108	1.310	0.514
372.000	261.776	79.997	19.996	103.158	20.109	1.242	0.502
374.000	262.725	79.995	19.996	103.157	20.111	1.132	0.463
376.000	263.725	79.996	19.996	103.159	20.110	1.191	0.527
378.001	264.716	79.996	19.997	103.148	20.109	1.255	0.499
380.000	265.658	79.997	19.997	103.144	20.111	1.159	0.485
382.000	266.623	79.996	19.997	103.137	20.112	1.064	0.493
384.000	267.630	79.998	19.996	103.138	20.112	1.094	0.516
386.000	268.594	79.997	19.996	103.150	20.112	1.096	0.473
388.000	269.510	79.998	19.996	103.152	20.113	0.985	0.440
390.000	270.530	79.997	19.995	103.150	20.110	1.231	0.531
392.000	271.546	79.999	19.997	103.149	20.110	1.178	0.539
394.000	272.533	79.997	19.997	103.140	20.112	1.062	0.487
396.000	273.526	79.998	19.997	103.152	20.113	1.003	0.472
398.000	274.497	80.000	19.996	103.159	20.111	1.108	0.502
400.000	275.477	79.999	19.996	103.160	20.113	0.992	0.520
402.000	276.437	79.998	19.996	103.160	20.113	0.979	0.474
404.000	277.446	79.998	19.996	103.161	20.114	0.922	0.504
406.000	278.425	80.000	19.994	103.160	20.114	0.928	0.503
408.000	279.433	80.000	19.996	103.149	20.112	1.032	0.495
410.000	280.405	80.000	19.995	103.155	20.114	0.939	0.487
412.000	281.393	79.997	19.995	103.155	20.116	0.812	0.476
414.000	282.375	80.000	19.994	103.156	20.115	0.892	0.517
416.000	283.398	80.002	19.992	103.160	20.114	0.946	0.503
418.000	284.330	79.997	19.997	103.154	20.108	1.321	0.473
420.000	285.350	79.999	19.995	103.154	20.111	1.102	0.509
422.000	286.359	79.997	19.993	103.159	20.113	0.990	0.509
424.001	287.336	79.997	19.994	103.163	20.110	1.202	0.506
426.000	288.331	79.997	19.994	103.144	20.108	1.348	0.507
428.000	289.300	79.995	19.997	103.132	20.108	1.346	0.498
430.000	290.272	80.000	19.993	103.146	20.109	1.289	0.464
432.000	291.284	79.999	19.994	103.145	20.109	1.282	0.479
434.000	292.243	79.997	19.994	103.153	20.110	1.174	0.499
436.000	293.280	79.992	19.999	103.159	20.111	1.129	0.515
438.000	294.238	80.000	19.993	103.163	20.112	1.094	0.490
440.000	295.249	79.996	19.997	103.156	20.114	0.897	0.491
442.000	296.279	79.998	19.993	103.143	20.115	0.894	0.540
444.000	297.271	79.999	19.995	103.146	20.109	1.259	0.491
446.000	298.289	80.001	19.986	103.160	20.111	1.125	0.526
448.000	299.259	79.994	19.999	103.159	20.108	1.305	0.490
450.000	300.315	79.996	19.996	103.158	20.108	1.348	0.507
452.000	301.324	80.000	19.993	103.151	20.110	1.185	0.517
454.000	302.333	79.995	19.996	103.144	20.107	1.380	0.518
456.000	303.336	79.997	19.997	103.143	20.108	1.340	0.496
458.000	304.328	80.000	19.994	103.157	20.111	1.126	0.520
460.000	305.321	79.997	19.998	103.153	20.105	1.571	0.507
462.000	306.339	79.998	19.997	103.145	20.105	1.541	0.497
464.000	307.327	79.997	19.992	103.159	20.105	1.564	0.514
466.000	308.373	79.999	19.993	103.152	20.102	1.770	0.506
468.000	309.344	79.997	19.998	103.133	20.103	1.695	0.491
470.000	310.376	79.999	19.996	103.132	20.100	1.867	0.512
472.000	311.411	79.998	19.996	103.163	20.102	1.766	0.531
474.000	312.420	79.997	19.997	103.162	20.101	1.819	0.536
476.000	313.430	79.996	19.998	103.157	20.098	2.033	0.526
478.000	314.473	80.001	19.995	103.160	20.099	1.950	0.508
480.000	315.464	79.997	19.994	103.162	20.094	2.313	0.492
482.000	316.471	79.999	19.996	103.158	20.096	2.145	0.508
484.000	317.507	79.996	19.997	103.132	20.094	2.281	0.500
486.000	318.500	79.998	19.995	103.141	20.092	2.404	0.503
488.000	319.529	79.999	19.995	103.143	20.088	2.662	0.513
490.000	320.509	79.998	19.997	103.139	20.090	2.568	0.486
492.000	321.562	79.999	19.995	103.141	20.088	2.664	0.506
494.000	322.522	79.993	20.001	103.137	20.085	2.912	0.506
496.000	323.520	79.997	19.998	103.144	20.084	2.990	0.521
498.000	324.531	79.997	20.000	103.147	20.080	3.204	0.537
500.000	325.519	79.999	19.997	103.158	20.082	3.081	0.509
502.000	326.512	80.000	19.995	103.153	20.075	3.575	0.494
504.000	327.606	79.999	19.994	103.149	20.076	3.539	0.553
506.000	328.548	79.996	19.997	103.160	20.071	3.831	0.477
508.000	329.589	79.998	19.992	103.158	20.065	4.253	0.505
510.000	330.628	79.996	19.993	103.155	20.064	4.298	0.515
512.000	331.621	79.994	19.994	103.161	20.060	4.586	0.508
514.000	332.658	79.998	19.997	103.161	20.056	4.876	0.522
516.001	333.639	79.993	19.999	103.163	20.050	5.279	0.492
518.001	334.654	80.003	19.990	103.160	20.050	5.264	0.478
520.000	335.661	79.996	19.995	103.159	20.043	5.777	0.487
522.001	336.639	79.997	19.992	103.158	20.040	5.921	0.480
524.000	337.662	80.002	19.992	103.163	20.037	6.160	0.511
526.000	338.633	79.999	19.994	103.159	20.033	6.461	0.487
528.000	339.689	80.001	19.992	103.162	20.028	6.781	0.533
530.000	340.622	79.998	19.998	103.163	20.022	7.154	0.468
532.000	341.648	79.998	19.995	103.163	20.019	7.347	0.500
534.000	342.629	79.996	19.995	103.164	20.014	7.703	0.488
536.000	343.620	79.998	19.997	103.165	20.013	7.766	0.516
538.000	344.669	79.995	19.993	103.170	20.006	8.258	0.515
540.000	345.644	79.997	19.994	103.166	20.000	8.648	0.494
542.000	346.685	79.996	19.997	103.169	19.999	8.767	0.500
544.000	347.641	79.996	19.996	103.166	19.993	9.123	0.499
546.000	348.709	80.000	19.995	103.165	19.986	9.589	0.541
548.000	349.700	79.999	19.993	103.166	19.986	9.640	0.497
550.000	350.732	79.999	19.995	103.167	19.985	9.659	0.519
552.000	351.746	79.998	19.994	103.163	19.982	9.888	0.532
554.000	352.732	79.998	19.993	103.162	19.974	10.420	0.494
556.000	353.763	79.999	19.997	103.162	19.973	10.511	0.495
558.000	354.775	79.997	19.993	103.162	19.968	10.808	0.481
560.000	355.771	79.997	19.995	103.164	19.962	11.238	0.511
562.000	356.724	79.998	19.995	103.163	19.961	11.301	0.472
564.000	357.812	79.999	19.998	103.164	19.961	11.349	0.516
566.000	358.795	79.998	19.995	103.160	19.957	11.619	0.517
568.000	359.769	80.002	19.995	103.157	19.951	11.969	0.471
570.000	360.780	79.992	20.003	103.159	19.952	11.923	0.502
572.000	361.804	80.003	19.992	103.160	19.951	12.000	0.507
574.000	362.797	79.997	20.000	103.158	19.944	12.453	0.507
576.000	363.799	80.001	19.993	103.159	19.942	12.586	0.499
578.000	364.810	79.999	19.996	103.164	19.943	12.508	0.513
580.000	365.843	80.000	19.996	103.158	19.941	12.681	0.518
582.000	366.823	79.996	19.997	103.165	19.940	12.751	0.483
584.000	367.832	79.998	19.995	103.158	19.933	13.217	0.489
586.000	368.864	79.996	19.996	103.160	19.933	13.220	0.537
588.000	369.885	79.999	19.990	103.157	19.931	13.332	0.534
590.000	370.889	79.998	19.999	103.162	19.928	13.588	0.521
592.000	371.915	80.001	19.999	103.160	19.926	13.679	0.513
594.002	372.909	79.993	20.001	103.163	19.925	13.753	0.531
596.000	373.985	79.999	19.998	103.160	19.923	13.874	0.511
598.001	374.967	79.997	19.997	103.159	19.921	14.048	0.482
600.000	376.013	79.995	19.998	103.161	19.916	14.347	0.524
602.000	377.019	79.996	19.994	103.165	19.919	14.186	0.550
604.000	378.001	79.998	19.995	103.167	19.916	14.391	0.509
606.000	379.004	79.998	19.994	103.168	19.915	14.440	0.515
608.000	380.059	79.998	19.996	103.162	19.911	14.687	0.548
610.000	381.042	79.998	19.994	103.161	19.913	14.587	0.518
612.000	382.092	79.998	19.996	103.162	19.910	14.785	0.531
614.000	383.038	79.998	19.995	103.162	19.905	15.115	0.454
616.000	384.073	79.999	19.995	103.161	19.904	15.203	0.494
618.000	385.081	79.998	19.994	103.161	19.901	15.384	0.469
620.000	386.155	79.998	19.995	103.156	19.889	16.210	0.538
622.000	387.169	79.998	19.995	103.164	19.884	16.526	0.492
624.000	388.201	79.997	19.996	103.165	19.882	16.713	0.513
626.001	389.174	80.000	19.991	103.164	19.876	17.098	0.447
628.000	390.265	79.997	19.996	103.165	19.876	17.114	0.566
630.001	391.283	79.998	19.995	103.168	19.869	17.599	0.606
632.000	392.114	79.999	19.995	103.175	19.863	17.976	0.565
634.000	393.346	80.001	19.993	103.184	19.859	18.250	0.557
636.000	394.127	80.000	19.996	103.170	19.854	18.614	0.154
638.000	395.292	79.999	19.996	103.196	19.850	18.870	0.485
640.000	396.268	79.997	19.998	103.184	19.839	19.569	0.434
642.000	397.413	79.999	19.994	103.185	19.837	19.778	0.522
644.000	398.365	79.997	19.996	103.196	19.827	20.423	0.496
646.001	399.307	79.999	19.995	103.189	19.819	20.969	0.495
648.000	400.379	79.999	19.996	103.173	19.810	21.557	0.492
650.000	401.375	79.999	19.995	103.176	19.803	22.026	0.538
652.000	402.361	79.999	19.996	103.184	19.795	22.608	0.515
654.000	403.357	80.001	19.995	103.203	19.784	23.326	0.541
656.000	404.355	79.999	19.994	103.190	19.776	23.862	0.510
658.000	405.309	80.000	19.995	103.180	19.762	24.856	0.474
660.000	406.309	80.002	19.997	103.196	19.749	25.711	0.472
662.000	407.303	79.999	19.995	103.194	19.739	26.396	0.483
664.000	408.315	80.000	19.995	103.187	19.722	27.558	0.499
666.000	409.297	79.999	19.995	103.199	19.714	28.150	0.500
668.000	410.287	79.996	19.997	103.202	19.700	29.054	0.479
670.000	411.316	79.999	19.997	103.203	19.686	30.025	0.528
672.000	412.278	79.997	19.997	103.215	19.670	31.118	0.464
674.000	413.281	79.995	19.998	103.232	19.655	32.128	0.515
676.000	414.292	79.997	19.995	103.254	19.640	33.121	0.531
678.000	415.289	79.996	19.996	103.254	19.625	34.181	0.532
680.000	416.260	79.998	19.995	103.206	19.603	35.628	0.472
682.000	417.277	79.998	19.995	103.203	19.585	36.856	0.515
684.000	418.271	79.997	19.995	103.233	19.562	38.481	0.502
686.000	419.238	79.998	19.995	103.253	19.543	39.741	0.481
688.000	420.256	79.997	19.996	103.252	19.526	40.901	0.506
690.000	421.278	79.999	19.995	103.247	19.501	42.599	0.511
692.000	422.280	79.997	19.995	103.254	19.482	43.913	0.517
694.000	423.227	79.997	19.998	103.274	19.460	45.407	0.472
696.000	424.234	79.998	19.996	103.282	19.441	46.665	0.493
698.000	425.243	79.997	19.996	103.277	19.417	48.287	0.497
700.000	426.259	79.997	19.996	103.277	19.394	49.865	0.505
702.000	427.247	79.998	19.996	103.276	19.372	51.403	0.496
704.000	428.235	79.998	19.997	103.274	19.347	53.115	0.486
706.000	429.266	79.996	19.997	103.278	19.328	54.384	0.484
708.000	430.298	79.998	19.995	103.287	19.308	55.733	0.515
710.000	431.339	79.998	19.997	103.279	19.289	57.032	0.502
712.000	432.392	79.999	19.997	103.293	19.266	58.607	0.539
714.000	433.393	79.998	19.996	103.313	19.248	59.837	0.523
716.000	434.468	79.999	19.999	103.303	19.230	61.051	0.544
718.000	435.469	80.002	19.995	103.308	19.206	62.669	0.496
720.000	436.533	79.999	19.995	103.315	19.189	63.849	0.551
722.000	437.573	80.000	19.994	103.316	19.174	64.877	0.527
724.000	438.576	79.999	19.996	103.319	19.160	65.791	0.510
726.000	439.639	79.999	19.994	103.318	19.150	66.462	0.504
728.000	440.651	79.998	19.996	103.317	19.139	67.245	0.519
730.000	441.718	79.998	19.996	103.318	19.133	67.634	0.543
732.000	442.730	79.997	19.998	103.313	19.132	67.717	0.527
734.000	443.763	79.997	19.996	103.297	19.136	67.421	0.518
736.000	444.762	79.998	19.995	103.288	19.140	67.099	0.509
738.000	445.794	79.999	19.995	103.281	19.150	66.417	0.523
740.000	446.808	80.000	19.995	103.280	19.164	65.441	0.528
742.000	447.808	80.000	19.995	103.275	19.185	64.007	0.502
744.001	448.830	79.999	19.996	103.271	19.205	62.703	0.500
746.000	449.839	79.998	19.996	103.246	19.232	60.820	0.512
748.000	450.859	80.001	20.001	103.239	19.264	58.701	0.479
750.001	451.843	79.998	19.996	103.219	19.294	56.646	0.527
752.000	452.856	79.996	19.995	103.208	19.326	54.418	0.494
754.000	453.891	79.998	19.994	103.214	19.364	51.880	0.534
756.000	454.856	80.000	19.996	103.215	19.397	49.602	0.510
758.000	455.829	79.997	19.998	103.203	19.433	47.192	0.507
760.000	456.801	79.997	19.996	103.199	19.470	44.623	0.493
762.000	457.824	79.996	19.998	103.179	19.509	42.021	0.513
764.001	458.798	79.996	19.998	103.175	19.542	39.766	0.493
766.000	459.810	79.998	19.996	103.166	19.564	38.247	0.491
768.000	460.789	79.996	19.997	103.159	19.586	36.728	0.500
770.000	461.743	79.998	19.996	103.149	19.599	35.845	0.485
772.000	462.774	79.998	19.996	103.126	19.607	35.359	0.500
774.000	463.738	79.998	19.996	103.123	19.613	34.887	0.483
776.000	464.715	79.997	19.996	103.104	19.610	35.092	0.521
778.000	465.737	79.999	19.996	103.087	19.606	35.393	0.506
780.000	466.748	79.997	19.997	103.084	19.597	36.016	0.538
782.000	467.743	79.997	19.997	103.079	19.586	36.770	0.518
784.000	468.747	79.998	19.997	103.077	19.571	37.737	0.492
786.000	469.780	79.999	19.997	103.082	19.558	38.619	0.506
788.000	470.820	79.998	19.996	103.082	19.543	39.640	0.528
790.000	471.829	79.998	19.996	103.083	19.522	41.056	0.510
792.000	472.875	79.999	19.995	103.083	19.506	42.182	0.523
794.000	473.858	79.999	19.997	103.082	19.491	43.167	0.531
796.000	474.952	80.001	19.996	103.082	19.478	44.062	0.502
798.000	475.977	80.000	19.996	103.078	19.464	45.014	0.529
800.000	476.993	79.999	19.995	103.048	19.455	45.589	0.521
802.000	478.032	80.000	19.995	103.044	19.447	46.130	0.529
804.000	479.068	80.000	19.995	103.028	19.456	45.559	0.491
806.000	480.077	79.998	19.995	103.008	19.472	44.453	0.494
808.000	481.087	79.998	19.995	103.000	19.501	42.507	0.510
810.000	482.182	79.998	19.995	102.997	19.542	39.769	0.507
812.000	483.181	79.999	19.995	102.988	19.591	36.377	0.528
814.000	484.218	79.999	19.996	102.998	19.646	32.655	0.518
816.001	485.184	79.998	19.995	103.011	19.707	28.541	0.473
818.000	486.250	79.998	19.995	103.044	19.765	24.627	0.541
820.000	487.270	79.999	19.994	103.064	19.820	20.882	0.506
822.000	488.313	80.000	19.996	103.083	19.866	17.786	0.505
824.000	489.362	80.001	19.995	103.056	19.909	14.815	0.507
826.001	490.356	80.001	19.997	103.051	19.950	12.039	0.500
828.000	491.359	80.000	19.997	103.065	19.987	9.542	0.497
830.000	492.372	79.999	19.996	103.071	20.012	7.827	0.508
832.000	493.423	79.997	19.998	103.083	20.034	6.362	0.506
834.000	494.444	79.998	19.997	103.086	20.056	4.863	0.521
836.000	495.463	79.998	19.996	103.083	20.069	3.954	0.507
838.000	496.461	79.997	19.996	103.084	20.081	3.145	0.504
840.001	497.494	79.998	19.996	103.085	20.084	2.933	0.514
842.000	498.540	79.998	19.996	103.073	20.092	2.395	0.525
844.000	499.510	79.998	19.997	103.079	20.095	2.193	0.491
846.000	500.503	79.998	19.997	103.089	20.101	1.824	0.504
848.000	501.541	79.998	19.996	103.083	20.099	1.975	0.535
850.000	502.541	79.998	19.997	103.081	20.103	1.690	0.483
852.000	503.518	79.998	19.997	103.080	20.099	1.924	0.490
854.000	504.479	79.997	19.997	103.081	20.105	1.506	0.490
856.000	505.492	79.997	19.997	103.089	20.105	1.567	0.449
858.000	506.479	79.998	19.997	103.087	20.105	1.569	0.515
860.000	507.456	79.996	19.998	103.083	20.104	1.576	0.507
862.001	508.402	79.997	19.998	103.084	20.103	1.665	0.485
864.000	509.401	79.996	19.996	103.088	20.103	1.641	0.489
866.000	510.366	79.998	19.995	103.086	20.108	1.351	0.500
868.000	511.353	79.998	19.995	103.088	20.106	1.487	0.490
870.000	512.333	79.998	19.996	103.102	20.109	1.263	0.490
872.000	513.310	79.999	19.996	103.103	20.108	1.350	0.498
874.000	514.289	79.999	19.995	103.095	20.111	1.115	0.503
876.000	515.286	80.000	19.996	103.102	20.109	1.281	0.478
878.000	516.292	79.999	19.995	103.085	20.111	1.147	0.501
880.000	517.323	80.000	19.996	103.056	20.109	1.270	0.519
882.000	518.351	80.000	19.996	103.164	20.105	1.571	0.530
884.000	519.403	79.999	19.996	103.112	20.110	1.204	0.509
886.000	520.461	79.999	19.996	103.097	20.110	1.225	0.540
888.000	521.459	79.999	19.996	103.090	20.106	1.452	0.515
890.000	522.473	79.999	19.995	103.096	20.106	1.478	0.511
892.000	523.551	80.000	19.997	103.100	20.110	1.213	0.532
894.001	524.585	79.999	19.996	103.109	20.110	1.202	0.527
896.001	525.662	79.999	19.996	103.119	20.106	1.474	0.505
898.000	526.730	80.000	19.995	103.119	20.110	1.213	0.536
900.000	527.856	80.000	19.996	103.114	20.111	1.149	0.555
902.000	528.889	80.002	19.996	103.113	20.112	1.060	0.540
904.000	529.979	80.000	19.996	103.109	20.111	1.098	0.560
906.000	531.097	80.001	19.994	103.099	20.113	0.963	0.549
908.000	532.162	80.000	19.994	103.100	20.111	1.162	0.564
910.000	533.183	79.999	19.996	103.089	20.109	1.257	0.512
912.000	534.313	79.998	19.997	103.089	20.105	1.510	0.583
914.000	535.373	79.997	19.996	103.100	20.114	0.933	0.530
916.000	536.486	79.999	19.996	103.091	20.109	1.264	0.566
918.000	537.548	79.997	19.996	103.090	20.109	1.234	0.526
920.000	538.653	79.997	19.997	103.105	20.112	1.033	0.532
922.000	539.689	79.997	19.997	103.110	20.111	1.105	0.517
924.000	540.771	79.998	19.996	103.117	20.113	1.018	0.557
926.000	541.803	79.998	19.996	103.120	20.113	0.978	0.504
928.000	542.920	79.998	19.996	103.113	20.112	1.052	0.570
930.000	543.953	79.997	19.995	103.087	20.114	0.918	0.529
932.001	545.007	79.999	19.995	103.098	20.112	1.056	0.515
934.000	546.085	79.998	19.995	103.096	20.112	1.060	0.519
936.000	547.124	79.998	19.996	103.101	20.109	1.249	0.539
938.000	548.188	79.998	19.997	103.095	20.108	1.308	0.553
940.000	549.213	79.998	19.997	103.087	20.108	1.340	0.537
942.000	550.252	79.996	19.995	103.100	20.113	1.011	0.524
944.000	551.307	79.997	19.996	103.110	20.107	1.389	0.493
946.000	552.330	79.996	19.997	103.096	20.110	1.213	0.511
948.000	553.334	79.996	19.997	103.106	20.108	1.357	0.531
950.000	554.395	79.995	19.998	103.091	20.107	1.429	0.535
952.000	555.425	79.996	19.997	103.096	20.105	1.565	0.527
954.000	556.431	79.998	19.998	103.103	20.107	1.434	0.517
956.000	557.438	79.998	19.996	103.089	20.107	1.410	0.519
958.000	558.395	79.999	19.996	103.088	20.105	1.542	0.474
960.000	559.440	79.998	19.995	103.099	20.105	1.546	0.534
962.000	560.429	80.000	19.995	103.091	20.101	1.788	0.481
964.000	561.475	79.999	19.995	103.093	20.098	2.031	0.541
966.000	562.428	79.999	19.994	103.097	20.093	2.349	0.470
968.000	563.463	79.998	19.995	103.103	20.094	2.303	0.510
970.000	564.433	79.999	19.995	103.103	20.090	2.555	0.489
972.000	565.437	79.998	19.995	103.095	20.086	2.850	0.487
974.001	566.419	79.999	19.995	103.107	20.083	3.002	0.501
976.000	567.417	80.000	19.995	103.113	20.081	3.191	0.520
978.000	568.399	80.000	19.996	103.120	20.075	3.600	0.480
980.000	569.377	80.001	19.996	103.121	20.069	3.967	0.489
982.000	570.375	79.999	19.997	103.121	20.064	4.305	0.496
984.001	571.297	80.001	19.995	103.119	20.057	4.789	0.463
986.000	572.340	80.002	19.995	103.120	20.051	5.201	0.501
988.001	573.299	79.999	19.994	103.119	20.043	5.724	0.500
990.000	574.313	80.001	19.995	103.115	20.037	6.122	0.492
992.000	575.301	79.999	19.995	103.107	20.029	6.718	0.495
994.000	576.319	79.998	19.996	103.116	20.023	7.088	0.490
996.000	577.263	79.999	19.997	103.124	20.013	7.790	0.471
998.000	578.260	79.998	19.995	103.124	20.005	8.305	0.485
1000.000	579.287	79.998	19.996	103.125	19.998	8.801	0.470
1002.000	580.287	79.997	19.996	103.145	19.986	9.596	0.527
1004.000	581.286	79.998	19.995	103.150	19.973	10.493	0.500
1006.000	582.315	79.997	19.996	103.144	19.963	11.159	0.495
1008.000	583.353	79.997	19.996	103.127	19.953	11.888	0.520
1010.000	584.395	79.998	19.996	103.149	19.940	12.737	0.507
1012.000	585.428	79.997	19.998	103.161	19.932	13.263	0.535
1014.000	586.490	79.999	19.996	103.142	19.923	13.894	0.537
1016.000	587.500	79.998	19.996	103.141	19.913	14.595	0.532
1018.000	588.484	79.997	19.999	103.136	19.900	15.474	0.493
1020.000	589.531	79.998	19.997	103.163	19.893	15.953	0.503
1022.000	590.573	80.000	19.997	103.175	19.886	16.382	0.492
1024.000	591.571	79.997	19.996	103.174	19.875	17.163	0.515
1026.000	592.593	79.997	19.996	103.161	19.867	17.723	0.499
1028.000	593.655	79.998	19.996	103.160	19.857	18.375	0.530
1030.000	594.695	79.997	19.996	103.160	19.849	18.910	0.505
1032.001	595.717	79.998	19.996	103.160	19.837	19.716	0.541
1034.000	596.707	79.997	19.996	103.161	19.828	20.357	0.508
1036.000	597.755	79.998	19.997	103.159	19.820	20.927	0.496
1038.000	598.763	79.998	19.997	103.159	19.813	21.399	0.521
1040.000	599.819	80.000	19.997	103.171	19.807	21.744	0.519
1042.000	600.823	80.000	19.998	103.176	19.803	22.079	0.515
1044.000	601.863	79.998	19.997	103.173	19.792	22.768	0.496
1046.000	602.855	80.000	19.996	103.175	19.791	22.876	0.483
1048.000	603.906	79.998	19.996	103.177	19.788	23.039	0.511
1050.000	604.923	79.999	19.996	103.180	19.784	23.328	0.518
1052.000	605.933	79.999	19.996	103.163	19.784	23.361	0.535
1054.001	606.953	79.998	19.995	103.163	19.782	23.441	0.513
1056.000	607.976	79.999	19.995	103.176	19.785	23.242	0.514
1058.001	608.986	79.999	19.995	103.177	19.789	22.991	0.505
1060.001	609.992	80.000	19.995	103.172	19.794	22.637	0.503
1062.000	611.024	80.000	19.995	103.184	19.804	21.976	0.504
1064.000	612.007	80.001	19.996	103.187	19.817	21.066	0.507
1066.000	613.074	80.000	19.996	103.172	19.828	20.343	0.522
1068.000	614.131	80.000	19.995	103.181	19.847	19.065	0.520
1070.000	615.128	80.001	19.996	103.163	19.862	18.025	0.510
1072.000	616.196	79.999	19.995	103.171	19.884	16.550	0.499
1074.000	617.210	79.999	19.995	103.148	19.907	15.005	0.545
1076.000	618.268	79.998	19.994	103.114	19.932	13.257	0.496
1078.000	619.260	79.998	19.995	103.078	19.963	11.148	0.520
1080.000	620.312	79.998	19.995	103.200	19.995	9.021	0.516
1082.000	621.322	79.999	19.995	103.143	20.019	7.376	0.487
1084.000	622.363	79.998	19.995	103.138	20.045	5.592	0.486
1086.000	623.368	79.999	19.995	103.150	20.065	4.236	0.500
1088.000	624.366	79.998	19.995	103.144	20.078	3.391	0.494
1090.000	625.374	79.998	19.996	103.125	20.087	2.768	0.499
1092.000	626.386	79.999	19.994	103.108	20.093	2.324	0.496
1094.001	627.409	79.999	19.995	103.090	20.100	1.884	0.508
1096.000	628.373	79.999	19.995	103.090	20.102	1.743	0.478
1098.000	629.396	79.998	19.995	103.071	20.106	1.499	0.496
1100.000	630.454	79.997	19.996	103.056	20.109	1.295	0.537
1102.000	631.495	79.998	19.997	103.153	20.109	1.253	0.521
1104.000	632.530	79.996	19.996	103.091	20.111	1.120	0.521
1106.000	633.574	79.999	19.996	103.087	20.112	1.060	0.522
1108.000	634.674	79.997	19.996	103.117	20.111	1.124	0.535
1110.000	635.737	79.997	19.996	103.124	20.113	1.016	0.538
1112.000	636.802	79.998	19.997	103.109	20.114	0.935	0.521
1114.000	637.857	79.998	19.997	103.099	20.113	1.009	0.513
1116.001	638.885	79.998	19.997	103.113	20.113	0.992	0.506
1118.000	639.939	79.998	19.996	103.098	20.115	0.838	0.484
1120.000	640.927	79.998	19.995	103.108	20.113	0.988	0.486
1122.000	641.929	79.999	19.996	103.110	20.109	1.234	0.502
1124.000	642.984	79.998	19.997	103.116	20.111	1.113	0.521
1126.000	643.984	79.999	19.996	103.101	20.115	0.867	0.490
1128.001	644.956	79.998	19.997	103.113	20.113	0.971	0.473
1130.000	645.966	79.998	19.996	103.120	20.113	1.017	0.516
1132.000	646.980	79.999	19.997	103.123	20.110	1.176	0.486
1134.000	647.961	79.999	19.996	103.126	20.111	1.145	0.480
1136.000	648.965	79.998	19.997	103.154	20.114	0.909	0.537
1138.000	649.946	79.998	19.996	103.118	20.113	0.988	0.502
1140.000	650.964	79.999	19.996	103.130	20.115	0.827	0.504
1142.000	651.918	79.999	19.996	103.155	20.114	0.960	0.464
1144.000	652.947	79.998	19.995	103.128	20.112	1.092	0.502
1146.000	653.920	80.001	19.994	103.121	20.111	1.158	0.499
1148.001	654.973	80.000	19.995	103.142	20.113	0.982	0.517
1150.000	655.963	80.001	19.996	103.136	20.109	1.261	0.504
1152.000	656.912	80.001	19.995	103.126	20.110	1.225	0.482
1154.000	657.899	80.001	19.995	103.123	20.109	1.263	0.485
1156.000	658.904	79.998	19.996	103.121	20.108	1.310	0.489
1158.000	659.874	79.999	19.996	103.120	20.107	1.414	0.472
1160.000	660.887	79.997	19.997	103.121	20.105	1.561	0.476
1162.000	661.882	79.997	19.996	103.141	20.104	1.576	0.484
1164.000	662.905	79.997	19.996	103.146	20.104	1.585	0.505
1166.000	663.921	79.997	19.996	103.134	20.105	1.551	0.503
1168.001	664.934	79.998	19.995	103.150	20.104	1.640	0.502
1170.002	665.992	79.999	19.995	103.166	20.103	1.689	0.506
1172.000	666.973	79.998	19.996	103.198	20.108	1.324	0.508
1174.001	667.987	79.998	19.995	103.189	20.104	1.623	0.502
1176.000	668.997	79.999	19.996	103.156	20.104	1.634	0.494
1178.000	669.994	79.998	19.995	103.147	20.103	1.657	0.516
1180.000	671.077	79.998	19.995	103.150	20.100	1.888	0.512
1182.000	672.043	79.998	19.996	103.169	20.101	1.839	0.493
1184.000	673.042	79.998	19.996	103.191	20.099	1.922	0.496
1186.000	674.103	79.998	19.996	103.168	20.097	2.091	0.503
1188.000	675.112	79.996	19.996	103.178	20.097	2.051	0.535
1190.000	676.102	79.997	19.997	103.178	20.097	2.059	0.501
1192.000	677.062	79.997	19.995	103.188	20.098	2.025	0.501
1194.001	678.098	79.998	19.997	103.182	20.095	2.226	0.508
1196.000	679.097	79.998	19.997	103.189	20.091	2.480	0.516
1198.001	680.115	79.999	19.996	103.189	20.090	2.544	0.497
1200.000	681.121	79.999	19.996	103.198	20.090	2.584	0.508
1202.001	682.186	79.999	19.995	103.205	20.094	2.320	0.526
1204.000	683.183	80.000	19.995	103.205	20.088	2.721	0.524
1206.000	684.219	80.000	19.996	103.215	20.092	2.454	0.547
1208.000	685.252	80.000	19.995	103.215	20.091	2.482	0.524
1210.000	686.317	80.000	19.995	103.205	20.089	2.657	0.544
1212.001	687.359	79.998	19.996	103.233	20.085	2.886	0.531
1214.001	688.434	79.999	19.996	103.248	20.087	2.759	0.554
1216.000	689.503	79.999	19.996	103.236	20.084	2.943	0.533
1218.000	690.578	79.998	19.996	103.234	20.086	2.833	0.516
1220.000	691.638	79.998	19.996	103.234	20.081	3.204	0.540
1222.000	692.712	79.999	19.996	103.231	20.081	3.204	0.546
1224.000	693.744	80.001	19.997	103.242	20.079	3.275	0.504
1226.000	694.844	80.001	19.996	103.244	20.080	3.226	0.536
1228.000	695.908	80.001	19.995	103.262	20.079	3.290	0.531
1230.000	696.930	80.000	19.996	103.246	20.080	3.209	0.516
1232.000	697.982	80.000	19.996	103.235	20.077	3.442	0.521
1234.000	699.019	80.001	19.995	103.237	20.073	3.713	0.496
1236.001	700.078	80.000	19.996	103.250	20.076	3.541	0.532
1238.000	701.167	79.999	19.995	103.268	20.077	3.435	0.524
1240.000	702.199	79.999	19.995	103.266	20.073	3.712	0.526
1242.000	703.281	79.997	19.996	103.270	20.071	3.848	0.544
1244.000	704.309	79.999	19.996	103.271	20.074	3.653	0.552
1246.000	705.332	79.998	19.995	103.273	20.070	3.896	0.508
1248.000	706.375	79.998	19.995	103.276	20.070	3.908	0.504
1250.000	707.455	79.998	19.995	103.278	20.070	3.947	0.543
1252.000	708.451	79.999	19.997	103.283	20.068	4.067	0.492
1254.000	709.482	79.998	19.995	103.288	20.070	3.912	0.502
1256.000	710.548	79.999	19.996	103.294	20.068	4.036	0.550
1258.001	711.517	79.999	19.997	103.293	20.067	4.116	0.502
1260.000	712.555	79.998	19.996	103.292	20.066	4.177	0.520
1262.000	713.566	79.999	19.996	103.294	20.067	4.103	0.511
1264.000	714.564	79.998	19.996	103.307	20.065	4.247	0.483
1266.000	715.602	79.999	19.994	103.299	20.065	4.232	0.515
1268.000	716.649	79.999	19.995	103.286	20.064	4.342	0.508
1270.000	717.651	79.999	19.996	103.289	20.060	4.618	0.453
1272.000	718.628	79.998	19.995	103.298	20.063	4.395	0.492
1274.000	719.614	79.998	19.996	103.308	20.062	4.478	0.501
1276.000	720.633	79.998	19.995	103.304	20.059	4.679	0.491
1278.000	721.589	79.998	19.995	103.291	20.059	4.698	0.473
1280.000	722.573	80.000	19.995	103.294	20.058	4.705	0.486
1282.000	723.567	79.999	19.995	103.290	20.056	4.840	0.539
1284.001	724.503	80.000	19.995	103.288	20.059	4.660	0.494
1286.000	725.497	79.999	19.997	103.284	20.061	4.540	0.488
1288.001	726.504	79.999	19.997	103.284	20.059	4.667	0.498
1290.002	727.453	79.999	19.996	103.310	20.062	4.452	0.458
1292.001	728.424	79.999	19.996	103.312	20.063	4.383	0.493
1294.000	729.402	79.998	19.996	103.289	20.062	4.489	0.444
1296.000	730.347	79.999	19.996	103.278	20.061	4.551	0.484
1298.000	731.299	79.998	19.996	103.277	20.061	4.526	0.488
1300.000	732.269	79.999	19.996	103.264	20.063	4.374	0.502
1302.000	733.235	80.000	19.995	103.246	20.066	4.166	0.493
1304.000	734.152	79.999	19.996	103.236	20.067	4.142	0.490
1306.000	735.078	80.001	19.995	103.235	20.071	3.839	0.468
1308.000	736.045	80.001	19.996	103.221	20.074	3.638	0.489
1310.001	736.991	80.001	19.997	103.201	20.080	3.255	0.470
1312.000	737.972	80.001	19.996	103.190	20.088	2.659	0.477
1314.000	738.977	80.001	19.997	103.165	20.093	2.354	0.510
1316.000	739.980	80.000	19.997	103.132	20.100	1.873	0.506
1318.000	740.966	79.998	19.996	103.125	20.102	1.748	0.505
1320.000	741.977	79.999	19.998	103.117	20.106	1.468	0.512
1322.000	742.998	79.997	19.997	103.118	20.108	1.317	0.491
1322.500	743.239	79.998	19.996	103.119	20.110	1.198	0.462