File: 01_Data/Cedar_Shingle/STA/N2/3K_min/Cedar_Shingle_STA_N2_3KData_220405_R1.csv
##Temp./Â°C,Time/min,Mass loss(subtr.2)/mg,DSC(subtr.2)/(mW/mg),Sensit./(uV/mW)
50.466,10.0158,-0.03784,0.000551713,1.05027
51.166,11.1526,-0.04182892,0.02679554,1.05015
51.866,11.54459,-0.04303347,0.03992129,1.05002
52.566,11.86655,-0.04763472,0.0482489,1.0499
53.266,12.15887,-0.04645797,0.05330641,1.04977
53.966,12.43722,-0.0459563,0.05731172,1.04964
54.666,12.70722,-0.04650664,0.06246288,1.04952
55.366,12.972,-0.04651948,0.06214894,1.04939
56.066,13.2321,-0.04782525,0.06645155,1.04926
56.766,13.4889,-0.04717214,0.06604492,1.04913
57.466,13.74366,-0.04916439,0.06899957,1.049
58.166,13.9962,-0.04947014,0.06976475,1.04886
58.866,14.24642,-0.05044894,0.0729034,1.04873
59.566,14.49491,-0.05045437,0.07514739,1.0486
60.266,14.74081,-0.05046,0.07477525,1.04846
60.966,14.9865,-0.05159518,0.07858998,1.04833
61.666,15.22996,-0.05313815,0.07839006,1.04819
62.366,15.47277,-0.05256356,0.07950729,1.04806
63.066,15.71379,-0.05310008,0.08299241,1.04792
63.766,15.9517,-0.05441107,0.08194515,1.04778
64.466,16.19006,-0.05538564,0.08416505,1.04764
65.166,16.4287,-0.05674076,0.08382315,1.0475
65.866,16.66859,-0.05595588,0.08513009,1.04736
66.566,16.9065,-0.05973838,0.08449373,1.04722
67.266,17.1448,-0.05734063,0.08662776,1.04708
67.966,17.3832,-0.06032059,0.08845948,1.04694
68.666,17.62009,-0.06032931,0.09176412,1.04679
69.366,17.85557,-0.05964973,0.09049919,1.04665
70.066,18.09139,-0.06106119,0.08821279,1.04651
70.766,18.3265,-0.06327854,0.08932936,1.04636
71.466,18.56103,-0.06361641,0.08821833,1.04621
72.166,18.796,-0.06458576,0.09063302,1.04607
72.866,19.03111,-0.06428006,0.09079932,1.04592
73.566,19.2656,-0.06724158,0.0901466,1.04577
74.266,19.50014,-0.06723211,0.08753877,1.04562
74.966,19.7336,-0.06722881,0.08705114,1.04547
75.666,19.96854,-0.06856311,0.09030234,1.04532
76.366,20.20275,-0.06916633,0.08837526,1.04517
77.066,20.43864,-0.06918758,0.08761175,1.04501
77.766,20.6727,-0.06906676,0.08809194,1.04486
78.466,20.9071,-0.06988247,0.08890924,1.04471
79.166,21.14089,-0.06850503,0.09108943,1.04455
79.866,21.3749,-0.07119511,0.08593867,1.04439
80.566,21.60756,-0.07183694,0.08684351,1.04424
81.266,21.83973,-0.07184413,0.08795203,1.04408
81.966,22.0724,-0.07317,0.08640087,1.04392
82.666,22.30463,-0.07315285,0.08519224,1.04376
83.366,22.5373,-0.07382011,0.08190522,1.0436
84.066,22.76953,-0.07365743,0.08447168,1.04344
84.766,23.00323,-0.07382058,0.08096772,1.04328
85.466,23.2371,-0.07514,0.08185922,1.04312
86.166,23.4724,-0.07381201,0.08263453,1.04296
86.866,23.70835,-0.07578888,0.08412274,1.04279
87.566,23.94226,-0.07644993,0.08260696,1.04263
88.266,24.17553,-0.07678265,0.08163336,1.04246
88.966,24.40859,-0.07776264,0.08272352,1.0423
89.666,24.6419,-0.07809317,0.08217826,1.04213
90.366,24.87562,-0.0807289,0.07929101,1.04196
91.066,25.10839,-0.07928027,0.08044021,1.04179
91.766,25.342,-0.07937013,0.08017115,1.04163
92.466,25.57469,-0.08218701,0.07990407,1.04146
93.166,25.80834,-0.08072995,0.07865237,1.04128
93.866,26.04103,-0.08204936,0.08098047,1.04111
94.566,26.27393,-0.08211109,0.08023568,1.04094
95.266,26.50693,-0.0827007,0.0804251,1.04077
95.966,26.73998,-0.08271001,0.08081303,1.04059
96.666,26.97267,-0.08401687,0.07941576,1.04042
97.366,27.2046,-0.08368628,0.08029503,1.04024
98.066,27.43631,-0.08501002,0.08151673,1.04007
98.766,27.66893,-0.08732269,0.07973759,1.03989
99.466,27.90144,-0.08436363,0.08053072,1.03971
100.166,28.135,-0.08700645,0.08028144,1.03954
100.866,28.3671,-0.08570631,0.08142854,1.03936
101.566,28.5996,-0.08632677,0.07955413,1.03918
102.266,28.8312,-0.08693477,0.08162161,1.039
102.966,29.06393,-0.08830001,0.08067965,1.03881
103.666,29.29617,-0.08765077,0.08103808,1.03863
104.366,29.52758,-0.08937193,0.08201731,1.03845
105.066,29.7592,-0.08999129,0.08299663,1.03827
105.766,29.9914,-0.08995636,0.0822708,1.03808
106.466,30.2241,-0.09059145,0.082306,1.0379
107.166,30.4559,-0.09027109,0.08214621,1.03771
107.866,30.687,-0.09093273,0.08231978,1.03752
108.566,30.9182,-0.09032034,0.08455728,1.03733
109.266,31.14945,-0.09028459,0.08624307,1.03715
109.966,31.38038,-0.09224757,0.0886873,1.03696
110.666,31.61135,-0.09225,0.08486556,1.03677
111.366,31.84187,-0.09202292,0.08587483,1.03658
112.066,32.07293,-0.09258,0.08692897,1.03638
112.766,32.30332,-0.09258006,0.08793966,1.03619
113.466,32.53355,-0.09226274,0.0876546,1.036
114.166,32.76314,-0.09407031,0.08867521,1.0358
114.866,32.99416,-0.09496444,0.08887308,1.03561
115.566,33.22526,-0.09359141,0.09030268,1.03541
116.266,33.45708,-0.09558777,0.09347431,1.03522
116.966,33.6879,-0.09502043,0.09168523,1.03502
117.666,33.91901,-0.09751019,0.09080161,1.03482
118.366,34.15014,-0.09788718,0.09652639,1.03462
119.066,34.3816,-0.09850067,0.09619274,1.03443
119.766,34.6134,-0.09850002,0.09491447,1.03422
120.466,34.8455,-0.09850777,0.09242548,1.03402
121.166,35.07718,-0.09882947,0.09303424,1.03382
121.866,35.30806,-0.09982001,0.09460173,1.03362
122.566,35.5383,-0.09982049,0.09368939,1.03342
123.266,35.76845,-0.10015,0.09577793,1.03321
123.966,35.9983,-0.10015,0.09552112,1.03301
124.666,36.22837,-0.10014,0.09846034,1.0328
125.366,36.45917,-0.09982015,0.09772529,1.0326
126.066,36.6903,-0.10081,0.09619199,1.03239
126.766,36.91928,-0.10081,0.09771221,1.03218
127.466,37.14985,-0.10113,0.09557602,1.03197
128.166,37.3803,-0.10243,0.09718452,1.03176
128.866,37.61153,-0.10377,0.09747828,1.03155
129.566,37.84115,-0.10391,0.09713,1.03134
130.266,38.0719,-0.10344,0.09639624,1.03113
130.966,38.30423,-0.10377,0.09698726,1.03092
131.666,38.5351,-0.1041,0.09715837,1.0307
132.366,38.76549,-0.10509,0.09825134,1.03049
133.066,38.99564,-0.10508,0.09881866,1.03028
133.766,39.22643,-0.10498,0.09820646,1.03006
134.466,39.4566,-0.10638,0.09927142,1.02984
135.166,39.68653,-0.1054,0.09978773,1.02963
135.866,39.9163,-0.10574,0.10153,1.02941
136.566,40.1458,-0.10565,0.10212,1.02919
137.266,40.37515,-0.10673,0.10082,1.02897
137.966,40.604,-0.10805,0.1025,1.02875
138.666,40.83286,-0.10706,0.10133,1.02853
139.366,41.0617,-0.10758,0.09970906,1.02831
140.066,41.29017,-0.10859,0.1036,1.02808
140.766,41.51955,-0.1099,0.10051,1.02786
141.466,41.7493,-0.10859,0.10169,1.02764
142.166,41.98032,-0.11155,0.10146,1.02741
142.866,42.21049,-0.11075,0.10291,1.02719
143.566,42.4411,-0.11026,0.10042,1.02696
144.266,42.67114,-0.11092,0.10145,1.02673
144.966,42.90185,-0.11375,0.1028,1.0265
145.666,43.13167,-0.11374,0.10445,1.02628
146.366,43.36197,-0.11239,0.10275,1.02605
147.066,43.59154,-0.11351,0.10419,1.02582
147.766,43.82127,-0.11416,0.10362,1.02559
148.466,44.05053,-0.11408,0.10597,1.02535
149.166,44.27944,-0.11309,0.10784,1.02512
149.866,44.5075,-0.11572,0.1082,1.02489
150.566,44.73523,-0.11475,0.10966,1.02465
151.266,44.96244,-0.11616,0.10942,1.02442
151.966,45.19043,-0.11604,0.10911,1.02418
152.666,45.41992,-0.11605,0.11018,1.02395
153.366,45.64962,-0.11737,0.11035,1.02371
154.066,45.87995,-0.1181,0.11033,1.02347
154.766,46.10996,-0.11871,0.11055,1.02323
155.466,46.34001,-0.11802,0.10769,1.02299
156.166,46.57013,-0.11803,0.11037,1.02275
156.866,46.79929,-0.11769,0.1124,1.02251
157.566,47.02892,-0.12033,0.11195,1.02227
158.266,47.25687,-0.12036,0.11144,1.02203
158.966,47.48557,-0.12032,0.11461,1.02178
159.666,47.71326,-0.12121,0.11392,1.02154
160.366,47.942,-0.12132,0.11272,1.0213
161.066,48.16989,-0.12132,0.11471,1.02105
161.766,48.3985,-0.12232,0.11445,1.0208
162.466,48.6267,-0.1215,0.11465,1.02056
163.166,48.8549,-0.12196,0.11405,1.02031
163.866,49.08287,-0.12231,0.11526,1.02006
164.566,49.3111,-0.1223,0.11769,1.01981
165.266,49.53883,-0.12461,0.11604,1.01956
165.966,49.76631,-0.12428,0.11805,1.01931
166.666,49.9943,-0.12428,0.1197,1.01906
167.366,50.22293,-0.12551,0.11741,1.0188
168.066,50.45232,-0.12592,0.11576,1.01855
168.766,50.68117,-0.12494,0.11534,1.0183
169.466,50.91045,-0.1272,0.11864,1.01804
170.166,51.1394,-0.12756,0.11871,1.01779
170.866,51.3675,-0.12626,0.11781,1.01753
171.566,51.59507,-0.12855,0.12061,1.01727
172.266,51.82278,-0.12778,0.123,1.01702
172.966,52.05149,-0.1279,0.12241,1.01676
173.666,52.28,-0.12922,0.12329,1.0165
174.366,52.50798,-0.12783,0.12234,1.01624
175.066,52.73548,-0.13054,0.12662,1.01598
175.766,52.9628,-0.13053,0.12465,1.01571
176.466,53.1912,-0.13053,0.12676,1.01545
177.166,53.4191,-0.1313,0.12328,1.01519
177.866,53.64715,-0.13185,0.12449,1.01492
178.566,53.87582,-0.13285,0.12463,1.01466
179.266,54.1043,-0.13317,0.12289,1.01439
179.966,54.33331,-0.13318,0.12531,1.01413
180.666,54.5607,-0.13448,0.12664,1.01386
181.366,54.78905,-0.13416,0.12732,1.01359
182.066,55.01709,-0.13546,0.12819,1.01333
182.766,55.2454,-0.13415,0.12585,1.01306
183.466,55.47356,-0.13677,0.12716,1.01279
184.166,55.702,-0.13678,0.13051,1.01251
184.866,55.93034,-0.13809,0.12991,1.01224
185.566,56.15906,-0.13664,0.13068,1.01197
186.266,56.38715,-0.13875,0.13042,1.0117
186.966,56.6153,-0.13875,0.13252,1.01142
187.666,56.8425,-0.13841,0.13102,1.01115
188.366,57.0702,-0.13941,0.13245,1.01087
189.066,57.2976,-0.13941,0.12996,1.0106
189.766,57.52574,-0.1414,0.13353,1.01032
190.466,57.753,-0.14303,0.13402,1.01004
191.166,57.98069,-0.14269,0.13061,1.00976
191.866,58.20785,-0.1427,0.13473,1.00949
192.566,58.43552,-0.14284,0.13517,1.00921
193.266,58.66195,-0.14499,0.13803,1.00892
193.966,58.8888,-0.147,0.13689,1.00864
194.666,59.1156,-0.146,0.13558,1.00836
195.366,59.34366,-0.14699,0.13743,1.00808
196.066,59.57023,-0.14808,0.13492,1.00779
196.766,59.79843,-0.14666,0.13492,1.00751
197.466,60.02553,-0.14797,0.13701,1.00723
198.166,60.2536,-0.14932,0.13876,1.00694
198.866,60.4809,-0.15093,0.13806,1.00665
199.566,60.70978,-0.15312,0.13821,1.00636
200.266,60.93906,-0.15347,0.13625,1.00608
200.966,61.16819,-0.15356,0.13822,1.00579
201.666,61.39649,-0.1531,0.13828,1.0055
202.366,61.6248,-0.15501,0.13948,1.00521
203.066,61.85195,-0.15554,0.14067,1.00492
203.766,62.0789,-0.15554,0.14328,1.00462
204.466,62.3057,-0.15686,0.14387,1.00433
205.166,62.53244,-0.15982,0.14389,1.00404
205.866,62.7594,-0.1598,0.1418,1.00374
206.566,62.9866,-0.15985,0.14723,1.00345
207.266,63.21395,-0.16083,0.14598,1.00315
207.966,63.4419,-0.16301,0.14274,1.00286
208.666,63.6703,-0.16507,0.1492,1.00256
209.366,63.89898,-0.16672,0.14818,1.00226
210.066,64.12742,-0.16672,0.14693,1.00196
210.766,64.35525,-0.16713,0.1468,1.00166
211.466,64.58296,-0.16871,0.14738,1.00136
212.166,64.8083,-0.16824,0.1514,1.00106
212.866,65.0333,-0.171,0.154,1.00076
213.566,65.25805,-0.17333,0.15128,1.00046
214.266,65.48695,-0.17374,0.14919,1.00015
214.966,65.71587,-0.17594,0.15203,0.99985
215.666,65.94488,-0.17693,0.15671,0.99954
216.366,66.17192,-0.1786,0.15686,0.99924
217.066,66.3989,-0.18087,0.15623,0.99893
217.766,66.6251,-0.18084,0.15618,0.99863
218.466,66.85135,-0.18252,0.15792,0.99832
219.166,67.07723,-0.18515,0.15902,0.99801
219.866,67.30394,-0.18649,0.15816,0.9977
220.566,67.53005,-0.19042,0.16021,0.99739
221.266,67.75709,-0.19174,0.15782,0.99708
221.966,67.98507,-0.19311,0.15587,0.99677
222.666,68.21191,-0.19676,0.15739,0.99646
223.366,68.44038,-0.1977,0.15555,0.99614
224.066,68.66811,-0.20074,0.15637,0.99583
224.766,68.8973,-0.19995,0.15802,0.99551
225.466,69.12439,-0.2028,0.15707,0.9952
226.166,69.35194,-0.20457,0.15866,0.99488
226.866,69.57961,-0.20796,0.15894,0.99457
227.566,69.8066,-0.2105,0.15905,0.99425
228.266,70.0335,-0.21351,0.15955,0.99393
228.966,70.25967,-0.2153,0.16402,0.99361
229.666,70.4871,-0.21852,0.16277,0.99329
230.366,70.71414,-0.21944,0.16123,0.99297
231.066,70.9415,-0.22282,0.16236,0.99265
231.766,71.16898,-0.22477,0.15988,0.99233
232.466,71.39659,-0.22659,0.16242,0.99201
233.166,71.62437,-0.23194,0.16196,0.99168
233.866,71.8513,-0.23417,0.16315,0.99136
234.566,72.07899,-0.23718,0.16101,0.99103
235.266,72.30754,-0.24111,0.16251,0.99071
235.966,72.53609,-0.24392,0.1611,0.99038
236.666,72.7647,-0.24703,0.16151,0.99006
237.366,72.9923,-0.25051,0.16125,0.98973
238.066,73.21996,-0.2526,0.16277,0.9894
238.766,73.44675,-0.25793,0.16333,0.98907
239.466,73.67447,-0.26018,0.1651,0.98874
240.166,73.90215,-0.26458,0.16418,0.98841
240.866,74.13019,-0.27001,0.16517,0.98808
241.566,74.35654,-0.27279,0.16696,0.98775
242.266,74.5831,-0.27699,0.16472,0.98741
242.966,74.80914,-0.27854,0.16495,0.98708
243.666,75.03588,-0.2848,0.1656,0.98674
244.366,75.2627,-0.29028,0.16486,0.98641
245.066,75.4905,-0.29203,0.16547,0.98607
245.766,75.7183,-0.29658,0.16476,0.98574
246.466,75.94507,-0.29983,0.16604,0.9854
247.166,76.1725,-0.30421,0.16409,0.98506
247.866,76.40007,-0.31002,0.16561,0.98472
248.566,76.62829,-0.31358,0.16676,0.98438
249.266,76.85625,-0.3176,0.16631,0.98404
249.966,77.08418,-0.32257,0.16567,0.9837
250.666,77.31271,-0.32656,0.16569,0.98336
251.366,77.54002,-0.33174,0.16606,0.98302
252.066,77.76794,-0.33707,0.1628,0.98267
252.766,77.99524,-0.34179,0.16624,0.98233
253.466,78.22295,-0.34714,0.16695,0.98198
254.166,78.44965,-0.35201,0.16816,0.98164
254.866,78.6769,-0.35629,0.16974,0.98129
255.566,78.90432,-0.36282,0.16934,0.98095
256.266,79.13218,-0.3668,0.16802,0.9806
256.966,79.35984,-0.37306,0.16828,0.98025
257.666,79.58731,-0.37875,0.16856,0.9799
258.366,79.8147,-0.38538,0.16847,0.97955
259.066,80.0424,-0.3902,0.16958,0.9792
259.766,80.27023,-0.39462,0.16696,0.97885
260.466,80.49903,-0.40035,0.17036,0.9785
261.166,80.72769,-0.40731,0.16803,0.97815
261.866,80.95596,-0.41252,0.16996,0.97779
262.566,81.18396,-0.41854,0.16649,0.97744
263.266,81.41193,-0.42524,0.17038,0.97708
263.966,81.64,-0.43096,0.16793,0.97673
264.666,81.86802,-0.43888,0.17132,0.97637
265.366,82.0951,-0.44353,0.17121,0.97601
266.066,82.3219,-0.44955,0.17178,0.97566
266.766,82.5479,-0.45805,0.17321,0.9753
267.466,82.77484,-0.46427,0.17322,0.97494
268.166,83.00158,-0.47217,0.16979,0.97458
268.866,83.22931,-0.47791,0.17081,0.97422
269.566,83.45685,-0.48382,0.16638,0.97386
270.266,83.68479,-0.49256,0.16755,0.97349
270.966,83.91246,-0.4991,0.16897,0.97313
271.666,84.13971,-0.50641,0.16849,0.97277
272.366,84.36724,-0.51323,0.16841,0.9724
273.066,84.59451,-0.52103,0.16726,0.97204
273.766,84.82226,-0.52829,0.16703,0.97167
274.466,85.0502,-0.53672,0.16638,0.97131
275.166,85.2786,-0.54306,0.16542,0.97094
275.866,85.50746,-0.55099,0.16829,0.97057
276.566,85.73575,-0.55892,0.16713,0.9702
277.266,85.9642,-0.56731,0.16786,0.96983
277.966,86.19199,-0.57472,0.16901,0.96946
278.666,86.41967,-0.58364,0.16885,0.96909
279.366,86.64644,-0.59233,0.17208,0.96872
280.066,86.87424,-0.60051,0.17231,0.96835
280.766,87.10246,-0.61031,0.17232,0.96798
281.466,87.33161,-0.6201,0.17221,0.9676
282.166,87.56009,-0.6291,0.17178,0.96723
282.866,87.7881,-0.63713,0.1717,0.96686
283.566,88.0158,-0.64748,0.17186,0.96648
284.266,88.24336,-0.65757,0.17192,0.9661
284.966,88.4721,-0.66786,0.17554,0.96573
285.666,88.7004,-0.6775,0.1755,0.96535
286.366,88.92857,-0.68725,0.17494,0.96497
287.066,89.1541,-0.6987,0.17731,0.96459
287.766,89.38079,-0.70888,0.17991,0.96421
288.466,89.60818,-0.71937,0.17964,0.96383
289.166,89.8369,-0.72879,0.18218,0.96345
289.866,90.0647,-0.73836,0.18314,0.96307
290.566,90.29151,-0.75194,0.18508,0.96268
291.266,90.51899,-0.76254,0.18442,0.9623
291.966,90.7466,-0.77565,0.18426,0.96192
292.666,90.97485,-0.78825,0.18669,0.96153
293.366,91.2032,-0.79949,0.18659,0.96115
294.066,91.43155,-0.81253,0.18677,0.96076
294.766,91.6596,-0.82442,0.1851,0.96037
295.466,91.8878,-0.83581,0.18927,0.95999
296.166,92.1156,-0.8495,0.18837,0.9596
296.866,92.3425,-0.86336,0.19104,0.95921
297.566,92.56859,-0.87469,0.19129,0.95882
298.266,92.79585,-0.88911,0.19051,0.95843
298.966,93.02543,-0.90203,0.19358,0.95804
299.666,93.25561,-0.91536,0.19394,0.95764
300.366,93.48374,-0.92953,0.19604,0.95725
301.066,93.71136,-0.94538,0.1965,0.95686
301.766,93.94025,-0.95942,0.19857,0.95647
302.466,94.1704,-0.97394,0.19838,0.95607
303.166,94.40015,-0.99012,0.19556,0.95568
303.866,94.62894,-1.00398,0.20019,0.95528
304.566,94.85774,-1.0175,0.20059,0.95488
305.266,95.0866,-1.03248,0.2032,0.95449
305.966,95.31591,-1.04893,0.20307,0.95409
306.666,95.54522,-1.06354,0.20693,0.95369
307.366,95.77424,-1.08016,0.20884,0.95329
308.066,96.00196,-1.09782,0.21032,0.95289
308.766,96.22968,-1.11066,0.21074,0.95249
309.466,96.45732,-1.12829,0.2116,0.95209
310.166,96.68563,-1.14463,0.21303,0.95168
310.866,96.9135,-1.16067,0.21159,0.95128
311.566,97.14116,-1.17631,0.21518,0.95088
312.266,97.3686,-1.19286,0.21686,0.95047
312.966,97.59636,-1.20965,0.21903,0.95007
313.666,97.82449,-1.22738,0.21628,0.94966
314.366,98.05296,-1.2451,0.22047,0.94926
315.066,98.2816,-1.26154,0.22166,0.94885
315.766,98.51058,-1.27934,0.22157,0.94844
316.466,98.73931,-1.29563,0.22211,0.94803
317.166,98.96785,-1.31457,0.224,0.94762
317.866,99.19589,-1.33218,0.22524,0.94721
318.566,99.4242,-1.35164,0.22775,0.9468
319.266,99.6528,-1.36858,0.22853,0.94639
319.966,99.8818,-1.38668,0.23102,0.94598
320.666,100.111,-1.40694,0.23315,0.94557
321.366,100.339,-1.42434,0.23543,0.94515
322.066,100.567,-1.44145,0.2384,0.94474
322.766,100.795,-1.46112,0.24013,0.94433
323.466,101.023,-1.48285,0.24412,0.94391
324.166,101.251,-1.50145,0.24691,0.94349
324.866,101.479,-1.51961,0.24589,0.94308
325.566,101.708,-1.53969,0.25088,0.94266
326.266,101.937,-1.56105,0.25462,0.94224
326.966,102.166,-1.58202,0.25718,0.94182
327.666,102.396,-1.60317,0.26138,0.9414
328.366,102.625,-1.62352,0.26357,0.94098
329.066,102.854,-1.64319,0.26418,0.94056
329.766,103.083,-1.66622,0.2657,0.94014
330.466,103.313,-1.68643,0.27169,0.93972
331.166,103.541,-1.70779,0.2727,0.9393
331.866,103.77,-1.73222,0.27685,0.93887
332.566,103.9991,-1.753,0.2799,0.93845
333.266,104.228,-1.77542,0.28227,0.93803
333.966,104.457,-1.79741,0.28636,0.9376
334.666,104.686,-1.82254,0.28955,0.93717
335.366,104.915,-1.84445,0.29019,0.93675
336.066,105.1441,-1.86749,0.29174,0.93632
336.766,105.373,-1.89246,0.29462,0.93589
337.466,105.602,-1.91462,0.2987,0.93546
338.166,105.83,-1.93865,0.30008,0.93503
338.866,106.059,-1.96315,0.30285,0.9346
339.566,106.288,-1.98843,0.30194,0.93417
340.266,106.517,-2.01354,0.30332,0.93374
340.966,106.745,-2.03614,0.30529,0.93331
341.666,106.973,-2.06266,0.30704,0.93288
342.366,107.201,-2.08815,0.30723,0.93244
343.066,107.43,-2.11264,0.31062,0.93201
343.766,107.659,-2.13798,0.30874,0.93157
344.466,107.888,-2.16234,0.30836,0.93114
345.166,108.116,-2.18701,0.30715,0.9307
345.866,108.346,-2.21179,0.30592,0.93027
346.566,108.576,-2.23713,0.30296,0.92983
347.266,108.806,-2.26043,0.30017,0.92939
347.966,109.035,-2.28618,0.2966,0.92895
348.666,109.265,-2.30921,0.292,0.92851
349.366,109.495,-2.33157,0.28873,0.92807
350.066,109.725,-2.35414,0.28475,0.92763
350.766,109.956,-2.37707,0.27478,0.92719
351.466,110.186,-2.39819,0.27031,0.92675
352.166,110.415,-2.41916,0.2624,0.92631
352.866,110.643,-2.43891,0.25295,0.92586
353.566,110.872,-2.45851,0.24652,0.92542
354.266,111.1,-2.47557,0.23477,0.92497
354.966,111.329,-2.49372,0.23096,0.92453
355.666,111.557,-2.51111,0.21802,0.92408
356.366,111.785,-2.52489,0.20683,0.92364
357.066,112.014,-2.53915,0.19753,0.92319
357.766,112.243,-2.55522,0.18505,0.92274
358.466,112.473,-2.56544,0.17392,0.92229
359.166,112.702,-2.57742,0.16185,0.92184
359.866,112.93,-2.59073,0.15526,0.92139
360.566,113.159,-2.59605,0.14515,0.92094
361.266,113.388,-2.60549,0.13606,0.92049
361.966,113.619,-2.61216,0.12901,0.92004
362.666,113.849,-2.61943,0.12139,0.91959
363.366,114.08,-2.62316,0.11489,0.91914
364.066,114.309,-2.63016,0.11214,0.91868
364.766,114.539,-2.63475,0.10529,0.91823
365.466,114.768,-2.6392,0.09873196,0.91777
366.166,114.996,-2.64273,0.09520061,0.91732
366.866,115.224,-2.64558,0.09528429,0.91686
367.566,115.453,-2.64847,0.09587939,0.9164
368.266,115.683,-2.6511,0.0947837,0.91595
368.966,115.914,-2.65369,0.0924747,0.91549
369.666,116.144,-2.65625,0.08984429,0.91503
370.366,116.373,-2.66151,0.0886543,0.91457
371.066,116.602,-2.66133,0.08691357,0.91411
371.766,116.832,-2.66524,0.08661336,0.91365
372.466,117.062,-2.66818,0.08931014,0.91319
373.166,117.293,-2.67063,0.08692323,0.91273
373.866,117.522,-2.67316,0.08540764,0.91226
374.566,117.751,-2.67585,0.08524327,0.9118
375.266,117.98,-2.67764,0.08410236,0.91134
375.966,118.209,-2.67846,0.0825801,0.91087
376.666,118.438,-2.6811,0.0821876,0.91041
377.366,118.669,-2.68437,0.08070911,0.90994
378.066,118.899,-2.68632,0.07688182,0.90948
378.766,119.13,-2.68848,0.0764705,0.90901
379.466,119.36,-2.69027,0.07721933,0.90854
380.166,119.591,-2.69251,0.0775005,0.90807
380.866,119.822,-2.6956,0.07656268,0.9076
381.566,120.052,-2.69744,0.07551056,0.90714
382.266,120.2832,-2.70014,0.07456544,0.90667
382.966,120.514,-2.70277,0.07256259,0.90619
383.666,120.744,-2.7064,0.07508114,0.90572
384.366,120.974,-2.70678,0.07193411,0.90525
385.066,121.205,-2.70773,0.07076022,0.90478
385.766,121.435,-2.7116,0.07008798,0.90431
386.466,121.666,-2.71431,0.06818072,0.90383
387.166,121.897,-2.71814,0.06721448,0.90336
387.866,122.128,-2.71811,0.06627591,0.90288
388.566,122.359,-2.72078,0.06924762,0.90241
389.266,122.591,-2.72351,0.06442483,0.90193
389.966,122.821,-2.72611,0.06223285,0.90145
390.666,123.0512,-2.73009,0.06051159,0.90098
391.366,123.281,-2.73134,0.06022724,0.9005
392.066,123.512,-2.73302,0.05935973,0.90002
392.766,123.742,-2.73436,0.06082933,0.89954
393.466,123.973,-2.73954,0.05994226,0.89906
394.166,124.203,-2.73852,0.05688123,0.89858
394.866,124.434,-2.74201,0.05810342,0.8981
395.566,124.665,-2.74424,0.05645268,0.89762
396.266,124.896,-2.74537,0.05444012,0.89713
396.966,125.125,-2.74753,0.05394552,0.89665
397.666,125.355,-2.74886,0.05294971,0.89617
398.366,125.585,-2.7528,0.05446612,0.89568
399.066,125.815,-2.75543,0.05311198,0.8952
399.766,126.045,-2.75644,0.05511099,0.89471
400.466,126.275,-2.75772,0.05288611,0.89423
401.166,126.506,-2.75969,0.0519365,0.89374
401.866,126.7372,-2.763,0.05154123,0.89325
402.566,126.968,-2.76441,0.04887948,0.89277
403.266,127.198,-2.76662,0.04852825,0.89228
403.966,127.43,-2.76825,0.05113351,0.89179
404.666,127.661,-2.76984,0.04958077,0.8913
405.366,127.894,-2.77289,0.04911797,0.89081
406.066,128.126,-2.77557,0.05011888,0.89032
406.766,128.358,-2.77912,0.05038427,0.88983
407.466,128.589,-2.7805,0.05133113,0.88933
408.166,128.821,-2.78293,0.04912056,0.88884
408.866,129.051,-2.7857,0.04765802,0.88835
409.566,129.2807,-2.78737,0.04972166,0.88785
410.266,129.51,-2.79008,0.05088815,0.88736
410.966,129.741,-2.78996,0.04878724,0.88687
411.666,129.972,-2.79358,0.05033254,0.88637
412.366,130.203,-2.79662,0.0497626,0.88587
413.066,130.433,-2.7989,0.04979726,0.88538
413.766,130.664,-2.7992,0.05131302,0.88488
414.466,130.895,-2.80083,0.05267699,0.88438
415.166,131.125,-2.8034,0.05340361,0.88388
415.866,131.355,-2.8055,0.05366202,0.88338
416.566,131.585,-2.8073,0.05650066,0.88288
417.266,131.815,-2.8097,0.05770934,0.88238
417.966,132.046,-2.81335,0.05652069,0.88188
418.666,132.2767,-2.81103,0.05393853,0.88138
419.366,132.507,-2.8137,0.05624062,0.88088
420.066,132.738,-2.81624,0.05794178,0.88038
420.766,132.97,-2.8196,0.06063401,0.87987
421.466,133.202,-2.82077,0.06059316,0.87937
422.166,133.434,-2.82157,0.05962995,0.87887
422.866,133.667,-2.82425,0.06249197,0.87836
423.566,133.898,-2.82849,0.06422948,0.87786
424.266,134.131,-2.82983,0.06707048,0.87735
424.966,134.363,-2.82944,0.06654237,0.87684
425.666,134.594,-2.82999,0.06652221,0.87634
426.366,134.826,-2.83408,0.06774213,0.87583
427.066,135.059,-2.83382,0.06790071,0.87532
427.766,135.292,-2.83634,0.06994414,0.87481
428.466,135.526,-2.8398,0.07291487,0.8743
429.166,135.757,-2.84036,0.07162806,0.87379
429.866,135.987,-2.84229,0.07563254,0.87328
430.566,136.217,-2.84401,0.07522349,0.87277
431.266,136.45,-2.84362,0.07768036,0.87226
431.966,136.682,-2.84625,0.07930419,0.87175
432.666,136.915,-2.85019,0.0825191,0.87123
433.366,137.1462,-2.84822,0.08069115,0.87072
434.066,137.377,-2.85086,0.08108033,0.87021
434.766,137.605,-2.85118,0.0837786,0.86969
435.466,137.835,-2.8525,0.08615041,0.86918
436.166,138.066,-2.85524,0.08760301,0.86866
436.866,138.3,-2.85623,0.08408448,0.86815
437.566,138.534,-2.85722,0.08346458,0.86763
438.266,138.767,-2.85858,0.0888934,0.86711
438.966,139,-2.85919,0.08514789,0.86659
439.666,139.232,-2.85919,0.09009511,0.86607
440.366,139.4648,-2.86251,0.08944016,0.86556
441.066,139.697,-2.86352,0.0894362,0.86504
441.766,139.929,-2.86408,0.09141887,0.86452
442.466,140.1613,-2.86686,0.09054118,0.864
443.166,140.394,-2.86708,0.09219577,0.86347
443.866,140.627,-2.86697,0.09339092,0.86295
444.566,140.86,-2.86975,0.09400553,0.86243
445.266,141.094,-2.87206,0.09696186,0.86191
445.966,141.326,-2.87148,0.09601011,0.86138
446.666,141.559,-2.87204,0.09754218,0.86086
447.366,141.79,-2.87389,0.10071,0.86034
448.066,142.0204,-2.8763,0.10659,0.85981
448.766,142.251,-2.87496,0.11037,0.85929
449.466,142.482,-2.87529,0.11254,0.85876
450.166,142.712,-2.87762,0.1141,0.85823
450.866,142.943,-2.87893,0.11565,0.85771
451.566,143.174,-2.88025,0.12034,0.85718
452.266,143.406,-2.87992,0.12015,0.85665
452.966,143.638,-2.87879,0.12181,0.85612
453.666,143.87,-2.88146,0.12186,0.85559
454.366,144.104,-2.88146,0.1209,0.85506
455.066,144.336,-2.88146,0.11971,0.85453
455.766,144.568,-2.88539,0.12259,0.854
456.466,144.8,-2.88409,0.12251,0.85347
457.166,145.033,-2.88673,0.12251,0.85294
457.866,145.266,-2.88574,0.12165,0.8524
458.566,145.499,-2.88705,0.1229,0.85187
459.266,145.7319,-2.88837,0.12394,0.85134
459.966,145.965,-2.88968,0.12232,0.8508
460.666,146.198,-2.89001,0.12626,0.85027
461.366,146.431,-2.88998,0.12536,0.84973
462.066,146.663,-2.89067,0.1254,0.8492
462.766,146.894,-2.89168,0.12249,0.84866
463.466,147.125,-2.89198,0.12533,0.84813
464.166,147.357,-2.8913,0.12378,0.84759
464.866,147.589,-2.89376,0.12839,0.84705
465.566,147.82,-2.89512,0.12504,0.84651
466.266,148.051,-2.89455,0.12631,0.84597
466.966,148.284,-2.89526,0.12409,0.84543
467.666,148.519,-2.89528,0.12832,0.8449
468.366,148.754,-2.89792,0.12539,0.84435
469.066,148.987,-2.89791,0.1229,0.84381
469.766,149.22,-2.89678,0.12414,0.84327
470.466,149.453,-2.90052,0.12186,0.84273
471.166,149.686,-2.89987,0.12184,0.84219
471.866,149.919,-2.90149,0.12011,0.84165
472.566,150.151,-2.90156,0.12157,0.8411
473.266,150.385,-2.90421,0.12072,0.84056
473.966,150.617,-2.90276,0.12061,0.84001
474.666,150.848,-2.90544,0.11961,0.83947
475.366,151.08,-2.90446,0.11782,0.83892
476.066,151.309,-2.90581,0.11496,0.83838
476.766,151.541,-2.90713,0.11575,0.83783
477.466,151.774,-2.90712,0.11858,0.83728
478.166,152.01,-2.90919,0.11821,0.83674
478.866,152.245,-2.9091,0.11579,0.83619
479.566,152.479,-2.91007,0.11716,0.83564
480.266,152.712,-2.91115,0.11673,0.83509
480.966,152.946,-2.9114,0.11589,0.83454
481.666,153.1794,-2.91272,0.11829,0.83399
482.366,153.413,-2.91205,0.11738,0.83344
483.066,153.647,-2.91427,0.11829,0.83289
483.766,153.88,-2.91326,0.11662,0.83234
484.466,154.113,-2.91535,0.11592,0.83179
485.166,154.344,-2.91534,0.12042,0.83124
485.866,154.576,-2.91601,0.12127,0.83068
486.566,154.807,-2.91733,0.11903,0.83013
487.266,155.04,-2.9163,0.11882,0.82958
487.966,155.273,-2.91733,0.11964,0.82902
488.666,155.507,-2.91735,0.12177,0.82847
489.366,155.74,-2.91988,0.11872,0.82791
490.066,155.974,-2.91864,0.11812,0.82735
490.766,156.208,-2.92003,0.11814,0.8268
491.466,156.442,-2.92126,0.11873,0.82624
492.166,156.675,-2.91905,0.11982,0.82568
492.866,156.909,-2.92165,0.11964,0.82513
493.566,157.1417,-2.92193,0.12004,0.82457
494.266,157.375,-2.92129,0.11718,0.82401
494.966,157.608,-2.9239,0.11671,0.82345
495.666,157.841,-2.92503,0.1201,0.82289
496.366,158.075,-2.92283,0.11537,0.82233
497.066,158.3084,-2.92424,0.11771,0.82177
497.766,158.541,-2.92523,0.11855,0.82121
498.466,158.774,-2.92654,0.1166,0.82065
499.166,159.008,-2.9251,0.11476,0.82009
499.866,159.241,-2.92523,0.11585,0.81952
500.566,159.475,-2.9263,0.11721,0.81896
501.266,159.709,-2.92647,0.1177,0.8184
501.966,159.943,-2.92906,0.11578,0.81783
502.666,160.176,-2.92907,0.1134,0.81727
503.366,160.409,-2.92984,0.11345,0.8167
504.066,160.641,-2.93071,0.1104,0.81614
504.766,160.875,-2.92939,0.10981,0.81557
505.466,161.108,-2.93105,0.10867,0.81501
506.166,161.341,-2.93272,0.10599,0.81444
506.866,161.5745,-2.93275,0.10423,0.81387
507.566,161.8079,-2.9316,0.10245,0.81331
508.266,162.041,-2.934,0.09819325,0.81274
508.966,162.275,-2.93347,0.10263,0.81217
509.666,162.509,-2.93393,0.10175,0.8116
510.366,162.743,-2.93496,0.09728417,0.81103
511.066,162.976,-2.93629,0.09891626,0.81046
511.766,163.209,-2.9363,0.09945491,0.80989
512.466,163.442,-2.9363,0.10065,0.80932
513.166,163.675,-2.93761,0.10059,0.80875
513.866,163.907,-2.93761,0.10014,0.80818
514.566,164.141,-2.93894,0.10095,0.80761
515.266,164.375,-2.93795,0.09917296,0.80703
515.966,164.609,-2.93992,0.09965975,0.80646
516.666,164.842,-2.93989,0.10041,0.80589
517.366,165.075,-2.93917,0.09891227,0.80531
518.066,165.309,-2.9388,0.09856417,0.80474
518.766,165.542,-2.94157,0.10041,0.80416
519.466,165.776,-2.9429,0.0968582,0.80359
520.166,166.011,-2.94256,0.09782793,0.80301
520.866,166.245,-2.94265,0.09676043,0.80244
521.566,166.479,-2.94483,0.0962063,0.80186
522.266,166.713,-2.94223,0.09616302,0.80128
522.966,166.948,-2.94486,0.09772553,0.80071
523.666,167.184,-2.94453,0.09850643,0.80013
524.366,167.42,-2.94453,0.09851655,0.79955
525.066,167.654,-2.94712,0.10079,0.79897
525.766,167.886,-2.94786,0.10024,0.79839
526.466,168.118,-2.94888,0.09921181,0.79781
527.166,168.351,-2.94782,0.10179,0.79723
527.866,168.584,-2.94782,0.09493351,0.79665
528.566,168.819,-2.94749,0.09722314,0.79607
529.266,169.053,-2.9488,0.09705093,0.79549
529.966,169.288,-2.95012,0.09838521,0.79491
530.666,169.523,-2.9488,0.09861836,0.79433
531.366,169.759,-2.94965,0.09605532,0.79375
532.066,169.995,-2.95111,0.10006,0.79316
532.766,170.23,-2.95045,0.10164,0.79258
533.466,170.465,-2.9527,0.10138,0.792
534.166,170.698,-2.95374,0.10468,0.79141
534.866,170.9319,-2.95111,0.1005,0.79083
535.566,171.165,-2.95046,0.10512,0.79024
536.266,171.399,-2.95385,0.10419,0.78966
536.966,171.6335,-2.95253,0.10034,0.78907
537.666,171.868,-2.95278,0.10456,0.78849
538.366,172.102,-2.95385,0.10597,0.7879
539.066,172.336,-2.95385,0.1055,0.78731
539.766,172.57,-2.95512,0.10664,0.78673
540.466,172.803,-2.95578,0.10405,0.78614
541.166,173.037,-2.95549,0.1038,0.78555
541.866,173.27,-2.95615,0.10469,0.78496
542.566,173.505,-2.95604,0.10459,0.78437
543.266,173.739,-2.95681,0.10249,0.78378
543.966,173.974,-2.95681,0.10531,0.78319
544.666,174.207,-2.95716,0.10514,0.7826
545.366,174.441,-2.95804,0.10859,0.78201
546.066,174.673,-2.95946,0.10914,0.78142
546.766,174.907,-2.95816,0.10428,0.78083
547.466,175.139,-2.95945,0.10559,0.78024
548.166,175.371,-2.95812,0.10366,0.77965
548.866,175.604,-2.9591,0.10269,0.77905
549.566,175.838,-2.96076,0.10311,0.77846
550.266,176.072,-2.95981,0.10531,0.77787
550.966,176.305,-2.96129,0.10456,0.77727
551.666,176.539,-2.96067,0.10212,0.77668
552.366,176.773,-2.96205,0.10641,0.77609
553.066,177.008,-2.96263,0.10354,0.77549
553.766,177.2436,-2.96223,0.10294,0.7749
554.466,177.48,-2.9623,0.10413,0.7743
555.166,177.716,-2.96328,0.10634,0.7737
555.866,177.951,-2.96259,0.10318,0.77311
556.566,178.186,-2.96526,0.10401,0.77251
557.266,178.421,-2.96494,0.10691,0.77191
557.966,178.655,-2.96122,0.10568,0.77132
558.666,178.89,-2.96654,0.10462,0.77072
559.366,179.124,-2.96523,0.10631,0.77012
560.066,179.359,-2.96657,0.10921,0.76952
560.766,179.594,-2.96658,0.10663,0.76892
561.466,179.829,-2.96787,0.1061,0.76832
562.166,180.062,-2.96658,0.10735,0.76772
562.866,180.295,-2.96559,0.10867,0.76712
563.566,180.529,-2.96821,0.10883,0.76652
564.266,180.763,-2.96822,0.10866,0.76592
564.966,180.998,-2.96873,0.10792,0.76532
565.666,181.233,-2.97085,0.10801,0.76472
566.366,181.468,-2.97215,0.10962,0.76412
567.066,181.702,-2.96878,0.11021,0.76352
567.766,181.937,-2.96953,0.11316,0.76291
568.466,182.17,-2.97074,0.1131,0.76231
569.166,182.404,-2.97098,0.1148,0.76171
569.866,182.638,-2.97224,0.11294,0.7611
570.566,182.875,-2.97294,0.11487,0.7605
571.266,183.112,-2.97311,0.11416,0.75989
571.966,183.347,-2.97361,0.11591,0.75929
572.666,183.581,-2.97227,0.11575,0.75868
573.366,183.816,-2.97359,0.1185,0.75808
574.066,184.05,-2.97491,0.11738,0.75747
574.766,184.286,-2.9746,0.11526,0.75687
575.466,184.5204,-2.97612,0.11775,0.75626
576.166,184.7558,-2.97532,0.11964,0.75565
576.866,184.991,-2.97523,0.1207,0.75505
577.566,185.226,-2.97589,0.12239,0.75444
578.266,185.461,-2.9759,0.12445,0.75383
578.966,185.696,-2.97721,0.12542,0.75322
579.666,185.932,-2.97721,0.12387,0.75261
580.366,186.167,-2.97721,0.12318,0.75201
581.066,186.402,-2.97728,0.12561,0.7514
581.766,186.636,-2.97918,0.12442,0.75079
582.466,186.869,-2.97952,0.12503,0.75018
583.166,187.1025,-2.97816,0.12696,0.74957
583.866,187.336,-2.98084,0.12648,0.74896
584.566,187.57,-2.97822,0.12503,0.74835
585.266,187.805,-2.98212,0.12299,0.74774
585.966,188.04,-2.97951,0.12291,0.74712
586.666,188.274,-2.98087,0.12533,0.74651
587.366,188.509,-2.98114,0.12355,0.7459
588.066,188.743,-2.98017,0.12703,0.74529
588.766,188.978,-2.98017,0.12706,0.74467
589.466,189.213,-2.98149,0.13093,0.74406
590.166,189.448,-2.98216,0.12803,0.74345
590.866,189.683,-2.98082,0.13031,0.74283
591.566,189.918,-2.98149,0.13044,0.74222
592.266,190.153,-2.98149,0.12681,0.74161
592.966,190.388,-2.98246,0.13046,0.74099
593.666,190.622,-2.98248,0.13186,0.74038
594.366,190.856,-2.98117,0.12656,0.73976
595.066,191.091,-2.98377,0.12854,0.73915
595.766,191.326,-2.98287,0.12925,0.73853
596.466,191.563,-2.98477,0.13046,0.73791
597.166,191.798,-2.98478,0.13019,0.7373
597.866,192.033,-2.98248,0.12956,0.73668
598.566,192.2679,-2.98643,0.12844,0.73606
599.266,192.502,-2.9848,0.12694,0.73545
599.966,192.736,-2.98471,0.1294,0.73483
600.666,192.971,-2.98785,0.13126,0.73421
601.366,193.204,-2.98544,0.1277,0.73359
602.066,193.439,-2.9861,0.12797,0.73297
602.766,193.675,-2.98755,0.12854,0.73235
603.466,193.912,-2.98466,0.12527,0.73173
604.166,194.149,-2.98805,0.13129,0.73111
604.866,194.385,-2.98873,0.13086,0.7305
605.566,194.62,-2.98653,0.13304,0.72987
606.266,194.856,-2.98514,0.13176,0.72925
606.966,195.092,-2.98961,0.13146,0.72863
607.666,195.327,-2.98829,0.13291,0.72801
608.366,195.561,-2.98697,0.13525,0.72739
609.066,195.795,-2.98961,0.13407,0.72677
609.766,196.03,-2.99092,0.13427,0.72615
610.466,196.266,-2.99093,0.13604,0.72553
611.166,196.501,-2.99092,0.134,0.7249
611.866,196.736,-2.99224,0.13301,0.72428
612.566,196.971,-2.99093,0.13146,0.72366
613.266,197.205,-2.99188,0.13341,0.72303
613.966,197.439,-2.99241,0.13634,0.72241
614.666,197.674,-2.99117,0.13566,0.72179
615.366,197.91,-2.99322,0.13316,0.72116
616.066,198.146,-2.99323,0.13349,0.72054
616.766,198.383,-2.99389,0.13519,0.71991
617.466,198.62,-2.9929,0.13156,0.71929
618.166,198.856,-2.99478,0.1367,0.71866
618.866,199.093,-2.9944,0.1336,0.71804
619.566,199.329,-2.99554,0.13965,0.71741
620.266,199.564,-2.99442,0.13966,0.71679
620.966,199.798,-2.99459,0.13758,0.71616
621.666,200.033,-2.99455,0.13771,0.71554
622.366,200.267,-2.99683,0.13786,0.71491
623.066,200.502,-2.99574,0.13841,0.71428
623.766,200.738,-2.99617,0.14059,0.71365
624.466,200.973,-2.99553,0.14059,0.71303
625.166,201.21,-2.99567,0.13947,0.7124
625.866,201.446,-2.99549,0.14182,0.71177
626.566,201.681,-2.99619,0.14292,0.71114
627.266,201.916,-2.99685,0.1414,0.71051
627.966,202.151,-2.99619,0.14388,0.70989
628.666,202.386,-2.99553,0.14134,0.70926
629.366,202.62,-2.99619,0.14519,0.70863
630.066,202.855,-2.99485,0.14531,0.708
630.766,203.091,-2.99818,0.14663,0.70737
631.466,203.328,-2.99619,0.1471,0.70674
632.166,203.564,-2.99659,0.14497,0.70611
632.866,203.799,-2.99751,0.14838,0.70548
633.566,204.034,-2.99745,0.14537,0.70485
634.266,204.269,-2.99752,0.14517,0.70422
634.966,204.505,-2.99882,0.14854,0.70358
635.666,204.74,-2.99952,0.14821,0.70295
636.366,204.977,-2.99883,0.1492,0.70232
637.066,205.213,-3.00014,0.15156,0.70169
637.766,205.45,-2.99948,0.1504,0.70106
638.466,205.685,-3.00211,0.15348,0.70043
639.166,205.922,-3.00007,0.15465,0.69979
639.866,206.157,-3.00008,0.15522,0.69916
640.566,206.393,-3.00139,0.16028,0.69853
641.266,206.629,-3.00222,0.1584,0.69789
641.966,206.866,-3.0008,0.1579,0.69726
642.666,207.102,-3.00079,0.15708,0.69663
643.366,207.339,-3.00146,0.15792,0.69599
644.066,207.575,-3.00014,0.15931,0.69536
644.766,207.812,-3.00014,0.16253,0.69472
645.466,208.047,-3.00242,0.16559,0.69409
646.166,208.284,-3.0002,0.16244,0.69345
646.866,208.52,-3.00105,0.16477,0.69282
647.566,208.757,-3.00211,0.16728,0.69218
648.266,208.993,-3.00078,0.16864,0.69155
648.966,209.227,-3.00207,0.16686,0.69091
649.666,209.461,-3.0011,0.16823,0.69028
650.366,209.693,-3.00341,0.17222,0.68964
651.066,209.927,-3.00245,0.17104,0.689
651.766,210.161,-3.00279,0.17229,0.68837
652.466,210.396,-3.0042,0.17531,0.68773
653.166,210.631,-3.00409,0.1744,0.68709
653.866,210.868,-3.0008,0.17342,0.68646
654.566,211.105,-3.00343,0.1762,0.68582
655.266,211.343,-3.00546,0.17234,0.68518
655.966,211.58,-3.00512,0.1765,0.68455
656.666,211.816,-3.00376,0.17849,0.68391
657.366,212.051,-3.00286,0.17587,0.68327
658.066,212.286,-3.00277,0.17743,0.68263
658.766,212.521,-3.00277,0.17971,0.68199
659.466,212.755,-3.00268,0.18233,0.68135
660.166,212.988,-3.00277,0.18115,0.68072
660.866,213.225,-3.00147,0.18223,0.68008
661.566,213.462,-3.00408,0.18055,0.67944
662.266,213.7,-3.00142,0.18565,0.6788
662.966,213.936,-3.00348,0.18946,0.67816
663.666,214.173,-3.00195,0.18701,0.67752
664.366,214.4104,-3.0025,0.19121,0.67688
665.066,214.647,-3.00345,0.1901,0.67624
665.766,214.884,-3.00376,0.19292,0.6756
666.466,215.119,-3.00477,0.19208,0.67496
667.166,215.354,-3.00309,0.19786,0.67432
667.866,215.59,-3.00443,0.19841,0.67368
668.566,215.826,-3.00309,0.20008,0.67303
669.266,216.062,-3.00211,0.20397,0.67239
669.966,216.298,-3.00614,0.20956,0.67175
670.666,216.533,-3.00321,0.2066,0.67111
671.366,216.768,-3.00514,0.20935,0.67047
672.066,217.005,-2.99977,0.20961,0.66983
672.766,217.2428,-3.00289,0.20973,0.66918
673.466,217.481,-3.0042,0.20569,0.66854
674.166,217.717,-3.00288,0.21402,0.6679
674.866,217.953,-3.00288,0.21502,0.66726
675.566,218.189,-3.00361,0.21694,0.66661
676.266,218.425,-3.00288,0.21815,0.66597
676.966,218.659,-3.00288,0.22235,0.66533
677.666,218.8946,-3.00288,0.22559,0.66469
678.366,219.131,-3.00223,0.22954,0.66404
679.066,219.368,-3.00223,0.22923,0.6634
679.766,219.605,-3.00354,0.23164,0.66276
680.466,219.841,-3.00222,0.23539,0.66211
681.166,220.0766,-3.00288,0.23379,0.66147
681.866,220.312,-3.00333,0.23334,0.66082
682.566,220.547,-3.0022,0.23766,0.66018
683.266,220.783,-3.00486,0.23924,0.65954
683.966,221.018,-3.00353,0.24186,0.65889
684.666,221.254,-3.00485,0.24564,0.65825
685.366,221.491,-3.00682,0.24495,0.6576
686.066,221.728,-3.00419,0.24444,0.65696
686.766,221.9652,-3.00587,0.24904,0.65631
687.466,222.203,-3.00682,0.24568,0.65567
688.166,222.44,-3.00551,0.24554,0.65502
688.866,222.677,-3.00564,0.24926,0.65437
689.566,222.914,-3.00617,0.25268,0.65373
690.266,223.151,-3.00552,0.25264,0.65308
690.966,223.388,-3.00683,0.25486,0.65244
691.666,223.624,-3.00682,0.2588,0.65179
692.366,223.859,-3.00782,0.25818,0.65115
693.066,224.095,-3.00683,0.26032,0.6505
693.766,224.332,-3.00548,0.26346,0.64985
694.466,224.567,-3.00585,0.26008,0.64921
695.166,224.803,-3.00714,0.26443,0.64856
695.866,225.039,-3.00619,0.26906,0.64791
696.566,225.276,-3.00617,0.27207,0.64727
697.266,225.5129,-3.00894,0.27278,0.64662
697.966,225.75,-3.00617,0.27061,0.64597
698.666,225.985,-3.01018,0.26686,0.64532
699.366,226.219,-3.00846,0.27135,0.64468
700.066,226.454,-3.00843,0.2758,0.64403
700.766,226.689,-3.00749,0.27606,0.64338
701.466,226.925,-3.00751,0.28081,0.64273
702.166,227.1613,-3.0078,0.27916,0.64209
702.866,227.3982,-3.01012,0.28486,0.64144
703.566,227.635,-3.00803,0.28667,0.64079
704.266,227.8733,-3.00914,0.29166,0.64014
704.966,228.111,-3.00914,0.2945,0.63949
705.666,228.349,-3.00946,0.29597,0.63885
706.366,228.587,-3.00914,0.29791,0.6382
707.066,228.825,-3.00956,0.2995,0.63755
707.766,229.062,-3.00979,0.30323,0.6369
708.466,229.299,-3.01111,0.29475,0.63625
709.166,229.536,-3.01111,0.30042,0.6356
709.866,229.7723,-3.01111,0.29896,0.63495
710.566,230.009,-3.01045,0.30391,0.6343
711.266,230.244,-3.01144,0.30258,0.63365
711.966,230.479,-3.01147,0.30368,0.63301
712.666,230.716,-3.01144,0.30606,0.63236
713.366,230.953,-3.01144,0.30711,0.63171
714.066,231.1892,-3.01539,0.31111,0.63106
714.766,231.4253,-3.01279,0.30522,0.63041
715.466,231.662,-3.01275,0.30526,0.62976
716.166,231.899,-3.01311,0.30365,0.62911
716.866,232.136,-3.01407,0.30431,0.62846
717.566,232.371,-3.01483,0.3093,0.62781
718.266,232.608,-3.0157,0.3068,0.62716
718.966,232.845,-3.01333,0.30552,0.62651
719.666,233.082,-3.01376,0.30527,0.62586
720.366,233.318,-3.01448,0.30403,0.62521
721.066,233.554,-3.01445,0.30731,0.62456
721.766,233.791,-3.01472,0.30435,0.62391
722.466,234.029,-3.01329,0.30415,0.62326
723.166,234.2662,-3.01503,0.3056,0.62261
723.866,234.503,-3.01539,0.3076,0.62196
724.566,234.741,-3.01473,0.30259,0.62131
725.266,234.978,-3.01481,0.30638,0.62065
725.966,235.215,-3.01606,0.30461,0.62
726.666,235.4504,-3.01473,0.30505,0.61935
727.366,235.685,-3.01374,0.31128,0.6187
728.066,235.92,-3.01506,0.30666,0.61805
728.766,236.156,-3.01602,0.30939,0.6174
729.466,236.3918,-3.01439,0.30726,0.61675
730.166,236.629,-3.01604,0.30857,0.6161
730.866,236.866,-3.0144,0.31132,0.61545
731.566,237.103,-3.01454,0.30884,0.6148
732.266,237.3406,-3.01624,0.30732,0.61414
732.966,237.578,-3.01637,0.30506,0.61349
733.666,237.815,-3.01698,0.30289,0.61284
734.366,238.052,-3.01697,0.30204,0.61219
735.066,238.29,-3.01571,0.30109,0.61154
735.766,238.528,-3.01689,0.30036,0.61089
736.466,238.766,-3.01932,0.30036,0.61023
737.166,239.003,-3.01802,0.30597,0.60958
737.866,239.24,-3.01934,0.30368,0.60893
738.566,239.477,-3.01701,0.29866,0.60828
739.266,239.713,-3.01801,0.30702,0.60763
739.966,239.95,-3.01801,0.30418,0.60698
740.666,240.187,-3.01804,0.30318,0.60632
741.366,240.424,-3.02028,0.30142,0.60567
742.066,240.661,-3.01895,0.29506,0.60502
742.766,240.898,-3.02031,0.29836,0.60437
743.466,241.136,-3.01935,0.29488,0.60372
744.166,241.374,-3.02065,0.29458,0.60306
744.866,241.611,-3.02195,0.29132,0.60241
745.566,241.849,-3.02164,0.28777,0.60176
746.266,242.085,-3.02032,0.28994,0.60111
746.966,242.32,-3.02032,0.28726,0.60046
747.666,242.555,-3.01999,0.28591,0.5998
748.366,242.791,-3.01997,0.29154,0.59915
749.066,243.027,-3.02,0.28712,0.5985
749.766,243.264,-3.02003,0.28519,0.59785
750.466,243.5,-3.01896,0.29011,0.5972
751.166,243.737,-3.01927,0.28433,0.59654
751.866,243.974,-3.01933,0.28309,0.59589
752.566,244.211,-3.01806,0.28136,0.59524
753.266,244.448,-3.02032,0.28479,0.59459
753.966,244.687,-3.01879,0.28562,0.59393
754.666,244.925,-3.01901,0.28891,0.59328
755.366,245.163,-3.01999,0.28339,0.59263
756.066,245.4,-3.02032,0.28475,0.59198
756.766,245.636,-3.01867,0.28378,0.59132
757.466,245.871,-3.0198,0.28508,0.59067
758.166,246.106,-3.01877,0.28297,0.59002
758.866,246.343,-3.01958,0.28124,0.58937
759.566,246.579,-3.01967,0.28125,0.58872
760.266,246.816,-3.02033,0.28303,0.58806
760.966,247.054,-3.01965,0.28345,0.58741
761.666,247.2921,-3.02064,0.28338,0.58676
762.366,247.529,-3.02228,0.28268,0.58611
763.066,247.766,-3.01966,0.28211,0.58545
763.766,248.003,-3.01966,0.28413,0.5848
764.466,248.241,-3.02166,0.28205,0.58415
765.166,248.4787,-3.02231,0.28155,0.5835
765.866,248.717,-3.02361,0.27971,0.58284
766.566,248.955,-3.02361,0.27635,0.58219
767.266,249.193,-3.02417,0.27786,0.58154
767.966,249.43,-3.02526,0.2783,0.58089
768.666,249.6655,-3.02394,0.27596,0.58024
769.366,249.9005,-3.02263,0.27816,0.57958
770.066,250.136,-3.02769,0.27815,0.57893
770.766,250.373,-3.02629,0.27627,0.57828
771.466,250.611,-3.02493,0.27856,0.57763
772.166,250.849,-3.02361,0.27582,0.57697
772.866,251.086,-3.02493,0.27457,0.57632
773.566,251.323,-3.02618,0.2731,0.57567
774.266,251.559,-3.02528,0.26958,0.57502
774.966,251.7956,-3.02459,0.27026,0.57437
775.666,252.032,-3.02426,0.27277,0.57371
776.366,252.269,-3.02426,0.27114,0.57306
777.066,252.506,-3.02397,0.26861,0.57241
777.766,252.744,-3.02405,0.27139,0.57176
778.466,252.982,-3.02398,0.27394,0.57111
779.166,253.219,-3.02295,0.27592,0.57045
779.866,253.457,-3.02362,0.27665,0.5698
780.566,253.695,-3.02558,0.27594,0.56915
781.266,253.933,-3.02756,0.2742,0.5685
781.966,254.17,-3.02761,0.27274,0.56785
782.666,254.408,-3.02596,0.27289,0.5672
783.366,254.644,-3.02687,0.27951,0.56654
784.066,254.8801,-3.02559,0.27808,0.56589
784.766,255.116,-3.02559,0.27951,0.56524
785.466,255.352,-3.02658,0.27776,0.56459
786.166,255.588,-3.02653,0.27634,0.56394
786.866,255.825,-3.02656,0.27571,0.56329
787.566,256.062,-3.02659,0.2833,0.56264
788.266,256.298,-3.02657,0.27613,0.56198
788.966,256.535,-3.02725,0.28609,0.56133
789.666,256.773,-3.02656,0.28168,0.56068
790.366,257.01,-3.02723,0.28375,0.56003
791.066,257.249,-3.02855,0.28623,0.55938
791.766,257.487,-3.02639,0.28458,0.55873
792.466,257.724,-3.02744,0.28911,0.55808
793.166,257.961,-3.02756,0.28819,0.55743
793.866,258.198,-3.02887,0.29434,0.55678
794.566,258.435,-3.02743,0.29749,0.55613
795.266,258.672,-3.02625,0.29539,0.55547
795.966,258.908,-3.02887,0.29626,0.55482
796.666,259.144,-3.02756,0.29518,0.55417
797.366,259.3801,-3.02724,0.30003,0.55352
798.066,259.617,-3.02723,0.30239,0.55287
798.766,259.854,-3.02813,0.29452,0.55222
799.166,259.989,-3.02723,0.29841,0.55185