File: 01_Data/HDPE/STA/N2/3K_min/HDPE_STA_N2_3KData_2199_R1.csv
##Temp./Â°C,Time/min,Mass loss(subtr.2)/mg,DSC(subtr.2)/(mW/mg),Sensit./(uV/mW)
49.701,10.01,-0.04048,-0.00384758,1.03585
50.301,12.12188,-0.04650727,0.02045956,1.03582
50.901,12.80302,-0.04650961,0.02946276,1.03579
51.501,13.3254,-0.04783187,0.03861781,1.03576
52.101,13.7759,-0.04913951,0.04288199,1.03572
52.701,14.1831,-0.05035289,0.04758413,1.03569
53.301,14.5598,-0.05035005,0.05280379,1.03565
53.901,14.9139,-0.05283701,0.05681501,1.03562
54.501,15.24809,-0.05167013,0.05806235,1.03558
55.101,15.5669,-0.05166497,0.06312816,1.03554
55.701,15.8734,-0.0529146,0.06639544,1.03549
56.301,16.16994,-0.05429954,0.06964783,1.03545
56.901,16.4573,-0.05486629,0.06991492,1.0354
57.501,16.7358,-0.05397154,0.07416229,1.03536
58.101,17.00702,-0.05529015,0.07653543,1.03531
58.701,17.27261,-0.05660236,0.07456068,1.03526
59.301,17.5328,-0.05693687,0.08133364,1.03521
59.901,17.78806,-0.05510406,0.08016652,1.03515
60.501,18.03991,-0.05615987,0.07993876,1.0351
61.101,18.2873,-0.05659045,0.08044883,1.03504
61.701,18.53186,-0.05780731,0.08235791,1.03498
62.301,18.77254,-0.05782312,0.08439172,1.03492
62.901,19.01148,-0.05780356,0.08578185,1.03486
63.501,19.24825,-0.05780724,0.08607097,1.0348
64.101,19.48242,-0.05913051,0.08585877,1.03473
64.701,19.71385,-0.06040022,0.08721418,1.03467
65.301,19.94305,-0.05912939,0.09036143,1.0346
65.901,20.17,-0.06043989,0.09043621,1.03453
66.501,20.3951,-0.06036322,0.08923458,1.03446
67.101,20.61766,-0.06044,0.09195798,1.03439
67.701,20.8396,-0.06175993,0.08967222,1.03432
68.301,21.05969,-0.06176272,0.09250329,1.03424
68.901,21.28006,-0.06176,0.09450937,1.03417
69.501,21.49907,-0.0617501,0.0940098,1.03409
70.101,21.71673,-0.06276607,0.09358103,1.03401
70.701,21.9325,-0.06175954,0.09443486,1.03393
71.301,22.14733,-0.06191522,0.09248744,1.03385
71.901,22.36137,-0.06275003,0.09718137,1.03376
72.501,22.57487,-0.0630693,0.09536959,1.03368
73.101,22.78821,-0.06306937,0.09797916,1.03359
73.701,23.00115,-0.06307608,0.09657701,1.0335
74.301,23.21325,-0.06439131,0.09791961,1.03341
74.901,23.42512,-0.06302222,0.09622664,1.03332
75.501,23.6351,-0.0633133,0.09937137,1.03323
76.101,23.84478,-0.06445702,0.10159,1.03313
76.701,24.05384,-0.06439488,0.09856313,1.03304
77.301,24.26164,-0.06405506,0.10582,1.03294
77.901,24.4698,-0.06537169,0.10089,1.03284
78.501,24.6776,-0.06274685,0.10145,1.03274
79.101,24.88578,-0.06392548,0.10291,1.03264
79.701,25.09391,-0.06406001,0.10526,1.03254
80.301,25.30152,-0.06538071,0.1025,1.03243
80.901,25.50808,-0.0657096,0.10515,1.03233
81.501,25.71366,-0.06637496,0.10752,1.03222
82.101,25.91764,-0.06407243,0.10785,1.03211
82.701,26.12199,-0.06570374,0.10841,1.032
83.301,26.32605,-0.06672405,0.10953,1.03189
83.901,26.53016,-0.06669065,0.10998,1.03177
84.501,26.7343,-0.0667,0.10989,1.03166
85.101,26.9384,-0.06702001,0.11188,1.03154
85.701,27.14122,-0.065973,0.11095,1.03143
86.301,27.3443,-0.06537053,0.11098,1.03131
86.901,27.54575,-0.06801769,0.11138,1.03119
87.501,27.74785,-0.06669042,0.11163,1.03106
88.101,27.9491,-0.06801001,0.11154,1.03094
88.701,28.1502,-0.06933334,0.10971,1.03081
89.301,28.35122,-0.06835966,0.11236,1.03069
89.901,28.5514,-0.06964394,0.11132,1.03056
90.501,28.7516,-0.06928944,0.11402,1.03043
91.101,28.9519,-0.06867741,0.11126,1.0303
91.701,29.15188,-0.06932,0.11424,1.03017
92.301,29.3512,-0.06932999,0.11611,1.03003
92.901,29.5497,-0.06867,0.11696,1.0299
93.501,29.7483,-0.06997078,0.11425,1.02976
94.101,29.94722,-0.07052311,0.11524,1.02963
94.701,30.14606,-0.06933,0.116,1.02949
95.301,30.3438,-0.07005338,0.11608,1.02935
95.901,30.54135,-0.07063571,0.11739,1.0292
96.501,30.7387,-0.0706394,0.11723,1.02906
97.101,30.9368,-0.06932316,0.11883,1.02891
97.701,31.13435,-0.07064712,0.12113,1.02877
98.301,31.3315,-0.07064,0.12124,1.02862
98.901,31.52865,-0.07130001,0.12245,1.02847
99.501,31.7243,-0.07064,0.12201,1.02832
100.101,31.9211,-0.07066366,0.12323,1.02817
100.701,32.1169,-0.07194401,0.12428,1.02802
101.301,32.31328,-0.07097022,0.12478,1.02786
101.901,32.50933,-0.07194438,0.12382,1.0277
102.501,32.70548,-0.0707353,0.12614,1.02755
103.101,32.90098,-0.0706509,0.12688,1.02739
103.701,33.09697,-0.07196001,0.12745,1.02723
104.301,33.2935,-0.07291444,0.12672,1.02707
104.901,33.48917,-0.07196,0.12754,1.0269
105.501,33.68524,-0.07196175,0.1295,1.02674
106.101,33.87927,-0.07195373,0.13278,1.02657
106.701,34.07423,-0.07294989,0.13103,1.02641
107.301,34.26988,-0.07195987,0.13372,1.02624
107.901,34.46646,-0.07197145,0.13419,1.02607
108.501,34.662,-0.07294,0.13506,1.0259
109.101,34.85777,-0.07163084,0.13723,1.02572
109.701,35.05312,-0.07195068,0.13948,1.02555
110.301,35.2481,-0.07328558,0.13963,1.02537
110.901,35.4435,-0.07295048,0.14156,1.0252
111.501,35.63861,-0.07261009,0.14247,1.02502
112.101,35.83365,-0.07265396,0.14683,1.02484
112.701,36.02922,-0.07194687,0.14822,1.02466
113.301,36.22446,-0.07336402,0.15094,1.02448
113.901,36.41979,-0.07196012,0.1499,1.02429
114.501,36.61483,-0.07195953,0.1532,1.02411
115.101,36.8098,-0.07195999,0.15717,1.02392
115.701,37.0047,-0.07054489,0.15954,1.02374
116.301,37.19998,-0.07196,0.16095,1.02355
116.901,37.39479,-0.07231857,0.16442,1.02336
117.501,37.58976,-0.07228999,0.16765,1.02317
118.101,37.78497,-0.07261382,0.1704,1.02297
118.701,37.97967,-0.07262,0.17591,1.02278
119.301,38.17503,-0.07229013,0.18046,1.02258
119.901,38.36995,-0.07229,0.18525,1.02239
120.501,38.56439,-0.07135092,0.19193,1.02219
121.101,38.75889,-0.07258205,0.19885,1.02199
121.701,38.95304,-0.07261974,0.20638,1.02179
122.301,39.14741,-0.07260523,0.21368,1.02159
122.901,39.34255,-0.07434763,0.22497,1.02138
123.501,39.53712,-0.07426,0.23565,1.02118
124.101,39.73168,-0.07327696,0.25099,1.02097
124.701,39.92617,-0.07293994,0.27058,1.02077
125.301,40.1209,-0.07196576,0.29158,1.02056
125.901,40.31524,-0.07295,0.32086,1.02035
126.501,40.51025,-0.07295,0.356,1.02014
127.101,40.70545,-0.07253431,0.40098,1.01992
127.701,40.9009,-0.07261073,0.45461,1.01971
128.301,41.09705,-0.07180419,0.52434,1.0195
128.901,41.29333,-0.07130001,0.61112,1.01928
129.501,41.49115,-0.07164823,0.71659,1.01906
130.101,41.68933,-0.07162983,0.84139,1.01884
130.701,41.8886,-0.07196167,0.98818,1.01862
131.301,42.08833,-0.07065012,1.15624,1.0184
131.901,42.28784,-0.06999092,1.32538,1.01818
132.501,42.4884,-0.07064,1.47033,1.01796
133.101,42.6884,-0.07064127,1.56286,1.01773
133.701,42.8878,-0.07065,1.58027,1.0175
134.301,43.0849,-0.0706435,1.50827,1.01728
134.901,43.27916,-0.06932811,1.34059,1.01705
135.501,43.46925,-0.07064,1.03176,1.01682
136.101,43.65568,-0.0708572,0.60048,1.01659
136.701,43.84061,-0.07196001,0.315,1.01635
137.301,44.02469,-0.07196004,0.20015,1.01612
137.901,44.2104,-0.07130001,0.16045,1.01589
138.501,44.3982,-0.0720138,0.14542,1.01565
139.101,44.58679,-0.072576,0.14025,1.01541
139.701,44.7761,-0.07261751,0.13722,1.01517
140.301,44.9647,-0.07205243,0.135,1.01493
140.901,45.1541,-0.07295,0.13729,1.01469
141.501,45.3431,-0.07295,0.13725,1.01445
142.101,45.53228,-0.07162997,0.13933,1.0142
142.701,45.72228,-0.07294837,0.13858,1.01396
143.301,45.9121,-0.07163,0.141,1.01371
143.901,46.10205,-0.07164134,0.1397,1.01347
144.501,46.29166,-0.07294001,0.13917,1.01322
145.101,46.48158,-0.07163,0.14164,1.01297
145.701,46.6719,-0.07066197,0.14121,1.01272
146.301,46.86189,-0.07261207,0.13939,1.01246
146.901,47.05195,-0.07391733,0.14218,1.01221
147.501,47.2423,-0.07261,0.14103,1.01196
148.101,47.43277,-0.07261,0.14297,1.0117
148.701,47.62308,-0.07392888,0.14268,1.01144
149.301,47.81308,-0.07262,0.14322,1.01119
149.901,48.00328,-0.07262,0.14265,1.01093
150.501,48.19356,-0.07394,0.14244,1.01067
151.101,48.38433,-0.07383944,0.14394,1.0104
151.701,48.57479,-0.07229521,0.14413,1.01014
152.301,48.7654,-0.07261231,0.1444,1.00988
152.901,48.95582,-0.07261022,0.14413,1.00961
153.501,49.14634,-0.07261937,0.14392,1.00935
154.101,49.3367,-0.07399311,0.1469,1.00908
154.701,49.52745,-0.07196002,0.14563,1.00881
155.301,49.71795,-0.07196,0.14423,1.00854
155.901,49.9086,-0.07196116,0.14503,1.00827
156.501,50.0997,-0.07196004,0.14665,1.008
157.101,50.2898,-0.07196006,0.14525,1.00772
157.701,50.48079,-0.07327053,0.14926,1.00745
158.301,50.6715,-0.07262336,0.14771,1.00717
158.901,50.86233,-0.07228956,0.1506,1.0069
159.501,51.05275,-0.07221343,0.14968,1.00662
160.101,51.2432,-0.07196046,0.14937,1.00634
160.701,51.43312,-0.07220469,0.14778,1.00606
161.301,51.62312,-0.07200452,0.14943,1.00578
161.901,51.81258,-0.07096119,0.1483,1.00549
162.501,52.00205,-0.07097753,0.14881,1.00521
163.101,52.19188,-0.06994148,0.14865,1.00493
163.701,52.38163,-0.07196006,0.1498,1.00464
164.301,52.5717,-0.07099611,0.15054,1.00435
164.901,52.7623,-0.07196001,0.14837,1.00406
165.501,52.9528,-0.07064343,0.15015,1.00377
166.101,53.1433,-0.07237696,0.15066,1.00348
166.701,53.3333,-0.07163,0.15208,1.00319
167.301,53.5235,-0.07163001,0.15429,1.0029
167.901,53.7137,-0.07031,0.15331,1.00261
168.501,53.90456,-0.07030967,0.15211,1.00231
169.101,54.0955,-0.07102093,0.15448,1.00201
169.701,54.28624,-0.0702957,0.15109,1.00172
170.301,54.47694,-0.07031,0.15305,1.00142
170.901,54.6672,-0.06899988,0.15428,1.00112
171.501,54.8573,-0.07032,0.15366,1.00082
172.101,55.0479,-0.07032,0.15396,1.00052
172.701,55.2378,-0.06928065,0.15292,1.00022
173.301,55.42805,-0.07098,0.15533,0.99991
173.901,55.61829,-0.06965999,0.15474,0.99961
174.501,55.8086,-0.07064,0.15458,0.9993
175.101,55.99896,-0.06932,0.1569,0.99899
175.701,56.18936,-0.06963234,0.15417,0.99869
176.301,56.37965,-0.06965,0.15473,0.99838
176.901,56.5695,-0.07096983,0.15724,0.99807
177.501,56.75946,-0.06998917,0.15674,0.99776
178.101,56.9495,-0.06933,0.15758,0.99744
178.701,57.13986,-0.06933062,0.15739,0.99713
179.301,57.33099,-0.06932653,0.15829,0.99682
179.901,57.5216,-0.06933,0.15944,0.9965
180.501,57.71154,-0.07031,0.16097,0.99618
181.101,57.9015,-0.07031,0.1594,0.99587
181.701,58.09189,-0.06899443,0.16019,0.99555
182.301,58.2822,-0.06899371,0.16039,0.99523
182.901,58.4726,-0.07031669,0.15995,0.99491
183.501,58.66222,-0.06899984,0.16085,0.99459
184.101,58.85188,-0.06969785,0.16049,0.99426
184.701,59.0415,-0.06896515,0.15948,0.99394
185.301,59.23115,-0.06902852,0.16236,0.99362
185.901,59.42097,-0.07064,0.16135,0.99329
186.501,59.61076,-0.07064271,0.1634,0.99296
187.101,59.80065,-0.07063415,0.16293,0.99263
187.701,59.99054,-0.06998029,0.16395,0.99231
188.301,60.1806,-0.07097506,0.164,0.99198
188.901,60.37055,-0.06966241,0.16561,0.99164
189.501,60.5609,-0.06965741,0.16432,0.99131
190.101,60.7507,-0.06999097,0.16399,0.99098
190.701,60.94119,-0.07007038,0.1637,0.99065
191.301,61.1313,-0.06999097,0.16521,0.99031
191.901,61.3213,-0.07126631,0.16418,0.98998
192.501,61.51141,-0.06999001,0.16454,0.98964
193.101,61.70129,-0.06998003,0.16625,0.9893
193.701,61.89094,-0.06998,0.16557,0.98896
194.301,62.08048,-0.07035173,0.16527,0.98862
194.901,62.26981,-0.06933886,0.16651,0.98828
195.501,62.4589,-0.07130209,0.16791,0.98794
196.101,62.6481,-0.07064002,0.16615,0.9876
196.701,62.83732,-0.07068792,0.16825,0.98725
197.301,63.0261,-0.06933,0.16738,0.98691
197.901,63.21535,-0.07065405,0.16552,0.98656
198.501,63.40469,-0.06932001,0.16862,0.98622
199.101,63.5946,-0.07064496,0.16709,0.98587
199.701,63.78499,-0.06803609,0.16917,0.98552
200.301,63.97472,-0.06940683,0.16926,0.98517
200.901,64.1635,-0.06802349,0.16911,0.98482
201.501,64.35258,-0.06932012,0.17091,0.98447
202.101,64.54136,-0.06866923,0.17342,0.98411
202.701,64.7303,-0.07029835,0.17336,0.98376
203.301,64.9201,-0.06867,0.17061,0.98341
203.901,65.1095,-0.06999058,0.17147,0.98305
204.501,65.2997,-0.06868799,0.17453,0.9827
205.101,65.4896,-0.06866999,0.17468,0.98234
205.701,65.67956,-0.06866995,0.17105,0.98198
206.301,65.86945,-0.06937547,0.17506,0.98162
206.901,66.05886,-0.06767908,0.17464,0.98126
207.501,66.24874,-0.06768,0.17418,0.9809
208.101,66.43814,-0.06866013,0.1735,0.98054
208.701,66.62812,-0.06835268,0.17388,0.98018
209.301,66.81796,-0.06734985,0.17163,0.97981
209.901,67.00815,-0.06768,0.17283,0.97945
210.501,67.19825,-0.06768,0.17286,0.97908
211.101,67.38845,-0.0689923,0.17142,0.97872
211.701,67.57884,-0.06902069,0.17273,0.97835
212.301,67.769,-0.06867,0.17272,0.97798
212.901,67.95903,-0.06735422,0.17298,0.97761
213.501,68.14854,-0.06757748,0.17392,0.97724
214.101,68.3381,-0.06933039,0.17547,0.97687
214.701,68.52764,-0.06801002,0.17415,0.9765
215.301,68.71722,-0.06637,0.17557,0.97613
215.901,68.90694,-0.0680055,0.17351,0.97575
216.501,69.09618,-0.06801998,0.17484,0.97538
217.101,69.28665,-0.06703,0.17594,0.975
217.701,69.47573,-0.06898987,0.17528,0.97463
218.301,69.6654,-0.06767954,0.17605,0.97425
218.901,69.85472,-0.06768,0.1777,0.97387
219.501,70.04445,-0.06768603,0.17641,0.97349
220.101,70.23355,-0.06768003,0.1753,0.97311
220.701,70.4236,-0.06702311,0.17785,0.97273
221.301,70.61331,-0.06801002,0.17646,0.97235
221.901,70.80372,-0.06563861,0.17383,0.97197
222.501,70.994,-0.06708938,0.17608,0.97159
223.101,71.18434,-0.06801,0.17692,0.9712
223.701,71.37505,-0.06836425,0.17537,0.97082
224.301,71.56534,-0.06735084,0.17587,0.97043
224.901,71.7555,-0.06703,0.17729,0.97004
225.501,71.94569,-0.06693478,0.17851,0.96966
226.101,72.13531,-0.06809692,0.17876,0.96927
226.701,72.32519,-0.06834048,0.17731,0.96888
227.301,72.515,-0.06571875,0.17974,0.96849
227.901,72.70421,-0.06636001,0.17929,0.9681
228.501,72.89365,-0.06636,0.17871,0.96771
229.101,73.08304,-0.0670199,0.17887,0.96732
229.701,73.27282,-0.06602981,0.18046,0.96692
230.301,73.46289,-0.0683401,0.18076,0.96653
230.901,73.65298,-0.06636,0.17666,0.96613
231.501,73.84284,-0.06636,0.17912,0.96574
232.101,74.03278,-0.06571,0.18004,0.96534
232.701,74.22269,-0.06504998,0.17991,0.96495
233.301,74.41325,-0.06569307,0.1805,0.96455
233.901,74.60331,-0.06571,0.18168,0.96415
234.501,74.7931,-0.06525287,0.18387,0.96375
235.101,74.9833,-0.0663447,0.18322,0.96335
235.701,75.17351,-0.06637,0.18333,0.96295
236.301,75.36394,-0.06490229,0.18683,0.96255
236.901,75.5541,-0.06571,0.18529,0.96214
237.501,75.74379,-0.06701986,0.18627,0.96174
238.101,75.9336,-0.06534655,0.18448,0.96134
238.701,76.1235,-0.06669022,0.18552,0.96093
239.301,76.31358,-0.06537744,0.18576,0.96052
239.901,76.50381,-0.06538104,0.1871,0.96012
240.501,76.69417,-0.06689196,0.18504,0.95971
241.101,76.88422,-0.0657063,0.18316,0.9593
241.701,77.07393,-0.06579276,0.18666,0.95889
242.301,77.26388,-0.06472,0.18742,0.95848
242.901,77.45427,-0.06339996,0.1861,0.95807
243.501,77.64479,-0.06570351,0.18792,0.95766
244.101,77.83539,-0.06472926,0.18708,0.95725
244.701,78.02546,-0.06505,0.18825,0.95684
245.301,78.2155,-0.06504999,0.18795,0.95642
245.901,78.40564,-0.06503999,0.18839,0.95601
246.501,78.59575,-0.06634767,0.18827,0.95559
247.101,78.78627,-0.06521883,0.18841,0.95518
247.701,78.9764,-0.06438487,0.19081,0.95476
248.301,79.16656,-0.06438493,0.18719,0.95435
248.901,79.35706,-0.06439,0.18973,0.95393
249.501,79.54683,-0.06441512,0.18795,0.95351
250.101,79.73679,-0.06431997,0.1864,0.95309
250.701,79.9264,-0.06472,0.18959,0.95267
251.301,80.11615,-0.06538037,0.18672,0.95225
251.901,80.30657,-0.06538,0.18862,0.95183
252.501,80.49696,-0.06405966,0.18725,0.95141
253.101,80.68737,-0.06471733,0.18799,0.95098
253.701,80.87779,-0.06472,0.19067,0.95056
254.301,81.06836,-0.06472,0.19046,0.95014
254.901,81.25888,-0.06334812,0.19098,0.94971
255.501,81.44911,-0.06512567,0.18981,0.94928
256.101,81.6395,-0.06339987,0.18871,0.94886
256.701,81.82966,-0.06374317,0.19253,0.94843
257.301,82.01982,-0.06373,0.19103,0.948
257.901,82.2103,-0.06505057,0.19113,0.94758
258.501,82.40055,-0.06438961,0.19408,0.94715
259.101,82.59134,-0.06419326,0.19402,0.94672
259.701,82.7821,-0.06373992,0.19501,0.94629
260.301,82.97246,-0.06407,0.19265,0.94586
260.901,83.16269,-0.06406983,0.19184,0.94542
261.501,83.35284,-0.06373953,0.1943,0.94499
262.101,83.54334,-0.06374,0.19229,0.94456
262.701,83.73406,-0.06374,0.19135,0.94412
263.301,83.9245,-0.06366831,0.18893,0.94369
263.901,84.11519,-0.06274992,0.1901,0.94325
264.501,84.3058,-0.06439,0.19097,0.94282
265.101,84.49574,-0.06308308,0.19045,0.94238
265.701,84.6863,-0.06439119,0.19299,0.94195
266.301,84.87655,-0.06405866,0.1909,0.94151
266.901,85.0667,-0.06406,0.19197,0.94107
267.501,85.25757,-0.06406,0.19509,0.94063
268.101,85.44819,-0.06382685,0.19282,0.94019
268.701,85.63897,-0.06373956,0.19483,0.93975
269.301,85.83,-0.06405962,0.19538,0.93931
269.901,86.0206,-0.06406053,0.19444,0.93887
270.501,86.21119,-0.06341,0.1956,0.93843
271.101,86.4011,-0.06341,0.19264,0.93798
271.701,86.5916,-0.06308003,0.19129,0.93754
272.301,86.78197,-0.06308,0.18984,0.9371
272.901,86.97284,-0.06340997,0.19353,0.93665
273.501,87.16452,-0.06308,0.19346,0.93621
274.101,87.3563,-0.06211607,0.19351,0.93576
274.701,87.5474,-0.06241927,0.19432,0.93531
275.301,87.73828,-0.06242464,0.19692,0.93487
275.901,87.9289,-0.0627497,0.19278,0.93442
276.501,88.1194,-0.06241931,0.1955,0.93397
277.101,88.31095,-0.06373025,0.19418,0.93352
277.701,88.50224,-0.06300767,0.19834,0.93307
278.301,88.69349,-0.06274,0.19702,0.93262
278.901,88.88469,-0.06205486,0.19695,0.93217
279.501,89.0753,-0.06356598,0.19603,0.93172
280.101,89.2662,-0.06143102,0.19605,0.93127
280.701,89.45724,-0.06274,0.19663,0.93082
281.301,89.6481,-0.06274,0.19641,0.93037
281.901,89.83923,-0.06143026,0.19501,0.92991
282.501,90.03024,-0.06207004,0.19563,0.92946
283.101,90.22104,-0.06208996,0.19576,0.929
283.701,90.4118,-0.06242,0.19883,0.92855
284.301,90.60271,-0.06241946,0.19618,0.92809
284.901,90.79349,-0.0611,0.19652,0.92764
285.501,90.98433,-0.06117901,0.19851,0.92718
286.101,91.1752,-0.06209,0.19877,0.92672
286.701,91.36673,-0.06209,0.19647,0.92626
287.301,91.55837,-0.06077481,0.19905,0.92581
287.901,91.74974,-0.06275054,0.19528,0.92535
288.501,91.94095,-0.06143084,0.19569,0.92489
289.101,92.1319,-0.06143,0.1954,0.92443
289.701,92.32281,-0.06143,0.19534,0.92397
290.301,92.51423,-0.06208,0.19757,0.92351
290.901,92.705,-0.06208,0.20009,0.92304
291.501,92.89621,-0.06208,0.19809,0.92258
292.101,93.08796,-0.06129417,0.20047,0.92212
292.701,93.2791,-0.06174994,0.19875,0.92166
293.301,93.4705,-0.0611,0.1987,0.92119
293.901,93.66197,-0.0624129,0.1987,0.92073
294.501,93.85303,-0.06143,0.19698,0.92026
295.101,94.0446,-0.06143,0.19536,0.9198
295.701,94.2359,-0.06209413,0.19591,0.91933
296.301,94.42748,-0.06209,0.19529,0.91887
296.901,94.62006,-0.06176031,0.19653,0.9184
297.501,94.81221,-0.06176,0.19426,0.91793
298.101,95.00402,-0.06176,0.19408,0.91747
298.701,95.1953,-0.06176,0.19412,0.917
299.301,95.38677,-0.0627499,0.19434,0.91653
299.901,95.57834,-0.06010979,0.19272,0.91606
300.501,95.77068,-0.06274666,0.19424,0.91559
301.101,95.96284,-0.06143,0.19398,0.91512
301.701,96.1551,-0.06006197,0.19157,0.91465
302.301,96.34711,-0.06143,0.19424,0.91418
302.901,96.5389,-0.06143,0.19224,0.91371
303.501,96.7306,-0.06077003,0.19464,0.91323
304.101,96.9225,-0.06142994,0.19385,0.91276
304.701,97.11453,-0.06077,0.19311,0.91229
305.301,97.30686,-0.06129505,0.19475,0.91182
305.901,97.49895,-0.05977194,0.19508,0.91134
306.501,97.69099,-0.06208998,0.20147,0.91087
307.101,97.88314,-0.06111161,0.19777,0.91039
307.701,98.07531,-0.06203105,0.19737,0.90992
308.301,98.26737,-0.06214113,0.19806,0.90944
308.901,98.45913,-0.06111385,0.20188,0.90896
309.501,98.65074,-0.06208965,0.19703,0.90849
310.101,98.84265,-0.06173655,0.198,0.90801
310.701,99.03432,-0.06176,0.19972,0.90753
311.301,99.2264,-0.0617595,0.19797,0.90706
311.901,99.41891,-0.06311241,0.19764,0.90658
312.501,99.61081,-0.06176007,0.19981,0.9061
313.101,99.8029,-0.06077,0.20521,0.90562
313.701,99.99476,-0.06108158,0.20315,0.90514
314.301,100.186,-0.06242,0.20424,0.90466
314.901,100.3782,-0.06209332,0.20327,0.90418
315.501,100.57,-0.06308,0.20378,0.9037
316.101,100.763,-0.06264464,0.20459,0.90322
316.701,100.955,-0.06242,0.20321,0.90274
317.301,101.147,-0.06143,0.20436,0.90225
317.901,101.34,-0.06274417,0.20418,0.90177
318.501,101.532,-0.063419,0.20094,0.90129
319.101,101.725,-0.06318139,0.20116,0.90081
319.701,101.918,-0.06308,0.20342,0.90032
320.301,102.1102,-0.06241,0.20119,0.89984
320.901,102.303,-0.06241887,0.20212,0.89935
321.501,102.496,-0.06242018,0.20179,0.89887
322.101,102.688,-0.06208004,0.20505,0.89838
322.701,102.881,-0.06274014,0.19987,0.8979
323.301,103.073,-0.06154891,0.20195,0.89741
323.901,103.266,-0.06137758,0.20271,0.89693
324.501,103.458,-0.06274144,0.20381,0.89644
325.101,103.651,-0.06467326,0.20362,0.89595
325.701,103.843,-0.06624315,0.20413,0.89546
326.301,104.034,-0.06373003,0.2041,0.89498
326.901,104.226,-0.06505001,0.20439,0.89449
327.501,104.419,-0.06373017,0.20381,0.894
328.101,104.611,-0.06207863,0.20201,0.89351
328.701,104.804,-0.06212678,0.20577,0.89302
329.301,104.997,-0.06187642,0.20459,0.89253
329.901,105.191,-0.06307,0.20322,0.89204
330.501,105.385,-0.06307,0.20355,0.89155
331.101,105.578,-0.06277501,0.20272,0.89106
331.701,105.772,-0.06206705,0.20499,0.89057
332.301,105.966,-0.06385201,0.20596,0.89008
332.901,106.16,-0.06274001,0.20285,0.88959
333.501,106.353,-0.06010996,0.20485,0.8891
334.101,106.546,-0.06010996,0.20578,0.8886
334.701,106.739,-0.06427999,0.20607,0.88811
335.301,106.933,-0.06691198,0.20501,0.88762
335.901,107.126,-0.06284678,0.20707,0.88712
336.501,107.318,-0.06153873,0.20662,0.88663
337.101,107.511,-0.06153569,0.20789,0.88614
337.701,107.704,-0.06284989,0.2062,0.88564
338.301,107.897,-0.06349058,0.20708,0.88515
338.901,108.0892,-0.06255035,0.20458,0.88465
339.501,108.282,-0.06253029,0.20626,0.88416
340.101,108.475,-0.06394497,0.20538,0.88366
340.701,108.669,-0.06153406,0.20616,0.88317
341.301,108.862,-0.06299369,0.20847,0.88267
341.901,109.055,-0.06291818,0.20969,0.88217
342.501,109.248,-0.0635709,0.20941,0.88168
343.101,109.441,-0.06186282,0.20883,0.88118
343.701,109.634,-0.06253188,0.20922,0.88068
344.301,109.827,-0.06253,0.20904,0.88019
344.901,110.02,-0.06384998,0.20922,0.87969
345.501,110.214,-0.06253007,0.20527,0.87919
346.101,110.408,-0.06253,0.20532,0.87869
346.701,110.603,-0.06339108,0.20934,0.87819
347.301,110.797,-0.06253,0.20784,0.87769
347.901,110.9916,-0.06119395,0.20765,0.8772
348.501,111.186,-0.0625175,0.20821,0.8767
349.101,111.38,-0.06153999,0.20665,0.8762
349.701,111.574,-0.06253032,0.20811,0.8757
350.301,111.768,-0.06253,0.20649,0.8752
350.901,111.962,-0.06253003,0.20702,0.8747
351.501,112.157,-0.06253,0.208,0.8742
352.101,112.351,-0.06252995,0.20821,0.87369
352.701,112.545,-0.06218987,0.20902,0.87319
353.301,112.738,-0.06256623,0.21092,0.87269
353.901,112.932,-0.06088,0.21098,0.87219
354.501,113.125,-0.06154,0.2118,0.87169
355.101,113.319,-0.06212187,0.2135,0.87119
355.701,113.512,-0.06221827,0.21068,0.87068
356.301,113.7055,-0.06187032,0.21185,0.87018
356.901,113.9,-0.06187,0.21322,0.86968
357.501,114.094,-0.06188937,0.21222,0.86918
358.101,114.288,-0.06219093,0.21203,0.86867
358.701,114.483,-0.06219,0.21455,0.86817
359.301,114.677,-0.06219,0.21501,0.86766
359.901,114.871,-0.06218947,0.21515,0.86716
360.501,115.065,-0.06318,0.21572,0.86666
361.101,115.259,-0.06318207,0.21689,0.86615
361.701,115.453,-0.06317996,0.21538,0.86565
362.301,115.646,-0.06299976,0.21417,0.86514
362.901,115.84,-0.06252233,0.21401,0.86464
363.501,116.033,-0.06318,0.21728,0.86413
364.101,116.227,-0.06186,0.21577,0.86363
364.701,116.421,-0.06355246,0.2174,0.86312
365.301,116.615,-0.06318486,0.21916,0.86262
365.901,116.809,-0.06287825,0.21991,0.86211
366.501,117.004,-0.06284999,0.21615,0.8616
367.101,117.199,-0.06314815,0.21815,0.8611
367.701,117.394,-0.06384043,0.21816,0.86059
368.301,117.589,-0.06384,0.21842,0.86008
368.901,117.783,-0.06331462,0.22324,0.85958
369.501,117.977,-0.06318246,0.22318,0.85907
370.101,118.172,-0.06417021,0.22408,0.85856
370.701,118.367,-0.06359104,0.22313,0.85806
371.301,118.562,-0.06436565,0.22049,0.85755
371.901,118.758,-0.06317975,0.22335,0.85704
372.501,118.952,-0.0645,0.2242,0.85653
373.101,119.147,-0.06450001,0.22359,0.85602
373.701,119.342,-0.06323911,0.22584,0.85552
374.301,119.536,-0.06449999,0.22459,0.85501
374.901,119.731,-0.0645,0.22532,0.8545
375.501,119.925,-0.06317996,0.22749,0.85399
376.101,120.12,-0.0645,0.22481,0.85348
376.701,120.3147,-0.06516004,0.23068,0.85297
377.301,120.5098,-0.06483,0.22908,0.85246
377.901,120.704,-0.06383583,0.22948,0.85195
378.501,120.898,-0.06648,0.22757,0.85144
379.101,121.093,-0.06649891,0.23244,0.85094
379.701,121.287,-0.06450106,0.23104,0.85043
380.301,121.482,-0.0645,0.23581,0.84992
380.901,121.677,-0.06475797,0.23353,0.84941
381.501,121.873,-0.06614993,0.23527,0.8489
382.101,122.069,-0.06714,0.23602,0.84839
382.701,122.264,-0.06647965,0.23539,0.84788
383.301,122.46,-0.06645408,0.23543,0.84736
383.901,122.655,-0.06705704,0.2377,0.84685
384.501,122.851,-0.06746,0.23644,0.84634
385.101,123.046,-0.06613998,0.23714,0.84583
385.701,123.241,-0.06811391,0.23489,0.84532
386.301,123.436,-0.06878021,0.23708,0.84481
386.901,123.6306,-0.06876352,0.23852,0.8443
387.501,123.826,-0.06878,0.24046,0.84379
388.101,124.021,-0.06881176,0.23791,0.84328
388.701,124.2167,-0.07042933,0.23958,0.84277
389.301,124.412,-0.06910775,0.24478,0.84225
389.901,124.607,-0.07073724,0.24028,0.84174
390.501,124.802,-0.06939865,0.24455,0.84123
391.101,124.997,-0.07042,0.24163,0.84072
391.701,125.193,-0.07076,0.24303,0.84021
392.301,125.388,-0.07075079,0.24819,0.8397
392.901,125.583,-0.07272711,0.24544,0.83918
393.501,125.779,-0.07075633,0.24402,0.83867
394.101,125.975,-0.07206987,0.24842,0.83816
394.701,126.1706,-0.07338001,0.2463,0.83765
395.301,126.366,-0.07207,0.24889,0.83713
395.901,126.56,-0.07601344,0.24935,0.83662
396.501,126.755,-0.07601867,0.25121,0.83611
397.101,126.95,-0.07733971,0.25188,0.8356
397.701,127.146,-0.07832,0.25148,0.83508
398.301,127.341,-0.07832063,0.25268,0.83457
398.901,127.537,-0.07985908,0.25436,0.83406
399.501,127.733,-0.08237679,0.25843,0.83355
400.101,127.93,-0.07940999,0.25471,0.83303
400.701,128.127,-0.08587874,0.26107,0.83252
401.301,128.323,-0.08322507,0.26162,0.83201
401.901,128.519,-0.08677829,0.2619,0.8315
402.501,128.715,-0.09006613,0.26502,0.83098
403.101,128.91,-0.08698,0.26307,0.83047
403.701,129.105,-0.08593399,0.263,0.82996
404.301,129.301,-0.09224796,0.2652,0.82944
404.901,129.4966,-0.09226405,0.26325,0.82893
405.501,129.692,-0.09125425,0.26346,0.82842
406.101,129.889,-0.09778044,0.26395,0.8279
406.701,130.085,-0.09186057,0.25783,0.82739
407.301,130.2814,-0.09620001,0.26127,0.82688
407.901,130.478,-0.10085,0.26449,0.82636
408.501,130.674,-0.10005,0.26544,0.82585
409.101,130.871,-0.10387,0.26817,0.82534
409.701,131.067,-0.1053,0.26822,0.82482
410.301,131.264,-0.10793,0.26957,0.82431
410.901,131.461,-0.10917,0.27092,0.8238
411.501,131.659,-0.11053,0.27334,0.82328
412.101,131.856,-0.11393,0.27347,0.82277
412.701,132.054,-0.11448,0.27523,0.82226
413.301,132.251,-0.11835,0.27763,0.82174
413.901,132.447,-0.12037,0.27965,0.82123
414.501,132.643,-0.11892,0.2782,0.82072
415.101,132.8399,-0.12592,0.28111,0.8202
415.701,133.036,-0.12594,0.27893,0.81969
416.301,133.233,-0.13139,0.28497,0.81918
416.901,133.429,-0.13597,0.28645,0.81866
417.501,133.626,-0.13339,0.29009,0.81815
418.101,133.823,-0.14008,0.28915,0.81764
418.701,134.02,-0.14863,0.29498,0.81712
419.301,134.218,-0.1427,0.29119,0.81661
419.901,134.417,-0.14761,0.29364,0.8161
420.501,134.619,-0.15378,0.29571,0.81558
421.101,134.824,-0.15522,0.29594,0.81507
421.701,135.031,-0.16136,0.30171,0.81456
422.301,135.238,-0.16398,0.3058,0.81404
422.901,135.4445,-0.17057,0.30746,0.81353
423.501,135.649,-0.1731,0.31091,0.81302
424.101,135.85,-0.17964,0.31742,0.81251
424.701,136.048,-0.18333,0.32133,0.81199
425.301,136.2421,-0.18719,0.32156,0.81148
425.901,136.435,-0.19533,0.3299,0.81097
426.501,136.628,-0.19868,0.32433,0.81045
427.101,136.821,-0.20533,0.32678,0.80994
427.701,137.015,-0.21108,0.32994,0.80943
428.301,137.208,-0.2163,0.33598,0.80892
428.901,137.401,-0.22321,0.3384,0.8084
429.501,137.594,-0.22929,0.34361,0.80789
430.101,137.789,-0.23719,0.34593,0.80738
430.701,137.984,-0.24328,0.35008,0.80686
431.301,138.181,-0.25242,0.35799,0.80635
431.901,138.38,-0.25908,0.36197,0.80584
432.501,138.58,-0.26631,0.36435,0.80533
433.101,138.78,-0.28212,0.37493,0.80482
433.701,138.98,-0.28407,0.38124,0.8043
434.301,139.178,-0.29791,0.38916,0.80379
434.901,139.3752,-0.30725,0.39421,0.80328
435.501,139.569,-0.317,0.40065,0.80277
436.101,139.762,-0.32947,0.40328,0.80226
436.701,139.9555,-0.33977,0.40588,0.80174
437.301,140.151,-0.35192,0.41371,0.80123
437.901,140.349,-0.36682,0.41792,0.80072
438.501,140.5485,-0.37743,0.42452,0.80021
439.101,140.748,-0.39572,0.4377,0.7997
439.701,140.95,-0.41099,0.44742,0.79919
440.301,141.1511,-0.42297,0.4569,0.79867
440.901,141.352,-0.44063,0.47025,0.79816
441.501,141.553,-0.46023,0.48168,0.79765
442.101,141.751,-0.47569,0.48777,0.79714
442.701,141.95,-0.49951,0.49791,0.79663
443.301,142.149,-0.51864,0.50653,0.79612
443.901,142.3483,-0.53446,0.51216,0.79561
444.501,142.548,-0.55815,0.52563,0.7951
445.101,142.748,-0.58892,0.53724,0.79459
445.701,142.947,-0.61054,0.54754,0.79408
446.301,143.146,-0.63654,0.55925,0.79357
446.901,143.342,-0.66236,0.56852,0.79306
447.501,143.537,-0.69452,0.5809,0.79255
448.101,143.733,-0.72247,0.59222,0.79204
448.701,143.9303,-0.75515,0.60375,0.79153
449.301,144.128,-0.78804,0.61691,0.79102
449.901,144.3273,-0.82349,0.6311,0.79051
450.501,144.526,-0.86194,0.64253,0.79
451.101,144.725,-0.90193,0.653,0.78949
451.701,144.924,-0.94346,0.66519,0.78898
452.301,145.124,-0.9887,0.67454,0.78847
452.901,145.324,-1.03279,0.67902,0.78796
453.501,145.526,-1.08353,0.68893,0.78745
454.101,145.728,-1.1304,0.69155,0.78695
454.701,145.928,-1.18851,0.69803,0.78644
455.301,146.1279,-1.24068,0.7007,0.78593
455.901,146.327,-1.29721,0.7011,0.78542
456.501,146.526,-1.35587,0.70094,0.78491
457.101,146.725,-1.41788,0.70394,0.78441
457.701,146.922,-1.48378,0.70852,0.7839
458.301,147.118,-1.54545,0.71185,0.78339
458.901,147.314,-1.61426,0.71104,0.78288
459.501,147.511,-1.68878,0.71547,0.78238
460.101,147.708,-1.75979,0.71105,0.78187
460.701,147.907,-1.83326,0.70633,0.78136
461.301,148.106,-1.91052,0.70332,0.78086
461.901,148.305,-1.9873,0.70793,0.78035
462.501,148.504,-2.06691,0.71016,0.77984
463.101,148.703,-2.14913,0.71429,0.77934
463.701,148.904,-2.23313,0.71085,0.77883
464.301,149.105,-2.3193,0.70584,0.77832
464.901,149.307,-2.40874,0.70281,0.77782
465.501,149.507,-2.49983,0.70129,0.77731
466.101,149.707,-2.58567,0.68612,0.77681
466.701,149.903,-2.67336,0.67696,0.7763
467.301,150.099,-2.7604,0.66112,0.7758
467.901,150.295,-2.84583,0.64506,0.77529
468.501,150.4912,-2.93308,0.62769,0.77479
469.101,150.689,-3.02287,0.60895,0.77428
469.701,150.889,-3.11156,0.59116,0.77378
470.301,151.091,-3.18939,0.56295,0.77327
470.901,151.293,-3.27215,0.53501,0.77277
471.501,151.495,-3.35342,0.50734,0.77227
472.101,151.696,-3.42598,0.47094,0.77176
472.701,151.894,-3.49264,0.43215,0.77126
473.301,152.09,-3.55374,0.39051,0.77076
473.901,152.287,-3.61324,0.35359,0.77025
474.501,152.483,-3.66803,0.31709,0.76975
475.101,152.683,-3.71279,0.28032,0.76925
475.701,152.883,-3.75522,0.25031,0.76875
476.301,153.085,-3.79197,0.21736,0.76824
476.901,153.286,-3.82568,0.19294,0.76774
477.501,153.486,-3.84975,0.17411,0.76724
478.101,153.684,-3.87171,0.15357,0.76674
478.701,153.88,-3.88829,0.13794,0.76624
479.301,154.076,-3.90577,0.1276,0.76574
479.901,154.273,-3.91459,0.11494,0.76524
480.501,154.471,-3.92358,0.1103,0.76474
481.101,154.6707,-3.93062,0.09942188,0.76424
481.701,154.872,-3.93788,0.09216109,0.76374
482.301,155.072,-3.93917,0.08422398,0.76324
482.901,155.273,-3.94485,0.07317613,0.76274
483.501,155.472,-3.94695,0.0656941,0.76224
484.101,155.672,-3.94882,0.06056164,0.76174
484.701,155.873,-3.94892,0.05389574,0.76124
485.301,156.073,-3.94893,0.04671798,0.76074
485.901,156.273,-3.94991,0.04774973,0.76024
486.501,156.471,-3.95353,0.04754432,0.75974
487.101,156.667,-3.95089,0.04200894,0.75924
487.701,156.862,-3.95096,0.03185974,0.75875
488.301,157.058,-3.95089,0.01760632,0.75825
488.901,157.256,-3.95089,0.01973681,0.75775
489.501,157.458,-3.95089,0.0281961,0.75725
490.101,157.663,-3.95087,0.03265293,0.75676
490.701,157.868,-3.94949,0.04011138,0.75626
491.301,158.072,-3.95025,0.04049552,0.75576
491.901,158.273,-3.95024,0.04037003,0.75527
492.501,158.4728,-3.94926,0.03654874,0.75477
493.101,158.672,-3.9483,0.03912972,0.75428
493.701,158.871,-3.94958,0.03888792,0.75378
494.301,159.07,-3.94958,0.04009291,0.75329
494.901,159.2692,-3.94827,0.03411872,0.75279
495.501,159.468,-3.94827,0.04110305,0.7523
496.101,159.667,-3.94955,0.03819559,0.7518
496.701,159.866,-3.95089,0.04205907,0.75131
497.301,160.063,-3.94958,0.04215556,0.75082
497.901,160.261,-3.94958,0.04176329,0.75032
498.501,160.4573,-3.94943,0.03926233,0.74983
499.101,160.654,-3.94926,0.04011255,0.74934
499.701,160.85,-3.94926,0.03948836,0.74884
500.301,161.046,-3.95057,0.03678078,0.74835
500.901,161.244,-3.94994,0.03696851,0.74786
501.501,161.445,-3.94959,0.03909543,0.74737
502.101,161.648,-3.94939,0.04356321,0.74687
502.701,161.854,-3.94863,0.04376636,0.74638
503.301,162.062,-3.94827,0.04816529,0.74589
503.901,162.269,-3.9486,0.05192869,0.7454
504.501,162.471,-3.94728,0.04966028,0.74491
505.101,162.6685,-3.94761,0.04431869,0.74442
505.701,162.863,-3.95006,0.04439319,0.74393
506.301,163.057,-3.94863,0.04079403,0.74344
506.901,163.253,-3.94893,0.03792382,0.74295
507.501,163.453,-3.94866,0.03814489,0.74246
508.101,163.656,-3.94861,0.04300426,0.74197
508.701,163.86,-3.94827,0.04760566,0.74149
509.301,164.065,-3.94967,0.04575626,0.741
509.901,164.268,-3.9496,0.04715299,0.74051
510.501,164.469,-3.94958,0.04627596,0.74002
511.101,164.67,-3.94924,0.04444954,0.73953
511.701,164.869,-3.9486,0.04405906,0.73905
512.301,165.069,-3.94926,0.04252576,0.73856
512.901,165.268,-3.94926,0.04512619,0.73807
513.501,165.469,-3.95057,0.04913607,0.73759
514.101,165.668,-3.94796,0.04281977,0.7371
514.701,165.866,-3.9486,0.04321235,0.73662
515.301,166.061,-3.9486,0.04322725,0.73613
515.901,166.255,-3.94857,0.0342667,0.73565
516.501,166.451,-3.94931,0.03554682,0.73516
517.101,166.649,-3.95057,0.03521983,0.73468
517.701,166.849,-3.94931,0.03706766,0.7342
518.301,167.051,-3.94789,0.04202892,0.73371
518.901,167.255,-3.94894,0.04321084,0.73323
519.501,167.46,-3.94859,0.04273593,0.73275
520.101,167.667,-3.94859,0.04789518,0.73226
520.701,167.873,-3.94991,0.04592726,0.73178
521.301,168.078,-3.94859,0.04701405,0.7313
521.901,168.281,-3.94801,0.04490581,0.73082
522.501,168.482,-3.94929,0.04373323,0.73034
523.101,168.681,-3.94925,0.04630617,0.72985
523.701,168.878,-3.94826,0.04182589,0.72937
524.301,169.07,-3.94958,0.03800239,0.72889
524.901,169.259,-3.94727,0.02814151,0.72841
525.501,169.448,-3.94705,0.02653247,0.72793
526.101,169.638,-3.94695,0.02411282,0.72745
526.701,169.834,-3.94696,0.02513609,0.72698
527.301,170.034,-3.94622,0.02767224,0.7265
527.901,170.2398,-3.94761,0.03272223,0.72602
528.501,170.447,-3.94728,0.0392438,0.72554
529.101,170.653,-3.94728,0.04037316,0.72506
529.701,170.8569,-3.94726,0.03963279,0.72459
530.301,171.06,-3.94528,0.04093002,0.72411
530.901,171.262,-3.94605,0.03799788,0.72363
531.501,171.465,-3.94663,0.04133095,0.72316
532.101,171.667,-3.94662,0.03802646,0.72268
532.701,171.868,-3.94531,0.04017499,0.72221
533.301,172.068,-3.94764,0.04198998,0.72173
533.901,172.268,-3.94761,0.04204718,0.72125
534.501,172.469,-3.94531,0.03848708,0.72078
535.101,172.669,-3.94662,0.03964452,0.72031
535.701,172.869,-3.94597,0.03983492,0.71983
536.301,173.068,-3.94462,0.03752446,0.71936
536.901,173.268,-3.94728,0.03963623,0.71889
537.501,173.469,-3.94597,0.03717414,0.71841
538.101,173.672,-3.94545,0.04088404,0.71794
538.701,173.879,-3.94597,0.04420664,0.71747
539.301,174.0858,-3.94445,0.04479395,0.717
539.901,174.291,-3.94531,0.04770794,0.71653
540.501,174.491,-3.94573,0.04701412,0.71606
541.101,174.688,-3.94564,0.04274445,0.71558
541.701,174.882,-3.94564,0.03761224,0.71511
542.301,175.077,-3.94434,0.03916103,0.71464
542.901,175.274,-3.94505,0.03807882,0.71418
543.501,175.475,-3.94597,0.0406738,0.71371
544.101,175.68,-3.94597,0.04711384,0.71324
544.701,175.884,-3.94401,0.04559054,0.71277
545.301,176.085,-3.94399,0.04352954,0.7123
545.901,176.287,-3.94475,0.04516265,0.71183
546.501,176.49,-3.94465,0.04619677,0.71137
547.101,176.694,-3.94465,0.04838044,0.7109
547.701,176.898,-3.94466,0.04975556,0.71043
548.301,177.1,-3.94465,0.04995244,0.70997
548.901,177.3,-3.94465,0.04627563,0.7095
549.501,177.499,-3.94224,0.04658703,0.70904
550.101,177.697,-3.94566,0.04809975,0.70857
550.701,177.897,-3.94563,0.04712226,0.70811
551.301,178.099,-3.94563,0.04396116,0.70764
551.901,178.304,-3.94432,0.04102242,0.70718
552.501,178.51,-3.94267,0.04457577,0.70672
553.101,178.715,-3.94465,0.04576258,0.70625
553.701,178.919,-3.94529,0.04481262,0.70579
554.301,179.123,-3.94485,0.04484922,0.70533
554.901,179.326,-3.94264,0.04332432,0.70487
555.501,179.5292,-3.94267,0.04369869,0.7044
556.101,179.728,-3.94498,0.04437386,0.70394
556.701,179.922,-3.94465,0.04510179,0.70348
557.301,180.113,-3.94341,0.03511703,0.70302
557.901,180.304,-3.94399,0.03261863,0.70256
558.501,180.497,-3.94446,0.02964689,0.7021
559.101,180.695,-3.94332,0.03108087,0.70164
559.701,180.897,-3.94409,0.03452966,0.70119
560.301,181.102,-3.94234,0.04282646,0.70073
560.901,181.308,-3.94234,0.04180117,0.70027
561.501,181.516,-3.94366,0.04460071,0.69981
562.101,181.7255,-3.94234,0.04634981,0.69936
562.701,181.935,-3.94169,0.04573178,0.6989
563.301,182.144,-3.94333,0.04327544,0.69844
563.901,182.351,-3.94333,0.04714814,0.69799
564.501,182.555,-3.94366,0.04507721,0.69753
565.101,182.755,-3.94408,0.03899927,0.69708
565.701,182.9524,-3.94268,0.03898188,0.69662
566.301,183.15,-3.94399,0.03581443,0.69617
566.901,183.35,-3.94234,0.03246338,0.69571
567.501,183.552,-3.94339,0.03549418,0.69526
568.101,183.755,-3.94333,0.03360735,0.69481
568.701,183.96,-3.94201,0.03649728,0.69436
569.301,184.163,-3.94201,0.03374436,0.6939
569.901,184.3653,-3.94201,0.0365303,0.69345
570.501,184.568,-3.94201,0.03406358,0.693
571.101,184.772,-3.94201,0.03337672,0.69255
571.701,184.977,-3.94333,0.03515146,0.6921
572.301,185.179,-3.94234,0.03789222,0.69165
572.901,185.375,-3.94193,0.03496027,0.6912
573.501,185.566,-3.94103,0.02460429,0.69075
574.101,185.758,-3.94103,0.02305118,0.6903
574.701,185.954,-3.9407,0.03022917,0.68985
575.301,186.1552,-3.94201,0.0324837,0.68941
575.901,186.359,-3.94333,0.03701168,0.68896
576.501,186.564,-3.94075,0.04149779,0.68851
577.101,186.7699,-3.94103,0.04634523,0.68806
577.701,186.975,-3.94201,0.04396879,0.68762
578.301,187.178,-3.9407,0.04279719,0.68717
578.901,187.3836,-3.9407,0.03893561,0.68673
579.501,187.5904,-3.9407,0.04448505,0.68628
580.101,187.799,-3.9407,0.0430182,0.68584
580.701,188.008,-3.94333,0.0512473,0.68539
581.301,188.215,-3.94199,0.05269163,0.68495
581.901,188.422,-3.9407,0.05132389,0.68451
582.501,188.6247,-3.93938,0.05265568,0.68407
583.101,188.824,-3.94103,0.0494694,0.68362
583.701,189.019,-3.941,0.04681416,0.68318
584.301,189.2118,-3.94138,0.03689138,0.68274
584.901,189.4092,-3.94136,0.03519263,0.6823
585.501,189.613,-3.94225,0.04159715,0.68186
586.101,189.823,-3.94202,0.04532625,0.68142
586.701,190.03,-3.94106,0.04990599,0.68098
587.301,190.233,-3.94004,0.04809374,0.68054
587.901,190.43,-3.94004,0.04148324,0.6801
588.501,190.627,-3.94006,0.04312867,0.67966
589.101,190.8265,-3.94097,0.04360164,0.67922
589.701,191.028,-3.94103,0.04894291,0.67879
590.301,191.229,-3.94004,0.05054944,0.67835
590.901,191.432,-3.94202,0.05165294,0.67791
591.501,191.636,-3.94193,0.05223828,0.67748
592.101,191.8414,-3.93971,0.04973221,0.67704
592.701,192.048,-3.94056,0.05384521,0.67661
593.301,192.253,-3.93955,0.05044665,0.67617
593.901,192.456,-3.93972,0.05393759,0.67574
594.501,192.66,-3.94102,0.04840578,0.6753
595.101,192.863,-3.93971,0.05453382,0.67487
595.701,193.066,-3.9384,0.05131197,0.67444
596.301,193.267,-3.93861,0.04925333,0.67401
596.901,193.468,-3.93938,0.04185083,0.67357
597.501,193.671,-3.9407,0.04327339,0.67314
598.101,193.878,-3.9384,0.04484562,0.67271
598.701,194.0887,-3.93972,0.0491203,0.67228
599.301,194.3001,-3.93874,0.05054593,0.67185
599.901,194.509,-3.93742,0.05077347,0.67142
600.501,194.713,-3.93873,0.04589614,0.67099
601.101,194.913,-3.94004,0.04349524,0.67056
601.701,195.114,-3.93764,0.04095693,0.67013
602.301,195.317,-3.94036,0.04111289,0.66971
602.901,195.522,-3.93905,0.04250236,0.66928
603.501,195.726,-3.93904,0.0433246,0.66885
604.101,195.928,-3.93841,0.04200384,0.66842
604.701,196.131,-3.9384,0.04085245,0.668
605.301,196.333,-3.93971,0.04346078,0.66757
605.901,196.532,-3.93921,0.03622133,0.66715
606.501,196.727,-3.9384,0.02744724,0.66672
607.101,196.921,-3.93708,0.02642629,0.6663
607.701,197.119,-3.9384,0.02457493,0.66588
608.301,197.32,-3.9384,0.0295778,0.66545
608.901,197.527,-3.9377,0.03580344,0.66503
609.501,197.7373,-3.93708,0.04502554,0.66461
610.101,197.947,-3.93775,0.0444364,0.66419
610.701,198.157,-3.9384,0.04026337,0.66376
611.301,198.365,-3.93807,0.04101185,0.66334
611.901,198.57,-3.93576,0.03929287,0.66292
612.501,198.771,-3.93643,0.04235531,0.6625
613.101,198.967,-3.93807,0.03135405,0.66208
613.701,199.163,-3.93708,0.02904222,0.66166
614.301,199.362,-3.93774,0.02973052,0.66125
614.901,199.566,-3.93744,0.03463792,0.66083
615.501,199.775,-3.9375,0.03682753,0.66041
616.101,199.986,-3.93704,0.04264235,0.65999
616.701,200.197,-3.93741,0.04289341,0.65958
617.301,200.406,-3.93675,0.04474399,0.65916
617.901,200.611,-3.93676,0.04864853,0.65874
618.501,200.812,-3.93873,0.0410358,0.65833
619.101,201.011,-3.93741,0.03316978,0.65791
619.701,201.211,-3.93543,0.03062275,0.6575
620.301,201.414,-3.93806,0.04109798,0.65709
620.901,201.62,-3.93609,0.03573392,0.65667
621.501,201.825,-3.93799,0.03622974,0.65626
622.101,202.028,-3.93667,0.03802932,0.65585
622.701,202.228,-3.93675,0.03123069,0.65544
623.301,202.428,-3.93741,0.03184244,0.65502
623.901,202.625,-3.93872,0.03516158,0.65461
624.501,202.823,-3.93742,0.03358745,0.6542
625.101,203.0214,-3.9361,0.03392804,0.65379
625.701,203.222,-3.9361,0.03663912,0.65338
626.301,203.428,-3.9361,0.04483009,0.65297
626.901,203.635,-3.93582,0.04587182,0.65257
627.501,203.844,-3.93678,0.05169218,0.65216
628.101,204.054,-3.93812,0.05213731,0.65175
628.701,204.266,-3.93675,0.05581387,0.65134
629.301,204.475,-3.93544,0.05775912,0.65094
629.901,204.682,-3.93411,0.05265411,0.65053
630.501,204.886,-3.93669,0.05110049,0.65012
631.101,205.09,-3.93479,0.04823769,0.64972
631.701,205.295,-3.93412,0.04305737,0.64931
632.301,205.503,-3.93538,0.0520992,0.64891
632.901,205.711,-3.93642,0.04907166,0.64851
633.501,205.918,-3.93438,0.05555018,0.6481
634.101,206.125,-3.93378,0.05327218,0.6477
634.701,206.331,-3.93521,0.0523938,0.6473
635.301,206.536,-3.93323,0.05196981,0.6469
635.901,206.7393,-3.93389,0.05111146,0.6465
636.501,206.942,-3.93356,0.05289992,0.6461
637.101,207.145,-3.93427,0.0500016,0.64569
637.701,207.347,-3.93488,0.04849804,0.6453
638.301,207.548,-3.93567,0.04843226,0.6449
638.901,207.748,-3.93356,0.05066729,0.6445
639.501,207.947,-3.93356,0.04428677,0.6441
640.101,208.149,-3.93554,0.04885985,0.6437
640.701,208.353,-3.93389,0.05563408,0.6433
641.301,208.558,-3.93488,0.05549217,0.64291
641.901,208.761,-3.93356,0.05398741,0.64251
642.501,208.962,-3.93355,0.05107616,0.64211
643.101,209.16,-3.9339,0.05549848,0.64172
643.701,209.3539,-3.93356,0.04537204,0.64132
644.301,209.546,-3.93354,0.0390108,0.64093
644.901,209.74,-3.93293,0.03704967,0.64054
645.501,209.945,-3.93488,0.04410547,0.64014
645.601,209.981,-3.9335,0.04646073,0.64008