File: 01_Data/Triexta_Carpet_HighPile/MCC/Triexta_Carpet_HighPile_MCC_30K_min_211117_R2.txt
Sample ID:	C:\MCC\MCC Cal\Test\Triexta_Carpet_High_Pile_MCC_30K_min_211117_R2.txt
Sample Weight (mg):	4.18
Heating Rate (C/s):	0.5
Combustor Temp (C):	900
N2 Flow Rate (cc/min):	80
O2 Flow Rate (cc/min):	20
Calibration File:	C:\MCC\MCC Cal\Coeff1 JN10440_30_210304.txt.txt
T Correction Coefficients:	0	1.024463	0
Time Shift (s):	14
*
Time (s)	Temperature (C)	N2 flow rate (cc/min)	O2 flow rate (cc/min)	Flow Rate (cc/min)	Oxygen (%)	HRR (W/g)	Heating rate (C/s)
0.000	108.391	79.997	19.995	102.980	19.984	0.228	-0.000
2.000	108.355	80.002	19.995	102.973	19.989	-0.147	-0.029
3.999	108.385	79.999	19.996	102.985	19.990	-0.214	0.008
5.999	108.370	79.999	19.995	102.967	19.991	-0.301	-0.015
7.999	108.367	80.001	19.994	102.971	19.991	-0.334	0.011
10.000	108.381	80.001	19.994	102.985	19.987	0.031	0.024
11.999	108.351	80.001	19.993	102.991	19.985	0.143	-0.007
14.000	108.354	80.000	19.994	102.991	19.985	0.129	-0.040
15.999	108.379	80.006	19.995	103.009	19.986	0.068	0.001
18.000	108.456	80.002	19.995	103.012	19.983	0.278	0.037
20.000	108.473	80.010	19.994	103.011	19.983	0.338	0.012
22.000	108.502	79.998	19.996	103.009	19.981	0.438	0.025
24.000	108.547	80.001	19.994	103.028	19.978	0.668	0.048
26.000	108.609	79.996	19.994	103.032	19.977	0.754	0.053
28.000	108.666	80.014	19.992	103.029	19.976	0.876	0.038
30.000	108.746	79.999	19.995	103.042	19.973	1.084	0.052
32.000	108.790	80.002	19.995	103.063	19.973	1.103	0.058
33.999	108.924	80.000	19.994	103.088	19.967	1.545	0.067
35.999	109.088	80.002	19.995	103.088	19.966	1.616	0.087
37.999	109.208	79.998	19.995	103.097	19.962	1.942	0.049
39.999	109.374	80.001	19.996	103.105	19.962	1.954	0.076
41.999	109.574	80.001	19.995	103.132	19.959	2.143	0.118
43.999	109.735	80.002	19.995	103.135	19.959	2.131	0.083
45.999	110.049	80.001	19.996	103.140	19.954	2.532	0.162
47.999	110.276	80.000	19.996	103.140	19.955	2.439	0.140
49.999	110.542	80.000	19.995	103.119	19.958	2.237	0.117
51.999	110.843	80.000	19.996	103.114	19.953	2.630	0.151
53.999	111.121	80.001	19.995	103.133	19.959	2.186	0.127
56.000	111.457	79.997	19.995	103.136	19.954	2.543	0.158
57.999	111.836	80.008	19.994	103.143	19.952	2.683	0.206
59.999	112.156	80.006	19.994	103.152	19.951	2.789	0.185
61.999	112.524	80.001	19.993	103.151	19.951	2.784	0.173
63.999	112.952	80.014	19.992	103.165	19.948	2.984	0.205
65.999	113.358	79.986	19.995	103.175	19.950	2.847	0.226
67.999	113.827	80.000	19.994	103.180	19.946	3.138	0.227
69.999	114.276	80.007	19.993	103.183	19.949	2.939	0.236
71.999	114.756	79.999	19.994	103.187	19.944	3.288	0.240
73.999	115.249	80.001	19.994	103.187	19.946	3.159	0.276
76.000	115.740	80.001	19.994	103.191	19.949	2.947	0.253
77.999	116.256	80.004	19.994	103.208	19.948	3.010	0.263
80.000	116.822	80.000	19.995	103.205	19.945	3.226	0.266
81.999	117.400	80.001	19.995	103.209	19.947	3.060	0.289
83.999	117.993	79.996	19.994	103.215	19.946	3.141	0.323
86.000	118.562	80.000	19.994	103.217	19.948	3.027	0.297
87.999	119.223	80.011	19.992	103.220	19.946	3.133	0.326
89.999	119.845	79.999	19.994	103.227	19.943	3.386	0.322
91.999	120.500	80.007	19.994	103.221	19.944	3.280	0.334
93.999	121.148	80.006	19.993	103.226	19.945	3.216	0.343
95.999	121.883	79.999	19.995	103.227	19.941	3.547	0.393
97.999	122.637	80.003	19.996	103.223	19.941	3.566	0.383
99.999	123.329	80.014	19.993	103.228	19.942	3.443	0.344
101.999	124.097	80.000	19.995	103.233	19.939	3.734	0.386
103.999	124.891	80.000	19.995	103.227	19.939	3.712	0.390
106.000	125.628	80.002	19.995	103.226	19.940	3.586	0.365
108.000	126.423	80.001	19.995	103.238	19.939	3.685	0.400
109.999	127.234	80.007	19.994	103.252	19.936	3.905	0.406
111.999	128.065	79.995	19.995	103.237	19.936	3.930	0.431
113.999	128.912	80.003	19.994	103.251	19.937	3.845	0.436
115.999	129.727	80.001	19.995	103.244	19.940	3.618	0.433
117.999	130.575	79.999	19.995	103.242	19.938	3.786	0.480
119.999	131.446	80.002	19.996	103.257	19.937	3.838	0.458
121.999	132.336	79.996	19.995	103.249	19.935	3.971	0.445
123.999	133.189	79.999	19.995	103.255	19.937	3.865	0.403
125.999	134.144	79.999	19.994	103.254	19.939	3.734	0.458
127.999	135.083	80.001	19.996	103.254	19.934	4.085	0.481
130.000	135.976	80.002	19.996	103.248	19.937	3.879	0.439
132.000	136.933	80.003	19.996	103.253	19.937	3.871	0.463
134.000	137.880	80.005	19.996	103.245	19.936	3.907	0.460
136.000	138.857	80.002	19.995	103.241	19.939	3.738	0.496
138.000	139.791	80.000	19.995	103.246	19.940	3.644	0.475
140.000	140.776	80.000	19.995	103.234	19.941	3.582	0.483
142.000	141.771	80.000	19.995	103.235	19.940	3.598	0.478
144.000	142.740	80.002	19.996	103.241	19.940	3.594	0.483
146.000	143.743	79.999	19.996	103.249	19.940	3.603	0.497
148.000	144.732	80.000	19.995	103.233	19.944	3.326	0.489
150.000	145.733	80.000	19.995	103.226	19.942	3.463	0.500
152.000	146.786	80.002	19.994	103.224	19.946	3.189	0.525
154.000	147.750	79.998	19.995	103.225	19.937	3.816	0.498
156.000	148.777	80.000	19.995	103.227	19.940	3.642	0.499
158.000	149.792	79.998	19.995	103.236	19.937	3.852	0.525
160.000	150.806	80.010	19.993	103.226	19.941	3.536	0.533
162.000	151.823	79.999	19.996	103.222	19.938	3.802	0.527
164.000	152.874	80.000	19.994	103.223	19.940	3.596	0.509
166.000	153.865	80.004	19.993	103.218	19.941	3.565	0.470
168.000	154.863	80.002	19.995	103.221	19.942	3.457	0.523
170.000	155.847	79.999	19.994	103.221	19.942	3.488	0.484
172.000	156.842	79.995	19.995	103.221	19.942	3.451	0.479
174.000	157.867	80.002	19.994	103.222	19.943	3.397	0.506
176.000	158.901	79.997	19.995	103.218	19.938	3.756	0.523
178.000	159.912	79.999	19.995	103.219	19.943	3.396	0.504
180.000	160.951	79.998	19.995	103.218	19.938	3.762	0.515
182.000	161.956	80.001	19.994	103.216	19.943	3.404	0.498
184.000	162.962	79.998	19.995	103.222	19.945	3.244	0.509
186.000	164.001	80.001	19.993	103.220	19.943	3.400	0.516
188.000	164.991	80.001	19.994	103.212	19.947	3.045	0.511
190.000	166.051	80.003	19.994	103.213	19.946	3.142	0.497
192.000	167.056	80.003	19.993	103.200	19.946	3.178	0.515
194.000	168.073	80.000	19.995	103.207	19.945	3.265	0.491
196.000	169.062	80.003	19.994	103.196	19.947	3.046	0.508
198.000	170.115	79.998	19.995	103.205	19.949	2.963	0.494
200.000	171.103	79.999	19.994	103.201	19.947	3.052	0.520
202.000	172.093	79.999	19.994	103.187	19.945	3.223	0.502
204.000	173.048	79.996	19.995	103.197	19.949	2.938	0.496
206.000	174.062	79.994	19.995	103.183	19.948	3.017	0.502
208.000	175.066	80.000	19.996	103.180	19.950	2.882	0.492
210.000	176.047	80.002	19.995	103.181	19.948	3.038	0.481
212.000	177.053	80.000	19.995	103.182	19.951	2.793	0.506
214.000	178.055	80.002	19.995	103.185	19.949	2.915	0.500
216.000	178.996	80.003	19.995	103.184	19.950	2.840	0.465
218.000	179.988	80.005	19.995	103.184	19.953	2.628	0.478
220.000	180.911	79.996	19.994	103.179	19.947	3.075	0.458
222.000	181.974	80.001	19.995	103.181	19.948	2.969	0.511
224.000	182.925	80.000	19.996	103.180	19.949	2.903	0.473
226.000	183.890	80.000	19.996	103.182	19.948	3.019	0.476
228.000	184.895	80.003	19.997	103.181	19.951	2.791	0.476
230.000	185.878	79.999	19.995	103.181	19.947	3.063	0.483
232.000	186.888	80.000	19.996	103.179	19.949	2.942	0.475
234.000	187.862	79.998	19.996	103.178	19.946	3.152	0.479
236.000	188.824	79.998	19.994	103.179	19.949	2.911	0.477
238.000	189.822	79.998	19.994	103.179	19.948	2.992	0.496
240.000	190.803	79.998	19.995	103.181	19.947	3.061	0.509
242.000	191.748	79.998	19.995	103.181	19.953	2.612	0.468
244.000	192.718	80.000	19.994	103.180	19.951	2.801	0.442
246.000	193.702	80.001	19.996	103.184	19.950	2.824	0.486
248.000	194.653	79.999	19.994	103.182	19.949	2.938	0.475
250.000	195.656	80.000	19.994	103.179	19.951	2.807	0.497
252.000	196.632	80.001	19.994	103.178	19.952	2.728	0.511
254.000	197.595	79.994	19.995	103.180	19.948	3.011	0.488
256.000	198.550	80.000	19.994	103.180	19.951	2.743	0.497
258.000	199.533	80.000	19.994	103.180	19.949	2.907	0.477
260.000	200.506	79.998	19.994	103.183	19.953	2.657	0.489
262.000	201.476	79.998	19.993	103.185	19.957	2.335	0.475
264.000	202.450	79.999	19.995	103.175	19.954	2.522	0.471
266.000	203.386	80.000	19.993	103.182	19.948	2.975	0.457
268.000	204.353	80.000	19.994	103.183	19.951	2.784	0.513
270.000	205.368	80.003	19.993	103.167	19.946	3.133	0.501
272.000	206.367	80.000	19.993	103.165	19.954	2.539	0.507
274.000	207.370	80.003	19.994	103.177	19.952	2.680	0.538
276.000	208.323	80.001	19.996	103.177	19.951	2.790	0.488
278.000	209.310	80.001	19.995	103.175	19.950	2.859	0.474
280.000	210.315	80.001	19.994	103.177	19.952	2.687	0.496
282.000	211.249	80.001	19.994	103.174	19.952	2.659	0.484
284.000	212.272	80.000	19.994	103.177	19.952	2.680	0.526
286.000	213.194	80.001	19.996	103.177	19.957	2.308	0.489
288.000	214.217	80.001	19.995	103.179	19.955	2.478	0.479
290.000	215.204	80.002	19.995	103.179	19.955	2.443	0.493
292.000	216.157	80.001	19.994	103.175	19.954	2.533	0.506
294.000	217.197	80.001	19.995	103.172	19.956	2.358	0.508
296.000	218.151	80.003	19.995	103.175	19.954	2.541	0.489
298.000	219.137	80.002	19.995	103.164	19.952	2.701	0.483
300.000	220.131	80.002	19.994	103.163	19.957	2.306	0.502
302.000	221.116	80.002	19.994	103.167	19.952	2.715	0.491
304.000	222.072	80.000	19.994	103.177	19.957	2.318	0.498
306.000	223.032	80.000	19.996	103.160	19.955	2.503	0.465
308.000	224.049	80.000	19.995	103.180	19.956	2.412	0.491
310.000	225.022	80.000	19.995	103.181	19.958	2.250	0.489
312.000	225.962	79.997	19.995	103.171	19.955	2.447	0.491
314.000	226.974	79.999	19.995	103.158	19.957	2.327	0.491
316.000	227.978	80.000	19.995	103.156	19.955	2.487	0.500
318.000	228.985	79.999	19.996	103.167	19.955	2.499	0.485
320.000	229.934	79.998	19.995	103.178	19.959	2.179	0.490
322.000	230.942	79.999	19.996	103.173	19.957	2.288	0.501
324.000	231.937	79.999	19.996	103.163	19.959	2.182	0.502
326.000	232.876	79.998	19.996	103.169	19.957	2.300	0.486
328.000	233.849	79.999	19.995	103.170	19.956	2.366	0.477
330.000	234.831	80.001	19.994	103.162	19.959	2.179	0.491
332.000	235.823	80.000	19.995	103.177	19.957	2.279	0.482
334.000	236.797	80.001	19.994	103.171	19.956	2.358	0.482
336.000	237.807	80.002	19.995	103.170	19.956	2.414	0.514
338.000	238.767	79.999	19.995	103.169	19.954	2.528	0.507
340.000	239.719	80.000	19.994	103.170	19.956	2.425	0.456
342.000	240.667	80.001	19.995	103.171	19.955	2.466	0.483
344.000	241.708	80.001	19.995	103.165	19.954	2.532	0.497
346.000	242.718	80.001	19.995	103.177	19.955	2.497	0.524
348.000	243.710	80.003	19.994	103.178	19.952	2.669	0.513
350.000	244.682	80.000	19.995	103.165	19.952	2.734	0.546
352.000	245.747	80.000	19.994	103.176	19.956	2.355	0.515
354.000	246.690	80.000	19.994	103.164	19.955	2.439	0.490
356.000	247.715	80.001	19.993	103.161	19.955	2.493	0.483
358.000	248.698	80.000	19.995	103.148	19.956	2.372	0.504
360.000	249.740	80.002	19.994	103.153	19.956	2.399	0.568
362.000	250.782	80.002	19.995	103.145	19.957	2.341	0.507
364.000	251.831	80.002	19.994	103.143	19.957	2.295	0.555
366.000	252.847	80.002	19.995	103.144	19.956	2.420	0.483
368.000	253.863	80.003	19.994	103.141	19.961	2.002	0.509
370.000	254.823	80.003	19.995	103.140	19.960	2.070	0.482
372.000	255.925	80.002	19.996	103.139	19.958	2.241	0.520
374.000	256.889	80.004	19.994	103.136	19.959	2.153	0.505
376.000	257.932	80.003	19.994	103.141	19.961	2.025	0.517
378.000	258.951	79.999	19.994	103.140	19.960	2.074	0.520
380.000	259.990	80.003	19.995	103.127	19.957	2.301	0.517
382.000	260.984	80.001	19.995	103.113	19.960	2.116	0.495
384.000	261.988	80.000	19.995	103.115	19.961	2.041	0.489
386.000	263.025	80.001	19.994	103.113	19.963	1.885	0.547
388.000	264.026	80.001	19.995	103.124	19.961	2.002	0.514
390.000	265.055	80.001	19.994	103.109	19.959	2.174	0.531
392.000	266.023	79.998	19.993	103.109	19.959	2.133	0.497
394.000	267.048	80.001	19.995	103.108	19.958	2.205	0.499
396.000	268.064	80.002	19.995	103.112	19.960	2.089	0.513
398.000	269.027	80.002	19.994	103.110	19.959	2.174	0.476
400.000	270.096	79.998	19.996	103.107	19.956	2.423	0.546
402.000	271.082	80.000	19.994	103.110	19.961	2.000	0.505
404.000	272.116	79.996	19.997	103.109	19.967	1.512	0.484
406.000	273.126	79.999	19.997	103.105	19.959	2.126	0.514
408.000	274.132	79.998	19.997	103.106	19.965	1.701	0.523
410.000	275.163	79.999	19.997	103.107	19.964	1.782	0.520
412.000	276.131	79.999	19.996	103.110	19.961	2.014	0.493
414.000	277.148	79.997	19.996	103.111	19.961	2.018	0.537
416.000	278.145	79.999	19.995	103.113	19.958	2.215	0.502
418.000	279.176	79.999	19.995	103.106	19.956	2.361	0.535
420.000	280.146	80.000	19.995	103.115	19.960	2.045	0.487
422.000	281.111	80.000	19.995	103.121	19.961	1.987	0.462
424.000	282.103	80.000	19.994	103.104	19.957	2.274	0.506
426.000	283.050	80.004	19.994	103.103	19.960	2.070	0.487
428.000	284.072	80.002	19.995	103.107	19.953	2.602	0.517
430.000	285.053	80.001	19.994	103.103	19.955	2.458	0.497
432.000	286.003	80.000	19.994	103.117	19.955	2.446	0.486
434.000	286.996	79.999	19.994	103.115	19.957	2.342	0.508
436.000	287.979	80.003	19.994	103.117	19.956	2.388	0.510
438.000	288.967	80.001	19.994	103.112	19.960	2.056	0.482
440.000	289.955	80.003	19.994	103.104	19.957	2.338	0.481
442.000	290.898	80.000	19.995	103.107	19.957	2.338	0.480
444.000	291.892	80.002	19.995	103.109	19.957	2.278	0.501
446.000	292.870	80.003	19.994	103.106	19.956	2.421	0.492
448.000	293.835	80.000	19.995	103.105	19.959	2.155	0.490
450.000	294.830	80.001	19.994	103.109	19.959	2.195	0.486
452.000	295.822	80.001	19.994	103.114	19.954	2.525	0.485
454.000	296.769	80.003	19.994	103.116	19.957	2.320	0.459
456.000	297.737	80.003	19.995	103.118	19.954	2.527	0.459
458.000	298.726	80.002	19.993	103.114	19.956	2.367	0.477
460.000	299.699	80.003	19.994	103.107	19.953	2.645	0.521
462.000	300.645	79.999	19.995	103.108	19.952	2.691	0.503
464.000	301.570	80.001	19.995	103.106	19.950	2.847	0.475
466.000	302.579	80.000	19.995	103.120	19.952	2.664	0.518
468.000	303.552	79.997	19.994	103.105	19.950	2.830	0.503
470.000	304.482	80.001	19.995	103.106	19.950	2.839	0.471
472.000	305.467	80.001	19.996	103.108	19.950	2.853	0.496
474.000	306.427	80.001	19.995	103.113	19.953	2.629	0.448
476.000	307.405	80.000	19.994	103.116	19.951	2.797	0.494
478.000	308.418	80.001	19.995	103.110	19.948	3.005	0.517
480.000	309.370	80.000	19.996	103.128	19.952	2.681	0.511
482.000	310.384	80.001	19.995	103.124	19.946	3.140	0.485
484.000	311.353	80.001	19.996	103.114	19.949	2.911	0.488
486.000	312.336	80.000	19.995	103.113	19.945	3.262	0.488
488.000	313.350	80.001	19.995	103.118	19.943	3.370	0.483
490.000	314.295	80.000	19.996	103.121	19.939	3.719	0.469
492.000	315.297	80.000	19.995	103.124	19.945	3.264	0.487
494.000	316.264	80.001	19.995	103.117	19.943	3.418	0.489
496.000	317.224	79.997	19.996	103.115	19.943	3.406	0.466
498.000	318.243	80.000	19.996	103.108	19.945	3.266	0.474
500.000	319.214	79.999	19.995	103.107	19.943	3.358	0.463
502.000	320.173	80.000	19.995	103.107	19.944	3.283	0.500
504.000	321.129	80.003	19.995	103.117	19.942	3.447	0.503
506.000	322.129	80.001	19.993	103.124	19.941	3.561	0.504
508.000	323.065	80.004	19.993	103.116	19.939	3.707	0.479
510.000	324.082	80.001	19.994	103.115	19.938	3.754	0.474
512.000	325.076	80.002	19.995	103.114	19.937	3.821	0.538
514.000	326.029	80.001	19.993	103.119	19.938	3.763	0.475
516.000	327.069	80.001	19.994	103.113	19.932	4.244	0.516
518.000	328.054	80.000	19.994	103.119	19.931	4.273	0.502
520.000	329.028	80.001	19.994	103.111	19.931	4.296	0.505
522.000	330.050	80.000	19.994	103.111	19.927	4.635	0.497
524.000	331.029	80.001	19.995	103.111	19.929	4.469	0.497
526.000	332.050	80.003	19.995	103.127	19.930	4.427	0.507
528.000	333.050	80.001	19.994	103.110	19.925	4.787	0.500
530.000	334.038	80.006	19.994	103.112	19.923	4.911	0.483
532.000	335.098	80.006	19.993	103.111	19.921	5.119	0.509
534.000	336.091	80.001	19.993	103.111	19.923	4.943	0.487
536.000	337.106	80.000	19.994	103.112	19.919	5.246	0.492
538.000	338.167	80.004	19.994	103.123	19.915	5.515	0.504
540.000	339.178	79.999	19.994	103.128	19.916	5.451	0.484
542.000	340.175	80.001	19.994	103.112	19.914	5.624	0.503
544.000	341.205	80.003	19.993	103.115	19.912	5.765	0.491
546.000	342.229	80.003	19.994	103.127	19.908	6.059	0.512
548.000	343.241	80.000	19.995	103.121	19.908	6.100	0.505
550.000	344.245	79.999	19.995	103.112	19.903	6.489	0.500
552.000	345.297	80.001	19.993	103.121	19.904	6.398	0.504
554.000	346.378	80.001	19.995	103.111	19.895	7.103	0.535
556.000	347.366	80.001	19.995	103.069	19.892	7.346	0.517
558.000	348.360	80.001	19.994	103.148	19.889	7.520	0.469
560.000	349.397	79.998	19.995	103.162	19.887	7.711	0.514
562.000	350.431	80.002	19.996	103.116	19.882	8.056	0.541
564.000	351.455	80.002	19.995	103.129	19.874	8.669	0.521
566.000	352.497	80.003	19.994	103.124	19.874	8.714	0.522
568.000	353.531	80.000	19.995	103.133	19.869	9.115	0.500
570.000	354.542	79.999	19.995	103.119	19.865	9.388	0.529
572.000	355.552	80.000	19.995	103.128	19.863	9.561	0.495
574.000	356.570	80.001	19.995	103.141	19.857	9.998	0.493
576.000	357.577	79.999	19.994	103.132	19.849	10.622	0.469
578.000	358.591	80.000	19.995	103.135	19.844	11.030	0.515
580.000	359.615	80.000	19.997	103.138	19.838	11.459	0.504
582.000	360.575	79.999	19.995	103.135	19.828	12.250	0.483
584.000	361.643	80.001	19.995	103.127	19.819	12.957	0.505
586.000	362.648	80.001	19.995	103.138	19.812	13.486	0.510
588.000	363.639	80.002	19.996	103.136	19.803	14.187	0.516
590.000	364.591	80.000	19.996	103.135	19.795	14.791	0.477
592.000	365.578	80.000	19.995	103.140	19.782	15.760	0.474
594.000	366.539	80.002	19.995	103.141	19.775	16.364	0.468
596.000	367.519	80.001	19.995	103.141	19.762	17.360	0.468
598.000	368.486	80.002	19.994	103.141	19.751	18.163	0.482
600.000	369.486	80.001	19.994	103.145	19.736	19.297	0.499
602.000	370.397	80.001	19.995	103.147	19.723	20.314	0.487
604.000	371.346	80.002	19.995	103.163	19.705	21.749	0.455
606.000	372.318	80.004	19.994	103.177	19.685	23.241	0.459
608.000	373.364	80.002	19.994	103.179	19.668	24.590	0.496
610.000	374.380	80.000	19.994	103.186	19.650	25.987	0.497
612.000	375.360	80.002	19.994	103.187	19.630	27.543	0.487
614.000	376.389	80.000	19.995	103.207	19.612	28.911	0.515
616.000	377.438	80.001	19.993	103.213	19.593	30.380	0.544
618.000	378.458	80.001	19.994	103.220	19.569	32.219	0.499
620.000	379.510	80.002	19.993	103.223	19.549	33.745	0.531
622.000	380.594	79.997	19.994	103.258	19.528	35.345	0.543
624.000	381.645	80.000	19.994	103.266	19.498	37.659	0.534
626.000	382.731	80.000	19.995	103.254	19.466	40.132	0.541
628.000	383.827	79.999	19.994	103.252	19.428	43.105	0.550
630.000	384.918	79.999	19.994	103.259	19.394	45.682	0.527
632.000	385.981	80.002	19.994	103.260	19.357	48.545	0.513
634.000	387.091	80.002	19.994	103.262	19.324	51.124	0.541
636.000	388.165	80.006	19.994	103.271	19.280	54.519	0.542
638.000	389.283	80.000	19.994	103.281	19.243	57.377	0.536
640.000	390.365	80.000	19.994	103.284	19.200	60.725	0.562
642.000	391.464	80.000	19.994	103.296	19.160	63.774	0.511
644.000	392.542	79.999	19.995	103.303	19.116	67.206	0.539
646.000	393.714	79.999	19.995	103.315	19.064	71.252	0.584
648.000	394.775	79.997	19.995	103.322	19.022	74.443	0.533
650.000	395.898	79.997	19.996	103.335	18.973	78.240	0.565
652.000	396.989	79.998	19.995	103.336	18.924	81.994	0.537
654.000	398.074	80.000	19.995	103.346	18.879	85.506	0.522
656.000	399.196	79.999	19.995	103.357	18.835	88.878	0.548
658.000	400.256	80.002	19.995	103.370	18.786	92.677	0.541
660.000	401.321	80.000	19.995	103.374	18.744	95.977	0.513
662.000	402.416	79.999	19.995	103.376	18.700	99.334	0.540
664.000	403.505	80.000	19.995	103.381	18.658	102.581	0.552
666.000	404.586	80.001	19.995	103.396	18.619	105.589	0.563
668.000	405.624	80.002	19.995	103.410	18.581	108.533	0.527
670.000	406.731	80.001	19.995	103.409	18.544	111.408	0.524
672.000	407.788	80.000	19.995	103.411	18.518	113.379	0.536
674.000	408.843	80.001	19.994	103.412	18.490	115.526	0.538
676.000	409.930	80.000	19.995	103.411	18.463	117.624	0.575
678.000	410.908	80.000	19.996	103.414	18.447	118.877	0.489
680.000	412.012	80.000	19.996	103.415	18.431	120.076	0.535
682.000	413.020	80.003	19.995	103.415	18.423	120.744	0.483
684.000	414.044	80.001	19.995	103.416	18.411	121.658	0.522
686.000	415.077	80.000	19.994	103.417	18.415	121.308	0.507
688.000	416.106	80.002	19.994	103.418	18.420	120.943	0.503
690.000	417.144	80.003	19.994	103.416	18.424	120.610	0.548
692.000	418.189	80.003	19.994	103.418	18.440	119.480	0.528
694.000	419.214	80.001	19.994	103.424	18.454	118.307	0.538
696.000	420.235	80.001	19.993	103.416	18.476	116.623	0.523
698.000	421.280	80.000	19.994	103.416	18.498	114.921	0.491
700.000	422.308	80.000	19.994	103.367	18.527	112.670	0.511
702.000	423.331	80.001	19.995	103.387	18.562	109.947	0.505
704.000	424.344	79.999	19.995	103.438	18.597	107.253	0.514
706.000	425.375	79.998	19.996	103.382	18.633	104.434	0.515
708.000	426.389	79.999	19.995	103.379	18.671	101.457	0.508
710.000	427.433	80.000	19.994	103.366	18.714	98.188	0.527
712.000	428.445	80.000	19.995	103.350	18.758	94.777	0.541
714.000	429.460	80.000	19.994	103.345	18.803	91.291	0.511
716.000	430.429	80.003	19.994	103.340	18.844	88.125	0.486
718.000	431.453	79.998	19.995	103.332	18.892	84.407	0.484
720.000	432.497	80.000	19.994	103.311	18.939	80.796	0.516
722.000	433.504	80.001	19.993	103.303	18.983	77.385	0.508
724.000	434.558	80.000	19.994	103.296	19.024	74.217	0.538
726.000	435.593	80.001	19.994	103.278	19.066	70.967	0.508
728.000	436.592	80.000	19.996	103.266	19.110	67.593	0.502
730.000	437.593	80.000	19.994	103.265	19.150	64.478	0.527
732.000	438.602	80.001	19.995	103.250	19.189	61.489	0.497
734.000	439.625	80.002	19.994	103.246	19.225	58.681	0.511
736.000	440.626	80.001	19.995	103.230	19.261	55.901	0.504
738.000	441.617	80.003	19.996	103.222	19.302	52.794	0.499
740.000	442.604	80.001	19.994	103.195	19.342	49.686	0.491
742.000	443.608	80.003	19.995	103.181	19.381	46.656	0.491
744.000	444.584	80.002	19.993	103.181	19.421	43.542	0.472
746.000	445.619	80.002	19.994	103.184	19.455	40.984	0.529
748.000	446.553	80.001	19.997	103.180	19.481	38.932	0.461
750.000	447.553	80.002	19.995	103.172	19.508	36.846	0.499
752.000	448.505	80.006	19.994	103.149	19.527	35.376	0.469
754.000	449.452	80.002	19.995	103.149	19.550	33.671	0.468
756.000	450.438	80.003	19.995	103.145	19.562	32.733	0.490
758.000	451.400	79.999	19.994	103.141	19.575	31.713	0.461
760.000	452.384	80.002	19.994	103.138	19.585	30.975	0.467
762.000	453.323	79.999	19.996	103.138	19.589	30.620	0.459
764.000	454.299	80.001	19.995	103.112	19.596	30.111	0.482
766.000	455.254	80.003	19.994	103.113	19.601	29.715	0.468
768.000	456.209	80.002	19.996	103.108	19.599	29.836	0.491
770.000	457.171	80.001	19.995	103.109	19.600	29.783	0.474
772.000	458.098	80.002	19.996	103.104	19.595	30.155	0.467
774.000	459.093	80.001	19.996	103.101	19.596	30.058	0.496
776.000	460.025	80.001	19.994	103.097	19.595	30.124	0.477
778.000	460.981	80.002	19.994	103.087	19.591	30.463	0.441
780.000	461.941	80.001	19.994	103.088	19.595	30.138	0.489
782.000	462.875	80.003	19.995	103.071	19.596	30.090	0.464
784.000	463.843	80.002	19.994	103.074	19.600	29.772	0.478
786.000	464.751	80.003	19.995	103.067	19.607	29.218	0.446
788.000	465.719	80.000	19.994	103.064	19.611	28.930	0.476
790.000	466.663	80.000	19.994	103.057	19.624	27.892	0.485
792.000	467.630	80.000	19.995	103.059	19.637	26.952	0.477
794.000	468.585	80.001	19.994	103.063	19.650	25.920	0.479
796.000	469.528	79.999	19.994	103.060	19.669	24.452	0.501
798.000	470.506	80.000	19.994	103.063	19.688	23.043	0.486
800.000	471.479	80.002	19.996	103.063	19.707	21.539	0.480
802.000	472.437	80.000	19.994	103.065	19.725	20.161	0.503
804.000	473.434	80.000	19.995	103.089	19.739	19.060	0.462
806.000	474.444	80.000	19.994	103.088	19.756	17.778	0.490
808.000	475.461	79.999	19.995	103.074	19.774	16.362	0.491
810.000	476.444	80.000	19.996	103.085	19.791	15.098	0.516
812.000	477.502	80.001	19.994	103.082	19.802	14.212	0.497
814.000	478.531	80.000	19.994	103.090	19.815	13.253	0.541
816.000	479.625	80.001	19.994	103.095	19.830	12.116	0.514
818.000	480.660	80.004	19.993	103.098	19.841	11.200	0.525
820.000	481.771	80.002	19.994	103.105	19.854	10.231	0.537
822.000	482.838	80.002	19.995	103.100	19.867	9.240	0.524
824.000	483.930	80.001	19.994	103.107	19.877	8.494	0.579
826.000	485.010	80.003	19.995	103.107	19.888	7.595	0.540
828.000	486.078	80.000	19.996	103.108	19.897	6.918	0.542
830.000	487.197	80.000	19.995	103.111	19.905	6.345	0.527
832.000	488.271	80.001	19.995	103.110	19.908	6.118	0.547
834.000	489.414	79.999	19.994	103.108	19.915	5.581	0.557
836.000	490.528	80.001	19.995	103.107	19.913	5.730	0.591
838.000	491.630	80.003	19.994	103.103	19.915	5.531	0.555
840.000	492.739	80.002	19.996	103.101	19.920	5.167	0.539
842.000	493.839	80.002	19.994	103.099	19.918	5.278	0.532
844.000	495.018	80.002	19.996	103.092	19.925	4.767	0.580
846.000	496.089	80.002	19.994	103.101	19.926	4.674	0.555
848.000	497.176	80.002	19.995	103.101	19.923	4.965	0.543
850.000	498.259	80.001	19.995	103.101	19.926	4.734	0.540
852.000	499.362	80.001	19.996	103.095	19.926	4.694	0.558
854.000	500.410	80.001	19.996	103.104	19.924	4.821	0.511
856.000	501.526	80.000	19.996	103.103	19.923	4.944	0.528
858.000	502.647	80.000	19.997	103.108	19.930	4.354	0.527
860.000	503.757	80.001	19.995	103.107	19.927	4.607	0.565
862.000	504.775	80.001	19.995	103.101	19.929	4.491	0.546
864.000	505.890	79.998	19.996	103.101	19.930	4.393	0.551
866.000	506.961	80.001	19.995	103.102	19.928	4.527	0.539
868.000	508.076	80.000	19.994	103.104	19.927	4.620	0.582
870.000	509.166	80.001	19.994	103.103	19.930	4.375	0.559
872.000	510.180	80.001	19.994	103.105	19.926	4.682	0.545
874.000	511.234	80.001	19.993	103.105	19.930	4.406	0.547
876.000	512.294	80.002	19.995	103.105	19.929	4.491	0.513
878.000	513.365	80.002	19.994	103.110	19.928	4.522	0.543
880.000	514.507	80.001	19.995	103.106	19.926	4.701	0.564
882.000	515.579	79.999	19.995	103.105	19.925	4.774	0.564
884.000	516.602	80.002	19.995	103.105	19.927	4.645	0.557
886.000	517.649	79.999	19.994	103.102	19.927	4.639	0.536
888.000	518.753	79.999	19.994	103.104	19.928	4.520	0.533
890.000	519.798	79.998	19.994	103.104	19.925	4.746	0.547
892.000	520.867	80.000	19.994	103.107	19.925	4.757	0.501
894.000	521.876	79.999	19.994	103.105	19.928	4.508	0.502
896.000	522.942	80.001	19.993	103.107	19.924	4.819	0.537
898.000	523.994	80.002	19.993	103.107	19.925	4.757	0.530
900.000	525.031	80.002	19.994	103.105	19.927	4.657	0.531
902.000	526.069	80.003	19.992	103.105	19.926	4.705	0.531
904.000	527.073	80.001	19.994	103.102	19.921	5.072	0.533
906.000	528.081	80.002	19.994	103.102	19.927	4.640	0.511
908.000	529.165	80.001	19.995	103.103	19.925	4.784	0.525
910.000	530.167	80.001	19.995	103.102	19.923	4.952	0.517
912.000	531.251	80.001	19.995	103.104	19.922	5.037	0.530
914.000	532.260	80.002	19.996	103.104	19.922	5.012	0.541
916.000	533.250	80.000	19.995	103.104	19.920	5.124	0.497
918.000	534.278	80.002	19.995	103.101	19.920	5.195	0.533
920.000	535.333	80.002	19.995	103.101	19.919	5.201	0.550
922.000	536.363	80.005	19.995	103.102	19.920	5.195	0.530
924.000	537.399	80.002	19.994	103.101	19.916	5.465	0.528
926.000	538.419	80.004	19.995	103.102	19.916	5.465	0.539
928.000	539.424	80.001	19.995	103.106	19.916	5.465	0.495
930.000	540.452	80.000	19.994	103.102	19.916	5.448	0.519
932.000	541.481	80.001	19.995	103.104	19.914	5.627	0.491
934.000	542.458	80.000	19.994	103.103	19.913	5.687	0.521
936.000	543.508	79.999	19.994	103.105	19.912	5.764	0.516
938.000	544.475	79.999	19.995	103.105	19.913	5.702	0.510
940.000	545.464	79.999	19.996	103.104	19.914	5.614	0.498
942.000	546.467	80.000	19.995	103.104	19.910	5.907	0.500
944.000	547.532	79.999	19.996	103.104	19.910	5.955	0.522
946.000	548.537	79.999	19.996	103.105	19.910	5.947	0.510
948.000	549.532	79.999	19.995	103.105	19.911	5.868	0.524
950.000	550.558	79.999	19.995	103.104	19.910	5.951	0.555
952.000	551.592	79.999	19.995	103.104	19.911	5.841	0.495
954.000	552.557	80.000	19.995	103.108	19.911	5.889	0.468
956.000	553.590	80.000	19.993	103.114	19.911	5.878	0.518
958.000	554.583	79.999	19.994	103.106	19.912	5.764	0.508
960.000	555.634	80.000	19.994	103.106	19.912	5.808	0.473
962.000	556.629	80.000	19.994	103.104	19.908	6.092	0.506
964.000	557.686	79.998	19.995	103.105	19.911	5.824	0.521
966.000	558.657	80.001	19.996	103.107	19.912	5.793	0.497
968.000	559.668	79.999	19.995	103.105	19.913	5.668	0.490
970.000	560.678	80.001	19.994	103.106	19.914	5.621	0.481
972.000	561.716	80.001	19.995	103.104	19.913	5.712	0.517
974.000	562.720	80.002	19.994	103.103	19.911	5.845	0.506
976.000	563.695	80.000	19.995	103.104	19.909	5.978	0.497
978.000	564.730	80.002	19.994	103.103	19.908	6.052	0.496
980.000	565.757	80.002	19.994	103.104	19.904	6.370	0.533
982.000	566.746	80.002	19.993	103.105	19.906	6.223	0.531
984.000	567.769	80.002	19.995	103.102	19.907	6.194	0.495
986.000	568.789	80.001	19.994	103.102	19.905	6.290	0.488
988.000	569.778	80.002	19.994	103.104	19.904	6.416	0.513
990.000	570.806	80.000	19.995	103.103	19.905	6.312	0.518
992.000	571.797	80.002	19.992	103.105	19.902	6.519	0.481
994.000	572.791	80.002	19.995	103.106	19.900	6.667	0.480
996.000	573.847	80.001	19.994	103.111	19.899	6.802	0.494
998.000	574.886	80.000	19.995	103.117	19.896	7.033	0.539
1000.000	575.888	80.002	19.994	103.105	19.894	7.124	0.504
1002.000	576.892	80.002	19.994	103.117	19.895	7.060	0.504
1004.000	577.926	80.003	19.994	103.121	19.894	7.137	0.492
1006.000	578.915	80.000	19.995	103.106	19.890	7.458	0.494
1008.000	579.932	80.001	19.994	103.107	19.886	7.793	0.496
1010.000	580.894	80.002	19.995	103.110	19.887	7.736	0.469
1012.000	581.935	80.000	19.995	103.110	19.882	8.070	0.480
1014.000	582.944	80.000	19.995	103.111	19.880	8.227	0.530
1016.000	583.896	80.001	19.995	103.116	19.876	8.531	0.481
1018.000	584.942	80.000	19.995	103.110	19.872	8.831	0.491
1020.000	585.904	80.001	19.995	103.123	19.875	8.640	0.501
1022.000	586.898	80.000	19.993	103.127	19.870	9.039	0.493
1024.000	587.888	80.000	19.994	103.116	19.867	9.269	0.482
1025.999	588.906	80.001	19.995	103.123	19.861	9.676	0.496
1027.999	589.881	80.001	19.994	103.131	19.857	10.040	0.483
1029.999	590.895	80.001	19.996	103.133	19.853	10.356	0.502
1031.999	591.899	80.000	19.996	103.134	19.852	10.406	0.507
1033.999	592.898	80.000	19.996	103.137	19.845	10.946	0.531
1035.999	593.887	79.999	19.997	103.133	19.839	11.382	0.507
1037.999	594.847	80.000	19.995	103.130	19.832	11.918	0.467
1039.999	595.871	79.999	19.996	103.141	19.828	12.226	0.479
1042.000	596.850	80.001	19.996	103.140	19.820	12.896	0.501
1043.999	597.865	80.001	19.995	103.139	19.806	13.909	0.510
1045.999	598.861	80.000	19.995	103.141	19.801	14.320	0.486
1047.999	599.861	79.999	19.995	103.141	19.792	15.035	0.503
1049.999	600.859	80.002	19.994	103.144	19.783	15.728	0.514
1052.001	601.860	80.002	19.995	103.144	19.774	16.375	0.482
1053.999	602.845	80.002	19.995	103.146	19.766	17.018	0.503
1055.999	603.854	80.003	19.994	103.149	19.753	17.986	0.491
1058.000	604.844	80.002	19.995	103.146	19.749	18.355	0.503
1059.999	605.835	80.002	19.994	103.157	19.740	19.000	0.493
1061.999	606.859	80.001	19.994	103.179	19.735	19.415	0.474
1063.999	607.864	80.003	19.994	103.177	19.728	19.910	0.540
1066.000	608.920	80.001	19.995	103.168	19.726	20.068	0.505
1067.999	609.926	79.999	19.996	103.179	19.723	20.305	0.522
1069.999	610.931	80.001	19.994	103.182	19.719	20.642	0.521
1072.000	611.987	80.003	19.995	103.177	19.720	20.593	0.490
1073.999	613.046	80.002	19.995	103.156	19.718	20.725	0.547
1076.001	614.060	80.001	19.995	103.146	19.719	20.613	0.519
1077.999	615.036	80.002	19.994	103.154	19.743	18.822	0.490
1079.999	616.068	80.003	19.993	103.166	19.737	19.242	0.510
1081.999	617.085	80.003	19.994	103.152	19.747	18.496	0.493
1084.000	618.101	80.003	19.993	103.145	19.761	17.420	0.458
1085.999	619.151	80.003	19.993	103.143	19.770	16.731	0.497
1087.999	620.149	80.003	19.994	103.144	19.790	15.188	0.592
1089.999	620.913	80.002	19.995	103.142	19.809	13.677	0.514
1091.999	622.401	80.001	19.996	103.140	19.827	12.304	0.634
1094.000	622.791	80.000	19.994	103.137	19.845	10.921	0.521
1095.999	624.220	80.001	19.996	103.140	19.860	9.809	0.549
1097.999	625.140	79.999	19.995	103.141	19.867	9.249	0.476
1099.999	626.146	79.998	19.997	103.143	19.881	8.168	0.467
1101.999	627.199	80.000	19.996	103.130	19.884	7.905	0.501
1103.999	628.232	80.000	19.995	103.123	19.894	7.180	0.474
1105.999	629.313	80.001	19.995	103.114	19.898	6.819	0.480
1108.001	630.366	80.000	19.996	103.108	19.902	6.543	0.535
1109.999	631.418	80.000	19.995	103.114	19.903	6.495	0.494
1111.999	632.408	79.999	19.995	103.105	19.904	6.375	0.480
1113.999	633.564	80.001	19.995	103.109	19.906	6.205	0.532
1115.999	634.553	79.999	19.995	103.112	19.910	5.941	0.570
1117.999	635.602	79.998	19.996	103.108	19.906	6.248	0.538
1119.999	636.648	79.999	19.996	103.108	19.911	5.843	0.506
1121.999	637.722	80.001	19.996	103.105	19.917	5.412	0.545
1123.999	638.760	79.999	19.997	103.126	19.911	5.831	0.552
1126.001	639.828	79.998	19.996	103.130	19.913	5.725	0.558
1127.999	640.843	79.999	19.997	103.118	19.918	5.333	0.555
1129.999	641.894	79.999	19.995	103.105	19.916	5.466	0.543
1131.999	642.832	79.997	19.996	103.108	19.914	5.640	0.515
1133.999	643.886	80.000	19.996	103.119	19.914	5.612	0.507
1135.999	644.527	79.999	19.994	103.111	19.916	5.506	-0.083
1137.999	646.081	80.001	19.997	103.121	19.916	5.442	0.207
1139.999	647.002	80.001	19.994	103.131	19.914	5.645	0.608
1141.999	648.064	80.000	19.994	103.124	19.914	5.598	0.469
1143.999	649.081	80.002	19.994	103.123	19.914	5.647	0.506
1145.999	650.108	80.000	19.995	103.134	19.911	5.830	0.494
1147.999	651.123	80.001	19.995	103.143	19.916	5.441	0.532
1149.999	652.186	80.001	19.995	103.138	19.914	5.651	0.528
1151.999	653.222	80.001	19.994	103.132	19.915	5.518	0.500
1153.999	654.267	80.002	19.994	103.131	19.914	5.630	0.523
1155.999	655.302	80.003	19.996	103.134	19.916	5.440	0.517
1157.999	656.345	80.002	19.995	103.133	19.912	5.762	0.521
1159.999	657.319	80.003	19.995	103.126	19.914	5.639	0.498
1161.999	658.346	80.004	19.995	103.134	19.917	5.382	0.518
1163.999	659.369	80.005	19.995	103.130	19.914	5.618	0.508
1166.000	660.399	80.004	19.994	103.134	19.915	5.583	0.499
1168.000	661.408	80.003	19.994	103.137	19.916	5.429	0.518
1169.999	662.410	79.999	19.994	103.140	19.916	5.498	0.496
1172.000	663.398	80.001	19.994	103.143	19.911	5.839	0.471
1173.999	664.385	80.001	19.994	103.144	19.914	5.585	0.468
1176.000	665.378	80.002	19.995	103.143	19.911	5.824	0.486
1177.999	666.393	79.999	19.995	103.142	19.913	5.681	0.501
1179.999	667.391	80.001	19.996	103.139	19.908	6.082	0.485
1181.999	668.382	80.000	19.996	103.142	19.918	5.324	0.510
1183.999	669.417	80.002	19.996	103.142	19.913	5.700	0.494
1185.999	670.426	79.999	19.999	103.146	19.914	5.633	0.521
1187.999	671.448	79.999	19.995	103.144	19.915	5.575	0.493
1189.999	672.475	80.000	19.997	103.145	19.913	5.704	0.515
1191.999	673.506	79.998	19.997	103.146	19.911	5.850	0.526
1193.999	674.439	79.998	19.996	103.150	19.909	6.016	0.513
1195.999	675.616	80.001	19.996	103.156	19.906	6.226	0.100
1197.999	676.628	79.999	19.997	103.145	19.910	5.914	0.553
1199.999	677.688	80.000	19.997	103.145	19.913	5.704	0.528
1201.999	678.702	80.000	19.996	103.151	19.912	5.785	0.484
1203.999	679.762	79.999	19.995	103.157	19.911	5.880	0.492
1205.999	680.776	79.999	19.997	103.167	19.911	5.880	0.515
1207.999	681.812	79.999	19.996	103.161	19.908	6.108	0.494
1209.999	682.840	79.997	19.997	103.153	19.906	6.226	0.509
1211.999	683.882	80.001	19.996	103.150	19.908	6.053	0.501
1213.999	684.936	80.001	19.995	103.147	19.908	6.118	0.488
1215.999	686.001	80.002	19.996	103.144	19.907	6.155	0.497
1217.999	687.007	80.001	19.996	103.149	19.906	6.212	0.511
1219.999	688.067	80.000	19.995	103.169	19.908	6.104	0.523
1221.999	689.124	80.000	19.996	103.155	19.909	6.037	0.514
1223.999	690.081	80.001	19.995	103.160	19.908	6.064	0.472
1225.999	691.154	80.001	19.996	103.153	19.910	5.915	0.520
1227.999	692.210	80.001	19.997	103.164	19.908	6.120	0.541
1230.000	693.250	80.003	19.995	103.170	19.910	5.931	0.540
1231.999	694.295	80.001	19.995	103.159	19.909	6.032	0.529
1233.999	695.382	80.003	19.994	103.162	19.912	5.799	0.546
1235.999	696.409	80.001	19.995	103.166	19.911	5.889	0.529
1237.999	697.457	80.003	19.994	103.166	19.910	5.922	0.516
1240.000	698.499	80.002	19.995	103.157	19.908	6.094	0.518
1241.999	699.488	80.003	19.995	103.154	19.912	5.814	0.514
1243.999	700.557	80.004	19.994	103.143	19.912	5.743	0.554
1245.999	701.600	80.001	19.997	103.151	19.912	5.784	0.509
1247.999	702.589	80.001	19.996	103.143	19.911	5.836	0.490
1249.999	703.644	80.002	19.996	103.141	19.912	5.748	0.518
1251.999	704.634	79.999	19.996	103.143	19.913	5.678	0.502
1253.999	705.646	80.002	19.997	103.142	19.914	5.596	0.511
1255.999	706.678	80.000	19.995	103.130	19.915	5.554	0.515
1257.999	707.712	80.001	19.994	103.135	19.914	5.621	0.528
1259.999	708.728	80.001	19.994	103.118	19.917	5.366	0.498
1261.999	709.781	80.001	19.996	103.127	19.916	5.469	0.520
1263.999	710.742	79.999	19.995	103.122	19.915	5.538	0.496
1266.000	711.782	80.000	19.996	103.109	19.915	5.571	0.534
1267.999	712.799	80.000	19.995	103.111	19.914	5.592	0.491
1269.999	713.777	80.003	19.996	103.114	19.918	5.343	0.474
1271.999	714.800	80.000	19.995	103.107	19.916	5.496	0.530
1273.999	715.835	80.001	19.995	103.108	19.916	5.455	0.512
1276.000	716.843	80.001	19.996	103.107	19.914	5.640	0.497
1277.999	717.849	80.000	19.995	103.107	19.917	5.367	0.528
1279.999	718.837	80.001	19.995	103.110	19.911	5.839	0.516
1281.999	719.841	80.000	19.995	103.105	19.911	5.843	0.497
1283.999	720.863	79.999	19.996	103.113	19.917	5.380	0.480
1285.999	721.901	79.999	19.995	103.115	19.915	5.508	0.507
1287.999	722.920	80.001	19.996	103.104	19.918	5.330	0.512
1289.999	723.856	80.002	19.995	103.110	19.914	5.616	0.458
1291.999	724.940	80.002	19.995	103.109	19.916	5.450	0.491
1293.999	725.859	80.002	19.995	103.110	19.914	5.596	0.475
1296.001	726.909	80.001	19.994	103.106	19.914	5.618	0.518
1297.999	727.965	80.003	19.996	103.105	19.914	5.616	0.498
1300.001	728.998	80.004	19.996	103.104	19.913	5.735	0.511
1301.999	729.993	80.000	19.997	103.104	19.912	5.764	0.512
1303.999	731.032	79.999	19.996	103.103	19.913	5.675	0.499
1305.999	732.037	80.001	19.997	103.105	19.911	5.864	0.519
1307.999	733.032	79.999	19.996	103.102	19.911	5.861	0.511
1309.999	734.054	80.001	19.996	103.100	19.908	6.044	0.473
1311.999	735.077	80.001	19.995	103.102	19.912	5.787	0.511
1314.000	736.025	80.001	19.996	103.107	19.910	5.899	0.483
1315.999	737.079	80.003	19.995	103.112	19.912	5.751	0.491
1317.999	738.139	80.003	19.995	103.108	19.912	5.766	0.526
1319.999	739.099	80.004	19.994	103.104	19.910	5.922	0.451
1321.999	740.165	80.003	19.993	103.105	19.910	5.895	0.535
1324.000	741.184	80.002	19.995	103.111	19.908	6.094	0.518
1325.999	742.202	80.002	19.994	103.111	19.908	6.086	0.508
1328.000	743.203	80.002	19.994	103.109	19.908	6.080	0.495
1328.500	743.499	80.002	19.993	103.109	19.909	5.980	0.515