File: 01_Data/Triexta_Carpet_HighPile/MCC/Triexta_Carpet_HighPile_MCC_30K_min_211117_R1.txt
Sample ID:	C:\MCC\MCC Cal\Test\Triexta_Carpet_High_Pile_MCC_30K_min_211117_R1.txt
Sample Weight (mg):	4.39
Heating Rate (C/s):	0.5
Combustor Temp (C):	900
N2 Flow Rate (cc/min):	80
O2 Flow Rate (cc/min):	20
Calibration File:	C:\MCC\MCC Cal\Coeff1 JN10440_30_210304.txt.txt
T Correction Coefficients:	0	1.024463	0
Time Shift (s):	14
*
Time (s)	Temperature (C)	N2 flow rate (cc/min)	O2 flow rate (cc/min)	Flow Rate (cc/min)	Oxygen (%)	HRR (W/g)	Heating rate (C/s)
-0.001	110.516	80.002	19.993	103.051	19.895	0.182	0.034
2.000	110.541	80.002	19.994	103.043	19.894	0.215	0.016
4.000	110.560	80.002	19.994	103.040	19.895	0.150	0.048
6.000	110.502	80.001	19.993	103.059	19.890	0.508	-0.008
8.000	110.530	80.001	19.996	103.067	19.892	0.374	-0.015
10.000	110.551	80.002	19.994	103.068	19.891	0.465	-0.004
12.000	110.537	80.001	19.995	103.074	19.889	0.570	0.023
14.000	110.517	80.001	19.996	103.091	19.889	0.613	-0.005
16.000	110.496	80.002	19.996	103.090	19.886	0.772	-0.000
18.000	110.547	80.001	19.996	103.099	19.885	0.879	-0.014
20.000	110.578	80.001	19.997	103.118	19.883	1.000	-0.003
22.000	110.693	80.002	19.995	103.135	19.880	1.241	0.049
24.000	110.745	80.004	19.996	103.137	19.878	1.420	0.052
26.000	110.861	80.004	19.994	103.161	19.872	1.802	0.070
28.000	110.974	80.005	19.994	103.208	19.869	2.047	0.076
30.000	111.149	80.003	19.995	103.220	19.865	2.342	0.082
32.000	111.315	80.003	19.996	103.231	19.862	2.588	0.083
33.999	111.544	80.003	19.995	103.251	19.862	2.598	0.120
35.999	111.814	80.003	19.997	103.258	19.861	2.628	0.110
37.999	112.067	80.002	19.997	103.267	19.856	3.005	0.145
39.999	112.388	80.001	19.997	103.270	19.854	3.187	0.153
41.999	112.746	80.002	19.995	103.262	19.852	3.270	0.163
43.999	113.095	80.002	19.995	103.264	19.852	3.284	0.174
45.999	113.485	80.002	19.997	103.272	19.852	3.326	0.226
48.000	113.879	80.002	19.996	103.291	19.850	3.474	0.200
50.000	114.372	80.003	19.995	103.298	19.847	3.678	0.238
51.999	114.819	80.004	19.995	103.300	19.846	3.724	0.239
53.999	115.327	80.003	19.995	103.301	19.843	3.972	0.250
56.000	115.788	80.005	19.995	103.299	19.842	4.073	0.242
57.999	116.424	80.004	19.994	103.298	19.846	3.731	0.305
60.000	116.998	80.002	19.994	103.301	19.846	3.752	0.334
61.999	117.638	80.003	19.994	103.302	19.844	3.926	0.317
63.999	118.177	80.004	19.994	103.303	19.845	3.853	0.311
65.999	118.813	80.002	19.995	103.309	19.845	3.835	0.324
67.999	119.447	80.003	19.994	103.315	19.844	3.888	0.309
69.999	120.164	80.002	19.996	103.322	19.845	3.845	0.353
71.999	120.881	80.002	19.995	103.314	19.843	3.932	0.338
73.999	121.591	80.003	19.996	103.304	19.842	4.019	0.362
75.999	122.309	80.003	19.995	103.301	19.843	3.994	0.367
77.999	123.074	80.003	19.995	103.300	19.842	4.034	0.373
79.999	123.847	80.003	19.995	103.309	19.840	4.212	0.378
81.999	124.623	80.003	19.995	103.312	19.842	4.018	0.392
83.999	125.403	80.004	19.994	103.314	19.845	3.827	0.405
86.000	126.198	80.003	19.995	103.316	19.837	4.376	0.436
87.999	127.042	80.003	19.995	103.319	19.838	4.348	0.410
89.999	127.849	80.002	19.995	103.315	19.838	4.319	0.421
91.999	128.709	80.003	19.995	103.324	19.837	4.384	0.438
93.999	129.522	80.001	19.995	103.313	19.839	4.273	0.414
95.999	130.399	80.001	19.995	103.314	19.840	4.214	0.433
98.000	131.286	80.003	19.994	103.315	19.837	4.409	0.453
99.999	132.154	80.003	19.993	103.312	19.837	4.403	0.432
102.000	132.975	80.003	19.996	103.321	19.840	4.180	0.422
103.999	133.897	80.003	19.994	103.314	19.842	4.051	0.433
105.999	134.832	80.002	19.995	103.308	19.838	4.364	0.506
107.999	135.731	80.005	19.996	103.313	19.837	4.383	0.457
109.999	136.679	80.003	19.996	103.303	19.839	4.257	0.465
112.000	137.601	80.003	19.995	103.312	19.837	4.372	0.469
113.999	138.516	80.003	19.995	103.304	19.837	4.395	0.474
115.999	139.464	80.002	19.995	103.307	19.837	4.439	0.463
117.999	140.407	80.003	19.995	103.309	19.838	4.358	0.478
119.999	141.344	80.002	19.995	103.300	19.837	4.435	0.463
122.000	142.298	80.002	19.994	103.305	19.838	4.322	0.487
124.000	143.238	80.002	19.995	103.301	19.837	4.372	0.465
125.999	144.194	80.002	19.994	103.302	19.835	4.560	0.494
128.000	145.161	80.003	19.996	103.305	19.838	4.320	0.490
130.000	146.153	80.003	19.995	103.303	19.837	4.409	0.510
132.000	147.127	80.003	19.995	103.302	19.837	4.381	0.497
134.000	148.113	80.003	19.994	103.301	19.837	4.441	0.498
136.000	149.113	80.003	19.994	103.300	19.837	4.423	0.526
138.000	150.149	80.001	19.995	103.296	19.838	4.355	0.532
140.000	151.072	80.002	19.996	103.294	19.840	4.189	0.508
142.000	152.039	80.003	19.995	103.295	19.840	4.175	0.470
144.000	153.042	80.001	19.996	103.294	19.842	4.005	0.507
146.000	153.982	80.001	19.994	103.293	19.836	4.482	0.471
148.000	155.020	80.002	19.995	103.294	19.841	4.143	0.496
150.000	155.947	80.001	19.995	103.294	19.840	4.151	0.471
152.000	156.943	80.002	19.994	103.294	19.841	4.121	0.468
154.000	157.938	80.001	19.995	103.296	19.843	3.963	0.514
156.000	158.928	80.002	19.995	103.294	19.838	4.327	0.466
158.000	159.946	80.003	19.996	103.287	19.841	4.095	0.512
160.000	160.912	80.003	19.994	103.290	19.841	4.084	0.464
162.000	161.913	80.003	19.995	103.286	19.837	4.395	0.517
164.000	162.898	80.002	19.995	103.287	19.835	4.580	0.505
166.000	163.882	80.000	19.995	103.282	19.839	4.291	0.492
168.000	164.897	80.003	19.995	103.280	19.838	4.325	0.516
170.000	165.858	80.002	19.994	103.287	19.840	4.176	0.499
172.000	166.868	80.001	19.995	103.292	19.842	4.032	0.503
174.000	167.828	80.001	19.995	103.277	19.840	4.165	0.465
176.000	168.859	80.001	19.995	103.271	19.839	4.236	0.486
178.000	169.831	80.001	19.993	103.277	19.839	4.244	0.486
180.000	170.831	80.002	19.994	103.268	19.840	4.208	0.505
182.000	171.812	80.001	19.995	103.276	19.842	4.071	0.489
184.000	172.830	80.003	19.995	103.278	19.842	4.006	0.508
186.000	173.816	80.003	19.994	103.273	19.841	4.097	0.492
188.000	174.806	80.003	19.995	103.269	19.842	4.051	0.449
190.000	175.788	80.001	19.996	103.277	19.843	3.952	0.478
192.000	176.816	80.003	19.995	103.272	19.844	3.916	0.469
194.000	177.810	80.002	19.995	103.269	19.840	4.178	0.528
196.000	178.760	80.002	19.996	103.264	19.840	4.207	0.469
198.000	179.748	80.003	19.994	103.266	19.840	4.168	0.498
200.000	180.753	80.001	19.994	103.263	19.841	4.106	0.503
202.000	181.723	80.002	19.995	103.262	19.841	4.116	0.504
204.000	182.707	80.002	19.996	103.259	19.844	3.875	0.476
206.000	183.669	80.003	19.996	103.259	19.844	3.890	0.494
208.000	184.604	80.003	19.995	103.257	19.843	3.928	0.450
210.000	185.645	80.003	19.994	103.258	19.847	3.663	0.496
212.000	186.630	80.004	19.994	103.259	19.844	3.869	0.505
214.000	187.622	80.005	19.995	103.256	19.844	3.898	0.484
216.000	188.613	80.002	19.995	103.256	19.846	3.726	0.490
218.000	189.579	80.004	19.994	103.255	19.842	4.027	0.475
220.000	190.550	80.001	19.995	103.257	19.846	3.728	0.471
222.000	191.558	80.000	19.996	103.257	19.846	3.764	0.484
224.000	192.533	80.002	19.996	103.255	19.844	3.865	0.469
226.000	193.492	80.001	19.996	103.256	19.846	3.773	0.460
228.000	194.455	80.002	19.996	103.252	19.845	3.795	0.490
230.000	195.452	80.001	19.996	103.253	19.845	3.791	0.466
232.000	196.447	80.003	19.996	103.256	19.846	3.712	0.500
234.000	197.413	80.003	19.995	103.256	19.848	3.621	0.493
236.000	198.369	80.002	19.995	103.251	19.847	3.700	0.482
238.000	199.365	80.002	19.995	103.251	19.845	3.823	0.460
240.000	200.348	80.002	19.996	103.252	19.846	3.750	0.497
242.000	201.311	80.002	19.994	103.259	19.847	3.669	0.496
244.000	202.321	80.004	19.994	103.259	19.845	3.839	0.511
246.000	203.269	80.003	19.994	103.256	19.843	3.988	0.453
248.000	204.256	80.002	19.995	103.252	19.846	3.736	0.505
250.000	205.192	80.002	19.995	103.259	19.843	3.962	0.446
252.000	206.225	80.002	19.995	103.257	19.844	3.853	0.514
254.000	207.212	80.002	19.995	103.254	19.845	3.813	0.499
256.000	208.186	80.001	19.996	103.259	19.846	3.767	0.513
258.000	209.171	80.002	19.995	103.260	19.847	3.639	0.461
260.000	210.168	80.000	19.994	103.248	19.846	3.734	0.517
262.000	211.123	80.002	19.996	103.259	19.845	3.839	0.507
264.000	212.109	80.003	19.994	103.258	19.845	3.831	0.502
266.000	213.114	80.004	19.995	103.253	19.843	3.967	0.509
268.000	214.088	80.004	19.995	103.252	19.845	3.825	0.497
270.000	215.083	80.004	19.995	103.258	19.848	3.613	0.509
272.000	216.074	80.003	19.995	103.247	19.848	3.603	0.489
274.000	217.123	80.005	19.996	103.248	19.846	3.710	0.511
276.000	218.072	80.004	19.995	103.252	19.848	3.595	0.497
278.000	219.049	80.005	19.995	103.237	19.846	3.718	0.503
280.000	220.069	80.004	19.995	103.255	19.842	4.031	0.509
282.000	221.073	80.004	19.995	103.255	19.848	3.560	0.490
284.000	222.064	80.004	19.996	103.252	19.846	3.765	0.513
286.000	223.088	80.004	19.997	103.253	19.846	3.777	0.504
288.000	224.072	80.005	19.996	103.248	19.840	4.207	0.467
290.000	225.071	80.005	19.994	103.242	19.844	3.865	0.509
292.000	226.054	80.005	19.996	103.255	19.848	3.603	0.502
294.000	227.074	80.004	19.996	103.252	19.847	3.657	0.532
296.000	228.045	80.005	19.997	103.250	19.844	3.904	0.513
298.000	229.069	80.003	19.996	103.253	19.844	3.910	0.498
300.000	230.050	80.004	19.995	103.256	19.845	3.788	0.477
302.000	231.067	80.002	19.995	103.257	19.845	3.835	0.515
304.000	232.046	80.003	19.996	103.249	19.843	3.952	0.509
306.000	233.059	80.001	19.995	103.247	19.845	3.827	0.484
308.000	234.026	80.001	19.996	103.245	19.847	3.674	0.497
310.000	234.996	80.002	19.995	103.255	19.838	4.298	0.454
312.000	236.002	80.001	19.995	103.256	19.842	4.045	0.478
314.000	236.982	80.002	19.996	103.255	19.846	3.777	0.497
316.000	237.947	80.000	19.996	103.252	19.844	3.922	0.488
318.000	238.927	80.001	19.998	103.252	19.842	3.999	0.501
320.000	239.948	80.000	19.997	103.251	19.845	3.793	0.512
322.000	240.891	80.001	19.997	103.253	19.845	3.844	0.486
324.000	241.864	80.002	19.997	103.251	19.845	3.801	0.504
326.000	242.875	80.001	19.995	103.248	19.843	3.985	0.511
328.000	243.842	80.000	19.996	103.245	19.843	3.929	0.490
330.000	244.833	80.002	19.996	103.239	19.846	3.725	0.494
332.000	245.800	80.000	19.995	103.232	19.845	3.816	0.486
334.000	246.819	80.001	19.995	103.240	19.842	4.018	0.507
336.000	247.757	80.001	19.996	103.235	19.844	3.875	0.490
338.000	248.766	80.002	19.995	103.238	19.842	4.040	0.485
340.000	249.832	80.002	19.996	103.231	19.844	3.861	0.552
342.000	250.810	80.003	19.996	103.220	19.842	4.047	0.478
344.000	251.809	80.002	19.995	103.220	19.843	3.939	0.499
346.000	252.792	80.003	19.995	103.221	19.847	3.650	0.506
348.000	253.791	80.002	19.995	103.223	19.843	3.966	0.491
350.000	254.795	80.005	19.995	103.220	19.844	3.887	0.521
352.000	255.762	80.004	19.996	103.218	19.844	3.920	0.489
354.000	256.764	80.003	19.996	103.219	19.842	4.039	0.502
356.000	257.806	80.004	19.996	103.218	19.844	3.876	0.512
358.000	258.787	80.004	19.995	103.212	19.841	4.108	0.512
360.000	259.827	80.003	19.995	103.209	19.844	3.863	0.511
362.000	260.815	80.002	19.996	103.206	19.843	3.995	0.491
364.000	261.820	80.004	19.995	103.215	19.841	4.070	0.502
366.000	262.820	80.004	19.996	103.205	19.846	3.716	0.491
368.000	263.857	80.005	19.996	103.195	19.842	4.039	0.486
370.000	264.886	80.005	19.995	103.213	19.843	3.962	0.516
372.000	265.884	80.004	19.995	103.196	19.844	3.905	0.496
374.000	266.915	80.004	19.995	103.197	19.845	3.806	0.504
376.000	267.943	80.005	19.995	103.191	19.844	3.885	0.513
378.000	268.937	80.003	19.994	103.200	19.846	3.712	0.480
380.000	270.048	80.004	19.995	103.204	19.843	3.932	0.533
382.000	271.088	80.000	19.994	103.211	19.846	3.732	0.535
384.000	272.107	80.001	19.996	103.213	19.844	3.884	0.532
386.000	273.130	80.001	19.996	103.211	19.843	3.937	0.505
388.000	274.147	80.002	19.996	103.207	19.844	3.878	0.477
390.000	275.219	80.001	19.995	103.194	19.849	3.536	0.534
392.000	276.214	80.001	19.996	103.206	19.846	3.771	0.525
394.000	277.212	80.001	19.996	103.194	19.846	3.722	0.491
396.000	278.283	80.001	19.996	103.196	19.846	3.730	0.505
398.000	279.286	80.002	19.995	103.188	19.843	3.928	0.478
400.000	280.309	80.002	19.995	103.197	19.843	3.973	0.529
402.000	281.316	80.001	19.995	103.180	19.845	3.836	0.487
404.000	282.312	80.003	19.996	103.193	19.845	3.793	0.506
406.000	283.365	80.002	19.996	103.200	19.844	3.873	0.513
408.000	284.315	80.002	19.996	103.201	19.845	3.808	0.476
410.000	285.360	80.002	19.996	103.197	19.842	4.035	0.498
412.000	286.294	80.003	19.995	103.186	19.839	4.262	0.497
414.000	287.329	80.002	19.996	103.189	19.844	3.904	0.525
416.000	288.271	80.001	19.997	103.195	19.840	4.169	0.467
418.000	289.312	80.001	19.997	103.212	19.845	3.837	0.496
420.000	290.280	80.003	19.997	103.202	19.842	4.066	0.478
422.000	291.303	80.002	19.996	103.199	19.841	4.077	0.531
424.000	292.238	80.002	19.996	103.209	19.840	4.176	0.473
426.000	293.265	80.003	19.995	103.199	19.844	3.895	0.481
428.000	294.263	80.003	19.996	103.193	19.844	3.922	0.515
430.000	295.209	80.004	19.995	103.204	19.840	4.185	0.486
432.000	296.221	80.003	19.995	103.199	19.840	4.172	0.486
434.000	297.204	80.002	19.996	103.207	19.840	4.169	0.524
436.000	298.174	80.003	19.995	103.212	19.836	4.502	0.528
438.000	299.169	80.002	19.995	103.204	19.839	4.238	0.479
440.000	300.105	80.002	19.995	103.196	19.840	4.203	0.474
442.000	301.124	80.002	19.994	103.199	19.838	4.295	0.489
444.000	302.080	80.003	19.995	103.206	19.835	4.548	0.474
446.000	303.082	80.002	19.995	103.197	19.838	4.338	0.478
448.000	304.014	80.004	19.995	103.198	19.833	4.722	0.480
450.000	304.994	80.003	19.994	103.197	19.832	4.759	0.492
452.000	305.988	80.005	19.994	103.217	19.832	4.749	0.504
454.000	306.974	80.003	19.994	103.218	19.830	4.880	0.522
456.000	307.967	80.004	19.994	103.214	19.834	4.595	0.508
458.000	308.922	80.005	19.994	103.207	19.834	4.611	0.472
460.000	309.949	80.005	19.994	103.211	19.829	4.995	0.504
462.000	310.938	80.003	19.995	103.196	19.829	4.975	0.481
464.000	311.962	80.003	19.995	103.206	19.829	4.991	0.509
466.000	312.986	80.003	19.995	103.200	19.829	5.007	0.529
468.000	313.961	80.001	19.995	103.212	19.829	4.979	0.489
470.000	314.999	80.002	19.995	103.212	19.830	4.925	0.497
472.000	315.951	80.002	19.995	103.213	19.831	4.876	0.499
474.000	316.963	80.002	19.995	103.208	19.828	5.066	0.506
476.000	317.985	80.001	19.995	103.207	19.826	5.186	0.472
478.000	319.007	80.001	19.996	103.203	19.824	5.384	0.519
480.000	320.018	80.003	19.996	103.202	19.825	5.266	0.507
482.000	321.033	80.003	19.996	103.191	19.822	5.485	0.507
484.000	322.033	80.003	19.996	103.210	19.826	5.242	0.501
486.000	323.018	80.002	19.995	103.205	19.821	5.600	0.477
488.000	323.981	80.001	19.997	103.187	19.821	5.577	0.484
490.000	324.995	80.002	19.995	103.195	19.820	5.619	0.478
492.000	326.005	80.002	19.996	103.212	19.818	5.764	0.477
494.000	326.997	80.001	19.996	103.202	19.817	5.896	0.507
496.000	328.000	80.002	19.995	103.203	19.816	5.907	0.528
498.000	328.999	80.001	19.995	103.195	19.814	6.077	0.498
500.000	330.029	80.002	19.995	103.211	19.816	5.959	0.528
502.000	331.039	80.002	19.996	103.214	19.813	6.154	0.522
504.000	332.018	80.002	19.996	103.190	19.812	6.221	0.491
506.000	333.080	80.002	19.996	103.200	19.812	6.215	0.533
508.000	334.035	80.002	19.996	103.203	19.805	6.730	0.511
510.000	335.089	80.002	19.996	103.191	19.805	6.760	0.500
512.000	336.114	80.002	19.996	103.194	19.804	6.849	0.490
514.000	337.157	80.003	19.995	103.199	19.803	6.894	0.548
516.000	338.142	80.003	19.994	103.185	19.803	6.909	0.524
518.000	339.224	80.002	19.994	103.195	19.797	7.334	0.534
520.000	340.159	80.002	19.994	103.215	19.798	7.279	0.500
522.000	341.157	80.002	19.995	103.202	19.796	7.426	0.496
524.000	342.229	80.004	19.995	103.201	19.792	7.687	0.525
526.000	343.228	80.004	19.995	103.207	19.786	8.108	0.519
528.000	344.247	80.004	19.995	103.208	19.785	8.219	0.528
530.000	345.283	80.004	19.996	103.211	19.781	8.527	0.505
532.000	346.310	80.004	19.995	103.213	19.782	8.454	0.518
534.000	347.325	80.005	19.994	103.215	19.772	9.147	0.516
536.000	348.349	80.005	19.995	103.212	19.770	9.349	0.517
538.000	349.361	80.003	19.996	103.213	19.766	9.626	0.514
540.000	350.366	80.002	19.995	103.215	19.763	9.828	0.500
542.000	351.401	80.002	19.995	103.206	19.758	10.198	0.540
544.000	352.515	80.002	19.996	103.214	19.754	10.524	0.564
546.000	353.532	80.001	19.995	103.208	19.748	10.925	0.537
548.000	354.544	80.002	19.996	103.210	19.744	11.226	0.516
550.000	355.558	80.003	19.995	103.217	19.741	11.442	0.532
552.000	356.538	80.002	19.994	103.216	19.734	11.954	0.521
554.000	357.561	80.001	19.995	103.206	19.726	12.521	0.495
556.000	358.531	80.003	19.995	103.219	19.718	13.139	0.466
558.000	359.568	80.002	19.996	103.220	19.708	13.849	0.492
560.000	360.580	80.002	19.995	103.219	19.700	14.426	0.478
562.000	361.594	80.002	19.996	103.220	19.692	15.059	0.509
564.000	362.614	80.002	19.995	103.221	19.682	15.782	0.513
566.000	363.589	80.002	19.995	103.221	19.671	16.607	0.494
568.000	364.594	80.001	19.995	103.226	19.661	17.352	0.496
570.000	365.577	80.001	19.996	103.226	19.645	18.459	0.476
572.000	366.547	80.001	19.996	103.233	19.632	19.422	0.482
574.000	367.568	80.001	19.995	103.236	19.616	20.596	0.521
576.000	368.549	79.999	19.996	103.246	19.608	21.196	0.473
578.000	369.554	80.001	19.995	103.257	19.590	22.509	0.495
580.000	370.522	80.002	19.995	103.260	19.574	23.670	0.493
582.000	371.535	80.001	19.995	103.260	19.556	25.064	0.472
584.000	372.536	80.002	19.996	103.261	19.537	26.442	0.500
586.000	373.544	80.004	19.994	103.262	19.515	28.017	0.526
588.000	374.546	80.002	19.995	103.270	19.495	29.512	0.479
590.000	375.582	80.004	19.995	103.266	19.470	31.356	0.515
592.000	376.563	80.003	19.995	103.273	19.448	32.983	0.508
594.000	377.563	80.003	19.996	103.289	19.421	34.930	0.482
596.000	378.586	80.002	19.996	103.291	19.398	36.665	0.503
598.000	379.589	80.002	19.996	103.295	19.370	38.717	0.500
600.000	380.610	80.001	19.996	103.304	19.340	40.925	0.540
602.000	381.617	80.003	19.996	103.311	19.308	43.291	0.510
604.000	382.603	80.002	19.996	103.321	19.277	45.530	0.502
606.000	383.596	80.003	19.995	103.332	19.242	48.134	0.478
608.000	384.614	80.003	19.996	103.334	19.207	50.661	0.503
610.000	385.623	80.004	19.995	103.339	19.175	53.062	0.499
612.000	386.634	80.004	19.996	103.340	19.138	55.736	0.477
614.000	387.640	80.005	19.994	103.367	19.096	58.888	0.484
616.000	388.640	80.003	19.995	103.363	19.059	61.564	0.508
618.000	389.658	80.003	19.995	103.371	19.017	64.679	0.501
620.000	390.632	80.003	19.995	103.383	18.972	68.025	0.485
622.000	391.659	80.001	19.995	103.382	18.932	70.982	0.493
624.000	392.637	80.001	19.995	103.404	18.888	74.196	0.496
626.000	393.653	80.002	19.996	103.410	18.843	77.467	0.492
628.000	394.693	79.999	19.994	103.424	18.800	80.680	0.498
630.000	395.738	80.002	19.996	103.431	18.761	83.538	0.522
632.000	396.710	80.001	19.995	103.447	18.716	86.873	0.490
634.000	397.703	80.002	19.995	103.451	18.673	89.982	0.481
636.000	398.656	80.001	19.995	103.452	18.632	93.023	0.471
638.000	399.688	80.001	19.996	103.455	18.593	95.929	0.487
640.000	400.707	80.002	19.996	103.459	18.553	98.836	0.499
642.000	401.684	80.002	19.994	103.464	18.521	101.227	0.476
644.000	402.715	80.003	19.995	103.465	18.489	103.579	0.517
646.000	403.689	80.002	19.994	103.470	18.452	106.314	0.502
648.000	404.710	80.002	19.995	103.495	18.424	108.339	0.487
650.000	405.688	80.003	19.995	103.495	18.399	110.155	0.508
652.000	406.689	80.001	19.995	103.495	18.376	111.853	0.501
654.000	407.673	80.002	19.995	103.498	18.357	113.276	0.475
656.000	408.711	80.001	19.995	103.496	18.341	114.436	0.514
658.000	409.681	80.001	19.996	103.497	18.328	115.373	0.479
660.000	410.696	80.001	19.995	103.498	18.325	115.643	0.494
662.000	411.716	80.001	19.995	103.497	18.322	115.844	0.509
664.000	412.708	80.001	19.995	103.496	18.320	115.967	0.480
666.000	413.689	80.003	19.996	103.494	18.324	115.725	0.497
668.000	414.686	80.003	19.995	103.493	18.335	114.840	0.475
670.000	415.667	80.004	19.996	103.494	18.345	114.146	0.497
672.000	416.673	80.003	19.995	103.492	18.361	112.917	0.515
674.000	417.710	80.003	19.995	103.492	18.382	111.361	0.518
676.000	418.731	80.003	19.996	103.491	18.402	109.908	0.508
678.000	419.743	80.003	19.996	103.488	18.429	107.944	0.517
680.000	420.711	80.004	19.996	103.472	18.460	105.643	0.516
682.000	421.714	80.003	19.995	103.466	18.493	103.203	0.475
684.000	422.695	80.001	19.995	103.456	18.526	100.755	0.480
686.000	423.675	80.002	19.996	103.456	18.561	98.154	0.467
688.000	424.679	80.002	19.995	103.455	18.600	95.315	0.483
690.000	425.682	80.003	19.996	103.454	18.639	92.399	0.496
692.000	426.685	80.004	19.996	103.427	18.681	89.335	0.504
694.000	427.725	80.003	19.995	103.419	18.721	86.423	0.511
696.000	428.757	80.002	19.996	103.413	18.767	83.011	0.542
698.000	429.783	80.003	19.995	103.414	18.808	79.963	0.508
700.000	430.734	80.004	19.995	103.399	18.850	76.880	0.533
702.000	431.768	80.002	19.994	103.385	18.892	73.773	0.526
704.000	432.802	80.001	19.994	103.374	18.932	70.873	0.532
706.000	433.831	80.002	19.994	103.353	18.971	67.984	0.510
708.000	434.872	80.001	19.995	103.346	19.007	65.330	0.510
710.000	435.893	80.002	19.994	103.340	19.042	62.785	0.493
712.000	436.897	80.002	19.995	103.334	19.080	60.003	0.512
714.000	437.956	80.002	19.994	103.326	19.114	57.465	0.514
716.000	438.950	80.002	19.994	103.316	19.153	54.591	0.538
718.000	439.977	80.002	19.995	103.298	19.192	51.729	0.531
720.000	441.045	80.003	19.995	103.286	19.237	48.416	0.518
722.000	442.040	80.003	19.994	103.287	19.275	45.630	0.534
724.000	443.078	80.002	19.996	103.283	19.310	43.066	0.531
726.000	444.114	80.002	19.996	103.263	19.341	40.791	0.517
728.000	445.144	80.002	19.995	103.262	19.373	38.429	0.515
730.000	446.179	80.002	19.994	103.258	19.397	36.659	0.504
732.000	447.220	80.001	19.994	103.237	19.418	35.154	0.518
734.000	448.268	80.002	19.994	103.231	19.435	33.893	0.535
736.000	449.300	80.002	19.993	103.225	19.449	32.823	0.512
738.000	450.329	80.002	19.995	103.219	19.460	32.018	0.513
740.000	451.380	80.001	19.996	103.218	19.463	31.829	0.537
742.000	452.448	80.002	19.995	103.214	19.468	31.467	0.556
744.000	453.494	80.003	19.995	103.206	19.469	31.389	0.557
746.000	454.525	80.003	19.995	103.196	19.478	30.760	0.556
748.000	455.589	80.003	19.996	103.191	19.475	30.964	0.564
750.000	456.605	80.004	19.995	103.188	19.476	30.892	0.515
752.000	457.678	80.003	19.995	103.183	19.471	31.191	0.566
754.000	458.650	80.002	19.995	103.185	19.474	30.999	0.499
756.000	459.725	80.002	19.997	103.181	19.470	31.292	0.502
758.000	460.742	80.004	19.995	103.175	19.467	31.557	0.550
760.000	461.860	80.003	19.995	103.176	19.458	32.187	0.541
762.000	462.860	80.004	19.995	103.155	19.457	32.269	0.572
764.000	463.827	80.002	19.994	103.142	19.462	31.872	0.461
766.000	464.911	80.003	19.995	103.145	19.472	31.135	0.500
768.000	465.880	80.003	19.996	103.143	19.485	30.165	0.432
770.000	467.063	80.003	19.995	103.143	19.498	29.269	0.470
772.000	467.954	80.002	19.994	103.142	19.515	28.026	0.511
774.000	469.167	80.005	19.995	103.140	19.538	26.322	0.486
776.000	469.664	80.003	19.995	103.140	19.554	25.138	0.429
778.000	470.932	80.002	19.996	103.131	19.575	23.580	0.269
780.000	472.511	80.003	19.996	103.134	19.598	21.912	0.530
782.000	473.172	80.000	19.996	103.137	19.620	20.279	0.647
784.000	474.292	80.001	19.995	103.137	19.639	18.910	0.496
786.000	475.284	79.999	19.996	103.134	19.662	17.259	0.518
788.000	476.279	80.001	19.997	103.129	19.673	16.438	0.591
790.000	477.274	80.001	19.997	103.136	19.692	14.997	0.464
792.000	478.234	80.002	19.995	103.139	19.709	13.786	0.506
794.000	479.334	80.001	19.994	103.139	19.726	12.561	0.514
796.000	480.340	80.001	19.996	103.141	19.741	11.451	0.514
798.000	481.306	80.002	19.995	103.142	19.755	10.393	0.524
800.000	482.339	80.002	19.995	103.148	19.769	9.417	0.495
802.000	483.317	80.002	19.995	103.145	19.775	8.948	0.488
804.000	484.312	80.002	19.995	103.158	19.788	7.972	0.491
806.000	485.303	80.003	19.993	103.166	19.797	7.356	0.497
808.000	486.307	80.002	19.995	103.149	19.804	6.817	0.467
810.000	487.333	80.001	19.995	103.148	19.808	6.552	0.510
812.000	488.285	80.001	19.995	103.156	19.816	5.902	0.469
814.000	489.351	80.001	19.995	103.145	19.817	5.856	0.512
816.000	490.336	80.001	19.996	103.148	19.823	5.458	0.502
818.000	491.360	79.999	19.995	103.157	19.826	5.175	0.516
820.000	492.367	79.999	19.996	103.173	19.829	5.000	0.534
822.000	493.374	80.002	19.996	103.157	19.827	5.111	0.523
824.000	494.415	80.002	19.994	103.160	19.828	5.052	0.509
826.000	495.433	80.003	19.994	103.173	19.832	4.779	0.532
828.000	496.443	80.002	19.995	103.170	19.832	4.739	0.508
830.000	497.454	80.002	19.994	103.154	19.832	4.771	0.494
832.000	498.502	80.001	19.994	103.151	19.832	4.781	0.544
834.000	499.501	80.003	19.993	103.173	19.831	4.840	0.509
836.000	500.530	80.003	19.994	103.161	19.836	4.477	0.510
838.000	501.570	80.003	19.995	103.159	19.836	4.484	0.504
840.000	502.564	80.000	19.995	103.155	19.835	4.567	0.490
842.000	503.604	80.000	19.995	103.170	19.837	4.411	0.507
844.000	504.637	80.001	19.995	103.169	19.838	4.352	0.494
846.000	505.646	80.001	19.995	103.165	19.841	4.128	0.525
848.000	506.665	80.003	19.996	103.158	19.838	4.361	0.509
850.000	507.731	80.003	19.995	103.150	19.838	4.312	0.530
852.000	508.762	80.003	19.995	103.162	19.839	4.234	0.501
854.000	509.759	80.004	19.994	103.163	19.840	4.142	0.486
856.000	510.816	80.004	19.994	103.154	19.838	4.297	0.518
858.000	511.811	80.003	19.995	103.153	19.841	4.128	0.516
860.000	512.855	80.003	19.995	103.151	19.841	4.104	0.534
862.000	513.845	80.001	19.994	103.150	19.839	4.227	0.504
864.000	514.916	80.000	19.996	103.145	19.840	4.150	0.543
866.000	515.927	80.003	19.995	103.164	19.838	4.298	0.534
868.000	516.993	80.000	19.996	103.168	19.839	4.259	0.535
870.000	517.981	80.001	19.996	103.155	19.841	4.105	0.479
872.000	519.027	80.002	19.995	103.164	19.841	4.093	0.501
874.000	520.074	80.002	19.997	103.165	19.840	4.192	0.532
876.000	521.117	80.002	19.996	103.161	19.837	4.399	0.486
878.000	522.124	80.002	19.996	103.157	19.837	4.429	0.528
880.000	523.181	80.001	19.996	103.156	19.838	4.340	0.526
882.000	524.235	80.002	19.995	103.172	19.835	4.568	0.523
884.000	525.265	80.002	19.996	103.176	19.838	4.340	0.533
886.000	526.308	80.001	19.995	103.163	19.839	4.257	0.549
888.000	527.329	80.002	19.996	103.165	19.836	4.445	0.495
890.000	528.365	80.001	19.996	103.165	19.836	4.441	0.533
892.000	529.392	80.001	19.995	103.176	19.833	4.698	0.519
894.000	530.444	80.000	19.995	103.163	19.834	4.652	0.510
896.000	531.503	80.002	19.995	103.171	19.831	4.829	0.531
898.000	532.561	80.001	19.994	103.177	19.831	4.819	0.541
900.000	533.602	80.000	19.995	103.169	19.827	5.133	0.513
902.000	534.619	80.001	19.995	103.166	19.831	4.862	0.508
904.000	535.721	80.002	19.995	103.166	19.828	5.038	0.527
906.000	536.751	80.003	19.995	103.158	19.828	5.048	0.491
908.000	537.762	80.002	19.994	103.164	19.831	4.820	0.512
910.000	538.796	80.004	19.995	103.166	19.829	5.016	0.522
912.000	539.850	80.004	19.994	103.152	19.831	4.815	0.518
914.000	540.872	80.001	19.995	103.152	19.831	4.872	0.509
916.000	541.872	80.003	19.995	103.165	19.831	4.847	0.502
918.000	542.942	80.004	19.994	103.153	19.832	4.800	0.519
920.000	543.952	80.003	19.995	103.154	19.829	4.951	0.474
922.000	544.974	80.003	19.995	103.150	19.831	4.846	0.521
924.000	545.994	80.002	19.994	103.164	19.831	4.836	0.511
926.000	547.038	80.003	19.994	103.146	19.829	4.965	0.541
928.000	548.069	80.004	19.994	103.142	19.832	4.759	0.529
930.000	549.088	80.004	19.994	103.157	19.831	4.822	0.495
932.000	550.075	80.003	19.995	103.148	19.830	4.876	0.496
934.000	551.120	80.004	19.995	103.154	19.832	4.757	0.518
936.000	552.113	80.004	19.995	103.142	19.833	4.656	0.492
938.000	553.169	80.003	19.994	103.162	19.835	4.520	0.524
940.000	554.154	80.002	19.995	103.155	19.831	4.809	0.499
942.000	555.198	80.000	19.996	103.151	19.831	4.868	0.517
944.000	556.207	80.000	19.995	103.152	19.832	4.799	0.545
946.000	557.233	80.000	19.995	103.157	19.832	4.796	0.497
948.000	558.228	79.999	19.996	103.162	19.830	4.902	0.515
950.000	559.279	80.000	19.994	103.168	19.829	5.009	0.532
952.000	560.299	80.001	19.994	103.158	19.828	5.049	0.529
954.000	561.311	80.002	19.996	103.163	19.828	5.080	0.527
956.000	562.343	80.000	19.996	103.161	19.830	4.888	0.523
958.000	563.355	80.001	19.995	103.153	19.829	4.971	0.532
960.000	564.386	80.000	19.997	103.162	19.828	5.038	0.529
962.000	565.424	80.000	19.995	103.171	19.827	5.164	0.526
964.000	566.464	80.000	19.996	103.172	19.826	5.240	0.536
966.000	567.478	79.999	19.996	103.166	19.826	5.230	0.531
968.000	568.499	80.000	19.997	103.166	19.825	5.297	0.513
970.000	569.584	80.000	19.995	103.168	19.824	5.357	0.551
972.000	570.645	80.000	19.995	103.159	19.825	5.275	0.531
974.000	571.662	80.000	19.994	103.158	19.827	5.164	0.509
976.000	572.728	80.001	19.995	103.151	19.824	5.374	0.539
978.000	573.788	80.000	19.995	103.160	19.822	5.505	0.539
980.000	574.874	80.000	19.994	103.158	19.820	5.610	0.559
982.000	575.922	80.002	19.995	103.161	19.815	5.999	0.537
984.000	576.969	80.002	19.995	103.150	19.818	5.800	0.547
986.000	578.065	80.002	19.995	103.153	19.813	6.168	0.524
988.000	579.078	80.002	19.995	103.157	19.812	6.260	0.527
990.000	580.108	80.004	19.995	103.164	19.808	6.513	0.504
992.000	581.150	80.003	19.995	103.155	19.805	6.759	0.536
994.000	582.201	80.003	19.994	103.164	19.806	6.695	0.538
996.000	583.250	80.003	19.995	103.175	19.800	7.144	0.530
998.000	584.285	80.002	19.994	103.149	19.799	7.156	0.525
1000.000	585.388	80.002	19.995	103.167	19.801	7.051	0.538
1002.000	586.369	80.002	19.995	103.171	19.796	7.439	0.507
1004.000	587.370	80.003	19.995	103.152	19.796	7.370	0.505
1006.000	588.453	80.004	19.995	103.151	19.791	7.759	0.540
1008.000	589.469	80.005	19.994	103.153	19.787	8.030	0.528
1010.000	590.499	80.004	19.995	103.163	19.779	8.681	0.506
1012.000	591.511	80.005	19.994	103.176	19.780	8.606	0.466
1014.000	592.586	80.004	19.993	103.165	19.775	8.927	0.526
1016.000	593.597	80.004	19.993	103.171	19.768	9.441	0.503
1018.000	594.626	80.004	19.994	103.181	19.763	9.837	0.507
1020.000	595.654	80.002	19.994	103.174	19.752	10.666	0.487
1022.000	596.678	80.001	19.994	103.181	19.745	11.130	0.531
1024.000	597.680	80.000	19.995	103.181	19.732	12.118	0.495
1025.999	598.702	80.000	19.995	103.184	19.723	12.751	0.496
1027.999	599.686	80.003	19.996	103.183	19.717	13.222	0.504
1029.999	600.709	80.000	19.996	103.181	19.707	13.934	0.487
1031.999	601.759	80.000	19.995	103.178	19.696	14.763	0.540
1033.999	602.701	80.001	19.996	103.178	19.691	15.099	0.493
1035.999	603.732	80.002	19.995	103.178	19.682	15.802	0.520
1037.999	604.700	80.001	19.995	103.179	19.673	16.401	0.493
1039.999	605.673	80.002	19.995	103.179	19.670	16.610	0.503
1041.999	606.668	80.003	19.995	103.181	19.662	17.226	0.501
1044.000	607.688	80.003	19.995	103.179	19.659	17.432	0.487
1045.999	608.664	80.002	19.994	103.182	19.654	17.815	0.471
1048.000	609.624	80.001	19.994	103.179	19.652	17.968	0.498
1049.999	610.616	80.000	19.995	103.181	19.654	17.821	0.433
1051.999	611.572	79.999	19.995	103.186	19.655	17.736	0.487
1054.000	612.584	80.000	19.997	103.180	19.658	17.548	0.482
1055.999	613.550	80.000	19.997	103.176	19.664	17.066	0.482
1057.999	614.560	79.999	19.996	103.177	19.671	16.580	0.519
1059.999	615.531	80.000	19.996	103.175	19.687	15.392	0.486
1062.000	616.515	80.001	19.996	103.176	19.700	14.437	0.512
1063.999	617.492	80.000	19.996	103.176	19.720	12.976	0.518
1065.999	618.522	80.000	19.995	103.170	19.737	11.737	0.485
1067.999	619.522	80.003	19.995	103.168	19.757	10.239	0.502
1069.999	620.521	80.002	19.994	103.174	19.776	8.841	0.528
1071.999	621.515	80.002	19.995	103.159	19.790	7.828	0.500
1073.999	622.513	80.001	19.994	103.160	19.805	6.726	0.495
1075.999	623.536	80.002	19.994	103.170	19.818	5.822	0.490
1078.000	624.575	80.002	19.995	103.157	19.826	5.199	0.542
1079.999	625.571	80.002	19.995	103.146	19.837	4.420	0.517
1081.999	626.572	80.001	19.994	103.144	19.844	3.902	0.485
1083.999	627.620	80.001	19.995	103.145	19.849	3.504	0.516
1085.999	628.638	80.003	19.995	103.143	19.853	3.247	0.498
1087.999	629.682	80.001	19.994	103.140	19.860	2.729	0.499
1089.999	630.706	80.003	19.995	103.144	19.864	2.397	0.510
1091.999	631.737	80.001	19.995	103.136	19.868	2.145	0.508
1093.999	632.767	80.003	19.994	103.142	19.874	1.712	0.490
1096.001	633.775	80.003	19.994	103.125	19.873	1.764	0.504
1097.999	634.839	80.003	19.994	103.132	19.873	1.760	0.539
1100.000	635.880	80.002	19.994	103.131	19.877	1.430	0.524
1101.999	636.859	80.001	19.994	103.131	19.878	1.416	0.509
1104.000	637.919	80.002	19.994	103.118	19.876	1.533	0.532
1105.999	638.985	80.002	19.995	103.129	19.878	1.364	0.541
1108.000	640.015	80.002	19.994	103.125	19.882	1.080	0.542
1109.999	641.024	80.001	19.995	103.119	19.879	1.327	0.516
1111.999	642.052	80.000	19.996	103.132	19.881	1.189	0.553
1113.999	643.055	80.001	19.995	103.138	19.884	0.969	0.526
1115.999	644.063	80.001	19.995	103.121	19.883	0.997	0.480
1117.999	645.030	80.000	19.995	103.124	19.882	1.078	0.503
1119.999	646.061	80.000	19.995	103.134	19.883	1.048	0.528
1121.999	647.039	80.002	19.995	103.138	19.882	1.133	0.496
1124.000	648.075	80.002	19.994	103.138	19.884	0.979	0.492
1125.999	649.122	80.002	19.995	103.126	19.884	0.969	0.527
1128.000	650.171	80.001	19.996	103.137	19.885	0.892	0.543
1130.000	651.143	80.002	19.994	103.139	19.882	1.076	0.547
1132.000	652.156	80.000	19.995	103.139	19.885	0.862	0.495
1133.999	653.187	79.998	19.994	103.140	19.884	0.951	0.520
1135.999	654.196	79.999	19.995	103.144	19.887	0.734	0.525
1137.999	655.286	79.999	19.995	103.143	19.887	0.708	0.534
1139.999	656.284	80.000	19.997	103.142	19.887	0.765	0.491
1141.999	657.319	80.000	19.996	103.142	19.888	0.684	0.515
1143.999	658.334	80.001	19.995	103.137	19.888	0.664	0.490
1145.999	659.377	80.001	19.997	103.141	19.889	0.611	0.502
1147.999	660.407	80.001	19.997	103.141	19.887	0.698	0.491
1149.999	661.464	80.002	19.996	103.142	19.885	0.848	0.533
1151.999	662.488	80.001	19.995	103.141	19.886	0.807	0.494
1153.999	663.520	80.003	19.995	103.137	19.886	0.781	0.510
1155.999	664.526	80.001	19.995	103.142	19.886	0.811	0.517
1157.999	665.556	80.002	19.994	103.143	19.886	0.809	0.512
1160.000	666.578	80.002	19.994	103.143	19.891	0.469	0.560
1162.000	667.582	80.002	19.994	103.146	19.889	0.579	0.493
1164.000	668.579	80.003	19.995	103.141	19.892	0.362	0.516
1165.999	669.615	80.002	19.994	103.139	19.889	0.585	0.513
1168.000	670.630	80.003	19.995	103.147	19.891	0.427	0.533
1170.000	671.649	80.004	19.994	103.149	19.891	0.417	0.523
1171.999	672.692	80.005	19.993	103.143	19.890	0.532	0.507
1173.999	673.757	80.003	19.994	103.141	19.892	0.398	0.547
1175.999	674.774	80.002	19.994	103.140	19.888	0.680	0.526
1178.000	675.804	80.003	19.994	103.142	19.889	0.601	0.440
1179.999	676.894	80.003	19.995	103.144	19.888	0.667	0.504
1181.999	677.896	80.002	19.994	103.145	19.885	0.886	0.540
1183.999	678.941	80.002	19.995	103.142	19.890	0.479	0.498
1185.999	679.933	80.002	19.995	103.145	19.888	0.663	0.502
1187.999	680.934	80.001	19.994	103.151	19.892	0.364	0.502
1189.999	681.938	80.002	19.995	103.152	19.895	0.148	0.497
1191.999	682.989	80.002	19.995	103.149	19.892	0.348	0.528
1193.999	683.960	80.001	19.994	103.147	19.892	0.384	0.514
1196.000	684.955	80.002	19.994	103.151	19.894	0.210	0.497
1197.999	685.991	80.001	19.994	103.163	19.893	0.285	0.499
1199.999	686.966	80.002	19.995	103.154	19.891	0.417	0.509
1202.000	687.999	80.001	19.994	103.153	19.896	0.099	0.505
1203.999	689.005	80.001	19.994	103.155	19.893	0.257	0.487
1205.999	690.033	80.001	19.994	103.152	19.892	0.386	0.546
1207.999	691.054	80.001	19.995	103.154	19.894	0.253	0.525
1209.999	692.044	80.001	19.995	103.161	19.895	0.170	0.528
1212.000	693.050	80.000	19.995	103.152	19.893	0.271	0.516
1213.999	694.026	80.001	19.995	103.167	19.894	0.188	0.508
1215.999	695.055	80.000	19.995	103.160	19.891	0.415	0.507
1217.999	696.088	80.000	19.996	103.152	19.895	0.131	0.486
1219.999	697.091	80.001	19.996	103.151	19.893	0.303	0.480
1221.999	698.111	80.001	19.994	103.146	19.895	0.132	0.493
1223.999	699.152	80.002	19.995	103.151	19.894	0.188	0.539
1225.999	700.166	80.004	19.996	103.148	19.899	-0.170	0.507
1227.999	701.212	80.003	19.996	103.144	19.898	-0.085	0.505
1229.999	702.224	80.003	19.995	103.141	19.895	0.138	0.513
1231.999	703.241	80.003	19.996	103.139	19.897	0.000	0.504
1233.999	704.247	80.003	19.995	103.136	19.896	0.043	0.481
1235.999	705.276	80.001	19.996	103.113	19.898	-0.097	0.531
1237.999	706.314	80.000	19.996	103.118	19.898	-0.087	0.519
1239.999	707.329	80.001	19.995	103.119	19.902	-0.393	0.540
1241.999	708.336	80.002	19.996	103.106	19.904	-0.530	0.476
1243.999	709.387	80.001	19.996	103.102	19.907	-0.739	0.554
1246.000	710.378	80.003	19.995	103.102	19.904	-0.484	0.511
1247.999	711.412	80.004	19.995	103.107	19.907	-0.698	0.499
1249.999	712.447	80.003	19.995	103.099	19.907	-0.735	0.507
1251.999	713.450	80.004	19.995	103.105	19.906	-0.694	0.508
1253.999	714.463	80.005	19.994	103.101	19.908	-0.791	0.538
1255.999	715.501	80.004	19.996	103.102	19.909	-0.909	0.505
1257.999	716.536	80.004	19.994	103.101	19.909	-0.876	0.526
1259.999	717.548	80.002	19.995	103.098	19.906	-0.684	0.520
1262.000	718.542	80.001	19.995	103.102	19.909	-0.898	0.499
1263.999	719.580	80.000	19.995	103.103	19.908	-0.812	0.532
1265.999	720.585	80.001	19.994	103.101	19.908	-0.822	0.497
1267.999	721.611	80.002	19.996	103.097	19.907	-0.718	0.520
1269.999	722.611	80.000	19.995	103.100	19.911	-1.044	0.516
1272.000	723.595	80.001	19.995	103.100	19.908	-0.793	0.513
1273.999	724.601	80.002	19.995	103.097	19.910	-0.977	0.505
1276.001	725.614	80.001	19.994	103.087	19.908	-0.811	0.510
1277.999	726.621	80.001	19.995	103.105	19.909	-0.844	0.489
1279.999	727.641	80.001	19.994	103.089	19.912	-1.079	0.496
1281.999	728.625	80.001	19.994	103.093	19.909	-0.844	0.496
1283.999	729.624	80.001	19.994	103.104	19.912	-1.113	0.479
1285.999	730.625	80.002	19.995	103.105	19.912	-1.109	0.492
1287.999	731.647	80.002	19.994	103.102	19.912	-1.087	0.500
1289.999	732.630	80.000	19.995	103.098	19.909	-0.907	0.504
1291.999	733.655	80.002	19.995	103.090	19.914	-1.228	0.510
1293.999	734.649	80.001	19.994	103.088	19.911	-1.032	0.503
1295.999	735.618	80.000	19.995	103.092	19.909	-0.903	0.470
1297.999	736.623	80.002	19.996	103.079	19.910	-0.971	0.469
1300.000	737.642	80.002	19.996	103.080	19.913	-1.196	0.494
1302.000	738.624	80.002	19.996	103.092	19.910	-0.955	0.501
1304.000	739.613	80.003	19.996	103.085	19.910	-0.983	0.488
1305.999	740.618	80.003	19.995	103.096	19.912	-1.071	0.513
1307.999	741.660	80.002	19.995	103.096	19.907	-0.767	0.551
1309.999	742.635	80.004	19.995	103.093	19.912	-1.067	0.491
1311.999	743.636	80.003	19.994	103.088	19.909	-0.886	0.505