File: 01_Data/Pallet_Wood/STA/N2/30K_min/Pallet_Wood_STA_N2_30KData_220413_R1.csv
##Temp./Â°C,Time/min,Mass loss(subtr.2)/mg,DSC(subtr.2)/(mW/mg),Sensit./(uV/mW)
48.446,10.01,-0.04113,0.00889259,1.07508
49.146,10.55495,-0.04304669,0.04356033,1.07477
49.846,10.6829,-0.04287538,0.07568222,1.07446
50.546,10.77208,-0.04308212,0.10009,1.07415
51.246,10.8462,-0.04290712,0.12982,1.07384
51.946,10.90965,-0.04416245,0.15702,1.07353
52.646,10.9664,-0.04448574,0.17733,1.07322
53.346,11.01845,-0.04448731,0.20131,1.07291
54.046,11.06707,-0.04402651,0.22155,1.0726
54.746,11.11235,-0.04414043,0.2408,1.07229
55.446,11.15508,-0.044513,0.26116,1.07197
56.146,11.19581,-0.04425271,0.27955,1.07166
56.846,11.23482,-0.04423368,0.29797,1.07135
57.546,11.27266,-0.04545232,0.31409,1.07103
58.246,11.30922,-0.04521915,0.33142,1.07072
58.946,11.34445,-0.04538181,0.34641,1.0704
59.646,11.3788,-0.04549749,0.36368,1.07009
60.346,11.41225,-0.04586744,0.37661,1.06977
61.046,11.4449,-0.04537287,0.39057,1.06945
61.746,11.4771,-0.0461204,0.40584,1.06913
62.446,11.50854,-0.04701902,0.41897,1.06881
63.146,11.53941,-0.04609182,0.43067,1.0685
63.846,11.56969,-0.04596512,0.44437,1.06818
64.546,11.59965,-0.04617403,0.4545,1.06786
65.246,11.62937,-0.04627286,0.46755,1.06753
65.946,11.65853,-0.04714129,0.47657,1.06721
66.646,11.68727,-0.048277,0.4876,1.06689
67.346,11.71552,-0.04840204,0.5006,1.06657
68.046,11.74366,-0.04820043,0.51077,1.06625
68.746,11.77148,-0.04807991,0.52268,1.06592
69.446,11.79922,-0.04786062,0.53185,1.0656
70.146,11.82649,-0.04797386,0.54299,1.06528
70.846,11.85356,-0.04793333,0.55182,1.06495
71.546,11.88061,-0.04773318,0.5601,1.06463
72.246,11.90741,-0.04806416,0.57293,1.0643
72.946,11.93432,-0.04839224,0.58019,1.06397
73.646,11.96081,-0.04867647,0.59057,1.06365
74.346,11.98725,-0.04880999,0.59894,1.06332
75.046,12.01339,-0.04972245,0.60744,1.06299
75.746,12.0394,-0.04999028,0.61555,1.06266
76.446,12.06532,-0.05046123,0.62441,1.06233
77.146,12.09108,-0.05000428,0.63454,1.062
77.846,12.11675,-0.04910965,0.64195,1.06167
78.546,12.1421,-0.05001302,0.64981,1.06134
79.246,12.1675,-0.04971538,0.65835,1.06101
79.946,12.19277,-0.05016286,0.66832,1.06068
80.646,12.2181,-0.05074837,0.67508,1.06035
81.346,12.2433,-0.0510011,0.68068,1.06001
82.046,12.26832,-0.05100967,0.68942,1.05968
82.746,12.29331,-0.05025638,0.69721,1.05935
83.446,12.31821,-0.05176872,0.70537,1.05901
84.146,12.34303,-0.05199512,0.71304,1.05868
84.846,12.36777,-0.05169149,0.72002,1.05834
85.546,12.3924,-0.05309133,0.7269,1.05801
86.246,12.41685,-0.05333147,0.73391,1.05767
86.946,12.44137,-0.05330772,0.73967,1.05734
87.646,12.46578,-0.05474429,0.74986,1.057
88.346,12.49006,-0.05472978,0.75398,1.05666
89.046,12.5144,-0.05529846,0.75932,1.05632
89.746,12.5387,-0.05470793,0.76659,1.05598
90.446,12.56289,-0.05630258,0.77118,1.05564
91.146,12.587,-0.0553767,0.77773,1.0553
91.846,12.6109,-0.05623617,0.78354,1.05496
92.546,12.6348,-0.05667506,0.78893,1.05462
93.246,12.6587,-0.05627584,0.79154,1.05428
93.946,12.6827,-0.05627056,0.79598,1.05394
94.646,12.7067,-0.05629506,0.8037,1.0536
95.346,12.73062,-0.05731299,0.80581,1.05326
96.046,12.75446,-0.05760006,0.81029,1.05291
96.746,12.7781,-0.05897837,0.81391,1.05257
97.446,12.80187,-0.05788743,0.81763,1.05223
98.146,12.82559,-0.05769113,0.82034,1.05188
98.846,12.84934,-0.05768761,0.82478,1.05154
99.546,12.87309,-0.05794471,0.82813,1.05119
100.246,12.8968,-0.05901554,0.83064,1.05084
100.946,12.92043,-0.05937998,0.83063,1.0505
101.646,12.94399,-0.06042157,0.83289,1.05015
102.346,12.96757,-0.06118105,0.83548,1.0498
103.046,12.9911,-0.06174771,0.83487,1.04946
103.746,13.01459,-0.06255733,0.83785,1.04911
104.446,13.0381,-0.06305054,0.83663,1.04876
105.146,13.0616,-0.06305822,0.83623,1.04841
105.846,13.08521,-0.06394283,0.83829,1.04806
106.546,13.10881,-0.06437428,0.83769,1.04771
107.246,13.13235,-0.06438044,0.83694,1.04736
107.946,13.15586,-0.06437999,0.83569,1.04701
108.646,13.17929,-0.06437982,0.83322,1.04666
109.346,13.20271,-0.06440021,0.83348,1.0463
110.046,13.2262,-0.06577382,0.83472,1.04595
110.746,13.2496,-0.06570033,0.8295,1.0456
111.446,13.273,-0.06572513,0.82764,1.04524
112.146,13.2964,-0.06707835,0.82625,1.04489
112.846,13.3199,-0.06701011,0.82429,1.04454
113.546,13.3433,-0.06700992,0.8215,1.04418
114.246,13.36672,-0.06701096,0.81952,1.04383
114.946,13.3901,-0.06700939,0.81523,1.04347
115.646,13.4133,-0.06793854,0.81171,1.04311
116.346,13.4367,-0.06832067,0.80859,1.04276
117.046,13.4599,-0.06832998,0.8051,1.0424
117.746,13.4832,-0.06833414,0.80243,1.04204
118.446,13.50654,-0.06851187,0.80202,1.04168
119.146,13.5297,-0.06867377,0.79878,1.04133
119.846,13.55294,-0.06833625,0.7956,1.04097
120.546,13.57611,-0.06833034,0.79336,1.04061
121.246,13.59925,-0.06832984,0.79057,1.04025
121.946,13.62235,-0.06834412,0.78741,1.03989
122.646,13.6454,-0.06972763,0.78427,1.03953
123.346,13.66841,-0.06964211,0.78332,1.03916
124.046,13.6915,-0.06963995,0.77951,1.0388
124.746,13.7146,-0.06964166,0.77945,1.03844
125.446,13.73763,-0.06966332,0.77965,1.03808
126.146,13.7606,-0.06897046,0.77595,1.03772
126.846,13.78355,-0.07019351,0.77583,1.03735
127.546,13.80649,-0.07030856,0.77283,1.03699
128.246,13.8294,-0.07030997,0.76932,1.03662
128.946,13.85229,-0.07031088,0.76925,1.03626
129.646,13.87509,-0.07037909,0.76807,1.03589
130.346,13.8978,-0.07166084,0.76899,1.03553
131.046,13.92065,-0.07161938,0.76522,1.03516
131.746,13.9434,-0.07161992,0.76547,1.0348
132.446,13.9663,-0.071621,0.76592,1.03443
133.146,13.9891,-0.07162615,0.76361,1.03406
133.846,14.0119,-0.0724354,0.76402,1.03369
134.546,14.03449,-0.07292507,0.76373,1.03332
135.246,14.0571,-0.07292036,0.76326,1.03296
135.946,14.07966,-0.07229221,0.7635,1.03259
136.646,14.10227,-0.07142815,0.76297,1.03222
137.346,14.12488,-0.07097568,0.76436,1.03185
138.046,14.14746,-0.06979294,0.76567,1.03148
138.746,14.17004,-0.07096113,0.7652,1.03111
139.446,14.19256,-0.07096269,0.76459,1.03074
140.146,14.2151,-0.0709537,0.76749,1.03036
140.846,14.23753,-0.07087235,0.76784,1.02999
141.546,14.26,-0.07227992,0.77066,1.02962
142.246,14.2824,-0.07228044,0.76874,1.02925
142.946,14.30478,-0.07228016,0.77046,1.02887
143.646,14.3272,-0.07228192,0.77152,1.0285
144.346,14.3495,-0.07228767,0.76996,1.02813
145.046,14.3718,-0.07334042,0.77566,1.02775
145.746,14.3942,-0.07326751,0.77573,1.02738
146.446,14.4166,-0.07326038,0.77685,1.027
147.146,14.439,-0.07326001,0.77963,1.02662
147.846,14.46132,-0.07326,0.78036,1.02625
148.546,14.48359,-0.07326002,0.78137,1.02587
149.246,14.50574,-0.07326027,0.78335,1.0255
149.946,14.52791,-0.07326308,0.78689,1.02512
150.646,14.55018,-0.07325419,0.78642,1.02474
151.346,14.5723,-0.07190596,0.78931,1.02436
152.046,14.59464,-0.07194652,0.79169,1.02398
152.746,14.6169,-0.07194954,0.79029,1.0236
153.446,14.63906,-0.07194796,0.79309,1.02322
154.146,14.66129,-0.07200551,0.79543,1.02284
154.846,14.68339,-0.07106556,0.79789,1.02246
155.546,14.70541,-0.07086684,0.7982,1.02208
156.246,14.7275,-0.07226098,0.79987,1.0217
156.946,14.7495,-0.07227801,0.80183,1.02132
157.646,14.7716,-0.07366761,0.80432,1.02094
158.346,14.7936,-0.07360697,0.80573,1.02056
159.046,14.81567,-0.07360069,0.80918,1.02017
159.746,14.8377,-0.0736033,0.80942,1.01979
160.446,14.8597,-0.07360903,0.81146,1.01941
161.146,14.8818,-0.07223091,0.81361,1.01902
161.846,14.90381,-0.07276151,0.81687,1.01864
162.546,14.9258,-0.07294416,0.81831,1.01826
163.246,14.9478,-0.07321764,0.81942,1.01787
163.946,14.96982,-0.07359571,0.8233,1.01749
164.646,14.99179,-0.07360205,0.82379,1.0171
165.346,15.0138,-0.0736002,0.82486,1.01671
166.046,15.03575,-0.07360002,0.82828,1.01633
166.746,15.05768,-0.07360003,0.82993,1.01594
167.446,15.07965,-0.07360007,0.83306,1.01555
168.146,15.10155,-0.07359432,0.83418,1.01517
168.846,15.1235,-0.07338111,0.83783,1.01478
169.546,15.1454,-0.07290753,0.83987,1.01439
170.246,15.16731,-0.07413242,0.84264,1.014
170.946,15.18919,-0.074248,0.84351,1.01361
171.646,15.21105,-0.07425014,0.84809,1.01322
172.346,15.2329,-0.07425002,0.84947,1.01283
173.046,15.2548,-0.07425,0.85011,1.01244
173.746,15.27643,-0.07425,0.85151,1.01205
174.446,15.29819,-0.07425,0.85612,1.01166
175.146,15.32,-0.07425,0.85769,1.01127
175.846,15.34175,-0.07424999,0.861,1.01088
176.546,15.3636,-0.07424963,0.86212,1.01048
177.246,15.3854,-0.07424321,0.86181,1.01009
177.946,15.40705,-0.07415566,0.86638,1.0097
178.646,15.42876,-0.07556378,0.86625,1.00931
179.346,15.4505,-0.07556963,0.86913,1.00891
180.046,15.47211,-0.07552966,0.87252,1.00852
180.746,15.49378,-0.07496241,0.87249,1.00812
181.446,15.51544,-0.07347449,0.87578,1.00773
182.146,15.53705,-0.07339442,0.87833,1.00733
182.846,15.5587,-0.07391492,0.88325,1.00694
183.546,15.58024,-0.07490832,0.88295,1.00654
184.246,15.60174,-0.07503502,0.88575,1.00615
184.946,15.62326,-0.07623683,0.89049,1.00575
185.646,15.64485,-0.07623047,0.88986,1.00535
186.346,15.66635,-0.07623002,0.89221,1.00496
187.046,15.68786,-0.07623,0.89292,1.00456
187.746,15.70935,-0.07623,0.89717,1.00416
188.446,15.73076,-0.07622995,0.89904,1.00376
189.146,15.7522,-0.07622794,0.90051,1.00336
189.846,15.7738,-0.07618127,0.90304,1.00296
190.546,15.79527,-0.07702761,0.90361,1.00256
191.246,15.81675,-0.07605919,0.90603,1.00216
191.946,15.83821,-0.07610787,0.90757,1.00176
192.646,15.85963,-0.07610922,0.91142,1.00136
193.346,15.881,-0.07614673,0.9145,1.00096
194.046,15.9025,-0.07747681,0.91692,1.00056
194.746,15.9238,-0.07743381,0.91894,1.00016
195.446,15.9451,-0.07743025,0.91979,0.99976
196.146,15.9666,-0.07743002,0.92261,0.99936
196.846,15.988,-0.07743,0.92392,0.99895
197.546,16.00947,-0.07742999,0.92806,0.99855
198.246,16.031,-0.07743035,0.92926,0.99815
198.946,16.0524,-0.0774425,0.93024,0.99774
199.646,16.07378,-0.07775725,0.93419,0.99734
200.346,16.09517,-0.07875576,0.93647,0.99694
201.046,16.1164,-0.07874336,0.93743,0.99653
201.746,16.13775,-0.07866631,0.93856,0.99613
202.446,16.1591,-0.08006566,0.94173,0.99572
203.146,16.18042,-0.08007015,0.94423,0.99531
203.846,16.20176,-0.08007237,0.94621,0.99491
204.546,16.22306,-0.08012934,0.9483,0.9945
205.246,16.24434,-0.0788356,0.95105,0.9941
205.946,16.2657,-0.07875156,0.95164,0.99369
206.646,16.28696,-0.07874959,0.95421,0.99328
207.346,16.30828,-0.07874492,0.9551,0.99287
208.046,16.3296,-0.07872878,0.9608,0.99247
208.746,16.35089,-0.0800731,0.95979,0.99206
209.446,16.37225,-0.08007028,0.96418,0.99165
210.146,16.3936,-0.08006683,0.9644,0.99124
210.846,16.4149,-0.08001308,0.96727,0.99083
211.546,16.4362,-0.08099775,0.97063,0.99042
212.246,16.45751,-0.08121372,0.97228,0.99001
212.946,16.47875,-0.08239251,0.97444,0.9896
213.646,16.49981,-0.08237022,0.97629,0.98919
214.346,16.52086,-0.08236994,0.97864,0.98878
215.046,16.54213,-0.08236999,0.97915,0.98837
215.746,16.56341,-0.08237005,0.9831,0.98796
216.446,16.58485,-0.0823709,0.98574,0.98754
217.146,16.60633,-0.08238372,0.98746,0.98713
217.846,16.6276,-0.0828298,0.98821,0.98672
218.546,16.64876,-0.083703,0.99053,0.98631
219.246,16.6699,-0.08369112,0.99345,0.98589
219.946,16.69117,-0.08476726,0.99572,0.98548
220.646,16.71245,-0.08499892,0.99922,0.98507
221.346,16.7337,-0.08500697,1.00022,0.98465
222.046,16.75496,-0.08516435,1.00238,0.98424
222.746,16.7762,-0.08533666,1.00436,0.98382
223.446,16.7974,-0.08577627,1.00819,0.98341
224.146,16.81871,-0.08666248,1.0088,0.98299
224.846,16.83997,-0.08665001,1.0119,0.98258
225.546,16.8612,-0.08665293,1.01468,0.98216
226.246,16.88242,-0.08674938,1.01796,0.98174
226.946,16.90362,-0.08871992,1.0207,0.98133
227.646,16.92481,-0.08925915,1.02202,0.98091
228.346,16.946,-0.08927889,1.02437,0.98049
229.046,16.9671,-0.08928174,1.02496,0.98007
229.746,16.98834,-0.08929891,1.02853,0.97966
230.446,17.00956,-0.0886374,1.03233,0.97924
231.146,17.0308,-0.09018928,1.03373,0.97882
231.846,17.05201,-0.09040144,1.03653,0.9784
232.546,17.07321,-0.09130792,1.03922,0.97798
233.246,17.09441,-0.09242512,1.04011,0.97756
233.946,17.1156,-0.09278808,1.04522,0.97714
234.646,17.13675,-0.09317081,1.04734,0.97672
235.346,17.15793,-0.09424048,1.04971,0.9763
236.046,17.179,-0.09417439,1.05503,0.97588
236.746,17.20018,-0.09554072,1.05545,0.97546
237.446,17.2214,-0.09553848,1.05749,0.97504
238.146,17.24266,-0.09548859,1.06203,0.97462
238.846,17.2639,-0.0967462,1.06218,0.97419
239.546,17.28511,-0.09681463,1.06374,0.97377
240.246,17.30623,-0.09840372,1.06737,0.97335
240.946,17.3274,-0.09956317,1.06914,0.97293
241.646,17.34851,-0.10094,1.07004,0.9725
242.346,17.36965,-0.101,1.07282,0.97208
243.046,17.39079,-0.10258,1.07563,0.97166
243.746,17.4119,-0.10249,1.07862,0.97123
244.446,17.43309,-0.10262,1.0823,0.97081
245.146,17.45425,-0.10297,1.08269,0.97038
245.846,17.47545,-0.10402,1.08699,0.96996
246.546,17.4966,-0.10604,1.08798,0.96953
247.246,17.51774,-0.10702,1.09067,0.96911
247.946,17.53882,-0.10768,1.09527,0.96868
248.646,17.55994,-0.10924,1.09538,0.96826
249.346,17.58106,-0.11001,1.09717,0.96783
250.046,17.60219,-0.11095,1.09991,0.9674
250.746,17.62335,-0.11258,1.10487,0.96698
251.446,17.6445,-0.11409,1.10473,0.96655
252.146,17.6656,-0.11454,1.10865,0.96612
252.846,17.68672,-0.11555,1.1111,0.96569
253.546,17.70782,-0.11743,1.11311,0.96527
254.246,17.72893,-0.11928,1.11824,0.96484
254.946,17.75003,-0.12164,1.11997,0.96441
255.646,17.7711,-0.12209,1.1218,0.96398
256.346,17.79224,-0.12334,1.1253,0.96355
257.046,17.81332,-0.12488,1.1274,0.96312
257.746,17.83444,-0.12669,1.13069,0.96269
258.446,17.85549,-0.12817,1.13245,0.96226
259.146,17.8766,-0.1297,1.13412,0.96183
259.846,17.89775,-0.13164,1.13657,0.9614
260.546,17.9189,-0.13348,1.1379,0.96097
261.246,17.94001,-0.13524,1.14049,0.96054
261.946,17.96112,-0.13655,1.14335,0.96011
262.646,17.9822,-0.138,1.14448,0.95968
263.346,18.00327,-0.13993,1.14505,0.95924
264.046,18.0244,-0.14224,1.14919,0.95881
264.746,18.0455,-0.14437,1.14988,0.95838
265.446,18.0666,-0.14759,1.1522,0.95795
266.146,18.08771,-0.14952,1.1539,0.95751
266.846,18.10882,-0.15197,1.15691,0.95708
267.546,18.12985,-0.15409,1.15784,0.95665
268.246,18.15084,-0.15615,1.1606,0.95621
268.946,18.1719,-0.15873,1.16127,0.95578
269.646,18.1928,-0.16114,1.16428,0.95535
270.346,18.21388,-0.16394,1.16395,0.95491
271.046,18.23501,-0.16641,1.16715,0.95448
271.746,18.25625,-0.16889,1.1682,0.95404
272.446,18.27739,-0.17143,1.17173,0.9536
273.146,18.29857,-0.17439,1.17284,0.95317
273.846,18.31972,-0.17743,1.17362,0.95273
274.546,18.34081,-0.18111,1.17367,0.9523
275.246,18.36195,-0.18437,1.18027,0.95186
275.946,18.3831,-0.18807,1.18054,0.95142
276.646,18.40423,-0.19146,1.18324,0.95099
277.346,18.42534,-0.19484,1.18406,0.95055
278.046,18.4465,-0.19976,1.18753,0.95011
278.746,18.46755,-0.20349,1.19163,0.94967
279.446,18.48866,-0.20778,1.19296,0.94924
280.146,18.50981,-0.21088,1.19565,0.9488
280.846,18.5309,-0.21442,1.19669,0.94836
281.546,18.552,-0.21835,1.20113,0.94792
282.246,18.57312,-0.22321,1.20297,0.94748
282.946,18.59405,-0.22692,1.20659,0.94704
283.646,18.61512,-0.23077,1.20788,0.9466
284.346,18.6363,-0.23502,1.21277,0.94616
285.046,18.65744,-0.23913,1.21451,0.94572
285.746,18.6787,-0.24412,1.21606,0.94528
286.446,18.69993,-0.24984,1.21915,0.94484
287.146,18.72101,-0.25593,1.22,0.9444
287.846,18.74219,-0.2614,1.22256,0.94396
288.546,18.76334,-0.26722,1.22431,0.94352
289.246,18.7845,-0.27294,1.22893,0.94308
289.946,18.80565,-0.27884,1.23008,0.94263
290.646,18.8267,-0.28581,1.23153,0.94219
291.346,18.8478,-0.29178,1.23373,0.94175
292.046,18.869,-0.29847,1.23625,0.94131
292.746,18.89017,-0.3042,1.23727,0.94086
293.446,18.9114,-0.31208,1.24073,0.94042
294.146,18.93255,-0.31861,1.23936,0.93998
294.846,18.95375,-0.32671,1.23971,0.93953
295.546,18.97484,-0.33324,1.2413,0.93909
296.246,18.996,-0.34132,1.24187,0.93864
296.946,19.01719,-0.34878,1.2418,0.9382
297.646,19.03836,-0.3574,1.2407,0.93776
298.346,19.0595,-0.36535,1.24142,0.93731
299.046,19.08066,-0.37413,1.23965,0.93687
299.746,19.1018,-0.38259,1.2371,0.93642
300.446,19.1227,-0.39163,1.23415,0.93597
301.146,19.14375,-0.40145,1.23601,0.93553
301.846,19.1649,-0.4106,1.23311,0.93508
302.546,19.18603,-0.42054,1.23252,0.93464
303.246,19.20727,-0.42931,1.22904,0.93419
303.946,19.22856,-0.43971,1.22741,0.93374
304.646,19.24974,-0.44869,1.22684,0.9333
305.346,19.271,-0.46067,1.21957,0.93285
306.046,19.2923,-0.46939,1.22019,0.9324
306.746,19.31348,-0.48014,1.21749,0.93195
307.446,19.33462,-0.48958,1.21237,0.9315
308.146,19.35576,-0.5012,1.21177,0.93106
308.846,19.37696,-0.51126,1.20909,0.93061
309.546,19.3981,-0.52242,1.20742,0.93016
310.246,19.41934,-0.5329,1.20359,0.92971
310.946,19.44055,-0.54417,1.20158,0.92926
311.646,19.46175,-0.55555,1.19613,0.92881
312.346,19.48297,-0.56612,1.19355,0.92836
313.046,19.50413,-0.57802,1.19264,0.92791
313.746,19.52534,-0.58928,1.18827,0.92746
314.446,19.5466,-0.60159,1.18593,0.92701
315.146,19.56777,-0.61169,1.18238,0.92656
315.846,19.589,-0.62409,1.17934,0.92611
316.546,19.6102,-0.63431,1.17333,0.92566
317.246,19.63139,-0.6471,1.1722,0.92521
317.946,19.65257,-0.65761,1.16951,0.92476
318.646,19.67383,-0.67119,1.16784,0.9243
319.346,19.69511,-0.68382,1.16793,0.92385
320.046,19.71642,-0.69688,1.1643,0.9234
320.746,19.73767,-0.70832,1.16253,0.92295
321.446,19.7589,-0.72006,1.15786,0.9225
322.146,19.78012,-0.73103,1.15841,0.92204
322.846,19.80136,-0.74244,1.15844,0.92159
323.546,19.82254,-0.75512,1.1591,0.92114
324.246,19.84378,-0.76675,1.15561,0.92068
324.946,19.8651,-0.77981,1.15585,0.92023
325.646,19.88636,-0.79118,1.15539,0.91977
326.346,19.90769,-0.80488,1.15619,0.91932
327.046,19.92896,-0.8158,1.15599,0.91887
327.746,19.95026,-0.8296,1.15804,0.91841
328.446,19.97155,-0.84111,1.15766,0.91796
329.146,19.99278,-0.855,1.16093,0.9175
329.846,20.01406,-0.86619,1.16362,0.91705
330.546,20.0353,-0.87943,1.1651,0.91659
331.246,20.05657,-0.89136,1.1673,0.91613
331.946,20.07787,-0.90478,1.17148,0.91568
332.646,20.09915,-0.91705,1.17448,0.91522
333.346,20.1204,-0.92991,1.17736,0.91477
334.046,20.14175,-0.94332,1.18167,0.91431
334.746,20.16305,-0.95648,1.18446,0.91385
335.446,20.1844,-0.97046,1.19037,0.9134
336.146,20.20579,-0.98249,1.19221,0.91294
336.846,20.2271,-0.99688,1.19665,0.91248
337.546,20.2485,-1.00918,1.20296,0.91202
338.246,20.26984,-1.02436,1.20791,0.91156
338.946,20.2911,-1.03682,1.21366,0.91111
339.646,20.3124,-1.05121,1.22034,0.91065
340.346,20.3337,-1.06351,1.22671,0.91019
341.046,20.35501,-1.0787,1.23255,0.90973
341.746,20.37639,-1.09138,1.24013,0.90927
342.446,20.3978,-1.10559,1.24707,0.90881
343.146,20.4192,-1.11883,1.2564,0.90835
343.846,20.44059,-1.13316,1.26107,0.90789
344.546,20.46201,-1.14787,1.26892,0.90743
345.246,20.48337,-1.16188,1.27816,0.90697
345.946,20.50478,-1.17648,1.28568,0.90651
346.646,20.5262,-1.1895,1.29549,0.90605
347.346,20.54757,-1.20528,1.30196,0.90559
348.046,20.56899,-1.21826,1.31225,0.90513
348.746,20.59044,-1.2347,1.32234,0.90467
349.446,20.6118,-1.24929,1.33112,0.90421
350.146,20.6332,-1.26622,1.34366,0.90375
350.846,20.65465,-1.2801,1.35293,0.90329
351.546,20.67606,-1.29642,1.36547,0.90282
352.246,20.6975,-1.3104,1.37314,0.90236
352.946,20.719,-1.32606,1.38623,0.9019
353.646,20.74045,-1.34152,1.39846,0.90144
354.346,20.7619,-1.35713,1.41253,0.90097
355.046,20.78339,-1.37346,1.42333,0.90051
355.746,20.8049,-1.38866,1.43505,0.90005
356.446,20.82641,-1.40593,1.45176,0.89958
357.146,20.84791,-1.42063,1.46395,0.89912
357.846,20.8694,-1.43924,1.47854,0.89866
358.546,20.89086,-1.45433,1.49281,0.89819
359.246,20.9124,-1.47248,1.50842,0.89773
359.946,20.9339,-1.4871,1.5234,0.89726
360.646,20.9554,-1.50554,1.54182,0.8968
361.346,20.97695,-1.52184,1.55881,0.89633
362.046,20.99847,-1.54017,1.57815,0.89587
362.746,21.02003,-1.55779,1.59779,0.8954
363.446,21.04156,-1.57635,1.6144,0.89494
364.146,21.06312,-1.59554,1.63759,0.89447
364.846,21.08468,-1.61344,1.65586,0.89401
365.546,21.10626,-1.63404,1.67532,0.89354
366.246,21.1279,-1.65208,1.69652,0.89308
366.946,21.14944,-1.67381,1.72087,0.89261
367.646,21.17098,-1.69168,1.74295,0.89214
368.346,21.1925,-1.71396,1.76776,0.89168
369.046,21.21405,-1.73312,1.79217,0.89121
369.746,21.23566,-1.75606,1.81473,0.89074
370.446,21.2573,-1.77605,1.84124,0.89027
371.146,21.27896,-1.79844,1.86856,0.88981
371.846,21.30059,-1.82019,1.89668,0.88934
372.546,21.32225,-1.84233,1.92339,0.88887
373.246,21.3439,-1.86619,1.94995,0.8884
373.946,21.36551,-1.88775,1.97795,0.88794
374.646,21.38716,-1.91322,2.00394,0.88747
375.346,21.40883,-1.93502,2.03021,0.887
376.046,21.43046,-1.96296,2.05694,0.88653
376.746,21.45213,-1.98548,2.08181,0.88606
377.446,21.47381,-2.01226,2.10877,0.88559
378.146,21.49549,-2.03515,2.13585,0.88512
378.846,21.5172,-2.06301,2.16062,0.88465
379.546,21.53894,-2.08896,2.18195,0.88418
380.246,21.56062,-2.11647,2.20777,0.88371
380.946,21.58226,-2.14343,2.22688,0.88324
381.646,21.6039,-2.16939,2.24676,0.88277
382.346,21.62561,-2.19849,2.26351,0.8823
383.046,21.64732,-2.22314,2.2783,0.88183
383.746,21.66903,-2.25308,2.29178,0.88136
384.446,21.69079,-2.27844,2.30301,0.88089
385.146,21.71251,-2.31054,2.31064,0.88042
385.846,21.73425,-2.33679,2.31111,0.87994
386.546,21.75597,-2.36753,2.31446,0.87947
387.246,21.77768,-2.39393,2.31015,0.879
387.946,21.79945,-2.42379,2.30346,0.87853
388.646,21.82116,-2.4522,2.29022,0.87806
389.346,21.84287,-2.48012,2.27236,0.87758
390.046,21.86465,-2.50978,2.25221,0.87711
390.746,21.88642,-2.53626,2.22343,0.87664
391.446,21.9082,-2.56712,2.19335,0.87617
392.146,21.92997,-2.59162,2.15354,0.87569
392.846,21.95164,-2.6217,2.10913,0.87522
393.546,21.97331,-2.64536,2.06142,0.87475
394.246,21.9951,-2.67334,2.0047,0.87427
394.946,22.0168,-2.69654,1.94438,0.8738
395.646,22.03855,-2.72178,1.87907,0.87332
396.346,22.06031,-2.74495,1.80761,0.87285
397.046,22.08195,-2.76755,1.73448,0.87238
397.746,22.1036,-2.79025,1.65543,0.8719
398.446,22.1253,-2.80996,1.56996,0.87143
399.146,22.14709,-2.83123,1.48161,0.87095
399.846,22.16881,-2.84738,1.39178,0.87048
400.546,22.1904,-2.86686,1.30108,0.87
401.246,22.21203,-2.88239,1.20431,0.86953
401.946,22.2336,-2.89969,1.11126,0.86905
402.646,22.25527,-2.91226,1.01671,0.86857
403.346,22.27686,-2.92589,0.92348,0.8681
404.046,22.2985,-2.93723,0.83096,0.86762
404.746,22.32013,-2.94819,0.74353,0.86715
405.446,22.34175,-2.95805,0.65159,0.86667
406.146,22.36355,-2.96689,0.57108,0.86619
406.846,22.3852,-2.97686,0.49188,0.86572
407.546,22.4068,-2.98389,0.41767,0.86524
408.246,22.42846,-2.99092,0.3463,0.86476
408.946,22.45006,-2.99575,0.28504,0.86428
409.646,22.47172,-3.00149,0.22629,0.86381
410.346,22.49342,-3.00571,0.17527,0.86333
411.046,22.5151,-3.01022,0.12954,0.86285
411.746,22.53677,-3.01388,0.08661116,0.86237
412.446,22.5584,-3.01716,0.05019057,0.86189
413.146,22.58008,-3.0201,0.01794782,0.86142
413.846,22.6018,-3.02231,-0.008652416,0.86094
414.546,22.62349,-3.02494,-0.03338336,0.86046
415.246,22.64518,-3.02733,-0.05746532,0.85998
415.946,22.66688,-3.02989,-0.07374642,0.8595
416.646,22.6886,-3.03292,-0.09131987,0.85902
417.346,22.71025,-3.03503,-0.10849,0.85854
418.046,22.73197,-3.0375,-0.11948,0.85806
418.746,22.75365,-3.03956,-0.13121,0.85758
419.446,22.77545,-3.04204,-0.1436,0.8571
420.146,22.79724,-3.04445,-0.1545,0.85662
420.846,22.81912,-3.04599,-0.16314,0.85614
421.546,22.84098,-3.04714,-0.17397,0.85566
422.246,22.86273,-3.04898,-0.18114,0.85518
422.946,22.8845,-3.05066,-0.18797,0.8547
423.646,22.90631,-3.05244,-0.19385,0.85422
424.346,22.92809,-3.05424,-0.20295,0.85374
425.046,22.9499,-3.05618,-0.20891,0.85326
425.746,22.97182,-3.05853,-0.21648,0.85277
426.446,22.9936,-3.05994,-0.22284,0.85229
427.146,23.01531,-3.06176,-0.22887,0.85181
427.846,23.03715,-3.06322,-0.23471,0.85133
428.546,23.05901,-3.06487,-0.2387,0.85085
429.246,23.08097,-3.06584,-0.24514,0.85036
429.946,23.10303,-3.06705,-0.25053,0.84988
430.646,23.125,-3.07023,-0.25558,0.8494
431.346,23.14686,-3.07247,-0.26096,0.84892
432.046,23.1688,-3.07461,-0.26431,0.84843
432.746,23.19069,-3.07676,-0.26867,0.84795
433.446,23.21255,-3.07924,-0.27183,0.84747
434.146,23.23447,-3.08121,-0.27343,0.84698
434.846,23.25631,-3.08212,-0.27745,0.8465
435.546,23.27821,-3.08349,-0.28395,0.84602
436.246,23.3002,-3.08503,-0.28692,0.84553
436.946,23.32212,-3.08642,-0.29099,0.84505
437.646,23.3441,-3.0879,-0.29392,0.84456
438.346,23.36605,-3.08983,-0.29328,0.84408
439.046,23.388,-3.09144,-0.29832,0.84359
439.746,23.41,-3.09303,-0.30149,0.84311
440.446,23.4319,-3.095,-0.30338,0.84262
441.146,23.45391,-3.09812,-0.30431,0.84214
441.846,23.47588,-3.09927,-0.30605,0.84165
442.546,23.4979,-3.10098,-0.30725,0.84117
443.246,23.51999,-3.1028,-0.30993,0.84068
443.946,23.54201,-3.10488,-0.31196,0.8402
444.646,23.56404,-3.10652,-0.31243,0.83971
445.346,23.586,-3.10812,-0.31235,0.83923
446.046,23.6081,-3.10981,-0.31614,0.83874
446.746,23.63005,-3.11168,-0.31397,0.83825
447.446,23.65214,-3.11321,-0.31363,0.83777
448.146,23.6742,-3.11463,-0.31656,0.83728
448.846,23.69621,-3.11623,-0.31554,0.83679
449.546,23.7183,-3.11753,-0.31282,0.83631
450.246,23.74036,-3.11907,-0.30998,0.83582
450.946,23.76245,-3.12078,-0.31275,0.83533
451.646,23.7846,-3.12218,-0.31078,0.83485
452.346,23.80668,-3.12409,-0.31022,0.83436
453.046,23.8288,-3.12555,-0.30614,0.83387
453.746,23.85087,-3.12635,-0.30349,0.83338
454.446,23.87288,-3.12737,-0.30416,0.83289
455.146,23.89494,-3.12872,-0.30083,0.83241
455.846,23.91702,-3.13054,-0.29955,0.83192
456.546,23.93917,-3.13134,-0.29769,0.83143
457.246,23.96128,-3.1319,-0.29515,0.83094
457.946,23.9834,-3.13345,-0.29184,0.83045
458.646,24.00552,-3.13543,-0.28869,0.82996
459.346,24.02763,-3.13719,-0.28526,0.82947
460.046,24.04982,-3.13887,-0.28222,0.82898
460.746,24.07196,-3.14064,-0.27973,0.8285
461.446,24.0941,-3.14138,-0.27813,0.82801
462.146,24.1162,-3.14182,-0.27493,0.82752
462.846,24.1383,-3.14367,-0.27201,0.82703
463.546,24.1605,-3.14527,-0.26591,0.82654
464.246,24.18262,-3.1462,-0.26197,0.82605
464.946,24.20484,-3.14794,-0.26002,0.82556
465.646,24.22705,-3.14958,-0.25465,0.82507
466.346,24.24925,-3.15081,-0.25438,0.82457
467.046,24.27149,-3.15224,-0.24756,0.82408
467.746,24.29372,-3.1536,-0.24454,0.82359
468.446,24.316,-3.15512,-0.23966,0.8231
469.146,24.33822,-3.15682,-0.23693,0.82261
469.846,24.36041,-3.1578,-0.23431,0.82212
470.546,24.38263,-3.15895,-0.22888,0.82163
471.246,24.40478,-3.16047,-0.22789,0.82114
471.946,24.42697,-3.16175,-0.22203,0.82064
472.646,24.44924,-3.16217,-0.21627,0.82015
473.346,24.47147,-3.16341,-0.21404,0.81966
474.046,24.49375,-3.16441,-0.21047,0.81917
474.746,24.516,-3.16476,-0.20755,0.81868
475.446,24.53829,-3.16614,-0.20422,0.81818
476.146,24.5606,-3.16634,-0.19942,0.81769
476.846,24.58286,-3.16771,-0.19421,0.8172
477.546,24.60513,-3.17062,-0.19142,0.81671
478.246,24.62735,-3.17229,-0.19204,0.81621
478.946,24.64963,-3.17274,-0.1846,0.81572
479.646,24.67194,-3.17396,-0.18312,0.81523
480.346,24.6943,-3.17566,-0.17758,0.81473
481.046,24.71667,-3.17618,-0.17605,0.81424
481.746,24.73899,-3.17684,-0.17643,0.81374
482.446,24.76131,-3.17821,-0.16789,0.81325
483.146,24.78358,-3.17833,-0.16655,0.81276
483.846,24.80585,-3.17952,-0.16428,0.81226
484.546,24.8281,-3.17995,-0.16009,0.81177
485.246,24.85037,-3.18102,-0.16195,0.81127
485.946,24.87278,-3.1825,-0.15559,0.81078
486.646,24.89501,-3.1838,-0.15016,0.81028
487.346,24.91731,-3.18386,-0.15017,0.80979
488.046,24.93972,-3.18537,-0.14831,0.80929
488.746,24.96203,-3.18547,-0.14314,0.8088
489.446,24.98451,-3.18703,-0.14293,0.8083
490.146,25.0069,-3.18767,-0.13995,0.80781
490.846,25.02923,-3.18846,-0.13968,0.80731
491.546,25.05161,-3.18985,-0.13585,0.80682
492.246,25.07401,-3.18983,-0.13409,0.80632
492.946,25.09647,-3.19116,-0.13018,0.80583
493.646,25.11885,-3.19106,-0.12965,0.80533
494.346,25.1412,-3.19244,-0.12954,0.80483
495.046,25.1635,-3.19321,-0.12695,0.80434
495.746,25.18585,-3.1941,-0.12343,0.80384
496.446,25.2082,-3.19563,-0.1224,0.80334
497.146,25.23065,-3.19559,-0.12263,0.80285
497.846,25.25311,-3.19553,-0.119,0.80235
498.546,25.2756,-3.19686,-0.11848,0.80185
499.246,25.298,-3.1971,-0.11636,0.80135
499.946,25.3204,-3.19947,-0.11548,0.80086
500.646,25.34284,-3.20146,-0.11431,0.80036
501.346,25.36524,-3.20229,-0.11307,0.79986
502.046,25.3877,-3.20271,-0.11283,0.79936
502.746,25.4101,-3.20272,-0.10958,0.79887
503.446,25.4326,-3.20292,-0.10965,0.79837
504.146,25.455,-3.20405,-0.10801,0.79787
504.846,25.47749,-3.20447,-0.11018,0.79737
505.546,25.49991,-3.20546,-0.10677,0.79687
506.246,25.52233,-3.20662,-0.1042,0.79637
506.946,25.5448,-3.20712,-0.10778,0.79588
507.646,25.56727,-3.20836,-0.10487,0.79538
508.346,25.58979,-3.20895,-0.10469,0.79488
509.046,25.61231,-3.20962,-0.10302,0.79438
509.746,25.63469,-3.20987,-0.10451,0.79388
510.446,25.65718,-3.21098,-0.09953405,0.79338
511.146,25.67965,-3.21157,-0.10116,0.79288
511.846,25.70199,-3.21244,-0.10045,0.79238
512.546,25.72459,-3.21355,-0.09920256,0.79188
513.246,25.74707,-3.21384,-0.09838573,0.79138
513.946,25.76954,-3.21521,-0.09713309,0.79088
514.646,25.79216,-3.21518,-0.09767935,0.79038
515.346,25.8147,-3.21651,-0.09650207,0.78988
516.046,25.8372,-3.2166,-0.09633637,0.78938
516.746,25.85966,-3.21795,-0.0960973,0.78888
517.446,25.88211,-3.219,-0.09598857,0.78838
518.146,25.90455,-3.21897,-0.09502914,0.78788
518.846,25.927,-3.21937,-0.09677361,0.78738
519.546,25.9496,-3.22028,-0.09680112,0.78688
520.246,25.97212,-3.22111,-0.09787598,0.78638
520.946,25.9946,-3.22174,-0.09456737,0.78587
521.646,26.01718,-3.22261,-0.09368782,0.78537
522.346,26.03975,-3.22323,-0.09047576,0.78487
523.046,26.06232,-3.22408,-0.09256619,0.78437
523.746,26.08485,-3.22453,-0.08936966,0.78387
524.446,26.10739,-3.22565,-0.0883852,0.78337
525.146,26.1299,-3.22586,-0.09172717,0.78286
525.846,26.15243,-3.22643,-0.09233703,0.78236
526.546,26.17503,-3.22715,-0.08994733,0.78186
527.246,26.19763,-3.2284,-0.08866477,0.78136
527.946,26.22018,-3.22826,-0.09049383,0.78085
528.646,26.2427,-3.22847,-0.0907256,0.78035
529.346,26.2652,-3.2286,-0.08899292,0.77985
530.046,26.2878,-3.22878,-0.08642116,0.77934
530.746,26.3103,-3.22992,-0.08397559,0.77884
531.446,26.33292,-3.2299,-0.08331886,0.77834
532.146,26.35551,-3.23156,-0.08488767,0.77783
532.846,26.3781,-3.2322,-0.08152332,0.77733
533.546,26.4007,-3.23357,-0.07985809,0.77683
534.246,26.42323,-3.23354,-0.07881436,0.77632
534.946,26.4458,-3.23344,-0.07708106,0.77582
535.646,26.46838,-3.23484,-0.07384738,0.77532
536.346,26.49098,-3.23496,-0.07268422,0.77481
537.046,26.51357,-3.23613,-0.07352897,0.77431
537.746,26.53616,-3.23627,-0.06949993,0.7738
538.446,26.5588,-3.23751,-0.0689189,0.7733
539.146,26.5814,-3.23748,-0.06789645,0.77279
539.846,26.60398,-3.23847,-0.06733259,0.77229
540.546,26.6266,-3.2388,-0.06786361,0.77178
541.246,26.6492,-3.2394,-0.06919808,0.77128
541.946,26.6718,-3.24011,-0.06639743,0.77077
542.646,26.69443,-3.24012,-0.06557008,0.77027
543.346,26.71712,-3.24014,-0.06617773,0.76976
544.046,26.73974,-3.24109,-0.06189975,0.76926
544.746,26.76248,-3.24144,-0.06417944,0.76875
545.446,26.78515,-3.24143,-0.06564685,0.76825
546.146,26.8077,-3.24255,-0.06013967,0.76774
546.846,26.8304,-3.24308,-0.06324866,0.76724
547.546,26.85308,-3.24462,-0.06082313,0.76673
548.246,26.8757,-3.2446,-0.06229923,0.76622
548.946,26.89841,-3.24586,-0.06126655,0.76572
549.646,26.92115,-3.24587,-0.06401593,0.76521
550.346,26.9438,-3.24719,-0.06136085,0.7647
551.046,26.9665,-3.24714,-0.06185395,0.7642
551.746,26.98919,-3.24715,-0.06005087,0.76369
552.446,27.01183,-3.24792,-0.06200539,0.76318
553.146,27.03453,-3.24969,-0.06138392,0.76268
553.846,27.0572,-3.24978,-0.06162912,0.76217
554.546,27.07988,-3.24978,-0.06299552,0.76166
555.246,27.10257,-3.24989,-0.06216256,0.76116
555.946,27.12525,-3.25128,-0.06138262,0.76065
556.646,27.148,-3.252,-0.06053696,0.76014
557.346,27.17073,-3.25252,-0.06426945,0.75963
558.046,27.1935,-3.25321,-0.06368727,0.75912
558.746,27.2162,-3.25382,-0.06484055,0.75862
559.446,27.23895,-3.25409,-0.06306939,0.75811
560.146,27.26168,-3.25513,-0.06386721,0.7576
560.846,27.2844,-3.25529,-0.06311696,0.75709
561.546,27.3072,-3.25549,-0.06375823,0.75658
562.246,27.3299,-3.25613,-0.06444459,0.75608
562.946,27.35262,-3.2568,-0.06306201,0.75557
563.646,27.3754,-3.25729,-0.06336226,0.75506
564.346,27.3982,-3.25809,-0.06645339,0.75455
565.046,27.42097,-3.25842,-0.06704205,0.75404
565.746,27.4438,-3.25965,-0.06815628,0.75353
566.446,27.46655,-3.25976,-0.06567153,0.75302
567.146,27.4892,-3.25976,-0.06631177,0.75251
567.846,27.51199,-3.25994,-0.07146267,0.752
568.546,27.5347,-3.26213,-0.0707028,0.75149
569.246,27.55745,-3.26222,-0.07155888,0.75098
569.946,27.5803,-3.26338,-0.07191047,0.75047
570.646,27.60306,-3.26339,-0.07351109,0.74996
571.346,27.6259,-3.26371,-0.07773191,0.74945
572.046,27.64879,-3.26471,-0.07877233,0.74894
572.746,27.6716,-3.26471,-0.08072305,0.74843
573.446,27.6944,-3.26412,-0.08036638,0.74792
574.146,27.7171,-3.26488,-0.08152045,0.74741
574.846,27.7399,-3.26578,-0.08657499,0.7469
575.546,27.76264,-3.26611,-0.08753087,0.74639
576.246,27.78544,-3.26793,-0.09085681,0.74588
576.946,27.8083,-3.26873,-0.08841598,0.74537
577.646,27.8312,-3.26875,-0.09209087,0.74486
578.346,27.8541,-3.26874,-0.09459234,0.74435
579.046,27.8769,-3.26848,-0.09299352,0.74384
579.746,27.8997,-3.26875,-0.09625953,0.74333
580.446,27.9225,-3.26875,-0.09936884,0.74282
581.146,27.94528,-3.26868,-0.09778723,0.7423
581.846,27.96818,-3.27088,-0.09900828,0.74179
582.546,27.99101,-3.27139,-0.09767788,0.74128
583.246,28.01387,-3.27143,-0.10163,0.74077
583.946,28.03671,-3.27277,-0.10394,0.74026
584.646,28.05953,-3.27271,-0.10609,0.73974
585.346,28.08241,-3.27385,-0.10731,0.73923
586.046,28.10528,-3.27398,-0.10696,0.73872
586.746,28.1282,-3.27577,-0.10758,0.73821
587.446,28.151,-3.27664,-0.10825,0.7377
588.146,28.17398,-3.27665,-0.11151,0.73718
588.846,28.1968,-3.27666,-0.10992,0.73667
589.546,28.21974,-3.27728,-0.11106,0.73616
590.246,28.24263,-3.27702,-0.11329,0.73564
590.946,28.26545,-3.27798,-0.11449,0.73513
591.646,28.2884,-3.27801,-0.11688,0.73462
592.346,28.31131,-3.2794,-0.11556,0.73411
593.046,28.33427,-3.2796,-0.11682,0.73359
593.746,28.35721,-3.28074,-0.11797,0.73308
594.446,28.38007,-3.28071,-0.11721,0.73257
595.146,28.40294,-3.28071,-0.12196,0.73205
595.846,28.42592,-3.2808,-0.12402,0.73154
596.546,28.44882,-3.28205,-0.12589,0.73102
597.246,28.4718,-3.28203,-0.12687,0.73051
597.946,28.4947,-3.28227,-0.12358,0.73
598.646,28.51762,-3.28336,-0.12269,0.72948
599.346,28.5406,-3.28334,-0.12398,0.72897
600.046,28.56359,-3.28335,-0.12434,0.72845
600.746,28.58656,-3.2837,-0.12807,0.72794
601.446,28.6094,-3.28562,-0.12765,0.72742
602.146,28.6323,-3.28564,-0.13252,0.72691
602.846,28.65529,-3.28567,-0.13317,0.7264
603.546,28.67822,-3.28646,-0.13256,0.72588
604.246,28.70115,-3.28696,-0.13525,0.72537
604.946,28.72407,-3.28716,-0.13284,0.72485
605.646,28.747,-3.2883,-0.13468,0.72434
606.346,28.7697,-3.28827,-0.13465,0.72382
607.046,28.79263,-3.28822,-0.13527,0.7233
607.746,28.8155,-3.28954,-0.13673,0.72279
608.446,28.83847,-3.28959,-0.13962,0.72227
609.146,28.86165,-3.28822,-0.14147,0.72176
609.846,28.8846,-3.28967,-0.14012,0.72124
610.546,28.9077,-3.28951,-0.14136,0.72073
611.246,28.9307,-3.2909,-0.14456,0.72021
611.946,28.9536,-3.29107,-0.14492,0.7197
612.646,28.9766,-3.29226,-0.1485,0.71918
613.346,28.9995,-3.29222,-0.14891,0.71866
614.046,29.0224,-3.29217,-0.14743,0.71815
614.746,29.0454,-3.29348,-0.15136,0.71763
615.446,29.06839,-3.29354,-0.15129,0.71711
616.146,29.09135,-3.29353,-0.15236,0.7166
616.846,29.11437,-3.29454,-0.15228,0.71608
617.546,29.13735,-3.29484,-0.15212,0.71556
618.246,29.1604,-3.29485,-0.15243,0.71505
618.946,29.18327,-3.2947,-0.15715,0.71453
619.646,29.20617,-3.2936,-0.1551,0.71401
620.346,29.22915,-3.29487,-0.15368,0.7135
621.046,29.2521,-3.29503,-0.15918,0.71298
621.746,29.27522,-3.29758,-0.15836,0.71246
622.446,29.2982,-3.29749,-0.15525,0.71194
623.146,29.3211,-3.29749,-0.15891,0.71143
623.846,29.3441,-3.29741,-0.16235,0.71091
624.546,29.3671,-3.29878,-0.16007,0.71039
625.246,29.3902,-3.2988,-0.15976,0.70987
625.946,29.4132,-3.29999,-0.16121,0.70936
626.646,29.4363,-3.30012,-0.16196,0.70884
627.346,29.4593,-3.30012,-0.16508,0.70832
628.046,29.4823,-3.30004,-0.16781,0.7078
628.746,29.5054,-3.30016,-0.16739,0.70728
629.446,29.52842,-3.30012,-0.16722,0.70677
630.146,29.5515,-3.30012,-0.1646,0.70625
630.846,29.5745,-3.30014,-0.16252,0.70573
631.546,29.5975,-3.30184,-0.16657,0.70521
632.246,29.6206,-3.30177,-0.16777,0.70469
632.946,29.64358,-3.30377,-0.16811,0.70417
633.646,29.6667,-3.30406,-0.17055,0.70365
634.346,29.68982,-3.30407,-0.17112,0.70313
635.046,29.71286,-3.30408,-0.17267,0.70262
635.746,29.73599,-3.3044,-0.17494,0.7021
636.446,29.7591,-3.30539,-0.17851,0.70158
637.146,29.78215,-3.30538,-0.17753,0.70106
637.846,29.80524,-3.3054,-0.17968,0.70054
638.546,29.82827,-3.30621,-0.17862,0.70002
639.246,29.8513,-3.3067,-0.18079,0.6995
639.946,29.87435,-3.30606,-0.18316,0.69898
640.646,29.89736,-3.30572,-0.18309,0.69846
641.346,29.9205,-3.30707,-0.18313,0.69794
642.046,29.9436,-3.30705,-0.18194,0.69742
642.746,29.96673,-3.30704,-0.18203,0.6969
643.446,29.98988,-3.30704,-0.18358,0.69638
644.146,30.01298,-3.30832,-0.18548,0.69586
644.846,30.03606,-3.30954,-0.18315,0.69534
645.546,30.05909,-3.30961,-0.18627,0.69482
646.246,30.08223,-3.31099,-0.18676,0.6943
646.946,30.10531,-3.31097,-0.187,0.69378
647.646,30.1285,-3.31091,-0.18709,0.69326
648.346,30.1514,-3.31229,-0.18936,0.69274
649.046,30.1744,-3.31231,-0.18984,0.69222
649.746,30.19752,-3.31304,-0.18847,0.6917
650.446,30.2205,-3.31361,-0.18926,0.69118
651.146,30.2439,-3.31361,-0.19158,0.69066
651.846,30.26695,-3.31361,-0.19058,0.69013
652.546,30.29001,-3.31361,-0.18864,0.68961
653.246,30.31314,-3.31502,-0.19161,0.68909
653.946,30.33622,-3.31494,-0.19165,0.68857
654.646,30.3594,-3.31493,-0.1917,0.68805
655.346,30.3826,-3.31493,-0.19409,0.68753
656.046,30.40573,-3.31493,-0.19217,0.68701
656.746,30.42884,-3.31493,-0.19324,0.68648
657.446,30.45192,-3.31544,-0.19384,0.68596
658.146,30.475,-3.31631,-0.19479,0.68544
658.846,30.49813,-3.31494,-0.19673,0.68492
659.546,30.5212,-3.31493,-0.1967,0.6844
660.246,30.5443,-3.31485,-0.19669,0.68388
660.946,30.56748,-3.31623,-0.1968,0.68335
661.646,30.5906,-3.31625,-0.1979,0.68283
662.346,30.6137,-3.31625,-0.19723,0.68231
663.046,30.63683,-3.31626,-0.19511,0.68179
663.746,30.65995,-3.3169,-0.1959,0.68126
664.446,30.68305,-3.31755,-0.19696,0.68074
665.146,30.7062,-3.31766,-0.19521,0.68022
665.846,30.72928,-3.31889,-0.1993,0.6797
666.546,30.7524,-3.31888,-0.19602,0.67917
667.246,30.7756,-3.31889,-0.19737,0.67865
667.946,30.7987,-3.31915,-0.19959,0.67813
668.646,30.8219,-3.31952,-0.2003,0.67761
669.346,30.84497,-3.31948,-0.19969,0.67708
670.046,30.8681,-3.32077,-0.19668,0.67656
670.746,30.89126,-3.32085,-0.1957,0.67604
671.446,30.9144,-3.32085,-0.19183,0.67551
672.146,30.93755,-3.32085,-0.19404,0.67499
672.846,30.96075,-3.32085,-0.19512,0.67447
673.546,30.98385,-3.32085,-0.1976,0.67394
674.246,31.007,-3.32085,-0.19419,0.67342
674.946,31.0302,-3.32085,-0.19503,0.6729
675.646,31.05335,-3.32178,-0.19579,0.67237
676.346,31.0766,-3.32213,-0.19536,0.67185
677.046,31.0997,-3.32183,-0.19744,0.67133
677.746,31.1228,-3.3228,-0.19349,0.6708
678.446,31.14595,-3.32283,-0.19437,0.67028
679.146,31.16907,-3.32309,-0.1963,0.66975
679.846,31.19224,-3.32413,-0.19564,0.66923
680.546,31.21541,-3.32415,-0.19369,0.66871
681.246,31.2386,-3.32415,-0.19688,0.66818
681.946,31.26175,-3.32415,-0.19545,0.66766
682.646,31.2849,-3.32415,-0.19289,0.66713
683.346,31.3081,-3.32415,-0.19743,0.66661
684.046,31.33127,-3.32413,-0.1937,0.66609
684.746,31.35448,-3.32538,-0.1923,0.66556
685.446,31.3777,-3.32546,-0.19301,0.66504
686.146,31.40087,-3.32546,-0.18699,0.66451
686.846,31.42407,-3.32533,-0.1923,0.66399
687.546,31.44725,-3.32514,-0.1914,0.66346
688.246,31.4704,-3.32511,-0.19062,0.66294
688.946,31.4936,-3.32429,-0.19106,0.66241
689.646,31.51675,-3.32549,-0.18848,0.66189
690.346,31.53994,-3.32546,-0.1902,0.66136
691.046,31.56315,-3.32551,-0.19156,0.66084
691.746,31.58626,-3.3265,-0.1909,0.66031
692.446,31.6094,-3.32645,-0.19068,0.65979
693.146,31.6326,-3.32645,-0.18975,0.65926
693.846,31.65575,-3.32654,-0.19085,0.65874
694.546,31.67902,-3.32778,-0.18848,0.65821
695.246,31.7022,-3.32793,-0.1869,0.65769
695.946,31.7254,-3.32908,-0.18872,0.65716
696.646,31.7486,-3.32902,-0.19136,0.65664
697.346,31.77167,-3.3304,-0.18829,0.65611
698.046,31.79481,-3.3304,-0.19058,0.65558
698.746,31.81799,-3.3304,-0.18751,0.65506
699.446,31.8412,-3.3304,-0.18657,0.65453
700.146,31.86447,-3.3304,-0.1908,0.65401
700.846,31.88772,-3.33036,-0.19122,0.65348
701.546,31.9109,-3.33173,-0.19071,0.65295
702.246,31.93402,-3.33171,-0.1897,0.65243
702.946,31.9573,-3.33171,-0.18819,0.6519
703.646,31.98045,-3.33171,-0.19116,0.65138
704.346,32.00371,-3.33171,-0.18802,0.65085
705.046,32.027,-3.33171,-0.18687,0.65032
705.746,32.0503,-3.33171,-0.1869,0.6498
706.446,32.07347,-3.33171,-0.18596,0.64927
707.146,32.0967,-3.33172,-0.18637,0.64875
707.846,32.11999,-3.33237,-0.18363,0.64822
708.546,32.14325,-3.33302,-0.18453,0.64769
709.246,32.16653,-3.33304,-0.18254,0.64717
709.946,32.18977,-3.33367,-0.18231,0.64664
710.646,32.21301,-3.33434,-0.1828,0.64611
711.346,32.2363,-3.33435,-0.18329,0.64559
712.046,32.25954,-3.33435,-0.18477,0.64506
712.746,32.28281,-3.33413,-0.18453,0.64453
713.446,32.3061,-3.33477,-0.18326,0.64401
714.146,32.32931,-3.33467,-0.18013,0.64348
714.846,32.3526,-3.33467,-0.17971,0.64295
715.546,32.37592,-3.33467,-0.17757,0.64242
716.246,32.39921,-3.33467,-0.18147,0.6419
716.946,32.42244,-3.33462,-0.18323,0.64137
717.646,32.44574,-3.33594,-0.17833,0.64084
718.346,32.469,-3.33599,-0.17958,0.64032
719.046,32.49225,-3.33599,-0.1781,0.63979
719.746,32.51555,-3.33599,-0.17757,0.63926
720.446,32.5388,-3.33599,-0.17836,0.63873
721.146,32.56211,-3.33599,-0.1754,0.63821
721.846,32.58543,-3.33599,-0.17821,0.63768
722.546,32.60884,-3.33599,-0.17413,0.63715
723.246,32.63214,-3.33599,-0.17736,0.63662
723.946,32.65547,-3.33598,-0.17619,0.6361
724.646,32.6788,-3.33722,-0.17632,0.63557
725.346,32.70207,-3.33731,-0.18237,0.63504
726.046,32.7254,-3.3373,-0.1757,0.63451
726.746,32.74878,-3.3373,-0.18098,0.63399
727.446,32.7722,-3.3373,-0.18192,0.63346
728.146,32.79562,-3.33729,-0.18067,0.63293
728.846,32.81901,-3.33855,-0.17884,0.6324
729.546,32.84238,-3.33863,-0.18072,0.63187
730.246,32.86575,-3.33862,-0.17939,0.63135
730.946,32.88912,-3.33862,-0.17946,0.63082
731.646,32.9125,-3.33856,-0.17949,0.63029
732.346,32.9358,-3.33862,-0.17538,0.62976
733.046,32.9591,-3.33962,-0.17489,0.62923
733.746,32.98252,-3.33941,-0.1805,0.6287
734.446,33.00589,-3.33823,-0.17829,0.62818
735.146,33.02932,-3.33958,-0.18504,0.62765
735.846,33.05276,-3.3396,-0.18277,0.62712
736.546,33.07614,-3.3396,-0.18213,0.62659
737.246,33.09955,-3.33958,-0.17817,0.62606
737.946,33.12293,-3.34018,-0.18447,0.62553
738.646,33.14635,-3.34154,-0.17929,0.62501
739.346,33.16979,-3.34158,-0.17683,0.62448
740.046,33.19301,-3.34158,-0.18174,0.62395
740.746,33.2163,-3.34158,-0.181,0.62342
741.446,33.2397,-3.34158,-0.18358,0.62289
742.146,33.2631,-3.34067,-0.18262,0.62236
742.846,33.28663,-3.34028,-0.17861,0.62183
743.546,33.3101,-3.34027,-0.18436,0.62131
744.246,33.33355,-3.34027,-0.18044,0.62078
744.946,33.357,-3.34027,-0.17744,0.62025
745.646,33.38042,-3.34027,-0.17599,0.61972
746.346,33.40384,-3.34029,-0.17803,0.61919
747.046,33.42725,-3.34099,-0.17747,0.61866
747.746,33.45066,-3.34159,-0.17456,0.61813
748.446,33.47408,-3.34159,-0.17552,0.6176
749.146,33.49753,-3.34161,-0.17588,0.61707
749.846,33.52097,-3.34264,-0.1766,0.61655
750.546,33.54441,-3.3429,-0.17388,0.61602
751.246,33.56778,-3.3429,-0.17303,0.61549
751.946,33.5912,-3.3429,-0.17261,0.61496
752.646,33.61462,-3.3429,-0.17258,0.61443
753.346,33.63805,-3.34309,-0.17606,0.6139
754.046,33.66146,-3.3442,-0.17313,0.61337
754.746,33.68488,-3.34421,-0.17575,0.61284
755.446,33.7083,-3.34399,-0.16794,0.61231
756.146,33.73169,-3.34324,-0.17085,0.61178
756.846,33.75516,-3.34324,-0.17009,0.61125
757.546,33.77859,-3.34377,-0.17034,0.61072
758.246,33.802,-3.34453,-0.16753,0.61019
758.946,33.82545,-3.34454,-0.16611,0.60966
759.646,33.84884,-3.34454,-0.16715,0.60914
760.346,33.87226,-3.34454,-0.16822,0.60861
761.046,33.89566,-3.34449,-0.16567,0.60808
761.746,33.9191,-3.34583,-0.16047,0.60755
762.446,33.94249,-3.34586,-0.16272,0.60702
763.146,33.96597,-3.34586,-0.16591,0.60649
763.846,33.98946,-3.34586,-0.16526,0.60596
764.546,34.01298,-3.34586,-0.16138,0.60543
765.246,34.03644,-3.34586,-0.16554,0.6049
765.946,34.0599,-3.34618,-0.16592,0.60437
766.646,34.08335,-3.34715,-0.16351,0.60384
767.346,34.1068,-3.34718,-0.16427,0.60331
768.046,34.13024,-3.34718,-0.1623,0.60278
768.746,34.15367,-3.34822,-0.16781,0.60225
769.446,34.17715,-3.34821,-0.16649,0.60172
770.146,34.2006,-3.34682,-0.16496,0.60119
770.846,34.22405,-3.34684,-0.16173,0.60066
771.546,34.24753,-3.34684,-0.16484,0.60013
772.246,34.271,-3.34684,-0.16354,0.5996
772.946,34.2945,-3.34682,-0.16115,0.59907
773.646,34.31797,-3.34605,-0.16125,0.59854
774.346,34.34146,-3.346,-0.16101,0.59801
775.046,34.36492,-3.34677,-0.16049,0.59748
775.746,34.38836,-3.34803,-0.16501,0.59695
776.446,34.41186,-3.34949,-0.16612,0.59642
777.146,34.43527,-3.34948,-0.16061,0.59589
777.846,34.45882,-3.34949,-0.15888,0.59536
778.546,34.4823,-3.35033,-0.16517,0.59483
779.246,34.50575,-3.35079,-0.16421,0.5943
779.946,34.52932,-3.3508,-0.16314,0.59377
780.646,34.55277,-3.35075,-0.15878,0.59324
781.346,34.57626,-3.35219,-0.16148,0.59271
782.046,34.59983,-3.35091,-0.1612,0.59218
782.746,34.6233,-3.35091,-0.16106,0.59165
783.446,34.64676,-3.3513,-0.162,0.59112
784.146,34.67024,-3.35222,-0.16033,0.59059
784.846,34.6937,-3.35222,-0.15863,0.59006
785.546,34.71717,-3.35221,-0.16096,0.58953
786.246,34.74073,-3.35357,-0.16012,0.589
786.946,34.76423,-3.35354,-0.15527,0.58847
787.646,34.7877,-3.35356,-0.15653,0.58794
788.346,34.8112,-3.35458,-0.1565,0.58741
789.046,34.8346,-3.35453,-0.1546,0.58688
789.746,34.8581,-3.35452,-0.15674,0.58635
790.446,34.88162,-3.35452,-0.15734,0.58582
791.146,34.9051,-3.35445,-0.15935,0.58529
791.846,34.92869,-3.35319,-0.15416,0.58476
792.546,34.9522,-3.35322,-0.15604,0.58423
793.246,34.97578,-3.35376,-0.15803,0.5837
793.946,34.9993,-3.35453,-0.15691,0.58317