File: 01_Data/Pallet_Wood/STA/N2/30K_min/Pallet_Wood_STA_N2_30KData_220414_R3.csv
##Temp./Â°C,Time/min,Mass loss(subtr.2)/mg,DSC(subtr.2)/(mW/mg),Sensit./(uV/mW)
48.503,10.01,-0.01459,0.01929045,1.07506
49.203,10.5544,-0.01531411,0.06271368,1.07475
49.903,10.68413,-0.01462566,0.10481,1.07444
50.603,10.77438,-0.01368577,0.14043,1.07413
51.303,10.84833,-0.01465024,0.17234,1.07382
52.003,10.9116,-0.01651692,0.19933,1.07351
52.703,10.9682,-0.014926,0.22711,1.0732
53.403,11.0199,-0.01459642,0.25248,1.07289
54.103,11.06787,-0.01295106,0.27584,1.07257
54.803,11.1128,-0.01408342,0.29612,1.07226
55.503,11.1556,-0.01305997,0.32137,1.07195
56.203,11.19663,-0.01289653,0.33962,1.07164
56.903,11.23541,-0.01369899,0.35741,1.07132
57.603,11.27282,-0.01425959,0.37749,1.07101
58.303,11.30919,-0.01425108,0.39476,1.07069
59.003,11.34496,-0.01335585,0.41288,1.07038
59.703,11.379,-0.01350504,0.43034,1.07006
60.403,11.41257,-0.01406883,0.44765,1.06974
61.103,11.44497,-0.01441532,0.46154,1.06942
61.803,11.47712,-0.01419792,0.47787,1.06911
62.503,11.50869,-0.0136006,0.49253,1.06879
63.203,11.5397,-0.01532926,0.5084,1.06847
63.903,11.57013,-0.01546697,0.5225,1.06815
64.603,11.60013,-0.0148089,0.53655,1.06783
65.303,11.6296,-0.01403985,0.54741,1.06751
66.003,11.6587,-0.01422694,0.56198,1.06719
66.703,11.68752,-0.01434712,0.57607,1.06687
67.403,11.71622,-0.01514442,0.58524,1.06654
68.103,11.7445,-0.01584568,0.5991,1.06622
68.803,11.7722,-0.0154435,0.61283,1.0659
69.503,11.7998,-0.01556721,0.62464,1.06557
70.203,11.82714,-0.01596133,0.63571,1.06525
70.903,11.8546,-0.01617094,0.64707,1.06492
71.603,11.8816,-0.01661361,0.65908,1.0646
72.303,11.90857,-0.01714456,0.66976,1.06427
73.003,11.9351,-0.01690653,0.6812,1.06395
73.703,11.96162,-0.01704067,0.69072,1.06362
74.403,11.98798,-0.01576107,0.69912,1.06329
75.103,12.01425,-0.01539873,0.70929,1.06296
75.803,12.04037,-0.01598166,0.71768,1.06263
76.503,12.06628,-0.01647259,0.73112,1.06231
77.203,12.0921,-0.01710423,0.7406,1.06198
77.903,12.1178,-0.01719721,0.75105,1.06165
78.603,12.14334,-0.01672603,0.76067,1.06132
79.303,12.16879,-0.01619926,0.76952,1.06098
80.003,12.19413,-0.01670265,0.77836,1.06065
80.703,12.21947,-0.01721689,0.78858,1.06032
81.403,12.24467,-0.01766014,0.79915,1.05999
82.103,12.2698,-0.01731515,0.80739,1.05965
82.803,12.29481,-0.01729657,0.81689,1.05932
83.503,12.31967,-0.01886638,0.82505,1.05899
84.203,12.34442,-0.01742376,0.8338,1.05865
84.903,12.3691,-0.01908001,0.84192,1.05832
85.603,12.39365,-0.01979523,0.8527,1.05798
86.303,12.41811,-0.02039734,0.85866,1.05764
87.003,12.44259,-0.0205258,0.86539,1.05731
87.703,12.46692,-0.02184606,0.87562,1.05697
88.403,12.49118,-0.02040181,0.8835,1.05663
89.103,12.5154,-0.02180525,0.88832,1.05629
89.803,12.53962,-0.02172066,0.89526,1.05596
90.503,12.56382,-0.02168015,0.90379,1.05562
91.203,12.58796,-0.02295686,0.90979,1.05528
91.903,12.61218,-0.02304304,0.91611,1.05494
92.603,12.6363,-0.02303342,0.92285,1.0546
93.303,12.66037,-0.02303085,0.92927,1.05425
94.003,12.68432,-0.023248,0.93455,1.05391
94.703,12.7082,-0.02437011,0.93846,1.05357
95.403,12.73185,-0.02429175,0.94344,1.05323
96.103,12.75569,-0.02652865,0.95019,1.05289
96.803,12.77948,-0.02664938,0.95318,1.05254
97.503,12.8033,-0.02666167,0.95834,1.0522
98.203,12.8272,-0.02712522,0.96237,1.05185
98.903,12.85087,-0.02662113,0.96584,1.05151
99.603,12.87459,-0.02664706,0.96907,1.05116
100.303,12.89832,-0.02685893,0.97325,1.05082
101.003,12.92206,-0.0279495,0.97497,1.05047
101.703,12.94563,-0.02806041,0.97446,1.05012
102.403,12.9692,-0.02933272,0.97619,1.04978
103.103,12.9927,-0.02796148,0.97916,1.04943
103.803,13.01604,-0.02796946,0.97993,1.04908
104.503,13.0395,-0.02796993,0.98219,1.04873
105.203,13.06312,-0.02797861,0.98259,1.04838
105.903,13.08663,-0.02835461,0.98173,1.04803
106.603,13.11038,-0.02928727,0.98175,1.04768
107.303,13.134,-0.02937318,0.98343,1.04733
108.003,13.1574,-0.03201927,0.98165,1.04698
108.703,13.18092,-0.03191832,0.98278,1.04663
109.403,13.20434,-0.03191934,0.98183,1.04627
110.103,13.2277,-0.03191436,0.98235,1.04592
110.803,13.2511,-0.03328118,0.97951,1.04557
111.503,13.27452,-0.03323672,0.97844,1.04522
112.203,13.298,-0.03323014,0.97687,1.04486
112.903,13.3215,-0.03323092,0.97475,1.04451
113.603,13.3447,-0.03327197,0.97271,1.04415
114.303,13.3678,-0.03196631,0.97257,1.0438
115.003,13.39095,-0.03326256,0.97201,1.04344
115.703,13.4143,-0.03324356,0.96823,1.04308
116.403,13.43776,-0.03324327,0.96563,1.04273
117.103,13.46127,-0.03319305,0.96581,1.04237
117.803,13.4848,-0.03189274,0.96422,1.04201
118.503,13.50806,-0.03272324,0.96341,1.04165
119.203,13.5313,-0.0332291,0.95829,1.0413
119.903,13.55454,-0.03322989,0.95812,1.04094
120.603,13.5777,-0.03322988,0.95479,1.04058
121.303,13.60085,-0.03323102,0.95521,1.04022
122.003,13.62396,-0.03330426,0.95363,1.03986
122.703,13.6471,-0.03194374,0.95479,1.0395
123.403,13.6702,-0.0319207,0.95208,1.03914
124.103,13.69302,-0.03219018,0.94986,1.03877
124.803,13.71596,-0.03288737,0.94966,1.03841
125.503,13.73874,-0.03290953,0.94869,1.03805
126.203,13.76167,-0.03291003,0.94767,1.03769
126.903,13.78479,-0.03291,0.94536,1.03732
127.603,13.80768,-0.03291,0.94457,1.03696
128.303,13.83071,-0.03291,0.94536,1.03659
129.003,13.85355,-0.03291,0.94328,1.03623
129.703,13.87635,-0.03291,0.94494,1.03586
130.403,13.89916,-0.03290999,0.9448,1.0355
131.103,13.92196,-0.0329107,0.9451,1.03513
131.803,13.9447,-0.03293316,0.94559,1.03477
132.503,13.9674,-0.03363667,0.94527,1.0344
133.203,13.9902,-0.03421982,0.94796,1.03403
133.903,14.0129,-0.03421985,0.94916,1.03366
134.603,14.03563,-0.03421967,0.94781,1.03329
135.303,14.05825,-0.03421661,0.95096,1.03293
136.003,14.0808,-0.03383686,0.94859,1.03256
136.703,14.1033,-0.03325587,0.95074,1.03219
137.403,14.1258,-0.03324094,0.95081,1.03182
138.103,14.14836,-0.03324,0.95297,1.03145
138.803,14.17087,-0.03324028,0.95577,1.03108
139.503,14.1934,-0.03326971,0.9565,1.03071
140.203,14.2159,-0.034639,0.95946,1.03033
140.903,14.2384,-0.0345622,0.96088,1.02996
141.603,14.26082,-0.03455987,0.96203,1.02959
142.303,14.2832,-0.03455529,0.96585,1.02922
143.003,14.3055,-0.03445917,0.96702,1.02884
143.703,14.3278,-0.03577464,0.96778,1.02847
144.403,14.35011,-0.03718051,0.97141,1.02809
145.103,14.37238,-0.03718051,0.97491,1.02772
145.803,14.3947,-0.03718004,0.97597,1.02735
146.503,14.41705,-0.03718,0.97702,1.02697
147.203,14.4394,-0.03718,0.98139,1.02659
147.903,14.4617,-0.03718,0.98489,1.02622
148.603,14.484,-0.03717989,0.98764,1.02584
149.303,14.5061,-0.03717813,0.98812,1.02546
150.003,14.52829,-0.03716092,0.99107,1.02509
150.703,14.5504,-0.03616759,0.99436,1.02471
151.403,14.57266,-0.03728237,0.99573,1.02433
152.103,14.59496,-0.03719505,0.99815,1.02395
152.803,14.61715,-0.03704569,0.99932,1.02357
153.503,14.6393,-0.03585869,1.00282,1.02319
154.203,14.66143,-0.03587123,1.00595,1.02281
154.903,14.68355,-0.03587013,1.00844,1.02243
155.603,14.7056,-0.03586997,1.0111,1.02205
156.303,14.72766,-0.03586957,1.01344,1.02167
157.003,14.7497,-0.03586891,1.01642,1.02129
157.703,14.7718,-0.03599824,1.01747,1.02091
158.403,14.7937,-0.03719619,1.02192,1.02053
159.103,14.81579,-0.03717672,1.0243,1.02014
159.803,14.8378,-0.03671222,1.02854,1.01976
160.503,14.85985,-0.03586904,1.0308,1.01938
161.203,14.8819,-0.03579796,1.03327,1.01899
161.903,14.9038,-0.03450781,1.03521,1.01861
162.603,14.9258,-0.03456126,1.03881,1.01822
163.303,14.9477,-0.03461355,1.04037,1.01784
164.003,14.96959,-0.03357412,1.04263,1.01745
164.703,14.9915,-0.03357667,1.04559,1.01707
165.403,15.0135,-0.03386385,1.04775,1.01668
166.103,15.0354,-0.03488577,1.05021,1.0163
166.803,15.05745,-0.03487384,1.05346,1.01591
167.503,15.0794,-0.03615903,1.05881,1.01552
168.203,15.1011,-0.03620363,1.0581,1.01513
168.903,15.1228,-0.03620048,1.06193,1.01475
169.603,15.14461,-0.03620004,1.06548,1.01436
170.303,15.1665,-0.0362,1.06732,1.01397
171.003,15.18849,-0.03619999,1.07004,1.01358
171.703,15.2105,-0.03620009,1.07185,1.01319
172.403,15.2324,-0.03620672,1.07558,1.0128
173.103,15.25425,-0.03641339,1.07824,1.01241
173.803,15.2761,-0.03754999,1.08138,1.01202
174.503,15.29775,-0.03751164,1.08368,1.01163
175.203,15.3195,-0.03751004,1.08638,1.01124
175.903,15.34113,-0.03750961,1.08983,1.01084
176.603,15.3628,-0.03749517,1.09086,1.01045
177.303,15.38455,-0.03709904,1.09529,1.01006
178.003,15.40625,-0.03618497,1.09923,1.00967
178.703,15.42794,-0.0361898,1.10119,1.00927
179.403,15.4496,-0.03619,1.10492,1.00888
180.103,15.47125,-0.03619,1.10775,1.00849
180.803,15.49288,-0.03619,1.11207,1.00809
181.503,15.5145,-0.03619,1.11371,1.0077
182.203,15.5361,-0.03619008,1.11651,1.0073
182.903,15.5577,-0.03619102,1.11969,1.00691
183.603,15.5793,-0.03619589,1.12304,1.00651
184.303,15.60087,-0.03690066,1.12531,1.00611
185.003,15.62241,-0.03774135,1.12789,1.00572
185.703,15.6439,-0.03847373,1.13041,1.00532
186.403,15.6655,-0.03849835,1.13547,1.00492
187.103,15.68697,-0.03849992,1.13554,1.00453
187.803,15.70844,-0.0385,1.13866,1.00413
188.503,15.72996,-0.0385,1.143,1.00373
189.203,15.7514,-0.0385,1.14425,1.00333
189.903,15.77289,-0.0385,1.1504,1.00293
190.603,15.7944,-0.03849996,1.15265,1.00253
191.303,15.8157,-0.03849932,1.15621,1.00213
192.003,15.83714,-0.03849093,1.15756,1.00173
192.703,15.85856,-0.03820649,1.15853,1.00133
193.403,15.87999,-0.03816994,1.16387,1.00093
194.103,15.90141,-0.03781725,1.16613,1.00053
194.803,15.92285,-0.03783756,1.17082,1.00013
195.503,15.9442,-0.03783979,1.17511,0.99973
196.203,15.96556,-0.03783953,1.17658,0.99932
196.903,15.98696,-0.03783379,1.17884,0.99892
197.603,16.00835,-0.03904619,1.18079,0.99852
198.303,16.02972,-0.03917513,1.18585,0.99811
199.003,16.05116,-0.03819591,1.18851,0.99771
199.703,16.0726,-0.03818191,1.19034,0.99731
200.403,16.09375,-0.03817995,1.19267,0.9969
201.103,16.11506,-0.03817655,1.1956,0.9965
201.803,16.13635,-0.03812856,1.20036,0.99609
202.503,16.15766,-0.03939182,1.2015,0.99569
203.203,16.17912,-0.03948784,1.204,0.99528
203.903,16.20058,-0.03949009,1.20611,0.99488
204.603,16.22198,-0.0394904,1.21009,0.99447
205.303,16.24332,-0.0394993,1.21042,0.99406
206.003,16.26458,-0.03972567,1.21492,0.99366
206.703,16.28586,-0.04084148,1.2163,0.99325
207.403,16.30709,-0.04079853,1.21967,0.99284
208.103,16.3284,-0.04076347,1.22346,0.99243
208.803,16.34975,-0.04211192,1.22615,0.99202
209.503,16.37111,-0.04212198,1.2318,0.99162
210.203,16.3924,-0.04212024,1.23214,0.99121
210.903,16.41369,-0.04212002,1.23591,0.9908
211.603,16.43496,-0.04212,1.23877,0.99039
212.303,16.45625,-0.04212,1.24076,0.98998
213.003,16.4775,-0.04212,1.2444,0.98957
213.703,16.49881,-0.04211999,1.24802,0.98916
214.403,16.52009,-0.04212001,1.25018,0.98875
215.103,16.5414,-0.04212192,1.25167,0.98833
215.803,16.56276,-0.04217452,1.25418,0.98792
216.503,16.58409,-0.04094205,1.25717,0.98751
217.203,16.60537,-0.04221727,1.26107,0.9871
217.903,16.62658,-0.04213488,1.26461,0.98669
218.603,16.64782,-0.04213028,1.26813,0.98627
219.303,16.66903,-0.04213045,1.26811,0.98586
220.003,16.69032,-0.04212744,1.27367,0.98545
220.703,16.7116,-0.04292644,1.27666,0.98503
221.403,16.7329,-0.04353346,1.27929,0.98462
222.103,16.75413,-0.04354311,1.28353,0.9842
222.803,16.77535,-0.04444679,1.28417,0.98379
223.503,16.79639,-0.04485094,1.28866,0.98337
224.203,16.8175,-0.04486861,1.29094,0.98296
224.903,16.8387,-0.04486581,1.29259,0.98254
225.603,16.8599,-0.04486522,1.29716,0.98213
226.303,16.88123,-0.04618393,1.30243,0.98171
227.003,16.9026,-0.04619357,1.30422,0.98129
227.703,16.92376,-0.04649754,1.30469,0.98088
228.403,16.945,-0.04765182,1.30917,0.98046
229.103,16.96617,-0.04820695,1.31327,0.98004
229.803,16.98735,-0.04893384,1.31745,0.97962
230.503,17.00842,-0.04893079,1.31812,0.9792
231.203,17.02938,-0.04743878,1.32266,0.97879
231.903,17.05038,-0.04738151,1.32528,0.97837
232.603,17.0716,-0.04862902,1.32603,0.97795
233.303,17.09294,-0.05017959,1.32989,0.97753
234.003,17.11431,-0.05133823,1.33562,0.97711
234.703,17.13567,-0.05251657,1.33756,0.97669
235.403,17.15681,-0.0538827,1.33977,0.97627
236.103,17.178,-0.05454926,1.34425,0.97585
236.803,17.19916,-0.05546662,1.34875,0.97543
237.503,17.22033,-0.05636968,1.3512,0.975
238.203,17.24154,-0.05638267,1.35209,0.97458
238.903,17.2627,-0.05653328,1.35816,0.97416
239.603,17.28388,-0.05696611,1.36077,0.97374
240.303,17.3051,-0.0577666,1.36263,0.97332
241.003,17.3263,-0.05772983,1.36605,0.97289
241.703,17.34756,-0.05845028,1.36817,0.97247
242.403,17.36873,-0.05901997,1.37134,0.97205
243.103,17.3899,-0.06043166,1.37302,0.97162
243.803,17.41103,-0.06044481,1.37594,0.9712
244.503,17.43218,-0.06208338,1.37784,0.97077
245.203,17.4533,-0.06275009,1.38165,0.97035
245.903,17.4745,-0.06350235,1.38345,0.96992
246.603,17.49568,-0.064901,1.38514,0.9695
247.303,17.51686,-0.06531101,1.38661,0.96907
248.003,17.538,-0.0664118,1.39274,0.96865
248.703,17.55915,-0.06798369,1.39279,0.96822
249.403,17.5803,-0.06967172,1.39641,0.9678
250.103,17.60142,-0.07162504,1.39762,0.96737
250.803,17.62262,-0.07154437,1.40317,0.96694
251.503,17.6437,-0.07183929,1.40438,0.96652
252.203,17.66488,-0.07279888,1.40775,0.96609
252.903,17.68605,-0.07431157,1.40935,0.96566
253.603,17.70713,-0.07541881,1.41022,0.96523
254.303,17.72834,-0.07632089,1.41372,0.9648
255.003,17.74944,-0.07763914,1.41818,0.96438
255.703,17.77054,-0.07769726,1.41909,0.96395
256.403,17.79168,-0.07917713,1.41967,0.96352
257.103,17.81278,-0.08051452,1.42389,0.96309
257.803,17.8339,-0.08205619,1.42748,0.96266
258.503,17.85506,-0.08408962,1.43061,0.96223
259.203,17.87619,-0.08614516,1.43112,0.9618
259.903,17.8973,-0.0879163,1.43694,0.96137
260.603,17.91846,-0.09041706,1.43768,0.96094
261.303,17.93956,-0.09317929,1.4404,0.9605
262.003,17.96063,-0.09559338,1.44109,0.96007
262.703,17.98176,-0.09688081,1.44563,0.95964
263.403,18.0028,-0.09883012,1.44685,0.95921
264.103,18.0239,-0.1009,1.44935,0.95878
264.803,18.045,-0.10298,1.45363,0.95834
265.503,18.06612,-0.10546,1.45407,0.95791
266.203,18.08726,-0.10798,1.45612,0.95748
266.903,18.10841,-0.11021,1.45783,0.95705
267.603,18.12942,-0.11182,1.46193,0.95661
268.303,18.1506,-0.11393,1.46276,0.95618
269.003,18.17166,-0.11676,1.46542,0.95574
269.703,18.19275,-0.11985,1.46606,0.95531
270.403,18.2139,-0.12294,1.46854,0.95488
271.103,18.2351,-0.12569,1.46913,0.95444
271.803,18.25625,-0.12867,1.47053,0.954
272.503,18.2774,-0.132,1.47469,0.95357
273.203,18.2985,-0.13448,1.47597,0.95313
273.903,18.31955,-0.13662,1.47732,0.9527
274.603,18.34064,-0.13905,1.48052,0.95226
275.303,18.3617,-0.14163,1.48215,0.95182
276.003,18.38289,-0.1444,1.48582,0.95139
276.703,18.404,-0.14735,1.48753,0.95095
277.403,18.42513,-0.14975,1.4914,0.95051
278.103,18.4462,-0.15218,1.49376,0.95008
278.803,18.46728,-0.15533,1.49695,0.94964
279.503,18.48839,-0.16002,1.49739,0.9492
280.203,18.5095,-0.16446,1.50497,0.94876
280.903,18.5306,-0.16836,1.50556,0.94832
281.603,18.55159,-0.17122,1.50622,0.94788
282.303,18.57263,-0.17524,1.51088,0.94744
283.003,18.59362,-0.17917,1.51458,0.94701
283.703,18.6146,-0.18428,1.51639,0.94657
284.403,18.63583,-0.18978,1.51911,0.94613
285.103,18.6571,-0.19487,1.52294,0.94569
285.803,18.6784,-0.20025,1.52534,0.94525
286.503,18.69965,-0.20481,1.53058,0.9448
287.203,18.72091,-0.2113,1.53425,0.94436
287.903,18.7421,-0.21652,1.53942,0.94392
288.603,18.7632,-0.22226,1.53917,0.94348
289.303,18.78438,-0.22678,1.5423,0.94304
290.003,18.80552,-0.23246,1.54557,0.9426
290.703,18.82665,-0.23807,1.54639,0.94216
291.403,18.84779,-0.24504,1.55012,0.94171
292.103,18.8689,-0.25155,1.54892,0.94127
292.803,18.89001,-0.2582,1.55491,0.94083
293.503,18.91121,-0.26507,1.55364,0.94038
294.203,18.93244,-0.27282,1.5586,0.93994
294.903,18.95362,-0.28107,1.55941,0.9395
295.603,18.97476,-0.2876,1.55908,0.93905
296.303,18.9959,-0.29484,1.5573,0.93861
297.003,19.017,-0.30144,1.55858,0.93816
297.703,19.03826,-0.31084,1.55854,0.93772
298.403,19.05946,-0.31864,1.55765,0.93727
299.103,19.08069,-0.32836,1.55845,0.93683
299.803,19.1019,-0.33633,1.55827,0.93638
300.503,19.12302,-0.34685,1.55709,0.93594
301.203,19.14424,-0.35525,1.55604,0.93549
301.903,19.16546,-0.36491,1.55356,0.93505
302.603,19.18665,-0.37293,1.552,0.9346
303.303,19.20787,-0.38211,1.54967,0.93415
304.003,19.2291,-0.39069,1.54786,0.93371
304.703,19.25029,-0.39845,1.54467,0.93326
305.403,19.27145,-0.40616,1.54321,0.93281
306.103,19.29267,-0.41457,1.54191,0.93236
306.803,19.31381,-0.42666,1.54115,0.93192
307.503,19.335,-0.43997,1.53657,0.93147
308.203,19.35616,-0.45398,1.53323,0.93102
308.903,19.37732,-0.46443,1.53128,0.93057
309.603,19.3985,-0.47667,1.52801,0.93012
310.303,19.41967,-0.48575,1.52631,0.92967
311.003,19.4409,-0.49733,1.52321,0.92922
311.703,19.46211,-0.50683,1.52033,0.92878
312.403,19.48337,-0.51841,1.51662,0.92833
313.103,19.50461,-0.52683,1.51498,0.92788
313.803,19.52582,-0.53849,1.5125,0.92743
314.503,19.54702,-0.54902,1.5108,0.92697
315.203,19.56823,-0.56093,1.50936,0.92652
315.903,19.5894,-0.57197,1.50622,0.92607
316.603,19.61047,-0.58273,1.50505,0.92562
317.303,19.63158,-0.59486,1.50087,0.92517
318.003,19.65277,-0.60635,1.50126,0.92472
318.703,19.674,-0.61884,1.49874,0.92427
319.403,19.69537,-0.63014,1.49732,0.92382
320.103,19.71673,-0.64314,1.49407,0.92336
320.803,19.73794,-0.65362,1.49479,0.92291
321.503,19.75921,-0.66591,1.49194,0.92246
322.203,19.78041,-0.67599,1.49497,0.92201
322.903,19.80157,-0.68843,1.4921,0.92155
323.603,19.823,-0.69862,1.4904,0.9211
324.303,19.84432,-0.71125,1.48907,0.92065
325.003,19.8656,-0.72205,1.48982,0.92019
325.703,19.887,-0.73507,1.4874,0.91974
326.403,19.9083,-0.74661,1.48872,0.91928
327.103,19.92952,-0.75924,1.49134,0.91883
327.803,19.95083,-0.77166,1.49189,0.91837
328.503,19.9721,-0.78334,1.49333,0.91792
329.203,19.99342,-0.79575,1.49515,0.91746
329.903,20.01478,-0.80739,1.49605,0.91701
330.603,20.03603,-0.8193,1.50023,0.91655
331.303,20.05723,-0.8308,1.50422,0.9161
332.003,20.07849,-0.84473,1.50639,0.91564
332.703,20.0996,-0.85608,1.5102,0.91518
333.403,20.1208,-0.87094,1.51495,0.91473
334.103,20.14237,-0.88344,1.51838,0.91427
334.803,20.16377,-0.89691,1.52266,0.91381
335.503,20.1853,-0.90826,1.52527,0.91336
336.203,20.20674,-0.922,1.53097,0.9129
336.903,20.22804,-0.93435,1.53357,0.91244
337.603,20.24933,-0.94663,1.53922,0.91199
338.303,20.27074,-0.95962,1.54484,0.91153
339.003,20.29198,-0.97235,1.55117,0.91107
339.703,20.31325,-0.98631,1.55472,0.91061
340.403,20.33468,-0.99955,1.56375,0.91015
341.103,20.35603,-1.0138,1.57156,0.90969
341.803,20.37752,-1.02602,1.57385,0.90923
342.503,20.399,-1.04069,1.58567,0.90877
343.203,20.4204,-1.05255,1.58979,0.90832
343.903,20.44175,-1.06793,1.6011,0.90786
344.603,20.46322,-1.08089,1.60878,0.9074
345.303,20.4847,-1.09641,1.616,0.90694
346.003,20.50618,-1.10942,1.62604,0.90648
346.703,20.52767,-1.12445,1.63337,0.90601
347.403,20.5491,-1.13827,1.64053,0.90555
348.103,20.5705,-1.15343,1.65182,0.90509
348.803,20.59196,-1.16848,1.65921,0.90463
349.503,20.61346,-1.18237,1.66785,0.90417
350.203,20.6349,-1.19696,1.6792,0.90371
350.903,20.65642,-1.21076,1.69116,0.90325
351.603,20.678,-1.22798,1.70151,0.90279
352.303,20.6995,-1.24216,1.71189,0.90232
353.003,20.72091,-1.25897,1.72417,0.90186
353.703,20.74239,-1.27261,1.73469,0.9014
354.403,20.76386,-1.28916,1.74561,0.90094
355.103,20.78535,-1.30268,1.75773,0.90047
355.803,20.8069,-1.31877,1.77147,0.90001
356.503,20.82845,-1.33446,1.78388,0.89955
357.203,20.84998,-1.35067,1.80061,0.89908
357.903,20.87152,-1.36699,1.81248,0.89862
358.603,20.89301,-1.38332,1.82819,0.89815
359.303,20.91457,-1.40133,1.84581,0.89769
360.003,20.93607,-1.41666,1.85747,0.89723
360.703,20.95759,-1.43457,1.87514,0.89676
361.403,20.97918,-1.44953,1.8932,0.8963
362.103,21.00074,-1.46852,1.91353,0.89583
362.803,21.02234,-1.48414,1.93017,0.89537
363.503,21.04391,-1.50337,1.94829,0.8949
364.203,21.0655,-1.51994,1.96657,0.89444
364.903,21.08705,-1.5398,1.98924,0.89397
365.603,21.10859,-1.55715,2.01092,0.8935
366.303,21.13021,-1.57634,2.0342,0.89304
367.003,21.1519,-1.59627,2.05551,0.89257
367.703,21.17351,-1.61566,2.07792,0.8921
368.403,21.19515,-1.63653,2.10141,0.89164
369.103,21.21665,-1.65452,2.12621,0.89117
369.803,21.2381,-1.67696,2.15012,0.8907
370.503,21.25979,-1.69566,2.17629,0.89024
371.203,21.2815,-1.71896,2.20462,0.88977
371.903,21.3033,-1.7378,2.23122,0.8893
372.603,21.32517,-1.76143,2.25946,0.88883
373.303,21.34685,-1.78237,2.2858,0.88837
374.003,21.3684,-1.80647,2.31056,0.8879
374.703,21.3901,-1.82931,2.33741,0.88743
375.403,21.41176,-1.85145,2.36706,0.88696
376.103,21.4335,-1.87608,2.39433,0.88649
376.803,21.45534,-1.89914,2.41971,0.88602
377.503,21.47706,-1.92547,2.4488,0.88555
378.203,21.49868,-1.94815,2.47362,0.88508
378.903,21.52034,-1.97629,2.50123,0.88461
379.603,21.5421,-1.99933,2.52596,0.88414
380.303,21.5638,-2.02699,2.54848,0.88367
381.003,21.58555,-2.05089,2.57136,0.8832
381.703,21.6073,-2.07839,2.59181,0.88273
382.403,21.6291,-2.10356,2.61064,0.88226
383.103,21.65091,-2.13073,2.6268,0.88179
383.803,21.6726,-2.1591,2.64104,0.88132
384.503,21.69444,-2.18589,2.65185,0.88085
385.203,21.71617,-2.21541,2.65999,0.88038
385.903,21.73783,-2.24089,2.66891,0.87991
386.603,21.7596,-2.27249,2.67002,0.87943
387.303,21.78133,-2.29802,2.66716,0.87896
388.003,21.80307,-2.32935,2.65804,0.87849
388.703,21.82489,-2.35482,2.64963,0.87802
389.403,21.8466,-2.38471,2.6359,0.87755
390.103,21.8684,-2.41105,2.6136,0.87707
390.803,21.89012,-2.43911,2.59003,0.8766
391.503,21.9119,-2.46624,2.55855,0.87613
392.203,21.93369,-2.49204,2.52108,0.87565
392.903,21.9555,-2.5202,2.47928,0.87518
393.603,21.97718,-2.54472,2.43087,0.87471
394.303,21.9989,-2.57312,2.37989,0.87423
395.003,22.02056,-2.59502,2.31841,0.87376
395.703,22.04213,-2.62071,2.25783,0.87329
396.403,22.06377,-2.64147,2.18632,0.87281
397.103,22.0855,-2.66616,2.11172,0.87234
397.803,22.1073,-2.68623,2.03056,0.87186
398.503,22.12912,-2.7075,1.94633,0.87139
399.203,22.1509,-2.72724,1.85799,0.87091
399.903,22.17256,-2.74521,1.76766,0.87044
400.603,22.1942,-2.76321,1.67247,0.86996
401.303,22.21591,-2.77876,1.57706,0.86949
402.003,22.23764,-2.79527,1.48376,0.86901
402.703,22.25931,-2.80787,1.38708,0.86854
403.403,22.2809,-2.82253,1.29198,0.86806
404.103,22.30261,-2.8331,1.19245,0.86758
404.803,22.3243,-2.84423,1.0999,0.86711
405.503,22.34591,-2.85317,1.00818,0.86663
406.203,22.36761,-2.86303,0.92414,0.86615
406.903,22.3892,-2.87113,0.84256,0.86568
407.603,22.4108,-2.87859,0.76524,0.8652
408.303,22.43241,-2.88522,0.69339,0.86472
409.003,22.45401,-2.89038,0.62816,0.86424
409.703,22.47564,-2.89582,0.56769,0.86377
410.403,22.4973,-2.89965,0.51067,0.86329
411.103,22.51899,-2.90396,0.46504,0.86281
411.803,22.5407,-2.90765,0.4212,0.86233
412.503,22.56235,-2.91188,0.38002,0.86185
413.203,22.58399,-2.91494,0.34943,0.86138
413.903,22.60564,-2.91791,0.31852,0.8609
414.603,22.6274,-2.92044,0.29321,0.86042
415.303,22.6492,-2.92281,0.27251,0.85994
416.003,22.67093,-2.92543,0.25228,0.85946
416.703,22.69264,-2.9275,0.23193,0.85898
417.403,22.7144,-2.92943,0.21835,0.8585
418.103,22.73607,-2.93127,0.20309,0.85802
418.803,22.75778,-2.93359,0.18711,0.85754
419.503,22.77958,-2.93604,0.17537,0.85706
420.203,22.80134,-2.93817,0.16661,0.85658
420.903,22.82313,-2.93954,0.1565,0.8561
421.603,22.8448,-2.9411,0.14877,0.85562
422.303,22.86658,-2.94453,0.13944,0.85514
423.003,22.88832,-2.94667,0.13245,0.85466
423.703,22.91017,-2.94827,0.12091,0.85418
424.403,22.9321,-2.94997,0.11829,0.8537
425.103,22.95402,-2.95184,0.11095,0.85322
425.803,22.9759,-2.95321,0.10077,0.85273
426.503,22.99772,-2.95462,0.09566428,0.85225
427.203,23.01951,-2.95578,0.0907098,0.85177
427.903,23.04135,-2.9578,0.08469337,0.85129
428.603,23.06321,-2.95981,0.07769944,0.85081
429.303,23.08509,-2.96174,0.07277707,0.85032
430.003,23.107,-2.96237,0.06762939,0.84984
430.703,23.12898,-2.9637,0.06289637,0.84936
431.403,23.1509,-2.96482,0.06080506,0.84888
432.103,23.1728,-2.96644,0.05427262,0.84839
432.803,23.1947,-2.96793,0.04922334,0.84791
433.503,23.21643,-2.96958,0.0452449,0.84743
434.203,23.23838,-2.971,0.0439015,0.84694
434.903,23.2603,-2.9723,0.03791006,0.84646
435.603,23.28231,-2.9736,0.03765052,0.84598
436.303,23.30435,-2.97563,0.03619739,0.84549
437.003,23.32627,-2.97823,0.02949945,0.84501
437.703,23.34818,-2.98093,0.02977895,0.84452
438.403,23.37012,-2.98336,0.02705299,0.84404
439.103,23.39211,-2.98608,0.02386155,0.84356
439.803,23.41413,-2.98905,0.02335165,0.84307
440.503,23.43611,-2.99202,0.01964205,0.84259
441.203,23.45811,-2.99428,0.01660796,0.8421
441.903,23.48007,-2.99477,0.01491856,0.84162
442.603,23.502,-2.99573,0.01543133,0.84113
443.303,23.524,-2.99575,0.01419121,0.84064
444.003,23.54599,-2.99575,0.0127688,0.84016
444.703,23.56804,-2.99575,0.01149576,0.83967
445.403,23.59016,-2.99575,0.009298495,0.83919
446.103,23.61223,-2.99717,0.01115327,0.8387
446.803,23.63433,-2.9987,0.009030125,0.83821
447.503,23.65636,-3.00048,0.01185385,0.83773
448.203,23.67839,-3.00249,0.00921734,0.83724
448.903,23.70048,-3.00402,0.01039475,0.83675
449.603,23.72254,-3.0056,0.01103209,0.83627
450.303,23.7446,-3.00775,0.01307021,0.83578
451.003,23.76676,-3.01045,0.0124639,0.83529
451.703,23.78886,-3.01277,0.0128803,0.83481
452.403,23.81093,-3.01437,0.01368287,0.83432
453.103,23.83297,-3.0156,0.01466535,0.83383
453.803,23.85504,-3.01728,0.01753168,0.83334
454.503,23.87705,-3.01881,0.02113999,0.83285
455.203,23.8992,-3.02046,0.02324235,0.83237
455.903,23.92129,-3.021,0.02033567,0.83188
456.603,23.94324,-3.02204,0.02544692,0.83139
457.303,23.96545,-3.02207,0.02950679,0.8309
458.003,23.98764,-3.0234,0.02911456,0.83041
458.703,24.00981,-3.02468,0.03438465,0.82992
459.403,24.03211,-3.02603,0.03241841,0.82943
460.103,24.05421,-3.02773,0.03947637,0.82894
460.803,24.07633,-3.02933,0.04119967,0.82846
461.503,24.09855,-3.03092,0.04686082,0.82797
462.203,24.1207,-3.03245,0.04792213,0.82748
462.903,24.1429,-3.03367,0.05336278,0.82699
463.603,24.16509,-3.03509,0.05755708,0.8265
464.303,24.18723,-3.03663,0.05849725,0.82601
465.003,24.20945,-3.03727,0.06235874,0.82552
465.703,24.23171,-3.03797,0.06605967,0.82503
466.403,24.25396,-3.0383,0.06940806,0.82453
467.103,24.27615,-3.03931,0.07254104,0.82404
467.803,24.2983,-3.04094,0.07569013,0.82355
468.503,24.32047,-3.04231,0.07862264,0.82306
469.203,24.3426,-3.04301,0.08214625,0.82257
469.903,24.36479,-3.04458,0.08565185,0.82208
470.603,24.38707,-3.04608,0.08944666,0.82159
471.303,24.4093,-3.04803,0.09503608,0.8211
472.003,24.4315,-3.04886,0.09900111,0.8206
472.703,24.45374,-3.04974,0.10324,0.82011
473.403,24.4759,-3.05181,0.10643,0.81962
474.103,24.4981,-3.05408,0.11104,0.81913
474.803,24.52039,-3.05568,0.11586,0.81864
475.503,24.54267,-3.05649,0.11783,0.81814
476.203,24.565,-3.05642,0.12132,0.81765
476.903,24.5873,-3.05791,0.12386,0.81716
477.603,24.60963,-3.05856,0.13055,0.81667
478.303,24.6319,-3.05947,0.13198,0.81617
479.003,24.65409,-3.06089,0.13409,0.81568
479.703,24.67633,-3.06088,0.13738,0.81519
480.403,24.6985,-3.06236,0.14155,0.81469
481.103,24.72083,-3.06391,0.14465,0.8142
481.803,24.74316,-3.06384,0.14546,0.8137
482.503,24.76543,-3.06507,0.14888,0.81321
483.203,24.78771,-3.06555,0.15232,0.81272
483.903,24.81,-3.06682,0.15601,0.81222
484.603,24.8323,-3.06846,0.15751,0.81173
485.303,24.8546,-3.06842,0.1606,0.81123
486.003,24.87696,-3.06973,0.16247,0.81074
486.703,24.89924,-3.06965,0.15926,0.81024
487.403,24.92155,-3.07126,0.16352,0.80975
488.103,24.94388,-3.07198,0.16817,0.80925
488.803,24.96619,-3.07258,0.16825,0.80876
489.503,24.98855,-3.07411,0.1702,0.80826
490.203,25.01089,-3.07547,0.17532,0.80777
490.903,25.03324,-3.07608,0.17622,0.80727
491.603,25.05552,-3.07726,0.17737,0.80678
492.303,25.07791,-3.07858,0.1808,0.80628
493.003,25.10029,-3.0788,0.18203,0.80578
493.703,25.12259,-3.08012,0.18516,0.80529
494.403,25.14481,-3.07948,0.18664,0.80479
495.103,25.167,-3.08049,0.18574,0.8043
495.803,25.18926,-3.08042,0.1905,0.8038
496.503,25.21162,-3.08225,0.19178,0.8033
497.203,25.23416,-3.08361,0.19274,0.80281
497.903,25.2567,-3.08496,0.19451,0.80231
498.603,25.27913,-3.08664,0.19484,0.80181
499.303,25.30152,-3.08668,0.19463,0.80131
500.003,25.32392,-3.08672,0.19464,0.80082
500.703,25.3462,-3.08804,0.19547,0.80032
501.403,25.36864,-3.08713,0.19884,0.79982
502.103,25.3911,-3.08665,0.199,0.79932
502.803,25.41335,-3.08787,0.2009,0.79883
503.503,25.43581,-3.08801,0.20057,0.79833
504.203,25.45825,-3.08881,0.20157,0.79783
504.903,25.48066,-3.08931,0.20446,0.79733
505.603,25.50319,-3.08957,0.20584,0.79683
506.303,25.52562,-3.09065,0.20572,0.79633
507.003,25.548,-3.09142,0.20778,0.79584
507.703,25.5704,-3.09195,0.20803,0.79534
508.403,25.59282,-3.09348,0.20631,0.79484
509.103,25.61515,-3.0949,0.20751,0.79434
509.803,25.63759,-3.09614,0.20713,0.79384
510.503,25.66005,-3.09776,0.20649,0.79334
511.203,25.68254,-3.09776,0.20645,0.79284
511.903,25.7051,-3.09862,0.20979,0.79234
512.603,25.72758,-3.09907,0.20961,0.79184
513.303,25.75007,-3.09974,0.20988,0.79134
514.003,25.77257,-3.10039,0.2091,0.79084
514.703,25.795,-3.10085,0.20758,0.79034
515.403,25.81747,-3.1017,0.21087,0.78984
516.103,25.83996,-3.1017,0.21115,0.78934
516.803,25.86249,-3.10208,0.20948,0.78884
517.503,25.88508,-3.10167,0.21107,0.78834
518.203,25.90758,-3.10186,0.21044,0.78784
518.903,25.9301,-3.10313,0.21072,0.78734
519.603,25.95253,-3.10311,0.21391,0.78684
520.303,25.97494,-3.10434,0.21319,0.78633
521.003,25.99747,-3.10475,0.21613,0.78583
521.703,26.01996,-3.10477,0.21488,0.78533
522.403,26.04253,-3.10635,0.21406,0.78483
523.103,26.06506,-3.10706,0.21575,0.78433
523.803,26.08757,-3.1071,0.21683,0.78383
524.503,26.11009,-3.10808,0.21688,0.78332
525.203,26.13261,-3.10839,0.21546,0.78282
525.903,26.15521,-3.10838,0.2182,0.78232
526.603,26.17776,-3.10954,0.21942,0.78182
527.303,26.20027,-3.10971,0.21992,0.78131
528.003,26.22277,-3.10966,0.21778,0.78081
528.703,26.2453,-3.11103,0.22061,0.78031
529.403,26.2678,-3.11106,0.22387,0.77981
530.103,26.2904,-3.11257,0.22466,0.7793
530.803,26.31298,-3.11269,0.22776,0.7788
531.503,26.33554,-3.11407,0.22878,0.7783
532.203,26.35809,-3.11488,0.23131,0.77779
532.903,26.38063,-3.11554,0.2304,0.77729
533.603,26.4032,-3.11701,0.23392,0.77679
534.303,26.4257,-3.11688,0.23602,0.77628
535.003,26.44825,-3.11737,0.23791,0.77578
535.703,26.47079,-3.117,0.24196,0.77528
536.403,26.49335,-3.11827,0.24032,0.77477
537.103,26.5159,-3.11836,0.24327,0.77427
537.803,26.53855,-3.11961,0.24433,0.77376
538.503,26.56117,-3.11957,0.24575,0.77326
539.203,26.58375,-3.12078,0.24731,0.77275
539.903,26.60635,-3.12154,0.25179,0.77225
540.603,26.62892,-3.12156,0.2533,0.77174
541.303,26.65147,-3.12305,0.25212,0.77124
542.003,26.6741,-3.12295,0.24975,0.77073
542.703,26.69667,-3.12414,0.25102,0.77023
543.403,26.71927,-3.12428,0.25383,0.76972
544.103,26.74186,-3.12565,0.25339,0.76922
544.803,26.7645,-3.12561,0.25477,0.76871
545.503,26.7871,-3.1256,0.25349,0.76821
546.203,26.80968,-3.12691,0.25225,0.7677
546.903,26.83237,-3.12694,0.25556,0.76719
547.603,26.8551,-3.1272,0.25456,0.76669
548.303,26.87773,-3.12827,0.25517,0.76618
549.003,26.90036,-3.12827,0.25716,0.76568
549.703,26.92302,-3.12957,0.25573,0.76517
550.403,26.94558,-3.12966,0.25497,0.76466
551.103,26.96824,-3.1297,0.25705,0.76416
551.803,26.9909,-3.13022,0.26077,0.76365
552.503,27.01357,-3.13096,0.26217,0.76314
553.203,27.03632,-3.13084,0.25581,0.76264
553.903,27.05896,-3.13178,0.25548,0.76213
554.603,27.08165,-3.13217,0.25535,0.76162
555.303,27.1043,-3.13343,0.25845,0.76111
556.003,27.1268,-3.13352,0.25777,0.76061
556.703,27.14953,-3.13352,0.25821,0.7601
557.403,27.17223,-3.13404,0.25696,0.75959
558.103,27.1949,-3.13586,0.25548,0.75908
558.803,27.2176,-3.13659,0.25604,0.75858
559.503,27.2401,-3.13746,0.25675,0.75807
560.203,27.26277,-3.13744,0.257,0.75756
560.903,27.28557,-3.13693,0.25906,0.75705
561.603,27.3084,-3.13735,0.25747,0.75654
562.303,27.33128,-3.13747,0.25838,0.75603
563.003,27.35404,-3.13743,0.25719,0.75553
563.703,27.3768,-3.13871,0.25667,0.75502
564.403,27.3995,-3.13889,0.25675,0.75451
565.103,27.4223,-3.14029,0.25778,0.754
565.803,27.445,-3.14022,0.25571,0.75349
566.503,27.4677,-3.14021,0.25597,0.75298
567.203,27.49049,-3.14058,0.25625,0.75247
567.903,27.5133,-3.14149,0.2561,0.75196
568.603,27.53603,-3.14249,0.2555,0.75145
569.303,27.55882,-3.14283,0.25387,0.75094
570.003,27.5816,-3.1429,0.2516,0.75043
570.703,27.60427,-3.14421,0.25029,0.74992
571.403,27.6271,-3.14417,0.24848,0.74941
572.103,27.64987,-3.14481,0.24895,0.7489
572.803,27.67265,-3.14578,0.24395,0.74839
573.503,27.6955,-3.1458,0.24457,0.74788
574.203,27.7183,-3.14581,0.24213,0.74737
574.903,27.7411,-3.14657,0.24175,0.74686
575.603,27.76397,-3.14625,0.24303,0.74635
576.303,27.7868,-3.14753,0.2389,0.74584
577.003,27.8095,-3.14773,0.23877,0.74533
577.703,27.83237,-3.14874,0.23836,0.74482
578.403,27.8552,-3.14876,0.23781,0.74431
579.103,27.878,-3.14876,0.2346,0.7438
579.803,27.9009,-3.14875,0.23533,0.74328
580.503,27.9238,-3.14973,0.22928,0.74277
581.203,27.9466,-3.1501,0.23316,0.74226
581.903,27.9695,-3.15103,0.22951,0.74175
582.603,27.9924,-3.1514,0.22946,0.74124
583.303,28.0153,-3.15141,0.22759,0.74073
584.003,28.03815,-3.15022,0.22941,0.74021
584.703,28.06105,-3.15008,0.2262,0.7397
585.403,28.0839,-3.15148,0.22689,0.73919
586.103,28.1068,-3.15139,0.22556,0.73868
586.803,28.1296,-3.15138,0.22721,0.73817
587.503,28.1525,-3.15271,0.22278,0.73765
588.203,28.17541,-3.15397,0.22517,0.73714
588.903,28.19834,-3.15523,0.22052,0.73663
589.603,28.22135,-3.15535,0.22397,0.73612
590.303,28.2443,-3.15527,0.22466,0.7356
591.003,28.2672,-3.15671,0.22095,0.73509
591.703,28.2902,-3.15678,0.22326,0.73458
592.403,28.31304,-3.15805,0.22469,0.73406
593.103,28.3359,-3.15809,0.22267,0.73355
593.803,28.35885,-3.15809,0.22114,0.73304
594.503,28.38168,-3.1581,0.21881,0.73252
595.203,28.40454,-3.1575,0.22018,0.73201
595.903,28.42747,-3.15823,0.22007,0.7315
596.603,28.45042,-3.15964,0.21913,0.73098
597.303,28.47346,-3.15965,0.21627,0.73047
598.003,28.4966,-3.16026,0.21498,0.72995
598.703,28.51957,-3.16094,0.21604,0.72944
599.403,28.54246,-3.16094,0.21478,0.72893
600.103,28.56526,-3.16093,0.21663,0.72841
600.803,28.5881,-3.16211,0.21508,0.7279
601.503,28.6109,-3.16225,0.21425,0.72738
602.203,28.63399,-3.16217,0.21181,0.72687
602.903,28.6571,-3.16355,0.21259,0.72635
603.603,28.6802,-3.16357,0.21393,0.72584
604.303,28.70321,-3.16358,0.21078,0.72532
605.003,28.7262,-3.16392,0.21009,0.72481
605.703,28.74918,-3.16489,0.2102,0.72429
606.403,28.7722,-3.16488,0.2074,0.72378
607.103,28.79515,-3.16575,0.20994,0.72326
607.803,28.81808,-3.16619,0.20804,0.72275
608.503,28.841,-3.1662,0.20451,0.72223
609.203,28.86389,-3.16622,0.20616,0.72172
609.903,28.8868,-3.16687,0.20387,0.7212
610.603,28.90983,-3.16752,0.20197,0.72069
611.303,28.9328,-3.16752,0.20259,0.72017
612.003,28.95591,-3.1675,0.19942,0.71965
612.703,28.9789,-3.1697,0.20137,0.71914
613.403,29.0019,-3.16983,0.19776,0.71862
614.103,29.0249,-3.16982,0.19724,0.7181
614.803,29.04771,-3.16981,0.19788,0.71759
615.503,29.07062,-3.16986,0.19366,0.71707
616.203,29.09347,-3.17115,0.19193,0.71656
616.903,29.1165,-3.17113,0.19233,0.71604
617.603,29.1396,-3.17051,0.19,0.71552
618.303,29.1628,-3.16983,0.19011,0.715
619.003,29.186,-3.16982,0.18568,0.71449
619.703,29.20898,-3.16982,0.18559,0.71397
620.403,29.232,-3.16978,0.18472,0.71345
621.103,29.25495,-3.1712,0.18513,0.71294
621.803,29.2779,-3.17298,0.18829,0.71242
622.503,29.301,-3.17481,0.18227,0.7119
623.203,29.324,-3.17616,0.18392,0.71138
623.903,29.3469,-3.17669,0.18121,0.71087
624.603,29.3699,-3.17761,0.17599,0.71035
625.303,29.39296,-3.1776,0.17691,0.70983
626.003,29.416,-3.17856,0.17775,0.70931
626.703,29.4392,-3.17832,0.17597,0.7088
627.403,29.4623,-3.17762,0.17372,0.70828
628.103,29.48527,-3.17809,0.17453,0.70776
628.803,29.5084,-3.17892,0.17148,0.70724
629.503,29.53145,-3.18041,0.17253,0.70672
630.203,29.5545,-3.18159,0.16941,0.7062
630.903,29.5775,-3.18313,0.167,0.70569
631.603,29.6005,-3.18379,0.16712,0.70517
632.303,29.62357,-3.1844,0.16566,0.70465
633.003,29.64671,-3.18454,0.16381,0.70413
633.703,29.66982,-3.18572,0.16193,0.70361
634.403,29.6929,-3.18572,0.15983,0.70309
635.103,29.716,-3.18572,0.15863,0.70257
635.803,29.739,-3.18571,0.15672,0.70205
636.503,29.762,-3.18501,0.15419,0.70154
637.203,29.78505,-3.18507,0.15588,0.70102
637.903,29.8081,-3.18515,0.15446,0.7005
638.603,29.8312,-3.1841,0.15083,0.69998
639.303,29.85425,-3.18408,0.1476,0.69946
640.003,29.8773,-3.18408,0.14658,0.69894
640.703,29.90038,-3.18408,0.14505,0.69842
641.403,29.92345,-3.1843,0.14283,0.6979
642.103,29.9466,-3.18668,0.14421,0.69738
642.803,29.96971,-3.18669,0.14365,0.69686
643.503,29.9928,-3.18804,0.14297,0.69634
644.203,30.0159,-3.18803,0.14306,0.69582
644.903,30.03896,-3.18803,0.13662,0.6953
645.603,30.06206,-3.1885,0.13904,0.69478
646.303,30.08513,-3.189,0.13799,0.69426
647.003,30.1082,-3.18902,0.13699,0.69374
647.703,30.13123,-3.18904,0.1334,0.69322
648.403,30.1543,-3.18792,0.13441,0.6927
649.103,30.17742,-3.18803,0.1318,0.69218
649.803,30.2005,-3.18803,0.1283,0.69165
650.503,30.22358,-3.18803,0.12589,0.69113
651.203,30.24666,-3.18803,0.12574,0.69061
651.903,30.2698,-3.18803,0.12325,0.69009
652.603,30.2929,-3.18803,0.12297,0.68957
653.303,30.31602,-3.18803,0.12684,0.68905
654.003,30.3391,-3.18803,0.12487,0.68853
654.703,30.36216,-3.18809,0.121,0.68801
655.403,30.38523,-3.1884,0.1229,0.68749
656.103,30.40835,-3.18981,0.12249,0.68696
656.803,30.4315,-3.18988,0.11961,0.68644
657.503,30.45458,-3.19113,0.11962,0.68592
658.203,30.47764,-3.19071,0.12028,0.6854
658.903,30.5007,-3.1921,0.12364,0.68488
659.603,30.5237,-3.19213,0.12111,0.68436
660.303,30.5469,-3.19115,0.11718,0.68383
661.003,30.57,-3.1911,0.11666,0.68331
661.703,30.5932,-3.19202,0.11763,0.68279
662.403,30.61634,-3.19241,0.11707,0.68227
663.103,30.6394,-3.19243,0.1146,0.68174
663.803,30.66255,-3.19358,0.11627,0.68122
664.503,30.68566,-3.19374,0.11552,0.6807
665.203,30.7086,-3.19374,0.11501,0.68018
665.903,30.7317,-3.19422,0.11147,0.67965
666.603,30.7547,-3.19503,0.11679,0.67913
667.303,30.7779,-3.19505,0.10894,0.67861
668.003,30.80113,-3.19505,0.11201,0.67809
668.703,30.82439,-3.19499,0.11226,0.67756
669.403,30.84757,-3.19573,0.11094,0.67704
670.103,30.87061,-3.1954,0.10753,0.67652
670.803,30.89381,-3.19602,0.1097,0.67599
671.503,30.9168,-3.19604,0.10869,0.67547
672.203,30.93998,-3.19604,0.11022,0.67495
672.903,30.96309,-3.19604,0.10848,0.67442
673.603,30.9862,-3.19505,0.10949,0.6739
674.303,31.00937,-3.19472,0.10659,0.67338
675.003,31.03245,-3.19472,0.11069,0.67285
675.703,31.0556,-3.19472,0.10801,0.67233
676.403,31.07876,-3.19473,0.10908,0.67181
677.103,31.10192,-3.19586,0.10618,0.67128
677.803,31.12505,-3.19616,0.10902,0.67076
678.503,31.14813,-3.19695,0.1072,0.67024
679.203,31.1712,-3.19746,0.10925,0.66971
679.903,31.1943,-3.19746,0.1092,0.66919
680.603,31.2175,-3.19746,0.10706,0.66866
681.303,31.24063,-3.19746,0.10419,0.66814
682.003,31.26378,-3.19818,0.10769,0.66762
682.703,31.28685,-3.19876,0.10418,0.66709
683.403,31.3098,-3.19878,0.10675,0.66657
684.103,31.33295,-3.19878,0.10454,0.66604
684.803,31.3561,-3.19877,0.1044,0.66552
685.503,31.37932,-3.20005,0.10593,0.66499
686.203,31.40258,-3.2001,0.10379,0.66447
686.903,31.4258,-3.20008,0.10242,0.66394
687.603,31.4489,-3.20134,0.10034,0.66342
688.303,31.47205,-3.20142,0.1044,0.66289
689.003,31.49526,-3.20141,0.10636,0.66237
689.703,31.51845,-3.20141,0.10231,0.66185
690.403,31.54165,-3.20143,0.10468,0.66132
691.103,31.5649,-3.20052,0.10586,0.6608
691.803,31.58805,-3.20061,0.10285,0.66027
692.503,31.61119,-3.20173,0.10433,0.65974
693.203,31.63435,-3.20174,0.10193,0.65922
693.903,31.65755,-3.20174,0.10503,0.65869
694.603,31.6807,-3.20174,0.10432,0.65817
695.303,31.704,-3.20174,0.10159,0.65764
696.003,31.7272,-3.20174,0.10042,0.65712
696.703,31.75038,-3.20174,0.10399,0.65659
697.403,31.7736,-3.20204,0.1054,0.65607
698.103,31.79676,-3.20305,0.10094,0.65554
698.803,31.81997,-3.20305,0.10399,0.65502
699.503,31.84323,-3.20305,0.10136,0.65449
700.203,31.86645,-3.20305,0.10314,0.65396
700.903,31.88969,-3.20305,0.10552,0.65344
701.603,31.9129,-3.20305,0.10066,0.65291
702.303,31.936,-3.20305,0.09765446,0.65239
703.003,31.9591,-3.20303,0.10089,0.65186
703.703,31.98217,-3.20337,0.10032,0.65133
704.403,32.0054,-3.20338,0.09741495,0.65081
705.103,32.0287,-3.20338,0.0955657,0.65028
705.803,32.05212,-3.20338,0.09735461,0.64976
706.503,32.07557,-3.20338,0.09856105,0.64923
707.203,32.09884,-3.20338,0.09406987,0.6487
707.903,32.12212,-3.2034,0.09552411,0.64818
708.603,32.1454,-3.20313,0.09673595,0.64765
709.303,32.1687,-3.20405,0.09690404,0.64712
710.003,32.19195,-3.20403,0.09379592,0.6466
710.703,32.21525,-3.20355,0.09539052,0.64607
711.403,32.2385,-3.20273,0.09417522,0.64554
712.103,32.2618,-3.20273,0.09593009,0.64502
712.803,32.2851,-3.20275,0.09751363,0.64449
713.503,32.30839,-3.20355,0.09662536,0.64396
714.203,32.33165,-3.20415,0.09690912,0.64344
714.903,32.35498,-3.20441,0.09522124,0.64291
715.603,32.37826,-3.20526,0.10034,0.64238
716.303,32.40149,-3.20449,0.09641428,0.64185
717.003,32.4246,-3.20448,0.0964189,0.64133
717.703,32.44769,-3.20448,0.0944069,0.6408
718.403,32.47085,-3.20447,0.09337119,0.64027
719.103,32.49407,-3.20547,0.09254119,0.63975
719.803,32.51748,-3.20579,0.09018914,0.63922
720.503,32.541,-3.2058,0.08863299,0.63869
721.203,32.56452,-3.2058,0.09218473,0.63816
721.903,32.588,-3.2058,0.09572508,0.63764
722.603,32.61142,-3.20626,0.09480446,0.63711
723.303,32.63466,-3.20709,0.09502787,0.63658
724.003,32.658,-3.20711,0.08902222,0.63605
724.703,32.6813,-3.20711,0.09116928,0.63553
725.403,32.70467,-3.20793,0.08666287,0.635
726.103,32.72807,-3.20842,0.09193085,0.63447
726.803,32.75141,-3.20843,0.0932527,0.63394
727.503,32.77472,-3.20841,0.08977847,0.63341
728.203,32.798,-3.20932,0.09241051,0.63289
728.903,32.82132,-3.20941,0.09151144,0.63236
729.603,32.84462,-3.20935,0.09399016,0.63183
730.303,32.8679,-3.20806,0.09066133,0.6313
731.003,32.8913,-3.2081,0.08870163,0.63077
731.703,32.9147,-3.2081,0.09248935,0.63025
732.403,32.93812,-3.2081,0.08954846,0.62972
733.103,32.96155,-3.2081,0.09349665,0.62919
733.803,32.98496,-3.2081,0.097353,0.62866
734.503,33.0084,-3.2081,0.09336102,0.62813
735.203,33.03168,-3.2081,0.08845864,0.62761
735.903,33.05505,-3.2081,0.08736578,0.62708
736.603,33.07844,-3.20832,0.0862739,0.62655
737.303,33.10181,-3.2094,0.08801365,0.62602
738.003,33.12508,-3.20942,0.08813549,0.62549
738.703,33.14835,-3.20963,0.08641393,0.62496
739.403,33.17176,-3.21072,0.08617486,0.62443
740.103,33.1952,-3.21074,0.08903354,0.62391
740.803,33.21866,-3.21074,0.08721356,0.62338
741.503,33.2422,-3.21128,0.08826493,0.62285
742.203,33.26559,-3.21203,0.0848833,0.62232
742.903,33.28898,-3.21205,0.08061638,0.62179
743.603,33.31241,-3.21205,0.08747398,0.62126
744.303,33.33573,-3.21205,0.08249196,0.62073
745.003,33.35911,-3.21205,0.08354839,0.6202
745.703,33.3825,-3.21346,0.08632488,0.61968
746.403,33.40595,-3.21338,0.08437945,0.61915
747.103,33.42933,-3.21337,0.08841334,0.61862
747.803,33.45275,-3.21337,0.08683857,0.61809
748.503,33.47617,-3.21337,0.08346384,0.61756
749.203,33.4996,-3.21337,0.08280691,0.61703
749.903,33.52298,-3.21478,0.08237656,0.6165
750.603,33.54637,-3.2147,0.08199327,0.61597
751.303,33.56978,-3.21469,0.08411071,0.61544
752.003,33.59326,-3.21469,0.08130562,0.61491
752.703,33.61668,-3.21468,0.08517256,0.61439
753.403,33.64015,-3.21468,0.08000298,0.61386
754.103,33.66364,-3.21468,0.08075854,0.61333
754.803,33.68705,-3.21473,0.07633776,0.6128
755.503,33.71063,-3.21334,0.08062185,0.61227
756.203,33.734,-3.2141,0.08098802,0.61174
756.903,33.75728,-3.21467,0.07687434,0.61121
757.603,33.78076,-3.21463,0.07728398,0.61068
758.303,33.8042,-3.21336,0.07368376,0.61015
759.003,33.8277,-3.21337,0.07533637,0.60962
759.703,33.8512,-3.21337,0.07353377,0.60909
760.403,33.87473,-3.21331,0.07309862,0.60856
761.103,33.8982,-3.21434,0.07464694,0.60803
761.803,33.92168,-3.21436,0.07290102,0.6075
762.503,33.94512,-3.21436,0.07191951,0.60697
763.203,33.96852,-3.21436,0.0703571,0.60644
763.903,33.99198,-3.21435,0.07314429,0.60591
764.603,34.01548,-3.21384,0.07131385,0.60538
765.303,34.0389,-3.21304,0.07360697,0.60486
766.003,34.0625,-3.21304,0.07084763,0.60433
766.703,34.0859,-3.21307,0.06983795,0.6038
767.403,34.1094,-3.21408,0.07335846,0.60327
768.103,34.13284,-3.21524,0.0714161,0.60274
768.803,34.15627,-3.21642,0.07123525,0.60221
769.503,34.17975,-3.21765,0.06966099,0.60168
770.203,34.20315,-3.2193,0.07040383,0.60115
770.903,34.22665,-3.21919,0.06788561,0.60062
771.603,34.2501,-3.21918,0.07038677,0.60009
772.303,34.2734,-3.21922,0.06834604,0.59956
773.003,34.29677,-3.21801,0.06728082,0.59903
773.703,34.32022,-3.21786,0.06924498,0.5985
774.403,34.34373,-3.21793,0.0719854,0.59797
775.103,34.36736,-3.21657,0.06838217,0.59744
775.803,34.3909,-3.21655,0.06892833,0.59691
776.503,34.41426,-3.2166,0.06831347,0.59638
777.203,34.4377,-3.21559,0.06965799,0.59585
777.903,34.46114,-3.21556,0.06807622,0.59532
778.603,34.48457,-3.21555,0.06351024,0.59479
779.303,34.50805,-3.21548,0.06211124,0.59426
780.003,34.53151,-3.21688,0.06651891,0.59373
780.703,34.555,-3.21687,0.06630399,0.5932
781.403,34.57853,-3.21687,0.06755089,0.59267
782.103,34.60199,-3.21688,0.06794558,0.59214
782.803,34.62545,-3.21827,0.06720108,0.59161
783.503,34.64894,-3.21819,0.06834462,0.59108
784.203,34.67237,-3.21819,0.06833187,0.59055
784.903,34.69571,-3.21818,0.06918504,0.59002
785.603,34.7192,-3.21945,0.06914377,0.58949
786.303,34.74259,-3.21952,0.06693618,0.58896
787.003,34.76605,-3.21956,0.06326495,0.58843
787.703,34.78969,-3.21819,0.06563912,0.5879
788.403,34.8131,-3.21955,0.06423545,0.58737
789.103,34.83655,-3.2195,0.06712443,0.58684
789.803,34.86012,-3.21984,0.06234102,0.58631
790.503,34.88367,-3.22079,0.06386955,0.58578
791.203,34.90726,-3.22082,0.06308335,0.58525
791.903,34.9308,-3.22042,0.05902446,0.58471
792.603,34.95426,-3.22031,0.05838085,0.58418
793.303,34.97765,-3.22082,0.06052791,0.58365
793.903,34.9979,-3.22083,0.06041337,0.5832