File: 01_Data/Pallet_Wood/STA/N2/30K_min/Pallet_Wood_STA_N2_30KData_220413_R2.csv
##Temp./Â°C,Time/min,Mass loss(subtr.2)/mg,DSC(subtr.2)/(mW/mg),Sensit./(uV/mW)
48.381,10.01,-0.00197,0.006861651,1.07511
49.081,10.55892,-0.00148673,0.0418855,1.0748
49.781,10.6831,0.0006690161,0.07424793,1.07449
50.481,10.7729,-0.0002588737,0.10318,1.07418
51.181,10.8462,-0.001709971,0.12875,1.07387
51.881,10.90885,-0.001243134,0.1543,1.07356
52.581,10.9657,-0.001443616,0.17822,1.07325
53.281,11.01712,-0.0009337673,0.20212,1.07294
53.981,11.06476,-0.000713162,0.22097,1.07263
54.681,11.11009,0.0004500442,0.24027,1.07232
55.381,11.15274,0.0001230452,0.2611,1.072
56.081,11.1934,-0.0002843455,0.27737,1.07169
56.781,11.23223,0.0009429194,0.29319,1.07138
57.481,11.26958,0.00139469,0.31071,1.07106
58.181,11.30587,0.00265808,0.32628,1.07075
58.881,11.34092,0.001979883,0.34205,1.07043
59.581,11.37523,0.001980496,0.35544,1.07011
60.281,11.4086,0.0008975761,0.37013,1.0698
60.981,11.4412,-0.0004611926,0.38457,1.06948
61.681,11.47317,-0.001480907,0.39883,1.06916
62.381,11.5045,-0.00266362,0.41158,1.06884
63.081,11.5353,-0.002623866,0.42197,1.06852
63.781,11.56548,-0.002445034,0.43673,1.06821
64.481,11.5954,-0.0008882587,0.44801,1.06789
65.181,11.62475,-0.000596994,0.46278,1.06756
65.881,11.65386,-0.001031822,0.47214,1.06724
66.581,11.68248,-0.00179487,0.48166,1.06692
67.281,11.71087,-0.002215321,0.49311,1.0666
67.981,11.73896,-0.001850187,0.50615,1.06628
68.681,11.7667,-0.000926367,0.51461,1.06595
69.381,11.79418,-0.000745804,0.52605,1.06563
70.081,11.82155,-0.001688225,0.53679,1.06531
70.781,11.84877,-0.00150724,0.54563,1.06498
71.481,11.8758,-0.0005055091,0.55513,1.06466
72.181,11.90255,0.0005667086,0.5614,1.06433
72.881,11.9292,0.000688404,0.57038,1.064
73.581,11.95567,0.0004958919,0.58185,1.06368
74.281,11.98201,-0.0004753034,0.59126,1.06335
74.981,12.00815,-0.00167259,0.60083,1.06302
75.681,12.03417,-0.001951082,0.6096,1.06269
76.381,12.06006,-0.003400675,0.61804,1.06236
77.081,12.08588,-0.0024389,0.62572,1.06203
77.781,12.1115,-0.002212965,0.63343,1.0617
78.481,12.137,-0.003211505,0.64248,1.06137
79.181,12.16237,-0.003720459,0.64894,1.06104
79.881,12.18764,-0.003547711,0.65829,1.06071
80.581,12.21291,-0.003452672,0.66676,1.06038
81.281,12.23807,-0.00352335,0.67472,1.06005
81.981,12.26321,-0.003619295,0.68061,1.05971
82.681,12.28815,-0.004605654,0.68749,1.05938
83.381,12.31302,-0.00353262,0.69536,1.05904
84.081,12.33785,-0.0034116,0.7034,1.05871
84.781,12.36255,-0.00399741,0.71156,1.05837
85.481,12.38734,-0.004846104,0.71659,1.05804
86.181,12.41191,-0.004853215,0.72219,1.0577
86.881,12.43646,-0.004723995,0.73081,1.05737
87.581,12.46089,-0.006153465,0.73727,1.05703
88.281,12.48532,-0.006359905,0.74127,1.05669
88.981,12.50965,-0.00688241,0.7477,1.05635
89.681,12.53392,-0.007754252,0.75478,1.05601
90.381,12.55821,-0.009478561,0.76085,1.05568
91.081,12.5823,-0.008115959,0.76252,1.05534
91.781,12.60647,-0.00812888,0.76795,1.055
92.481,12.63057,-0.008450532,0.7734,1.05466
93.181,12.65456,-0.008441796,0.77873,1.05431
93.881,12.6786,-0.008433993,0.78401,1.05397
94.581,12.7026,-0.009281132,0.78487,1.05363
95.281,12.7266,-0.008056818,0.7897,1.05329
95.981,12.7506,-0.009446044,0.79396,1.05294
96.681,12.7745,-0.009433824,0.79505,1.0526
97.381,12.79832,-0.009431493,0.79885,1.05226
98.081,12.82214,-0.009964193,0.80115,1.05191
98.781,12.84585,-0.01071901,0.80335,1.05157
99.481,12.86965,-0.01074026,0.80531,1.05122
100.181,12.8934,-0.01141139,0.80622,1.05088
100.881,12.9171,-0.01204097,0.80732,1.05053
101.581,12.94077,-0.01208673,0.80765,1.05018
102.281,12.96441,-0.01343066,0.81149,1.04984
102.981,12.98813,-0.01338132,0.81047,1.04949
103.681,13.01182,-0.01338031,0.80938,1.04914
104.381,13.03551,-0.01339427,0.80952,1.04879
105.081,13.05921,-0.01397717,0.81084,1.04844
105.781,13.08283,-0.0144483,0.81044,1.04809
106.481,13.10646,-0.01336431,0.80656,1.04774
107.181,13.13004,-0.01336998,0.80627,1.04739
107.881,13.15351,-0.01333274,0.8038,1.04704
108.581,13.1771,-0.01456064,0.8018,1.04669
109.281,13.2007,-0.01469288,0.803,1.04634
109.981,13.2241,-0.01489501,0.80135,1.04598
110.681,13.2477,-0.01603426,0.79779,1.04563
111.381,13.2712,-0.01600634,0.79592,1.04528
112.081,13.29461,-0.01673932,0.79436,1.04492
112.781,13.31805,-0.01861755,0.79496,1.04457
113.481,13.34145,-0.01863876,0.7904,1.04421
114.181,13.36485,-0.01855113,0.78546,1.04386
114.881,13.3884,-0.01995577,0.78351,1.0435
115.581,13.4118,-0.01856698,0.78076,1.04315
116.281,13.4352,-0.01863363,0.78079,1.04279
116.981,13.45849,-0.01863986,0.77595,1.04243
117.681,13.4817,-0.01864001,0.77467,1.04207
118.381,13.50496,-0.01864,0.77306,1.04172
119.081,13.5283,-0.01863998,0.76849,1.04136
119.781,13.55146,-0.01864048,0.76631,1.041
120.481,13.57475,-0.0186618,0.7646,1.04064
121.181,13.59805,-0.0194237,0.76076,1.04028
121.881,13.62135,-0.01886939,0.75884,1.03992
122.581,13.64453,-0.01864177,0.75628,1.03956
123.281,13.6676,-0.01864006,0.75566,1.0392
123.981,13.69067,-0.01864,0.75363,1.03884
124.681,13.71367,-0.01864,0.7516,1.03847
125.381,13.73676,-0.01864,0.74976,1.03811
126.081,13.75981,-0.01864,0.74959,1.03775
126.781,13.7828,-0.01864,0.74695,1.03739
127.481,13.80582,-0.01864,0.7461,1.03702
128.181,13.82876,-0.01864003,0.74508,1.03666
128.881,13.85166,-0.01863925,0.74407,1.03629
129.581,13.87456,-0.01861109,0.7439,1.03593
130.281,13.89742,-0.0190207,0.74356,1.03556
130.981,13.9203,-0.01864139,0.74321,1.0352
131.681,13.9431,-0.01864512,0.7425,1.03483
132.381,13.9659,-0.01767989,0.74042,1.03446
133.081,13.9886,-0.01732462,0.73892,1.0341
133.781,14.01121,-0.01736424,0.74144,1.03373
134.481,14.0338,-0.01869166,0.7414,1.03336
135.181,14.0565,-0.01864262,0.74276,1.03299
135.881,14.0791,-0.01864004,0.74309,1.03262
136.581,14.10174,-0.01864001,0.74137,1.03225
137.281,14.12437,-0.01864042,0.74167,1.03188
137.981,14.1469,-0.01864671,0.74121,1.03151
138.681,14.1695,-0.01866661,0.744,1.03114
139.381,14.1921,-0.01731846,0.74089,1.03077
140.081,14.2146,-0.01709254,0.74542,1.0304
140.781,14.2371,-0.01597954,0.74431,1.03003
141.481,14.25955,-0.01600972,0.74753,1.02965
142.181,14.2821,-0.01601006,0.74596,1.02928
142.881,14.30446,-0.01601,0.75017,1.02891
143.581,14.327,-0.01601,0.74929,1.02853
144.281,14.3493,-0.01601,0.75137,1.02816
144.981,14.3716,-0.01601,0.75485,1.02779
145.681,14.39393,-0.01600997,0.75164,1.02741
146.381,14.4163,-0.01600948,0.7539,1.02704
147.081,14.43851,-0.01600523,0.7554,1.02666
147.781,14.46079,-0.01735883,0.75747,1.02628
148.481,14.48306,-0.01734465,0.75976,1.02591
149.181,14.5054,-0.01884844,0.75963,1.02553
149.881,14.5277,-0.01876573,0.76266,1.02515
150.581,14.54989,-0.01940062,0.76401,1.02478
151.281,14.57213,-0.02005437,0.76893,1.0244
151.981,14.59418,-0.0202683,0.77094,1.02402
152.681,14.61636,-0.02141791,0.7705,1.02364
153.381,14.63858,-0.021381,0.7747,1.02326
154.081,14.66071,-0.02137997,0.77489,1.02288
154.781,14.683,-0.02137999,0.77718,1.0225
155.481,14.705,-0.02137999,0.78044,1.02212
156.181,14.7272,-0.0213799,0.77986,1.02174
156.881,14.7493,-0.02137945,0.78476,1.02136
157.581,14.7713,-0.02093649,0.78322,1.02098
158.281,14.7935,-0.02007708,0.78681,1.02059
158.981,14.8155,-0.01951408,0.78929,1.02021
159.681,14.8376,-0.01879267,0.79166,1.01983
160.381,14.8597,-0.01821269,0.79363,1.01944
161.081,14.8816,-0.01708778,0.79331,1.01906
161.781,14.90339,-0.01676201,0.79638,1.01868
162.481,14.9254,-0.01526474,0.79939,1.01829
163.181,14.9473,-0.01536245,0.80275,1.01791
163.881,14.96941,-0.01539031,0.80369,1.01752
164.581,14.9917,-0.01403506,0.80648,1.01714
165.281,15.0137,-0.01404789,0.80838,1.01675
165.981,15.0356,-0.01425386,0.81004,1.01636
166.681,15.05754,-0.01415855,0.81254,1.01598
167.381,15.0794,-0.01517856,0.81466,1.01559
168.081,15.10125,-0.01569015,0.81629,1.0152
168.781,15.1231,-0.01735326,0.82175,1.01481
169.481,15.145,-0.01835965,0.82258,1.01443
170.181,15.1668,-0.01901202,0.8258,1.01404
170.881,15.1886,-0.01929245,0.82706,1.01365
171.581,15.2104,-0.01930016,0.83071,1.01326
172.281,15.2323,-0.01930277,0.83144,1.01287
172.981,15.25415,-0.01855137,0.83415,1.01248
173.681,15.276,-0.01801076,0.83507,1.01209
174.381,15.29774,-0.01799085,0.83733,1.0117
175.081,15.3195,-0.01799004,0.8411,1.0113
175.781,15.34128,-0.01798845,0.84502,1.01091
176.481,15.36311,-0.01862094,0.84567,1.01052
177.181,15.38478,-0.01927167,0.84923,1.01013
177.881,15.40652,-0.0203909,0.85074,1.00974
178.581,15.42825,-0.02070449,0.85239,1.00934
179.281,15.4499,-0.02071546,0.85487,1.00895
179.981,15.4717,-0.02168912,0.85837,1.00855
180.681,15.4933,-0.02170669,0.85971,1.00816
181.381,15.5149,-0.02168594,0.86246,1.00777
182.081,15.5365,-0.02107795,0.86753,1.00737
182.781,15.5581,-0.02038732,0.86876,1.00697
183.481,15.57965,-0.02038997,0.8682,1.00658
184.181,15.6013,-0.02038973,0.8703,1.00618
184.881,15.6228,-0.0203809,0.87481,1.00579
185.581,15.64429,-0.02014871,0.87645,1.00539
186.281,15.6658,-0.01939594,0.88004,1.00499
186.981,15.68725,-0.01940933,0.87922,1.00459
187.681,15.7087,-0.01940999,0.88483,1.0042
188.381,15.7302,-0.01940997,0.88618,1.0038
189.081,15.7517,-0.01940555,0.88925,1.0034
189.781,15.77311,-0.01926813,0.89182,1.003
190.481,15.7946,-0.01805009,0.89269,1.0026
191.181,15.81605,-0.01809713,0.89573,1.0022
191.881,15.8375,-0.01809987,0.89705,1.0018
192.581,15.8589,-0.01809997,0.90059,1.0014
193.281,15.8804,-0.01810016,0.90231,1.001
193.981,15.9019,-0.01811171,0.90355,1.0006
194.681,15.92325,-0.01770922,0.90425,1.0002
195.381,15.94467,-0.01812192,0.90712,0.9998
196.081,15.96609,-0.01809185,0.90868,0.99939
196.781,15.98749,-0.01809005,0.91343,0.99899
197.481,16.00882,-0.01808972,0.91474,0.99859
198.181,16.0302,-0.01809071,0.91759,0.99818
198.881,16.05143,-0.01819031,0.91939,0.99778
199.581,16.07273,-0.01941646,0.92183,0.99738
200.281,16.09405,-0.0194101,0.92381,0.99697
200.981,16.11535,-0.01940339,0.92747,0.99657
201.681,16.1367,-0.01931544,0.93097,0.99616
202.381,16.15803,-0.02070703,0.93283,0.99576
203.081,16.17936,-0.02071978,0.9338,0.99535
203.781,16.2008,-0.02072001,0.93666,0.99495
204.481,16.2221,-0.02072,0.93814,0.99454
205.181,16.24344,-0.02072,0.93957,0.99413
205.881,16.26482,-0.02072,0.9443,0.99373
206.581,16.2862,-0.02071996,0.94554,0.99332
207.281,16.3075,-0.02071955,0.94836,0.99291
207.981,16.32886,-0.02071623,0.95276,0.9925
208.681,16.3502,-0.02205088,0.95199,0.9921
209.381,16.37146,-0.02204458,0.95569,0.99169
210.081,16.3928,-0.02204048,0.95654,0.99128
210.781,16.41402,-0.02204014,0.96124,0.99087
211.481,16.4353,-0.0220418,0.9626,0.99046
212.181,16.45658,-0.02215969,0.96339,0.99005
212.881,16.478,-0.02339894,0.96561,0.98964
213.581,16.49928,-0.02336088,0.967,0.98923
214.281,16.52066,-0.02335996,0.96828,0.98882
214.981,16.54196,-0.02336018,0.97357,0.98841
215.681,16.56317,-0.02336441,0.977,0.98799
216.381,16.5844,-0.02347102,0.97761,0.98758
217.081,16.6056,-0.02404207,0.98094,0.98717
217.781,16.62678,-0.02401761,0.98313,0.98676
218.481,16.64811,-0.02398061,0.98286,0.98634
219.181,16.66943,-0.02531081,0.98808,0.98593
219.881,16.69076,-0.02533151,0.99131,0.98552
220.581,16.71198,-0.02533022,0.99302,0.9851
221.281,16.73319,-0.0253301,0.99592,0.98469
221.981,16.75439,-0.0253316,0.99701,0.98428
222.681,16.77553,-0.02535532,1.00162,0.98386
223.381,16.79683,-0.0259986,1.00261,0.98345
224.081,16.81801,-0.02665279,1.00652,0.98303
224.781,16.83908,-0.02665055,1.0078,0.98261
225.481,16.86015,-0.02664877,1.01099,0.9822
226.181,16.88119,-0.02740942,1.01315,0.98178
226.881,16.90241,-0.02797025,1.0151,0.98136
227.581,16.92377,-0.02829128,1.01885,0.98095
228.281,16.94521,-0.0292859,1.02117,0.98053
228.981,16.96667,-0.02927306,1.02403,0.98011
229.681,16.98798,-0.03044968,1.02699,0.97969
230.381,17.00915,-0.0306021,1.03051,0.97928
231.081,17.0303,-0.03128323,1.03448,0.97886
231.781,17.05144,-0.03190096,1.03564,0.97844
232.481,17.0726,-0.0319057,1.03907,0.97802
233.181,17.09371,-0.03262272,1.0412,0.9776
233.881,17.1149,-0.0332181,1.04662,0.97718
234.581,17.13598,-0.03356457,1.04921,0.97676
235.281,17.1571,-0.03460329,1.05228,0.97634
235.981,17.1784,-0.03536705,1.05527,0.97592
236.681,17.19961,-0.03595139,1.05966,0.9755
237.381,17.22083,-0.03740279,1.0622,0.97508
238.081,17.24211,-0.03835061,1.06395,0.97466
238.781,17.26325,-0.03933923,1.06974,0.97423
239.481,17.2844,-0.03941853,1.07005,0.97381
240.181,17.3055,-0.04078788,1.07566,0.97339
240.881,17.3267,-0.04108533,1.07851,0.97297
241.581,17.3478,-0.04203183,1.0798,0.97254
242.281,17.36903,-0.04200737,1.08195,0.97212
242.981,17.3902,-0.04202175,1.08424,0.9717
243.681,17.41131,-0.04332482,1.089,0.97127
244.381,17.43246,-0.0433385,1.08955,0.97085
245.081,17.45359,-0.04474515,1.09531,0.97042
245.781,17.47481,-0.04486848,1.09624,0.97
246.481,17.496,-0.04611502,1.09962,0.96957
247.181,17.51719,-0.04786561,1.10092,0.96915
247.881,17.53833,-0.04921779,1.10354,0.96872
248.581,17.5595,-0.04932933,1.10696,0.9683
249.281,17.5807,-0.0508916,1.10979,0.96787
249.981,17.60185,-0.05286484,1.11154,0.96744
250.681,17.62305,-0.05373084,1.11382,0.96702
251.381,17.6442,-0.05430459,1.11542,0.96659
252.081,17.6654,-0.05577224,1.1216,0.96616
252.781,17.68644,-0.05703029,1.12332,0.96573
253.481,17.70757,-0.05767382,1.12583,0.96531
254.181,17.72866,-0.05876026,1.12936,0.96488
254.881,17.7497,-0.05956595,1.12986,0.96445
255.581,17.77084,-0.06052154,1.13534,0.96402
256.281,17.79196,-0.06153248,1.1371,0.96359
256.981,17.81308,-0.06262412,1.14064,0.96316
257.681,17.8342,-0.0643328,1.14315,0.96273
258.381,17.8553,-0.0662722,1.14551,0.9623
259.081,17.8764,-0.06804716,1.14732,0.96187
259.781,17.89752,-0.0708632,1.15065,0.96144
260.481,17.91862,-0.07213121,1.15169,0.96101
261.181,17.93971,-0.0734607,1.15381,0.96058
261.881,17.9608,-0.07531346,1.1559,0.96015
262.581,17.98186,-0.07719022,1.15844,0.95972
263.281,18.00292,-0.07918876,1.16174,0.95929
263.981,18.02405,-0.08163067,1.16273,0.95885
264.681,18.0452,-0.08404654,1.16632,0.95842
265.381,18.06638,-0.08621484,1.16768,0.95799
266.081,18.08749,-0.08859248,1.17022,0.95755
266.781,18.1086,-0.0905172,1.17082,0.95712
267.481,18.12971,-0.09264509,1.173,0.95669
268.181,18.15086,-0.09495571,1.17586,0.95625
268.881,18.172,-0.09705507,1.17823,0.95582
269.581,18.1931,-0.09972929,1.17998,0.95539
270.281,18.2142,-0.10245,1.18157,0.95495
270.981,18.23526,-0.10498,1.18519,0.95452
271.681,18.25633,-0.10724,1.18597,0.95408
272.381,18.27744,-0.10974,1.18654,0.95365
273.081,18.29852,-0.11214,1.18876,0.95321
273.781,18.31962,-0.11575,1.18879,0.95277
274.481,18.3408,-0.12012,1.19479,0.95234
275.181,18.36189,-0.12318,1.19505,0.9519
275.881,18.38304,-0.12572,1.19917,0.95146
276.581,18.40417,-0.12878,1.20097,0.95103
277.281,18.4253,-0.13158,1.20419,0.95059
277.981,18.44631,-0.1345,1.20529,0.95015
278.681,18.46738,-0.13698,1.20714,0.94971
279.381,18.48842,-0.13998,1.21197,0.94928
280.081,18.5095,-0.14405,1.21554,0.94884
280.781,18.5307,-0.1484,1.21719,0.9484
281.481,18.55191,-0.15263,1.22203,0.94796
282.181,18.57311,-0.15553,1.22093,0.94752
282.881,18.59424,-0.15964,1.22807,0.94708
283.581,18.61534,-0.1641,1.23209,0.94664
284.281,18.6365,-0.1693,1.23295,0.9462
284.981,18.6576,-0.17446,1.23456,0.94576
285.681,18.67875,-0.17977,1.23789,0.94532
286.381,18.69989,-0.18456,1.24342,0.94488
287.081,18.721,-0.19008,1.24871,0.94444
287.781,18.7422,-0.19583,1.2497,0.944
288.481,18.76332,-0.20122,1.25404,0.94356
289.181,18.78448,-0.2069,1.25592,0.94312
289.881,18.80569,-0.21219,1.26175,0.94267
290.581,18.82686,-0.22056,1.26315,0.94223
291.281,18.84795,-0.22674,1.2666,0.94179
291.981,18.86909,-0.234,1.26881,0.94135
292.681,18.89023,-0.23995,1.27185,0.9409
293.381,18.91139,-0.24768,1.27109,0.94046
294.081,18.9326,-0.25428,1.27562,0.94002
294.781,18.95381,-0.2625,1.27865,0.93957
295.481,18.97504,-0.26914,1.27979,0.93913
296.181,18.99618,-0.27703,1.28099,0.93869
296.881,19.0173,-0.2838,1.28306,0.93824
297.581,19.03847,-0.29184,1.28505,0.9378
298.281,19.05954,-0.29935,1.28504,0.93735
298.981,19.08072,-0.30746,1.2837,0.93691
299.681,19.10192,-0.31523,1.28476,0.93646
300.381,19.12311,-0.32329,1.28544,0.93602
301.081,19.1443,-0.33235,1.28228,0.93557
301.781,19.16549,-0.34052,1.28459,0.93512
302.481,19.18664,-0.34972,1.28299,0.93468
303.181,19.20782,-0.35755,1.28154,0.93423
303.881,19.2289,-0.36771,1.28037,0.93378
304.581,19.25005,-0.37624,1.27919,0.93334
305.281,19.27125,-0.38698,1.27895,0.93289
305.981,19.2924,-0.39639,1.27783,0.93244
306.681,19.3137,-0.40862,1.27531,0.93199
307.381,19.33486,-0.41876,1.27373,0.93155
308.081,19.35605,-0.43034,1.26933,0.9311
308.781,19.37731,-0.43965,1.26875,0.93065
309.481,19.39852,-0.45011,1.26475,0.9302
310.181,19.41974,-0.46052,1.26562,0.92975
310.881,19.44095,-0.47149,1.26346,0.9293
311.581,19.46216,-0.48208,1.2598,0.92885
312.281,19.48339,-0.49241,1.25836,0.9284
312.981,19.50451,-0.50312,1.25545,0.92795
313.681,19.5257,-0.51338,1.25363,0.9275
314.381,19.54691,-0.52527,1.25355,0.92705
315.081,19.56805,-0.53524,1.25012,0.9266
315.781,19.58929,-0.5476,1.25082,0.92615
316.481,19.61056,-0.55763,1.24712,0.9257
317.181,19.63167,-0.57147,1.24841,0.92525
317.881,19.65297,-0.5816,1.24602,0.9248
318.581,19.67407,-0.59348,1.24526,0.92435
319.281,19.69527,-0.60321,1.24317,0.92389
319.981,19.71651,-0.61529,1.23948,0.92344
320.681,19.73769,-0.62597,1.24273,0.92299
321.381,19.75901,-0.63814,1.24049,0.92254
322.081,19.78035,-0.64945,1.2405,0.92208
322.781,19.8017,-0.66052,1.2402,0.92163
323.481,19.823,-0.67211,1.24143,0.92118
324.181,19.8443,-0.68347,1.24008,0.92072
324.881,19.8656,-0.69601,1.2402,0.92027
325.581,19.88682,-0.70636,1.24227,0.91982
326.281,19.90812,-0.71964,1.24254,0.91936
326.981,19.92942,-0.73137,1.24413,0.91891
327.681,19.95072,-0.74597,1.2469,0.91845
328.381,19.97201,-0.75698,1.24931,0.918
329.081,19.99323,-0.77026,1.25274,0.91754
329.781,20.01451,-0.78092,1.25447,0.91709
330.481,20.03578,-0.79395,1.25923,0.91663
331.181,20.0571,-0.80567,1.26235,0.91618
331.881,20.0784,-0.81897,1.26478,0.91572
332.581,20.09968,-0.82957,1.27106,0.91526
333.281,20.12102,-0.84177,1.274,0.91481
333.981,20.14239,-0.85429,1.27887,0.91435
334.681,20.16379,-0.86666,1.2833,0.91389
335.381,20.18519,-0.88033,1.28888,0.91344
336.081,20.2065,-0.89213,1.29328,0.91298
336.781,20.22785,-0.9057,1.29749,0.91252
337.481,20.24921,-0.91746,1.3072,0.91206
338.181,20.27052,-0.93288,1.31444,0.91161
338.881,20.2919,-0.94501,1.32051,0.91115
339.581,20.3132,-0.95907,1.32845,0.91069
340.281,20.3345,-0.97059,1.33578,0.91023
340.981,20.35578,-0.98497,1.34294,0.90977
341.681,20.37715,-0.99785,1.35241,0.90931
342.381,20.39837,-1.01221,1.35479,0.90885
343.081,20.41976,-1.0256,1.36206,0.9084
343.781,20.44125,-1.03926,1.37387,0.90794
344.481,20.4627,-1.0528,1.382,0.90748
345.181,20.48425,-1.06562,1.39321,0.90702
345.881,20.50572,-1.08051,1.40608,0.90656
346.581,20.5272,-1.09348,1.41581,0.9061
347.281,20.54855,-1.10912,1.42462,0.90563
347.981,20.57001,-1.12166,1.43373,0.90517
348.681,20.59145,-1.13716,1.44246,0.90471
349.381,20.6129,-1.14977,1.45506,0.90425
350.081,20.6344,-1.16509,1.46565,0.90379
350.781,20.65577,-1.17811,1.47905,0.90333
351.481,20.6772,-1.19394,1.48979,0.90287
352.181,20.69858,-1.20815,1.50228,0.9024
352.881,20.72002,-1.22312,1.51529,0.90194
353.581,20.74149,-1.23824,1.52782,0.90148
354.281,20.76298,-1.25322,1.54085,0.90102
354.981,20.78448,-1.26944,1.55573,0.90055
355.681,20.806,-1.28431,1.56868,0.90009
356.381,20.82754,-1.30189,1.5844,0.89963
357.081,20.84909,-1.31604,1.60019,0.89916
357.781,20.87063,-1.33281,1.61547,0.8987
358.481,20.89216,-1.34724,1.63347,0.89824
359.181,20.9137,-1.36546,1.64808,0.89777
359.881,20.93524,-1.38062,1.66294,0.89731
360.581,20.95683,-1.39874,1.67907,0.89684
361.281,20.9784,-1.41524,1.69879,0.89638
361.981,20.99993,-1.4329,1.71697,0.89591
362.681,21.0215,-1.45015,1.73646,0.89545
363.381,21.043,-1.46741,1.75633,0.89498
364.081,21.0646,-1.48649,1.77859,0.89452
364.781,21.08614,-1.50338,1.79839,0.89405
365.481,21.10763,-1.52282,1.81756,0.89359
366.181,21.12922,-1.54041,1.84107,0.89312
366.881,21.15083,-1.56099,1.86431,0.89265
367.581,21.17239,-1.57759,1.88788,0.89219
368.281,21.19405,-1.59871,1.91383,0.89172
368.981,21.21564,-1.61664,1.9379,0.89125
369.681,21.23721,-1.63767,1.96674,0.89079
370.381,21.2588,-1.65756,1.99041,0.89032
371.081,21.28037,-1.67806,2.01849,0.88985
371.781,21.302,-1.69905,2.04685,0.88938
372.481,21.32366,-1.71971,2.07753,0.88891
373.181,21.34532,-1.74324,2.10142,0.88845
373.881,21.367,-1.76515,2.13226,0.88798
374.581,21.38855,-1.78917,2.16082,0.88751
375.281,21.41016,-1.80932,2.19008,0.88704
375.981,21.43175,-1.83523,2.21656,0.88657
376.681,21.45336,-1.85651,2.24573,0.8861
377.381,21.47506,-1.88329,2.27479,0.88563
378.081,21.4968,-1.90657,2.30253,0.88516
378.781,21.51843,-1.93244,2.32747,0.8847
379.481,21.54008,-1.95646,2.35344,0.88423
380.181,21.56172,-1.98155,2.37762,0.88376
380.881,21.5834,-2.00799,2.40179,0.88329
381.581,21.60502,-2.03296,2.42151,0.88281
382.281,21.6268,-2.06202,2.43926,0.88234
382.981,21.64851,-2.08618,2.45803,0.88187
383.681,21.67024,-2.11615,2.47072,0.8814
384.381,21.69204,-2.14074,2.48617,0.88093
385.081,21.7137,-2.17049,2.496,0.88046
385.781,21.73549,-2.19533,2.50319,0.87999
386.481,21.75715,-2.22512,2.50551,0.87952
387.181,21.77881,-2.25173,2.50314,0.87905
387.881,21.80059,-2.27989,2.49843,0.87857
388.581,21.8223,-2.30799,2.4902,0.8781
389.281,21.84411,-2.33475,2.47614,0.87763
389.981,21.8659,-2.36387,2.45735,0.87716
390.681,21.8876,-2.38849,2.43516,0.87668
391.381,21.90935,-2.41807,2.4038,0.87621
392.081,21.9311,-2.44192,2.37241,0.87574
392.781,21.95286,-2.47105,2.33175,0.87526
393.481,21.9746,-2.49347,2.28529,0.87479
394.181,21.9964,-2.52043,2.23245,0.87432
394.881,22.01811,-2.54323,2.17705,0.87384
395.581,22.0398,-2.56727,2.1144,0.87337
396.281,22.06157,-2.59077,2.04414,0.87289
396.981,22.08326,-2.61291,1.97193,0.87242
397.681,22.10499,-2.63597,1.89435,0.87195
398.381,22.12667,-2.65483,1.81333,0.87147
399.081,22.1483,-2.67618,1.72911,0.871
399.781,22.17,-2.69345,1.6382,0.87052
400.481,22.19162,-2.71371,1.54712,0.87005
401.181,22.21331,-2.72871,1.45208,0.86957
401.881,22.23497,-2.7455,1.35822,0.86909
402.581,22.25671,-2.75881,1.26076,0.86862
403.281,22.27845,-2.77248,1.16427,0.86814
403.981,22.30014,-2.78436,1.07111,0.86767
404.681,22.32187,-2.79626,0.97823,0.86719
405.381,22.34349,-2.80709,0.88999,0.86671
406.081,22.3652,-2.81556,0.80345,0.86624
406.781,22.38676,-2.82439,0.72211,0.86576
407.481,22.4084,-2.8308,0.64487,0.86528
408.181,22.43,-2.83823,0.57174,0.86481
408.881,22.45166,-2.84178,0.50742,0.86433
409.581,22.4734,-2.84722,0.445,0.86385
410.281,22.4951,-2.85107,0.39069,0.86337
410.981,22.51677,-2.85566,0.33803,0.86289
411.681,22.5384,-2.85928,0.29729,0.86242
412.381,22.56005,-2.86237,0.25982,0.86194
413.081,22.58168,-2.8661,0.227,0.86146
413.781,22.6034,-2.86847,0.19566,0.86098
414.481,22.62505,-2.87026,0.16945,0.8605
415.181,22.64679,-2.8723,0.14607,0.86002
415.881,22.6685,-2.87422,0.12862,0.85954
416.581,22.6902,-2.87609,0.10741,0.85906
417.281,22.71195,-2.87837,0.09303887,0.85859
417.981,22.73367,-2.88092,0.07703838,0.85811
418.681,22.75545,-2.88256,0.06530953,0.85763
419.381,22.77723,-2.88385,0.05456287,0.85715
420.081,22.79901,-2.88587,0.0457591,0.85667
420.781,22.82082,-2.88781,0.03491223,0.85619
421.481,22.84262,-2.89025,0.02322674,0.85571
422.181,22.86441,-2.89324,0.01750985,0.85522
422.881,22.8862,-2.89518,0.008615868,0.85474
423.581,22.90802,-2.89629,0.004169077,0.85426
424.281,22.92986,-2.898,-0.004051552,0.85378
424.981,22.9517,-2.89985,-0.009531081,0.8533
425.681,22.97356,-2.90196,-0.01788046,0.85282
426.381,22.99537,-2.90426,-0.0213501,0.85234
427.081,23.0171,-2.90647,-0.02881391,0.85186
427.781,23.0391,-2.90834,-0.03369773,0.85137
428.481,23.06099,-2.90986,-0.04022673,0.85089
429.181,23.08292,-2.91141,-0.04392392,0.85041
429.881,23.10493,-2.91256,-0.05187915,0.84993
430.581,23.12681,-2.91245,-0.05325102,0.84944
431.281,23.14868,-2.91392,-0.05911735,0.84896
431.981,23.17052,-2.91595,-0.06526787,0.84848
432.681,23.19241,-2.9186,-0.070281,0.84799
433.381,23.21433,-2.92079,-0.07393981,0.84751
434.081,23.2362,-2.92331,-0.07799268,0.84703
434.781,23.2582,-2.92499,-0.08387167,0.84654
435.481,23.2802,-2.92676,-0.08495333,0.84606
436.181,23.30213,-2.92815,-0.09039988,0.84558
436.881,23.32414,-2.92975,-0.0952253,0.84509
437.581,23.34605,-2.93062,-0.09594631,0.84461
438.281,23.368,-2.93186,-0.10225,0.84412
438.981,23.39,-2.93344,-0.10424,0.84364
439.681,23.41196,-2.93392,-0.10948,0.84315
440.381,23.434,-2.93596,-0.10818,0.84267
441.081,23.45605,-2.93828,-0.11257,0.84218
441.781,23.47806,-2.9399,-0.11407,0.8417
442.481,23.50008,-2.94123,-0.11655,0.84121
443.181,23.52212,-2.94311,-0.11757,0.84073
443.881,23.54411,-2.94471,-0.11672,0.84024
444.581,23.56615,-2.94584,-0.11788,0.83976
445.281,23.58815,-2.94653,-0.11882,0.83927
445.981,23.61018,-2.94759,-0.1192,0.83879
446.681,23.63222,-2.94924,-0.12312,0.8383
447.381,23.65427,-2.95064,-0.11933,0.83781
448.081,23.6764,-2.95209,-0.12099,0.83733
448.781,23.69851,-2.95355,-0.12096,0.83684
449.481,23.72063,-2.95502,-0.11976,0.83635
450.181,23.74275,-2.95622,-0.11781,0.83587
450.881,23.76485,-2.95776,-0.11893,0.83538
451.581,23.78688,-2.9591,-0.11734,0.83489
452.281,23.80898,-2.96009,-0.11666,0.8344
452.981,23.83109,-2.96169,-0.11648,0.83392
453.681,23.8532,-2.96332,-0.11504,0.83343
454.381,23.87523,-2.96525,-0.11619,0.83294
455.081,23.89735,-2.96705,-0.11316,0.83245
455.781,23.9194,-2.96863,-0.10946,0.83196
456.481,23.9416,-2.96989,-0.11159,0.83147
457.181,23.9638,-2.97109,-0.10632,0.83099
457.881,23.98593,-2.97262,-0.10312,0.8305
458.581,24.0081,-2.9748,-0.09953081,0.83001
459.281,24.03023,-2.9769,-0.09781633,0.82952
459.981,24.05238,-2.97867,-0.09638085,0.82903
460.681,24.07435,-2.97919,-0.09560788,0.82854
461.381,24.09636,-2.98065,-0.09132901,0.82805
462.081,24.1186,-2.98222,-0.08894684,0.82756
462.781,24.14078,-2.98241,-0.08623098,0.82707
463.481,24.16318,-2.98369,-0.08249754,0.82658
464.181,24.18546,-2.98472,-0.07904737,0.82609
464.881,24.2076,-2.98564,-0.07502199,0.8256
465.581,24.22982,-2.98706,-0.07273359,0.82511
466.281,24.25198,-2.98853,-0.07119778,0.82462
466.981,24.2742,-2.98987,-0.06435015,0.82413
467.681,24.29646,-2.99129,-0.05972772,0.82364
468.381,24.31864,-2.99151,-0.05887841,0.82315
469.081,24.34088,-2.99422,-0.05666198,0.82266
469.781,24.36317,-2.99601,-0.05057497,0.82217
470.481,24.3854,-2.99704,-0.04882188,0.82167
471.181,24.40765,-2.99723,-0.04688766,0.82118
471.881,24.42986,-2.99881,-0.04120008,0.82069
472.581,24.4521,-3.00022,-0.03715682,0.8202
473.281,24.47433,-3.00143,-0.03271148,0.81971
473.981,24.4966,-3.001,-0.02908275,0.81921
474.681,24.51885,-3.00217,-0.02660707,0.81872
475.381,24.54114,-3.00231,-0.02476632,0.81823
476.081,24.56338,-3.00381,-0.01937804,0.81774
476.781,24.5856,-3.00618,-0.01821597,0.81724
477.481,24.60793,-3.00686,-0.01174306,0.81675
478.181,24.63012,-3.00824,-0.01067357,0.81626
478.881,24.65241,-3.00911,-0.008682779,0.81576
479.581,24.67472,-3.00985,-0.005402619,0.81527
480.281,24.69698,-3.01143,-0.001318237,0.81478
480.981,24.71934,-3.01173,0.00269232,0.81428
481.681,24.74165,-3.01311,0.003850886,0.81379
482.381,24.764,-3.01325,0.00766446,0.8133
483.081,24.78634,-3.01467,0.0103329,0.8128
483.781,24.80868,-3.01461,0.01187438,0.81231
484.481,24.831,-3.01597,0.01281608,0.81181
485.181,24.8533,-3.01586,0.01814436,0.81132
485.881,24.87565,-3.0172,0.01932665,0.81083
486.581,24.89797,-3.01608,0.02019161,0.81033
487.281,24.92034,-3.01629,0.02229441,0.80984
487.981,24.94269,-3.01719,0.02303151,0.80934
488.681,24.965,-3.01842,0.02582308,0.80885
489.381,24.98734,-3.01927,0.02673525,0.80835
490.081,25.00962,-3.02043,0.03056116,0.80785
490.781,25.032,-3.02206,0.03166747,0.80736
491.481,25.0543,-3.02197,0.03297166,0.80686
492.181,25.07665,-3.02195,0.03528493,0.80637
492.881,25.09905,-3.02322,0.03881193,0.80587
493.581,25.12145,-3.02329,0.03944204,0.80538
494.281,25.1438,-3.02361,0.04018581,0.80488
494.981,25.16624,-3.02459,0.03996157,0.80438
495.681,25.1887,-3.02601,0.04245551,0.80389
496.381,25.21111,-3.02797,0.04347568,0.80339
497.081,25.23358,-3.02931,0.04260688,0.80289
497.781,25.25596,-3.03085,0.04556922,0.8024
498.481,25.27838,-3.03224,0.04856988,0.8019
499.181,25.3007,-3.03379,0.04849885,0.8014
499.881,25.32306,-3.03497,0.0488436,0.8009
500.581,25.34544,-3.03483,0.04942706,0.80041
501.281,25.36785,-3.03629,0.04874672,0.79991
501.981,25.39031,-3.03788,0.05203292,0.79941
502.681,25.41274,-3.03781,0.05004957,0.79891
503.381,25.4352,-3.03912,0.0518842,0.79841
504.081,25.4576,-3.03917,0.0515253,0.79792
504.781,25.48002,-3.03917,0.05380512,0.79742
505.481,25.5025,-3.03914,0.05532941,0.79692
506.181,25.5249,-3.04022,0.05597995,0.79642
506.881,25.54734,-3.04043,0.05372654,0.79592
507.581,25.56983,-3.0418,0.05584035,0.79542
508.281,25.59225,-3.04177,0.05457173,0.79492
508.981,25.61466,-3.04304,0.05562634,0.79443
509.681,25.6371,-3.04312,0.05901991,0.79393
510.381,25.6595,-3.0434,0.05769419,0.79343
511.081,25.68199,-3.04547,0.05726282,0.79293
511.781,25.70446,-3.04582,0.05627609,0.79243
512.481,25.72695,-3.04687,0.06225035,0.79193
513.181,25.74948,-3.04814,0.05965992,0.79143
513.881,25.7719,-3.04814,0.06043889,0.79093
514.581,25.79445,-3.04941,0.0613151,0.79043
515.281,25.81695,-3.04959,0.06114999,0.78993
515.981,25.83941,-3.05043,0.06106499,0.78943
516.681,25.86191,-3.0511,0.06365122,0.78893
517.381,25.88437,-3.05174,0.06347027,0.78843
518.081,25.90687,-3.05266,0.06437798,0.78792
518.781,25.9294,-3.05266,0.05998962,0.78742
519.481,25.9519,-3.05266,0.06430393,0.78692
520.181,25.97445,-3.05258,0.06375476,0.78642
520.881,25.99695,-3.05395,0.06411861,0.78592
521.581,26.01932,-3.05398,0.06333476,0.78542
522.281,26.04176,-3.05395,0.06504529,0.78492
522.981,26.06426,-3.05649,0.06813994,0.78442
523.681,26.08676,-3.05631,0.06672195,0.78391
524.381,26.10941,-3.05661,0.06715088,0.78341
525.081,26.13198,-3.05663,0.06722018,0.78291
525.781,26.1544,-3.05815,0.06796531,0.78241
526.481,26.1769,-3.05944,0.06767869,0.78191
527.181,26.19941,-3.0604,0.07055287,0.7814
527.881,26.2218,-3.06114,0.06852272,0.7809
528.581,26.24445,-3.05984,0.07220221,0.7804
529.281,26.26708,-3.06098,0.07281559,0.77989
529.981,26.2897,-3.06121,0.07392951,0.77939
530.681,26.3125,-3.06273,0.07858469,0.77889
531.381,26.335,-3.06319,0.07803219,0.77839
532.081,26.3575,-3.06322,0.07852065,0.77788
532.781,26.3801,-3.06419,0.08292194,0.77738
533.481,26.40267,-3.06451,0.08368106,0.77687
534.181,26.4253,-3.06446,0.08443614,0.77637
534.881,26.44783,-3.06568,0.08609979,0.77587
535.581,26.47036,-3.06648,0.08772483,0.77536
536.281,26.49291,-3.06739,0.08637963,0.77486
536.981,26.5155,-3.06785,0.08780921,0.77435
537.681,26.53817,-3.06939,0.09182651,0.77385
538.381,26.56087,-3.07007,0.0930021,0.77335
539.081,26.58352,-3.07065,0.09375889,0.77284
539.781,26.60615,-3.07066,0.09321724,0.77234
540.481,26.6287,-3.07066,0.09538032,0.77183
541.181,26.6513,-3.07066,0.09513498,0.77133
541.881,26.67395,-3.07066,0.09653442,0.77082
542.581,26.69655,-3.07067,0.09519953,0.77032
543.281,26.71915,-3.06939,0.09829694,0.76981
543.981,26.74176,-3.07072,0.09613066,0.76931
544.681,26.7644,-3.07086,0.0957968,0.7688
545.381,26.78708,-3.07218,0.0974788,0.76829
546.081,26.8098,-3.07393,0.09834755,0.76779
546.781,26.8325,-3.07537,0.09649932,0.76728
547.481,26.85512,-3.07585,0.09649997,0.76678
548.181,26.87786,-3.07705,0.09510986,0.76627
548.881,26.90055,-3.07701,0.09483842,0.76576
549.581,26.9232,-3.0782,0.09452896,0.76526
550.281,26.94593,-3.07835,0.09648953,0.76475
550.981,26.96857,-3.07919,0.09719848,0.76424
551.681,26.9912,-3.07965,0.09674289,0.76374
552.381,27.01394,-3.07965,0.09504501,0.76323
553.081,27.0366,-3.07965,0.09399579,0.76272
553.781,27.0593,-3.07965,0.09305326,0.76222
554.481,27.08205,-3.0807,0.09422934,0.76171
555.181,27.10476,-3.08223,0.09146877,0.7612
555.881,27.12746,-3.08244,0.09551479,0.76069
556.581,27.15018,-3.0836,0.09245664,0.76019
557.281,27.1728,-3.0836,0.09336173,0.75968
557.981,27.1955,-3.0836,0.08971122,0.75917
558.681,27.2182,-3.08356,0.08855566,0.75866
559.381,27.2409,-3.08494,0.09072893,0.75816
560.081,27.26363,-3.08498,0.088117,0.75765
560.781,27.28643,-3.08597,0.0888733,0.75714
561.481,27.30912,-3.08681,0.08956871,0.75663
562.181,27.33176,-3.08723,0.08831107,0.75612
562.881,27.3544,-3.08762,0.0844757,0.75561
563.581,27.37715,-3.08854,0.08652411,0.75511
564.281,27.39997,-3.08854,0.08438336,0.7546
564.981,27.4228,-3.08854,0.0799682,0.75409
565.681,27.4456,-3.08842,0.07829711,0.75358
566.381,27.4683,-3.08901,0.07712998,0.75307
567.081,27.49098,-3.08853,0.07405416,0.75256
567.781,27.51373,-3.08849,0.07451431,0.75205
568.481,27.5365,-3.08968,0.07372493,0.75154
569.181,27.55929,-3.08985,0.0688218,0.75103
569.881,27.5821,-3.08981,0.06857025,0.75052
570.581,27.6049,-3.09109,0.06441276,0.75001
571.281,27.62763,-3.09115,0.06328553,0.7495
571.981,27.6504,-3.0925,0.06172879,0.74899
572.681,27.6731,-3.0934,0.06118417,0.74848
573.381,27.6959,-3.09378,0.06138933,0.74797
574.081,27.7187,-3.09348,0.06029434,0.74746
574.781,27.7415,-3.09379,0.05575421,0.74695
575.481,27.76431,-3.09458,0.05700894,0.74644
576.181,27.78718,-3.09511,0.05641331,0.74593
576.881,27.8099,-3.09576,0.05181963,0.74542
577.581,27.83275,-3.09626,0.04956088,0.74491
578.281,27.85558,-3.09577,0.04903785,0.7444
578.981,27.87837,-3.09517,0.04832774,0.74389
579.681,27.90121,-3.09647,0.04568681,0.74337
580.381,27.924,-3.09644,0.04554091,0.74286
581.081,27.9468,-3.09644,0.04364965,0.74235
581.781,27.96965,-3.09644,0.04526327,0.74184
582.481,27.9925,-3.09642,0.04385441,0.74133
583.181,28.01543,-3.09753,0.04082965,0.74082
583.881,28.0383,-3.09827,0.04139694,0.7403
584.581,28.06111,-3.09981,0.0423622,0.73979
585.281,28.08398,-3.10038,0.03841094,0.73928
585.981,28.1068,-3.10076,0.04203182,0.73877
586.681,28.1296,-3.10181,0.03781974,0.73826
587.381,28.1525,-3.10269,0.03460081,0.73774
588.081,28.1754,-3.10316,0.03493323,0.73723
588.781,28.1983,-3.10448,0.0357501,0.73672
589.481,28.22121,-3.10456,0.0348184,0.7362
590.181,28.24413,-3.10596,0.03484738,0.73569
590.881,28.26695,-3.10586,0.03322714,0.73518
591.581,28.28985,-3.10586,0.03194372,0.73467
592.281,28.3128,-3.10597,0.03253863,0.73415
592.981,28.33563,-3.10777,0.03011015,0.73364
593.681,28.3585,-3.10782,0.03094525,0.73313
594.381,28.3814,-3.10853,0.02900753,0.73261
595.081,28.40427,-3.10992,0.02980419,0.7321
595.781,28.42718,-3.11023,0.02852802,0.73159
596.481,28.45014,-3.11124,0.02711154,0.73107
597.181,28.473,-3.11124,0.02695831,0.73056
597.881,28.49598,-3.11125,0.02565779,0.73004
598.581,28.5189,-3.10999,0.02466521,0.72953
599.281,28.54185,-3.10992,0.02448729,0.72902
599.981,28.5648,-3.10998,0.02243787,0.7285
600.681,28.58776,-3.11128,0.02463242,0.72799
601.381,28.6107,-3.11124,0.0223461,0.72747
602.081,28.63363,-3.11123,0.023416,0.72696
602.781,28.6565,-3.11114,0.02251859,0.72644
603.481,28.67942,-3.11255,0.02328139,0.72593
604.181,28.70233,-3.11255,0.0203365,0.72541
604.881,28.7253,-3.1125,0.01990524,0.7249
605.581,28.7483,-3.1138,0.02033878,0.72438
606.281,28.77125,-3.11387,0.02077404,0.72387
606.981,28.79425,-3.11387,0.01601035,0.72335
607.681,28.81721,-3.11402,0.01698376,0.72284
608.381,28.84017,-3.11519,0.01746012,0.72232
609.081,28.86317,-3.11519,0.0134802,0.72181
609.781,28.88614,-3.11519,0.01295491,0.72129
610.481,28.90908,-3.11519,0.0149448,0.72077
611.181,28.932,-3.11534,0.009922182,0.72026
611.881,28.95497,-3.11651,0.01154089,0.71974
612.581,28.9779,-3.1165,0.01007477,0.71923
613.281,29.0009,-3.1165,0.008892205,0.71871
613.981,29.02378,-3.11683,0.007502283,0.71819
614.681,29.04675,-3.11783,0.009725516,0.71768
615.381,29.06972,-3.11782,0.008181065,0.71716
616.081,29.0928,-3.11898,0.008354445,0.71665
616.781,29.11583,-3.11908,0.00672159,0.71613
617.481,29.1389,-3.12041,0.006724892,0.71561
618.181,29.16184,-3.12046,0.00733714,0.7151
618.881,29.1848,-3.1207,0.00376097,0.71458
619.581,29.20778,-3.12179,0.003061988,0.71406
620.281,29.23074,-3.12177,0.002473284,0.71354
620.981,29.2537,-3.12195,-0.0008857861,0.71303
621.681,29.27665,-3.12312,-0.000507752,0.71251
622.381,29.29958,-3.12309,-0.004799767,0.71199
623.081,29.32258,-3.12423,-0.004805994,0.71147
623.781,29.34556,-3.12405,-0.003144881,0.71096
624.481,29.3686,-3.12433,-0.008073999,0.71044
625.181,29.39165,-3.1244,-0.007759854,0.70992
625.881,29.41468,-3.12435,-0.008037215,0.7094
626.581,29.43767,-3.12562,-0.009431422,0.70889
627.281,29.46065,-3.12572,-0.01077871,0.70837
627.981,29.4836,-3.12572,-0.01052063,0.70785
628.681,29.5065,-3.12572,-0.01054179,0.70733
629.381,29.5296,-3.12572,-0.01268126,0.70681
630.081,29.5527,-3.12584,-0.01203329,0.70629
630.781,29.57573,-3.12614,-0.01395142,0.70578
631.481,29.59883,-3.12573,-0.01423117,0.70526
632.181,29.6218,-3.12572,-0.01636091,0.70474
632.881,29.64475,-3.12563,-0.01672945,0.70422
633.581,29.66775,-3.12702,-0.01635314,0.7037
634.281,29.69073,-3.12704,-0.01843001,0.70318
634.981,29.71374,-3.12736,-0.02117565,0.70266
635.681,29.7368,-3.12836,-0.02281204,0.70214
636.381,29.75974,-3.12836,-0.02582175,0.70163
637.081,29.7827,-3.1271,-0.02713051,0.70111
637.781,29.80568,-3.12839,-0.02137181,0.70059
638.481,29.8287,-3.12835,-0.02330978,0.70007
639.181,29.85172,-3.12835,-0.02562913,0.69955
639.881,29.8748,-3.12835,-0.02554048,0.69903
640.581,29.89785,-3.12853,-0.03058644,0.69851
641.281,29.92087,-3.12966,-0.02911312,0.69799
641.981,29.9439,-3.12967,-0.03023717,0.69747
642.681,29.9669,-3.12966,-0.03067043,0.69695
643.381,29.9897,-3.12965,-0.02954297,0.69643
644.081,30.0128,-3.13099,-0.02943992,0.69591
644.781,30.03578,-3.13098,-0.0320261,0.69539
645.481,30.0589,-3.13099,-0.03045722,0.69487
646.181,30.0821,-3.13181,-0.02979355,0.69435
646.881,30.1051,-3.13229,-0.03482996,0.69383
647.581,30.12821,-3.13232,-0.03564815,0.69331
648.281,30.1513,-3.13339,-0.03925624,0.69279
648.981,30.1744,-3.13361,-0.03533275,0.69227
649.681,30.19753,-3.13361,-0.0356538,0.69175
650.381,30.22062,-3.1336,-0.04081224,0.69122
651.081,30.24366,-3.13457,-0.03971023,0.6907
651.781,30.2667,-3.13492,-0.04167184,0.69018
652.481,30.2897,-3.13493,-0.04215928,0.68966
653.181,30.31273,-3.13493,-0.04013796,0.68914
653.881,30.33581,-3.13493,-0.03949032,0.68862
654.581,30.3589,-3.1349,-0.04053982,0.6881
655.281,30.382,-3.13629,-0.04237193,0.68758
655.981,30.40509,-3.13712,-0.04261873,0.68705
656.681,30.42816,-3.13756,-0.04345474,0.68653
657.381,30.45125,-3.13756,-0.04299061,0.68601
658.081,30.4743,-3.13857,-0.04514852,0.68549
658.781,30.4974,-3.13887,-0.04481298,0.68497
659.481,30.52047,-3.13888,-0.04712417,0.68445
660.181,30.5436,-3.13888,-0.04588218,0.68392
660.881,30.5667,-3.13888,-0.04716341,0.6834
661.581,30.5898,-3.13888,-0.04722831,0.68288
662.281,30.6129,-3.13744,-0.04833778,0.68236
662.981,30.6361,-3.13875,-0.04813705,0.68184
663.681,30.65917,-3.13898,-0.04971279,0.68131
664.381,30.6824,-3.14039,-0.04834123,0.68079
665.081,30.70552,-3.14027,-0.05240861,0.68027
665.781,30.7286,-3.14157,-0.04919973,0.67975
666.481,30.75177,-3.1416,-0.04821136,0.67922
667.181,30.7749,-3.14266,-0.05131595,0.6787
667.881,30.79792,-3.14289,-0.05364917,0.67818
668.581,30.8211,-3.14428,-0.05175662,0.67765
669.281,30.8442,-3.14425,-0.05233078,0.67713
669.981,30.8673,-3.14425,-0.05764618,0.67661
670.681,30.8905,-3.14425,-0.05653796,0.67609
671.381,30.91364,-3.14425,-0.05716721,0.67556
672.081,30.9368,-3.14425,-0.05876166,0.67504
672.781,30.95989,-3.14425,-0.06096098,0.67452
673.481,30.98299,-3.14425,-0.06000921,0.67399
674.181,31.0061,-3.14425,-0.06255946,0.67347
674.881,31.0293,-3.14425,-0.06205742,0.67295
675.581,31.05242,-3.14425,-0.06085842,0.67242
676.281,31.07569,-3.14425,-0.0636808,0.6719
676.981,31.09885,-3.14425,-0.06088743,0.67137
677.681,31.12203,-3.1444,-0.0620396,0.67085
678.381,31.14527,-3.14558,-0.06197315,0.67033
679.081,31.16837,-3.14557,-0.0662828,0.6698
679.781,31.19158,-3.14556,-0.06278415,0.66928
680.481,31.2147,-3.14514,-0.06292336,0.66876
681.181,31.2379,-3.14426,-0.06541938,0.66823
681.881,31.2611,-3.14427,-0.0678051,0.66771
682.581,31.28425,-3.14464,-0.06586045,0.66718
683.281,31.30745,-3.14558,-0.06682454,0.66666
683.981,31.33067,-3.14558,-0.07064512,0.66613
684.681,31.35391,-3.14489,-0.07033112,0.66561
685.381,31.37715,-3.14564,-0.06912984,0.66509
686.081,31.40036,-3.14557,-0.07398673,0.66456
686.781,31.4236,-3.14557,-0.07292661,0.66404
687.481,31.44683,-3.14557,-0.07015308,0.66351
688.181,31.47008,-3.14557,-0.07348896,0.66299
688.881,31.4933,-3.14676,-0.07383961,0.66246
689.581,31.5164,-3.14689,-0.07409121,0.66194
690.281,31.5397,-3.14689,-0.07474799,0.66141
690.981,31.5629,-3.14689,-0.07508801,0.66089
691.681,31.5861,-3.14689,-0.07875239,0.66036
692.381,31.60936,-3.14689,-0.07530169,0.65984
693.081,31.6326,-3.14731,-0.07861148,0.65931
693.781,31.65574,-3.1481,-0.07917888,0.65879
694.481,31.67884,-3.14821,-0.07812655,0.65826
695.181,31.7021,-3.1483,-0.07753351,0.65774
695.881,31.72537,-3.14957,-0.07853164,0.65721
696.581,31.7487,-3.14952,-0.07807993,0.65668
697.281,31.77205,-3.14952,-0.07529541,0.65616
697.981,31.79526,-3.14955,-0.07755893,0.65563
698.681,31.81855,-3.15038,-0.07862683,0.65511
699.381,31.84181,-3.15084,-0.07671554,0.65458
700.081,31.8651,-3.15084,-0.07818264,0.65406
700.781,31.8883,-3.15084,-0.07543087,0.65353
701.481,31.91157,-3.15095,-0.07750432,0.653
702.181,31.93478,-3.15216,-0.08053057,0.65248
702.881,31.958,-3.15219,-0.08015934,0.65195
703.581,31.98136,-3.1507,-0.0814448,0.65143
704.281,32.00463,-3.14964,-0.08170994,0.6509
704.981,32.028,-3.14931,-0.08251617,0.65037
705.681,32.0513,-3.1493,-0.08374184,0.64985
706.381,32.07464,-3.1493,-0.07919847,0.64932
707.081,32.098,-3.14932,-0.08292581,0.64879
707.781,32.12124,-3.15,-0.0847482,0.64827
708.481,32.14454,-3.14992,-0.08572149,0.64774
709.181,32.16783,-3.15119,-0.08317124,0.64721
709.881,32.19117,-3.15128,-0.08219728,0.64669
710.581,32.21451,-3.14987,-0.08341141,0.64616
711.281,32.2378,-3.14996,-0.08862636,0.64563
711.981,32.26104,-3.14995,-0.08330762,0.64511
712.681,32.2843,-3.15096,-0.08479695,0.64458
713.381,32.3076,-3.15126,-0.08682815,0.64405
714.081,32.33093,-3.15132,-0.08829769,0.64353
714.781,32.35431,-3.15141,-0.08990497,0.643
715.481,32.37767,-3.15124,-0.09004397,0.64247
716.181,32.40101,-3.15263,-0.08841348,0.64195
716.881,32.42438,-3.1526,-0.08721079,0.64142
717.581,32.4477,-3.1526,-0.08547852,0.64089
718.281,32.47105,-3.15257,-0.08853409,0.64036
718.981,32.4944,-3.15228,-0.08779796,0.63984
719.681,32.51773,-3.15227,-0.08885298,0.63931
720.381,32.54096,-3.15228,-0.08799787,0.63878
721.081,32.56429,-3.15367,-0.08750368,0.63826
721.781,32.58764,-3.15358,-0.09000809,0.63773
722.481,32.611,-3.15358,-0.0862213,0.6372
723.181,32.63438,-3.15358,-0.09229578,0.63667
723.881,32.65769,-3.15358,-0.08936617,0.63615
724.581,32.681,-3.154,-0.09225157,0.63562
725.281,32.70433,-3.15487,-0.0932848,0.63509
725.981,32.72769,-3.1549,-0.09556615,0.63456
726.681,32.75104,-3.15491,-0.09358894,0.63403
727.381,32.7744,-3.1553,-0.09451188,0.63351
728.081,32.7978,-3.15622,-0.09789489,0.63298
728.781,32.82116,-3.15622,-0.09408278,0.63245
729.481,32.84454,-3.1562,-0.09403233,0.63192
730.181,32.86783,-3.15568,-0.09640935,0.63139
730.881,32.89118,-3.15556,-0.09568552,0.63087
731.581,32.9145,-3.15556,-0.0976428,0.63034
732.281,32.93785,-3.15556,-0.09901479,0.62981
732.981,32.96131,-3.15556,-0.09897857,0.62928
733.681,32.98474,-3.15556,-0.09872663,0.62875
734.381,33.00815,-3.15557,-0.10306,0.62823
735.081,33.03153,-3.15635,-0.10193,0.6277
735.781,33.05486,-3.15683,-0.10224,0.62717
736.481,33.07822,-3.15602,-0.10479,0.62664
737.181,33.1016,-3.15584,-0.10099,0.62611
737.881,33.12502,-3.15713,-0.10299,0.62558
738.581,33.14845,-3.1572,-0.10504,0.62506
739.281,33.17184,-3.15719,-0.10905,0.62453
739.981,33.19525,-3.1567,-0.1083,0.624
740.681,33.21868,-3.15582,-0.10838,0.62347
741.381,33.24207,-3.1572,-0.11012,0.62294
742.081,33.26551,-3.15677,-0.11366,0.62241
742.781,33.2889,-3.15722,-0.11049,0.62188
743.481,33.31237,-3.1572,-0.11422,0.62135
744.181,33.33579,-3.1572,-0.11048,0.62083
744.881,33.35924,-3.1572,-0.11253,0.6203
745.581,33.3827,-3.1572,-0.11135,0.61977
746.281,33.40609,-3.1572,-0.11531,0.61924
746.981,33.42953,-3.1572,-0.1114,0.61871
747.681,33.4529,-3.15733,-0.11497,0.61818
748.381,33.4763,-3.15855,-0.11496,0.61765
749.081,33.4997,-3.15851,-0.11727,0.61712
749.781,33.52315,-3.15851,-0.11833,0.61659
750.481,33.5466,-3.15851,-0.11599,0.61607
751.181,33.57009,-3.15851,-0.11859,0.61554
751.881,33.59356,-3.15881,-0.11983,0.61501
752.581,33.617,-3.15983,-0.11698,0.61448
753.281,33.64027,-3.15983,-0.1169,0.61395
753.981,33.66363,-3.15983,-0.12004,0.61342
754.681,33.68699,-3.15969,-0.11852,0.61289
755.381,33.7104,-3.15853,-0.12024,0.61236
756.081,33.734,-3.15994,-0.11668,0.61183
756.781,33.75741,-3.15985,-0.11905,0.6113
757.481,33.78086,-3.15983,-0.11823,0.61077
758.181,33.80427,-3.16106,-0.11983,0.61024
758.881,33.8277,-3.16115,-0.11684,0.60971
759.581,33.85118,-3.16116,-0.11862,0.60918
760.281,33.87466,-3.16256,-0.11964,0.60865
760.981,33.8981,-3.16249,-0.11751,0.60813
761.681,33.92158,-3.16356,-0.1199,0.6076
762.381,33.945,-3.16378,-0.11755,0.60707
763.081,33.9684,-3.16378,-0.11989,0.60654
763.781,33.99181,-3.16378,-0.1203,0.60601
764.481,34.01522,-3.16378,-0.12646,0.60548
765.181,34.03866,-3.16378,-0.12269,0.60495
765.881,34.06211,-3.16378,-0.12383,0.60442
766.581,34.08556,-3.16378,-0.1254,0.60389
767.281,34.10904,-3.16352,-0.12751,0.60336
767.981,34.1325,-3.16248,-0.12715,0.60283
768.681,34.15591,-3.16246,-0.12662,0.6023
769.381,34.17938,-3.16246,-0.12716,0.60177
770.081,34.20281,-3.16246,-0.13162,0.60124
770.781,34.2262,-3.16246,-0.13023,0.60071
771.481,34.2497,-3.16245,-0.13162,0.60018
772.181,34.2731,-3.16383,-0.13265,0.59965
772.881,34.29653,-3.16378,-0.13103,0.59912
773.581,34.32,-3.16378,-0.13848,0.59859
774.281,34.34341,-3.16371,-0.13461,0.59806
774.981,34.36694,-3.16507,-0.133,0.59753
775.681,34.3904,-3.1651,-0.1369,0.597
776.381,34.41381,-3.1651,-0.13586,0.59647
777.081,34.43731,-3.16525,-0.13866,0.59594
777.781,34.46073,-3.1664,-0.13643,0.59541
778.481,34.4842,-3.16641,-0.13543,0.59488
779.181,34.5077,-3.16641,-0.13465,0.59435
779.881,34.53109,-3.16641,-0.13781,0.59382
780.581,34.5545,-3.1664,-0.14007,0.59329
781.281,34.57804,-3.16613,-0.13683,0.59276
781.981,34.6015,-3.16612,-0.13812,0.59223
782.681,34.625,-3.16639,-0.13985,0.5917
783.381,34.6485,-3.1674,-0.13981,0.59117
784.081,34.6719,-3.16644,-0.13905,0.59064
784.781,34.6954,-3.16641,-0.13631,0.59011
785.481,34.71882,-3.16641,-0.13859,0.58958
786.181,34.7423,-3.16781,-0.14188,0.58905
786.881,34.76565,-3.16774,-0.1429,0.58852
787.581,34.78918,-3.16773,-0.14464,0.58799
788.281,34.8127,-3.16773,-0.14028,0.58746
788.981,34.8361,-3.16773,-0.14231,0.58693
789.681,34.85962,-3.16773,-0.14424,0.5864
790.381,34.88308,-3.16773,-0.14376,0.58587
791.081,34.90661,-3.16773,-0.14343,0.58534
791.781,34.93014,-3.16773,-0.14508,0.58481
792.481,34.95375,-3.16631,-0.14188,0.58428
793.181,34.97729,-3.16641,-0.14566,0.58375
793.781,34.99765,-3.16641,-0.14251,0.58329