File: 01_Data/Coffee_Machine/MCC/Coffee_Machine_MCC_30K_min_220202_R1.txt
Sample ID:	C:\MCC\MCC Cal\Test\Coffee_Machine_MCC_30K_min_220202_R1.txt
Sample Weight (mg):	4.41
Heating Rate (C/s):	0.5
Combustor Temp (C):	900
N2 Flow Rate (cc/min):	80
O2 Flow Rate (cc/min):	20
Calibration File:	C:\MCC\MCC Cal\Coeff1 JN10440_30_210304.txt.txt
T Correction Coefficients:	0	1.024463	0
Time Shift (s):	14
*
Time (s)	Temperature (C)	N2 flow rate (cc/min)	O2 flow rate (cc/min)	Flow Rate (cc/min)	Oxygen (%)	HRR (W/g)	Heating rate (C/s)
-0.001	110.790	80.011	19.993	103.770	20.098	-0.022	0.012
1.999	110.740	80.011	19.993	103.768	20.098	-0.014	-0.002
3.999	110.741	80.011	19.994	103.764	20.096	0.189	-0.005
5.999	110.765	80.010	19.994	103.768	20.098	0.038	-0.003
7.999	110.787	80.010	19.994	103.761	20.097	0.108	0.038
10.000	110.746	80.010	19.993	103.769	20.098	-0.002	0.000
12.000	110.772	80.010	19.993	103.768	20.100	-0.132	-0.010
14.000	110.779	80.010	19.993	103.754	20.095	0.219	0.018
15.999	110.772	80.011	19.993	103.763	20.096	0.138	-0.027
17.999	110.752	80.012	19.993	103.761	20.099	-0.076	-0.003
19.999	110.738	80.013	19.993	103.766	20.098	0.026	-0.003
21.999	110.740	80.014	19.994	103.770	20.098	0.014	0.002
24.000	110.757	80.011	19.993	103.766	20.097	0.090	0.002
25.999	110.731	80.011	19.993	103.771	20.094	0.319	-0.005
28.000	110.687	80.011	19.993	103.807	20.092	0.459	-0.010
30.000	110.720	80.010	19.994	103.818	20.089	0.659	-0.006
31.999	110.798	80.009	19.994	103.823	20.086	0.878	0.029
34.000	110.819	80.010	19.994	103.851	20.084	1.072	0.004
35.999	110.872	80.009	19.992	103.884	20.080	1.318	0.036
37.999	110.987	80.009	19.993	103.910	20.075	1.679	0.047
40.000	111.090	80.009	19.994	103.924	20.071	2.017	0.055
42.000	111.240	80.008	19.995	103.958	20.065	2.454	0.050
44.000	111.425	80.008	19.994	103.978	20.061	2.716	0.083
45.999	111.696	80.008	19.994	103.984	20.058	2.986	0.132
47.999	111.939	80.010	19.995	103.986	20.056	3.112	0.136
49.999	112.245	80.010	19.995	103.985	20.061	2.746	0.159
51.999	112.546	80.010	19.994	103.985	20.056	3.098	0.155
53.999	112.913	80.010	19.992	103.992	20.058	2.930	0.179
55.999	113.287	80.009	19.993	104.006	20.055	3.178	0.201
57.999	113.715	80.009	19.995	104.014	20.054	3.218	0.205
59.999	114.158	80.009	19.994	104.017	20.055	3.148	0.218
61.999	114.646	80.008	19.994	104.016	20.054	3.281	0.256
63.999	115.170	80.007	19.995	104.015	20.054	3.218	0.241
66.000	115.687	80.028	20.001	104.031	20.056	3.120	0.255
67.999	116.266	80.010	19.998	104.033	20.052	3.406	0.267
70.000	116.837	80.010	19.996	104.015	20.049	3.637	0.296
72.000	117.413	80.010	19.995	104.016	20.050	3.527	0.295
73.999	118.032	80.010	19.994	104.015	20.050	3.515	0.335
76.000	118.620	80.010	19.994	104.018	20.050	3.581	0.302
78.000	119.283	80.010	19.995	104.028	20.050	3.568	0.331
80.000	119.933	80.011	19.994	104.020	20.051	3.460	0.339
81.999	120.602	80.011	19.994	104.019	20.053	3.348	0.346
83.999	121.284	80.010	19.993	104.020	20.051	3.492	0.350
86.000	121.984	80.009	19.992	104.018	20.052	3.374	0.356
88.000	122.690	80.009	19.994	104.019	20.054	3.282	0.341
90.000	123.430	80.009	19.996	104.035	20.050	3.530	0.369
91.999	124.162	80.009	19.994	104.030	20.051	3.494	0.383
93.999	124.941	80.010	19.992	104.029	20.047	3.781	0.391
95.999	125.730	80.011	19.994	104.037	20.049	3.633	0.367
97.999	126.482	80.010	19.993	104.025	20.050	3.575	0.381
99.999	127.256	80.011	19.994	104.031	20.050	3.534	0.378
101.999	128.085	80.012	19.994	104.034	20.051	3.474	0.386
104.000	128.860	80.012	19.993	104.029	20.052	3.412	0.395
105.999	129.721	80.012	19.993	104.025	20.049	3.652	0.431
108.000	130.547	80.010	19.994	104.027	20.048	3.684	0.410
109.999	131.374	80.011	19.994	104.038	20.050	3.542	0.392
111.999	132.281	80.010	19.994	104.040	20.047	3.747	0.477
113.999	133.118	80.010	19.995	104.037	20.047	3.759	0.397
115.999	134.016	80.011	19.993	104.047	20.050	3.571	0.458
117.999	134.913	80.009	19.994	104.041	20.048	3.661	0.428
119.999	135.763	80.009	19.992	104.030	20.051	3.487	0.425
121.999	136.664	80.010	19.992	104.030	20.052	3.425	0.437
124.000	137.584	80.011	19.993	104.022	20.052	3.417	0.450
125.999	138.454	80.011	19.994	104.022	20.048	3.727	0.447
127.999	139.400	80.011	19.994	104.022	20.052	3.429	0.454
129.999	140.318	80.010	19.995	104.017	20.049	3.623	0.466
132.000	141.242	80.009	19.994	104.020	20.048	3.689	0.463
133.999	142.147	80.009	19.995	104.019	20.047	3.755	0.473
136.000	143.117	80.008	19.996	104.017	20.050	3.547	0.484
137.999	144.085	80.010	19.995	104.018	20.052	3.378	0.473
139.999	145.043	80.010	19.994	104.019	20.051	3.473	0.477
141.999	146.024	80.010	19.995	104.018	20.055	3.182	0.501
143.999	146.977	80.009	19.994	104.019	20.052	3.433	0.467
145.999	147.929	80.008	19.995	104.021	20.054	3.220	0.455
147.999	148.945	80.007	19.994	104.020	20.053	3.304	0.509
149.999	149.967	80.009	19.994	104.024	20.051	3.457	0.540
151.999	150.972	80.010	19.993	104.021	20.052	3.411	0.499
154.000	151.939	80.010	19.993	104.021	20.052	3.425	0.501
155.999	152.953	80.010	19.993	104.021	20.049	3.601	0.509
157.999	153.932	80.010	19.994	104.021	20.051	3.489	0.498
159.999	154.962	80.010	19.994	104.020	20.051	3.489	0.521
162.000	155.910	80.010	19.994	104.019	20.052	3.429	0.502
163.999	156.944	80.010	19.995	104.019	20.051	3.489	0.512
165.999	157.898	80.010	19.995	104.018	20.050	3.531	0.503
167.999	158.935	80.009	19.996	104.015	20.052	3.389	0.506
169.999	159.932	80.010	19.995	104.018	20.053	3.339	0.513
171.999	160.954	80.009	19.994	104.019	20.054	3.247	0.504
174.000	161.913	80.010	19.995	104.019	20.053	3.327	0.510
175.999	162.948	80.008	19.995	104.017	20.056	3.078	0.510
178.000	163.925	80.010	19.994	104.016	20.054	3.237	0.504
180.000	164.902	80.012	19.993	104.014	20.053	3.301	0.502
181.999	165.954	80.011	19.994	104.009	20.051	3.454	0.518
183.999	167.019	80.012	19.994	104.011	20.053	3.310	0.536
185.999	167.996	80.011	19.993	104.012	20.051	3.460	0.494
187.999	169.013	80.012	19.994	104.013	20.052	3.374	0.503
189.999	170.044	80.012	19.994	104.004	20.051	3.454	0.507
192.000	171.008	80.009	19.994	103.994	20.054	3.244	0.506
193.999	172.018	80.010	19.994	103.982	20.055	3.189	0.495
196.000	173.003	80.010	19.992	103.980	20.058	2.975	0.491
197.999	174.003	80.009	19.995	103.984	20.061	2.747	0.483
199.999	175.014	80.008	19.994	103.981	20.055	3.163	0.497
201.999	175.995	80.009	19.995	103.980	20.057	3.007	0.507
203.999	176.963	80.008	19.993	103.980	20.058	2.953	0.510
205.999	177.938	80.008	19.994	103.982	20.059	2.897	0.509
207.999	178.968	80.008	19.994	103.981	20.055	3.205	0.509
209.999	179.973	80.008	19.994	103.978	20.056	3.071	0.480
211.999	180.918	80.008	19.994	103.978	20.057	3.025	0.489
213.999	181.904	80.010	19.993	103.979	20.055	3.206	0.500
215.999	182.841	80.010	19.992	103.982	20.055	3.190	0.469
217.999	183.858	80.010	19.992	103.983	20.057	3.013	0.504
219.999	184.841	80.009	19.993	103.980	20.059	2.895	0.498
222.000	185.861	80.009	19.994	103.980	20.059	2.859	0.515
223.999	186.873	80.008	19.994	103.980	20.062	2.693	0.534
226.000	187.827	80.008	19.994	103.980	20.063	2.606	0.472
228.000	188.793	80.008	19.994	103.977	20.062	2.655	0.478
230.000	189.756	80.008	19.993	103.980	20.058	2.953	0.516
231.999	190.744	80.008	19.994	103.977	20.059	2.887	0.497
233.999	191.767	80.008	19.995	103.979	20.057	3.001	0.503
235.999	192.692	80.008	19.995	103.980	20.061	2.757	0.486
238.000	193.715	80.008	19.996	103.980	20.061	2.763	0.479
240.000	194.684	80.010	19.993	103.978	20.062	2.689	0.444
241.999	195.662	80.012	19.993	103.978	20.059	2.907	0.505
243.999	196.639	80.011	19.994	103.972	20.061	2.745	0.487
245.999	197.617	80.010	19.993	103.975	20.062	2.659	0.504
247.999	198.577	80.011	19.995	103.974	20.062	2.699	0.485
249.999	199.548	80.010	19.996	103.974	20.061	2.757	0.499
251.999	200.519	80.009	19.994	103.968	20.061	2.771	0.481
253.999	201.515	80.011	19.993	103.973	20.058	2.960	0.522
255.999	202.477	80.009	19.995	103.966	20.058	2.939	0.456
257.999	203.456	80.009	19.996	103.967	20.059	2.859	0.496
260.000	204.436	80.009	19.995	103.969	20.060	2.845	0.487
262.000	205.422	80.010	19.994	103.972	20.062	2.641	0.498
264.000	206.406	80.008	19.996	103.956	20.063	2.561	0.502
266.000	207.396	80.009	19.995	103.970	20.059	2.856	0.479
268.000	208.346	80.010	19.994	103.967	20.061	2.731	0.457
270.000	209.331	80.010	19.995	103.965	20.064	2.529	0.486
272.000	210.356	80.011	19.994	103.950	20.064	2.497	0.515
274.000	211.360	80.010	19.994	103.947	20.067	2.328	0.522
276.000	212.354	80.009	19.993	103.951	20.064	2.499	0.538
278.000	213.357	80.009	19.993	103.956	20.065	2.461	0.526
280.000	214.323	80.009	19.994	103.962	20.063	2.611	0.495
281.999	215.329	80.009	19.993	103.960	20.063	2.581	0.509
283.999	216.305	80.009	19.995	103.963	20.063	2.605	0.488
286.000	217.308	80.010	19.993	103.961	20.065	2.435	0.494
287.999	218.307	80.009	19.994	103.958	20.063	2.593	0.493
289.999	219.286	80.008	19.994	103.964	20.062	2.639	0.480
292.000	220.296	80.009	19.994	103.966	20.065	2.427	0.500
294.000	221.282	80.009	19.993	103.956	20.062	2.657	0.495
296.000	222.268	80.009	19.994	103.947	20.063	2.619	0.497
298.000	223.276	80.010	19.993	103.959	20.063	2.570	0.489
300.000	224.286	80.010	19.993	103.961	20.063	2.593	0.498
302.000	225.315	80.009	19.993	103.944	20.064	2.485	0.531
303.999	226.289	80.009	19.994	103.904	20.065	2.451	0.521
305.999	227.307	80.010	19.993	103.912	20.066	2.397	0.493
307.999	228.371	80.010	19.993	104.013	20.069	2.181	0.550
310.000	229.332	80.008	19.993	103.954	20.068	2.247	0.508
312.000	230.339	80.009	19.994	103.944	20.068	2.193	0.501
314.000	231.328	80.009	19.994	103.942	20.067	2.307	0.489
315.999	232.333	80.009	19.994	103.941	20.064	2.549	0.473
317.999	233.376	80.011	19.994	103.942	20.065	2.409	0.518
320.000	234.396	80.011	19.995	103.942	20.064	2.531	0.516
321.999	235.358	80.011	19.993	103.940	20.068	2.193	0.505
323.999	236.354	80.011	19.994	103.940	20.067	2.307	0.515
325.999	237.365	80.011	19.995	103.941	20.067	2.329	0.512
328.000	238.377	80.012	19.994	103.942	20.065	2.417	0.528
330.000	239.338	80.011	19.994	103.943	20.067	2.269	0.474
332.000	240.326	80.011	19.994	103.939	20.067	2.321	0.478
334.000	241.354	80.009	19.995	103.941	20.065	2.413	0.515
336.000	242.332	80.011	19.994	103.944	20.065	2.463	0.508
337.999	243.366	80.011	19.994	103.940	20.069	2.173	0.533
339.999	244.350	80.010	19.994	103.941	20.070	2.107	0.497
342.000	245.362	80.011	19.993	103.940	20.071	1.996	0.478
343.999	246.340	80.012	19.993	103.940	20.070	2.068	0.462
346.000	247.333	80.011	19.994	103.941	20.065	2.452	0.499
348.000	248.356	80.013	19.994	103.935	20.066	2.347	0.498
350.000	249.369	80.011	19.994	103.936	20.065	2.453	0.503
352.000	250.430	80.013	19.994	103.939	20.067	2.311	0.529
353.999	251.402	80.009	19.994	103.938	20.067	2.321	0.496
356.000	252.426	80.009	19.994	103.930	20.066	2.339	0.498
357.999	253.371	80.009	19.994	103.925	20.067	2.283	0.467
360.000	254.363	80.009	19.994	103.938	20.067	2.271	0.500
362.000	255.390	80.009	19.994	103.941	20.063	2.568	0.522
364.000	256.329	80.010	19.994	103.939	20.070	2.086	0.511
365.999	257.341	80.009	19.994	103.942	20.063	2.556	0.521
368.000	258.322	80.010	19.993	103.937	20.066	2.381	0.479
369.999	259.311	80.009	19.993	103.940	20.068	2.221	0.503
372.000	260.271	80.008	19.993	103.934	20.066	2.343	0.500
374.000	261.205	80.008	19.993	103.939	20.067	2.293	0.455
375.999	262.218	80.010	19.993	103.937	20.066	2.359	0.498
377.999	263.194	80.010	19.994	103.929	20.063	2.598	0.483
380.000	264.171	80.009	19.994	103.932	20.067	2.309	0.498
381.999	265.161	80.010	19.994	103.938	20.064	2.489	0.507
384.000	266.151	80.010	19.994	103.928	20.065	2.421	0.496
385.999	267.137	80.010	19.995	103.935	20.066	2.391	0.503
387.999	268.122	80.010	19.994	103.929	20.067	2.281	0.504
390.000	269.095	80.008	19.994	103.939	20.064	2.516	0.477
392.000	270.081	80.008	19.995	103.941	20.069	2.177	0.477
394.000	271.104	80.009	19.994	103.939	20.070	2.103	0.492
396.000	272.099	80.010	19.994	103.936	20.068	2.187	0.504
397.999	273.104	80.010	19.995	103.934	20.064	2.494	0.503
399.999	274.080	80.010	19.993	103.925	20.064	2.487	0.505
401.999	275.120	80.010	19.993	103.935	20.067	2.283	0.527
404.000	276.090	80.010	19.993	103.930	20.066	2.369	0.481
406.000	277.139	80.010	19.993	103.934	20.066	2.353	0.528
408.000	278.093	80.011	19.993	103.929	20.067	2.317	0.475
410.000	279.142	80.011	19.993	103.929	20.064	2.482	0.517
412.000	280.062	80.010	19.993	103.940	20.065	2.431	0.489
414.000	281.108	80.009	19.994	103.923	20.067	2.291	0.482
416.000	282.110	80.011	19.994	103.933	20.068	2.245	0.531
418.000	283.115	80.010	19.995	103.925	20.067	2.323	0.495
419.999	284.112	80.010	19.993	103.926	20.063	2.573	0.524
422.000	285.067	80.010	19.994	103.925	20.067	2.289	0.471
424.000	286.125	80.009	19.994	103.932	20.066	2.333	0.499
425.999	287.093	80.009	19.995	103.929	20.069	2.171	0.511
427.999	288.116	80.012	19.994	103.928	20.067	2.323	0.482
429.999	289.165	80.011	19.994	103.939	20.066	2.352	0.514
431.999	290.139	80.011	19.994	103.928	20.069	2.175	0.499
433.999	291.132	80.011	19.993	103.918	20.072	1.894	0.505
435.999	292.168	80.010	19.994	103.929	20.067	2.280	0.493
438.000	293.169	80.010	19.994	103.908	20.067	2.297	0.489
440.000	294.165	80.009	19.994	103.916	20.067	2.293	0.483
441.999	295.189	80.010	19.994	103.911	20.066	2.336	0.510
444.000	296.224	80.009	19.995	103.923	20.066	2.384	0.517
446.000	297.294	80.009	19.995	103.911	20.069	2.113	0.551
447.999	298.307	80.008	19.994	103.909	20.065	2.448	0.539
450.000	299.294	80.009	19.994	103.923	20.070	2.071	0.502
451.999	300.300	80.009	19.994	103.916	20.064	2.496	0.522
453.999	301.326	80.010	19.995	103.906	20.066	2.396	0.497
455.999	302.296	80.009	19.996	103.910	20.064	2.484	0.486
458.000	303.347	80.008	19.994	103.913	20.065	2.448	0.516
459.999	304.322	80.009	19.995	103.917	20.065	2.460	0.493
461.999	305.354	80.010	19.993	103.907	20.064	2.532	0.518
464.000	306.364	80.009	19.993	103.908	20.065	2.404	0.503
465.999	307.391	80.010	19.994	103.920	20.066	2.372	0.492
467.999	308.403	80.009	19.993	103.919	20.066	2.332	0.511
469.999	309.404	80.009	19.994	103.922	20.065	2.420	0.526
472.000	310.424	80.008	19.993	103.905	20.064	2.542	0.516
473.999	311.457	80.008	19.993	103.907	20.063	2.596	0.506
475.999	312.477	80.007	19.992	103.906	20.066	2.348	0.526
478.000	313.537	80.008	19.994	103.905	20.067	2.302	0.519
479.999	314.522	80.007	19.994	103.906	20.063	2.592	0.498
481.999	315.550	80.008	19.993	103.915	20.066	2.388	0.507
483.999	316.553	80.010	19.993	103.907	20.066	2.378	0.455
486.000	317.530	80.011	19.994	103.910	20.063	2.570	0.515
488.000	318.546	80.010	19.993	103.909	20.066	2.392	0.517
490.000	319.611	80.010	19.994	103.904	20.068	2.193	0.530
492.000	320.591	80.010	19.993	103.919	20.063	2.582	0.499
494.000	321.618	80.010	19.994	103.908	20.065	2.444	0.511
495.999	322.617	80.010	19.993	103.905	20.062	2.663	0.510
497.999	323.608	80.010	19.994	103.906	20.064	2.502	0.494
499.999	324.633	80.009	19.993	103.911	20.063	2.599	0.500
501.999	325.613	80.010	19.994	103.901	20.061	2.723	0.481
504.000	326.654	80.010	19.994	103.902	20.061	2.719	0.513
505.999	327.632	80.009	19.994	103.901	20.062	2.645	0.469
508.000	328.605	80.010	19.994	103.904	20.059	2.901	0.479
509.999	329.639	80.011	19.994	103.900	20.058	2.947	0.505
511.999	330.625	80.012	19.995	103.900	20.057	3.044	0.490
514.000	331.621	80.011	19.994	103.901	20.056	3.122	0.488
516.000	332.619	80.012	19.995	103.899	20.056	3.110	0.503
518.000	333.612	80.011	19.995	103.898	20.056	3.134	0.521
519.999	334.626	80.011	19.994	103.900	20.056	3.114	0.488
521.999	335.644	80.008	19.994	103.899	20.054	3.236	0.501
524.000	336.612	80.009	19.994	103.897	20.056	3.076	0.503
525.999	337.636	80.007	19.994	103.898	20.056	3.076	0.505
528.000	338.626	80.009	19.993	103.900	20.056	3.116	0.509
530.000	339.650	80.009	19.995	103.899	20.057	3.060	0.520
532.000	340.626	80.008	19.994	103.901	20.055	3.184	0.478
533.999	341.634	80.008	19.994	103.902	20.055	3.158	0.485
536.000	342.627	80.008	19.994	103.902	20.055	3.156	0.506
538.000	343.633	80.009	19.995	103.902	20.054	3.240	0.495
540.000	344.640	80.008	19.995	103.903	20.054	3.284	0.508
541.999	345.650	80.008	19.994	103.902	20.050	3.567	0.503
544.000	346.639	80.008	19.994	103.901	20.052	3.411	0.497
546.000	347.668	80.008	19.995	103.898	20.052	3.432	0.491
548.000	348.674	80.008	19.995	103.902	20.050	3.561	0.518
549.999	349.718	80.008	19.995	103.895	20.054	3.226	0.530
552.000	350.698	80.007	19.994	103.900	20.050	3.545	0.522
554.000	351.681	80.008	19.993	103.897	20.050	3.521	0.487
555.999	352.693	80.007	19.994	103.902	20.049	3.635	0.511
558.000	353.745	80.007	19.993	103.903	20.049	3.599	0.491
560.000	354.730	80.008	19.994	103.897	20.046	3.870	0.516
562.000	355.804	80.009	19.994	103.899	20.046	3.838	0.533
564.000	356.801	80.009	19.994	103.886	20.043	4.089	0.504
566.000	357.772	80.009	19.994	103.889	20.043	4.089	0.514
568.000	358.776	80.011	19.993	103.895	20.044	4.004	0.509
570.000	359.820	80.011	19.994	103.896	20.043	4.067	0.514
572.000	360.832	80.010	19.994	103.896	20.041	4.207	0.494
574.000	361.825	80.011	19.994	103.890	20.040	4.267	0.513
576.000	362.852	80.011	19.993	103.879	20.038	4.405	0.522
578.000	363.835	80.009	19.994	103.889	20.038	4.393	0.514
580.000	364.863	80.010	19.994	103.891	20.036	4.552	0.503
581.999	365.893	80.010	19.995	103.882	20.037	4.486	0.517
584.000	366.881	80.009	19.995	103.880	20.030	4.989	0.529
586.000	367.885	80.011	19.994	103.890	20.028	5.155	0.497
588.000	368.893	80.012	19.995	103.891	20.030	5.049	0.512
590.000	369.891	80.010	19.994	103.889	20.027	5.222	0.476
592.000	370.880	80.013	19.993	103.876	20.028	5.186	0.504
594.000	371.941	80.012	19.993	103.893	20.025	5.354	0.535
596.000	372.962	80.011	19.993	103.894	20.024	5.430	0.512
597.999	373.973	80.012	19.993	103.888	20.025	5.416	0.498
600.000	374.964	80.010	19.993	103.887	20.018	5.896	0.527
601.999	375.952	80.010	19.994	103.877	20.017	5.948	0.508
604.000	377.020	80.010	19.994	103.880	20.014	6.157	0.524
605.999	378.025	80.009	19.993	103.883	20.010	6.501	0.523
608.000	379.026	80.008	19.993	103.887	20.006	6.744	0.503
610.000	380.066	80.007	19.994	103.883	20.004	6.947	0.517
612.000	381.034	80.007	19.995	103.874	19.999	7.284	0.483
613.999	382.014	80.008	19.994	103.871	19.996	7.526	0.501
616.000	383.034	80.009	19.993	103.875	19.991	7.870	0.510
617.999	384.039	80.008	19.994	103.880	19.985	8.347	0.503
620.000	385.018	80.008	19.995	103.877	19.984	8.393	0.518
621.999	386.036	80.009	19.994	103.879	19.978	8.813	0.508
624.000	387.074	80.009	19.994	103.879	19.976	8.989	0.488
626.000	388.080	80.009	19.994	103.873	19.969	9.473	0.524
627.999	389.088	80.008	19.995	103.873	19.967	9.633	0.487
630.000	390.087	80.010	19.994	103.879	19.962	10.026	0.497
631.999	391.105	80.009	19.995	103.867	19.951	10.815	0.529
633.999	392.086	80.007	19.994	103.868	19.948	11.019	0.504
635.999	393.095	80.008	19.995	103.873	19.939	11.681	0.484
638.000	394.155	80.008	19.995	103.866	19.928	12.490	0.519
640.000	395.188	80.007	19.994	103.868	19.916	13.354	0.521
642.000	396.219	80.008	19.995	103.863	19.906	14.119	0.502
643.999	397.211	80.008	19.994	103.863	19.894	14.976	0.463
645.999	398.213	80.009	19.995	103.862	19.884	15.702	0.513
648.000	399.257	80.010	19.996	103.862	19.877	16.220	0.425
650.000	400.279	80.010	19.993	103.861	19.864	17.218	0.512
651.999	401.302	80.011	19.993	103.860	19.856	17.782	0.515
654.000	402.296	80.010	19.994	103.858	19.844	18.684	0.489
656.000	403.335	80.010	19.994	103.858	19.836	19.239	0.524
657.999	404.338	80.011	19.994	103.854	19.822	20.293	0.534
659.999	405.351	80.011	19.994	103.859	19.809	21.220	0.526
661.999	406.395	80.010	19.994	103.861	19.796	22.189	0.532
664.000	407.448	80.010	19.993	103.858	19.780	23.407	0.538
665.999	408.482	80.010	19.993	103.864	19.763	24.594	0.500
668.000	409.513	80.011	19.994	103.854	19.747	25.809	0.515
669.999	410.507	80.011	19.994	103.852	19.733	26.857	0.515
671.999	411.534	80.012	19.994	103.845	19.713	28.262	0.506
673.999	412.572	80.011	19.994	103.846	19.692	29.823	0.523
675.999	413.551	80.011	19.993	103.845	19.675	31.119	0.534
678.000	414.565	80.011	19.994	103.843	19.651	32.872	0.512
679.999	415.549	80.011	19.992	103.837	19.628	34.552	0.512
682.000	416.564	80.011	19.993	103.830	19.609	35.945	0.520
684.000	417.597	80.009	19.993	103.827	19.583	37.844	0.505
685.999	418.614	80.010	19.993	103.828	19.559	39.580	0.499
687.999	419.663	80.008	19.993	103.825	19.539	41.071	0.507
690.000	420.653	80.010	19.994	103.829	19.516	42.781	0.515
692.000	421.658	80.009	19.993	103.820	19.485	45.010	0.510
694.000	422.715	80.009	19.994	103.818	19.455	47.225	0.500
696.000	423.683	80.008	19.993	103.823	19.426	49.324	0.478
698.000	424.725	80.009	19.995	103.798	19.393	51.758	0.538
699.999	425.766	80.010	19.995	103.783	19.363	53.998	0.514
702.000	426.800	80.009	19.994	103.784	19.335	56.051	0.515
703.999	427.860	80.010	19.994	103.781	19.314	57.626	0.501
706.000	428.834	80.008	19.994	103.772	19.281	59.986	0.530
707.999	429.835	80.010	19.993	103.770	19.251	62.212	0.532
710.000	430.833	80.010	19.994	103.784	19.207	65.443	0.508
712.000	431.818	80.009	19.994	103.804	19.148	69.737	0.483
714.000	432.858	80.009	19.993	103.816	19.089	74.052	0.496
716.000	433.895	80.008	19.994	103.793	19.025	78.774	0.518
718.000	434.865	80.008	19.994	103.753	18.962	83.364	0.482
720.000	435.883	80.010	19.994	103.744	18.895	88.269	0.500
721.999	436.858	80.009	19.994	103.753	18.811	94.427	0.475
723.999	437.857	80.008	19.995	103.758	18.721	101.044	0.486
725.999	438.818	80.009	19.995	103.755	18.622	108.240	0.477
728.000	439.798	80.008	19.995	103.720	18.514	116.169	0.488
730.000	440.782	80.009	19.994	103.713	18.399	124.563	0.504
731.999	441.722	80.011	19.996	103.703	18.279	133.392	0.488
734.000	442.748	80.010	19.996	103.700	18.156	142.386	0.486
736.000	443.670	80.008	19.997	103.679	18.026	151.868	0.456
738.000	444.661	80.009	19.996	103.669	17.887	162.020	0.464
740.000	445.621	80.009	19.995	103.657	17.738	172.862	0.473
742.000	446.610	80.010	19.994	103.634	17.586	183.949	0.489
744.000	447.562	80.010	19.993	103.629	17.423	195.888	0.477
745.999	448.576	80.010	19.993	103.620	17.246	208.757	0.491
748.000	449.513	80.009	19.993	103.580	17.055	222.640	0.464
750.000	450.509	80.009	19.994	103.557	16.861	236.726	0.472
752.000	451.487	80.010	19.994	103.520	16.646	252.327	0.456
754.000	452.461	80.011	19.993	103.497	16.425	268.358	0.468
756.000	453.425	80.012	19.993	103.472	16.197	284.906	0.464
758.000	454.401	80.012	19.993	103.416	15.958	302.223	0.475
759.999	455.427	80.012	19.993	103.381	15.707	320.375	0.499
761.999	456.413	80.011	19.994	103.343	15.452	338.834	0.467
764.000	457.355	80.011	19.994	103.301	15.194	357.524	0.472
766.000	458.349	80.009	19.995	103.262	14.934	376.261	0.521
768.000	459.331	80.010	19.994	103.211	14.673	395.539	0.509
770.000	460.324	80.010	19.995	103.164	14.408	414.349	0.485
772.000	461.287	80.011	19.994	103.109	14.139	433.682	0.504
773.999	462.235	80.010	19.993	103.062	13.873	452.875	0.476
775.999	463.227	80.009	19.993	103.020	13.604	471.941	0.481
777.999	464.204	80.009	19.994	103.039	13.335	491.296	0.475
779.999	465.188	80.009	19.994	103.011	13.070	510.674	0.501
781.999	466.166	80.009	19.994	102.899	12.809	529.498	0.496
783.999	467.130	80.009	19.994	102.849	12.585	545.646	0.479
786.000	468.076	80.010	19.995	102.778	12.397	559.400	0.478
787.999	469.018	80.009	19.995	102.691	12.235	571.382	0.457
790.000	470.000	80.010	19.993	102.691	12.120	579.775	0.473
792.000	470.987	80.010	19.994	102.690	12.052	584.708	0.469
794.000	471.960	80.009	19.994	102.657	12.028	586.544	0.484
795.999	472.937	80.009	19.993	102.658	12.050	585.204	0.465
798.000	473.974	80.008	19.994	102.690	12.112	581.101	0.474
799.999	475.016	80.008	19.995	102.712	12.238	571.801	0.502
801.999	476.089	80.008	19.994	102.716	12.420	559.101	0.572
804.000	477.086	80.009	19.993	102.723	12.650	542.735	0.509
805.999	478.164	80.009	19.992	102.748	12.920	523.554	0.536
808.000	479.199	80.008	19.995	102.810	13.239	500.664	0.496
810.000	480.305	80.009	19.994	102.857	13.604	474.334	0.551
812.000	481.326	80.010	19.993	102.839	14.012	444.856	0.515
813.999	482.422	80.010	19.994	102.963	14.452	413.053	0.523
816.000	483.511	80.009	19.994	103.049	14.925	378.861	0.519
818.000	484.623	80.010	19.994	103.134	15.415	343.222	0.560
820.000	485.676	80.009	19.996	103.208	15.920	306.463	0.522
822.000	486.815	80.009	19.995	103.285	16.425	269.599	0.572
823.999	487.934	80.009	19.995	103.360	16.921	233.307	0.566
825.999	489.019	80.010	19.995	103.452	17.385	199.318	0.541
828.000	490.124	80.007	19.995	103.555	17.812	167.993	0.560
830.000	491.239	80.010	19.995	103.643	18.198	139.633	0.562
832.000	492.396	80.010	19.994	103.710	18.545	114.159	0.559
834.000	493.549	80.010	19.993	103.766	18.841	92.447	0.558
836.000	494.673	80.011	19.994	103.816	19.089	74.189	0.538
837.999	495.844	80.012	19.993	103.854	19.297	58.880	0.543
840.000	497.001	80.011	19.994	103.870	19.465	46.555	0.599
841.999	498.158	80.011	19.993	103.893	19.601	36.516	0.569
844.000	499.276	80.011	19.994	103.900	19.709	28.630	0.570
846.000	500.455	80.010	19.994	103.900	19.794	22.329	0.559
848.000	501.612	80.009	19.994	103.899	19.866	17.030	0.593
849.999	502.697	80.009	19.994	103.894	19.922	12.949	0.589
852.000	503.791	80.008	19.994	103.892	19.966	9.709	0.513
853.999	504.923	80.008	19.994	103.888	19.993	7.694	0.603
856.000	506.090	80.009	19.995	103.887	20.024	5.458	0.560
857.999	507.184	80.008	19.994	103.867	20.044	4.016	0.519
860.000	508.322	80.008	19.994	103.866	20.048	3.678	0.529
862.000	509.537	80.009	19.993	103.866	20.059	2.874	0.557
863.999	510.734	80.010	19.994	103.861	20.063	2.550	0.598
866.000	511.855	80.009	19.994	103.850	20.069	2.143	0.581
868.000	513.004	80.009	19.994	103.848	20.072	1.914	0.520
870.000	514.662	80.010	19.994	103.829	20.071	2.002	0.911
871.999	515.051	80.008	19.993	103.798	20.077	1.546	0.606
874.000	516.347	80.008	19.993	103.766	20.075	1.676	0.166
876.000	517.515	80.009	19.994	103.730	20.081	1.248	0.651
877.999	518.546	80.009	19.994	103.711	20.082	1.186	0.578
879.999	519.745	80.008	19.995	103.712	20.082	1.210	0.526
882.000	520.802	80.009	19.994	103.734	20.079	1.390	0.574
884.000	521.961	80.009	19.994	103.772	20.079	1.428	0.532
886.000	523.103	80.009	19.994	103.792	20.081	1.234	0.607
888.000	524.197	80.008	19.994	103.809	20.079	1.398	0.564
889.999	525.352	80.010	19.995	103.822	20.080	1.356	0.553
892.000	526.471	80.010	19.995	103.827	20.083	1.107	0.594
894.000	527.579	80.010	19.993	103.837	20.082	1.181	0.539
896.000	528.731	80.011	19.994	103.859	20.084	1.023	0.566
897.999	529.902	80.011	19.994	103.860	20.085	0.969	0.621
900.000	531.006	80.010	19.995	103.858	20.083	1.101	0.583
902.000	532.140	80.011	19.993	103.858	20.086	0.886	0.572
903.999	533.292	80.011	19.994	103.863	20.084	1.019	0.584
906.000	534.472	80.009	19.995	103.864	20.086	0.921	0.594
908.000	535.563	80.010	19.995	103.864	20.083	1.103	0.575
910.000	536.672	80.011	19.994	103.862	20.085	0.935	0.549
912.000	537.816	80.010	19.995	103.866	20.088	0.782	0.578
914.000	538.923	80.009	19.994	103.863	20.085	0.935	0.565
916.000	540.035	80.010	19.994	103.857	20.089	0.692	0.576
918.000	541.103	80.011	19.995	103.856	20.091	0.542	0.545
920.000	542.200	80.010	19.995	103.861	20.090	0.576	0.559
921.999	543.294	80.011	19.995	103.861	20.090	0.612	0.525
924.000	544.333	80.010	19.995	103.851	20.089	0.654	0.523
926.000	545.434	80.010	19.995	103.853	20.089	0.656	0.526
927.999	546.467	80.009	19.995	103.848	20.091	0.538	0.542
930.000	547.549	80.011	19.995	103.858	20.092	0.427	0.525
931.999	548.642	80.009	19.994	103.844	20.090	0.632	0.542
934.000	549.644	80.009	19.993	103.842	20.092	0.477	0.522
936.000	550.658	80.009	19.994	103.851	20.094	0.333	0.493
937.999	551.705	80.009	19.994	103.845	20.091	0.538	0.487
940.000	552.764	80.008	19.994	103.842	20.091	0.550	0.524
942.000	553.806	80.009	19.993	103.852	20.092	0.467	0.549
943.999	554.857	80.009	19.994	103.856	20.093	0.403	0.527
946.000	555.860	80.009	19.994	103.856	20.094	0.335	0.511
948.000	556.877	80.008	19.994	103.857	20.092	0.433	0.509
950.000	557.925	80.009	19.995	103.862	20.090	0.566	0.517
952.000	558.974	80.010	19.994	103.859	20.093	0.357	0.523
954.000	559.945	80.007	19.994	103.846	20.091	0.530	0.494
955.999	560.986	80.009	19.994	103.848	20.090	0.620	0.512
958.000	562.011	80.008	19.995	103.857	20.093	0.393	0.517
959.999	563.050	80.009	19.994	103.860	20.089	0.686	0.511
962.000	564.040	80.010	19.994	103.858	20.093	0.373	0.501
964.000	565.039	80.010	19.995	103.859	20.093	0.397	0.500
966.000	566.017	80.010	19.994	103.855	20.093	0.373	0.510
968.000	567.049	80.010	19.993	103.855	20.092	0.487	0.488
970.000	568.063	80.011	19.993	103.851	20.092	0.447	0.520
972.000	569.105	80.011	19.994	103.850	20.095	0.227	0.493
974.000	570.120	80.011	19.994	103.859	20.092	0.421	0.509
975.999	571.104	80.011	19.993	103.858	20.092	0.489	0.499
977.999	572.122	80.011	19.994	103.859	20.097	0.086	0.490
980.000	573.141	80.010	19.995	103.861	20.098	0.014	0.491
981.999	574.235	80.009	19.995	103.858	20.095	0.199	0.536
984.000	575.257	80.009	19.995	103.858	20.096	0.170	0.529
986.000	576.248	80.010	19.994	103.863	20.097	0.120	0.499
987.999	577.270	80.009	19.994	103.864	20.094	0.273	0.508
990.000	578.290	80.010	19.995	103.863	20.095	0.241	0.506
992.000	579.292	80.009	19.994	103.862	20.096	0.160	0.535
994.000	580.317	80.011	19.993	103.859	20.096	0.172	0.480
995.999	581.306	80.011	19.993	103.863	20.095	0.225	0.502
997.999	582.329	80.012	19.994	103.863	20.096	0.191	0.498
1000.000	583.348	80.012	19.995	103.862	20.094	0.307	0.524
1002.000	584.382	80.011	19.993	103.864	20.095	0.217	0.513
1003.999	585.394	80.010	19.994	103.868	20.095	0.247	0.489
1005.999	586.410	80.009	19.995	103.868	20.096	0.150	0.520
1008.000	587.396	80.009	19.994	103.864	20.096	0.172	0.499
1010.000	588.397	80.010	19.995	103.860	20.093	0.379	0.468
1012.000	589.419	80.009	19.996	103.854	20.095	0.217	0.509
1014.000	590.425	80.009	19.995	103.859	20.097	0.112	0.509
1015.999	591.446	80.010	19.995	103.861	20.095	0.263	0.519
1017.999	592.442	80.009	19.995	103.858	20.096	0.181	0.507
1020.000	593.442	80.009	19.994	103.857	20.098	0.002	0.485
1022.000	594.521	80.010	19.994	103.861	20.095	0.225	0.526
1024.000	595.499	80.010	19.993	103.852	20.094	0.333	0.460
1025.999	596.560	80.010	19.994	103.850	20.097	0.056	0.519
1027.999	597.544	80.011	19.994	103.856	20.095	0.259	0.493
1029.999	598.558	80.009	19.994	103.852	20.096	0.185	0.470
1032.000	599.542	80.011	19.994	103.855	20.098	0.050	0.528
1034.000	600.584	80.009	19.994	103.853	20.095	0.233	0.496
1036.000	601.619	80.008	19.994	103.847	20.094	0.311	0.516
1038.000	602.606	80.012	19.994	103.856	20.095	0.247	0.532
1039.999	603.626	80.009	19.994	103.842	20.095	0.265	0.513
1041.999	604.607	80.009	19.995	103.852	20.095	0.205	0.518
1044.000	605.683	80.010	19.994	103.859	20.095	0.267	0.533
1046.000	606.669	80.009	19.995	103.848	20.093	0.347	0.495
1047.999	607.676	80.010	19.993	103.861	20.095	0.227	0.520
1050.000	608.721	80.011	19.995	103.864	20.095	0.243	0.507
1052.000	609.738	80.009	19.995	103.859	20.092	0.471	0.506
1054.000	610.717	80.011	19.995	103.851	20.092	0.427	0.509
1055.999	611.720	80.012	19.994	103.856	20.093	0.395	0.495
1058.000	612.745	80.012	19.994	103.855	20.093	0.391	0.530
1059.999	613.745	80.010	19.993	103.855	20.095	0.213	0.514
1061.999	614.727	80.010	19.993	103.853	20.095	0.255	0.501
1063.999	615.749	80.009	19.993	103.853	20.094	0.299	0.520
1066.001	616.767	80.011	19.994	103.856	20.094	0.327	0.500
1067.999	617.750	80.008	19.994	103.863	20.093	0.405	0.496
1070.000	618.733	80.009	19.994	103.858	20.095	0.227	0.489
1072.000	619.783	80.009	19.993	103.858	20.094	0.299	0.534
1074.000	620.768	80.010	19.994	103.848	20.093	0.387	0.512
1076.000	621.735	80.011	19.993	103.854	20.096	0.130	0.521
1077.999	622.718	80.010	19.994	103.844	20.098	0.008	0.485
1080.000	623.729	80.011	19.994	103.856	20.096	0.171	0.509
1082.000	624.729	80.011	19.993	103.834	20.096	0.164	0.492
1084.000	625.693	80.011	19.994	103.848	20.095	0.261	0.509
1086.000	626.685	80.010	19.994	103.848	20.094	0.313	0.516
1088.000	627.645	80.011	19.993	103.841	20.094	0.301	0.499
1090.000	628.641	80.010	19.994	103.846	20.096	0.183	0.476
1092.000	629.645	80.010	19.994	103.849	20.096	0.175	0.488
1094.000	630.621	80.010	19.994	103.846	20.094	0.345	0.523
1096.000	631.673	80.010	19.994	103.833	20.094	0.327	0.541
1098.000	632.608	80.009	19.994	103.842	20.095	0.271	0.502
1100.000	633.615	80.008	19.995	103.844	20.092	0.419	0.526
1102.000	634.586	80.010	19.995	103.858	20.095	0.211	0.497
1103.999	635.630	80.008	19.995	103.857	20.093	0.379	0.522
1106.000	636.643	80.009	19.994	103.845	20.095	0.251	0.542
1108.000	637.622	80.007	19.995	103.849	20.093	0.377	0.454
1110.000	638.668	80.008	19.996	103.847	20.091	0.527	0.502
1111.999	639.659	80.009	19.995	103.857	20.096	0.152	0.470
1113.999	640.691	80.008	19.995	103.855	20.096	0.146	0.499
1116.000	641.700	80.010	19.994	103.856	20.093	0.403	0.507
1118.000	642.757	80.009	19.992	103.855	20.095	0.241	0.545
1120.000	643.722	80.008	19.994	103.861	20.096	0.183	0.501
1122.000	644.756	80.008	19.994	103.862	20.094	0.325	0.498
1124.000	645.782	80.009	19.993	103.847	20.090	0.634	0.502
1126.000	646.880	80.008	19.994	103.843	20.092	0.455	0.543
1128.000	647.891	80.009	19.994	103.853	20.092	0.467	0.532
1130.000	648.914	80.009	19.993	103.849	20.092	0.469	0.525
1132.000	649.966	80.009	19.993	103.849	20.093	0.361	0.546
1134.000	650.968	80.010	19.993	103.848	20.090	0.604	0.519
1136.000	652.020	80.011	19.994	103.851	20.091	0.508	0.514
1138.000	652.985	80.010	19.994	103.846	20.095	0.225	0.523
1140.000	654.078	80.011	19.994	103.858	20.093	0.347	0.541
1142.000	655.041	80.010	19.993	103.860	20.091	0.512	0.541
1144.000	656.106	80.010	19.994	103.841	20.094	0.327	0.534
1146.000	657.162	80.009	19.994	103.850	20.092	0.437	0.508
1148.000	658.120	80.011	19.993	103.836	20.094	0.343	0.520
1150.000	659.115	80.011	19.995	103.850	20.092	0.447	0.513
1151.999	660.224	80.011	19.993	103.853	20.096	0.169	0.553
1154.000	661.124	80.010	19.994	103.837	20.092	0.431	0.559
1155.999	662.104	80.010	19.993	103.851	20.093	0.375	0.536
1157.999	663.073	80.010	19.995	103.840	20.092	0.447	0.426
1160.000	664.083	80.011	19.993	103.854	20.094	0.303	0.468
1162.000	665.071	80.011	19.993	103.846	20.093	0.387	0.503
1163.999	666.023	80.011	19.994	103.851	20.092	0.445	0.493
1165.999	667.016	80.012	19.994	103.838	20.096	0.179	0.498
1168.000	667.968	80.009	19.994	103.838	20.092	0.473	0.482
1170.000	668.985	80.009	19.995	103.853	20.093	0.385	0.495
1172.000	669.964	80.008	19.995	103.855	20.093	0.379	0.486
1173.999	670.975	80.008	19.995	103.856	20.092	0.429	0.535
1176.000	671.944	80.010	19.994	103.853	20.090	0.624	0.511
1178.000	672.931	80.008	19.995	103.853	20.094	0.295	0.530
1180.000	673.929	80.009	19.994	103.850	20.091	0.554	0.510
1182.000	674.991	80.009	19.994	103.864	20.092	0.489	0.566
1183.999	675.962	80.008	19.995	103.864	20.095	0.265	0.507
1186.000	676.964	80.008	19.995	103.863	20.092	0.421	0.497
1188.000	678.025	80.009	19.994	103.863	20.091	0.544	0.529
1190.000	679.035	80.009	19.995	103.863	20.092	0.459	0.495
1192.000	680.066	80.008	19.995	103.861	20.092	0.467	0.504
1194.000	681.078	80.007	19.994	103.862	20.092	0.423	0.483
1195.999	682.133	80.007	19.995	103.855	20.091	0.540	0.514
1198.000	683.184	80.008	19.995	103.863	20.090	0.580	0.528
1200.000	684.208	80.007	19.995	103.863	20.091	0.503	0.529
1201.999	685.236	80.008	19.995	103.865	20.092	0.477	0.478
1204.000	686.302	80.008	19.995	103.856	20.089	0.678	0.551
1206.000	687.357	80.008	19.994	103.859	20.089	0.666	0.524
1208.000	688.355	80.009	19.994	103.860	20.091	0.554	0.528
1210.000	689.405	80.010	19.995	103.861	20.090	0.616	0.518
1211.999	690.449	80.010	19.993	103.861	20.091	0.542	0.521
1214.000	691.487	80.010	19.995	103.848	20.089	0.656	0.508
1215.999	692.566	80.010	19.993	103.846	20.091	0.554	0.526
1217.999	693.593	80.010	19.994	103.853	20.093	0.409	0.512
1219.999	694.635	80.012	19.993	103.857	20.091	0.556	0.513
1222.000	695.644	80.011	19.994	103.861	20.094	0.295	0.517
1223.999	696.687	80.009	19.993	103.858	20.095	0.223	0.500
1226.000	697.731	80.010	19.994	103.842	20.092	0.461	0.511
1228.000	698.713	80.010	19.994	103.840	20.090	0.580	0.482
1230.000	699.759	80.009	19.995	103.856	20.095	0.271	0.516
1232.000	700.765	80.010	19.993	103.848	20.095	0.243	0.485
1234.000	701.758	80.010	19.996	103.854	20.097	0.072	0.509
1235.999	702.806	80.011	19.994	103.855	20.093	0.355	0.493
1238.000	703.808	80.011	19.994	103.861	20.092	0.419	0.493
1240.000	704.796	80.011	19.994	103.856	20.092	0.463	0.478
1242.000	705.795	80.011	19.993	103.858	20.093	0.361	0.521
1244.000	706.767	80.012	19.993	103.857	20.094	0.281	0.460
1245.999	707.806	80.014	19.994	103.839	20.093	0.399	0.509
1247.999	708.757	80.010	19.993	103.854	20.094	0.297	0.461
1249.999	709.776	80.012	19.994	103.863	20.090	0.572	0.474
1252.000	710.762	80.011	19.992	103.864	20.093	0.411	0.493
1253.999	711.739	80.009	19.994	103.857	20.090	0.592	0.484
1256.000	712.774	80.010	19.993	103.844	20.094	0.331	0.524
1258.000	713.719	80.009	19.994	103.857	20.093	0.393	0.480
1260.000	714.773	80.008	19.994	103.862	20.093	0.359	0.500
1262.000	715.786	80.009	19.995	103.866	20.093	0.389	0.504
1264.000	716.783	80.009	19.995	103.854	20.094	0.341	0.508
1266.000	717.800	80.009	19.994	103.855	20.091	0.560	0.512
1267.999	718.784	80.010	19.994	103.854	20.092	0.443	0.502
1269.999	719.772	80.009	19.994	103.854	20.089	0.702	0.476
1272.000	720.786	80.010	19.994	103.861	20.090	0.630	0.501
1273.999	721.802	80.011	19.994	103.857	20.088	0.762	0.513
1276.000	722.799	80.010	19.994	103.854	20.089	0.706	0.513
1277.999	723.783	80.009	19.995	103.860	20.086	0.907	0.503
1280.000	724.769	80.010	19.994	103.843	20.087	0.808	0.473
1281.999	725.726	80.009	19.993	103.861	20.087	0.814	0.507
1284.000	726.713	80.008	19.995	103.855	20.087	0.790	0.484
1285.999	727.720	80.009	19.995	103.847	20.085	0.959	0.513
1288.000	728.718	80.008	19.994	103.850	20.086	0.891	0.499
1289.999	729.717	80.008	19.997	103.856	20.085	0.975	0.501
1291.999	730.681	80.009	19.995	103.849	20.086	0.917	0.468
1294.000	731.701	80.009	19.996	103.847	20.087	0.816	0.508
1296.000	732.689	80.010	19.995	103.843	20.086	0.917	0.523
1297.999	733.675	80.011	19.995	103.853	20.088	0.726	0.506
1300.000	734.677	80.010	19.994	103.853	20.087	0.802	0.491
1302.000	735.620	80.009	19.994	103.841	20.087	0.806	0.484
1304.000	736.610	80.010	19.994	103.853	20.089	0.670	0.486
1306.000	737.602	80.011	19.993	103.858	20.089	0.688	0.512
1308.000	738.628	80.009	19.993	103.848	20.091	0.524	0.499
1309.999	739.597	80.010	19.994	103.858	20.090	0.574	0.509
1312.000	740.602	80.011	19.994	103.853	20.088	0.786	0.520
1313.999	741.599	80.010	19.993	103.852	20.089	0.682	0.484
1316.000	742.559	80.010	19.993	103.845	20.087	0.796	0.492
1317.999	743.564	80.010	19.993	103.838	20.087	0.827	0.508
1318.500	743.798	80.011	19.994	103.833	20.087	0.821	0.454