File: 01_Data/Coffee_Machine/MCC/Coffee_Machine_MCC_30K_min_220202_R2.txt
Sample ID:	C:\MCC\MCC Cal\Test\Coffee_Machine_MCC_30K_min_220202_R2.txt
Sample Weight (mg):	4.42
Heating Rate (C/s):	0.5
Combustor Temp (C):	900
N2 Flow Rate (cc/min):	80
O2 Flow Rate (cc/min):	20
Calibration File:	C:\MCC\MCC Cal\Coeff1 JN10440_30_210304.txt.txt
T Correction Coefficients:	0	1.024463	0
Time Shift (s):	14
*
Time (s)	Temperature (C)	N2 flow rate (cc/min)	O2 flow rate (cc/min)	Flow Rate (cc/min)	Oxygen (%)	HRR (W/g)	Heating rate (C/s)
0.000	112.881	80.012	19.992	103.820	19.942	0.197	-0.013
2.000	112.893	80.013	19.993	103.823	19.938	0.507	-0.007
4.000	112.871	80.012	19.993	103.810	19.942	0.183	-0.029
6.000	112.889	80.012	19.993	103.800	19.942	0.161	0.028
8.000	112.860	80.011	19.994	103.810	19.939	0.388	-0.005
10.000	112.866	80.010	19.994	103.805	19.937	0.529	0.030
12.001	112.869	80.010	19.994	103.798	19.940	0.354	-0.004
14.000	112.857	80.008	19.995	103.814	19.939	0.402	-0.013
16.000	112.838	80.009	19.995	103.845	19.934	0.779	0.004
18.000	112.848	80.010	19.993	103.859	19.934	0.803	0.014
20.000	112.889	80.010	19.994	103.880	19.928	1.193	0.021
22.001	112.878	80.010	19.993	103.910	19.923	1.542	0.005
24.001	112.987	80.009	19.996	103.932	19.923	1.568	0.048
26.000	113.056	80.010	19.993	103.944	19.914	2.256	0.021
28.001	113.222	80.010	19.993	103.956	19.911	2.469	0.067
30.000	113.357	80.010	19.994	103.980	19.911	2.465	0.059
32.000	113.567	80.010	19.995	103.981	19.905	2.918	0.110
34.000	113.790	80.010	19.994	103.993	19.906	2.847	0.126
36.000	113.977	80.012	19.993	104.011	19.900	3.237	0.089
38.001	114.328	80.009	19.995	104.025	19.899	3.354	0.186
40.000	114.597	80.007	19.995	104.029	19.894	3.684	0.131
42.000	114.978	80.010	19.997	104.040	19.898	3.425	0.191
44.000	115.334	80.008	19.995	104.053	19.895	3.658	0.154
46.001	115.736	80.009	19.996	104.047	19.894	3.730	0.190
48.000	116.145	80.010	19.994	104.048	19.893	3.799	0.208
50.000	116.622	80.011	19.994	104.033	19.895	3.666	0.234
52.000	117.099	80.010	19.994	104.053	19.892	3.837	0.246
54.000	117.630	80.011	19.993	104.052	19.891	3.905	0.284
56.000	118.186	80.010	19.993	104.051	19.894	3.672	0.293
58.000	118.684	80.011	19.993	104.045	19.894	3.726	0.252
60.001	119.282	80.011	19.993	104.048	19.895	3.658	0.273
62.000	119.853	80.011	19.993	104.043	19.897	3.508	0.278
64.001	120.447	80.011	19.993	104.052	19.893	3.781	0.309
66.001	121.093	80.012	19.993	104.049	19.896	3.580	0.337
68.001	121.716	80.011	19.992	104.047	19.894	3.743	0.320
70.001	122.310	80.010	19.993	104.048	19.896	3.593	0.316
72.000	123.001	80.011	19.993	104.051	19.891	3.909	0.340
74.001	123.656	80.011	19.993	104.051	19.889	4.059	0.372
76.001	124.342	80.012	19.992	104.049	19.896	3.538	0.302
78.001	125.013	80.011	19.993	104.040	19.890	3.976	0.344
80.000	125.756	80.012	19.993	104.025	19.892	3.875	0.357
82.001	126.445	80.012	19.994	104.044	19.892	3.839	0.358
84.001	127.214	80.014	19.993	104.051	19.892	3.849	0.359
86.001	127.930	80.014	19.993	104.050	19.893	3.754	0.390
88.001	128.638	80.014	19.993	104.035	19.891	3.953	0.368
90.001	129.447	80.013	19.993	104.050	19.892	3.827	0.378
92.000	130.152	80.011	19.994	104.053	19.893	3.785	0.334
94.001	130.917	80.011	19.992	104.051	19.891	3.921	0.375
96.001	131.758	80.010	19.994	104.052	19.889	4.106	0.428
98.001	132.579	80.010	19.993	104.051	19.893	3.794	0.422
100.001	133.309	80.009	19.994	104.053	19.892	3.847	0.388
102.000	134.114	80.011	19.994	104.052	19.888	4.140	0.368
104.000	134.966	80.010	19.994	104.051	19.889	4.065	0.431
106.001	135.740	80.011	19.993	104.053	19.890	3.971	0.420
108.001	136.545	80.010	19.995	104.051	19.889	4.061	0.397
110.000	137.478	80.011	19.995	104.052	19.890	4.007	0.435
112.000	138.344	80.010	19.993	104.045	19.891	3.905	0.471
114.001	139.189	80.011	19.993	104.052	19.890	3.967	0.431
116.000	140.061	80.010	19.994	104.050	19.891	3.919	0.445
118.000	140.905	80.010	19.993	104.057	19.890	3.971	0.402
120.001	141.824	80.010	19.995	104.057	19.889	4.047	0.453
122.000	142.708	80.009	19.993	104.054	19.890	3.984	0.422
124.001	143.624	80.010	19.993	104.053	19.893	3.801	0.467
126.001	144.572	80.010	19.993	104.051	19.890	4.005	0.491
128.001	145.518	80.010	19.994	104.059	19.893	3.805	0.508
130.001	146.433	80.009	19.995	104.059	19.891	3.946	0.437
132.000	147.362	80.009	19.997	104.049	19.896	3.538	0.479
134.000	148.283	80.009	19.996	104.044	19.891	3.929	0.475
136.000	149.260	80.008	19.996	104.052	19.889	4.058	0.485
138.001	150.216	80.011	19.995	104.045	19.891	3.950	0.463
140.001	151.170	80.011	19.995	104.041	19.889	4.094	0.460
142.000	152.170	80.011	19.994	104.039	19.890	3.986	0.504
144.001	153.120	80.012	19.996	104.042	19.890	4.016	0.480
146.001	154.044	80.013	19.995	104.042	19.891	3.940	0.437
148.000	155.013	80.011	19.993	104.026	19.889	4.079	0.463
150.001	155.944	80.011	19.993	104.043	19.892	3.852	0.449
152.001	156.912	80.011	19.994	104.040	19.892	3.868	0.500
154.001	157.906	80.012	19.992	104.031	19.893	3.806	0.492
156.001	158.881	80.012	19.994	104.025	19.893	3.789	0.490
158.000	159.829	80.011	19.992	104.021	19.892	3.850	0.522
160.001	160.766	80.013	19.993	104.021	19.891	3.950	0.498
162.001	161.744	80.011	19.994	104.023	19.890	4.008	0.482
164.001	162.736	80.012	19.993	104.023	19.889	4.095	0.474
166.001	163.691	80.012	19.992	104.022	19.890	4.018	0.474
168.000	164.709	80.013	19.993	104.025	19.889	4.071	0.494
170.000	165.671	80.012	19.993	104.020	19.890	3.966	0.477
172.000	166.646	80.013	19.993	104.018	19.892	3.870	0.450
174.000	167.646	80.013	19.993	104.020	19.889	4.095	0.513
176.000	168.591	80.011	19.993	104.017	19.890	3.992	0.507
178.001	169.600	80.011	19.993	104.021	19.891	3.946	0.492
180.000	170.580	80.010	19.993	104.019	19.892	3.864	0.511
182.001	171.568	80.010	19.994	104.020	19.893	3.786	0.469
184.000	172.516	80.011	19.993	104.022	19.892	3.816	0.468
186.000	173.511	80.010	19.993	104.019	19.894	3.717	0.493
188.000	174.446	80.012	19.991	104.018	19.894	3.737	0.470
190.001	175.488	80.011	19.993	104.017	19.893	3.786	0.478
192.000	176.473	80.010	19.993	104.017	19.895	3.629	0.507
194.000	177.450	80.010	19.993	104.019	19.890	3.977	0.506
196.000	178.455	80.010	19.993	104.020	19.891	3.896	0.513
198.000	179.448	80.009	19.994	104.020	19.893	3.762	0.502
200.000	180.429	80.009	19.994	104.020	19.897	3.467	0.499
202.001	181.455	80.010	19.993	104.013	19.892	3.880	0.522
204.000	182.382	80.012	19.994	104.013	19.892	3.818	0.481
206.000	183.399	80.009	19.995	104.012	19.891	3.911	0.495
208.001	184.359	80.011	19.993	104.006	19.890	4.035	0.484
210.000	185.354	80.011	19.994	104.009	19.892	3.854	0.498
212.001	186.458	80.010	19.994	104.015	19.893	3.774	0.521
214.000	187.433	80.011	19.993	104.015	19.891	3.895	0.495
216.001	188.433	80.012	19.994	104.010	19.893	3.748	0.469
218.000	189.452	80.010	19.994	104.011	19.891	3.913	0.501
220.001	190.407	80.011	19.993	104.006	19.892	3.865	0.492
222.001	191.416	80.011	19.994	104.014	19.889	4.071	0.478
224.001	192.437	80.013	19.994	104.001	19.892	3.883	0.526
226.000	193.468	80.012	19.996	104.014	19.893	3.812	0.491
228.001	194.449	80.015	19.993	103.999	19.892	3.887	0.508
230.001	195.484	80.013	19.993	103.987	19.893	3.748	0.494
232.000	196.453	80.012	19.994	104.001	19.888	4.128	0.485
234.001	197.421	80.012	19.994	103.990	19.892	3.865	0.485
236.000	198.428	80.012	19.994	103.997	19.891	3.923	0.536
238.000	199.443	80.011	19.995	104.000	19.891	3.937	0.516
240.001	200.433	80.011	19.994	103.998	19.890	3.981	0.513
242.001	201.460	80.012	19.995	103.992	19.891	3.959	0.508
244.000	202.436	80.012	19.995	103.985	19.891	3.943	0.518
246.001	203.420	80.013	19.994	103.995	19.892	3.875	0.508
248.001	204.418	80.013	19.993	104.000	19.891	3.940	0.500
250.001	205.420	80.013	19.992	103.989	19.893	3.783	0.453
252.001	206.441	80.014	19.993	103.995	19.892	3.883	0.520
254.000	207.440	80.015	19.993	103.993	19.894	3.741	0.491
256.000	208.469	80.013	19.993	103.997	19.893	3.767	0.487
258.000	209.495	80.012	19.993	103.993	19.894	3.689	0.501
260.001	210.467	80.010	19.993	103.983	19.894	3.723	0.507
262.000	211.539	80.011	19.993	103.990	19.896	3.550	0.522
264.000	212.504	80.010	19.994	103.987	19.898	3.393	0.498
266.000	213.564	80.010	19.993	103.986	19.899	3.335	0.575
268.000	214.541	80.012	19.993	103.984	19.898	3.444	0.505
270.001	215.520	80.012	19.993	103.983	19.896	3.522	0.481
272.000	216.529	80.011	19.993	103.981	19.895	3.610	0.485
274.000	217.570	80.011	19.994	103.979	19.894	3.693	0.478
276.000	218.528	80.012	19.994	103.987	19.894	3.693	0.486
278.000	219.580	80.011	19.993	103.979	19.895	3.631	0.508
280.001	220.590	80.011	19.992	103.980	19.898	3.386	0.506
282.001	221.558	80.012	19.993	103.987	19.898	3.436	0.459
284.000	222.553	80.013	19.993	103.981	19.896	3.548	0.507
286.000	223.578	80.012	19.992	103.982	19.898	3.408	0.527
288.000	224.547	80.013	19.992	103.980	19.895	3.596	0.467
290.000	225.511	80.011	19.995	103.978	19.898	3.418	0.475
292.001	226.564	80.011	19.992	103.978	19.898	3.430	0.519
294.000	227.505	80.010	19.994	103.978	19.897	3.468	0.471
296.000	228.534	80.009	19.994	103.980	19.897	3.500	0.482
298.000	229.558	80.011	19.994	103.979	19.899	3.341	0.528
300.000	230.549	80.012	19.994	103.978	19.895	3.604	0.521
302.000	231.517	80.012	19.995	103.978	19.898	3.386	0.459
304.000	232.512	80.011	19.995	103.978	19.898	3.382	0.516
306.000	233.544	80.011	19.994	103.977	19.900	3.251	0.512
308.000	234.544	80.012	19.994	103.980	19.897	3.452	0.524
310.000	235.514	80.012	19.994	103.977	19.898	3.404	0.511
312.001	236.492	80.012	19.994	103.980	19.896	3.580	0.525
314.000	237.491	80.012	19.992	103.981	19.899	3.369	0.507
316.000	238.464	80.012	19.993	103.980	19.895	3.598	0.484
318.000	239.473	80.010	19.994	103.979	19.894	3.719	0.514
320.000	240.408	80.010	19.994	103.980	19.898	3.402	0.496
322.000	241.391	80.011	19.993	103.979	19.897	3.502	0.497
324.000	242.422	80.010	19.995	103.980	19.893	3.777	0.486
326.000	243.404	80.010	19.995	103.980	19.896	3.577	0.535
328.000	244.386	80.011	19.994	103.975	19.894	3.685	0.499
330.001	245.400	80.011	19.995	103.972	19.892	3.825	0.489
332.000	246.397	80.012	19.994	103.979	19.896	3.542	0.504
334.001	247.416	80.013	19.993	103.975	19.897	3.458	0.514
336.000	248.368	80.012	19.994	103.976	19.898	3.412	0.491
338.000	249.400	80.013	19.994	103.974	19.897	3.513	0.494
340.000	250.435	80.013	19.990	103.975	19.898	3.388	0.523
342.000	251.458	80.011	19.994	103.971	19.893	3.762	0.519
344.000	252.449	80.009	19.994	103.971	19.900	3.280	0.527
346.000	253.508	80.010	19.993	103.972	19.893	3.786	0.539
348.001	254.478	80.012	19.993	103.965	19.893	3.784	0.484
350.000	255.464	80.010	19.995	103.966	19.893	3.743	0.492
352.000	256.521	80.010	19.993	103.969	19.896	3.593	0.497
354.000	257.474	80.011	19.994	103.964	19.894	3.673	0.519
356.000	258.502	80.011	19.993	103.963	19.896	3.539	0.510
358.000	259.521	80.011	19.994	103.964	19.893	3.744	0.518
360.001	260.511	80.011	19.995	103.967	19.893	3.770	0.474
362.000	261.508	80.012	19.993	103.958	19.891	3.921	0.510
364.000	262.483	80.011	19.994	103.959	19.895	3.661	0.501
366.000	263.471	80.010	19.993	103.956	19.892	3.882	0.499
368.000	264.490	80.009	19.995	103.961	19.894	3.732	0.500
370.000	265.528	80.011	19.993	103.954	19.895	3.597	0.523
372.000	266.464	80.010	19.991	103.950	19.893	3.746	0.493
374.000	267.494	80.010	19.993	103.959	19.893	3.772	0.504
376.000	268.501	80.011	19.992	103.962	19.894	3.686	0.479
378.000	269.500	80.010	19.993	103.951	19.893	3.784	0.513
380.000	270.486	80.010	19.991	103.948	19.894	3.703	0.505
382.000	271.550	80.011	19.992	103.953	19.892	3.838	0.496
384.000	272.569	80.009	19.995	103.949	19.893	3.774	0.539
386.000	273.536	80.010	19.993	103.951	19.893	3.748	0.495
388.000	274.532	80.010	19.994	103.947	19.893	3.762	0.508
390.001	275.587	80.010	19.995	103.957	19.897	3.453	0.529
392.000	276.536	80.010	19.992	103.959	19.894	3.672	0.480
394.000	277.547	80.012	19.994	103.947	19.891	3.943	0.479
396.001	278.558	80.013	19.994	103.954	19.894	3.706	0.514
398.000	279.586	80.012	19.994	103.945	19.896	3.530	0.498
400.000	280.553	80.011	19.992	103.944	19.894	3.674	0.471
402.000	281.585	80.010	19.992	103.946	19.894	3.668	0.480
404.000	282.579	80.011	19.994	103.944	19.896	3.538	0.480
406.000	283.552	80.012	19.993	103.948	19.899	3.365	0.498
408.000	284.583	80.012	19.993	103.943	19.896	3.558	0.514
410.001	285.581	80.012	19.994	103.937	19.894	3.714	0.504
412.000	286.614	80.012	19.995	103.939	19.894	3.672	0.517
414.000	287.585	80.013	19.993	103.941	19.896	3.521	0.492
416.000	288.570	80.014	19.993	103.941	19.894	3.694	0.514
418.000	289.552	80.013	19.994	103.940	19.894	3.732	0.471
420.001	290.569	80.012	19.994	103.938	19.896	3.540	0.504
422.000	291.606	80.012	19.993	103.936	19.891	3.889	0.543
424.000	292.570	80.012	19.994	103.938	19.893	3.777	0.493
426.000	293.529	80.011	19.993	103.940	19.892	3.873	0.479
428.000	294.507	80.009	19.995	103.938	19.894	3.718	0.478
430.000	295.520	80.010	19.993	103.935	19.891	3.919	0.503
432.000	296.484	80.010	19.993	103.933	19.887	4.182	0.502
434.000	297.432	80.010	19.995	103.938	19.892	3.863	0.476
436.000	298.433	80.011	19.995	103.938	19.889	4.041	0.505
438.001	299.418	80.010	19.993	103.939	19.891	3.935	0.480
440.000	300.377	80.010	19.995	103.942	19.886	4.271	0.505
442.000	301.361	80.011	19.995	103.941	19.890	3.961	0.471
444.000	302.370	80.011	19.993	103.943	19.890	3.993	0.519
446.001	303.321	80.011	19.994	103.947	19.889	4.082	0.508
448.000	304.321	80.011	19.992	103.941	19.886	4.287	0.508
450.000	305.310	80.013	19.994	103.942	19.887	4.233	0.509
452.000	306.288	80.010	19.996	103.943	19.889	4.096	0.495
454.000	307.241	80.011	19.993	103.942	19.886	4.285	0.484
456.000	308.263	80.011	19.993	103.942	19.889	4.072	0.520
458.001	309.261	80.012	19.991	103.941	19.890	3.965	0.492
460.001	310.254	80.009	19.992	103.941	19.887	4.217	0.513
462.001	311.236	80.009	19.994	103.942	19.886	4.263	0.494
464.000	312.235	80.010	19.994	103.943	19.886	4.275	0.499
466.000	313.255	80.009	19.993	103.943	19.886	4.261	0.504
468.000	314.229	80.011	19.992	103.942	19.887	4.192	0.496
470.000	315.254	80.012	19.992	103.940	19.887	4.188	0.506
472.000	316.276	80.012	19.993	103.939	19.892	3.843	0.522
474.000	317.258	80.012	19.993	103.935	19.884	4.466	0.511
476.001	318.251	80.012	19.993	103.934	19.881	4.626	0.502
478.001	319.249	80.012	19.992	103.934	19.883	4.480	0.491
480.001	320.238	80.012	19.993	103.939	19.883	4.490	0.506
482.000	321.257	80.014	19.993	103.937	19.884	4.456	0.495
484.000	322.254	80.013	19.992	103.939	19.884	4.460	0.492
486.000	323.239	80.013	19.994	103.938	19.884	4.446	0.473
488.000	324.221	80.012	19.993	103.935	19.884	4.442	0.501
490.000	325.213	80.012	19.994	103.938	19.880	4.745	0.475
492.000	326.240	80.012	19.995	103.937	19.881	4.659	0.492
494.001	327.236	80.012	19.994	103.937	19.879	4.821	0.515
496.001	328.235	80.014	19.994	103.937	19.878	4.875	0.489
498.000	329.294	80.013	19.994	103.937	19.880	4.703	0.518
500.001	330.293	80.013	19.994	103.937	19.881	4.677	0.502
502.001	331.292	80.014	19.994	103.936	19.877	4.950	0.481
504.000	332.336	80.014	19.993	103.936	19.877	4.966	0.514
506.000	333.394	80.014	19.993	103.939	19.876	4.996	0.526
508.000	334.419	80.011	19.992	103.938	19.877	4.970	0.486
510.000	335.438	80.011	19.994	103.937	19.874	5.163	0.485
512.000	336.490	80.011	19.993	103.940	19.869	5.541	0.483
514.000	337.494	80.010	19.995	103.939	19.873	5.269	0.532
516.001	338.567	80.010	19.994	103.938	19.870	5.480	0.529
518.000	339.542	80.010	19.994	103.940	19.870	5.490	0.506
520.000	340.564	80.010	19.995	103.940	19.868	5.601	0.488
522.001	341.606	80.010	19.994	103.939	19.868	5.599	0.511
524.000	342.624	80.010	19.995	103.932	19.868	5.615	0.502
526.000	343.676	80.011	19.995	103.936	19.863	5.970	0.533
528.000	344.676	80.011	19.995	103.933	19.866	5.788	0.516
530.001	345.685	80.010	19.997	103.937	19.869	5.551	0.512
532.000	346.690	80.010	19.994	103.937	19.866	5.727	0.473
534.001	347.767	80.010	19.993	103.936	19.866	5.778	0.526
536.001	348.763	80.011	19.994	103.934	19.865	5.828	0.519
538.000	349.803	80.011	19.993	103.936	19.863	5.989	0.517
540.000	350.848	80.010	19.993	103.933	19.861	6.159	0.502
542.001	351.854	80.011	19.992	103.935	19.860	6.203	0.523
544.000	352.907	80.009	19.993	103.937	19.856	6.455	0.543
546.000	353.966	80.011	19.992	103.928	19.856	6.481	0.539
548.000	354.979	80.010	19.993	103.926	19.857	6.398	0.498
550.001	355.983	80.012	19.992	103.937	19.853	6.688	0.503
552.000	357.019	80.009	19.993	103.933	19.858	6.330	0.510
554.000	358.042	80.011	19.994	103.931	19.857	6.449	0.511
556.000	359.102	80.012	19.994	103.927	19.855	6.563	0.512
558.001	360.095	80.012	19.993	103.930	19.853	6.690	0.541
560.000	361.081	80.012	19.993	103.934	19.850	6.927	0.482
562.000	362.183	80.011	19.994	103.936	19.849	6.991	0.527
564.000	363.141	80.015	19.995	103.934	19.849	7.019	0.498
566.000	364.245	80.011	19.996	103.936	19.848	7.080	0.559
568.000	365.249	80.012	19.992	103.926	19.834	8.103	0.510
570.001	366.265	80.010	19.995	103.927	19.836	7.978	0.525
572.001	367.259	80.010	19.992	103.933	19.838	7.790	0.527
574.001	368.360	80.011	19.994	103.939	19.839	7.752	0.506
576.000	369.379	80.011	19.992	103.936	19.836	7.950	0.555
578.001	370.378	80.011	19.993	103.931	19.836	7.926	0.589
580.000	371.329	80.012	19.993	103.925	19.832	8.229	0.433
582.000	372.193	80.013	19.993	103.938	19.830	8.381	0.194
584.001	373.414	80.013	19.993	103.930	19.826	8.654	0.484
586.000	374.434	80.013	19.993	103.918	19.825	8.792	0.673
588.000	375.629	80.011	19.994	103.921	19.820	9.137	0.459
590.000	376.630	80.011	19.993	103.926	19.821	9.066	0.526
592.000	377.634	80.011	19.993	103.923	19.817	9.337	0.516
594.000	378.602	80.009	19.993	103.913	19.817	9.339	0.515
596.000	379.580	80.009	19.993	103.914	19.816	9.458	0.505
598.000	380.615	80.010	19.994	103.915	19.812	9.696	0.551
600.000	381.610	80.012	19.993	103.907	19.809	9.953	0.518
602.001	382.604	80.010	19.993	103.912	19.803	10.383	0.474
604.001	383.577	80.007	19.993	103.912	19.799	10.654	0.485
606.000	384.621	80.009	19.993	103.918	19.796	10.874	0.504
608.000	385.615	80.011	19.993	103.918	19.792	11.168	0.518
610.000	386.659	80.010	19.994	103.933	19.790	11.352	0.533
612.000	387.678	80.012	19.994	103.919	19.778	12.221	0.538
614.001	388.635	80.010	19.993	103.931	19.775	12.409	0.499
616.000	389.684	80.011	19.994	103.916	19.768	12.959	0.493
618.000	390.732	80.010	19.994	103.923	19.759	13.611	0.501
620.001	391.759	80.010	19.995	103.910	19.752	14.141	0.517
622.000	392.763	80.008	19.994	103.921	19.746	14.559	0.512
624.000	393.854	80.012	19.995	103.907	19.737	15.235	0.552
626.001	394.874	80.008	19.994	103.913	19.726	16.042	0.511
628.001	395.919	80.010	19.993	103.911	19.717	16.649	0.526
630.000	397.008	80.010	19.993	103.917	19.707	17.454	0.567
632.001	398.030	80.010	19.994	103.909	19.692	18.493	0.508
634.001	399.075	80.012	19.993	103.905	19.683	19.171	0.522
636.000	400.184	80.014	19.992	103.907	19.674	19.842	0.561
638.000	401.229	80.011	19.993	103.905	19.661	20.812	0.518
640.000	402.268	80.010	19.993	103.915	19.649	21.654	0.505
642.001	403.328	80.013	19.993	103.902	19.638	22.498	0.519
644.001	404.361	80.012	19.993	103.906	19.624	23.534	0.522
646.000	405.379	80.011	19.993	103.902	19.610	24.540	0.528
648.000	406.439	80.012	19.993	103.903	19.590	25.969	0.511
650.000	407.493	80.011	19.993	103.905	19.575	27.097	0.529
652.001	408.528	80.010	19.992	103.905	19.554	28.658	0.518
654.000	409.493	80.010	19.995	103.895	19.536	29.955	0.519
656.000	410.651	80.011	19.993	103.894	19.517	31.364	0.526
658.000	411.638	80.012	19.992	103.881	19.495	32.972	0.514
660.000	412.698	80.011	19.992	103.879	19.474	34.486	0.505
662.000	413.726	80.012	19.993	103.890	19.450	36.223	0.519
664.001	414.752	80.012	19.992	103.889	19.429	37.770	0.544
666.000	415.772	80.013	19.993	103.881	19.401	39.813	0.509
668.000	416.805	80.014	19.993	103.867	19.378	41.546	0.515
670.001	417.776	80.014	19.992	103.859	19.351	43.536	0.486
672.001	418.858	80.013	19.992	103.866	19.324	45.453	0.534
674.000	419.844	80.011	19.993	103.863	19.291	47.881	0.515
676.000	420.808	80.011	19.993	103.862	19.253	50.697	0.501
678.000	421.826	80.008	19.993	103.859	19.218	53.273	0.504
680.001	422.815	80.010	19.992	103.855	19.184	55.768	0.491
682.001	423.806	80.009	19.992	103.849	19.157	57.702	0.491
684.001	424.842	80.011	19.995	103.828	19.128	59.851	0.513
686.001	425.836	80.009	19.994	103.821	19.099	61.904	0.479
688.000	426.809	80.008	19.994	103.827	19.055	65.155	0.483
690.001	427.763	80.010	19.993	103.854	18.999	69.244	0.479
692.000	428.764	80.012	19.993	103.868	18.946	73.159	0.493
694.000	429.756	80.012	19.994	103.825	18.905	76.214	0.484
696.001	430.790	80.011	19.994	103.774	18.869	78.794	0.485
698.000	431.785	80.011	19.994	103.745	18.829	81.762	0.503
700.000	432.768	80.011	19.994	103.778	18.787	84.794	0.532
702.001	433.754	80.011	19.993	103.801	18.737	88.420	0.528
704.000	434.800	80.010	19.994	103.806	18.666	93.612	0.497
706.000	435.735	80.011	19.995	103.826	18.582	99.731	0.482
708.000	436.731	80.010	19.995	103.831	18.485	106.847	0.498
710.001	437.747	80.011	19.994	103.800	18.383	114.318	0.494
712.000	438.695	80.009	19.995	103.768	18.274	122.252	0.484
714.000	439.693	80.009	19.994	103.747	18.162	130.486	0.519
716.001	440.652	80.009	19.995	103.740	18.047	138.872	0.481
718.001	441.595	80.010	19.994	103.734	17.927	147.650	0.442
720.001	442.575	80.011	19.994	103.728	17.797	157.150	0.485
722.001	443.581	80.011	19.993	103.712	17.658	167.281	0.488
724.000	444.526	80.012	19.993	103.705	17.506	178.310	0.489
726.001	445.497	80.013	19.993	103.700	17.351	189.598	0.484
728.000	446.444	80.012	19.993	103.680	17.187	201.512	0.496
730.000	447.395	80.011	19.994	103.666	17.012	214.271	0.484
732.001	448.409	80.013	19.992	103.641	16.824	227.897	0.499
734.000	449.288	80.012	19.994	103.616	16.620	242.747	0.419
736.000	450.263	80.011	19.993	103.594	16.414	257.692	0.439
738.000	451.229	80.010	19.993	103.554	16.202	273.026	0.473
740.001	452.196	80.011	19.993	103.521	15.979	289.127	0.483
742.000	453.179	80.012	19.993	103.476	15.741	306.350	0.505
744.000	454.161	80.013	19.995	103.455	15.502	323.640	0.454
746.000	455.100	80.012	19.993	103.427	15.250	341.803	0.463
748.001	456.124	80.012	19.994	103.370	14.998	359.962	0.493
750.000	457.103	80.013	19.993	103.316	14.750	378.011	0.500
752.001	458.052	80.014	19.993	103.264	14.489	396.995	0.498
754.001	459.020	80.013	19.993	103.230	14.224	415.768	0.462
756.000	460.023	80.013	19.994	103.178	13.960	434.723	0.483
758.000	460.989	80.012	19.994	103.123	13.692	453.937	0.511
760.000	461.979	80.012	19.993	103.075	13.436	472.507	0.485
762.000	462.957	80.011	19.995	103.099	13.178	491.085	0.474
764.001	463.940	80.011	19.994	102.999	12.939	507.926	0.496
766.000	464.935	80.011	19.993	102.943	12.715	524.092	0.510
768.000	465.888	80.012	19.993	102.875	12.494	540.274	0.504
770.000	466.939	80.010	19.993	102.854	12.302	554.352	0.525
772.000	467.896	80.011	19.994	102.846	12.151	565.046	0.509
774.000	468.921	80.011	19.994	102.767	12.044	572.752	0.509
776.000	469.899	80.012	19.994	102.697	11.972	578.138	0.504
778.000	470.955	80.009	19.993	102.721	11.935	581.156	0.501
780.000	471.987	80.010	19.994	102.748	11.947	580.439	0.533
782.000	472.969	80.011	19.994	102.745	12.027	574.971	0.475
784.000	474.020	80.010	19.994	102.706	12.163	565.100	0.511
786.000	475.059	80.009	19.994	102.711	12.352	552.029	0.509
788.000	476.094	80.010	19.994	102.759	12.594	534.747	0.510
790.000	477.119	80.008	19.994	102.806	12.900	512.887	0.526
792.000	478.127	80.009	19.994	102.846	13.250	487.714	0.500
794.000	479.245	80.009	19.993	102.863	13.645	459.357	0.549
796.001	480.254	80.010	19.995	102.924	14.069	428.660	0.544
798.000	481.310	80.011	19.994	103.040	14.520	396.033	0.523
800.000	482.353	80.012	19.994	103.094	15.002	361.215	0.543
802.000	483.401	80.010	19.994	103.179	15.496	325.351	0.512
804.000	484.457	80.012	19.994	103.257	15.988	289.605	0.520
806.000	485.528	80.012	19.994	103.331	16.472	254.370	0.530
808.000	486.547	80.013	19.995	103.395	16.941	220.102	0.511
810.001	487.590	80.012	19.995	103.487	17.372	188.554	0.509
812.001	488.640	80.011	19.994	103.576	17.769	159.477	0.523
814.000	489.695	80.011	19.995	103.660	18.129	133.131	0.515
816.001	490.710	80.011	19.994	103.736	18.445	109.968	0.511
818.000	491.783	80.011	19.994	103.787	18.718	89.970	0.517
820.000	492.818	80.010	19.995	103.826	18.946	73.201	0.509
822.000	493.860	80.010	19.993	103.854	19.139	59.075	0.514
824.000	494.922	80.012	19.993	103.880	19.292	47.836	0.539
826.000	495.938	80.012	19.993	103.900	19.417	38.687	0.509
828.000	497.019	80.014	19.992	103.894	19.523	30.958	0.516
830.000	498.034	80.014	19.993	103.895	19.604	24.965	0.502
832.001	499.038	80.014	19.994	103.895	19.667	20.300	0.495
834.000	500.049	80.013	19.993	103.881	19.719	16.543	0.520
836.000	501.097	80.014	19.992	103.893	19.762	13.348	0.514
838.000	502.145	80.012	19.993	103.975	19.798	10.732	0.543
840.000	503.163	80.011	19.994	103.920	19.820	9.133	0.520
842.000	504.171	80.011	19.993	103.825	19.836	7.971	0.521
844.001	505.217	80.012	19.994	103.790	19.849	7.015	0.514
846.000	506.263	80.011	19.994	103.738	19.860	6.192	0.510
848.000	507.260	80.011	19.993	103.704	19.862	6.030	0.522
850.000	508.251	80.011	19.994	103.710	19.868	5.583	0.486
852.001	509.282	80.011	19.994	103.742	19.871	5.388	0.502
854.000	510.355	80.011	19.994	103.777	19.875	5.060	0.514
856.001	511.353	80.010	19.995	103.803	19.876	4.986	0.542
858.000	512.387	80.010	19.994	103.829	19.878	4.876	0.504
860.000	513.408	80.011	19.994	103.849	19.884	4.449	0.525
862.000	514.499	80.012	19.993	103.861	19.884	4.436	0.510
864.001	515.580	80.011	19.995	103.861	19.883	4.541	0.564
866.000	516.632	80.012	19.994	103.840	19.883	4.483	0.530
868.000	517.690	80.011	19.994	103.812	19.882	4.549	0.558
870.000	518.692	80.012	19.994	103.862	19.883	4.515	0.521
872.000	519.756	80.011	19.993	103.867	19.884	4.427	0.528
874.000	520.840	80.010	19.996	103.875	19.887	4.225	0.538
876.000	521.868	80.011	19.995	103.870	19.887	4.210	0.511
878.001	522.875	80.010	19.995	103.871	19.890	3.980	0.537
880.000	523.902	80.010	19.995	103.881	19.890	4.011	0.509
882.000	524.899	80.010	19.995	103.867	19.889	4.087	0.490
884.000	525.907	80.011	19.994	103.873	19.889	4.085	0.507
886.000	526.966	80.012	19.993	103.867	19.890	3.989	0.517
888.000	527.992	80.013	19.995	103.863	19.894	3.715	0.537
890.001	528.996	80.014	19.995	103.864	19.890	3.974	0.515
892.000	530.039	80.013	19.995	103.861	19.895	3.635	0.501
894.000	531.039	80.014	19.994	103.862	19.891	3.920	0.534
896.000	532.047	80.013	19.994	103.861	19.892	3.854	0.514
898.000	533.033	80.011	19.993	103.859	19.892	3.876	0.482
900.000	534.051	80.011	19.993	103.858	19.894	3.715	0.505
902.000	535.075	80.011	19.995	103.863	19.894	3.735	0.514
904.000	536.077	80.010	19.994	103.859	19.892	3.873	0.498
906.000	537.075	80.011	19.995	103.860	19.892	3.850	0.498
908.000	538.059	80.011	19.994	103.862	19.895	3.652	0.504
910.000	539.081	80.010	19.994	103.863	19.895	3.594	0.529
912.000	540.089	80.012	19.994	103.864	19.896	3.539	0.508
914.001	541.085	80.014	19.995	103.875	19.893	3.750	0.530
916.000	542.054	80.013	19.993	103.875	19.894	3.696	0.485
918.000	543.029	80.013	19.993	103.868	19.893	3.787	0.518
920.001	544.028	80.011	19.993	103.882	19.895	3.628	0.482
922.001	545.015	80.011	19.993	103.885	19.894	3.719	0.482
924.000	546.000	80.012	19.994	103.888	19.898	3.383	0.497
926.000	546.991	80.010	19.993	103.897	19.897	3.482	0.519
928.001	547.994	80.010	19.993	103.892	19.895	3.645	0.477
930.000	549.009	80.010	19.993	103.884	19.898	3.385	0.516
932.000	550.008	80.011	19.994	103.879	19.896	3.576	0.496
934.000	551.018	80.011	19.993	103.876	19.895	3.601	0.511
936.000	552.003	80.010	19.993	103.865	19.895	3.621	0.493
938.001	553.017	80.011	19.994	103.867	19.896	3.575	0.509
940.000	553.995	80.011	19.993	103.862	19.898	3.382	0.493
942.001	555.060	80.011	19.992	103.866	19.895	3.617	0.506
944.000	556.032	80.011	19.994	103.864	19.895	3.611	0.483
946.001	557.047	80.012	19.993	103.848	19.896	3.572	0.502
948.000	558.025	80.012	19.994	103.856	19.894	3.729	0.524
950.000	559.040	80.011	19.993	103.854	19.898	3.370	0.483
952.000	560.035	80.011	19.993	103.851	19.898	3.378	0.500
954.000	561.029	80.012	19.993	103.851	19.900	3.288	0.522
956.001	562.040	80.012	19.993	103.859	19.896	3.537	0.510
958.000	563.048	80.012	19.993	103.859	19.900	3.276	0.511
960.000	564.046	80.011	19.993	103.862	19.900	3.225	0.496
962.000	565.084	80.010	19.994	103.850	19.902	3.130	0.518
964.000	566.069	80.011	19.993	103.837	19.902	3.094	0.486
966.000	567.074	80.011	19.994	103.827	19.901	3.192	0.509
968.000	568.083	80.012	19.994	103.827	19.902	3.114	0.488
970.000	569.020	80.012	19.994	103.828	19.902	3.086	0.455
972.001	570.066	80.012	19.995	103.854	19.900	3.241	0.501
974.000	571.146	80.011	19.995	103.861	19.902	3.124	0.525
976.000	572.166	80.012	19.995	103.860	19.901	3.156	0.536
978.000	573.200	80.012	19.994	103.861	19.904	2.959	0.528
980.000	574.217	80.012	19.993	103.863	19.904	2.985	0.543
982.001	575.276	80.012	19.992	103.862	19.902	3.136	0.520
984.000	576.327	80.011	19.994	103.861	19.908	2.706	0.510
986.000	577.313	80.012	19.994	103.865	19.906	2.847	0.512
988.000	578.324	80.013	19.993	103.865	19.906	2.815	0.483
990.000	579.363	80.011	19.993	103.863	19.907	2.764	0.498
992.000	580.413	80.012	19.993	103.860	19.905	2.873	0.523
994.000	581.421	80.014	19.993	103.861	19.905	2.885	0.484
996.001	582.448	80.013	19.994	103.860	19.900	3.257	0.498
998.000	583.459	80.013	19.994	103.858	19.904	2.945	0.496
1000.000	584.476	80.013	19.995	103.859	19.903	3.016	0.521
1002.001	585.501	80.012	19.994	103.858	19.907	2.726	0.533
1004.000	586.521	80.012	19.994	103.858	19.907	2.776	0.509
1006.000	587.496	80.011	19.994	103.853	19.909	2.626	0.502
1008.000	588.526	80.011	19.993	103.848	19.913	2.310	0.484
1010.000	589.536	80.012	19.994	103.854	19.913	2.320	0.509
1012.000	590.549	80.011	19.993	103.842	19.913	2.330	0.515
1014.000	591.544	80.011	19.993	103.854	19.912	2.366	0.526
1016.000	592.562	80.012	19.994	103.860	19.909	2.632	0.496
1018.000	593.611	80.012	19.994	103.858	19.911	2.431	0.512
1020.000	594.627	80.010	19.994	103.860	19.908	2.638	0.510
1022.000	595.662	80.012	19.994	103.857	19.911	2.422	0.506
1024.001	596.685	80.011	19.993	103.858	19.910	2.521	0.473
1026.001	597.722	80.012	19.993	103.860	19.908	2.654	0.528
1028.001	598.711	80.012	19.993	103.858	19.909	2.577	0.506
1030.001	599.673	80.012	19.993	103.862	19.906	2.843	0.489
1032.001	600.735	80.012	19.994	103.863	19.911	2.442	0.512
1034.001	601.743	80.011	19.993	103.863	19.912	2.386	0.518
1036.001	602.754	80.011	19.992	103.865	19.911	2.422	0.526
1038.001	603.768	80.010	19.992	103.865	19.908	2.684	0.536
1040.001	604.786	80.010	19.994	103.865	19.912	2.376	0.492
1042.000	605.811	80.011	19.994	103.867	19.912	2.412	0.535
1044.001	606.842	80.009	19.995	103.870	19.916	2.101	0.508
1046.000	607.882	80.011	19.994	103.872	19.913	2.336	0.540
1048.000	608.977	80.011	19.993	103.867	19.914	2.219	0.558
1050.000	609.973	80.012	19.993	103.867	19.913	2.324	0.513
1052.001	611.020	80.012	19.994	103.868	19.913	2.324	0.530
1054.001	612.100	80.011	19.992	103.867	19.913	2.296	0.551
1056.001	613.143	80.013	19.993	103.866	19.913	2.320	0.534
1058.000	614.203	80.013	19.993	103.867	19.915	2.155	0.512
1060.000	615.227	80.012	19.993	103.863	19.916	2.117	0.531
1062.001	616.273	80.013	19.993	103.863	19.912	2.414	0.529
1064.001	617.320	80.012	19.994	103.864	19.913	2.282	0.529
1066.000	618.350	80.012	19.994	103.863	19.912	2.372	0.501
1068.000	619.371	80.013	19.994	103.861	19.911	2.420	0.516
1070.000	620.385	80.011	19.994	103.861	19.917	2.022	0.518
1072.001	621.428	80.011	19.994	103.861	19.916	2.051	0.481
1074.001	622.468	80.013	19.994	103.860	19.914	2.231	0.519
1076.001	623.457	80.013	19.994	103.861	19.916	2.065	0.480
1078.000	624.488	80.014	19.994	103.860	19.919	1.844	0.513
1080.000	625.477	80.014	19.994	103.860	19.919	1.880	0.498
1082.000	626.508	80.013	19.994	103.859	19.917	2.039	0.514
1084.000	627.518	80.013	19.995	103.861	19.918	1.916	0.506
1086.001	628.497	80.012	19.994	103.861	19.921	1.721	0.504
1088.001	629.478	80.012	19.994	103.860	19.915	2.151	0.493
1090.001	630.544	80.011	19.994	103.860	19.913	2.288	0.526
1092.000	631.577	80.010	19.995	103.860	19.916	2.097	0.490
1094.000	632.537	80.009	19.994	103.858	19.918	1.926	0.494
1096.000	633.570	80.010	19.995	103.859	19.915	2.139	0.497
1098.000	634.576	80.010	19.994	103.863	19.916	2.097	0.502
1100.000	635.623	80.010	19.995	103.863	19.916	2.069	0.511
1102.000	636.625	80.010	19.995	103.863	19.917	2.050	0.501
1104.001	637.598	80.010	19.996	103.863	19.918	1.974	0.495
1106.001	638.652	80.012	19.994	103.866	19.916	2.097	0.523
1108.000	639.658	80.011	19.994	103.865	19.919	1.845	0.514
1110.000	640.634	80.012	19.992	103.867	19.920	1.789	0.483
1112.000	641.676	80.010	19.993	103.868	19.919	1.888	0.493
1114.000	642.707	80.011	19.993	103.865	19.919	1.884	0.495
1116.001	643.703	80.009	19.993	103.866	19.919	1.876	0.530
1118.000	644.706	80.010	19.993	103.866	19.921	1.743	0.513
1120.000	645.736	80.012	19.993	103.865	19.920	1.819	0.502
1122.000	646.792	80.010	19.993	103.863	19.921	1.711	0.538
1124.001	647.848	80.011	19.993	103.864	19.917	1.994	0.558
1126.001	648.840	80.010	19.994	103.865	19.920	1.789	0.517
1128.000	649.845	80.011	19.994	103.864	19.919	1.904	0.511
1130.000	650.852	80.012	19.994	103.865	19.918	1.946	0.520
1132.000	651.887	80.012	19.994	103.865	19.917	2.039	0.524
1134.000	652.938	80.013	19.994	103.862	19.920	1.811	0.537
1136.000	653.925	80.012	19.992	103.861	19.919	1.876	0.489
1138.000	654.964	80.014	19.994	103.861	19.922	1.626	0.525
1140.000	655.993	80.012	19.993	103.859	19.923	1.546	0.519
1142.000	656.982	80.012	19.993	103.861	19.920	1.809	0.510
1144.001	658.027	80.011	19.993	103.858	19.920	1.759	0.511
1146.000	659.014	80.011	19.993	103.864	19.925	1.425	0.502
1148.000	660.049	80.012	19.994	103.861	19.919	1.833	0.547
1150.001	661.025	80.012	19.994	103.861	19.923	1.592	0.449
1152.000	662.078	80.010	19.995	103.861	19.923	1.580	0.520
1154.000	663.071	80.012	19.994	103.865	19.922	1.667	0.489
1156.001	664.129	80.012	19.993	103.865	19.923	1.564	0.512
1158.000	665.130	80.012	19.993	103.866	19.924	1.506	0.507
1160.001	666.207	80.012	19.993	103.862	19.920	1.807	0.518
1162.000	667.235	80.012	19.994	103.863	19.925	1.395	0.516
1164.000	668.270	80.013	19.994	103.862	19.926	1.319	0.476
1166.000	669.333	80.012	19.995	103.865	19.923	1.586	0.482
1168.000	670.352	80.012	19.994	103.866	19.925	1.439	0.505
1170.000	671.456	80.012	19.995	103.862	19.924	1.478	0.564
1172.001	672.512	80.010	19.994	103.867	19.928	1.240	0.533
1174.001	673.576	80.011	19.993	103.864	19.923	1.592	0.552
1176.000	674.612	80.010	19.993	103.865	19.927	1.291	0.509
1178.000	675.697	80.010	19.993	103.866	19.927	1.297	0.572
1180.000	676.720	80.010	19.994	103.865	19.930	1.096	0.502
1182.000	677.773	80.011	19.994	103.865	19.927	1.263	0.483
1184.000	678.793	80.010	19.995	103.865	19.928	1.190	0.521
1186.000	679.807	80.010	19.995	103.865	19.927	1.287	0.520
1188.000	680.746	80.010	19.995	103.865	19.927	1.273	0.473
1190.000	681.798	80.011	19.995	103.860	19.927	1.279	0.506
1192.000	682.764	80.009	19.995	103.859	19.927	1.281	0.502
1194.000	683.765	80.010	19.995	103.859	19.929	1.142	0.520
1196.000	684.754	80.011	19.995	103.859	19.927	1.289	0.511
1198.000	685.681	80.009	19.994	103.860	19.925	1.403	0.485
1200.000	686.662	80.011	19.994	103.860	19.928	1.190	0.459
1202.000	687.662	80.011	19.995	103.858	19.928	1.196	0.491
1204.000	688.591	80.010	19.994	103.855	19.929	1.152	0.471
1206.001	689.564	80.010	19.993	103.861	19.930	1.037	0.499
1208.000	690.552	80.010	19.994	103.860	19.932	0.931	0.522
1210.000	691.511	80.012	19.994	103.863	19.929	1.122	0.483
1212.000	692.457	80.012	19.993	103.863	19.931	0.975	0.480
1214.000	693.462	80.013	19.993	103.865	19.930	1.047	0.527
1216.000	694.498	80.012	19.994	103.861	19.930	1.061	0.492
1218.000	695.520	80.012	19.993	103.862	19.930	1.094	0.517
1220.000	696.538	80.013	19.994	103.861	19.929	1.104	0.509
1222.001	697.535	80.012	19.994	103.860	19.930	1.067	0.535
1224.000	698.586	80.013	19.995	103.859	19.929	1.116	0.549
1226.001	699.594	80.012	19.994	103.866	19.931	1.001	0.526
1228.001	700.616	80.012	19.994	103.863	19.932	0.941	0.508
1230.000	701.630	80.012	19.994	103.864	19.930	1.037	0.509
1232.001	702.655	80.013	19.995	103.866	19.930	1.041	0.471
1234.000	703.688	80.012	19.994	103.864	19.933	0.826	0.503
1236.001	704.706	80.014	19.993	103.862	19.930	1.027	0.553
1238.000	705.677	80.014	19.992	103.861	19.931	0.975	0.499
1240.000	706.675	80.014	19.992	103.861	19.933	0.816	0.473
1242.000	707.718	80.013	19.992	103.856	19.931	0.969	0.490
1244.001	708.718	80.014	19.992	103.858	19.931	1.005	0.486
1246.000	709.763	80.014	19.993	103.851	19.932	0.951	0.487
1248.000	710.766	80.012	19.993	103.862	19.928	1.208	0.509
1250.000	711.793	80.013	19.993	103.864	19.933	0.810	0.509
1252.000	712.797	80.010	19.992	103.863	19.931	0.955	0.533
1254.000	713.824	80.011	19.995	103.858	19.935	0.712	0.510
1256.000	714.814	80.011	19.995	103.861	19.932	0.941	0.504
1258.000	715.840	80.011	19.994	103.855	19.932	0.925	0.515
1260.000	716.870	80.011	19.995	103.854	19.933	0.859	0.537
1262.000	717.859	80.011	19.993	103.850	19.934	0.780	0.492
1264.001	718.883	80.011	19.994	103.850	19.934	0.738	0.514
1266.000	719.911	80.011	19.995	103.859	19.935	0.679	0.517
1268.000	720.941	80.011	19.995	103.860	19.933	0.810	0.494
1270.000	721.927	80.009	19.994	103.855	19.933	0.877	0.492
1272.000	722.904	80.011	19.994	103.850	19.935	0.670	0.505
1274.000	723.950	80.011	19.995	103.859	19.933	0.820	0.516
1276.000	724.956	80.011	19.994	103.859	19.932	0.887	0.507
1278.000	725.972	80.012	19.993	103.857	19.937	0.577	0.523
1280.000	726.944	80.010	19.995	103.849	19.936	0.605	0.510
1282.000	727.933	80.011	19.995	103.844	19.936	0.589	0.484
1284.002	728.948	80.010	19.994	103.845	19.936	0.597	0.534
1286.000	729.960	80.008	19.994	103.860	19.938	0.472	0.511
1288.000	730.962	80.010	19.995	103.860	19.937	0.527	0.478
1290.001	732.005	80.010	19.994	103.852	19.935	0.672	0.533
1292.001	732.990	80.009	19.993	103.846	19.935	0.663	0.510
1294.000	734.022	80.012	19.993	103.844	19.937	0.541	0.517
1296.000	735.050	80.012	19.992	103.859	19.942	0.191	0.532
1298.000	736.004	80.012	19.992	103.846	19.941	0.261	0.505
1300.001	737.014	80.013	19.993	103.834	19.940	0.344	0.488
1302.000	738.046	80.013	19.992	103.850	19.940	0.356	0.496
1304.000	739.035	80.012	19.993	103.859	19.940	0.314	0.481
1306.000	740.025	80.012	19.993	103.859	19.942	0.153	0.486
1308.000	741.068	80.013	19.993	103.862	19.940	0.292	0.521
1310.000	742.063	80.012	19.994	103.860	19.940	0.322	0.528
1312.000	743.032	80.011	19.993	103.855	19.942	0.167	0.483
1313.001	743.550	80.012	19.995	103.857	19.939	0.394	0.512