File: 01_Data/Coffee_Machine/MCC/Coffee_Machine_MCC_30K_min_220203_R3.txt
Sample ID:	C:\MCC\MCC Cal\Test\Coffee_Machine_MCC_30K_min_220203_R3.txt
Sample Weight (mg):	4.64
Heating Rate (C/s):	0.5
Combustor Temp (C):	900
N2 Flow Rate (cc/min):	80
O2 Flow Rate (cc/min):	20
Calibration File:	C:\MCC\MCC Cal\Coeff1 JN10440_30_210304.txt.txt
T Correction Coefficients:	0	1.024463	0
Time Shift (s):	14
*
Time (s)	Temperature (C)	N2 flow rate (cc/min)	O2 flow rate (cc/min)	Flow Rate (cc/min)	Oxygen (%)	HRR (W/g)	Heating rate (C/s)
0.000	110.732	80.008	19.994	103.830	20.086	0.094	0.001
2.000	110.736	80.009	19.994	103.829	20.088	-0.012	0.002
4.000	110.732	80.008	19.994	103.826	20.084	0.281	-0.006
6.000	110.703	80.007	19.994	103.828	20.087	0.025	-0.026
8.000	110.750	80.009	19.994	103.827	20.085	0.186	0.006
10.000	110.740	80.009	19.994	103.829	20.088	0.002	0.017
12.000	110.721	80.009	19.995	103.826	20.085	0.160	0.013
14.001	110.752	80.008	19.994	103.832	20.083	0.315	0.023
16.000	110.771	80.008	19.993	103.835	20.086	0.142	0.032
18.000	110.737	80.007	19.993	103.834	20.085	0.208	-0.003
20.000	110.765	80.009	19.994	103.837	20.082	0.406	0.019
22.000	110.801	80.007	19.993	103.854	20.083	0.304	0.045
24.000	110.796	80.009	19.995	103.866	20.082	0.396	0.021
26.000	110.837	80.009	19.994	103.863	20.080	0.569	0.036
28.000	110.874	80.008	19.995	103.882	20.075	0.919	0.035
30.000	110.931	80.009	19.994	103.878	20.074	0.973	0.036
32.000	110.985	80.009	19.995	103.883	20.073	1.027	0.003
34.000	111.076	80.008	19.995	103.907	20.074	0.962	0.043
36.000	111.159	80.008	19.996	103.913	20.072	1.099	0.060
38.000	111.312	80.006	19.995	103.916	20.070	1.216	0.079
40.000	111.381	80.005	19.993	103.934	20.068	1.384	0.059
42.000	111.534	80.008	19.995	103.959	20.064	1.673	0.080
44.000	111.726	80.010	19.995	103.954	20.063	1.706	0.075
46.000	111.891	80.006	19.995	103.966	20.061	1.906	0.090
48.000	112.114	80.008	19.995	103.991	20.060	1.933	0.099
50.000	112.322	80.009	19.994	104.020	20.055	2.290	0.135
52.000	112.609	80.008	19.994	104.024	20.051	2.550	0.133
54.000	112.889	80.010	19.995	104.029	20.051	2.561	0.154
56.001	113.207	80.008	19.995	104.025	20.046	2.916	0.170
58.000	113.540	80.008	19.995	104.039	20.045	3.008	0.157
60.000	113.893	80.010	19.994	104.052	20.047	2.850	0.189
62.000	114.344	80.009	19.995	104.066	20.041	3.245	0.225
64.000	114.756	80.007	19.995	104.068	20.045	3.008	0.232
66.000	115.202	80.008	19.995	104.065	20.042	3.170	0.239
68.000	115.658	80.009	19.994	104.066	20.041	3.303	0.249
70.000	116.190	80.009	19.995	104.066	20.042	3.232	0.277
72.001	116.756	80.008	19.994	104.067	20.040	3.309	0.288
74.000	117.275	80.011	19.994	104.068	20.042	3.215	0.282
76.000	117.827	80.011	19.992	104.066	20.041	3.276	0.298
78.000	118.363	80.011	19.993	104.065	20.041	3.240	0.299
80.001	118.989	80.010	19.994	104.068	20.039	3.386	0.299
82.002	119.658	80.010	19.993	104.078	20.039	3.400	0.331
84.000	120.281	80.012	19.993	104.079	20.041	3.305	0.299
86.000	120.933	80.008	19.994	104.092	20.039	3.403	0.317
88.000	121.672	80.007	19.994	104.083	20.038	3.511	0.367
90.000	122.307	80.009	19.994	104.091	20.039	3.399	0.346
92.000	123.062	80.008	19.994	104.097	20.039	3.409	0.388
94.000	123.776	80.007	19.995	104.079	20.043	3.116	0.382
96.001	124.512	80.009	19.994	104.094	20.043	3.132	0.373
98.000	125.184	80.007	19.993	104.077	20.037	3.527	0.351
100.000	125.985	80.008	19.993	104.074	20.037	3.552	0.365
102.000	126.748	80.008	19.995	104.080	20.040	3.359	0.384
104.001	127.544	80.007	19.994	104.084	20.037	3.567	0.384
106.000	128.347	80.008	19.994	104.087	20.037	3.526	0.379
108.001	129.097	80.008	19.995	104.093	20.040	3.369	0.407
110.000	129.935	80.009	19.995	104.087	20.040	3.350	0.420
112.001	130.733	80.009	19.994	104.093	20.037	3.525	0.408
114.000	131.543	80.009	19.994	104.083	20.041	3.299	0.422
116.000	132.351	80.006	19.995	104.084	20.041	3.267	0.427
118.000	133.213	80.009	19.994	104.079	20.042	3.194	0.451
120.000	134.023	80.007	19.995	104.083	20.043	3.118	0.450
122.001	134.894	80.009	19.993	104.096	20.041	3.284	0.437
124.001	135.754	80.007	19.994	104.071	20.037	3.526	0.441
126.000	136.624	80.008	19.995	104.078	20.041	3.274	0.424
128.000	137.583	80.006	19.995	104.086	20.037	3.530	0.454
130.000	138.425	80.008	19.995	104.086	20.040	3.355	0.479
132.000	139.344	80.007	19.995	104.082	20.041	3.253	0.453
134.000	140.259	80.008	19.994	104.081	20.038	3.452	0.458
136.000	141.145	80.010	19.994	104.076	20.041	3.278	0.463
138.000	142.049	80.008	19.994	104.084	20.040	3.363	0.447
140.000	142.981	80.009	19.995	104.074	20.039	3.382	0.508
142.000	143.935	80.010	19.994	104.078	20.038	3.475	0.481
144.000	144.863	80.008	19.994	104.084	20.040	3.351	0.432
146.000	145.850	80.007	19.994	104.079	20.037	3.519	0.479
148.000	146.767	80.007	19.993	104.076	20.042	3.178	0.457
150.000	147.793	80.008	19.995	104.085	20.040	3.337	0.510
152.000	148.777	80.007	19.994	104.089	20.039	3.415	0.520
154.000	149.753	80.008	19.994	104.082	20.038	3.501	0.509
156.001	150.749	80.008	19.995	104.075	20.040	3.331	0.488
158.000	151.713	80.008	19.995	104.086	20.037	3.520	0.504
160.000	152.699	80.008	19.994	104.074	20.036	3.615	0.475
162.000	153.685	80.008	19.995	104.081	20.039	3.422	0.493
164.000	154.689	80.010	19.995	104.073	20.040	3.355	0.506
166.000	155.630	80.012	19.995	104.070	20.042	3.172	0.478
168.000	156.577	80.012	19.995	104.067	20.038	3.451	0.467
170.000	157.558	80.009	19.994	104.070	20.039	3.389	0.467
172.000	158.550	80.007	19.994	104.066	20.041	3.283	0.496
174.000	159.527	80.008	19.994	104.064	20.043	3.098	0.470
176.000	160.559	80.007	19.995	104.069	20.041	3.305	0.490
178.000	161.600	80.006	19.995	104.065	20.043	3.114	0.518
180.000	162.589	80.007	19.994	104.064	20.045	3.008	0.520
182.001	163.574	80.007	19.994	104.064	20.044	3.037	0.513
184.000	164.564	80.006	19.994	104.063	20.042	3.181	0.480
186.000	165.560	80.007	19.995	104.064	20.049	2.729	0.497
188.000	166.574	80.006	19.995	104.064	20.044	3.054	0.497
190.000	167.562	80.007	19.993	104.063	20.044	3.067	0.493
192.000	168.562	80.008	19.994	104.068	20.041	3.281	0.475
194.000	169.531	80.008	19.994	104.060	20.042	3.189	0.443
196.000	170.549	80.006	19.994	104.065	20.046	2.954	0.476
198.000	171.504	80.007	19.995	104.062	20.043	3.133	0.487
200.000	172.543	80.005	19.995	104.056	20.044	3.087	0.518
202.000	173.502	80.006	19.994	104.065	20.046	2.894	0.477
204.000	174.514	80.007	19.994	104.053	20.047	2.876	0.486
206.000	175.466	80.007	19.995	104.061	20.048	2.790	0.499
208.000	176.445	80.003	19.993	104.056	20.046	2.934	0.488
210.000	177.467	80.007	19.994	104.057	20.047	2.860	0.487
212.000	178.451	80.006	19.993	104.057	20.050	2.609	0.492
214.000	179.441	80.007	19.993	104.054	20.051	2.547	0.491
216.000	180.462	80.008	19.994	104.034	20.046	2.897	0.521
218.000	181.471	80.008	19.993	104.047	20.049	2.707	0.502
220.000	182.386	80.008	19.992	104.055	20.050	2.636	0.487
222.000	183.419	80.008	19.994	104.063	20.047	2.863	0.513
224.000	184.416	80.008	19.994	104.063	20.047	2.865	0.524
226.000	185.368	80.009	19.995	104.045	20.046	2.896	0.512
228.000	186.405	80.007	19.995	104.043	20.048	2.774	0.505
230.000	187.388	80.008	19.994	104.051	20.051	2.584	0.488
232.000	188.359	80.007	19.995	104.053	20.045	2.961	0.472
234.000	189.345	80.009	19.994	104.054	20.049	2.744	0.497
236.000	190.349	80.007	19.995	104.052	20.047	2.863	0.502
238.000	191.369	80.010	19.995	104.052	20.047	2.831	0.509
240.000	192.371	80.010	19.995	104.044	20.049	2.678	0.527
242.000	193.350	80.011	19.994	104.054	20.046	2.888	0.513
244.000	194.353	80.007	19.994	104.054	20.046	2.903	0.504
246.000	195.393	80.011	19.994	104.061	20.050	2.612	0.508
248.000	196.398	80.010	19.994	104.060	20.049	2.701	0.544
250.000	197.370	80.009	19.995	104.057	20.049	2.704	0.500
252.000	198.440	80.009	19.996	104.053	20.050	2.675	0.535
254.000	199.454	80.007	19.996	104.043	20.048	2.809	0.527
256.000	200.436	80.007	19.996	104.042	20.048	2.760	0.541
258.000	201.525	80.010	19.994	104.034	20.051	2.599	0.527
260.001	202.495	80.027	20.000	104.062	20.049	2.687	0.513
262.001	203.547	80.039	20.007	104.073	20.055	2.323	0.552
264.000	204.541	80.042	20.010	104.092	20.057	2.149	0.522
266.000	205.504	80.045	20.010	104.099	20.057	2.154	0.485
268.000	206.542	80.043	20.010	104.094	20.062	1.783	0.521
270.000	207.584	80.045	20.010	104.090	20.058	2.110	0.536
272.000	208.678	80.027	20.005	104.069	20.058	2.081	0.499
274.001	209.657	80.025	20.002	104.072	20.055	2.326	0.488
276.000	210.706	80.027	20.002	104.056	20.057	2.150	0.517
278.000	211.729	80.028	20.000	104.036	20.057	2.173	0.500
280.000	212.754	80.017	19.996	104.041	20.055	2.298	0.548
282.000	213.758	80.012	19.996	104.030	20.052	2.483	0.508
284.000	214.813	80.007	19.994	104.036	20.054	2.341	0.510
286.000	215.821	80.009	19.995	104.030	20.053	2.445	0.514
288.000	216.839	80.008	19.994	104.028	20.054	2.354	0.552
290.000	217.814	80.007	19.995	104.029	20.052	2.489	0.475
292.000	218.880	80.007	19.995	104.027	20.050	2.608	0.530
294.000	219.876	80.008	19.996	104.026	20.052	2.524	0.486
296.000	220.886	80.009	19.994	104.025	20.054	2.329	0.526
298.000	221.884	80.009	19.993	104.025	20.051	2.541	0.516
300.000	222.872	80.008	19.994	104.023	20.054	2.393	0.495
302.000	223.898	80.007	19.994	104.024	20.055	2.285	0.515
304.000	224.881	80.010	19.993	104.024	20.054	2.377	0.469
306.000	225.894	80.010	19.994	104.017	20.054	2.350	0.506
308.000	226.892	80.011	19.993	104.011	20.053	2.438	0.505
310.000	227.920	80.009	19.993	104.022	20.055	2.319	0.495
312.000	228.934	80.009	19.994	104.017	20.054	2.381	0.505
314.000	229.968	80.010	19.994	104.014	20.056	2.188	0.530
316.000	230.951	80.008	19.994	104.013	20.057	2.127	0.474
318.000	231.955	80.010	19.993	104.001	20.054	2.350	0.512
320.000	232.896	80.011	19.995	103.996	20.058	2.111	0.500
322.000	233.891	80.011	19.995	103.999	20.054	2.383	0.486
324.000	234.931	80.011	19.995	104.011	20.059	2.004	0.507
326.000	235.873	80.011	19.995	104.001	20.059	1.992	0.482
328.001	236.814	80.011	19.995	104.012	20.059	2.021	0.455
330.000	237.855	80.010	19.995	104.000	20.059	2.013	0.493
332.000	238.775	80.009	19.994	104.008	20.059	1.979	0.464
334.000	239.778	80.010	19.995	104.006	20.058	2.096	0.489
336.000	240.708	80.007	19.994	104.009	20.059	1.986	0.480
338.000	241.673	80.007	19.994	104.013	20.060	1.930	0.479
340.000	242.705	80.009	19.993	104.013	20.059	1.992	0.514
342.000	243.680	80.006	19.996	104.014	20.063	1.744	0.513
344.000	244.638	80.008	19.995	104.018	20.059	2.034	0.486
346.000	245.654	80.006	19.995	104.015	20.062	1.825	0.476
348.000	246.643	80.008	19.994	104.000	20.060	1.936	0.488
350.000	247.612	80.006	19.994	103.999	20.062	1.784	0.474
352.000	248.608	80.008	19.996	104.023	20.061	1.884	0.491
354.000	249.616	80.007	19.995	104.014	20.058	2.090	0.520
356.000	250.602	80.009	19.996	104.014	20.060	1.932	0.491
358.000	251.579	80.007	19.994	104.000	20.062	1.809	0.491
360.000	252.588	80.008	19.996	104.002	20.061	1.878	0.501
362.000	253.575	80.009	19.995	104.003	20.059	2.009	0.494
364.000	254.569	80.006	19.994	104.001	20.054	2.329	0.498
366.000	255.541	80.006	19.994	104.009	20.061	1.886	0.487
368.000	256.550	80.008	19.994	103.988	20.060	1.961	0.508
370.000	257.519	80.009	19.994	103.998	20.055	2.267	0.514
372.000	258.523	80.006	19.994	104.006	20.060	1.970	0.500
374.000	259.536	80.009	19.994	104.001	20.060	1.928	0.508
376.000	260.500	80.008	19.994	104.003	20.060	1.959	0.487
378.000	261.478	80.009	19.994	103.997	20.060	1.917	0.499
380.001	262.430	80.010	19.995	103.995	20.062	1.803	0.490
382.000	263.429	80.011	19.996	103.986	20.058	2.055	0.512
384.000	264.418	80.011	19.995	103.988	20.058	2.053	0.501
386.000	265.391	80.010	19.995	103.986	20.059	1.990	0.484
388.000	266.391	80.011	19.994	103.987	20.060	1.967	0.477
390.000	267.390	80.010	19.995	103.993	20.059	1.990	0.503
392.000	268.401	80.008	19.994	103.994	20.055	2.288	0.533
394.000	269.314	80.011	19.994	103.994	20.056	2.250	0.498
396.000	270.331	80.007	19.995	103.992	20.055	2.267	0.497
398.000	271.355	80.008	19.995	103.997	20.057	2.178	0.515
400.000	272.352	80.008	19.993	103.995	20.061	1.880	0.520
402.000	273.318	80.008	19.994	103.991	20.057	2.130	0.492
404.000	274.303	80.009	19.994	103.990	20.058	2.098	0.508
406.000	275.281	80.011	19.994	103.992	20.053	2.423	0.491
408.000	276.282	80.011	19.994	103.995	20.061	1.882	0.473
410.000	277.265	80.011	19.993	103.993	20.057	2.157	0.488
412.000	278.266	80.009	19.993	103.994	20.059	2.009	0.520
414.000	279.310	80.010	19.994	103.993	20.058	2.109	0.507
416.000	280.296	80.010	19.995	103.994	20.057	2.121	0.508
418.000	281.283	80.010	19.994	103.989	20.060	1.973	0.474
420.000	282.268	80.009	19.994	103.990	20.059	2.015	0.481
422.000	283.300	80.010	19.995	103.994	20.059	1.982	0.516
424.000	284.303	80.007	19.995	103.987	20.056	2.190	0.487
426.000	285.312	80.007	19.995	103.986	20.058	2.080	0.478
428.000	286.336	80.008	19.995	103.993	20.058	2.065	0.527
430.000	287.346	80.007	19.993	103.993	20.059	2.003	0.506
432.000	288.381	80.008	19.994	103.988	20.058	2.092	0.531
434.000	289.385	80.009	19.994	103.993	20.058	2.047	0.523
436.000	290.392	80.009	19.995	103.990	20.056	2.219	0.522
438.000	291.386	80.007	19.994	103.988	20.060	1.917	0.514
440.000	292.421	80.009	19.995	103.991	20.058	2.084	0.516
442.000	293.476	80.011	19.995	103.988	20.058	2.107	0.521
444.000	294.415	80.007	19.996	103.985	20.056	2.192	0.476
446.000	295.434	80.008	19.995	103.986	20.056	2.223	0.496
448.000	296.467	80.008	19.995	103.985	20.055	2.257	0.502
450.000	297.457	80.008	19.994	103.985	20.059	2.019	0.499
452.000	298.473	80.010	19.996	103.987	20.057	2.184	0.495
454.000	299.493	80.008	19.994	103.987	20.056	2.246	0.497
456.000	300.489	80.007	19.995	103.986	20.058	2.101	0.477
458.000	301.477	80.007	19.995	103.987	20.057	2.120	0.512
460.000	302.482	80.005	19.994	103.989	20.058	2.059	0.488
462.000	303.465	80.007	19.995	103.991	20.059	2.028	0.491
464.000	304.471	80.008	19.994	103.989	20.055	2.299	0.493
466.001	305.420	80.008	19.994	103.987	20.054	2.338	0.460
468.000	306.472	80.009	19.993	103.988	20.059	2.036	0.518
470.000	307.497	80.010	19.993	103.984	20.055	2.271	0.504
472.000	308.478	80.008	19.994	103.983	20.059	2.044	0.501
474.000	309.463	80.008	19.993	103.978	20.058	2.070	0.488
476.000	310.476	80.010	19.994	103.982	20.059	2.036	0.501
478.000	311.510	80.010	19.993	103.986	20.055	2.286	0.511
480.000	312.492	80.008	19.993	103.982	20.055	2.324	0.497
482.000	313.553	80.011	19.994	103.989	20.052	2.466	0.536
484.000	314.485	80.007	19.993	103.981	20.052	2.507	0.482
486.000	315.512	80.011	19.993	103.984	20.052	2.474	0.504
488.000	316.489	80.011	19.994	103.988	20.056	2.199	0.504
490.000	317.459	80.011	19.994	103.977	20.056	2.251	0.486
492.000	318.428	80.013	19.994	103.967	20.051	2.536	0.476
494.000	319.447	80.011	19.994	103.974	20.054	2.372	0.500
496.000	320.428	80.011	19.993	103.974	20.053	2.465	0.495
498.000	321.400	80.011	19.993	103.971	20.049	2.707	0.477
500.000	322.363	80.012	19.993	103.971	20.052	2.534	0.485
502.000	323.335	80.011	19.994	103.968	20.051	2.574	0.477
504.000	324.300	80.010	19.995	103.978	20.055	2.263	0.482
506.000	325.322	80.006	19.993	103.977	20.052	2.518	0.507
508.000	326.239	80.008	19.994	103.981	20.052	2.492	0.481
510.000	327.237	80.007	19.995	103.972	20.054	2.393	0.485
512.000	328.223	80.009	19.993	103.974	20.054	2.363	0.485
514.000	329.185	80.006	19.995	103.983	20.050	2.607	0.503
516.000	330.175	80.009	19.995	103.973	20.049	2.736	0.487
518.000	331.147	80.008	19.996	103.977	20.045	2.961	0.489
520.000	332.163	80.008	19.993	103.969	20.049	2.730	0.491
522.000	333.146	80.010	19.995	103.984	20.051	2.601	0.544
524.000	334.118	80.010	19.994	103.985	20.050	2.665	0.518
526.000	335.124	80.009	19.994	103.975	20.045	2.971	0.483
528.000	336.062	80.008	19.994	103.954	20.045	2.957	0.472
530.000	337.041	80.010	19.995	103.978	20.048	2.776	0.481
532.000	338.004	80.009	19.994	103.968	20.045	2.980	0.471
534.000	338.992	80.008	19.995	103.976	20.044	3.052	0.490
536.000	339.975	80.007	19.995	103.970	20.040	3.373	0.520
538.000	340.931	80.006	19.993	103.978	20.039	3.436	0.462
540.000	341.896	80.007	19.996	103.983	20.038	3.461	0.466
542.000	342.912	80.007	19.995	103.976	20.037	3.561	0.488
544.000	343.880	80.006	19.994	103.980	20.041	3.284	0.474
546.000	344.862	80.007	19.995	103.979	20.036	3.638	0.503
548.000	345.851	80.008	19.995	103.979	20.037	3.582	0.503
550.000	346.834	80.008	19.995	103.979	20.038	3.488	0.494
552.000	347.869	80.009	19.994	103.974	20.036	3.632	0.504
554.000	348.877	80.008	19.995	103.975	20.036	3.613	0.483
556.000	349.856	80.007	19.995	103.970	20.033	3.817	0.463
558.000	350.896	80.009	19.996	103.961	20.033	3.796	0.477
560.000	351.891	80.008	19.994	103.972	20.034	3.769	0.465
562.000	352.985	80.009	19.993	103.972	20.027	4.224	0.530
564.000	354.021	80.010	19.994	103.966	20.027	4.260	0.517
566.000	354.970	80.009	19.994	103.965	20.023	4.492	0.526
568.000	356.035	80.010	19.993	103.960	20.028	4.203	0.479
570.000	357.086	80.010	19.993	103.969	20.026	4.306	0.545
572.000	358.088	80.010	19.994	103.964	20.026	4.283	0.564
574.000	359.210	80.010	19.994	103.965	20.028	4.190	0.594
576.000	360.248	80.010	19.994	103.966	20.022	4.581	0.657
578.000	361.210	80.010	19.993	103.949	20.021	4.632	0.327
580.001	362.007	80.009	19.992	103.960	20.017	4.921	0.805
582.000	363.171	80.010	19.995	103.978	20.020	4.761	0.457
584.000	364.144	80.010	19.994	103.978	20.017	4.971	0.410
586.000	365.247	80.009	19.995	103.962	20.016	5.007	0.533
588.000	366.326	80.007	19.995	103.960	20.016	5.030	0.546
590.000	367.378	80.007	19.993	103.957	20.010	5.411	0.530
592.000	368.341	80.007	19.993	103.951	20.007	5.628	0.509
594.000	369.373	80.007	19.994	103.954	20.004	5.825	0.520
596.000	370.432	80.007	19.994	103.949	20.003	5.938	0.525
598.000	371.378	80.008	19.994	103.951	19.999	6.227	0.497
600.000	372.453	80.008	19.995	103.951	19.998	6.275	0.538
602.000	373.490	80.007	19.994	103.951	19.992	6.660	0.551
604.000	374.506	80.007	19.994	103.950	19.990	6.825	0.519
606.000	375.498	80.007	19.994	103.951	19.989	6.894	0.497
608.000	376.556	80.006	19.994	103.954	19.985	7.216	0.486
610.000	377.577	80.007	19.994	103.952	19.980	7.534	0.527
612.000	378.567	80.007	19.994	103.951	19.974	7.969	0.506
614.000	379.609	80.007	19.994	103.952	19.970	8.208	0.501
616.000	380.598	80.006	19.994	103.952	19.964	8.639	0.494
618.000	381.564	80.006	19.995	103.958	19.963	8.694	0.515
620.000	382.629	80.008	19.995	103.942	19.956	9.229	0.483
622.000	383.663	80.008	19.995	103.947	19.951	9.554	0.532
624.000	384.681	80.007	19.995	103.949	19.943	10.114	0.514
626.000	385.735	80.007	19.995	103.948	19.937	10.572	0.508
628.000	386.735	80.009	19.994	103.947	19.928	11.150	0.484
630.000	387.726	80.009	19.994	103.949	19.919	11.777	0.541
632.000	388.809	80.009	19.994	103.948	19.907	12.618	0.543
634.000	389.887	80.009	19.995	103.945	19.900	13.091	0.539
636.000	390.882	80.009	19.995	103.946	19.887	13.999	0.535
638.000	391.936	80.008	19.995	103.945	19.879	14.596	0.522
640.000	392.966	80.009	19.994	103.944	19.869	15.287	0.531
642.000	394.036	80.008	19.995	103.945	19.859	15.981	0.544
644.000	395.061	80.009	19.995	103.944	19.847	16.857	0.530
646.000	396.145	80.009	19.995	103.943	19.827	18.189	0.511
648.000	397.193	80.009	19.997	103.938	19.815	19.068	0.528
650.000	398.226	80.008	19.997	103.933	19.806	19.684	0.508
652.000	399.299	80.008	19.995	103.919	19.790	20.834	0.554
654.000	400.340	80.010	19.995	103.911	19.772	22.073	0.494
656.000	401.346	80.009	19.994	103.926	19.762	22.760	0.518
658.000	402.380	80.010	19.995	103.919	19.746	23.870	0.491
660.000	403.434	80.012	19.994	103.930	19.729	25.037	0.523
662.000	404.453	80.011	19.994	103.925	19.708	26.537	0.513
664.000	405.490	80.011	19.994	103.914	19.693	27.589	0.480
666.000	406.545	80.010	19.993	103.915	19.679	28.591	0.515
668.000	407.608	80.008	19.993	103.910	19.655	30.256	0.510
670.000	408.643	80.008	19.995	103.906	19.640	31.300	0.525
672.000	409.664	80.008	19.993	103.910	19.618	32.820	0.533
674.000	410.720	80.007	19.994	103.911	19.596	34.356	0.541
676.000	411.796	80.008	19.994	103.912	19.572	36.012	0.546
678.000	412.802	80.007	19.994	103.902	19.549	37.630	0.551
680.000	413.824	80.009	19.995	103.886	19.530	38.974	0.503
682.001	414.816	80.008	19.993	103.886	19.512	40.206	0.517
684.000	415.933	80.008	19.995	103.892	19.490	41.761	0.533
686.000	416.953	80.010	19.993	103.886	19.463	43.621	0.518
688.000	417.994	80.012	19.994	103.874	19.441	45.207	0.528
690.001	419.086	80.008	19.993	103.872	19.426	46.262	0.559
692.000	420.114	80.010	19.993	103.865	19.421	46.596	0.518
694.000	421.142	80.008	19.995	103.842	19.410	47.326	0.505
696.000	422.225	80.008	19.994	103.843	19.399	48.102	0.598
698.000	423.217	80.008	19.995	103.874	19.375	49.746	0.513
700.000	424.299	80.005	19.992	103.898	19.343	52.015	0.525
702.000	425.263	80.008	19.995	103.908	19.295	55.371	0.475
704.000	426.372	80.007	19.995	103.892	19.240	59.165	0.554
706.000	427.332	80.008	19.994	103.879	19.184	63.080	0.508
708.000	428.360	80.005	19.996	103.854	19.124	67.270	0.500
710.000	429.393	80.008	19.995	103.848	19.058	71.861	0.528
712.000	430.327	80.010	19.995	103.842	18.997	76.166	0.481
714.000	431.352	80.008	19.994	103.830	18.926	81.060	0.500
716.000	432.354	80.008	19.994	103.831	18.848	86.527	0.489
718.000	433.375	80.008	19.995	103.832	18.766	92.196	0.491
720.000	434.417	80.010	19.994	103.828	18.677	98.388	0.523
722.000	435.414	80.010	19.995	103.817	18.585	104.828	0.516
724.000	436.436	80.009	19.995	103.801	18.482	111.984	0.521
726.000	437.422	80.009	19.994	103.795	18.371	119.740	0.506
728.000	438.394	80.010	19.994	103.787	18.261	127.353	0.497
730.000	439.368	80.009	19.995	103.760	18.139	135.833	0.467
732.000	440.355	80.009	19.995	103.738	18.010	144.800	0.489
734.000	441.342	80.008	19.995	103.727	17.879	153.964	0.505
736.000	442.337	80.009	19.995	103.724	17.732	164.142	0.489
738.000	443.278	80.008	19.994	103.708	17.584	174.392	0.468
740.000	444.340	80.009	19.994	103.687	17.414	186.177	0.507
742.000	445.315	80.009	19.995	103.676	17.243	198.045	0.498
744.000	446.276	80.010	19.995	103.662	17.050	211.400	0.476
746.000	447.275	80.009	19.993	103.633	16.857	224.667	0.503
748.000	448.244	80.010	19.994	103.593	16.650	239.002	0.494
750.000	449.248	80.008	19.994	103.558	16.429	254.265	0.500
752.000	450.241	80.008	19.994	103.536	16.200	270.055	0.512
754.000	451.241	80.008	19.993	103.509	15.956	286.808	0.531
756.000	452.202	80.010	19.995	103.458	15.705	304.067	0.496
758.000	453.220	80.007	19.994	103.403	15.448	321.737	0.514
760.000	454.194	80.007	19.994	103.363	15.184	339.900	0.472
762.000	455.232	80.008	19.995	103.326	14.926	357.768	0.526
764.000	456.227	80.009	19.994	103.267	14.659	376.097	0.517
766.001	457.189	80.010	19.994	103.199	14.383	394.798	0.509
768.000	458.165	80.008	19.995	103.164	14.098	414.421	0.483
770.000	459.174	80.007	19.994	103.113	13.809	434.125	0.501
772.000	460.154	80.010	19.995	103.057	13.532	453.052	0.461
774.000	461.148	80.009	19.993	103.077	13.251	472.460	0.480
776.000	462.130	80.010	19.995	102.935	12.970	491.905	0.472
778.000	463.105	80.010	19.994	102.907	12.722	508.888	0.469
780.000	464.084	80.009	19.995	102.860	12.489	524.659	0.458
782.000	465.050	80.008	19.994	102.792	12.274	539.350	0.479
784.000	466.019	80.009	19.994	102.776	12.076	553.062	0.487
786.000	467.019	80.008	19.994	102.773	11.901	565.189	0.500
788.000	468.011	80.007	19.994	102.758	11.773	574.027	0.509
790.000	468.974	80.007	19.993	102.716	11.685	580.244	0.478
792.000	470.045	80.008	19.994	102.660	11.642	583.667	0.517
794.000	471.013	80.006	19.993	102.649	11.652	583.388	0.505
796.000	472.032	80.009	19.995	102.672	11.724	578.598	0.529
798.000	473.056	80.008	19.994	102.671	11.868	568.788	0.512
800.000	474.103	80.008	19.992	102.671	12.062	555.441	0.526
802.000	475.135	80.009	19.995	102.726	12.302	539.678	0.473
804.000	476.173	80.010	19.993	102.813	12.603	519.271	0.524
806.000	477.153	80.008	19.994	102.863	12.957	495.084	0.533
808.000	478.108	80.009	19.996	102.894	13.360	467.495	0.487
810.000	479.142	80.006	19.993	102.891	13.808	436.688	0.507
812.000	480.185	80.007	19.995	103.012	14.275	404.603	0.506
814.000	481.172	80.008	19.995	103.137	14.783	369.660	0.499
816.000	482.224	80.007	19.995	103.217	15.303	333.694	0.525
818.000	483.233	80.010	19.995	103.292	15.832	296.982	0.516
820.000	484.211	80.009	19.993	103.383	16.356	260.608	0.492
822.000	485.226	80.011	19.996	103.467	16.867	225.037	0.498
824.000	486.262	80.010	19.995	103.573	17.340	192.021	0.519
826.000	487.322	80.010	19.993	103.679	17.773	161.825	0.533
828.000	488.382	80.010	19.996	103.763	18.161	134.684	0.533
830.000	489.407	80.008	19.995	103.829	18.504	110.759	0.539
832.000	490.424	80.009	19.995	103.882	18.801	89.941	0.494
834.000	491.496	80.009	19.994	103.922	19.051	72.451	0.540
836.000	492.558	80.007	19.995	103.955	19.264	57.590	0.545
838.000	493.525	80.008	19.996	103.966	19.434	45.712	0.494
840.000	494.613	80.008	19.997	103.981	19.571	36.109	0.516
842.000	495.631	80.007	19.995	103.982	19.683	28.256	0.522
844.000	496.673	80.006	19.995	103.973	19.772	22.052	0.524
846.000	497.674	80.008	19.995	103.960	19.841	17.272	0.525
848.000	498.714	80.010	19.994	103.947	19.901	13.021	0.529
850.000	499.743	80.007	19.994	103.926	19.945	9.994	0.527
852.000	500.803	80.008	19.994	103.912	19.977	7.744	0.496
854.000	501.790	80.007	19.994	103.912	20.004	5.869	0.498
856.000	502.828	80.008	19.995	103.916	20.024	4.431	0.520
858.000	503.873	80.009	19.993	103.890	20.038	3.492	0.511
860.000	504.886	80.009	19.995	103.874	20.047	2.822	0.513
862.000	505.952	80.009	19.995	103.827	20.060	1.918	0.555
864.000	506.968	80.006	19.994	103.754	20.059	1.980	0.487
866.000	508.016	80.007	19.994	103.700	20.064	1.684	0.506
868.000	509.075	80.007	19.994	103.726	20.066	1.540	0.531
870.000	510.158	80.007	19.994	103.789	20.068	1.369	0.528
872.001	511.230	80.004	19.995	103.838	20.067	1.421	0.548
874.000	512.359	80.009	19.995	103.863	20.069	1.292	0.543
876.000	513.408	80.008	19.994	103.874	20.066	1.492	0.552
878.000	514.481	80.008	19.994	103.887	20.074	0.954	0.538
880.001	515.585	80.007	19.993	103.909	20.070	1.218	0.545
882.000	516.679	80.008	19.996	103.912	20.071	1.152	0.545
884.000	517.759	80.009	19.995	103.925	20.073	1.042	0.561
886.000	518.826	80.010	19.994	103.922	20.080	0.554	0.545
888.000	519.921	80.010	19.994	103.931	20.075	0.858	0.549
890.000	520.991	80.008	19.994	103.937	20.080	0.508	0.512
892.000	522.073	80.009	19.994	103.934	20.076	0.831	0.513
894.000	523.163	80.010	19.994	103.935	20.075	0.867	0.554
896.000	524.281	80.009	19.993	103.918	20.075	0.911	0.565
898.000	525.352	80.010	19.994	103.924	20.077	0.777	0.537
900.000	526.500	80.009	19.995	103.941	20.081	0.465	0.580
902.000	527.579	80.008	19.994	103.917	20.082	0.400	0.527
904.000	528.679	80.013	19.995	103.932	20.080	0.527	0.547
906.000	529.730	80.010	19.993	103.930	20.079	0.615	0.558
908.000	530.842	80.010	19.994	103.909	20.078	0.652	0.561
910.000	531.923	80.011	19.994	103.906	20.083	0.310	0.564
912.000	532.994	80.011	19.994	103.904	20.088	0.000	0.554
914.000	534.066	80.011	19.994	103.905	20.080	0.531	0.536
916.000	535.164	80.009	19.995	103.906	20.082	0.402	0.531
918.000	536.261	80.008	19.994	103.904	20.085	0.185	0.521
920.000	537.315	80.007	19.994	103.900	20.085	0.227	0.522
922.000	538.432	80.007	19.995	103.899	20.084	0.262	0.530
924.000	539.499	80.006	19.995	103.908	20.083	0.302	0.570
926.000	540.560	80.006	19.995	103.907	20.081	0.485	0.555
928.000	541.608	80.006	19.994	103.916	20.082	0.369	0.533
930.000	542.658	80.006	19.995	103.911	20.082	0.388	0.527
932.000	543.761	80.009	19.997	103.918	20.086	0.129	0.522
934.000	544.796	80.007	19.996	103.915	20.084	0.292	0.540
936.000	545.879	80.009	19.996	103.916	20.086	0.092	0.543
938.000	546.936	80.006	19.995	103.916	20.085	0.169	0.541
940.000	547.970	80.006	19.993	103.922	20.085	0.188	0.517
942.000	549.059	80.008	19.995	103.930	20.085	0.169	0.505
944.000	550.145	80.007	19.994	103.920	20.085	0.215	0.547
946.000	551.178	80.010	19.994	103.945	20.081	0.502	0.478
948.000	552.262	80.007	19.994	103.934	20.086	0.108	0.553
950.000	553.322	80.007	19.995	103.933	20.083	0.340	0.507
952.000	554.371	80.007	19.994	103.925	20.083	0.313	0.517
954.000	555.431	80.008	19.994	103.919	20.087	0.042	0.515
956.000	556.523	80.008	19.994	103.914	20.084	0.275	0.542
958.000	557.577	80.007	19.994	103.915	20.085	0.217	0.543
960.000	558.612	80.008	19.995	103.911	20.083	0.315	0.532
962.000	559.624	80.007	19.994	103.912	20.082	0.396	0.513
964.000	560.665	80.008	19.993	103.911	20.087	0.083	0.500
966.000	561.731	80.010	19.994	103.917	20.085	0.202	0.533
968.000	562.788	80.009	19.995	103.914	20.087	0.050	0.523
970.000	563.753	80.010	19.996	103.920	20.087	0.025	0.485
972.000	564.837	80.009	19.995	103.921	20.088	0.017	0.529
974.000	565.883	80.009	19.995	103.916	20.086	0.092	0.520
976.000	566.863	80.009	19.994	103.912	20.083	0.306	0.492
978.000	567.919	80.010	19.995	103.909	20.085	0.208	0.502
980.000	568.961	80.009	19.993	103.910	20.086	0.088	0.514
982.000	570.013	80.008	19.993	103.922	20.082	0.398	0.552
984.000	571.038	80.009	19.994	103.913	20.086	0.092	0.516
986.000	572.008	80.009	19.994	103.917	20.085	0.188	0.498
988.000	573.033	80.011	19.994	103.913	20.089	-0.088	0.503
990.000	574.055	80.010	19.993	103.912	20.086	0.142	0.541
992.000	575.088	80.011	19.994	103.910	20.089	-0.102	0.492
994.000	576.132	80.010	19.993	103.908	20.092	-0.306	0.482
996.000	577.104	80.010	19.993	103.904	20.088	-0.035	0.459
998.000	578.137	80.008	19.995	103.910	20.089	-0.054	0.497
1000.000	579.149	80.006	19.992	103.905	20.090	-0.177	0.539
1002.000	580.154	80.008	19.998	103.918	20.089	-0.081	0.504
1004.000	581.178	80.006	19.995	103.912	20.087	0.058	0.508
1006.000	582.200	80.007	19.994	103.911	20.087	0.042	0.530
1008.000	583.231	80.007	19.995	103.912	20.089	-0.094	0.510
1010.000	584.294	80.006	19.993	103.912	20.086	0.156	0.525
1012.000	585.316	80.009	19.994	103.913	20.087	0.037	0.540
1014.000	586.338	80.008	19.995	103.921	20.090	-0.131	0.500
1016.000	587.439	80.008	19.994	103.910	20.089	-0.056	0.532
1018.000	588.487	80.009	19.995	103.913	20.093	-0.360	0.532
1020.000	589.546	80.008	19.993	103.905	20.086	0.123	0.569
1022.000	590.615	80.008	19.994	103.905	20.095	-0.485	0.520
1024.000	591.675	80.007	19.994	103.905	20.089	-0.079	0.535
1026.000	592.748	80.008	19.996	103.910	20.093	-0.379	0.550
1028.000	593.843	80.006	19.994	103.909	20.093	-0.352	0.527
1030.001	594.929	80.008	19.996	103.907	20.093	-0.346	0.572
1032.000	595.976	80.008	19.997	103.903	20.092	-0.286	0.513
1034.000	597.079	80.006	19.994	103.907	20.090	-0.173	0.540
1036.000	598.163	80.006	19.995	103.896	20.088	-0.008	0.549
1038.000	599.213	80.006	19.995	103.905	20.091	-0.208	0.517
1040.000	600.285	80.008	19.995	103.907	20.089	-0.069	0.512
1042.000	601.330	80.008	19.996	103.900	20.094	-0.452	0.545
1044.000	602.409	80.007	19.993	103.902	20.099	-0.802	0.517
1046.000	603.412	80.009	19.994	103.900	20.090	-0.146	0.484
1048.000	604.442	80.010	19.994	103.907	20.094	-0.438	0.522
1050.000	605.522	80.010	19.994	103.907	20.092	-0.300	0.527
1052.000	606.573	80.009	19.994	103.907	20.090	-0.144	0.536
1054.000	607.633	80.009	19.994	103.908	20.095	-0.481	0.515
1056.000	608.684	80.010	19.994	103.910	20.091	-0.246	0.551
1058.000	609.763	80.009	19.995	103.909	20.098	-0.702	0.557
1060.000	610.782	80.008	19.994	103.923	20.092	-0.329	0.527
1062.000	611.885	80.007	19.995	103.922	20.087	0.027	0.574
1064.000	612.890	80.007	19.994	103.908	20.102	-1.002	0.537
1066.000	613.909	80.009	19.994	103.911	20.097	-0.627	0.483
1068.000	615.007	80.008	19.993	103.911	20.093	-0.371	0.540
1070.000	616.086	80.009	19.994	103.911	20.094	-0.465	0.526
1072.000	617.122	80.011	19.995	103.912	20.091	-0.225	0.518
1074.000	618.158	80.007	19.993	103.910	20.099	-0.779	0.532
1076.000	619.176	80.010	19.993	103.919	20.095	-0.523	0.527
1078.000	620.238	80.008	19.993	103.919	20.097	-0.669	0.518
1080.000	621.204	80.009	19.994	103.913	20.097	-0.619	0.496
1082.000	622.184	80.009	19.994	103.911	20.092	-0.290	0.489
1084.000	623.170	80.010	19.995	103.910	20.096	-0.571	0.480
1086.000	624.175	80.007	19.995	103.910	20.092	-0.310	0.489
1088.000	625.131	80.008	19.995	103.908	20.094	-0.421	0.481
1090.000	626.091	80.008	19.994	103.909	20.095	-0.481	0.486
1092.000	627.018	80.006	19.995	103.908	20.094	-0.469	0.466
1094.000	627.981	80.009	19.995	103.908	20.098	-0.702	0.472
1096.000	628.937	80.007	19.995	103.907	20.089	-0.054	0.488
1098.001	629.859	80.007	19.996	103.910	20.099	-0.775	0.462
1100.000	630.774	80.009	19.997	103.908	20.099	-0.771	0.460
1102.000	631.719	80.008	19.995	103.915	20.099	-0.808	0.473
1104.000	632.626	80.009	19.995	103.915	20.097	-0.633	0.446
1106.000	633.536	80.010	19.996	103.913	20.095	-0.488	0.456
1108.000	634.506	80.007	19.994	103.910	20.094	-0.448	0.483
1110.000	635.436	80.008	19.993	103.910	20.098	-0.717	0.469
1112.000	636.398	80.009	19.996	103.913	20.098	-0.717	0.483
1114.000	637.317	80.008	19.995	103.911	20.097	-0.671	0.463
1116.000	638.254	80.008	19.996	103.911	20.099	-0.761	0.469
1118.000	639.190	80.006	19.994	103.911	20.099	-0.758	0.468
1120.000	640.102	80.006	19.993	103.912	20.099	-0.754	0.471
1122.000	641.042	80.007	19.997	103.923	20.101	-0.948	0.479
1124.000	641.975	80.006	19.994	103.922	20.103	-1.098	0.447
1126.001	642.931	80.007	19.995	103.911	20.094	-0.411	0.489
1128.000	643.853	80.007	19.996	103.911	20.101	-0.902	0.447
1130.000	644.725	80.007	19.995	103.910	20.097	-0.654	0.463
1132.000	645.710	80.009	19.996	103.916	20.099	-0.786	0.479
1134.000	646.669	80.009	19.995	103.913	20.093	-0.373	0.488
1136.000	647.604	80.009	19.994	103.910	20.099	-0.771	0.482
1138.000	648.578	80.010	19.994	103.912	20.102	-1.017	0.524
1140.000	649.575	80.008	19.993	103.916	20.097	-0.675	0.521
1142.000	650.519	80.009	19.994	103.915	20.097	-0.661	0.490
1144.000	651.504	80.009	19.993	103.914	20.098	-0.713	0.486
1146.000	652.456	80.008	19.993	103.915	20.099	-0.777	0.469
1148.000	653.469	80.009	19.994	103.919	20.099	-0.786	0.499
1150.000	654.464	80.009	19.996	103.915	20.102	-0.984	0.531
1152.000	655.478	80.010	19.994	103.915	20.096	-0.583	0.522
1154.000	656.480	80.010	19.994	103.914	20.098	-0.708	0.510
1156.000	657.495	80.010	19.994	103.909	20.098	-0.690	0.470
1158.000	658.460	80.010	19.993	103.920	20.099	-0.769	0.506
1160.000	659.474	80.011	19.995	103.908	20.101	-0.902	0.518
1162.001	660.473	80.010	19.994	103.911	20.101	-0.892	0.493
1164.000	661.458	80.010	19.994	103.911	20.095	-0.540	0.521
1166.001	662.468	80.009	19.994	103.919	20.101	-0.915	0.486
1168.000	663.499	80.008	19.995	103.917	20.101	-0.896	0.495
1170.001	664.504	80.008	19.992	103.914	20.097	-0.656	0.520
1172.000	665.494	80.008	19.995	103.908	20.101	-0.921	0.538
1174.000	666.502	80.009	19.995	103.909	20.097	-0.644	0.512
1176.000	667.471	80.009	19.995	103.914	20.098	-0.742	0.504
1178.000	668.472	80.010	19.993	103.911	20.098	-0.729	0.533
1180.000	669.495	80.008	19.994	103.909	20.095	-0.535	0.506
1182.000	670.443	80.007	19.993	103.915	20.099	-0.792	0.478
1184.000	671.471	80.008	19.994	103.911	20.100	-0.867	0.499
1186.000	672.505	80.007	19.993	103.915	20.098	-0.731	0.506
1188.000	673.460	80.009	19.995	103.912	20.099	-0.819	0.493
1190.000	674.490	80.007	19.994	103.913	20.105	-1.200	0.505
1192.000	675.478	80.009	19.994	103.913	20.102	-0.965	0.514
1194.000	676.506	80.008	19.994	103.919	20.097	-0.677	0.508
1196.000	677.514	80.007	19.995	103.924	20.105	-1.239	0.499
1198.000	678.594	80.010	19.996	103.930	20.099	-0.810	0.533
1200.000	679.631	80.008	19.994	103.919	20.096	-0.563	0.538
1202.000	680.680	80.008	19.994	103.920	20.099	-0.763	0.520
1204.000	681.732	80.008	19.995	103.922	20.097	-0.642	0.540
1206.000	682.793	80.007	19.994	103.931	20.099	-0.775	0.554
1208.000	683.879	80.008	19.995	103.927	20.100	-0.879	0.560
1210.000	684.973	80.008	19.995	103.922	20.099	-0.781	0.556
1212.000	685.998	80.009	19.994	103.926	20.099	-0.806	0.531
1214.000	687.069	80.010	19.996	103.920	20.101	-0.894	0.531
1216.000	688.170	80.009	19.995	103.925	20.102	-0.987	0.551
1218.000	689.234	80.009	19.995	103.924	20.099	-0.762	0.539
1220.000	690.329	80.008	19.995	103.923	20.102	-0.973	0.563
1222.000	691.437	80.008	19.995	103.921	20.099	-0.796	0.541
1224.000	692.517	80.007	19.996	103.908	20.101	-0.929	0.533
1226.000	693.627	80.025	20.002	103.918	20.100	-0.890	0.553
1228.000	694.707	80.021	19.998	103.940	20.101	-0.896	0.546
1230.000	695.795	80.009	19.996	103.919	20.106	-1.242	0.545
1232.000	696.844	80.011	19.996	103.933	20.106	-1.298	0.521
1234.000	697.943	80.010	19.994	103.925	20.101	-0.927	0.516
1236.000	699.007	80.010	19.993	103.924	20.101	-0.892	0.545
1238.000	700.116	80.010	19.993	103.910	20.101	-0.912	0.553
1240.000	701.177	80.009	19.992	103.920	20.101	-0.940	0.555
1242.000	702.299	80.010	19.995	103.926	20.104	-1.125	0.570
1244.000	703.346	80.010	19.994	103.931	20.103	-1.052	0.518
1246.000	704.378	80.010	19.994	103.920	20.103	-1.085	0.516
1248.000	705.449	80.007	19.995	103.914	20.101	-0.950	0.496
1250.000	706.495	80.007	19.995	103.930	20.105	-1.200	0.506
1252.000	707.546	80.008	19.994	103.916	20.107	-1.340	0.510
1254.000	708.622	80.007	19.995	103.914	20.102	-0.985	0.538
1256.000	709.653	80.007	19.995	103.910	20.105	-1.194	0.513
1258.000	710.714	80.009	19.994	103.917	20.104	-1.154	0.529
1260.000	711.747	80.009	19.994	103.912	20.103	-1.063	0.525
1262.000	712.816	80.007	19.994	103.913	20.103	-1.086	0.519
1264.000	713.825	80.007	19.994	103.918	20.103	-1.071	0.505
1266.000	714.898	80.008	19.995	103.910	20.101	-0.900	0.524
1268.000	715.958	80.009	19.994	103.915	20.101	-0.944	0.525
1270.000	717.040	80.008	19.994	103.914	20.103	-1.059	0.521
1272.001	718.095	80.008	19.994	103.915	20.103	-1.075	0.542
1274.000	719.072	80.009	19.994	103.915	20.107	-1.363	0.511
1276.000	720.098	80.008	19.993	103.914	20.103	-1.079	0.538
1278.000	721.088	80.008	19.994	103.916	20.105	-1.183	0.527
1280.000	722.095	80.007	19.994	103.911	20.103	-1.100	0.497
1282.000	723.095	80.005	19.995	103.912	20.106	-1.304	0.493
1284.000	724.135	80.007	19.995	103.911	20.106	-1.261	0.512
1286.000	725.122	80.006	19.995	103.909	20.104	-1.167	0.502
1288.000	726.172	80.006	19.995	103.925	20.106	-1.298	0.539
1290.000	727.164	80.008	19.995	103.911	20.104	-1.134	0.507
1292.000	728.143	80.008	19.995	103.915	20.103	-1.067	0.534
1294.000	729.172	80.009	19.995	103.911	20.106	-1.265	0.477
1296.000	730.125	80.008	19.995	103.907	20.107	-1.319	0.475
1298.000	731.110	80.009	19.995	103.908	20.104	-1.161	0.519
1300.000	732.083	80.007	19.993	103.908	20.103	-1.084	0.473
1302.000	733.090	80.008	19.995	103.911	20.106	-1.296	0.514
1304.000	734.037	80.008	19.995	103.914	20.109	-1.517	0.481
1306.000	735.011	80.007	19.995	103.907	20.104	-1.125	0.453
1308.000	735.956	80.008	19.995	103.908	20.101	-0.900	0.467
1310.000	736.918	80.007	19.995	103.909	20.107	-1.356	0.473
1312.000	737.878	80.008	19.995	103.907	20.105	-1.200	0.479
1314.000	738.830	80.008	19.995	103.907	20.101	-0.954	0.489
1316.000	739.784	80.007	19.996	103.906	20.101	-0.927	0.465
1318.000	740.747	80.008	19.995	103.908	20.105	-1.186	0.479
1320.000	741.717	80.009	19.994	103.909	20.101	-0.906	0.487
1322.000	742.627	80.009	19.995	103.910	20.104	-1.134	0.458
1324.000	743.578	80.010	19.995	103.915	20.105	-1.194	0.470
1324.500	743.847	80.010	19.994	103.917	20.103	-1.079	0.489