File: 01_Data/Overstuffed_Chair_Polyester_Fabric/MCC/Overstuffed_Chair_Polyester_Fabric_MCC_30K_min_210308_R3.txt
Sample ID:	C:\MCC\MCC Cal\Test\Polyester_Fabric_30_3.txt
Sample Weight (mg):	3.6
Heating Rate (C/s):	0.5
Combustor Temp (C):	900
N2 Flow Rate (cc/min):	80
O2 Flow Rate (cc/min):	20
Calibration File:	C:\MCC\MCC Cal\Coeff1 JN10440_30_210304.txt.txt
T Correction Coefficients:	0	1.024463	0
Time Shift (s):	14
*
Time (s)	Temperature (C)	N2 flow rate (cc/min)	O2 flow rate (cc/min)	Flow Rate (cc/min)	Oxygen (%)	HRR (W/g)	Heating rate (C/s)
-0.001	110.139	79.995	19.991	99.586	20.301	0.147	-0.002
1.500	110.148	79.995	19.991	99.605	20.301	0.130	-0.027
2.999	110.160	79.996	19.992	99.596	20.309	-0.494	-0.033
4.500	110.055	79.995	19.990	99.607	20.306	-0.243	-0.054
5.999	110.093	79.996	19.991	99.608	20.306	-0.272	0.030
7.500	110.048	79.995	19.991	99.596	20.305	-0.206	0.003
8.999	110.067	79.995	19.991	99.586	20.303	0.000	0.022
10.500	110.077	79.995	19.991	99.588	20.303	-0.017	0.004
12.000	110.062	79.996	19.991	99.594	20.302	0.071	0.012
13.499	110.049	79.996	19.991	99.596	20.302	0.102	-0.026
14.999	110.032	79.996	19.991	99.595	20.303	0.040	-0.021
16.500	110.070	79.996	19.993	99.608	20.302	0.128	-0.017
18.000	110.088	79.996	19.991	99.610	20.304	-0.047	0.021
19.499	110.073	79.997	19.992	99.595	20.302	0.121	-0.003
20.999	110.095	79.998	19.992	99.595	20.301	0.192	0.020
22.499	110.121	79.997	19.991	99.595	20.302	0.061	0.013
23.999	110.091	79.997	19.991	99.603	20.302	0.085	-0.010
25.499	110.056	79.997	19.992	99.626	20.300	0.296	-0.038
26.999	110.068	79.996	19.992	99.628	20.297	0.525	-0.004
28.499	110.085	79.994	19.992	99.627	20.295	0.731	0.028
29.999	110.063	79.994	19.992	99.634	20.295	0.688	-0.018
31.499	110.130	79.993	19.991	99.635	20.293	0.904	0.016
33.000	110.148	79.993	19.992	99.638	20.293	0.881	0.018
34.500	110.152	79.994	19.991	99.658	20.289	1.177	-0.021
35.999	110.175	79.993	19.991	99.670	20.290	1.155	0.011
37.499	110.245	79.995	19.991	99.691	20.289	1.248	0.044
38.999	110.287	79.995	19.990	99.689	20.288	1.338	0.032
40.499	110.328	79.995	19.991	99.668	20.287	1.392	0.031
42.000	110.387	79.995	19.990	99.695	20.281	1.894	0.048
43.499	110.449	79.996	19.991	99.748	20.277	2.283	0.034
44.999	110.548	79.994	19.991	99.786	20.275	2.439	0.069
46.499	110.695	79.994	19.991	99.769	20.273	2.581	0.103
47.999	110.803	79.994	19.991	99.757	20.266	3.171	0.092
49.499	110.953	79.994	19.991	99.756	20.266	3.235	0.113
51.000	111.086	79.994	19.991	99.771	20.264	3.384	0.089
52.499	111.306	79.996	19.991	99.789	20.265	3.282	0.152
53.999	111.521	79.994	19.990	99.791	20.262	3.573	0.142
55.499	111.701	79.995	19.990	99.780	20.265	3.292	0.121
56.999	111.951	79.994	19.991	99.781	20.267	3.077	0.166
58.499	112.169	79.995	19.992	99.790	20.262	3.522	0.150
59.999	112.391	79.994	19.992	99.795	20.263	3.484	0.157
61.499	112.629	79.994	19.991	99.792	20.264	3.375	0.159
62.999	112.901	79.993	19.991	99.785	20.259	3.778	0.187
64.499	113.181	79.993	19.991	99.781	20.261	3.596	0.183
65.999	113.480	79.993	19.992	99.793	20.262	3.569	0.220
67.499	113.697	79.995	19.992	99.812	20.258	3.930	0.169
68.999	114.061	79.994	19.990	99.819	20.256	4.038	0.228
70.499	114.391	79.996	19.991	99.810	20.253	4.295	0.201
71.999	114.713	79.996	19.990	99.817	20.256	4.061	0.211
73.499	115.073	79.996	19.990	99.828	20.255	4.142	0.245
74.999	115.458	79.997	19.991	99.824	20.250	4.595	0.269
76.499	115.777	79.996	19.991	99.810	20.250	4.566	0.200
77.999	116.102	79.996	19.990	99.823	20.252	4.386	0.222
79.499	116.530	79.997	19.991	99.816	20.250	4.579	0.281
80.999	116.915	79.996	19.992	99.818	20.252	4.448	0.267
82.499	117.309	79.997	19.991	99.846	20.250	4.550	0.283
83.999	117.697	79.996	19.991	99.865	20.249	4.692	0.270
85.500	118.174	79.996	19.991	99.862	20.254	4.234	0.307
86.999	118.625	79.995	19.991	99.853	20.246	4.954	0.303
88.499	119.014	79.995	19.991	99.858	20.246	4.895	0.262
89.999	119.465	79.995	19.992	99.871	20.249	4.655	0.295
91.499	119.944	79.995	19.991	99.871	20.250	4.620	0.318
92.999	120.416	79.995	19.991	99.871	20.249	4.647	0.330
94.499	120.879	79.996	19.992	99.858	20.247	4.832	0.298
95.999	121.374	79.995	19.991	99.845	20.246	4.898	0.341
97.499	121.890	79.996	19.991	99.842	20.248	4.719	0.347
98.999	122.370	79.998	19.989	99.844	20.243	5.227	0.323
100.500	122.852	79.997	19.990	99.830	20.245	5.022	0.325
101.999	123.344	79.999	19.991	99.830	20.246	4.924	0.348
103.499	123.872	79.998	19.990	99.846	20.247	4.865	0.348
104.999	124.435	79.997	19.991	99.842	20.246	4.915	0.381
106.499	124.953	79.997	19.991	99.786	20.248	4.749	0.349
108.000	125.500	79.997	19.991	99.824	20.250	4.576	0.340
109.499	126.027	79.997	19.991	99.923	20.248	4.738	0.355
110.999	126.599	79.996	19.991	99.897	20.250	4.629	0.385
112.499	127.088	79.994	19.991	99.866	20.250	4.553	0.334
113.999	127.681	79.994	19.991	99.853	20.248	4.742	0.398
115.499	128.271	79.993	19.991	99.862	20.249	4.713	0.390
117.001	128.850	79.993	19.991	99.872	20.251	4.510	0.384
118.499	129.444	79.993	19.992	99.866	20.251	4.527	0.407
119.999	130.049	79.995	19.992	99.883	20.248	4.750	0.360
121.499	130.603	79.994	19.993	99.887	20.246	4.952	0.377
123.000	131.194	79.995	19.991	99.872	20.246	4.959	0.390
124.499	131.800	79.995	19.992	99.871	20.244	5.091	0.422
126.001	132.381	79.995	19.993	99.861	20.245	5.063	0.395
127.499	133.060	79.994	19.992	99.869	20.248	4.722	0.429
129.000	133.619	79.996	19.990	99.876	20.243	5.191	0.390
130.500	134.224	79.995	19.991	99.883	20.244	5.106	0.412
132.000	134.851	79.996	19.990	99.896	20.244	5.107	0.401
133.500	135.523	79.996	19.990	99.896	20.244	5.130	0.436
135.000	136.091	79.995	19.990	99.891	20.243	5.215	0.387
136.500	136.733	79.996	19.991	99.883	20.240	5.447	0.401
138.000	137.383	79.996	19.990	99.891	20.242	5.288	0.424
139.500	138.036	79.995	19.991	99.888	20.240	5.411	0.461
141.000	138.651	79.995	19.991	99.899	20.244	5.070	0.404
142.500	139.359	79.995	19.991	99.908	20.245	5.058	0.476
144.000	139.976	79.995	19.991	99.905	20.244	5.149	0.407
145.500	140.654	79.995	19.991	99.895	20.241	5.379	0.456
147.000	141.318	79.995	19.990	99.887	20.244	5.142	0.457
148.500	141.983	79.994	19.991	99.878	20.243	5.182	0.443
150.000	142.656	79.994	19.991	99.880	20.242	5.262	0.451
151.500	143.318	79.994	19.991	99.879	20.243	5.201	0.437
153.000	144.075	79.995	19.991	99.875	20.241	5.363	0.511
154.500	144.785	79.997	19.991	99.884	20.244	5.095	0.457
156.000	145.419	79.996	19.991	99.897	20.241	5.379	0.437
157.500	146.103	79.997	19.990	99.897	20.240	5.412	0.439
159.000	146.789	79.996	19.991	99.901	20.238	5.599	0.437
160.500	147.515	79.996	19.991	99.892	20.240	5.459	0.464
162.000	148.175	79.997	19.991	99.890	20.239	5.574	0.442
163.501	148.910	79.995	19.990	99.900	20.242	5.313	0.488
165.000	149.623	79.995	19.991	99.908	20.243	5.230	0.472
166.500	150.301	79.997	19.991	99.897	20.241	5.346	0.445
168.000	151.003	79.998	19.991	99.890	20.240	5.483	0.453
169.500	151.712	79.996	19.990	99.894	20.238	5.633	0.474
171.000	152.406	79.996	19.991	99.896	20.239	5.581	0.461
172.500	153.094	79.996	19.990	99.906	20.240	5.439	0.459
174.000	153.791	79.995	19.992	99.910	20.237	5.728	0.476
175.500	154.542	79.994	19.991	99.909	20.238	5.586	0.505
177.000	155.224	79.994	19.991	99.906	20.239	5.577	0.462
178.500	155.956	79.994	19.991	99.905	20.238	5.617	0.495
180.000	156.687	79.997	19.991	99.902	20.238	5.623	0.500
181.500	157.418	79.997	19.992	99.902	20.237	5.706	0.475
183.000	158.104	79.998	19.990	99.908	20.233	6.031	0.476
184.500	158.878	79.996	19.991	99.910	20.236	5.797	0.506
186.000	159.605	79.998	19.991	99.911	20.236	5.836	0.473
187.500	160.295	79.997	19.991	99.911	20.236	5.758	0.459
189.000	161.022	79.998	19.991	99.911	20.238	5.658	0.492
190.500	161.751	79.997	19.990	99.902	20.234	5.980	0.489
192.000	162.529	79.996	19.990	99.901	20.236	5.843	0.507
193.500	163.222	79.996	19.992	99.904	20.233	6.073	0.462
195.000	163.971	79.995	19.991	99.906	20.234	6.002	0.481
196.500	164.747	79.995	19.991	99.904	20.235	5.908	0.495
198.000	165.463	79.994	19.991	99.895	20.234	5.932	0.484
199.500	166.200	79.994	19.991	99.892	20.233	6.049	0.475
201.000	166.923	79.995	19.991	99.887	20.238	5.648	0.490
202.500	167.675	79.995	19.992	99.884	20.238	5.662	0.509
204.000	168.448	79.995	19.992	99.890	20.237	5.720	0.499
205.500	169.214	79.994	19.991	99.893	20.235	5.898	0.519
207.000	169.878	79.995	19.992	99.872	20.236	5.820	0.428
208.500	170.673	79.993	19.992	99.871	20.236	5.801	0.525
210.000	171.411	79.995	19.992	99.881	20.238	5.635	0.527
211.500	172.188	79.994	19.992	99.876	20.239	5.497	0.497
213.000	172.947	79.995	19.992	99.881	20.238	5.609	0.504
214.500	173.746	79.995	19.991	99.884	20.236	5.811	0.536
216.000	174.504	79.996	19.992	99.901	20.236	5.770	0.493
217.500	175.227	79.995	19.992	99.900	20.238	5.587	0.467
219.000	175.995	79.995	19.991	99.893	20.237	5.692	0.512
220.500	176.756	79.996	19.990	99.895	20.238	5.622	0.540
222.000	177.508	79.996	19.990	99.896	20.241	5.383	0.482
223.500	178.301	79.995	19.990	99.892	20.240	5.487	0.517
225.000	179.003	79.996	19.991	99.905	20.238	5.587	0.472
226.500	179.810	79.996	19.991	99.905	20.240	5.490	0.521
228.000	180.498	79.996	19.991	99.893	20.237	5.730	0.479
229.500	181.267	79.994	19.990	99.900	20.238	5.654	0.502
231.000	182.036	79.994	19.990	99.888	20.236	5.822	0.503
232.500	182.788	79.996	19.991	99.882	20.235	5.853	0.497
234.000	183.508	79.995	19.991	99.886	20.238	5.616	0.492
235.500	184.315	79.997	19.991	99.892	20.238	5.585	0.523
237.000	185.070	79.995	19.991	99.898	20.240	5.423	0.522
238.500	185.801	79.995	19.991	99.905	20.242	5.302	0.490
240.000	186.559	79.998	19.992	99.904	20.242	5.270	0.494
241.500	187.330	79.997	19.991	99.900	20.240	5.415	0.515
243.000	188.060	79.997	19.990	99.905	20.236	5.806	0.496
244.500	188.841	79.996	19.991	99.889	20.236	5.765	0.518
246.000	189.563	79.996	19.991	99.890	20.239	5.532	0.493
247.500	190.287	79.997	19.991	99.888	20.237	5.696	0.489
249.000	191.073	79.995	19.990	99.881	20.236	5.800	0.521
250.500	191.818	79.997	19.991	99.887	20.240	5.462	0.506
252.000	192.625	79.997	19.990	99.904	20.238	5.585	0.542
253.500	193.393	79.998	19.990	99.899	20.235	5.905	0.510
255.000	194.081	79.998	19.990	99.886	20.237	5.746	0.435
256.500	194.844	79.997	19.991	99.877	20.237	5.742	0.515
258.000	195.590	79.998	19.991	99.890	20.238	5.613	0.463
259.500	196.338	79.997	19.990	99.883	20.237	5.672	0.490
261.000	197.047	79.997	19.991	99.890	20.234	5.947	0.483
262.500	197.777	79.998	19.990	99.892	20.232	6.143	0.481
264.000	198.550	79.999	19.990	99.887	20.232	6.145	0.505
265.500	199.285	79.998	19.991	99.895	20.235	5.886	0.485
267.000	200.039	79.998	19.990	99.901	20.235	5.894	0.499
268.500	200.767	79.998	19.991	99.893	20.235	5.919	0.484
270.000	201.517	79.997	19.991	99.880	20.234	5.998	0.524
271.500	202.278	79.998	19.991	99.880	20.234	6.005	0.506
273.000	203.039	79.998	19.990	99.898	20.235	5.917	0.495
274.500	203.752	79.998	19.991	99.906	20.233	6.049	0.461
276.000	204.464	79.996	19.991	99.901	20.236	5.817	0.482
277.500	205.248	79.995	19.992	99.905	20.234	6.014	0.518
279.000	205.986	79.996	19.991	99.898	20.239	5.498	0.465
280.500	206.743	79.996	19.991	99.900	20.236	5.827	0.499
282.000	207.521	79.995	19.992	99.906	20.236	5.779	0.515
283.500	208.245	79.995	19.991	99.893	20.234	5.970	0.467
285.000	208.971	79.996	19.992	99.893	20.235	5.874	0.492
286.500	209.743	79.995	19.991	99.894	20.233	6.031	0.471
288.000	210.484	79.994	19.991	99.893	20.234	5.934	0.500
289.500	211.205	79.994	19.992	99.895	20.235	5.870	0.469
291.000	211.923	79.993	19.991	99.899	20.236	5.811	0.475
292.500	212.724	79.994	19.992	99.896	20.236	5.802	0.521
294.000	213.484	79.995	19.991	99.902	20.234	5.958	0.507
295.500	214.175	79.995	19.991	99.900	20.231	6.266	0.468
297.000	214.910	79.995	19.992	99.889	20.232	6.119	0.505
298.500	215.670	79.994	19.991	99.906	20.231	6.209	0.508
300.000	216.419	79.994	19.992	99.912	20.233	6.069	0.490
301.500	217.177	79.994	19.992	99.913	20.231	6.244	0.490
303.000	217.895	79.996	19.992	99.913	20.236	5.763	0.489
304.500	218.648	79.994	19.991	99.913	20.233	6.054	0.485
306.000	219.403	79.994	19.992	99.913	20.233	6.063	0.501
307.500	220.142	79.994	19.992	99.912	20.230	6.294	0.475
309.000	220.840	79.994	19.990	99.910	20.233	6.060	0.478
310.500	221.589	79.994	19.990	99.909	20.230	6.363	0.487
312.000	222.346	79.994	19.991	99.904	20.226	6.700	0.501
313.500	223.107	79.996	19.992	99.909	20.228	6.499	0.511
315.000	223.809	79.992	19.991	99.900	20.228	6.533	0.442
316.500	224.596	79.996	19.990	99.889	20.227	6.613	0.526
318.000	225.351	79.995	19.991	99.899	20.230	6.278	0.517
319.500	226.095	79.996	19.990	99.908	20.232	6.126	0.513
321.000	226.785	79.993	19.990	99.910	20.230	6.319	0.463
322.500	227.536	79.998	19.992	99.909	20.229	6.441	0.497
324.000	228.299	79.997	19.991	99.912	20.227	6.539	0.513
325.500	229.018	79.996	19.990	99.899	20.230	6.306	0.472
327.000	229.784	79.997	19.991	99.886	20.223	6.927	0.506
328.500	230.522	79.996	19.991	99.901	20.227	6.550	0.482
330.000	231.238	79.995	19.990	99.905	20.223	6.949	0.488
331.500	232.039	79.997	19.991	99.890	20.227	6.605	0.535
333.000	232.776	79.996	19.991	99.897	20.228	6.472	0.502
334.500	233.476	79.997	19.990	99.911	20.227	6.588	0.431
336.000	234.212	79.997	19.991	99.909	20.230	6.356	0.475
337.500	234.949	79.996	19.991	99.905	20.226	6.686	0.468
339.000	235.723	79.998	19.991	99.898	20.226	6.626	0.518
340.500	236.391	79.997	19.991	99.916	20.230	6.363	0.447
342.000	237.123	79.997	19.990	99.908	20.229	6.425	0.496
343.500	237.893	79.995	19.992	99.908	20.228	6.529	0.512
345.000	238.629	79.997	19.990	99.905	20.230	6.337	0.497
346.500	239.371	79.998	19.991	99.899	20.230	6.361	0.480
348.000	240.073	79.996	19.991	99.905	20.229	6.385	0.480
349.500	240.803	79.998	19.991	99.900	20.232	6.157	0.465
351.000	241.569	79.998	19.991	99.900	20.227	6.568	0.502
352.500	242.291	79.997	19.991	99.908	20.227	6.606	0.477
354.000	243.015	79.997	19.992	99.906	20.228	6.487	0.465
355.500	243.718	79.997	19.990	99.902	20.226	6.667	0.455
357.000	244.490	79.996	19.991	99.906	20.228	6.496	0.484
358.500	245.212	79.995	19.992	99.908	20.227	6.565	0.501
360.000	245.965	79.995	19.991	99.906	20.227	6.601	0.504
361.500	246.684	79.994	19.991	99.910	20.228	6.515	0.468
363.000	247.411	79.994	19.991	99.914	20.229	6.409	0.488
364.500	248.135	79.996	19.992	99.912	20.230	6.352	0.492
366.000	248.882	79.996	19.991	99.913	20.227	6.591	0.473
367.500	249.645	79.996	19.991	99.913	20.227	6.615	0.510
369.000	250.399	79.995	19.991	99.913	20.223	6.885	0.522
370.500	251.137	79.992	19.990	99.913	20.226	6.637	0.503
372.000	251.856	79.994	19.991	99.913	20.221	7.073	0.473
373.500	252.557	79.995	19.991	99.913	20.224	6.871	0.465
375.000	253.329	79.995	19.991	99.914	20.220	7.167	0.488
376.500	254.060	79.996	19.991	99.916	20.222	6.977	0.499
378.000	254.786	79.997	19.990	99.914	20.224	6.871	0.493
379.500	255.522	79.996	19.990	99.912	20.223	6.904	0.483
381.000	256.225	79.996	19.991	99.918	20.222	6.992	0.482
382.500	256.978	79.996	19.991	99.916	20.226	6.700	0.499
384.000	257.744	79.994	19.991	99.912	20.225	6.714	0.509
385.500	258.433	79.994	19.992	99.913	20.225	6.755	0.467
387.000	259.198	79.993	19.992	99.909	20.227	6.605	0.514
388.500	259.930	79.997	19.992	99.910	20.227	6.584	0.483
390.000	260.650	79.994	19.992	99.909	20.225	6.722	0.461
391.500	261.435	79.992	19.993	99.911	20.226	6.647	0.506
393.000	262.174	79.994	19.992	99.908	20.225	6.730	0.496
394.500	262.938	79.995	19.991	99.908	20.227	6.560	0.497
396.000	263.699	79.994	19.992	99.909	20.227	6.595	0.492
397.500	264.462	79.998	19.990	99.909	20.227	6.551	0.505
399.000	265.185	79.995	19.991	99.916	20.225	6.730	0.479
400.500	265.922	79.997	19.990	99.915	20.229	6.427	0.491
402.000	266.741	79.996	19.991	99.922	20.226	6.657	0.525
403.500	267.529	79.997	19.991	99.941	20.226	6.667	0.540
405.000	268.255	79.998	19.990	99.921	20.226	6.689	0.481
406.500	269.010	79.998	19.991	99.899	20.223	6.944	0.503
408.000	269.812	79.996	19.990	99.870	20.222	6.990	0.534
409.500	270.596	79.998	19.991	99.831	20.224	6.809	0.513
411.000	271.418	79.998	19.990	99.949	20.223	6.900	0.530
412.500	272.156	79.997	19.991	99.974	20.224	6.831	0.502
414.000	272.921	79.995	19.991	99.909	20.224	6.881	0.520
415.500	273.689	79.994	19.992	99.918	20.223	6.952	0.512
417.000	274.431	79.996	19.992	99.910	20.226	6.688	0.507
418.500	275.208	79.995	19.990	99.911	20.223	6.952	0.533
420.000	275.933	79.994	19.991	99.911	20.221	7.142	0.498
421.500	276.717	79.996	19.991	99.913	20.222	7.033	0.518
423.000	277.499	79.998	19.990	99.913	20.222	7.017	0.521
424.500	278.246	79.997	19.991	99.915	20.224	6.855	0.491
426.000	279.010	79.997	19.991	99.914	20.222	6.995	0.512
427.500	279.788	79.997	19.990	99.911	20.225	6.720	0.504
429.000	280.559	79.998	19.991	99.911	20.221	7.064	0.541
430.500	281.327	79.997	19.990	99.916	20.224	6.884	0.509
432.000	282.064	79.996	19.991	99.921	20.225	6.767	0.470
433.500	282.835	80.000	19.990	99.930	20.220	7.168	0.542
435.000	283.605	79.997	19.990	99.923	20.224	6.869	0.517
436.500	284.411	79.997	19.990	99.926	20.220	7.200	0.517
438.000	285.199	79.996	19.991	99.924	20.219	7.265	0.526
439.500	285.944	79.996	19.991	99.926	20.215	7.612	0.493
441.000	286.734	79.993	19.991	99.925	20.220	7.173	0.549
442.500	287.492	79.994	19.990	99.918	20.219	7.308	0.518
444.000	288.259	79.995	19.992	99.925	20.218	7.372	0.501
445.500	289.034	79.995	19.992	99.917	20.217	7.463	0.534
447.000	289.846	79.996	19.991	99.913	20.214	7.700	0.551
448.500	290.577	79.996	19.992	99.873	20.212	7.862	0.488
450.000	291.285	79.993	19.994	99.847	20.216	7.554	0.488
451.500	292.080	79.994	19.992	99.923	20.218	7.336	0.513
453.000	292.879	79.996	19.991	99.981	20.217	7.431	0.520
454.500	293.629	79.993	19.993	99.934	20.217	7.469	0.502
456.000	294.394	79.995	19.991	99.908	20.215	7.616	0.514
457.500	295.138	79.996	19.992	99.907	20.220	7.167	0.454
459.000	295.939	79.999	19.991	99.909	20.218	7.332	0.503
460.500	296.631	79.996	19.992	99.914	20.218	7.331	0.463
462.000	297.406	79.996	19.992	99.920	20.217	7.466	0.499
463.500	298.192	79.996	19.991	99.916	20.218	7.341	0.503
465.000	298.986	79.995	19.992	99.917	20.215	7.651	0.532
466.500	299.764	79.995	19.992	99.915	20.213	7.793	0.520
468.000	300.483	79.996	19.992	99.936	20.214	7.694	0.486
469.500	301.274	79.996	19.992	99.938	20.213	7.808	0.531
471.000	302.031	79.995	19.993	99.917	20.211	8.000	0.503
472.500	302.780	79.993	19.993	99.913	20.208	8.186	0.489
474.000	303.535	79.992	19.993	99.916	20.212	7.874	0.513
475.500	304.295	79.994	19.993	99.910	20.212	7.847	0.512
477.000	305.057	79.994	19.993	99.908	20.208	8.208	0.498
478.500	305.761	79.994	19.992	99.914	20.210	8.021	0.470
480.000	306.515	79.994	19.993	99.915	20.207	8.355	0.482
481.500	307.254	79.996	19.992	99.921	20.207	8.271	0.477
483.000	308.025	79.995	19.992	99.934	20.207	8.271	0.527
484.500	308.742	79.997	19.991	99.941	20.211	7.990	0.468
486.000	309.501	79.997	19.992	99.937	20.208	8.268	0.521
487.500	310.275	79.996	19.991	99.937	20.209	8.152	0.515
489.000	311.005	79.996	19.992	99.939	20.206	8.373	0.489
490.500	311.756	79.999	19.990	99.942	20.205	8.529	0.487
492.000	312.533	79.998	19.990	99.937	20.202	8.780	0.509
493.500	313.280	79.997	19.991	99.924	20.205	8.503	0.493
495.000	314.017	79.995	19.991	99.920	20.204	8.589	0.503
496.500	314.803	79.996	19.991	99.918	20.205	8.493	0.518
498.000	315.549	79.995	19.991	99.920	20.203	8.697	0.516
499.500	316.268	79.996	19.991	99.925	20.203	8.678	0.494
501.000	317.015	79.997	19.992	99.922	20.204	8.569	0.492
502.500	317.781	79.996	19.991	99.917	20.202	8.711	0.515
504.000	318.528	79.996	19.991	99.925	20.202	8.745	0.484
505.500	319.274	79.998	19.990	99.926	20.202	8.773	0.519
507.000	320.036	79.997	19.991	99.919	20.205	8.450	0.535
508.500	320.762	79.997	19.991	99.919	20.202	8.730	0.512
510.000	321.548	80.000	19.991	99.917	20.200	8.882	0.511
511.500	322.320	79.998	19.991	99.920	20.203	8.695	0.488
513.000	323.062	79.999	19.990	99.918	20.201	8.807	0.498
514.500	323.837	80.000	19.990	99.920	20.204	8.558	0.519
516.000	324.579	79.997	19.991	99.920	20.202	8.719	0.492
517.500	325.333	79.996	19.991	99.912	20.199	8.988	0.485
519.000	326.112	79.998	19.990	99.915	20.200	8.901	0.512
520.500	326.835	79.995	19.991	99.915	20.197	9.192	0.474
522.000	327.577	79.995	19.991	99.919	20.198	9.100	0.504
523.500	328.376	79.996	19.991	99.924	20.197	9.169	0.536
525.000	329.125	79.996	19.991	99.923	20.196	9.231	0.500
526.500	329.879	79.997	19.992	99.922	20.196	9.283	0.491
528.000	330.647	79.995	19.992	99.934	20.192	9.641	0.519
529.500	331.380	79.995	19.992	99.942	20.193	9.550	0.481
531.000	332.141	79.996	19.992	99.939	20.190	9.797	0.494
532.500	332.920	79.996	19.991	99.936	20.192	9.624	0.501
534.000	333.709	79.994	19.991	99.947	20.192	9.605	0.530
535.500	334.422	79.997	19.992	99.947	20.188	9.998	0.501
537.000	335.189	79.996	19.992	99.946	20.191	9.670	0.512
538.500	335.961	79.998	19.992	99.943	20.190	9.743	0.508
540.000	336.697	79.996	19.991	99.941	20.189	9.914	0.503
541.500	337.443	79.992	19.992	99.935	20.187	10.083	0.482
543.000	338.185	79.998	19.992	99.944	20.186	10.163	0.476
544.500	338.952	79.995	19.992	99.940	20.186	10.137	0.513
546.000	339.701	79.995	19.991	99.934	20.185	10.186	0.500
547.500	340.463	79.997	19.991	99.926	20.184	10.275	0.522
549.000	341.225	79.995	19.992	99.917	20.183	10.364	0.525
550.500	341.997	79.994	19.991	99.937	20.180	10.678	0.530
552.000	342.742	79.994	19.991	99.948	20.178	10.792	0.517
553.500	343.473	79.993	19.992	99.945	20.178	10.797	0.512
555.000	344.226	79.996	19.991	99.931	20.181	10.581	0.518
556.500	344.999	79.994	19.992	99.917	20.174	11.138	0.518
558.000	345.748	79.994	19.991	99.928	20.174	11.175	0.509
559.500	346.510	79.995	19.992	99.940	20.174	11.214	0.504
561.000	347.289	79.995	19.992	99.933	20.169	11.596	0.518
562.500	348.024	79.996	19.992	99.924	20.171	11.461	0.484
564.000	348.797	79.995	19.993	99.928	20.171	11.463	0.491
565.500	349.605	79.996	19.992	99.930	20.164	12.080	0.517
567.000	350.353	79.996	19.991	99.928	20.162	12.222	0.492
568.500	351.124	79.996	19.991	99.929	20.158	12.551	0.526
570.000	351.908	79.996	19.992	99.947	20.152	13.097	0.506
571.500	352.663	79.995	19.992	99.950	20.151	13.166	0.493
573.000	353.451	79.996	19.992	99.950	20.151	13.186	0.527
574.500	354.203	79.997	19.992	99.949	20.148	13.400	0.530
576.000	354.982	79.999	19.991	99.950	20.145	13.718	0.533
577.500	355.767	79.994	19.992	99.964	20.148	13.445	0.530
579.000	356.494	79.997	19.992	99.965	20.147	13.512	0.492
580.500	357.211	79.997	19.992	99.966	20.145	13.714	0.460
582.000	357.987	79.997	19.991	99.983	20.143	13.827	0.512
583.500	358.726	79.997	19.992	99.982	20.138	14.321	0.473
585.000	359.484	79.998	19.992	99.967	20.134	14.681	0.488
586.500	360.268	79.999	19.993	99.966	20.135	14.524	0.523
588.000	361.004	79.998	19.992	99.962	20.136	14.460	0.493
589.500	361.785	79.998	19.991	99.949	20.134	14.622	0.530
591.000	362.572	79.998	19.990	99.949	20.128	15.115	0.504
592.500	363.330	79.998	19.991	99.949	20.123	15.554	0.544
594.000	364.113	79.999	19.992	99.947	20.117	16.116	0.487
595.500	364.942	79.999	19.991	99.944	20.115	16.268	0.510
597.000	365.656	79.998	19.991	99.943	20.112	16.562	0.477
598.500	366.407	79.998	19.990	99.944	20.110	16.681	0.486
600.000	367.104	79.996	19.991	99.945	20.122	15.648	0.504
601.500	367.969	79.997	19.991	99.947	20.112	16.581	0.555
603.000	368.755	79.997	19.991	99.949	20.109	16.775	0.516
604.500	369.649	79.996	19.992	99.949	20.110	16.742	0.453
606.000	370.446	79.995	19.990	99.946	20.110	16.721	0.592
607.500	371.340	79.994	19.991	99.946	20.104	17.215	0.664
609.000	371.951	79.996	19.990	99.949	20.105	17.156	0.496
610.500	372.447	79.996	19.991	99.952	20.109	16.800	0.386
612.000	373.571	79.997	19.991	99.969	20.108	16.931	0.787
613.500	374.109	79.995	19.992	99.987	20.107	16.982	0.387
615.000	374.984	79.997	19.990	99.974	20.106	17.085	0.639
616.500	375.653	79.996	19.991	99.961	20.105	17.157	0.500
618.000	376.483	79.996	19.991	99.955	20.103	17.327	0.557
619.500	377.172	79.996	19.991	99.953	20.099	17.673	0.512
621.000	377.991	79.996	19.992	99.951	20.096	17.927	0.561
622.500	378.746	79.996	19.991	99.952	20.093	18.189	0.515
624.000	379.574	79.996	19.992	99.960	20.094	18.133	0.502
625.500	380.349	79.996	19.992	99.967	20.091	18.381	0.499
627.000	381.067	79.995	19.991	99.963	20.090	18.429	0.472
628.500	381.879	79.995	19.992	99.955	20.085	18.874	0.528
630.000	382.658	79.995	19.993	99.955	20.086	18.814	0.543
631.500	383.413	79.995	19.991	99.953	20.079	19.396	0.516
633.000	384.180	79.995	19.991	99.957	20.077	19.561	0.498
634.500	384.922	79.995	19.992	99.970	20.073	19.910	0.503
636.000	385.726	79.996	19.992	99.986	20.071	20.088	0.502
637.500	386.479	79.995	19.991	99.988	20.069	20.259	0.510
639.000	387.287	79.996	19.992	99.987	20.065	20.619	0.542
640.500	388.112	79.996	19.991	99.974	20.062	20.869	0.568
642.000	388.823	79.996	19.993	99.961	20.056	21.425	0.500
643.500	389.588	79.996	19.992	99.961	20.057	21.287	0.500
645.000	390.362	79.996	19.992	99.972	20.050	21.890	0.483
646.500	391.148	79.995	19.991	99.978	20.044	22.422	0.504
648.000	391.940	79.996	19.993	99.982	20.042	22.608	0.528
649.500	392.736	79.998	19.993	99.966	20.035	23.216	0.518
651.000	393.539	79.997	19.993	99.963	20.034	23.341	0.536
652.500	394.334	79.996	19.993	99.979	20.032	23.517	0.527
654.000	395.088	79.996	19.993	99.991	20.024	24.151	0.514
655.500	395.888	79.996	19.993	100.001	20.023	24.266	0.551
657.000	396.650	79.995	19.992	100.007	20.013	25.174	0.503
658.500	397.394	79.995	19.993	100.005	20.003	26.030	0.506
660.000	398.148	79.995	19.993	100.022	19.993	26.850	0.520
661.500	398.968	79.995	19.992	100.025	19.976	28.345	0.566
663.000	399.736	79.996	19.991	100.012	19.965	29.302	0.499
664.500	400.463	79.997	19.992	100.009	19.946	30.995	0.479
666.000	401.305	79.997	19.990	100.011	19.923	32.988	0.554
667.500	402.078	79.997	19.991	100.031	19.903	34.671	0.529
669.000	402.867	79.997	19.992	100.030	19.889	35.874	0.544
670.500	403.641	79.998	19.991	100.009	19.880	36.732	0.499
672.000	404.380	79.999	19.991	99.963	19.867	37.821	0.488
673.500	405.180	79.999	19.992	100.000	19.859	38.487	0.537
675.000	405.968	79.999	19.990	100.078	19.849	39.406	0.517
676.500	406.720	79.999	19.991	100.081	19.836	40.492	0.517
678.000	407.526	79.998	19.990	100.090	19.824	41.564	0.514
679.500	408.289	79.998	19.992	100.106	19.810	42.788	0.514
681.000	409.074	79.996	19.993	100.089	19.788	44.622	0.520
682.500	409.798	79.996	19.991	100.089	19.758	47.231	0.495
684.000	410.564	79.996	19.990	100.116	19.735	49.329	0.516
685.500	411.343	79.995	19.991	100.122	19.711	51.423	0.510
687.000	412.126	79.995	19.991	100.115	19.691	53.096	0.548
688.500	412.867	79.994	19.991	100.115	19.672	54.740	0.493
690.000	413.692	79.995	19.991	100.105	19.647	56.953	0.572
691.500	414.463	79.995	19.991	100.081	19.627	58.682	0.513
693.000	415.242	79.996	19.991	100.048	19.601	61.012	0.515
694.500	416.030	79.995	19.990	100.131	19.576	63.200	0.523
696.000	416.792	79.997	19.992	100.228	19.550	65.436	0.507
697.500	417.563	79.995	19.990	100.208	19.525	67.597	0.532
699.000	418.302	79.997	19.992	100.171	19.495	70.203	0.498
700.500	419.060	79.997	19.991	100.182	19.463	72.988	0.508
702.000	419.822	79.996	19.991	100.199	19.421	76.667	0.489
703.500	420.570	79.998	19.991	100.219	19.380	80.250	0.500
705.000	421.357	79.997	19.992	100.243	19.341	83.696	0.543
706.500	422.066	79.997	19.991	100.244	19.309	86.496	0.469
708.000	422.829	79.995	19.991	100.245	19.271	89.711	0.516
709.500	423.556	79.995	19.991	100.248	19.231	93.200	0.501
711.000	424.327	79.995	19.991	100.253	19.187	97.167	0.524
712.500	425.093	79.996	19.992	100.285	19.146	100.761	0.503
714.000	425.828	79.994	19.992	100.310	19.100	104.861	0.496
715.500	426.554	79.996	19.991	100.330	19.057	108.710	0.490
717.000	427.342	79.995	19.993	100.357	19.018	112.124	0.510
718.500	428.097	79.996	19.992	100.348	18.988	114.502	0.483
720.000	428.822	79.996	19.992	100.329	18.941	118.356	0.472
721.500	429.544	79.995	19.992	100.390	18.860	125.412	0.483
723.000	430.282	79.995	19.993	100.482	18.745	135.449	0.498
724.500	431.022	79.997	19.992	100.557	18.607	147.628	0.487
726.000	431.815	79.996	19.991	100.654	18.494	157.776	0.506
727.500	432.560	79.997	19.991	100.691	18.433	163.221	0.494
729.000	433.320	79.997	19.992	100.531	18.411	165.015	0.525
730.500	434.088	79.999	19.991	100.329	18.397	166.128	0.512
732.000	434.810	79.997	19.991	100.272	18.389	166.817	0.511
733.500	435.606	79.998	19.992	100.292	18.376	167.927	0.527
735.000	436.367	79.998	19.992	100.396	18.359	169.482	0.491
736.500	437.083	79.996	19.991	100.588	18.342	170.997	0.473
738.000	437.838	79.996	19.992	100.704	18.327	172.278	0.512
739.500	438.649	79.996	19.993	100.672	18.314	173.402	0.526
741.000	439.363	79.996	19.992	100.603	18.304	174.263	0.483
742.500	440.138	79.996	19.992	100.578	18.289	175.574	0.533
744.000	440.910	79.994	19.992	100.578	18.276	176.719	0.517
745.500	441.678	79.996	19.992	100.581	18.262	177.870	0.523
747.000	442.396	79.996	19.992	100.595	18.255	178.550	0.480
748.500	443.152	79.997	19.992	100.605	18.251	178.873	0.519
750.000	443.905	79.997	19.991	100.605	18.251	178.862	0.519
751.500	444.655	79.997	19.992	100.592	18.248	179.053	0.500
753.000	445.456	79.997	19.990	100.579	18.253	178.610	0.538
754.500	446.229	79.996	19.991	100.581	18.266	177.518	0.526
756.000	446.984	79.999	19.990	100.582	18.283	176.041	0.501
757.500	447.704	79.999	19.989	100.575	18.302	174.300	0.485
759.000	448.532	79.997	19.991	100.573	18.329	171.885	0.546
760.500	449.284	79.997	19.991	100.570	18.356	169.473	0.513
762.000	450.072	79.996	19.991	100.555	18.395	166.117	0.511
763.500	450.842	79.995	19.990	100.555	18.432	162.826	0.521
765.000	451.635	79.994	19.991	100.548	18.476	158.952	0.533
766.500	452.312	79.994	19.991	100.539	18.519	155.225	0.475
768.000	453.125	79.995	19.991	100.534	18.572	150.589	0.501
769.500	453.892	79.995	19.992	100.500	18.629	145.578	0.517
771.000	454.665	79.997	19.991	100.463	18.686	140.556	0.515
772.500	455.377	79.996	19.990	100.453	18.743	135.649	0.489
774.000	456.175	79.995	19.991	100.429	18.801	130.584	0.496
775.500	456.947	79.996	19.991	100.407	18.860	125.400	0.503
777.000	457.664	79.995	19.992	100.384	18.921	120.094	0.478
778.500	458.482	79.995	19.990	100.365	18.978	115.071	0.548
780.000	459.191	79.996	19.990	100.339	19.041	109.608	0.488
781.500	459.968	79.997	19.990	100.313	19.110	103.610	0.521
783.000	460.736	79.996	19.991	100.303	19.179	97.614	0.524
784.500	461.513	79.996	19.992	100.303	19.248	91.574	0.507
786.000	462.265	79.996	19.991	100.288	19.313	85.910	0.490
787.500	463.000	79.997	19.991	100.253	19.379	80.213	0.503
789.000	463.744	79.995	19.990	100.229	19.447	74.258	0.509
790.500	464.535	79.996	19.991	100.221	19.507	69.058	0.508
792.000	465.285	79.996	19.990	100.201	19.561	64.340	0.497
793.500	466.043	79.995	19.990	100.168	19.613	59.827	0.532
795.000	466.855	79.995	19.993	100.169	19.660	55.745	0.562
796.500	467.597	79.996	19.992	100.180	19.705	51.895	0.495
798.000	468.426	79.995	19.992	100.173	19.747	48.194	0.531
799.500	469.188	79.996	19.991	100.154	19.784	44.957	0.493
801.000	469.924	79.994	19.992	100.124	19.819	41.999	0.483
802.500	470.727	79.996	19.993	100.092	19.852	39.141	0.538
804.000	471.473	79.994	19.992	100.082	19.879	36.744	0.490
805.500	472.224	79.996	19.991	100.083	19.903	34.718	0.503
807.000	473.008	79.996	19.992	100.067	19.925	32.791	0.518
808.500	473.776	79.997	19.992	100.066	19.948	30.738	0.546
810.000	474.584	79.996	19.992	100.048	19.969	28.911	0.541
811.500	475.360	79.996	19.991	100.034	19.987	27.395	0.529
813.000	476.104	79.997	19.991	100.032	20.006	25.725	0.500
814.500	476.881	79.997	19.991	100.038	20.022	24.379	0.524
816.000	477.683	79.997	19.991	100.032	20.036	23.176	0.533
817.500	478.456	79.996	19.990	100.025	20.052	21.738	0.528
819.000	479.198	79.997	19.991	100.030	20.066	20.578	0.500
820.500	479.958	79.996	19.991	100.030	20.076	19.631	0.522
822.000	480.686	79.996	19.990	100.015	20.086	18.788	0.478
823.500	481.539	79.997	19.991	100.010	20.097	17.831	0.563
825.000	482.334	79.997	19.991	100.022	20.103	17.337	0.518
826.500	483.103	79.997	19.991	100.010	20.114	16.345	0.530
828.000	483.863	79.996	19.992	99.996	20.121	15.771	0.490
829.500	484.637	79.998	19.991	99.994	20.127	15.273	0.523
831.000	485.418	79.995	19.991	99.995	20.132	14.853	0.521
832.500	486.203	79.997	19.992	99.993	20.140	14.097	0.529
834.000	486.988	79.998	19.991	99.989	20.146	13.628	0.528
835.500	487.736	79.998	19.992	99.988	20.152	13.052	0.479
837.000	488.506	79.997	19.991	99.984	20.159	12.447	0.503
838.500	489.281	80.000	19.991	99.972	20.163	12.131	0.546
840.000	490.065	79.998	19.991	99.955	20.165	11.979	0.500
841.500	490.858	79.998	19.990	99.966	20.168	11.660	0.527
843.000	491.587	79.999	19.991	99.965	20.167	11.759	0.500
844.500	492.387	79.998	19.991	99.947	20.170	11.527	0.529
846.000	493.110	79.997	19.991	99.946	20.178	10.801	0.493
847.500	493.952	79.996	19.992	99.948	20.177	10.935	0.542
849.000	494.727	79.996	19.990	99.957	20.180	10.648	0.516
850.500	495.493	79.995	19.990	99.967	20.180	10.644	0.510
852.000	496.257	79.995	19.991	99.955	20.183	10.419	0.526
853.500	497.041	79.996	19.990	99.948	20.184	10.286	0.518
855.000	497.782	79.996	19.991	99.935	20.187	10.058	0.515
856.500	498.530	79.997	19.991	99.939	20.185	10.198	0.513
858.000	499.332	79.995	19.991	99.959	20.190	9.759	0.533
859.500	500.147	79.997	19.992	99.940	20.195	9.365	0.544
861.000	500.888	79.995	19.990	99.935	20.193	9.548	0.509
862.500	501.673	79.996	19.991	99.947	20.195	9.356	0.531
864.000	502.432	79.996	19.991	99.955	20.194	9.415	0.506
865.500	503.196	79.996	19.992	99.969	20.196	9.256	0.521
867.000	503.956	79.996	19.991	99.957	20.199	9.044	0.521
868.500	504.747	79.997	19.991	99.936	20.202	8.772	0.519
870.000	505.494	79.997	19.991	99.932	20.201	8.837	0.490
871.500	506.249	79.997	19.991	99.922	20.199	8.980	0.517
873.000	507.054	79.997	19.990	99.915	20.198	9.096	0.540
874.500	507.787	79.997	19.991	99.910	20.200	8.888	0.499
876.000	508.571	79.995	19.991	99.910	20.199	8.974	0.524
877.500	509.330	79.996	19.991	99.918	20.202	8.733	0.497
879.000	510.054	79.996	19.989	99.926	20.201	8.855	0.486
880.500	510.850	79.997	19.991	99.936	20.197	9.207	0.529
882.000	511.652	79.997	19.990	99.952	20.198	9.094	0.532
883.500	512.381	79.996	19.991	99.954	20.196	9.231	0.481
885.000	513.156	79.994	19.991	99.954	20.197	9.205	0.498
886.500	513.922	79.996	19.991	99.944	20.200	8.892	0.534
888.000	514.716	79.995	19.990	99.925	20.201	8.866	0.541
889.500	515.478	79.996	19.990	99.930	20.198	9.051	0.509
891.000	516.229	79.996	19.992	99.944	20.200	8.901	0.496
892.500	516.994	79.997	19.991	99.952	20.202	8.781	0.490
894.000	517.750	79.996	19.990	99.951	20.202	8.729	0.486
895.500	518.553	79.997	19.991	99.948	20.200	8.879	0.539
897.000	519.306	79.998	19.992	99.949	20.199	9.025	0.529
898.500	520.050	79.997	19.992	99.925	20.201	8.832	0.510
900.000	520.864	79.997	19.992	99.859	20.202	8.713	0.557
901.500	521.633	79.997	19.992	99.944	20.201	8.854	0.501
903.000	522.392	79.997	19.992	99.982	20.203	8.667	0.529
904.500	523.154	79.997	19.991	99.928	20.202	8.712	0.499
906.000	523.918	79.997	19.991	99.931	20.200	8.951	0.511
907.500	524.733	79.997	19.990	99.891	20.198	9.107	0.565
909.000	525.517	79.996	19.991	99.860	20.201	8.805	0.530
910.500	526.298	79.996	19.992	99.979	20.202	8.709	0.545
912.000	527.025	79.998	19.992	99.984	20.201	8.796	0.487
913.500	527.827	79.997	19.993	99.920	20.205	8.472	0.538
915.000	528.616	79.998	19.991	99.925	20.201	8.804	0.519
916.500	529.363	79.997	19.992	99.922	20.201	8.861	0.495
918.000	530.112	80.017	19.994	99.911	20.201	8.826	0.508
919.500	530.908	80.018	19.992	99.907	20.204	8.586	0.529
921.000	531.699	80.017	19.993	99.911	20.202	8.728	0.520
922.500	532.451	80.018	19.992	99.928	20.204	8.594	0.513
924.000	533.218	80.011	19.992	99.927	20.204	8.531	0.521
925.500	533.982	80.003	19.993	99.920	20.205	8.505	0.499
927.000	534.787	80.011	19.992	99.922	20.207	8.326	0.540
928.500	535.543	80.010	19.993	99.906	20.202	8.771	0.497
930.000	536.278	80.011	19.993	99.914	20.205	8.457	0.488
931.500	537.061	80.011	19.992	99.926	20.201	8.841	0.528
933.000	537.823	80.013	19.990	99.911	20.203	8.701	0.519
934.500	538.599	80.010	19.991	99.917	20.204	8.605	0.516
936.000	539.335	80.013	19.991	99.937	20.204	8.543	0.485
937.500	540.079	80.015	19.990	99.940	20.205	8.485	0.487
939.000	540.859	80.016	19.991	99.927	20.204	8.552	0.505
940.500	541.632	80.014	19.992	99.939	20.205	8.450	0.516
942.000	542.394	80.014	19.991	99.940	20.205	8.520	0.483
943.500	543.168	80.010	19.991	99.937	20.205	8.487	0.499
945.000	543.867	80.008	19.991	99.914	20.203	8.637	0.465
946.500	544.581	79.999	19.991	99.866	20.204	8.548	0.482
948.000	545.403	79.999	19.991	99.910	20.206	8.403	0.536
949.500	546.168	79.996	19.989	99.992	20.204	8.597	0.495
951.000	546.947	79.997	19.991	99.908	20.210	8.029	0.512
952.500	547.689	79.998	19.992	99.871	20.208	8.269	0.484
954.000	548.465	79.997	19.990	99.946	20.208	8.258	0.512
955.500	549.207	79.996	19.991	99.999	20.207	8.301	0.488
957.000	550.060	79.996	19.990	99.946	20.209	8.118	0.538
958.500	550.762	79.996	19.991	99.912	20.203	8.647	0.491
960.000	551.512	79.996	19.991	99.913	20.205	8.512	0.516
961.500	552.279	79.995	19.990	99.917	20.205	8.516	0.507
963.000	553.053	79.997	19.992	99.931	20.202	8.708	0.510
964.500	553.840	79.996	19.991	99.939	20.203	8.686	0.529
966.000	554.655	79.996	19.991	99.946	20.205	8.527	0.544
967.500	555.361	79.996	19.991	99.944	20.203	8.633	0.480
969.000	556.173	79.997	19.992	99.942	20.204	8.575	0.543
970.500	556.888	79.997	19.992	99.951	20.203	8.619	0.493
972.000	557.682	79.998	19.992	99.938	20.203	8.637	0.528
973.500	558.449	79.998	19.991	99.933	20.203	8.638	0.512
975.000	559.192	79.997	19.991	99.938	20.204	8.543	0.500
976.500	559.957	79.997	19.991	99.928	20.201	8.816	0.508
978.000	560.744	79.997	19.991	99.942	20.200	8.887	0.545
979.500	561.488	79.998	19.992	99.938	20.199	8.978	0.501
981.000	562.247	79.996	19.992	99.916	20.199	8.992	0.492
982.500	563.016	79.996	19.992	99.928	20.201	8.876	0.521
984.000	563.767	79.996	19.991	99.942	20.201	8.794	0.501
985.500	564.575	79.997	19.992	99.947	20.199	9.045	0.509
987.000	565.305	79.995	19.992	99.948	20.194	9.461	0.510
988.500	566.067	79.996	19.992	99.945	20.197	9.169	0.516
990.000	566.807	79.997	19.992	99.934	20.200	8.940	0.505
991.500	567.570	79.996	19.992	99.926	20.200	8.931	0.489
993.000	568.304	79.996	19.991	99.929	20.198	9.085	0.513
994.500	569.107	79.997	19.992	99.940	20.194	9.460	0.553
996.000	569.860	79.997	19.992	99.939	20.196	9.290	0.498
997.500	570.605	79.997	19.991	99.930	20.193	9.553	0.491
999.000	571.376	79.996	19.990	99.921	20.196	9.257	0.505
1000.500	572.119	79.998	19.991	99.924	20.194	9.426	0.516
1002.000	572.859	79.998	19.990	99.930	20.194	9.477	0.485
1003.500	573.688	79.999	19.991	99.946	20.191	9.689	0.502
1005.000	574.434	79.998	19.992	99.880	20.194	9.465	0.518
1006.500	575.189	79.996	19.992	99.892	20.195	9.365	0.527
1008.000	575.970	79.996	19.992	99.989	20.196	9.289	0.506
1009.500	576.729	79.996	19.992	99.953	20.197	9.211	0.513
1011.000	577.470	79.995	19.992	99.934	20.195	9.373	0.498
1012.500	578.249	79.994	19.992	99.915	20.196	9.304	0.530
1014.000	579.029	79.995	19.992	99.877	20.196	9.253	0.531
1015.500	579.764	79.994	19.992	99.909	20.195	9.390	0.486
1017.000	580.575	79.994	19.992	99.979	20.197	9.176	0.524
1018.500	581.327	79.996	19.993	99.964	20.193	9.514	0.492
1020.000	582.131	79.994	19.992	99.918	20.194	9.436	0.533
1021.500	582.878	79.995	19.991	99.918	20.194	9.467	0.503
1023.000	583.648	79.995	19.992	99.934	20.194	9.422	0.499
1024.499	584.407	79.995	19.991	99.949	20.196	9.300	0.505
1026.000	585.157	79.997	19.991	99.949	20.194	9.464	0.491
1027.500	585.976	79.997	19.990	99.947	20.192	9.590	0.548
1028.999	586.753	79.997	19.991	99.942	20.192	9.573	0.498
1030.499	587.473	79.996	19.991	99.920	20.193	9.495	0.480
1031.999	588.245	79.997	19.991	99.908	20.196	9.264	0.511
1033.499	588.990	79.997	19.991	99.913	20.195	9.387	0.502
1034.999	589.730	79.995	19.991	99.917	20.193	9.550	0.479
1036.499	590.492	79.996	19.990	99.926	20.193	9.501	0.504
1037.999	591.319	79.995	19.991	99.915	20.190	9.791	0.554
1039.500	592.084	80.001	19.991	99.921	20.195	9.356	0.510
1040.999	592.803	80.004	19.991	99.931	20.192	9.621	0.486
1041.999	593.363	80.002	19.991	99.929	20.190	9.762	0.538