File: 01_Data/Overstuffed_Chair_Polyester_Fabric/MCC/Overstuffed_Chair_Polyester_Fabric_MCC_30K_min_210308_R1.txt
Sample ID:	C:\MCC\MCC Cal\Test\Polyester_Fabric_30_1.txt
Sample Weight (mg):	3.05
Heating Rate (C/s):	0.5
Combustor Temp (C):	900
N2 Flow Rate (cc/min):	80
O2 Flow Rate (cc/min):	20
Calibration File:	C:\MCC\MCC Cal\Coeff1 JN10440_30_210304.txt.txt
T Correction Coefficients:	0	1.024463	0
Time Shift (s):	14
*
Time (s)	Temperature (C)	N2 flow rate (cc/min)	O2 flow rate (cc/min)	Flow Rate (cc/min)	Oxygen (%)	HRR (W/g)	Heating rate (C/s)
0.000	107.357	79.993	19.991	99.583	20.291	-0.025	-0.025
1.500	107.328	79.993	19.992	99.595	20.287	0.382	-0.006
3.000	107.373	79.991	19.992	99.597	20.290	0.017	0.022
4.500	107.349	79.990	19.991	99.600	20.294	-0.301	0.016
6.000	107.338	79.992	19.992	99.604	20.294	-0.312	-0.013
7.500	107.338	79.992	19.992	99.604	20.295	-0.469	0.016
9.000	107.342	79.991	19.990	99.606	20.298	-0.711	-0.006
10.500	107.313	79.992	19.991	99.603	20.293	-0.246	-0.014
12.000	107.287	79.994	19.992	99.588	20.295	-0.449	-0.033
13.500	107.306	79.995	19.991	99.591	20.293	-0.204	0.042
15.000	107.271	79.993	19.992	99.596	20.293	-0.271	-0.030
16.500	107.309	79.994	19.991	99.594	20.290	0.059	0.013
18.000	107.304	79.995	19.990	99.595	20.290	0.114	-0.017
19.500	107.304	79.994	19.992	99.601	20.289	0.201	0.025
21.000	107.313	79.994	19.992	99.604	20.288	0.302	0.020
22.500	107.310	79.994	19.991	99.602	20.286	0.464	-0.010
24.000	107.333	79.993	19.991	99.599	20.287	0.346	0.024
25.500	107.347	79.994	19.992	99.613	20.285	0.601	0.011
27.000	107.336	79.993	19.992	99.637	20.284	0.729	-0.001
28.500	107.326	79.994	19.991	99.643	20.280	1.084	-0.011
30.000	107.336	79.993	19.992	99.673	20.282	0.897	0.012
31.500	107.425	79.993	19.992	99.694	20.275	1.619	0.026
33.000	107.445	79.993	19.992	99.709	20.271	1.985	0.026
34.501	107.511	79.993	19.992	99.736	20.264	2.672	0.044
36.000	107.571	79.993	19.992	99.766	20.262	2.876	0.042
37.501	107.645	79.995	19.991	99.781	20.265	2.655	0.043
39.001	107.807	79.994	19.993	99.770	20.261	2.977	0.106
40.500	107.928	79.996	19.992	99.795	20.260	3.120	0.084
42.000	108.098	79.996	19.991	99.817	20.261	3.066	0.096
43.500	108.318	79.995	19.991	99.808	20.260	3.126	0.149
45.000	108.517	79.996	19.990	99.803	20.258	3.285	0.146
46.500	108.661	79.996	19.990	99.791	20.255	3.614	0.115
48.000	108.906	79.995	19.989	99.791	20.252	3.947	0.154
49.500	109.164	79.993	19.991	99.796	20.254	3.715	0.164
51.000	109.376	79.994	19.990	99.802	20.251	3.998	0.147
52.500	109.591	79.993	19.991	99.799	20.252	3.971	0.155
54.001	109.893	79.993	19.991	99.814	20.254	3.779	0.197
55.500	110.223	79.992	19.991	99.818	20.249	4.294	0.214
57.001	110.455	79.993	19.990	99.802	20.252	3.992	0.149
58.500	110.817	79.993	19.991	99.797	20.249	4.230	0.239
60.000	111.127	79.993	19.991	99.800	20.243	4.875	0.219
61.500	111.408	79.992	19.990	99.820	20.248	4.351	0.185
63.000	111.834	79.993	19.992	99.833	20.246	4.532	0.295
64.500	112.155	79.994	19.991	99.847	20.243	4.842	0.198
66.000	112.485	79.993	19.990	99.880	20.240	5.217	0.188
67.500	112.931	79.993	19.992	99.875	20.242	4.932	0.316
69.000	113.330	79.993	19.992	99.872	20.242	4.976	0.245
70.500	113.761	79.994	19.991	99.901	20.243	4.915	0.280
72.000	114.195	79.993	19.992	99.902	20.240	5.161	0.296
73.501	114.611	79.991	19.991	99.884	20.242	4.974	0.250
75.000	115.049	79.993	19.992	99.875	20.236	5.555	0.290
76.500	115.548	79.995	19.991	99.874	20.238	5.374	0.337
78.000	116.000	79.994	19.992	99.876	20.234	5.755	0.288
79.500	116.515	79.994	19.991	99.872	20.235	5.658	0.346
81.001	116.976	79.996	19.992	99.870	20.241	5.104	0.313
82.500	117.496	79.994	19.992	99.873	20.238	5.405	0.360
84.000	118.033	79.993	19.991	99.869	20.243	4.857	0.344
85.500	118.574	79.992	19.992	99.872	20.239	5.323	0.351
87.000	119.114	79.994	19.993	99.872	20.236	5.535	0.349
88.500	119.651	79.995	19.992	99.875	20.234	5.773	0.370
90.000	120.221	79.993	19.993	99.891	20.234	5.822	0.368
91.500	120.754	79.993	19.992	99.906	20.235	5.670	0.374
93.000	121.320	79.994	19.993	99.893	20.239	5.326	0.381
94.500	121.913	79.995	19.993	99.885	20.238	5.330	0.392
96.000	122.570	79.995	19.992	99.905	20.237	5.498	0.458
97.500	123.160	79.997	19.992	99.910	20.242	4.960	0.377
99.000	123.776	79.995	19.993	99.911	20.239	5.226	0.418
100.500	124.373	79.996	19.991	99.891	20.238	5.414	0.404
102.000	124.975	79.996	19.993	99.878	20.235	5.641	0.392
103.501	125.573	79.997	19.991	99.875	20.237	5.440	0.410
105.001	126.206	79.995	19.992	99.885	20.235	5.674	0.418
106.500	126.903	79.994	19.991	99.903	20.235	5.731	0.466
108.000	127.495	79.995	19.991	99.888	20.230	6.238	0.413
109.500	128.170	79.994	19.992	99.875	20.235	5.658	0.429
111.000	128.800	79.995	19.993	99.888	20.238	5.415	0.408
112.500	129.495	79.994	19.993	99.903	20.234	5.748	0.430
114.000	130.140	79.993	19.992	99.903	20.234	5.762	0.413
115.500	130.810	79.994	19.993	99.891	20.238	5.387	0.455
117.000	131.468	79.994	19.991	99.899	20.243	4.860	0.436
118.500	132.161	79.993	19.992	99.910	20.241	5.084	0.481
120.000	132.817	79.994	19.992	99.909	20.240	5.180	0.449
121.500	133.489	79.997	19.993	99.913	20.234	5.818	0.429
123.000	134.269	79.995	19.992	99.913	20.238	5.401	0.514
124.500	134.911	79.994	19.992	99.908	20.233	5.871	0.418
126.001	135.616	79.996	19.993	99.906	20.233	5.848	0.474
127.500	136.368	79.995	19.992	99.899	20.234	5.750	0.480
129.000	137.113	79.995	19.992	99.887	20.237	5.454	0.498
130.500	137.834	79.995	19.992	99.903	20.239	5.300	0.487
132.000	138.541	79.994	19.991	99.911	20.240	5.149	0.451
133.500	139.254	79.993	19.991	99.914	20.236	5.575	0.485
135.000	139.956	79.993	19.990	99.913	20.238	5.348	0.470
136.500	140.715	79.992	19.991	99.906	20.237	5.499	0.484
138.000	141.405	79.992	19.991	99.901	20.237	5.507	0.465
139.500	142.132	79.994	19.990	99.904	20.237	5.476	0.485
141.000	142.939	79.993	19.991	99.901	20.236	5.558	0.527
142.500	143.652	79.994	19.992	99.906	20.231	6.104	0.487
144.000	144.410	79.994	19.992	99.913	20.235	5.703	0.489
145.500	145.157	79.992	19.990	99.909	20.234	5.740	0.497
147.000	145.842	79.993	19.991	99.909	20.237	5.476	0.454
148.500	146.615	79.994	19.991	99.910	20.238	5.429	0.512
150.000	147.340	79.994	19.992	99.906	20.237	5.477	0.492
151.500	148.112	79.995	19.992	99.911	20.234	5.768	0.504
153.000	148.852	79.994	19.992	99.917	20.234	5.740	0.479
154.500	149.625	79.993	19.992	99.910	20.234	5.740	0.508
156.000	150.383	79.994	19.991	99.911	20.235	5.677	0.507
157.500	151.111	79.994	19.992	99.911	20.234	5.749	0.487
159.000	151.893	79.994	19.992	99.904	20.231	6.145	0.513
160.500	152.630	79.993	19.991	99.905	20.233	5.921	0.499
162.000	153.362	79.994	19.992	99.915	20.237	5.459	0.486
163.500	154.112	79.992	19.992	99.913	20.236	5.563	0.505
165.000	154.862	79.994	19.991	99.912	20.237	5.487	0.481
166.500	155.577	79.995	19.992	99.903	20.236	5.613	0.504
168.000	156.340	79.993	19.992	99.888	20.230	6.184	0.495
169.500	157.088	79.994	19.992	99.902	20.238	5.418	0.508
171.000	157.846	79.992	19.990	99.906	20.236	5.628	0.501
172.500	158.590	79.994	19.991	99.897	20.239	5.264	0.484
174.000	159.352	79.994	19.991	99.895	20.237	5.523	0.513
175.500	160.110	79.995	19.992	99.902	20.237	5.434	0.522
177.000	160.866	79.995	19.993	99.904	20.233	5.887	0.479
178.500	161.647	79.994	19.990	99.907	20.237	5.506	0.538
180.000	162.409	79.995	19.994	99.907	20.239	5.307	0.527
181.500	163.132	79.995	19.992	99.915	20.240	5.221	0.492
183.000	163.900	79.995	19.993	99.914	20.234	5.750	0.496
184.500	164.624	79.995	19.993	99.901	20.237	5.531	0.476
186.000	165.428	79.993	19.992	99.894	20.241	5.081	0.529
187.500	166.173	79.995	19.991	99.902	20.234	5.786	0.504
189.000	166.954	79.992	19.992	99.887	20.239	5.310	0.518
190.500	167.640	79.994	19.991	99.879	20.235	5.649	0.464
192.000	168.429	79.994	19.992	99.887	20.239	5.294	0.528
193.500	169.195	79.993	19.992	99.896	20.239	5.247	0.528
195.000	169.955	79.992	19.990	99.885	20.239	5.305	0.496
196.500	170.698	79.993	19.993	99.884	20.237	5.527	0.504
198.000	171.413	79.995	19.991	99.887	20.239	5.244	0.504
199.500	172.235	79.993	19.991	99.892	20.234	5.803	0.544
201.000	172.891	79.995	19.991	99.885	20.236	5.561	0.460
202.500	173.703	79.996	19.991	99.891	20.237	5.479	0.540
204.000	174.461	79.995	19.991	99.900	20.238	5.342	0.507
205.500	175.224	79.996	19.992	99.904	20.240	5.191	0.517
207.000	175.952	79.997	19.993	99.907	20.242	4.978	0.485
208.500	176.724	79.996	19.991	99.906	20.241	5.115	0.504
210.000	177.421	79.994	19.992	99.894	20.241	5.107	0.476
211.500	178.190	79.994	19.994	99.880	20.241	5.082	0.527
213.000	178.933	79.993	19.992	99.891	20.240	5.165	0.499
214.500	179.639	79.993	19.992	99.908	20.244	4.740	0.492
216.000	180.406	79.992	19.993	99.907	20.241	5.064	0.521
217.500	181.164	79.991	19.991	99.905	20.240	5.189	0.528
219.000	181.919	79.993	19.993	99.906	20.238	5.377	0.510
220.500	182.671	79.991	19.992	99.910	20.240	5.169	0.504
222.000	183.421	79.993	19.991	99.910	20.240	5.180	0.507
223.500	184.164	79.993	19.991	99.915	20.240	5.172	0.527
225.001	184.947	79.992	19.991	99.846	20.241	5.068	0.518
226.500	185.710	79.993	19.990	99.847	20.246	4.583	0.480
228.000	186.486	79.993	19.991	99.963	20.239	5.261	0.529
229.500	187.256	79.992	19.991	99.965	20.237	5.468	0.507
231.000	187.950	79.994	19.992	99.907	20.238	5.429	0.452
232.500	188.689	79.994	19.991	99.908	20.236	5.605	0.492
234.000	189.444	79.994	19.992	99.910	20.239	5.283	0.506
235.500	190.169	79.992	19.991	99.909	20.239	5.305	0.479
237.000	190.942	79.994	19.992	99.889	20.240	5.196	0.538
238.500	191.690	79.993	19.992	99.892	20.242	4.931	0.482
240.001	192.459	79.994	19.991	99.908	20.238	5.345	0.509
241.500	193.192	79.993	19.991	99.911	20.236	5.550	0.485
243.000	193.902	79.993	19.990	99.911	20.242	4.943	0.480
244.500	194.618	79.995	19.991	99.912	20.237	5.466	0.474
246.000	195.365	79.992	19.991	99.905	20.237	5.527	0.497
247.500	196.054	79.993	19.991	99.900	20.237	5.490	0.473
249.000	196.825	79.992	19.992	99.910	20.239	5.238	0.534
250.500	197.598	79.992	19.993	99.907	20.240	5.213	0.515
252.000	198.341	79.992	19.991	99.914	20.239	5.289	0.474
253.500	199.063	79.993	19.991	99.934	20.240	5.213	0.488
255.000	199.815	79.994	19.991	99.921	20.241	5.118	0.509
256.500	200.560	79.993	19.991	99.912	20.238	5.430	0.523
258.000	201.317	79.994	19.991	99.908	20.236	5.624	0.505
259.500	202.066	79.996	19.993	99.897	20.239	5.265	0.496
261.000	202.795	79.995	19.992	99.891	20.236	5.535	0.498
262.500	203.491	79.995	19.991	99.908	20.240	5.132	0.498
264.000	204.252	79.996	19.993	99.908	20.236	5.546	0.513
265.500	204.993	79.994	19.991	99.895	20.238	5.406	0.503
267.000	205.767	79.994	19.991	99.917	20.237	5.520	0.522
268.500	206.505	79.995	19.991	99.941	20.235	5.721	0.504
270.000	207.273	79.994	19.992	99.928	20.235	5.657	0.508
271.500	208.036	79.994	19.991	99.914	20.235	5.655	0.528
273.000	208.751	79.993	19.990	99.910	20.234	5.809	0.472
274.500	209.519	79.994	19.993	99.905	20.233	5.853	0.532
276.000	210.248	79.995	19.993	99.902	20.234	5.767	0.509
277.500	210.976	79.994	19.991	99.891	20.236	5.538	0.477
279.000	211.746	79.995	19.992	99.877	20.237	5.445	0.503
280.501	212.463	79.995	19.991	99.880	20.235	5.653	0.470
282.000	213.209	79.995	19.992	99.890	20.236	5.629	0.472
283.501	213.968	79.996	19.991	99.895	20.236	5.610	0.512
285.000	214.675	79.996	19.991	99.887	20.230	6.207	0.465
286.500	215.437	79.997	19.991	99.892	20.236	5.537	0.501
288.000	216.197	79.995	19.991	99.905	20.233	5.921	0.516
289.500	216.948	79.996	19.991	99.899	20.234	5.787	0.517
291.000	217.691	79.995	19.992	99.904	20.237	5.530	0.513
292.500	218.431	79.996	19.991	99.928	20.242	4.981	0.495
294.000	219.214	79.994	19.991	99.941	20.239	5.308	0.514
295.500	219.924	79.994	19.991	99.922	20.235	5.712	0.489
297.000	220.673	79.992	19.991	99.894	20.241	5.079	0.507
298.500	221.383	79.993	19.993	99.899	20.238	5.423	0.487
300.000	222.193	79.994	19.992	99.911	20.238	5.363	0.519
301.500	222.895	79.993	19.992	99.910	20.239	5.293	0.470
303.000	223.719	79.993	19.993	99.910	20.240	5.137	0.552
304.500	224.425	79.993	19.993	99.907	20.240	5.191	0.472
306.000	225.196	79.992	19.992	99.908	20.234	5.826	0.515
307.500	225.964	79.992	19.992	99.915	20.237	5.491	0.520
309.000	226.729	79.994	19.992	99.905	20.238	5.370	0.501
310.500	227.430	79.994	19.991	99.887	20.237	5.501	0.517
312.000	228.261	79.992	19.990	99.888	20.237	5.492	0.566
313.500	229.038	79.995	19.991	99.891	20.236	5.596	0.486
315.000	229.766	79.993	19.990	99.901	20.234	5.775	0.495
316.500	230.498	79.994	19.991	99.911	20.234	5.833	0.495
318.000	231.282	79.993	19.991	99.911	20.236	5.577	0.512
319.500	232.001	79.994	19.990	99.914	20.234	5.765	0.453
321.000	232.777	79.992	19.990	99.902	20.237	5.450	0.510
322.500	233.529	79.993	19.990	99.881	20.229	6.298	0.482
324.000	234.272	79.993	19.991	99.884	20.235	5.704	0.503
325.500	235.023	79.992	19.991	99.889	20.231	6.132	0.484
327.000	235.760	79.990	19.991	99.879	20.232	6.021	0.492
328.500	236.497	79.991	19.991	99.901	20.233	5.913	0.492
330.000	237.257	79.991	19.992	99.907	20.235	5.650	0.488
331.500	237.980	79.992	19.990	99.901	20.229	6.339	0.488
333.000	238.765	79.993	19.992	99.894	20.230	6.237	0.495
334.500	239.495	79.994	19.991	99.923	20.231	6.140	0.499
336.000	240.244	79.994	19.989	99.919	20.231	6.076	0.490
337.500	240.942	79.994	19.992	99.897	20.229	6.313	0.470
339.000	241.758	79.993	19.992	99.901	20.229	6.299	0.527
340.500	242.496	79.993	19.993	99.912	20.232	5.995	0.489
342.000	243.214	79.995	19.991	99.912	20.233	5.928	0.508
343.500	243.978	79.996	19.991	99.906	20.231	6.123	0.526
345.000	244.749	79.996	19.992	99.906	20.227	6.498	0.501
346.500	245.462	79.996	19.993	99.916	20.228	6.372	0.459
348.000	246.230	79.995	19.990	99.910	20.232	6.044	0.530
349.500	246.967	79.995	19.990	99.909	20.231	6.047	0.479
351.000	247.700	79.995	19.990	99.917	20.236	5.605	0.479
352.500	248.472	79.994	19.992	99.922	20.233	5.902	0.511
354.000	249.287	79.994	19.992	99.911	20.234	5.795	0.541
355.500	250.069	79.995	19.992	99.913	20.234	5.769	0.517
357.000	250.817	79.996	19.989	99.915	20.231	6.099	0.494
358.500	251.542	79.995	19.993	99.908	20.238	5.423	0.482
360.000	252.316	79.996	19.993	99.911	20.234	5.784	0.514
361.500	253.065	79.994	19.992	99.915	20.234	5.754	0.497
363.000	253.794	79.994	19.992	99.915	20.234	5.838	0.489
364.500	254.579	79.995	19.991	99.906	20.230	6.151	0.516
366.000	255.342	79.996	19.990	99.891	20.233	5.892	0.530
367.500	256.049	79.995	19.990	99.887	20.232	6.038	0.475
369.000	256.821	79.997	19.991	99.904	20.230	6.152	0.506
370.500	257.551	79.996	19.991	99.910	20.231	6.106	0.481
372.000	258.305	79.994	19.991	99.912	20.233	5.883	0.510
373.500	259.048	79.996	19.991	99.913	20.232	5.958	0.504
375.000	259.795	79.995	19.992	99.915	20.235	5.642	0.472
376.500	260.482	79.994	19.992	99.925	20.231	6.115	0.444
378.000	261.217	79.993	19.992	99.949	20.236	5.577	0.476
379.500	261.995	79.993	19.992	99.937	20.232	5.944	0.538
381.000	262.774	79.991	19.992	99.917	20.233	5.910	0.497
382.500	263.524	79.992	19.992	99.916	20.232	5.983	0.528
384.000	264.252	79.992	19.992	99.918	20.235	5.664	0.474
385.500	264.989	79.992	19.992	99.913	20.228	6.426	0.501
387.000	265.740	79.991	19.992	99.910	20.231	6.123	0.524
388.500	266.567	79.991	19.992	99.912	20.236	5.628	0.542
390.000	267.287	79.992	19.993	99.912	20.237	5.485	0.487
391.500	268.042	79.992	19.994	99.913	20.231	6.092	0.530
393.000	268.756	79.992	19.994	99.914	20.234	5.750	0.476
394.500	269.536	79.991	19.993	99.915	20.233	5.888	0.529
396.000	270.280	79.992	19.991	99.912	20.233	5.867	0.497
397.500	271.013	79.994	19.995	99.919	20.233	5.867	0.486
399.000	271.801	79.995	19.990	99.911	20.228	6.394	0.518
400.500	272.566	79.993	19.990	99.908	20.229	6.263	0.527
402.000	273.318	79.993	19.993	99.908	20.228	6.423	0.494
403.500	274.068	79.991	19.992	99.904	20.233	5.855	0.487
405.000	274.793	79.993	19.992	99.908	20.234	5.793	0.462
406.500	275.553	79.993	19.993	99.895	20.228	6.448	0.503
408.000	276.320	79.992	19.992	99.883	20.230	6.171	0.508
409.500	277.086	79.991	19.990	99.899	20.230	6.196	0.512
411.000	277.818	79.992	19.991	99.910	20.227	6.493	0.474
412.500	278.547	79.992	19.991	99.918	20.229	6.280	0.496
414.000	279.292	79.992	19.991	99.923	20.228	6.423	0.499
415.500	280.041	79.992	19.991	99.917	20.227	6.460	0.520
417.000	280.801	79.994	19.992	99.914	20.227	6.488	0.525
418.500	281.572	79.995	19.993	99.918	20.227	6.523	0.508
420.000	282.326	79.994	19.991	99.914	20.228	6.391	0.488
421.500	283.080	79.994	19.991	99.916	20.225	6.719	0.472
423.000	283.815	79.993	19.991	99.916	20.225	6.741	0.489
424.500	284.568	79.995	19.991	99.922	20.228	6.445	0.475
426.000	285.316	79.993	19.991	99.920	20.225	6.672	0.506
427.500	286.064	79.995	19.991	99.931	20.229	6.300	0.474
429.000	286.855	79.995	19.991	99.919	20.225	6.731	0.521
430.500	287.595	79.994	19.990	99.908	20.222	6.988	0.492
432.000	288.317	79.994	19.989	99.905	20.221	7.115	0.483
433.500	289.123	79.994	19.992	99.909	20.223	6.882	0.534
435.000	289.843	79.994	19.991	99.913	20.227	6.554	0.505
436.500	290.621	79.994	19.989	99.920	20.223	6.898	0.526
438.000	291.374	79.994	19.990	99.921	20.224	6.848	0.494
439.500	292.194	79.994	19.992	99.915	20.227	6.476	0.529
441.000	292.922	79.993	19.990	99.919	20.224	6.761	0.474
442.500	293.663	79.994	19.992	99.926	20.220	7.196	0.482
444.000	294.418	79.995	19.991	99.922	20.225	6.704	0.490
445.500	295.171	79.996	19.992	99.915	20.222	7.045	0.498
447.000	295.963	79.995	19.989	99.914	20.222	7.028	0.500
448.500	296.718	79.995	19.992	99.913	20.218	7.462	0.508
450.000	297.495	79.995	19.992	99.917	20.218	7.406	0.512
451.500	298.276	79.996	19.991	99.916	20.220	7.238	0.507
453.000	299.037	79.995	19.990	99.919	20.213	7.895	0.502
454.500	299.774	79.994	19.991	99.928	20.217	7.490	0.499
456.000	300.507	79.995	19.991	99.934	20.219	7.366	0.482
457.500	301.250	79.995	19.991	99.934	20.221	7.153	0.501
459.000	302.041	79.993	19.991	99.928	20.217	7.481	0.544
460.500	302.802	79.993	19.991	99.925	20.216	7.627	0.500
462.000	303.539	79.994	19.990	99.923	20.220	7.201	0.487
463.500	304.303	79.993	19.990	99.921	20.212	8.080	0.503
465.000	305.027	79.993	19.992	99.925	20.216	7.603	0.492
466.500	305.858	79.993	19.991	99.922	20.215	7.738	0.534
468.000	306.613	79.993	19.992	99.915	20.217	7.570	0.516
469.500	307.362	79.993	19.991	99.922	20.215	7.741	0.481
471.000	308.144	79.992	19.990	99.922	20.219	7.282	0.520
472.500	308.917	79.993	19.992	99.924	20.213	7.942	0.531
474.000	309.657	79.993	19.992	99.921	20.222	7.033	0.520
475.500	310.456	79.992	19.992	99.914	20.217	7.512	0.533
477.000	311.185	79.993	19.993	99.912	20.210	8.276	0.503
478.500	311.971	79.993	19.992	99.916	20.215	7.751	0.519
480.000	312.743	79.992	19.992	99.920	20.215	7.725	0.506
481.500	313.484	79.993	19.992	99.919	20.216	7.665	0.490
483.000	314.293	79.993	19.992	99.916	20.216	7.643	0.523
484.500	315.061	79.993	19.992	99.916	20.215	7.711	0.497
486.000	315.812	79.993	19.991	99.917	20.215	7.730	0.515
487.500	316.558	79.993	19.992	99.917	20.216	7.595	0.514
489.000	317.309	79.994	19.992	99.932	20.211	8.119	0.498
490.500	318.079	79.992	19.992	99.937	20.215	7.727	0.510
492.000	318.837	79.992	19.991	99.921	20.217	7.576	0.510
493.500	319.601	79.992	19.992	99.916	20.217	7.537	0.507
495.000	320.329	79.994	19.991	99.924	20.210	8.245	0.483
496.500	321.169	79.993	19.991	99.922	20.209	8.306	0.548
498.000	321.939	79.993	19.992	99.914	20.218	7.383	0.498
499.500	322.674	79.994	19.991	99.913	20.213	7.979	0.494
501.000	323.448	79.994	19.991	99.917	20.216	7.613	0.526
502.500	324.187	79.994	19.990	99.918	20.215	7.719	0.490
504.000	324.942	79.993	19.992	99.919	20.216	7.680	0.496
505.500	325.722	79.993	19.991	99.920	20.217	7.515	0.511
507.000	326.504	79.994	19.991	99.916	20.215	7.769	0.512
508.500	327.267	79.994	19.991	99.914	20.216	7.621	0.496
510.000	328.029	79.993	19.992	99.916	20.210	8.217	0.500
511.500	328.778	79.994	19.991	99.922	20.213	7.906	0.493
513.000	329.522	79.994	19.992	99.921	20.212	8.085	0.509
514.500	330.315	79.993	19.991	99.919	20.212	8.007	0.540
516.000	331.054	79.992	19.990	99.925	20.213	7.889	0.487
517.500	331.813	79.994	19.990	99.925	20.219	7.330	0.487
519.000	332.581	79.995	19.990	99.917	20.214	7.834	0.483
520.500	333.346	79.995	19.992	99.919	20.210	8.263	0.530
522.000	334.109	79.993	19.990	99.918	20.207	8.588	0.517
523.500	334.845	79.995	19.991	99.918	20.210	8.292	0.488
525.000	335.597	79.993	19.989	99.918	20.210	8.195	0.520
526.500	336.341	79.995	19.990	99.917	20.211	8.123	0.490
528.000	337.094	79.996	19.990	99.916	20.206	8.655	0.503
529.500	337.916	79.997	19.991	99.921	20.208	8.478	0.540
531.000	338.658	79.997	19.989	99.928	20.206	8.626	0.496
532.500	339.384	79.997	19.991	99.933	20.204	8.869	0.486
534.000	340.096	79.995	19.988	99.921	20.202	9.065	0.467
535.500	340.895	79.995	19.991	99.923	20.204	8.878	0.527
537.000	341.688	79.995	19.991	99.936	20.204	8.858	0.538
538.500	342.453	79.994	19.990	99.936	20.200	9.247	0.518
540.000	343.161	79.993	19.992	99.930	20.201	9.141	0.485
541.500	343.958	79.992	19.991	99.923	20.197	9.611	0.528
543.000	344.713	79.994	19.993	99.924	20.196	9.650	0.492
544.500	345.452	79.993	19.991	99.917	20.193	9.992	0.492
546.000	346.178	79.995	19.993	99.920	20.193	9.933	0.485
547.500	346.939	79.994	19.992	99.923	20.189	10.421	0.505
549.000	347.731	79.993	19.992	99.917	20.184	10.945	0.522
550.500	348.514	79.994	19.992	99.919	20.182	11.070	0.538
552.000	349.304	79.995	19.992	99.920	20.187	10.604	0.517
553.500	350.028	79.994	19.992	99.916	20.185	10.796	0.490
555.000	350.770	79.993	19.993	99.924	20.185	10.763	0.481
556.500	351.500	79.994	19.991	99.927	20.182	11.100	0.481
558.000	352.317	79.994	19.992	99.928	20.181	11.196	0.522
559.500	353.092	79.994	19.992	99.944	20.176	11.697	0.505
561.000	353.845	79.994	19.992	99.930	20.177	11.610	0.475
562.500	354.552	79.993	19.992	99.916	20.177	11.622	0.459
564.000	355.334	79.994	19.991	99.924	20.173	12.075	0.510
565.500	356.091	79.992	19.992	99.935	20.168	12.505	0.507
567.000	356.847	79.992	19.992	99.947	20.162	13.183	0.501
568.500	357.627	79.993	19.992	99.953	20.161	13.205	0.515
570.000	358.400	79.992	19.993	99.953	20.158	13.525	0.495
571.500	359.173	79.993	19.992	99.951	20.164	12.909	0.508
573.000	359.901	79.993	19.991	99.939	20.155	13.856	0.508
574.500	360.730	79.994	19.991	99.927	20.159	13.468	0.549
576.000	361.504	79.994	19.991	99.939	20.149	14.503	0.519
577.500	362.184	79.993	19.991	99.945	20.151	14.319	0.452
579.000	362.934	79.992	19.989	99.949	20.154	13.952	0.508
580.500	363.715	79.993	19.992	99.950	20.151	14.298	0.497
582.000	364.476	79.993	19.990	99.950	20.154	13.943	0.527
583.500	365.257	79.994	19.992	99.953	20.145	14.858	0.517
585.000	366.004	79.994	19.990	99.952	20.147	14.734	0.511
586.501	366.766	79.994	19.991	99.930	20.143	15.059	0.506
588.001	367.557	79.995	19.991	99.920	20.139	15.484	0.520
589.500	368.345	79.994	19.991	99.938	20.138	15.593	0.533
591.000	369.047	79.995	19.992	99.939	20.138	15.583	0.472
592.500	369.857	79.993	19.991	99.936	20.134	16.048	0.542
594.000	370.587	79.995	19.992	99.954	20.133	16.164	0.513
595.500	371.385	79.994	19.991	99.954	20.129	16.554	0.535
597.000	372.181	79.995	19.992	99.951	20.132	16.237	0.538
598.500	372.937	79.994	19.991	99.952	20.126	16.842	0.526
600.000	373.736	79.996	19.992	99.949	20.124	17.010	0.519
601.501	374.491	79.994	19.989	99.941	20.128	16.607	0.510
603.000	375.290	79.995	19.991	99.940	20.125	16.919	0.529
604.500	376.053	79.996	19.990	99.943	20.114	18.033	0.522
606.000	376.788	79.996	19.990	99.952	20.120	17.466	0.509
607.500	377.576	79.996	19.990	99.949	20.111	18.396	0.523
609.000	378.332	79.996	19.993	99.948	20.113	18.128	0.500
610.500	379.068	79.996	19.991	99.950	20.102	19.321	0.487
612.000	379.865	79.997	19.990	99.948	20.103	19.138	0.523
613.500	380.668	79.995	19.991	99.960	20.103	19.145	0.524
615.000	381.416	79.995	19.990	99.958	20.106	18.894	0.515
616.500	382.183	79.998	19.990	99.950	20.099	19.606	0.506
618.000	382.991	79.996	19.990	99.951	20.103	19.142	0.535
619.500	383.701	79.995	19.994	99.952	20.101	19.426	0.483
621.000	384.488	79.994	19.993	99.956	20.093	20.167	0.514
622.500	385.260	79.994	19.992	99.965	20.097	19.775	0.532
624.000	386.017	79.993	19.988	99.965	20.094	20.095	0.506
625.500	386.794	79.993	19.992	99.947	20.095	20.033	0.512
627.000	387.543	79.992	19.991	99.949	20.097	19.769	0.485
628.500	388.316	79.994	19.993	99.957	20.095	19.962	0.510
630.000	389.070	79.994	19.992	99.961	20.089	20.601	0.523
631.500	389.870	79.993	19.992	99.958	20.087	20.857	0.538
633.000	390.690	79.993	19.990	99.957	20.088	20.710	0.529
634.500	391.416	79.993	19.991	99.961	20.088	20.671	0.490
636.000	392.194	79.993	19.991	99.961	20.085	21.029	0.513
637.500	393.018	79.994	19.992	99.957	20.083	21.220	0.552
639.000	393.765	79.994	19.991	99.954	20.079	21.596	0.506
640.500	394.522	79.994	19.991	99.954	20.077	21.889	0.532
642.000	395.311	79.993	19.991	99.971	20.080	21.579	0.525
643.500	396.054	79.993	19.992	99.976	20.069	22.701	0.495
645.000	396.822	79.994	19.991	99.959	20.064	23.218	0.498
646.500	397.569	79.993	19.994	99.962	20.053	24.298	0.505
648.000	398.346	79.993	19.991	99.969	20.046	25.048	0.521
649.500	399.130	79.992	19.990	99.981	20.031	26.548	0.533
651.000	399.831	79.991	19.993	99.965	20.028	26.906	0.444
652.500	400.604	79.992	19.991	99.970	20.020	27.706	0.493
654.000	401.372	79.992	19.991	99.989	20.010	28.742	0.485
655.500	402.169	79.992	19.991	99.973	20.003	29.451	0.513
657.000	402.913	79.992	19.992	99.973	19.982	31.540	0.496
658.500	403.640	79.993	19.993	99.988	19.972	32.640	0.488
660.000	404.406	79.992	19.992	100.000	19.965	33.309	0.493
661.500	405.180	79.994	19.994	99.993	19.950	34.878	0.513
663.000	405.882	79.993	19.992	100.000	19.942	35.706	0.477
664.500	406.691	79.994	19.992	100.020	19.930	36.876	0.513
666.000	407.457	79.995	19.992	100.005	19.921	37.826	0.517
667.500	408.206	79.995	19.992	99.990	19.904	39.601	0.486
669.000	408.934	79.996	19.992	100.010	19.891	40.862	0.484
670.500	409.746	79.994	19.991	100.026	19.875	42.528	0.521
672.000	410.478	79.995	19.992	100.025	19.861	44.026	0.476
673.500	411.205	79.995	19.994	100.036	19.844	45.704	0.494
675.000	411.971	79.995	19.992	100.039	19.827	47.512	0.506
676.500	412.723	79.995	19.993	100.045	19.803	49.943	0.520
678.000	413.421	79.996	19.991	100.058	19.779	52.412	0.485
679.500	414.180	79.993	19.990	100.065	19.758	54.598	0.513
681.000	414.913	79.995	19.991	100.089	19.736	56.797	0.511
682.500	415.682	79.993	19.989	100.098	19.709	59.564	0.496
684.000	416.413	79.996	19.991	100.078	19.685	62.062	0.472
685.500	417.199	79.995	19.992	100.075	19.667	63.887	0.518
687.000	417.951	79.995	19.993	100.089	19.643	66.349	0.514
688.500	418.695	79.994	19.991	100.089	19.623	68.438	0.516
690.000	419.442	79.996	19.990	100.112	19.596	71.194	0.491
691.500	420.224	79.995	19.990	100.139	19.564	74.526	0.516
693.000	420.934	79.996	19.990	100.150	19.539	77.035	0.462
694.500	421.689	79.995	19.990	100.156	19.516	79.401	0.493
696.000	422.439	79.996	19.990	100.176	19.490	82.119	0.508
697.500	423.193	79.995	19.990	100.176	19.455	85.660	0.507
699.000	423.931	79.997	19.990	100.166	19.415	89.748	0.491
700.500	424.704	79.996	19.992	100.184	19.360	95.477	0.541
702.000	425.467	79.994	19.991	100.230	19.321	99.540	0.504
703.500	426.196	79.995	19.989	100.236	19.281	103.647	0.514
705.000	426.932	79.993	19.992	100.231	19.246	107.295	0.471
706.500	427.712	79.994	19.991	100.207	19.207	111.331	0.526
708.000	428.456	79.994	19.992	100.215	19.173	114.791	0.508
709.500	429.216	79.992	19.990	100.232	19.135	118.555	0.512
711.000	429.920	79.993	19.992	100.297	19.090	123.190	0.470
712.500	430.693	79.993	19.991	100.356	19.029	129.440	0.499
714.000	431.410	79.992	19.991	100.380	18.949	137.654	0.450
715.500	432.189	79.993	19.993	100.396	18.877	145.186	0.486
717.000	432.911	79.993	19.992	100.432	18.830	150.054	0.499
718.500	433.703	79.993	19.990	100.397	18.794	153.742	0.528
720.000	434.471	79.994	19.991	100.327	18.770	156.243	0.502
721.500	435.222	79.994	19.992	100.274	18.756	157.654	0.504
723.000	435.971	79.994	19.990	100.263	18.741	159.222	0.504
724.500	436.739	79.996	19.992	100.297	18.733	160.096	0.526
726.000	437.457	79.995	19.993	100.386	18.729	160.493	0.489
727.500	438.241	79.993	19.991	100.429	18.714	161.924	0.521
729.000	438.974	79.992	19.991	100.431	18.714	162.006	0.494
730.500	439.772	79.993	19.991	100.421	18.706	162.858	0.537
732.000	440.596	79.992	19.991	100.421	18.701	163.385	0.531
733.500	441.339	79.994	19.992	100.438	18.688	164.666	0.503
735.000	442.103	79.993	19.992	100.452	18.677	165.818	0.520
736.500	442.861	79.993	19.992	100.450	18.665	166.950	0.519
738.000	443.662	79.994	19.991	100.429	18.654	168.163	0.515
739.500	444.392	79.994	19.993	100.422	18.644	169.134	0.494
741.000	445.167	79.993	19.994	100.430	18.640	169.549	0.503
742.500	445.936	79.993	19.991	100.451	18.636	170.004	0.529
744.000	446.729	79.995	19.992	100.463	18.639	169.703	0.518
745.500	447.509	79.993	19.992	100.462	18.637	169.863	0.530
747.000	448.272	79.994	19.992	100.432	18.640	169.529	0.507
748.500	449.026	79.995	19.993	100.420	18.649	168.547	0.515
750.000	449.815	79.996	19.994	100.425	18.666	166.867	0.537
751.500	450.610	79.996	19.991	100.429	18.682	165.117	0.530
753.000	451.372	79.995	19.992	100.430	18.709	162.394	0.516
754.500	452.090	79.995	19.991	100.423	18.734	159.825	0.481
756.000	452.882	79.995	19.990	100.420	18.759	157.175	0.528
757.500	453.633	79.995	19.991	100.408	18.793	153.533	0.514
759.000	454.393	79.996	19.990	100.388	18.828	149.983	0.512
760.500	455.179	79.995	19.991	100.382	18.869	145.832	0.517
762.000	455.949	79.994	19.990	100.367	18.907	141.936	0.510
763.500	456.677	79.994	19.989	100.353	18.953	137.206	0.498
765.000	457.443	79.996	19.990	100.351	18.995	132.759	0.511
766.500	458.240	79.993	19.989	100.322	19.040	128.194	0.527
768.000	459.028	79.994	19.992	100.248	19.090	122.998	0.503
769.500	459.735	79.995	19.991	100.216	19.143	117.541	0.473
771.000	460.501	79.996	19.992	100.265	19.201	111.647	0.496
772.500	461.229	79.996	19.989	100.303	19.257	105.902	0.497
774.000	462.013	79.994	19.991	100.280	19.317	99.706	0.535
775.500	462.766	79.997	19.991	100.201	19.377	93.603	0.509
777.000	463.533	79.998	19.992	100.188	19.442	86.897	0.506
778.500	464.280	79.995	19.991	100.188	19.499	81.038	0.498
780.000	465.071	79.996	19.990	100.168	19.556	75.184	0.523
781.500	465.798	79.996	19.991	100.151	19.604	70.305	0.494
783.000	466.583	79.995	19.989	100.147	19.653	65.290	0.514
784.500	467.311	79.994	19.991	100.132	19.702	60.184	0.464
786.000	468.112	79.995	19.990	100.129	19.741	56.219	0.522
787.500	468.892	79.995	19.992	100.131	19.781	52.142	0.521
789.000	469.650	79.994	19.990	100.115	19.816	48.599	0.519
790.500	470.369	79.994	19.991	100.097	19.843	45.771	0.498
792.000	471.159	79.995	19.991	100.070	19.871	42.923	0.523
793.500	471.878	79.993	19.991	100.037	19.898	40.125	0.482
795.000	472.688	79.995	19.989	99.998	19.922	37.706	0.538
796.500	473.458	79.996	19.990	100.010	19.944	35.415	0.508
798.000	474.217	79.994	19.990	100.022	19.966	33.184	0.518
799.500	475.010	79.995	19.992	100.016	19.987	31.028	0.531
801.000	475.771	79.992	19.990	100.022	20.006	29.076	0.518
802.500	476.550	79.994	19.991	100.006	20.022	27.440	0.536
804.000	477.336	79.994	19.990	100.004	20.036	26.043	0.517
805.500	478.087	79.994	19.991	99.996	20.052	24.404	0.519
807.000	478.872	79.992	19.991	99.976	20.064	23.222	0.502
808.500	479.586	79.994	19.991	99.970	20.069	22.629	0.480
810.000	480.351	79.994	19.992	99.989	20.088	20.673	0.494
811.500	481.166	79.993	19.991	99.988	20.097	19.825	0.541
813.000	481.917	79.995	19.993	99.985	20.115	17.909	0.533
814.500	482.704	79.994	19.992	99.948	20.118	17.673	0.525
816.000	483.455	79.992	19.991	99.922	20.124	17.087	0.499
817.500	484.189	79.994	19.992	99.944	20.135	15.870	0.514
819.000	484.975	79.992	19.992	99.953	20.150	14.408	0.530
820.500	485.703	79.995	19.991	99.953	20.157	13.685	0.470
822.000	486.478	79.993	19.990	99.958	20.158	13.539	0.507
823.500	487.268	79.994	19.991	99.956	20.164	12.994	0.521
825.000	488.046	79.993	19.991	99.952	20.170	12.319	0.495
826.500	488.819	79.993	19.991	99.942	20.169	12.383	0.506
828.000	489.596	79.994	19.990	99.933	20.177	11.565	0.515
829.500	490.358	79.994	19.994	99.925	20.185	10.787	0.498
831.000	491.032	79.994	19.991	99.918	20.187	10.564	0.481
832.500	491.883	79.993	19.992	99.913	20.194	9.870	0.548
834.000	492.645	79.993	19.993	99.915	20.193	9.975	0.495
835.500	493.421	79.994	19.992	99.916	20.197	9.587	0.498
837.000	494.163	79.993	19.993	99.913	20.197	9.519	0.531
838.500	494.946	79.993	19.991	99.909	20.202	9.083	0.536
840.000	495.722	79.995	19.992	99.904	20.201	9.150	0.506
841.500	496.483	79.992	19.990	99.912	20.209	8.347	0.493
843.000	497.214	79.993	19.992	99.912	20.207	8.549	0.476
844.500	498.013	79.994	19.992	99.903	20.208	8.443	0.478
846.000	498.777	79.994	19.991	99.880	20.217	7.567	0.489
847.500	499.528	79.995	19.993	99.891	20.212	8.009	0.527
849.000	500.307	79.996	19.991	99.903	20.211	8.178	0.512
850.500	501.087	79.995	19.991	99.906	20.215	7.696	0.501
852.000	501.758	79.997	19.991	99.908	20.210	8.264	0.474
853.500	502.631	79.997	19.992	99.909	20.212	8.050	0.499
855.000	503.467	79.997	19.991	99.907	20.218	7.401	0.559
856.500	504.108	79.997	19.990	99.906	20.214	7.829	0.532
858.000	504.782	79.997	19.991	99.911	20.216	7.611	0.461
859.500	505.975	79.997	19.991	99.922	20.216	7.637	0.492
861.000	506.680	79.995	19.991	99.919	20.217	7.544	0.356
862.500	507.415	79.996	19.991	99.909	20.222	6.995	0.441
864.000	507.966	79.995	19.990	99.904	20.223	6.944	0.497
865.500	508.467	79.995	19.991	99.891	20.222	7.004	0.174
867.000	509.794	79.995	19.992	99.899	20.218	7.409	0.678
868.500	510.357	79.992	19.990	99.926	20.219	7.288	0.340
870.000	511.099	79.993	19.991	99.945	20.220	7.210	0.463
871.500	511.842	79.993	19.991	99.941	20.224	6.828	0.452
873.000	512.724	79.994	19.991	99.907	20.218	7.373	0.515
874.500	513.452	79.995	19.991	99.875	20.224	6.849	0.463
876.000	514.216	79.995	19.991	99.898	20.221	7.137	0.573
877.500	515.127	79.993	19.992	99.902	20.219	7.289	0.573
879.000	515.821	79.994	19.990	99.881	20.220	7.171	0.490
880.500	516.650	79.994	19.991	99.885	20.222	7.014	0.503
882.000	517.426	79.993	19.992	99.901	20.220	7.171	0.564
883.500	518.278	79.993	19.990	99.909	20.224	6.832	0.549
885.000	519.047	79.996	19.990	99.893	20.221	7.077	0.495
886.500	519.848	79.993	19.991	99.885	20.225	6.714	0.540
888.000	520.667	79.996	19.992	99.892	20.225	6.661	0.523
889.500	521.402	79.995	19.993	99.895	20.223	6.936	0.487
891.000	522.200	79.994	19.992	99.888	20.218	7.372	0.521
892.500	523.018	79.994	19.992	99.896	20.223	6.951	0.529
894.000	523.821	79.994	19.992	99.893	20.221	7.153	0.528
895.500	524.614	79.995	19.992	99.866	20.222	6.966	0.566
897.000	525.405	79.992	19.992	99.867	20.220	7.186	0.540
898.500	526.197	79.993	19.991	99.875	20.223	6.957	0.506
900.000	526.963	79.993	19.992	99.883	20.218	7.408	0.515
901.501	527.755	79.992	19.992	99.886	20.218	7.373	0.554
903.000	528.606	79.994	19.993	99.895	20.224	6.831	0.560
904.500	529.342	79.992	19.990	99.915	20.227	6.456	0.499
906.000	530.131	79.993	19.993	99.914	20.225	6.737	0.503
907.500	530.919	79.993	19.992	99.913	20.226	6.599	0.525
909.000	531.746	79.993	19.991	99.886	20.223	6.910	0.529
910.500	532.534	79.995	19.991	99.875	20.223	6.944	0.539
912.000	533.304	79.998	19.991	99.894	20.220	7.212	0.507
913.500	534.127	79.996	19.992	99.911	20.221	7.091	0.568
915.000	534.921	79.997	19.992	99.910	20.225	6.743	0.539
916.500	535.720	79.995	19.991	99.891	20.222	7.052	0.531
918.001	536.471	79.994	19.991	99.874	20.224	6.773	0.503
919.500	537.235	79.995	19.993	99.872	20.228	6.365	0.517
921.000	538.025	79.994	19.994	99.887	20.228	6.397	0.520
922.500	538.869	79.993	19.992	99.891	20.227	6.458	0.547
924.000	539.617	79.994	19.992	99.876	20.230	6.215	0.509
925.500	540.329	79.994	19.993	99.854	20.225	6.752	0.479
927.000	541.114	79.995	19.993	99.865	20.231	6.075	0.538
928.500	541.895	79.994	19.993	99.881	20.227	6.522	0.531
930.000	542.737	79.995	19.991	99.883	20.226	6.628	0.560
931.500	543.513	79.994	19.991	99.902	20.228	6.410	0.517
933.000	544.253	79.997	19.991	99.900	20.222	6.974	0.502
934.500	545.080	79.998	19.991	99.898	20.227	6.522	0.551
936.000	545.855	79.996	19.990	99.910	20.224	6.810	0.532
937.500	546.637	80.000	19.991	99.902	20.226	6.566	0.519
939.000	547.452	79.998	19.991	99.893	20.220	7.218	0.565
940.500	548.246	79.997	19.991	99.887	20.221	7.093	0.537
942.000	549.040	79.998	19.991	99.893	20.220	7.214	0.529
943.500	549.738	79.996	19.990	99.886	20.222	7.053	0.483
945.000	550.528	79.996	19.990	99.884	20.224	6.848	0.539
946.500	551.310	79.996	19.991	99.894	20.224	6.787	0.522
948.000	552.094	79.992	19.991	99.888	20.223	6.932	0.524
949.500	552.811	79.993	19.990	99.885	20.223	6.956	0.470
951.000	553.581	79.993	19.991	99.887	20.224	6.778	0.525
952.500	554.406	79.994	19.991	99.898	20.221	7.083	0.546
954.000	555.213	80.001	19.992	99.918	20.225	6.741	0.554
955.500	555.930	80.001	19.992	99.912	20.220	7.224	0.493
957.000	556.694	79.994	19.992	99.889	20.222	7.009	0.491
958.500	557.495	79.994	19.992	99.874	20.221	7.161	0.523
960.000	558.264	79.992	19.990	99.885	20.225	6.693	0.517
961.500	559.022	79.994	19.991	99.909	20.225	6.698	0.500
963.000	559.763	79.994	19.991	99.914	20.225	6.675	0.487
964.500	560.531	79.995	19.989	99.910	20.223	6.894	0.484
966.000	561.311	79.995	19.992	99.887	20.226	6.609	0.531
967.500	562.031	79.993	19.990	99.887	20.222	6.990	0.499
969.000	562.833	79.994	19.989	99.904	20.221	7.122	0.521
970.500	563.581	79.994	19.990	99.894	20.221	7.090	0.517
972.000	564.305	79.995	19.990	99.893	20.226	6.583	0.500
973.500	565.109	79.994	19.991	99.893	20.225	6.753	0.562
975.001	565.911	79.992	19.991	99.884	20.224	6.784	0.543
976.500	566.641	79.995	19.992	99.896	20.227	6.459	0.486
978.000	567.411	79.993	19.991	99.910	20.223	6.887	0.507
979.500	568.208	79.993	19.992	99.912	20.226	6.629	0.543
981.000	568.969	79.996	19.992	99.898	20.225	6.717	0.494
982.500	569.731	79.993	19.992	99.884	20.223	6.932	0.520
984.000	570.489	79.993	19.992	99.877	20.223	6.902	0.510
985.500	571.261	79.995	19.994	99.874	20.222	7.017	0.500
987.000	572.028	79.992	19.992	99.873	20.225	6.746	0.525
988.500	572.756	79.996	19.991	99.872	20.223	6.919	0.510
990.000	573.588	79.996	19.992	99.865	20.222	7.019	0.534
991.500	574.396	79.996	19.990	99.867	20.218	7.405	0.530
993.000	575.161	79.995	19.993	99.880	20.222	7.035	0.521
994.500	575.925	79.996	19.992	99.873	20.222	7.034	0.514
996.001	576.709	79.995	19.992	99.858	20.221	7.134	0.523
997.500	577.472	79.997	19.991	99.821	20.222	6.968	0.522
999.001	578.231	79.996	19.993	99.904	20.226	6.639	0.525
1000.500	579.002	79.995	19.991	99.960	20.226	6.561	0.526
1002.000	579.764	79.995	19.991	99.911	20.224	6.779	0.519
1003.500	580.558	79.995	19.992	99.911	20.225	6.664	0.515
1005.000	581.313	79.993	19.993	99.901	20.227	6.461	0.515
1006.500	582.085	79.993	19.992	99.891	20.228	6.447	0.519
1008.000	582.838	79.992	19.992	99.873	20.220	7.197	0.528
1009.500	583.645	79.994	19.993	99.885	20.225	6.712	0.535
1011.000	584.379	79.995	19.992	99.887	20.222	7.002	0.485
1012.500	585.161	79.994	19.992	99.889	20.224	6.767	0.521
1014.000	585.902	79.995	19.992	99.889	20.221	7.137	0.503
1015.500	586.661	79.996	19.991	99.893	20.221	7.131	0.498
1017.000	587.478	79.997	19.992	99.900	20.221	7.125	0.520
1018.500	588.195	79.996	19.992	99.898	20.220	7.174	0.468
1020.000	589.033	79.997	19.992	99.898	20.226	6.652	0.542
1021.500	589.789	79.997	19.991	99.876	20.222	6.978	0.504
1023.000	590.552	79.997	19.991	99.877	20.220	7.252	0.520
1024.500	591.295	79.996	19.990	99.884	20.224	6.816	0.478
1026.000	592.083	79.999	19.991	99.879	20.224	6.815	0.527
1027.500	592.854	79.993	19.990	99.872	20.221	7.093	0.508
1029.000	593.650	79.993	19.990	99.882	20.221	7.113	0.531
1030.500	594.461	79.995	19.991	99.901	20.218	7.449	0.547
1032.000	595.212	79.992	19.991	99.902	20.221	7.078	0.506
1033.500	596.030	79.991	19.990	99.882	20.223	6.934	0.543
1035.000	596.804	79.993	19.991	99.891	20.225	6.683	0.509
1036.500	597.546	79.994	19.991	99.886	20.221	7.074	0.488
1038.000	598.367	79.994	19.991	99.887	20.220	7.237	0.551
1039.500	599.137	79.994	19.991	99.898	20.224	6.837	0.525
1041.000	599.882	79.993	19.991	99.905	20.224	6.816	0.518
1042.500	600.666	79.991	19.991	99.913	20.220	7.257	0.509
1044.000	601.452	79.993	19.991	99.910	20.223	6.914	0.518
1045.500	602.222	79.993	19.991	99.877	20.222	6.978	0.537
1047.000	602.994	79.993	19.992	99.867	20.219	7.310	0.530
1048.500	603.776	79.995	19.991	99.870	20.218	7.434	0.515
1050.001	604.546	79.994	19.991	99.875	20.221	7.154	0.508
1051.501	605.347	79.995	19.992	99.889	20.221	7.159	0.531
1053.000	606.116	79.994	19.991	99.891	20.217	7.480	0.518
1054.500	606.848	79.994	19.991	99.895	20.219	7.332	0.452
1056.000	607.689	79.995	19.991	99.897	20.221	7.137	0.548
1057.500	608.409	79.992	19.992	99.876	20.224	6.823	0.468
1059.000	609.204	79.994	19.992	99.886	20.219	7.304	0.530
1060.501	609.969	79.993	19.991	99.897	20.222	6.963	0.485
1062.000	610.696	79.993	19.991	99.884	20.221	7.142	0.474
1063.500	611.484	79.994	19.992	99.875	20.222	7.050	0.534
1065.000	612.301	79.994	19.992	99.877	20.218	7.458	0.525
1066.500	613.045	79.995	19.992	99.878	20.224	6.759	0.507
1068.000	613.825	79.993	19.991	99.881	20.224	6.784	0.502
1069.500	614.576	79.994	19.992	99.882	20.228	6.443	0.523
1071.000	615.358	79.995	19.993	99.875	20.225	6.699	0.522
1072.500	616.139	79.993	19.992	99.875	20.224	6.791	0.533
1074.000	616.912	79.995	19.992	99.884	20.225	6.731	0.518
1075.500	617.672	79.996	19.991	99.882	20.226	6.591	0.541
1077.000	618.470	79.996	19.991	99.885	20.228	6.443	0.549
1078.500	619.222	79.995	19.991	99.882	20.230	6.210	0.493
1080.000	619.994	79.994	19.990	99.877	20.228	6.401	0.504
1081.500	620.770	79.994	19.991	99.871	20.228	6.448	0.520
1083.000	621.528	79.993	19.990	99.858	20.225	6.669	0.515
1084.500	622.292	79.994	19.991	99.869	20.221	7.159	0.511
1086.000	623.042	79.994	19.991	99.876	20.223	6.907	0.514
1087.500	623.802	79.993	19.990	99.877	20.223	6.882	0.518
1089.000	624.547	79.994	19.991	99.877	20.219	7.360	0.490
1090.500	625.306	79.994	19.991	99.883	20.224	6.769	0.503
1092.001	626.119	79.993	19.991	99.882	20.223	6.867	0.528
1093.501	626.867	79.993	19.991	99.875	20.224	6.770	0.504
1095.000	627.621	79.993	19.992	99.877	20.226	6.644	0.523
1096.500	628.344	79.993	19.991	99.877	20.226	6.596	0.484
1098.000	629.085	79.994	19.991	99.873	20.226	6.655	0.479
1099.500	629.828	79.994	19.991	99.874	20.225	6.694	0.513
1101.000	630.637	79.995	19.989	99.862	20.228	6.370	0.519
1102.500	631.368	79.997	19.993	99.861	20.221	7.080	0.483
1104.001	632.134	79.995	19.992	99.872	20.226	6.621	0.531
1105.501	632.947	79.995	19.992	99.872	20.227	6.481	0.533
1107.000	633.704	79.995	19.991	99.871	20.227	6.470	0.515
1108.500	634.450	79.995	19.992	99.870	20.226	6.615	0.507
1110.000	635.226	79.994	19.992	99.865	20.231	6.092	0.510
1111.501	635.988	79.993	19.991	99.867	20.229	6.317	0.511
1113.000	636.739	79.993	19.990	99.874	20.227	6.485	0.471
1114.500	637.509	79.993	19.990	99.873	20.225	6.661	0.511
1116.000	638.218	79.992	19.991	99.870	20.224	6.789	0.464
1117.500	638.959	79.994	19.991	99.871	20.222	7.003	0.490
1119.000	639.755	79.993	19.991	99.872	20.220	7.208	0.522
1120.500	640.516	79.995	19.991	99.863	20.215	7.714	0.513
1122.000	641.271	79.993	19.991	99.853	20.221	7.095	0.507
1123.500	642.022	79.994	19.992	99.806	20.218	7.381	0.484
1125.000	642.772	79.994	19.991	99.815	20.221	7.070	0.483
1126.500	643.495	79.994	19.992	99.863	20.221	7.073	0.489
1128.000	644.208	79.994	19.992	99.878	20.224	6.830	0.482
1129.500	644.982	79.994	19.991	99.931	20.227	6.491	0.537
1131.000	645.711	79.994	19.991	99.924	20.228	6.353	0.517
1132.500	646.432	79.995	19.991	99.880	20.226	6.635	0.479
1134.000	647.205	79.995	19.991	99.893	20.224	6.840	0.514
1135.500	648.024	79.995	19.992	99.880	20.226	6.557	0.540
1137.000	648.747	79.994	19.991	99.818	20.226	6.613	0.479
1138.500	649.502	79.995	19.991	99.834	20.227	6.471	0.501
1140.000	650.291	79.993	19.992	99.915	20.227	6.486	0.520
1141.500	651.071	79.995	19.991	99.922	20.229	6.251	0.530
1143.000	651.879	79.993	19.991	99.875	20.223	6.906	0.534
1144.500	652.605	79.993	19.991	99.873	20.228	6.390	0.478
1146.000	653.365	79.992	19.991	99.874	20.228	6.437	0.503
1147.500	654.145	79.995	19.992	99.879	20.227	6.467	0.502
1149.000	654.940	79.993	19.991	99.885	20.228	6.380	0.544
1150.500	655.697	79.992	19.990	99.864	20.234	5.821	0.523
1152.000	656.471	79.993	19.991	99.854	20.231	6.095	0.506
1153.500	657.265	79.995	19.992	99.866	20.228	6.377	0.531
1155.000	658.029	79.995	19.992	99.874	20.230	6.231	0.500
1156.500	658.811	79.994	19.992	99.881	20.235	5.734	0.518
1158.000	659.593	79.996	19.992	99.875	20.233	5.896	0.531
1159.500	660.352	79.995	19.991	99.864	20.230	6.231	0.528
1161.000	661.099	79.995	19.992	99.870	20.230	6.212	0.499
1162.500	661.872	79.996	19.992	99.875	20.231	6.070	0.499
1164.001	662.673	79.995	19.992	99.866	20.230	6.188	0.530
1165.500	663.400	79.995	19.991	99.855	20.232	5.941	0.472
1167.000	664.172	79.995	19.992	99.856	20.234	5.765	0.513
1168.500	664.926	79.994	19.991	99.863	20.230	6.154	0.477
1170.001	665.716	79.995	19.991	99.854	20.231	6.126	0.524
1171.501	666.463	79.996	19.992	99.850	20.229	6.266	0.496
1173.000	667.199	79.996	19.991	99.868	20.231	6.095	0.473
1174.500	667.955	79.995	19.990	99.872	20.227	6.498	0.530
1176.000	668.724	79.996	19.991	99.871	20.230	6.196	0.495
1177.500	669.464	79.995	19.992	99.871	20.233	5.871	0.500
1179.000	670.260	79.996	19.991	99.874	20.234	5.813	0.534
1180.500	671.026	79.994	19.991	99.872	20.231	6.143	0.512
1182.000	671.813	79.995	19.992	99.873	20.231	6.123	0.526
1183.500	672.548	79.997	19.991	99.873	20.234	5.757	0.477
1185.000	673.303	79.995	19.991	99.871	20.230	6.206	0.493
1186.500	674.117	79.994	19.992	99.871	20.228	6.379	0.544
1188.000	674.882	79.994	19.991	99.869	20.229	6.311	0.526
1189.500	675.623	79.995	19.992	99.868	20.228	6.420	0.493
1191.000	676.401	79.993	19.992	99.872	20.230	6.154	0.488
1192.500	677.174	79.995	19.993	99.870	20.232	5.983	0.511
1194.000	677.946	79.995	19.992	99.877	20.227	6.510	0.499
1195.500	678.730	79.994	19.992	99.886	20.231	6.098	0.513
1197.000	679.447	79.994	19.991	99.884	20.229	6.317	0.496
1198.500	680.171	79.993	19.992	99.870	20.229	6.253	0.475
1200.000	680.966	79.994	19.991	99.868	20.232	5.992	0.539
1201.500	681.710	79.994	19.992	99.869	20.225	6.674	0.486
1203.001	682.440	79.996	19.991	99.870	20.229	6.258	0.497
1204.500	683.234	79.993	19.992	99.872	20.227	6.468	0.526
1206.000	683.876	79.994	19.990	99.875	20.225	6.731	0.420
1207.500	684.771	79.995	19.991	99.879	20.224	6.806	0.590
1209.000	685.495	79.994	19.991	99.883	20.230	6.151	0.501
1210.500	686.305	79.994	19.991	99.879	20.228	6.358	0.537
1212.000	687.058	79.995	19.991	99.873	20.230	6.235	0.530
1213.500	687.791	79.993	19.992	99.868	20.233	5.919	0.491
1215.000	688.517	79.994	19.992	99.871	20.230	6.146	0.496
1216.500	689.312	79.994	19.991	99.876	20.229	6.250	0.535
1218.000	690.093	79.992	19.990	99.877	20.229	6.255	0.527
1219.500	690.832	79.994	19.991	99.875	20.230	6.211	0.494
1221.000	691.625	79.992	19.991	99.869	20.230	6.158	0.514
1222.500	692.397	79.992	19.991	99.871	20.230	6.200	0.518
1224.000	693.156	79.993	19.991	99.873	20.227	6.490	0.497
1225.500	693.930	79.994	19.992	99.876	20.230	6.185	0.515
1227.000	694.729	79.994	19.991	99.883	20.228	6.415	0.536
1228.500	695.474	79.994	19.992	99.885	20.226	6.554	0.495
1230.000	696.255	79.993	19.991	99.881	20.228	6.398	0.515
1231.500	697.033	79.994	19.991	99.892	20.225	6.663	0.512
1233.000	697.782	79.994	19.991	99.888	20.227	6.496	0.492
1234.500	698.532	79.995	19.991	99.875	20.227	6.490	0.503
1236.000	699.311	79.996	19.990	99.880	20.226	6.605	0.526
1237.500	700.059	79.996	19.991	99.883	20.231	6.070	0.495
1239.000	700.826	79.995	19.991	99.873	20.229	6.276	0.497
1240.500	701.599	79.996	19.991	99.872	20.231	6.066	0.509
1242.000	702.327	79.995	19.991	99.874	20.231	6.075	0.476
1243.500	703.100	79.995	19.991	99.875	20.234	5.802	0.525
1245.000	703.876	79.995	19.991	99.874	20.231	6.079	0.515
1246.500	704.627	79.995	19.991	99.873	20.233	5.841	0.499
1248.000	705.365	79.995	19.992	99.873	20.231	6.142	0.492
1249.501	706.126	79.995	19.992	99.872	20.229	6.341	0.508
1251.000	706.881	79.995	19.992	99.809	20.230	6.196	0.508
1252.500	707.662	79.994	19.992	99.822	20.231	6.081	0.516
1254.000	708.461	79.994	19.993	99.925	20.236	5.583	0.532
1255.500	709.247	79.996	19.991	99.916	20.233	5.869	0.541
1257.000	710.022	79.995	19.991	99.870	20.233	5.930	0.518
1258.500	710.829	79.996	19.991	99.861	20.234	5.813	0.551
1260.000	711.571	79.995	19.992	99.857	20.233	5.903	0.502
1261.500	712.327	79.996	19.991	99.865	20.234	5.797	0.517
1263.000	713.074	79.996	19.991	99.866	20.228	6.401	0.506
1264.500	713.846	79.997	19.991	99.868	20.228	6.364	0.516
1266.000	714.661	79.997	19.991	99.873	20.230	6.151	0.538
1267.500	715.432	79.996	19.990	99.870	20.230	6.244	0.476
1269.000	716.197	79.995	19.991	99.876	20.232	6.008	0.508
1270.500	716.930	79.994	19.991	99.888	20.233	5.885	0.509
1272.001	717.729	79.995	19.991	99.891	20.229	6.287	0.526
1273.500	718.526	79.994	19.992	99.880	20.228	6.395	0.551
1275.000	719.257	79.992	19.993	99.872	20.229	6.269	0.489
1276.501	720.008	79.992	19.991	99.873	20.228	6.443	0.510
1278.000	720.753	79.992	19.992	99.873	20.231	6.135	0.509
1279.500	721.497	79.993	19.991	99.871	20.229	6.251	0.493
1281.000	722.281	79.994	19.992	99.860	20.229	6.342	0.525
1282.500	723.071	79.992	19.992	99.843	20.228	6.451	0.554
1284.001	723.830	79.993	19.992	99.863	20.231	6.135	0.506
1285.500	724.581	79.992	19.991	99.879	20.228	6.373	0.492
1287.001	725.317	79.993	19.992	99.877	20.227	6.527	0.491
1288.501	726.061	79.994	19.991	99.879	20.227	6.549	0.484
1290.001	726.861	79.993	19.993	99.893	20.228	6.380	0.541
1291.500	727.643	79.995	19.991	99.881	20.225	6.733	0.521
1293.000	728.405	79.993	19.991	99.876	20.226	6.632	0.503
1294.500	729.203	79.992	19.991	99.873	20.230	6.220	0.537
1296.000	729.937	79.994	19.991	99.872	20.228	6.367	0.487
1297.500	730.721	79.994	19.991	99.878	20.227	6.552	0.522
1299.000	731.453	79.994	19.990	99.877	20.223	6.873	0.480
1300.500	732.242	79.994	19.990	99.864	20.224	6.795	0.505
1302.000	732.995	79.992	19.990	99.863	20.225	6.700	0.511
1303.500	733.772	79.995	19.990	99.870	20.225	6.711	0.518
1305.000	734.497	79.994	19.991	99.856	20.228	6.434	0.488
1306.500	735.285	79.993	19.991	99.864	20.228	6.415	0.490
1308.000	736.052	79.993	19.991	99.876	20.228	6.353	0.506
1309.500	736.799	79.993	19.991	99.873	20.223	6.887	0.488
1311.001	737.561	79.993	19.992	99.873	20.227	6.509	0.509
1312.500	738.338	79.995	19.993	99.870	20.223	6.862	0.517
1314.000	739.079	79.994	19.992	99.871	20.229	6.336	0.501
1315.500	739.857	79.995	19.991	99.875	20.226	6.616	0.527
1317.000	740.584	79.996	19.991	99.875	20.224	6.784	0.488
1318.500	741.444	79.995	19.991	99.872	20.224	6.820	0.559
1320.001	742.161	79.996	19.991	99.870	20.219	7.359	0.508
1321.501	742.945	79.995	19.992	99.870	20.223	6.922	0.537
1322.501	743.441	79.995	19.992	99.872	20.226	6.590	0.485