File: 01_Data/Gypsum_Wallboard_Paper/STA/N2/3K_min/Gypsum_Wallboard_Paper_STA_N2_3KData_220217_R1.csv
##Temp./Â°C,Time/min,Mass loss(subtr.)/mg,DSC(subtr.)/(mW/mg),Sensit./(uV/mW)
50.166,10.01667,-0.03115,0.02850336,1.04799
50.866,11.14207,-0.03280719,0.05118393,1.04768
51.566,11.53622,-0.0326034,0.06854219,1.04737
52.266,11.8658,-0.0336782,0.07702957,1.04706
52.966,12.16123,-0.03386006,0.08158003,1.04675
53.666,12.44009,-0.03495899,0.08754107,1.04644
54.366,12.71075,-0.03368757,0.09119968,1.04614
55.066,12.97582,-0.03486127,0.0940806,1.04583
55.766,13.23671,-0.03680227,0.09478134,1.04552
56.466,13.4945,-0.0363141,0.09973077,1.04521
57.166,13.75,-0.03499,0.0990531,1.0449
57.866,14.0042,-0.03467443,0.10252,1.0446
58.566,14.2551,-0.03631657,0.10547,1.04429
59.266,14.5038,-0.03959989,0.10779,1.04398
59.966,14.7506,-0.0389499,0.10846,1.04368
60.666,14.99585,-0.03894092,0.11037,1.04337
61.366,15.2398,-0.03894202,0.11185,1.04306
62.066,15.48337,-0.03828999,0.11313,1.04276
62.766,15.72553,-0.03962423,0.11424,1.04245
63.466,15.96729,-0.04092012,0.11508,1.04215
64.166,16.20683,-0.04224576,0.11801,1.04184
64.866,16.44605,-0.04222991,0.11874,1.04154
65.566,16.68413,-0.04289,0.12141,1.04123
66.266,16.92227,-0.04352626,0.12125,1.04093
66.966,17.15987,-0.04353991,0.12165,1.04062
67.666,17.39661,-0.04510521,0.12359,1.04032
68.366,17.632,-0.04595106,0.12862,1.04002
69.066,17.86719,-0.04848335,0.12901,1.03971
69.766,18.10151,-0.04880373,0.13057,1.03941
70.466,18.33705,-0.04750026,0.13119,1.03911
71.166,18.57248,-0.04991053,0.13046,1.03881
71.866,18.8098,-0.04979799,0.13017,1.0385
72.566,19.0469,-0.05145252,0.1284,1.0382
73.266,19.28104,-0.05417055,0.1278,1.0379
73.966,19.51511,-0.0540754,0.13008,1.0376
74.666,19.74897,-0.05632317,0.13242,1.0373
75.366,19.98469,-0.05539246,0.13135,1.03699
76.066,20.2186,-0.05802003,0.1337,1.03669
76.766,20.4533,-0.05936503,0.1326,1.03639
77.466,20.68736,-0.05552663,0.13249,1.03609
78.166,20.92176,-0.05703967,0.13317,1.03579
78.866,21.15634,-0.05990837,0.13262,1.03549
79.566,21.39122,-0.06135227,0.13108,1.03519
80.266,21.62639,-0.06294859,0.1294,1.03489
80.966,21.86149,-0.0609723,0.12895,1.03459
81.666,22.09621,-0.06286649,0.1279,1.0343
82.366,22.33066,-0.06296024,0.12783,1.034
83.066,22.56478,-0.06328447,0.12656,1.0337
83.766,22.79961,-0.06460987,0.12685,1.0334
84.466,23.03298,-0.06658144,0.1265,1.0331
85.166,23.26763,-0.0659316,0.12574,1.0328
85.866,23.50122,-0.06723965,0.12694,1.03251
86.566,23.73545,-0.06458484,0.12775,1.03221
87.266,23.96827,-0.0659234,0.12653,1.03191
87.966,24.2011,-0.06722653,0.12533,1.03161
88.666,24.43436,-0.06986998,0.12391,1.03132
89.366,24.66781,-0.07094615,0.12365,1.03102
90.066,24.9025,-0.07086249,0.123,1.03072
90.766,25.13587,-0.07119002,0.1243,1.03043
91.466,25.3685,-0.07250756,0.1232,1.03013
92.166,25.60004,-0.07317,0.12175,1.02983
92.866,25.83132,-0.07516134,0.12212,1.02954
93.566,26.06281,-0.07465432,0.12124,1.02924
94.266,26.29513,-0.07382012,0.11919,1.02895
94.966,26.528,-0.07514,0.12115,1.02865
95.666,26.7615,-0.07636322,0.1189,1.02836
96.366,26.9933,-0.07610176,0.11683,1.02806
97.066,27.22465,-0.07755353,0.1192,1.02777
97.766,27.45624,-0.08176236,0.12101,1.02747
98.466,27.6885,-0.07752166,0.12137,1.02718
99.166,27.92103,-0.07745357,0.11978,1.02689
99.866,28.1529,-0.07754734,0.1174,1.02659
100.566,28.3845,-0.07868358,0.11639,1.0263
101.266,28.61695,-0.080301,0.11679,1.02601
101.966,28.8496,-0.08028859,0.11685,1.02571
102.666,29.0815,-0.08028999,0.11733,1.02542
103.366,29.3132,-0.08020664,0.11611,1.02513
104.066,29.5448,-0.0826249,0.11881,1.02483
104.766,29.7774,-0.08124299,0.11543,1.02454
105.466,30.00944,-0.08007732,0.11234,1.02425
106.166,30.2408,-0.08212472,0.11343,1.02396
106.866,30.47004,-0.08610144,0.11473,1.02367
107.566,30.69957,-0.08631725,0.11413,1.02337
108.266,30.92907,-0.08337705,0.11281,1.02308
108.966,31.16198,-0.08336981,0.11208,1.02279
109.666,31.39351,-0.08633033,0.11148,1.0225
110.366,31.62567,-0.08501391,0.11213,1.02221
111.066,31.85616,-0.08732723,0.11264,1.02192
111.766,32.08706,-0.0833936,0.11265,1.02163
112.466,32.3183,-0.08337434,0.11131,1.02134
113.166,32.54955,-0.08567002,0.10975,1.02105
113.866,32.78118,-0.08895866,0.10981,1.02076
114.566,33.0128,-0.084237,0.11065,1.02047
115.266,33.24518,-0.0869533,0.10916,1.02018
115.966,33.4775,-0.08730999,0.10872,1.01989
116.666,33.70955,-0.08731249,0.11026,1.0196
117.366,33.94127,-0.08570647,0.10953,1.01931
118.066,34.17177,-0.0882465,0.10875,1.01902
118.766,34.4024,-0.08613282,0.10935,1.01873
119.466,34.63231,-0.08631895,0.11011,1.01844
120.166,34.86335,-0.08965139,0.10833,1.01815
120.866,35.0945,-0.08829997,0.1072,1.01786
121.566,35.32529,-0.08684399,0.10716,1.01757
122.266,35.5568,-0.08749626,0.10801,1.01728
122.966,35.7875,-0.08587974,0.10689,1.017
123.666,36.0192,-0.0879661,0.11023,1.01671
124.366,36.25077,-0.08667667,0.10998,1.01642
125.066,36.48198,-0.08532513,0.11019,1.01613
125.766,36.7128,-0.08697482,0.11062,1.01584
126.466,36.9422,-0.08830047,0.10939,1.01556
127.166,37.17159,-0.08836575,0.11074,1.01527
127.866,37.40082,-0.0869576,0.10841,1.01498
128.566,37.63108,-0.08690385,0.10567,1.01469
129.266,37.86138,-0.08889009,0.10822,1.01441
129.966,38.09202,-0.08826343,0.10805,1.01412
130.666,38.32204,-0.08831199,0.11077,1.01383
131.366,38.55205,-0.08961989,0.10999,1.01355
132.066,38.78218,-0.08830015,0.1085,1.01326
132.766,39.01252,-0.08710491,0.10961,1.01297
133.466,39.2433,-0.0897225,0.11183,1.01269
134.166,39.47464,-0.08959514,0.11001,1.0124
134.866,39.7059,-0.08804637,0.10927,1.01211
135.566,39.93711,-0.08696908,0.10994,1.01183
136.266,40.16772,-0.08939994,0.11022,1.01154
136.966,40.39846,-0.08937663,0.11238,1.01126
137.666,40.62778,-0.09068172,0.11372,1.01097
138.366,40.85613,-0.08838317,0.11284,1.01069
139.066,41.08424,-0.08809692,0.11262,1.0104
139.766,41.31236,-0.09083961,0.1103,1.01012
140.466,41.5419,-0.08855512,0.11056,1.00983
141.166,41.77134,-0.08982997,0.11016,1.00954
141.866,42.0019,-0.09115232,0.11249,1.00926
142.566,42.2292,-0.08988313,0.11132,1.00897
143.266,42.45913,-0.0885044,0.11317,1.00869
143.966,42.68843,-0.09251564,0.11421,1.0084
144.666,42.92006,-0.09367825,0.1138,1.00812
145.366,43.14812,-0.09149722,0.11435,1.00784
146.066,43.37567,-0.09279758,0.11523,1.00755
146.766,43.60398,-0.09246002,0.11258,1.00727
147.466,43.8339,-0.09049997,0.1143,1.00698
148.166,44.0642,-0.09129758,0.11612,1.0067
148.866,44.29306,-0.09210908,0.11474,1.00641
149.566,44.5209,-0.0928,0.11782,1.00613
150.266,44.74735,-0.0918012,0.11746,1.00585
150.966,44.97353,-0.09542528,0.11651,1.00556
151.666,45.2005,-0.092496,0.11375,1.00528
152.366,45.4296,-0.09279937,0.11705,1.00499
153.066,45.6617,-0.09550635,0.11597,1.00471
153.766,45.89393,-0.09295742,0.11659,1.00443
154.466,46.1248,-0.09074284,0.118,1.00414
155.166,46.35376,-0.08941735,0.11754,1.00386
155.866,46.58316,-0.09279096,0.1181,1.00358
156.566,46.81375,-0.09313001,0.11844,1.00329
157.266,47.04388,-0.09055044,0.11966,1.00301
157.966,47.2736,-0.09057561,0.11901,1.00273
158.666,47.5021,-0.09430156,0.11987,1.00244
159.366,47.7312,-0.09312983,0.12046,1.00216
160.066,47.9592,-0.09312981,0.12067,1.00188
160.766,48.1881,-0.09049376,0.11843,1.00159
161.466,48.41644,-0.09148078,0.1174,1.00131
162.166,48.646,-0.09174172,0.11817,1.00103
162.866,48.87465,-0.09249356,0.11981,1.00075
163.566,49.10327,-0.09379349,0.1228,1.00046
164.266,49.33084,-0.09171534,0.12123,1.00018
164.966,49.55845,-0.09179321,0.12501,0.9999
165.666,49.78642,-0.09279868,0.12384,0.99961
166.366,50.01512,-0.09478057,0.12578,0.99933
167.066,50.24432,-0.09513402,0.12464,0.99905
167.766,50.47345,-0.0974956,0.12455,0.99877
168.466,50.70257,-0.09478282,0.12446,0.99848
169.166,50.9315,-0.09413404,0.12421,0.9982
169.866,51.15988,-0.09512791,0.12479,0.99792
170.566,51.388,-0.09378006,0.12513,0.99764
171.266,51.61561,-0.09183952,0.12586,0.99735
171.966,51.84389,-0.09363488,0.1272,0.99707
172.666,52.0723,-0.09572964,0.1271,0.99679
173.366,52.3016,-0.09574613,0.12601,0.99651
174.066,52.5304,-0.09443999,0.12556,0.99622
174.766,52.7586,-0.09392732,0.12918,0.99594
175.466,52.9862,-0.09363289,0.1282,0.99566
176.166,53.2127,-0.09870369,0.129,0.99538
176.866,53.4395,-0.09668052,0.13192,0.9951
177.566,53.66647,-0.09608999,0.13007,0.99481
178.266,53.8935,-0.09739617,0.13059,0.99453
178.966,54.12164,-0.09666278,0.12922,0.99425
179.666,54.3501,-0.09905013,0.13054,0.99397
180.366,54.57884,-0.09774514,0.12868,0.99368
181.066,54.8073,-0.09375886,0.12902,0.9934
181.766,55.0344,-0.09498708,0.1286,0.99312
182.466,55.26294,-0.09492889,0.12924,0.99284
183.166,55.4905,-0.09352329,0.12983,0.99256
183.866,55.7195,-0.09740865,0.1314,0.99227
184.566,55.9476,-0.09737861,0.1316,0.99199
185.266,56.17567,-0.09955816,0.13061,0.99171
185.966,56.4033,-0.09883836,0.12995,0.99143
186.666,56.631,-0.0961607,0.13182,0.99114
187.366,56.85889,-0.09585172,0.13028,0.99086
188.066,57.0877,-0.09680689,0.13141,0.99058
188.766,57.31691,-0.10058,0.13176,0.9903
189.466,57.54531,-0.10157,0.13256,0.99002
190.166,57.7735,-0.10025,0.13222,0.98973
190.866,58.00088,-0.09894871,0.1295,0.98945
191.566,58.22935,-0.09917794,0.13194,0.98917
192.266,58.45743,-0.10158,0.13256,0.98889
192.966,58.68668,-0.10158,0.13169,0.9886
193.666,58.9157,-0.10092,0.13228,0.98832
194.366,59.1445,-0.1,0.13153,0.98804
195.066,59.37155,-0.10126,0.13242,0.98776
195.766,59.599,-0.10237,0.13283,0.98747
196.466,59.8256,-0.10102,0.13534,0.98719
197.166,60.0533,-0.10169,0.13351,0.98691
197.866,60.28043,-0.10479,0.13683,0.98663
198.566,60.50857,-0.10609,0.13409,0.98634
199.266,60.73685,-0.10655,0.13775,0.98606
199.966,60.96512,-0.10521,0.1348,0.98578
200.666,61.19336,-0.10521,0.13519,0.9855
201.366,61.4209,-0.10787,0.13636,0.98521
202.066,61.64861,-0.1079,0.13413,0.98493
202.766,61.8764,-0.10546,0.13699,0.98465
203.466,62.1047,-0.10823,0.13457,0.98436
204.166,62.3332,-0.10893,0.13495,0.98408
204.866,62.5618,-0.11159,0.1378,0.9838
205.566,62.78994,-0.10965,0.13635,0.98352
206.266,63.0181,-0.11155,0.13665,0.98323
206.966,63.24566,-0.10893,0.13724,0.98295
207.666,63.47309,-0.11096,0.13798,0.98267
208.366,63.69989,-0.11089,0.13597,0.98238
209.066,63.9268,-0.11225,0.1383,0.9821
209.766,64.15392,-0.1154,0.13652,0.98182
210.466,64.38123,-0.11492,0.13653,0.98153
211.166,64.6081,-0.11353,0.13745,0.98125
211.866,64.8353,-0.11455,0.13873,0.98096
212.566,65.063,-0.11901,0.14092,0.98068
213.266,65.29139,-0.11575,0.13841,0.9804
213.966,65.5197,-0.11636,0.13756,0.98011
214.666,65.74723,-0.11781,0.13876,0.97983
215.366,65.97373,-0.11847,0.14105,0.97954
216.066,66.2004,-0.12107,0.14182,0.97926
216.766,66.42907,-0.12081,0.14099,0.97898
217.466,66.65859,-0.12275,0.14219,0.97869
218.166,66.8879,-0.12275,0.14157,0.97841
218.866,67.1151,-0.1234,0.14245,0.97812
219.566,67.34227,-0.12242,0.14194,0.97784
220.266,67.56936,-0.1255,0.14367,0.97755
220.966,67.7966,-0.12613,0.14379,0.97727
221.666,68.02396,-0.12895,0.14275,0.97698
222.366,68.2518,-0.13041,0.14376,0.9767
223.066,68.47962,-0.13156,0.1435,0.97641
223.766,68.70765,-0.1339,0.14507,0.97613
224.466,68.93509,-0.13576,0.14542,0.97584
225.166,69.16297,-0.13037,0.14353,0.97556
225.866,69.39025,-0.13804,0.14632,0.97527
226.566,69.6177,-0.13744,0.14988,0.97499
227.266,69.845,-0.14016,0.14905,0.9747
227.966,70.0724,-0.14104,0.15011,0.97441
228.666,70.29951,-0.14103,0.15095,0.97413
229.366,70.52667,-0.14356,0.15094,0.97384
230.066,70.7539,-0.14435,0.15239,0.97356
230.766,70.98156,-0.14567,0.15343,0.97327
231.466,71.20874,-0.14421,0.14925,0.97298
232.166,71.43629,-0.15241,0.15073,0.9727
232.866,71.66366,-0.15225,0.15059,0.97241
233.566,71.89068,-0.15288,0.15546,0.97212
234.266,72.11704,-0.15391,0.15194,0.97183
234.966,72.34376,-0.15927,0.15186,0.97155
235.666,72.57083,-0.16071,0.15245,0.97126
236.366,72.7974,-0.1606,0.15483,0.97097
237.066,73.0235,-0.16191,0.15522,0.97069
237.766,73.24974,-0.16322,0.15589,0.9704
238.466,73.47737,-0.16717,0.15592,0.97011
239.166,73.7059,-0.17003,0.15753,0.96982
239.866,73.93474,-0.17083,0.15673,0.96953
240.566,74.16524,-0.17649,0.15804,0.96924
241.266,74.39625,-0.17797,0.15493,0.96896
241.966,74.62695,-0.17653,0.15799,0.96867
242.666,74.8561,-0.18448,0.16011,0.96838
243.366,75.08488,-0.18443,0.15921,0.96809
244.066,75.313,-0.18284,0.16177,0.9678
244.766,75.54053,-0.18974,0.16362,0.96751
245.466,75.76682,-0.19624,0.16188,0.96722
246.166,75.99293,-0.1998,0.16346,0.96693
246.866,76.2199,-0.19885,0.16061,0.96664
247.566,76.44771,-0.20155,0.16281,0.96635
248.266,76.6757,-0.21063,0.16406,0.96606
248.966,76.90363,-0.21125,0.16683,0.96577
249.666,77.13096,-0.21389,0.16016,0.96548
250.366,77.3591,-0.2163,0.16441,0.96519
251.066,77.58712,-0.22096,0.16321,0.9649
251.766,77.8152,-0.22342,0.16422,0.96461
252.466,78.04248,-0.22612,0.16061,0.96432
253.166,78.26984,-0.23277,0.16085,0.96403
253.866,78.49731,-0.23672,0.16234,0.96374
254.566,78.72522,-0.23884,0.15972,0.96344
255.266,78.95225,-0.24897,0.16214,0.96315
255.966,79.17916,-0.24889,0.16226,0.96286
256.666,79.40644,-0.25645,0.15987,0.96257
257.366,79.6339,-0.26042,0.15977,0.96228
258.066,79.86054,-0.26441,0.16034,0.96198
258.766,80.08843,-0.2697,0.16347,0.96169
259.466,80.31573,-0.27656,0.16559,0.9614
260.166,80.5431,-0.28199,0.16881,0.9611
260.866,80.77024,-0.28992,0.16967,0.96081
261.566,80.99855,-0.29383,0.16916,0.96052
262.266,81.22683,-0.30053,0.16899,0.96022
262.966,81.4555,-0.30409,0.16801,0.95993
263.666,81.68378,-0.30967,0.17091,0.95963
264.366,81.9132,-0.32009,0.17265,0.95934
265.066,82.141,-0.32526,0.17385,0.95904
265.766,82.36828,-0.33067,0.17239,0.95875
266.466,82.59538,-0.33976,0.17627,0.95845
267.166,82.82303,-0.34573,0.17721,0.95816
267.866,83.05164,-0.35053,0.17663,0.95786
268.566,83.2805,-0.3571,0.1801,0.95757
269.266,83.50796,-0.36763,0.17857,0.95727
269.966,83.73524,-0.37479,0.18295,0.95698
270.666,83.96174,-0.38279,0.18416,0.95668
271.366,84.18854,-0.39063,0.1878,0.95638
272.066,84.41465,-0.40139,0.18628,0.95609
272.766,84.64177,-0.40711,0.18832,0.95579
273.466,84.86964,-0.4157,0.19098,0.95549
274.166,85.09823,-0.4247,0.19009,0.95519
274.866,85.32642,-0.43503,0.18887,0.9549
275.566,85.5543,-0.44284,0.19071,0.9546
276.266,85.78295,-0.45278,0.18877,0.9543
276.966,86.01252,-0.46137,0.18879,0.954
277.666,86.2422,-0.47084,0.19207,0.9537
278.366,86.47022,-0.48366,0.19533,0.9534
279.066,86.6985,-0.48928,0.19556,0.9531
279.766,86.9268,-0.4972,0.1945,0.9528
280.466,87.1564,-0.5118,0.19214,0.9525
281.166,87.38534,-0.52127,0.19438,0.9522
281.866,87.61398,-0.53455,0.19831,0.9519
282.566,87.84188,-0.54406,0.20117,0.9516
283.266,88.06956,-0.55806,0.2032,0.9513
283.966,88.29777,-0.5688,0.20241,0.951
284.666,88.5258,-0.57957,0.20455,0.9507
285.366,88.7536,-0.59367,0.20406,0.9504
286.066,88.98052,-0.60536,0.20566,0.9501
286.766,89.20799,-0.613,0.2058,0.94979
287.466,89.43468,-0.62687,0.20658,0.94949
288.166,89.6618,-0.64416,0.20917,0.94919
288.866,89.88798,-0.65062,0.21167,0.94889
289.566,90.11534,-0.66811,0.21259,0.94858
290.266,90.34268,-0.67969,0.21624,0.94828
290.966,90.57025,-0.69309,0.21749,0.94797
291.666,90.79728,-0.70499,0.21663,0.94767
292.366,91.02417,-0.72083,0.2191,0.94737
293.066,91.2512,-0.73905,0.22159,0.94706
293.766,91.47966,-0.75025,0.22194,0.94676
294.466,91.70939,-0.76479,0.22091,0.94645
295.166,91.93937,-0.77407,0.22269,0.94615
295.866,92.16819,-0.79233,0.22563,0.94584
296.566,92.39458,-0.80914,0.22541,0.94553
297.266,92.62213,-0.82364,0.22931,0.94523
297.966,92.8485,-0.84139,0.23008,0.94492
298.666,93.0753,-0.8555,0.23533,0.94461
299.366,93.30094,-0.87121,0.23438,0.94431
300.066,93.5271,-0.88727,0.23584,0.944
300.766,93.75437,-0.90239,0.23833,0.94369
301.466,93.98206,-0.92002,0.23845,0.94338
302.166,94.21128,-0.93851,0.23846,0.94307
302.866,94.4406,-0.95312,0.2385,0.94276
303.566,94.67132,-0.96903,0.24022,0.94245
304.266,94.901,-0.98979,0.24194,0.94215
304.966,95.13083,-1.00776,0.24386,0.94184
305.666,95.35983,-1.03,0.2464,0.94153
306.366,95.5883,-1.04177,0.24861,0.94122
307.066,95.8163,-1.06349,0.24935,0.9409
307.766,96.0434,-1.084,0.25198,0.94059
308.466,96.27036,-1.10579,0.25188,0.94028
309.166,96.498,-1.12297,0.25688,0.93997
309.866,96.7261,-1.14467,0.25441,0.93966
310.566,96.95435,-1.16593,0.25768,0.93935
311.266,97.18306,-1.18437,0.25873,0.93903
311.966,97.41157,-1.20768,0.26498,0.93872
312.666,97.64062,-1.22717,0.2673,0.93841
313.366,97.86836,-1.25088,0.2684,0.93809
314.066,98.0958,-1.27288,0.27276,0.93778
314.766,98.32293,-1.29517,0.27362,0.93746
315.466,98.55063,-1.31124,0.27688,0.93715
316.166,98.7786,-1.33976,0.27656,0.93683
316.866,99.0073,-1.36102,0.27852,0.93652
317.566,99.2361,-1.38917,0.28289,0.9362
318.266,99.46535,-1.41472,0.28439,0.93589
318.966,99.69459,-1.44004,0.28316,0.93557
319.666,99.92313,-1.46629,0.2877,0.93525
320.366,100.152,-1.49197,0.28939,0.93494
321.066,100.38,-1.51743,0.29137,0.93462
321.766,100.609,-1.54383,0.2984,0.9343
322.466,100.837,-1.56967,0.30202,0.93398
323.166,101.066,-1.59615,0.30542,0.93366
323.866,101.294,-1.626,0.30676,0.93335
324.566,101.523,-1.65225,0.31034,0.93303
325.266,101.752,-1.68331,0.31295,0.93271
325.966,101.982,-1.71485,0.31578,0.93239
326.666,102.211,-1.7404,0.31659,0.93207
327.366,102.4409,-1.77009,0.31635,0.93175
328.066,102.671,-1.80798,0.32168,0.93142
328.766,102.9,-1.83346,0.32424,0.9311
329.466,103.13,-1.86648,0.32696,0.93078
330.166,103.358,-1.89585,0.32917,0.93046
330.866,103.587,-1.92927,0.32752,0.93014
331.566,103.816,-1.96106,0.33051,0.92981
332.266,104.045,-1.99355,0.32826,0.92949
332.966,104.275,-2.02884,0.3263,0.92917
333.666,104.504,-2.06123,0.32669,0.92884
334.366,104.732,-2.09142,0.32249,0.92852
335.066,104.959,-2.12223,0.32405,0.92819
335.766,105.187,-2.15686,0.32122,0.92787
336.466,105.416,-2.18783,0.3149,0.92754
337.166,105.645,-2.21965,0.31442,0.92721
337.866,105.8742,-2.25084,0.30855,0.92689
338.566,106.104,-2.28043,0.29793,0.92656
339.266,106.333,-2.31127,0.29499,0.92623
339.966,106.562,-2.33996,0.28823,0.92591
340.666,106.791,-2.36715,0.28091,0.92558
341.366,107.02,-2.39437,0.27199,0.92525
342.066,107.251,-2.41865,0.26083,0.92492
342.766,107.481,-2.44545,0.25191,0.92459
343.466,107.712,-2.47235,0.24088,0.92426
344.166,107.942,-2.49721,0.22867,0.92393
344.866,108.17,-2.51248,0.21619,0.9236
345.566,108.399,-2.5322,0.20493,0.92327
346.266,108.627,-2.55028,0.1934,0.92294
346.966,108.857,-2.56322,0.17775,0.92261
347.666,109.0865,-2.5834,0.16704,0.92227
348.366,109.318,-2.59917,0.15889,0.92194
349.066,109.548,-2.60977,0.14761,0.92161
349.766,109.776,-2.62014,0.13971,0.92128
350.466,110.003,-2.63181,0.13364,0.92094
351.166,110.231,-2.63668,0.12579,0.92061
351.866,110.46,-2.64764,0.1171,0.92027
352.566,110.688,-2.65702,0.11015,0.91994
353.266,110.916,-2.66208,0.10491,0.9196
353.966,111.144,-2.66513,0.10009,0.91927
354.666,111.373,-2.66918,0.09186727,0.91893
355.366,111.603,-2.67617,0.09133457,0.91859
356.066,111.834,-2.68225,0.08812384,0.91826
356.766,112.064,-2.68354,0.08821279,0.91792
357.466,112.293,-2.68896,0.0840757,0.91758
358.166,112.523,-2.69297,0.08217348,0.91724
358.866,112.7529,-2.69495,0.08262912,0.9169
359.566,112.982,-2.69872,0.08273213,0.91656
360.266,113.212,-2.69875,0.07788602,0.91622
360.966,113.442,-2.70194,0.07757968,0.91588
361.666,113.673,-2.70731,0.07796048,0.91554
362.366,113.903,-2.70734,0.07730648,0.9152
363.066,114.131,-2.71594,0.07781207,0.91486
363.766,114.36,-2.71342,0.07528852,0.91452
364.466,114.588,-2.71651,0.07739372,0.91417
365.166,114.817,-2.71999,0.0780929,0.91383
365.866,115.046,-2.71999,0.07794835,0.91349
366.566,115.276,-2.72276,0.07557467,0.91314
367.266,115.506,-2.72263,0.074994,0.9128
367.966,115.736,-2.72528,0.07560198,0.91245
368.666,115.966,-2.72788,0.07467412,0.91211
369.366,116.197,-2.73328,0.07371203,0.91176
370.066,116.428,-2.73359,0.07067218,0.91142
370.766,116.66,-2.73393,0.06919791,0.91107
371.466,116.891,-2.73593,0.07148991,0.91072
372.166,117.122,-2.73981,0.07080291,0.91037
372.866,117.3518,-2.74019,0.07118554,0.91003
373.566,117.583,-2.74294,0.07146206,0.90968
374.266,117.813,-2.74552,0.07184001,0.90933
374.966,118.042,-2.74697,0.07240613,0.90898
375.666,118.271,-2.74932,0.07435282,0.90863
376.366,118.5,-2.75334,0.07329205,0.90828
377.066,118.73,-2.7516,0.07283404,0.90793
377.766,118.96,-2.75434,0.0710629,0.90758
378.466,119.192,-2.75738,0.06899564,0.90722
379.166,119.424,-2.76223,0.07068836,0.90687
379.866,119.656,-2.76237,0.07000422,0.90652
380.566,119.888,-2.7613,0.06924415,0.90617
381.266,120.12,-2.76495,0.06757093,0.90581
381.966,120.351,-2.76762,0.0693771,0.90546
382.666,120.581,-2.76989,0.07031777,0.9051
383.366,120.81,-2.77155,0.06813789,0.90475
384.066,121.039,-2.77434,0.06960629,0.90439
384.766,121.268,-2.77552,0.0705489,0.90404
385.466,121.496,-2.77788,0.07061488,0.90368
386.166,121.724,-2.77942,0.06849564,0.90332
386.866,121.953,-2.78338,0.06979697,0.90296
387.566,122.182,-2.78342,0.06989217,0.90261
388.266,122.412,-2.78507,0.06850128,0.90225
388.966,122.642,-2.78702,0.06912918,0.90189
389.666,122.872,-2.78861,0.06898084,0.90153
390.366,123.101,-2.79094,0.07015043,0.90117
391.066,123.331,-2.79384,0.0693025,0.90081
391.766,123.5606,-2.79393,0.07006976,0.90044
392.466,123.7915,-2.79788,0.07073587,0.90008
393.166,124.0218,-2.79879,0.07121716,0.89972
393.866,124.253,-2.80178,0.06820165,0.89936
394.566,124.4829,-2.8004,0.06854693,0.89899
395.266,124.714,-2.80336,0.06921344,0.89863
395.966,124.946,-2.80444,0.06928721,0.89827
396.666,125.178,-2.80747,0.06895511,0.8979
397.366,125.4079,-2.81049,0.06788148,0.89754
398.066,125.638,-2.81049,0.06994427,0.89717
398.766,125.867,-2.81314,0.07208649,0.8968
399.466,126.098,-2.81323,0.07120566,0.89644
400.166,126.329,-2.81313,0.07048824,0.89607
400.866,126.56,-2.81851,0.07008489,0.8957
401.566,126.7914,-2.81979,0.07084852,0.89533
402.266,127.022,-2.82103,0.07320297,0.89496
402.966,127.253,-2.82233,0.07112157,0.89459
403.666,127.484,-2.8197,0.06983125,0.89422
404.366,127.715,-2.82845,0.07267676,0.89385
405.066,127.9458,-2.82988,0.0725935,0.89348
405.766,128.178,-2.82991,0.07515144,0.89311
406.466,128.409,-2.83373,0.07476009,0.89274
407.166,128.639,-2.83197,0.07282801,0.89236
407.866,128.87,-2.83086,0.07342182,0.89199
408.566,129.101,-2.83615,0.07350496,0.89162
409.266,129.332,-2.83947,0.07583828,0.89124
409.966,129.563,-2.84208,0.07224836,0.89087
410.666,129.795,-2.83977,0.07579502,0.89049
411.366,130.027,-2.84037,0.07522334,0.89012
412.066,130.258,-2.84373,0.07501855,0.88974
412.766,130.487,-2.84372,0.07482025,0.88936
413.466,130.716,-2.84373,0.07701353,0.88899
414.166,130.946,-2.84978,0.07667491,0.88861
414.866,131.179,-2.85063,0.07359903,0.88823
415.566,131.412,-2.85259,0.07311965,0.88785
416.266,131.645,-2.85231,0.07504824,0.88747
416.966,131.8779,-2.85374,0.07309996,0.88709
417.666,132.111,-2.85348,0.07520094,0.88671
418.366,132.3434,-2.85635,0.076316,0.88633
419.066,132.574,-2.86218,0.07580526,0.88594
419.766,132.805,-2.86248,0.07625314,0.88556
420.466,133.035,-2.86379,0.07886365,0.88518
421.166,133.265,-2.86291,0.0785736,0.8848
421.866,133.495,-2.8655,0.07719998,0.88441
422.566,133.726,-2.86803,0.07828764,0.88403
423.266,133.957,-2.86907,0.07944184,0.88364
423.966,134.189,-2.8677,0.0752562,0.88325
424.666,134.4198,-2.86942,0.07986793,0.88287
425.366,134.651,-2.87202,0.07744389,0.88248
426.066,134.883,-2.87462,0.08068947,0.88209
426.766,135.114,-2.87598,0.07773928,0.88171
427.466,135.346,-2.87646,0.07952548,0.88132
428.166,135.578,-2.88057,0.08121686,0.88093
428.866,135.81,-2.88001,0.07699647,0.88054
429.566,136.042,-2.87993,0.07684154,0.88015
430.266,136.275,-2.88189,0.07495954,0.87976
430.966,136.5087,-2.88385,0.07684314,0.87936
431.666,136.742,-2.8865,0.07645039,0.87897
432.366,136.973,-2.88777,0.07465649,0.87858
433.066,137.203,-2.88574,0.07554874,0.87819
433.766,137.432,-2.88652,0.07528013,0.87779
434.466,137.661,-2.89009,0.07630523,0.8774
435.166,137.891,-2.89008,0.08053286,0.877
435.866,138.1208,-2.89212,0.07770536,0.87661
436.566,138.351,-2.89404,0.07785194,0.87621
437.266,138.583,-2.8967,0.08037157,0.87581
437.966,138.815,-2.89543,0.07805557,0.87542
438.666,139.047,-2.89675,0.08021734,0.87502
439.366,139.279,-2.90019,0.07798112,0.87462
440.066,139.51,-2.89703,0.0791722,0.87422
440.766,139.742,-2.90058,0.07724841,0.87382
441.466,139.976,-2.90269,0.07648901,0.87342
442.166,140.21,-2.90419,0.07349524,0.87302
442.866,140.445,-2.90398,0.07389545,0.87262
443.566,140.68,-2.90663,0.07637666,0.87222
444.266,140.914,-2.90658,0.07180883,0.87181
444.966,141.147,-2.90915,0.0767359,0.87141
445.666,141.38,-2.91052,0.07683208,0.87101
446.366,141.611,-2.91058,0.07565896,0.8706
447.066,141.843,-2.91185,0.07722657,0.8702
447.766,142.0755,-2.91047,0.0768695,0.86979
448.466,142.308,-2.91266,0.07386349,0.86939
449.166,142.539,-2.91205,0.07728864,0.86898
449.866,142.77,-2.91436,0.07493132,0.86857
450.566,143.002,-2.91502,0.07598046,0.86816
451.266,143.234,-2.91704,0.07686515,0.86775
451.966,143.466,-2.91832,0.07699643,0.86735
452.666,143.699,-2.91864,0.07347281,0.86694
453.366,143.932,-2.92094,0.0747101,0.86653
454.066,144.1642,-2.92124,0.07777862,0.86611
454.766,144.3966,-2.91995,0.07935588,0.8657
455.466,144.629,-2.92391,0.0800788,0.86529
456.166,144.861,-2.92212,0.08179548,0.86488
456.866,145.092,-2.92494,0.08058751,0.86446
457.566,145.324,-2.92511,0.08005759,0.86405
458.266,145.555,-2.92488,0.08194151,0.86364
458.966,145.785,-2.92486,0.08209504,0.86322
459.666,146.016,-2.92588,0.08601965,0.8628
460.366,146.247,-2.92818,0.08043255,0.86239
461.066,146.477,-2.92944,0.08264868,0.86197
461.766,146.7079,-2.92881,0.08404276,0.86155
462.466,146.94,-2.93065,0.07987784,0.86113
463.166,147.173,-2.92953,0.08424847,0.86072
463.866,147.407,-2.92937,0.07824002,0.8603
464.566,147.6407,-2.93143,0.07968273,0.85988
465.266,147.874,-2.93143,0.08095413,0.85946
465.966,148.107,-2.93611,0.08600478,0.85903
466.666,148.339,-2.93977,0.08175224,0.85861
467.366,148.57,-2.93698,0.08300475,0.85819
468.066,148.801,-2.93772,0.08310449,0.85777
468.766,149.033,-2.94102,0.08209723,0.85734
469.466,149.265,-2.93839,0.07990014,0.85692
470.166,149.497,-2.93835,0.08155051,0.85649
470.866,149.73,-2.94354,0.08145695,0.85607
471.566,149.964,-2.94496,0.08120459,0.85564
472.266,150.198,-2.94168,0.08054852,0.85521
472.966,150.431,-2.943,0.08048709,0.85479
473.666,150.664,-2.94168,0.08144967,0.85436
474.366,150.897,-2.94563,0.07789968,0.85393
475.066,151.127,-2.94548,0.08169828,0.8535
475.766,151.3574,-2.94826,0.08202429,0.85307
476.466,151.587,-2.95105,0.08332235,0.85264
477.166,151.818,-2.94841,0.08257569,0.85221
477.866,152.049,-2.94968,0.08313847,0.85178
478.566,152.28,-2.95032,0.08313249,0.85134
479.266,152.514,-2.95001,0.08105647,0.85091
479.966,152.748,-2.95396,0.07739455,0.85048
480.666,152.983,-2.95133,0.07565549,0.85004
481.366,153.216,-2.95133,0.07720504,0.84961
482.066,153.4474,-2.95333,0.07951938,0.84917
482.766,153.679,-2.95265,0.07680718,0.84873
483.466,153.913,-2.95144,0.07555268,0.8483
484.166,154.146,-2.95297,0.07189119,0.84786
484.866,154.38,-2.95426,0.06900341,0.84742
485.566,154.614,-2.95803,0.06377596,0.84698
486.266,154.848,-2.95574,0.05944637,0.84654
486.966,155.081,-2.95716,0.05831896,0.8461
487.666,155.313,-2.9557,0.05441925,0.84566
488.366,155.547,-2.95847,0.04913556,0.84522
489.066,155.7805,-2.95845,0.04869581,0.84478
489.766,156.014,-2.95944,0.04921482,0.84434
490.466,156.248,-2.96085,0.04539084,0.84389
491.166,156.482,-2.96209,0.04645534,0.84345
491.866,156.715,-2.96204,0.04750611,0.843
492.566,156.948,-2.96474,0.04662298,0.84256
493.266,157.181,-2.96399,0.04184606,0.84211
493.966,157.413,-2.96305,0.04340359,0.84167
494.666,157.644,-2.96298,0.04354671,0.84122
495.366,157.875,-2.96615,0.04467296,0.84077
496.066,158.109,-2.96457,0.04331888,0.84032
496.766,158.342,-2.96701,0.04251142,0.83987
497.466,158.577,-2.96517,0.04310684,0.83942
498.166,158.811,-2.96635,0.0395397,0.83897
498.866,159.045,-2.96833,0.04317103,0.83852
499.566,159.2788,-2.96817,0.04024277,0.83807
500.266,159.512,-2.96899,0.04198533,0.83762
500.966,159.745,-2.96721,0.03875852,0.83716
501.666,159.977,-2.96947,0.04045945,0.83671
502.366,160.209,-2.97203,0.04303148,0.83626
503.066,160.441,-2.97216,0.0417087,0.8358
503.766,160.676,-2.97281,0.04169307,0.83534
504.466,160.9113,-2.97269,0.04237561,0.83489
505.166,161.1465,-2.97565,0.04311918,0.83443
505.866,161.381,-2.97502,0.0445248,0.83397
506.566,161.615,-2.97635,0.04189371,0.83352
507.266,161.8484,-2.97634,0.04134062,0.83306
507.966,162.082,-2.97495,0.04138567,0.8326
508.666,162.316,-2.97767,0.04100952,0.83214
509.366,162.549,-2.97635,0.03982645,0.83168
510.066,162.78,-2.97602,0.04071764,0.83121
510.766,163.012,-2.97865,0.04138127,0.83075
511.466,163.244,-2.98035,0.04250909,0.83029
512.166,163.4773,-2.98144,0.04014575,0.82983
512.866,163.71,-2.97732,0.04217438,0.82936
513.566,163.943,-2.97868,0.04122918,0.8289
514.266,164.175,-2.98128,0.04339002,0.82843
514.966,164.408,-2.98127,0.04196265,0.82797
515.666,164.64,-2.98256,0.04308683,0.8275
516.366,164.872,-2.98259,0.04380938,0.82703
517.066,165.105,-2.9826,0.04321346,0.82656
517.766,165.339,-2.98387,0.04360699,0.8261
518.466,165.572,-2.98395,0.04175285,0.82563
519.166,165.806,-2.98519,0.04596368,0.82516
519.866,166.04,-2.98786,0.04493386,0.82469
520.566,166.273,-2.99057,0.04234476,0.82421
521.266,166.507,-2.98379,0.04403057,0.82374
521.966,166.74,-2.98285,0.04162972,0.82327
522.666,166.973,-2.98654,0.04311274,0.8228
523.366,167.206,-2.98822,0.04495673,0.82232
524.066,167.441,-2.98882,0.0455326,0.82185
524.766,167.676,-2.98998,0.04746088,0.82137
525.466,167.911,-2.99069,0.04622586,0.8209
526.166,168.146,-2.98998,0.04895233,0.82042
526.866,168.381,-2.99162,0.04481762,0.81994
527.566,168.616,-2.99027,0.04590052,0.81946
528.266,168.849,-2.99159,0.04642334,0.81899
528.966,169.0818,-2.99159,0.04658421,0.81851
529.666,169.314,-2.99267,0.04855705,0.81803
530.366,169.546,-2.99402,0.04510139,0.81755
531.066,169.779,-2.99147,0.04771193,0.81707
531.766,170.012,-2.99197,0.04832915,0.81658
532.466,170.246,-2.99663,0.05170385,0.8161
533.166,170.481,-2.99659,0.05096714,0.81562
533.866,170.715,-2.9942,0.05117894,0.81513
534.566,170.9497,-2.99685,0.05396291,0.81465
535.266,171.1832,-2.99652,0.05211327,0.81416
535.966,171.417,-2.99682,0.05253571,0.81368
536.666,171.6509,-2.99591,0.051018,0.81319
537.366,171.886,-2.9996,0.05204851,0.8127
538.066,172.121,-2.99961,0.05385808,0.81222
538.766,172.357,-2.99805,0.04857946,0.81173
539.466,172.591,-2.99902,0.05215839,0.81124
540.166,172.825,-3.00123,0.05384923,0.81075
540.866,173.059,-3.00188,0.05258996,0.81026
541.566,173.292,-3.00058,0.0511083,0.80977
542.266,173.525,-3.0013,0.0557646,0.80928
542.966,173.759,-3.00375,0.0535379,0.80878
543.666,173.994,-3.00453,0.05406192,0.80829
544.366,174.228,-3.00385,0.05131851,0.8078
545.066,174.463,-3.00198,0.05123647,0.8073
545.766,174.697,-3.00453,0.05361836,0.80681
546.466,174.93,-3.00469,0.05183738,0.80631
547.166,175.162,-3.00381,0.05394226,0.80581
547.866,175.394,-3.00373,0.05200731,0.80532
548.566,175.628,-3.00517,0.05383254,0.80482
549.266,175.864,-3.00649,0.05545362,0.80432
549.966,176.1,-3.00782,0.0560947,0.80382
550.666,176.336,-3.00703,0.05461894,0.80332
551.366,176.572,-3.00785,0.05013497,0.80282
552.066,176.8067,-3.00881,0.0512041,0.80232
552.766,177.042,-3.01012,0.05188158,0.80182
553.466,177.277,-3.01012,0.05440645,0.80132
554.166,177.512,-3.01138,0.05235131,0.80081
554.866,177.746,-3.01151,0.05233626,0.80031
555.566,177.979,-3.01144,0.05344593,0.79981
556.266,178.212,-3.01269,0.05879996,0.7993
556.966,178.444,-3.01139,0.05675596,0.7988
557.666,178.678,-3.01235,0.05646573,0.79829
558.366,178.913,-3.01363,0.05553739,0.79778
559.066,179.1476,-3.013,0.05761526,0.79727
559.766,179.382,-3.01695,0.05695511,0.79677
560.466,179.616,-3.01725,0.05920301,0.79626
561.166,179.85,-3.01725,0.05879959,0.79575
561.866,180.084,-3.01429,0.0568934,0.79524
562.566,180.317,-3.01561,0.05861689,0.79473
563.266,180.551,-3.01933,0.05923512,0.79421
563.966,180.787,-3.0167,0.05741582,0.7937
564.666,181.024,-3.01944,0.06037871,0.79319
565.366,181.258,-3.01674,0.05754472,0.79267
566.066,181.491,-3.01788,0.06088931,0.79216
566.766,181.723,-3.01796,0.05818292,0.79165
567.466,181.957,-3.01806,0.06010998,0.79113
568.166,182.191,-3.01802,0.05911153,0.79061
568.866,182.426,-3.02065,0.06119478,0.7901
569.566,182.662,-3.01965,0.06076044,0.78958
570.266,182.899,-3.02368,0.06026662,0.78906
570.966,183.134,-3.02037,0.06187333,0.78854
571.666,183.37,-3.0246,0.0607567,0.78802
572.366,183.6052,-3.02265,0.05872456,0.7875
573.066,183.84,-3.01952,0.05846345,0.78698
573.766,184.076,-3.02526,0.05800729,0.78646
574.466,184.312,-3.02663,0.05811005,0.78594
575.166,184.547,-3.02515,0.05924723,0.78541
575.866,184.781,-3.02353,0.06234462,0.78489
576.566,185.0164,-3.02394,0.06065392,0.78437
577.266,185.251,-3.02526,0.06080263,0.78384
577.966,185.487,-3.02625,0.06163566,0.78332
578.666,185.722,-3.02626,0.06345845,0.78279
579.366,185.9579,-3.02726,0.06488469,0.78226
580.066,186.193,-3.02624,0.06456768,0.78174
580.766,186.427,-3.02923,0.06762692,0.78121
581.466,186.661,-3.02821,0.06580758,0.78068
582.166,186.895,-3.02747,0.06750029,0.78015
582.866,187.13,-3.03217,0.06831829,0.77962
583.566,187.364,-3.03082,0.07008659,0.77909
584.266,187.597,-3.02953,0.0684901,0.77856
584.966,187.831,-3.03207,0.07011608,0.77802
585.666,188.066,-3.0325,0.06931229,0.77749
586.366,188.304,-3.03243,0.06793571,0.77696
587.066,188.54,-3.03477,0.0673804,0.77642
587.766,188.777,-3.03122,0.06723942,0.77589
588.466,189.012,-3.03415,0.06849371,0.77535
589.166,189.247,-3.03788,0.07003533,0.77482
589.866,189.48,-3.0362,0.07366475,0.77428
590.566,189.712,-3.03773,0.06973921,0.77374
591.266,189.946,-3.03854,0.07494945,0.77321
591.966,190.18,-3.03481,0.0706119,0.77267
592.666,190.414,-3.03612,0.07399343,0.77213
593.366,190.649,-3.03707,0.07732979,0.77159
594.066,190.884,-3.03872,0.07196317,0.77105
594.766,191.119,-3.03776,0.07856977,0.77051
595.466,191.354,-3.04155,0.07740789,0.76996
596.166,191.59,-3.04435,0.07500689,0.76942
596.866,191.825,-3.04447,0.07391484,0.76888
597.566,192.061,-3.0417,0.07552374,0.76833
598.266,192.297,-3.04093,0.07748622,0.76779
598.966,192.532,-3.04416,0.07895296,0.76724
599.666,192.767,-3.04477,0.07791218,0.7667
600.366,193.002,-3.04462,0.08009891,0.76615
601.066,193.238,-3.04576,0.07892708,0.7656
601.766,193.473,-3.04511,0.07875345,0.76506
602.466,193.707,-3.04643,0.08181652,0.76451
603.166,193.943,-3.04643,0.08179631,0.76396
603.866,194.179,-3.04643,0.08139676,0.76341
604.566,194.415,-3.04642,0.08540625,0.76286
605.266,194.651,-3.04905,0.08719617,0.76231
605.966,194.8852,-3.04783,0.08337818,0.76176
606.666,195.12,-3.05038,0.08428792,0.7612
607.366,195.354,-3.05169,0.08439167,0.76065
608.066,195.588,-3.05037,0.08705855,0.7601
608.766,195.821,-3.05034,0.08657688,0.75954
609.466,196.056,-3.05432,0.08853001,0.75899
610.166,196.29,-3.05691,0.09005055,0.75843
610.866,196.524,-3.05568,0.09143064,0.75788
611.566,196.759,-3.05713,0.09082764,0.75732
612.266,196.993,-3.05966,0.08877259,0.75676
612.966,197.228,-3.05696,0.09149806,0.75621
613.666,197.461,-3.05696,0.09207087,0.75565
614.366,197.696,-3.05855,0.09148583,0.75509
615.066,197.932,-3.06025,0.09100368,0.75453
615.766,198.169,-3.06288,0.08720151,0.75397
616.466,198.404,-3.06286,0.09065203,0.75341
617.166,198.641,-3.0627,0.09016723,0.75284
617.866,198.877,-3.06431,0.08826585,0.75228
618.566,199.113,-3.06321,0.08834752,0.75172
619.266,199.347,-3.06463,0.0872991,0.75115
619.966,199.581,-3.06242,0.08863103,0.75059
620.666,199.8136,-3.06517,0.08873857,0.75002
621.366,200.048,-3.06461,0.09301533,0.74946
622.066,200.282,-3.06946,0.09662218,0.74889
622.766,200.517,-3.06946,0.08974266,0.74833
623.466,200.751,-3.06873,0.09113061,0.74776
624.166,200.986,-3.06847,0.09395232,0.74719
624.866,201.219,-3.0665,0.0934752,0.74662
625.566,201.455,-3.07061,0.09306401,0.74605
626.266,201.691,-3.07062,0.0922127,0.74548
626.966,201.929,-3.07091,0.09163135,0.74491
627.666,202.1662,-3.07089,0.08789249,0.74434
628.366,202.402,-3.07355,0.09185206,0.74377
629.066,202.638,-3.0712,0.09003886,0.74319
629.766,202.873,-3.07391,0.08892697,0.74262
630.466,203.109,-3.07484,0.088905,0.74205
631.166,203.346,-3.07355,0.08661201,0.74147
631.866,203.582,-3.07484,0.08644876,0.7409
632.566,203.817,-3.07615,0.08662646,0.74032
633.266,204.051,-3.07747,0.08367867,0.73975
633.966,204.286,-3.07637,0.08229166,0.73917
634.666,204.521,-3.07626,0.08346246,0.73859
635.366,204.756,-3.07759,0.07776947,0.73801
636.066,204.991,-3.07838,0.08017673,0.73743
636.766,205.226,-3.07867,0.08393216,0.73686
637.466,205.462,-3.0798,0.08071006,0.73627
638.166,205.697,-3.07923,0.08021536,0.73569
638.866,205.933,-3.07825,0.08000705,0.73511
639.566,206.17,-3.08083,0.0849742,0.73453
640.266,206.407,-3.0768,0.08027433,0.73395
640.966,206.644,-3.08087,0.07834336,0.73337
641.666,206.882,-3.08185,0.07679844,0.73278
642.366,207.119,-3.08082,0.08030576,0.7322
643.066,207.355,-3.08459,0.08076429,0.73161
643.766,207.59,-3.08362,0.08254628,0.73103
644.466,207.828,-3.08368,0.08039863,0.73044
645.166,208.065,-3.08368,0.08131763,0.72985
645.866,208.302,-3.08362,0.08522904,0.72927
646.566,208.538,-3.08426,0.08460519,0.72868
647.266,208.774,-3.08426,0.08525024,0.72809
647.966,209.01,-3.08594,0.08970075,0.7275
648.666,209.245,-3.08461,0.08988929,0.72691
649.366,209.479,-3.08624,0.09205396,0.72632
650.066,209.714,-3.0861,0.09040718,0.72573
650.766,209.949,-3.08756,0.08902424,0.72514
651.466,210.184,-3.08888,0.08617687,0.72455
652.166,210.419,-3.09015,0.0937512,0.72395
652.866,210.653,-3.08848,0.09163902,0.72336
653.566,210.888,-3.08887,0.09206937,0.72277
654.266,211.1226,-3.08894,0.08618545,0.72217
654.966,211.358,-3.0889,0.0939826,0.72158
655.666,211.592,-3.09119,0.08836386,0.72098
656.366,211.8259,-3.09089,0.08755855,0.72038
657.066,212.06,-3.08958,0.09054986,0.71979
657.766,212.294,-3.08925,0.09186847,0.71919
658.466,212.53,-3.09266,0.08782381,0.71859
659.166,212.768,-3.09483,0.09137166,0.71799
659.866,213.006,-3.09189,0.08883089,0.71739
660.566,213.244,-3.09216,0.0889515,0.71679
661.266,213.482,-3.09226,0.08859338,0.71619
661.966,213.72,-3.09688,0.08893829,0.71559
662.666,213.958,-3.09578,0.09225958,0.71499
663.366,214.195,-3.09392,0.08946735,0.71439
664.066,214.433,-3.09414,0.08736323,0.71378
664.766,214.669,-3.09481,0.08392517,0.71318
665.466,214.906,-3.0961,0.08641397,0.71258
666.166,215.1409,-3.09513,0.08837806,0.71197
666.866,215.375,-3.09447,0.08942965,0.71137
667.566,215.608,-3.09471,0.09141588,0.71076
668.266,215.842,-3.09748,0.093897,0.71016
668.966,216.077,-3.09762,0.09022162,0.70955
669.666,216.312,-3.09743,0.09260763,0.70894
670.366,216.549,-3.09876,0.09259301,0.70833
671.066,216.786,-3.09875,0.08843898,0.70772
671.766,217.023,-3.10072,0.09284137,0.70712
672.466,217.26,-3.1011,0.09168972,0.70651
673.166,217.496,-3.0994,0.08728895,0.70589
673.866,217.733,-3.10171,0.09100175,0.70528
674.566,217.969,-3.10237,0.09117606,0.70467
675.266,218.206,-3.1021,0.08955641,0.70406
675.966,218.442,-3.09973,0.09061735,0.70345
676.666,218.6787,-3.10059,0.08869097,0.70283
677.366,218.915,-3.10335,0.0924858,0.70222
678.066,219.151,-3.10233,0.09302097,0.70161
678.766,219.387,-3.10455,0.09347721,0.70099
679.466,219.623,-3.10434,0.09008486,0.70038
680.166,219.86,-3.10567,0.09124049,0.69976
680.866,220.098,-3.10421,0.09510171,0.69914
681.566,220.338,-3.10305,0.09561122,0.69853
682.266,220.579,-3.10434,0.09630952,0.69791
682.966,220.82,-3.10434,0.09700154,0.69729
683.666,221.059,-3.10375,0.0987323,0.69667
684.366,221.2965,-3.10781,0.1015,0.69605
685.066,221.533,-3.10675,0.10176,0.69543
685.766,221.768,-3.10675,0.09938009,0.69481
686.466,222.003,-3.10674,0.10287,0.69419
687.166,222.239,-3.10651,0.09949124,0.69357
687.866,222.475,-3.10842,0.10236,0.69295
688.566,222.711,-3.108,0.10275,0.69233
689.266,222.947,-3.11009,0.10506,0.6917
689.966,223.184,-3.11234,0.10023,0.69108
690.666,223.42,-3.10709,0.10086,0.69045
691.366,223.657,-3.10962,0.10546,0.68983
692.066,223.893,-3.11179,0.09988956,0.6892
692.766,224.128,-3.10972,0.0989148,0.68858
693.466,224.3628,-3.10967,0.10074,0.68795
694.166,224.597,-3.10787,0.10091,0.68732
694.866,224.8328,-3.10971,0.10136,0.6867
695.566,225.069,-3.11354,0.1024,0.68607
696.266,225.304,-3.11371,0.10051,0.68544
696.966,225.541,-3.11278,0.09890035,0.68481
697.666,225.7781,-3.11268,0.10031,0.68418
698.366,226.017,-3.11268,0.10129,0.68355
699.066,226.255,-3.11241,0.10503,0.68292
699.766,226.494,-3.11301,0.1009,0.68229
700.466,226.731,-3.11406,0.10247,0.68166
701.166,226.968,-3.11828,0.10081,0.68103
701.866,227.204,-3.11663,0.10042,0.68039
702.566,227.441,-3.11796,0.10021,0.67976
703.266,227.678,-3.11629,0.10363,0.67913
703.966,227.913,-3.11761,0.1019,0.67849
704.666,228.148,-3.11893,0.09938695,0.67786
705.366,228.383,-3.1163,0.10344,0.67722
706.066,228.619,-3.11706,0.10011,0.67659
706.766,228.854,-3.11714,0.09601222,0.67595
707.466,229.09,-3.11696,0.09327547,0.67531
708.166,229.326,-3.11827,0.09990426,0.67467
708.866,229.564,-3.1209,0.09775621,0.67404
709.566,229.802,-3.11893,0.09744045,0.6734
710.266,230.04,-3.11893,0.09384765,0.67276
710.966,230.277,-3.11893,0.0959914,0.67212
711.666,230.513,-3.12105,0.09587607,0.67148
712.366,230.749,-3.12333,0.09495842,0.67084
713.066,230.9853,-3.12245,0.09911242,0.6702
713.766,231.222,-3.12327,0.10134,0.66956
714.466,231.46,-3.12211,0.09564244,0.66891
715.166,231.697,-3.11971,0.09542889,0.66827
715.866,231.934,-3.12232,0.09732096,0.66763
716.566,232.171,-3.12187,0.09816997,0.66699
717.266,232.407,-3.12101,0.09413294,0.66634
717.966,232.644,-3.12135,0.09439869,0.6657
718.666,232.879,-3.12172,0.09316078,0.66505
719.366,233.115,-3.12696,0.09465793,0.66441
720.066,233.35,-3.1254,0.09400035,0.66376
720.766,233.586,-3.12345,0.0909913,0.66311
721.466,233.822,-3.12605,0.09251684,0.66247
722.166,234.057,-3.1254,0.09324537,0.66182
722.866,234.291,-3.12409,0.09013098,0.66117
723.566,234.526,-3.12318,0.08941298,0.66052
724.266,234.763,-3.12392,0.08905267,0.65988
724.966,235.001,-3.12621,0.08633391,0.65923
725.666,235.24,-3.12524,0.08873239,0.65858
726.366,235.479,-3.12463,0.087837,0.65793
727.066,235.719,-3.12299,0.08585936,0.65727
727.766,235.958,-3.1275,0.08202634,0.65662
728.466,236.197,-3.12725,0.08678744,0.65597
729.166,236.434,-3.128,0.08756447,0.65532
729.866,236.671,-3.12406,0.08776763,0.65467
730.566,236.908,-3.12671,0.08522473,0.65401
731.266,237.144,-3.12675,0.08370373,0.65336
731.966,237.3797,-3.1254,0.08263643,0.65271
732.666,237.615,-3.12757,0.08085528,0.65205
733.366,237.8505,-3.12934,0.08676244,0.6514
734.066,238.087,-3.13067,0.08625062,0.65074
734.766,238.3247,-3.12968,0.08457687,0.65009
735.466,238.5622,-3.13231,0.08627769,0.64943
736.166,238.8,-3.12968,0.07831017,0.64877
736.866,239.037,-3.13112,0.08422827,0.64811
737.566,239.274,-3.13094,0.08203502,0.64746
738.266,239.51,-3.13231,0.08727825,0.6468
738.966,239.747,-3.13231,0.08479562,0.64614
739.666,239.985,-3.13198,0.08543586,0.64548
740.366,240.2235,-3.13461,0.08596799,0.64482
741.066,240.461,-3.13527,0.08581966,0.64416
741.766,240.698,-3.13261,0.08509276,0.6435
742.466,240.934,-3.13132,0.08165568,0.64284
743.166,241.17,-3.13594,0.08292552,0.64218
743.866,241.408,-3.13342,0.08507562,0.64152
744.566,241.647,-3.13395,0.08359958,0.64086
745.266,241.886,-3.13451,0.08670499,0.64019
745.966,242.1245,-3.1356,0.08216089,0.63953
746.666,242.362,-3.13494,0.08315262,0.63887
747.366,242.6,-3.13561,0.08590285,0.6382
748.066,242.836,-3.13588,0.08598931,0.63754
748.766,243.073,-3.13601,0.08424213,0.63687
749.466,243.3083,-3.13827,0.08320856,0.63621