File: 01_Data/Hemp_Sheet/STA/N2/30K_min/Hemp_Sheet_STA_N2_30KData_22284_R2.csv
##Temp./Â°C,Time/min,DSC(subtr.2)/(mW/mg),Mass loss(subtr.2)/mg,Sensit./(uV/mW)
48.586,10.01,0.008697291,0.00187,1.07502
49.286,10.56033,0.05453191,0.00644735,1.07471
49.986,10.6851,0.08984176,0.001285589,1.0744
50.686,10.77497,0.12511,4.33983e-05,1.07409
51.386,10.84835,0.1569,-0.001106892,1.07378
52.086,10.9115,0.18415,0.002166114,1.07347
52.786,10.96809,0.21065,0.00185237,1.07316
53.486,11.01955,0.23665,0.001986019,1.07285
54.186,11.06719,0.26025,0.002836902,1.07254
54.886,11.1122,0.28255,0.004129335,1.07223
55.586,11.1553,0.30574,0.00465781,1.07191
56.286,11.19635,0.3232,0.00428278,1.0716
56.986,11.23541,0.34561,0.004455925,1.07128
57.686,11.27288,0.3636,0.005004527,1.07097
58.386,11.30913,0.38194,0.004347653,1.07065
59.086,11.3443,0.3999,0.003480886,1.07034
59.786,11.37844,0.41512,0.00377332,1.07002
60.486,11.4118,0.42936,0.00341181,1.0697
61.186,11.44439,0.44311,0.00211751,1.06939
61.886,11.47635,0.4588,0.00166658,1.06907
62.586,11.50721,0.46916,0.00187444,1.06875
63.286,11.53792,0.48368,0.00048619,1.06843
63.986,11.56824,0.49473,-7.674478e-05,1.06811
64.686,11.59861,0.50856,-0.002102277,1.06779
65.386,11.6282,0.51901,-0.00306796,1.06747
66.086,11.6573,0.52937,-0.00244904,1.06715
66.786,11.68586,0.54091,-0.001047079,1.06683
67.486,11.71387,0.55038,0.0008063677,1.06651
68.186,11.74188,0.56282,0.001902515,1.06618
68.886,11.76976,0.5699,0.001777568,1.06586
69.586,11.79753,0.57996,0.001508188,1.06553
70.286,11.82504,0.58833,0.0009196043,1.06521
70.986,11.85217,0.5996,0.001207175,1.06489
71.686,11.87912,0.6059,0.001545909,1.06456
72.386,11.90583,0.61522,0.001586314,1.06423
73.086,11.93242,0.62236,0.00175544,1.06391
73.786,11.9589,0.63195,0.001905375,1.06358
74.486,11.98515,0.63851,0.0004950366,1.06325
75.186,12.01127,0.64633,0.00159677,1.06292
75.886,12.03703,0.65542,0.00186694,1.0626
76.586,12.06295,0.66031,0.003217025,1.06227
77.286,12.08876,0.67124,0.00193777,1.06194
77.986,12.1145,0.67695,0.001793014,1.06161
78.686,12.14005,0.68561,0.000343637,1.06128
79.386,12.16543,0.69328,-0.0003757118,1.06094
80.086,12.19077,0.70149,-0.0008657196,1.06061
80.786,12.21595,0.70614,-0.0003820729,1.06028
81.486,12.24114,0.71315,0.0005422024,1.05995
82.186,12.26609,0.71882,0.0009788179,1.05961
82.886,12.29093,0.72397,0.002261804,1.05928
83.586,12.31563,0.73004,0.002441811,1.05895
84.286,12.3402,0.73715,0.00164732,1.05861
84.986,12.36483,0.74358,0.001947832,1.05828
85.686,12.38946,0.7505,0.000662502,1.05794
86.386,12.4141,0.75599,0.000749756,1.0576
87.086,12.43863,0.76322,-0.0006427795,1.05727
87.786,12.46272,0.76902,-0.001308585,1.05693
88.486,12.487,0.77506,-0.002272326,1.05659
89.186,12.5112,0.78089,-0.001102058,1.05625
89.886,12.53541,0.78661,-0.0008676983,1.05592
90.586,12.55988,0.79327,-0.0009742112,1.05558
91.286,12.5839,0.79599,-0.0005629038,1.05524
91.986,12.60791,0.80214,0.0001188726,1.0549
92.686,12.63193,0.80872,-0.0001604203,1.05456
93.386,12.65585,0.81376,-0.0006400394,1.05421
94.086,12.67993,0.8185,-0.0006505025,1.05387
94.786,12.70379,0.82337,-0.00165583,1.05353
95.486,12.72764,0.82783,-0.0007403533,1.05319
96.186,12.7514,0.83325,-0.000701696,1.05284
96.886,12.7752,0.83861,-0.002016453,1.0525
97.586,12.7988,0.84272,-0.001966443,1.05216
98.286,12.82254,0.84702,-0.003367706,1.05181
98.986,12.84595,0.8515,-0.003285743,1.05147
99.686,12.8694,0.85654,-0.00328062,1.05112
100.386,12.89323,0.85884,-0.003936612,1.05078
101.086,12.91693,0.86297,-0.004570818,1.05043
101.786,12.94086,0.86853,-0.00386865,1.05008
102.486,12.96455,0.87317,-0.003303372,1.04973
103.186,12.9881,0.87651,-0.00329021,1.04939
103.886,13.0116,0.87914,-0.003293215,1.04904
104.586,13.03513,0.88165,-0.00351729,1.04869
105.286,13.05866,0.88632,-0.003999318,1.04834
105.986,13.0822,0.88996,-0.004636279,1.04799
106.686,13.10572,0.89133,-0.00319744,1.04764
107.386,13.1292,0.89369,-0.003911777,1.04729
108.086,13.1526,0.8983,-0.003270828,1.04694
108.786,13.1761,0.90172,-0.00328983,1.04659
109.486,13.1995,0.90105,-0.003293765,1.04623
110.186,13.22291,0.90566,-0.00418649,1.04588
110.886,13.2464,0.90908,-0.004590032,1.04553
111.586,13.26984,0.90977,-0.004599975,1.04517
112.286,13.29323,0.90999,-0.004600019,1.04482
112.986,13.31661,0.91245,-0.0046,1.04446
113.686,13.3399,0.91286,-0.0046,1.04411
114.386,13.3632,0.91524,-0.004600047,1.04375
115.086,13.3866,0.9172,-0.004600987,1.0434
115.786,13.4099,0.91773,-0.004600808,1.04304
116.486,13.43325,0.91845,-0.00552539,1.04269
117.186,13.4566,0.92091,-0.005910347,1.04233
117.886,13.47991,0.92242,-0.00591998,1.04197
118.586,13.5032,0.9214,-0.00592121,1.04161
119.286,13.5263,0.92523,-0.006029891,1.04125
119.986,13.5495,0.92751,-0.0072476,1.04089
120.686,13.57264,0.92516,-0.007238247,1.04053
121.386,13.59576,0.92598,-0.007239376,1.04017
122.086,13.6189,0.92725,-0.007236084,1.03981
122.786,13.6419,0.92733,-0.008624416,1.03945
123.486,13.66495,0.92868,-0.008556314,1.03909
124.186,13.68803,0.9268,-0.00854871,1.03873
124.886,13.7111,0.92797,-0.008569021,1.03837
125.586,13.7341,0.92893,-0.00732325,1.03801
126.286,13.75702,0.92732,-0.00723122,1.03764
126.986,13.7799,0.92716,-0.007230104,1.03728
127.686,13.8028,0.93034,-0.007176064,1.03691
128.386,13.82565,0.92831,-0.008503931,1.03655
129.086,13.84852,0.93017,-0.00858458,1.03619
129.786,13.87144,0.93052,-0.007207552,1.03582
130.486,13.89437,0.93308,-0.007286462,1.03545
131.186,13.9172,0.93184,-0.0086142,1.03509
131.886,13.93999,0.93324,-0.008559976,1.03472
132.586,13.9626,0.93328,-0.009961058,1.03435
133.286,13.98519,0.93369,-0.009876526,1.03399
133.986,14.0079,0.93425,-0.009871345,1.03362
134.686,14.03055,0.93209,-0.009863386,1.03325
135.386,14.05326,0.93451,-0.01059928,1.03288
136.086,14.07598,0.9355,-0.01053408,1.03251
136.786,14.09857,0.93727,-0.01053033,1.03214
137.486,14.12111,0.93752,-0.0105262,1.03177
138.186,14.1435,0.9393,-0.01031458,1.0314
138.886,14.1658,0.93865,-0.00988398,1.03103
139.586,14.1881,0.94161,-0.009850324,1.03066
140.286,14.21047,0.94102,-0.008841861,1.03029
140.986,14.233,0.94198,-0.008554039,1.02992
141.686,14.25571,0.94503,-0.0086002,1.02954
142.386,14.2783,0.94514,-0.007306568,1.02917
143.086,14.3008,0.94684,-0.00723764,1.0288
143.786,14.3232,0.94822,-0.00719428,1.02842
144.486,14.3454,0.95027,-0.007957256,1.02805
145.186,14.3676,0.95156,-0.00789216,1.02768
145.886,14.3898,0.95289,-0.007889106,1.0273
146.586,14.41208,0.95655,-0.00748447,1.02693
147.286,14.43445,0.95666,-0.008539148,1.02655
147.986,14.45681,0.95902,-0.007877891,1.02617
148.686,14.47914,0.95944,-0.00788682,1.0258
149.386,14.50135,0.9631,-0.009270211,1.02542
150.086,14.52353,0.96357,-0.00921654,1.02504
150.786,14.5458,0.96836,-0.009201072,1.02466
151.486,14.5679,0.97038,-0.008938975,1.02429
152.186,14.59,0.97195,-0.00887993,1.02391
152.886,14.6121,0.97403,-0.009704965,1.02353
153.586,14.6342,0.97721,-0.01017594,1.02315
154.286,14.65635,0.97734,-0.01018943,1.02277
154.986,14.6784,0.97927,-0.01019164,1.02239
155.686,14.70054,0.98158,-0.01017858,1.02201
156.386,14.7226,0.98438,-0.00995335,1.02163
157.086,14.7446,0.98579,-0.01019151,1.02125
157.786,14.76668,0.99015,-0.01019955,1.02086
158.486,14.78864,0.98993,-0.01019968,1.02048
159.186,14.8107,0.99478,-0.01020306,1.0201
159.886,14.8325,0.99637,-0.01039843,1.01972
160.586,14.8545,0.99836,-0.01152694,1.01933
161.286,14.8766,1.00245,-0.01152091,1.01895
161.986,14.8986,1.00361,-0.01152507,1.01856
162.686,14.9207,1.00334,-0.01146572,1.01818
163.386,14.94275,1.00817,-0.01106816,1.01779
164.086,14.96469,1.01203,-0.01149596,1.01741
164.786,14.98666,1.01647,-0.01150929,1.01702
165.486,15.0086,1.0168,-0.01150993,1.01664
166.186,15.03055,1.02175,-0.01151035,1.01625
166.886,15.0525,1.02175,-0.01153639,1.01586
167.586,15.07444,1.02409,-0.01049411,1.01548
168.286,15.0963,1.02579,-0.01020034,1.01509
168.986,15.1182,1.02844,-0.01019035,1.0147
169.686,15.14,1.03092,-0.01019,1.01431
170.386,15.16175,1.03468,-0.01019,1.01392
171.086,15.18358,1.03751,-0.01019,1.01353
171.786,15.2054,1.03938,-0.01019,1.01314
172.486,15.2272,1.04273,-0.01018999,1.01275
173.186,15.24901,1.04517,-0.01018994,1.01236
173.886,15.27069,1.04781,-0.01019082,1.01197
174.586,15.29246,1.05082,-0.01023614,1.01158
175.286,15.31422,1.05331,-0.008919431,1.01119
175.986,15.336,1.05529,-0.008780438,1.0108
176.686,15.35796,1.05758,-0.00884739,1.01041
177.386,15.3797,1.06071,-0.007461495,1.01001
178.086,15.40138,1.06359,-0.007459681,1.00962
178.786,15.423,1.0656,-0.007459971,1.00923
179.486,15.44455,1.06979,-0.007460119,1.00883
180.186,15.46619,1.07222,-0.007461914,1.00844
180.886,15.4878,1.07428,-0.007639819,1.00804
181.586,15.50949,1.07817,-0.00877831,1.00765
182.286,15.53113,1.07937,-0.008771209,1.00725
182.986,15.5528,1.08233,-0.008866053,1.00686
183.686,15.5744,1.08706,-0.01123207,1.00646
184.386,15.59595,1.08951,-0.01151305,1.00607
185.086,15.6175,1.09294,-0.01301031,1.00567
185.786,15.63911,1.09594,-0.0130608,1.00527
186.486,15.66053,1.09548,-0.01408254,1.00488
187.186,15.6821,1.09867,-0.01436805,1.00448
187.886,15.7036,1.10422,-0.01435999,1.00408
188.586,15.72502,1.10585,-0.01410442,1.00368
189.286,15.74656,1.1067,-0.01301116,1.00328
189.986,15.76794,1.10786,-0.01286206,1.00288
190.686,15.7893,1.11156,-0.01171813,1.00248
191.386,15.81075,1.11453,-0.01173078,1.00208
192.086,15.8322,1.11663,-0.01173324,1.00168
192.786,15.8536,1.116,-0.01103193,1.00128
193.486,15.8751,1.12261,-0.01048118,1.00088
194.186,15.8965,1.12191,-0.009260022,1.00048
194.886,15.9179,1.12474,-0.009025351,1.00008
195.586,15.93932,1.12867,-0.01041673,0.99968
196.286,15.96074,1.12874,-0.01042647,0.99928
196.986,15.982,1.12854,-0.009575434,0.99887
197.686,16.00339,1.13461,-0.009000558,0.99847
198.386,16.02477,1.13532,-0.00883453,0.99807
199.086,16.04619,1.13768,-0.008659936,0.99766
199.786,16.06772,1.14139,-0.00979733,0.99726
200.486,16.08906,1.14254,-0.009972176,0.99685
201.186,16.1105,1.14691,-0.01067187,0.99645
201.886,16.1319,1.14688,-0.01127926,0.99604
202.586,16.1532,1.15112,-0.01128895,0.99564
203.286,16.1746,1.15367,-0.01128858,0.99523
203.986,16.1959,1.15565,-0.01126864,0.99483
204.686,16.21714,1.1565,-0.01206557,0.99442
205.386,16.23844,1.15888,-0.01295609,0.99401
206.086,16.2598,1.16157,-0.01294012,0.99361
206.786,16.28115,1.16636,-0.01293996,0.9932
207.486,16.30232,1.16578,-0.01294,0.99279
208.186,16.3235,1.16814,-0.01294,0.99238
208.886,16.34485,1.17279,-0.01294,0.99198
209.586,16.3661,1.17213,-0.01294,0.99157
210.286,16.38741,1.17519,-0.01294,0.99116
210.986,16.40876,1.17856,-0.01294,0.99075
211.686,16.42998,1.18069,-0.01294,0.99034
212.386,16.45121,1.18227,-0.01294035,0.98993
213.086,16.47255,1.18458,-0.01295088,0.98952
213.786,16.49384,1.18643,-0.01402583,0.98911
214.486,16.51511,1.18713,-0.01519985,0.9887
215.186,16.53629,1.19094,-0.01524712,0.98829
215.886,16.55763,1.19201,-0.01524991,0.98787
216.586,16.5789,1.19464,-0.01525035,0.98746
217.286,16.60014,1.19676,-0.01524921,0.98705
217.986,16.62129,1.19847,-0.01559059,0.98664
218.686,16.64252,1.2006,-0.01557224,0.98622
219.386,16.6637,1.20263,-0.01557018,0.98581
220.086,16.68496,1.20402,-0.01557001,0.9854
220.786,16.7064,1.20616,-0.01556994,0.98498
221.486,16.72767,1.20877,-0.01556923,0.98457
222.186,16.7489,1.21172,-0.01556356,0.98415
222.886,16.76998,1.21256,-0.01666936,0.98374
223.586,16.79106,1.21382,-0.01747556,0.98332
224.286,16.81215,1.21649,-0.01967816,0.98291
224.986,16.83331,1.21886,-0.02097129,0.98249
225.686,16.8547,1.22028,-0.02219221,0.98208
226.386,16.876,1.22064,-0.02226779,0.98166
227.086,16.89741,1.22352,-0.02116644,0.98124
227.786,16.91864,1.22416,-0.02150302,0.98083
228.486,16.93978,1.22446,-0.02227168,0.98041
229.186,16.96094,1.22804,-0.02228795,0.97999
229.886,16.98207,1.22847,-0.02121358,0.97957
230.586,17.00325,1.22978,-0.02217185,0.97915
231.286,17.02436,1.23465,-0.02077135,0.97874
231.986,17.04555,1.23261,-0.0208263,0.97832
232.686,17.06671,1.23521,-0.0208298,0.9779
233.386,17.08784,1.23612,-0.02082999,0.97748
234.086,17.10899,1.23762,-0.02083003,0.97706
234.786,17.13018,1.24013,-0.02082989,0.97664
235.486,17.1513,1.23982,-0.02081726,0.97622
236.186,17.17241,1.24376,-0.02168947,0.9758
236.886,17.19359,1.24555,-0.02213597,0.97538
237.586,17.21463,1.24687,-0.02214903,0.97495
238.286,17.23572,1.24767,-0.02215007,0.97453
238.986,17.25686,1.25046,-0.02215177,0.97411
239.686,17.27799,1.25121,-0.02217058,0.97369
240.386,17.2991,1.25331,-0.02304976,0.97327
241.086,17.32009,1.25688,-0.02345993,0.97284
241.786,17.34117,1.25669,-0.023466,0.97242
242.486,17.36218,1.25761,-0.02486082,0.972
243.186,17.3834,1.25801,-0.02478736,0.97157
243.886,17.40475,1.26005,-0.02479297,0.97115
244.586,17.42606,1.2617,-0.0251211,0.97072
245.286,17.4473,1.26373,-0.02612785,0.9703
245.986,17.46844,1.26374,-0.02610112,0.96987
246.686,17.48953,1.26555,-0.02610002,0.96945
247.386,17.51065,1.26703,-0.0261,0.96902
248.086,17.53179,1.26779,-0.0261,0.9686
248.786,17.55285,1.26879,-0.02610001,0.96817
249.486,17.574,1.2714,-0.02610011,0.96775
250.186,17.59508,1.27008,-0.02610182,0.96732
250.886,17.61617,1.27364,-0.02620466,0.96689
251.586,17.63734,1.27331,-0.02746156,0.96646
252.286,17.65849,1.27503,-0.02742066,0.96604
252.986,17.6796,1.27765,-0.02803246,0.96561
253.686,17.7007,1.2791,-0.02883326,0.96518
254.386,17.72178,1.27973,-0.02933667,0.96475
255.086,17.7429,1.27864,-0.03012519,0.96432
255.786,17.764,1.28163,-0.03014777,0.9639
256.486,17.78516,1.28358,-0.03014327,0.96347
257.186,17.80625,1.28516,-0.03005333,0.96304
257.886,17.82733,1.28423,-0.03145104,0.96261
258.586,17.84843,1.28432,-0.03147911,0.96218
259.286,17.8695,1.28519,-0.03208843,0.96175
259.986,17.8906,1.28536,-0.03278698,0.96132
260.686,17.91175,1.28665,-0.0328561,0.96088
261.386,17.93282,1.28814,-0.03409401,0.96045
262.086,17.95394,1.29058,-0.03536533,0.96002
262.786,17.97501,1.28994,-0.03683013,0.95959
263.486,17.996,1.29275,-0.03683398,0.95916
264.186,18.0171,1.2944,-0.03826912,0.95873
264.886,18.03819,1.29387,-0.03948174,0.95829
265.586,18.05929,1.29695,-0.04090092,0.95786
266.286,18.0804,1.29626,-0.04235263,0.95743
266.986,18.1015,1.29634,-0.04232824,0.95699
267.686,18.1226,1.29858,-0.04321521,0.95656
268.386,18.14369,1.30086,-0.04364674,0.95613
269.086,18.16479,1.30109,-0.04389881,0.95569
269.786,18.18589,1.30056,-0.04502794,0.95526
270.486,18.2069,1.30163,-0.04540416,0.95482
271.186,18.22803,1.30378,-0.04711295,0.95439
271.886,18.24916,1.30726,-0.04817723,0.95395
272.586,18.27027,1.30783,-0.04901804,0.95352
273.286,18.29141,1.30769,-0.05052264,0.95308
273.986,18.3125,1.30914,-0.05056504,0.95265
274.686,18.33352,1.31004,-0.0518317,0.95221
275.386,18.35463,1.31252,-0.05222896,0.95177
276.086,18.37578,1.31293,-0.05242887,0.95134
276.786,18.39689,1.31397,-0.05374154,0.9509
277.486,18.418,1.315,-0.05500314,0.95046
278.186,18.43914,1.31532,-0.05583983,0.95002
278.886,18.4602,1.31716,-0.05692016,0.94959
279.586,18.48122,1.31958,-0.05713381,0.94915
280.286,18.50232,1.32032,-0.05890534,0.94871
280.986,18.52339,1.32447,-0.05954009,0.94827
281.686,18.5445,1.32511,-0.06033309,0.94783
282.386,18.56564,1.32754,-0.06185158,0.94739
283.086,18.5867,1.3277,-0.06320909,0.94695
283.786,18.60781,1.33133,-0.06462995,0.94651
284.486,18.62885,1.33248,-0.06603377,0.94607
285.186,18.65002,1.33578,-0.06701023,0.94563
285.886,18.67114,1.33682,-0.06857112,0.94519
286.586,18.69228,1.33632,-0.06973504,0.94475
287.286,18.7134,1.34035,-0.07034405,0.94431
287.986,18.7346,1.34342,-0.07342476,0.94387
288.686,18.75583,1.34493,-0.07534984,0.94343
289.386,18.7771,1.34529,-0.07684308,0.94299
290.086,18.79832,1.34942,-0.0782408,0.94254
290.786,18.81946,1.34877,-0.07970265,0.9421
291.486,18.84052,1.35183,-0.08057198,0.94166
292.186,18.8616,1.35243,-0.0820208,0.94122
292.886,18.88276,1.35672,-0.08345875,0.94077
293.586,18.90387,1.35716,-0.08495864,0.94033
294.286,18.9251,1.3619,-0.0865389,0.93989
294.986,18.94622,1.36432,-0.08888801,0.93944
295.686,18.9674,1.3654,-0.09134569,0.939
296.386,18.9886,1.36711,-0.09319254,0.93856
297.086,19.00969,1.37077,-0.09497712,0.93811
297.786,19.03088,1.37072,-0.09678653,0.93767
298.486,19.05199,1.3731,-0.0977579,0.93722
299.186,19.07304,1.37595,-0.09932153,0.93678
299.886,19.0942,1.37625,-0.10071,0.93633
300.586,19.1153,1.37909,-0.10287,0.93589
301.286,19.1364,1.38023,-0.10484,0.93544
301.986,19.1576,1.38223,-0.10721,0.93499
302.686,19.1788,1.38336,-0.11021,0.93455
303.386,19.2,1.39031,-0.111,0.9341
304.086,19.22118,1.39218,-0.11297,0.93365
304.786,19.24233,1.39428,-0.11384,0.93321
305.486,19.26357,1.39676,-0.11546,0.93276
306.186,19.28472,1.39975,-0.11759,0.93231
306.886,19.30593,1.39984,-0.12013,0.93186
307.586,19.32711,1.40611,-0.12266,0.93142
308.286,19.34827,1.40454,-0.12551,0.93097
308.986,19.36946,1.41073,-0.12857,0.93052
309.686,19.39058,1.41273,-0.13105,0.93007
310.386,19.41169,1.41424,-0.13317,0.92962
311.086,19.43274,1.41764,-0.13554,0.92917
311.786,19.4539,1.42153,-0.13866,0.92872
312.486,19.47514,1.42503,-0.14217,0.92827
313.186,19.4964,1.4273,-0.14508,0.92782
313.886,19.51785,1.43247,-0.14853,0.92737
314.586,19.53904,1.43437,-0.15151,0.92692
315.286,19.56026,1.43969,-0.15424,0.92647
315.986,19.5814,1.44564,-0.15726,0.92602
316.686,19.60259,1.44823,-0.16021,0.92557
317.386,19.62371,1.45191,-0.16348,0.92512
318.086,19.64497,1.45834,-0.16641,0.92467
318.786,19.6662,1.46012,-0.17014,0.92421
319.486,19.6874,1.46726,-0.17406,0.92376
320.186,19.70862,1.47099,-0.17701,0.92331
320.886,19.7298,1.4769,-0.1805,0.92286
321.586,19.751,1.48003,-0.18359,0.9224
322.286,19.7722,1.4859,-0.18716,0.92195
322.986,19.79346,1.49121,-0.19064,0.9215
323.686,19.81471,1.49696,-0.19481,0.92105
324.386,19.83595,1.50164,-0.19936,0.92059
325.086,19.85719,1.50903,-0.20304,0.92014
325.786,19.8783,1.51764,-0.20809,0.91968
326.486,19.8996,1.52178,-0.21128,0.91923
327.186,19.92095,1.53235,-0.21557,0.91877
327.886,19.94227,1.53957,-0.22019,0.91832
328.586,19.96371,1.54598,-0.22582,0.91787
329.286,19.98499,1.55531,-0.23097,0.91741
329.986,20.0063,1.56421,-0.23672,0.91695
330.686,20.02754,1.57511,-0.24168,0.9165
331.386,20.04879,1.58553,-0.24742,0.91604
332.086,20.07009,1.59411,-0.25252,0.91559
332.786,20.09135,1.60469,-0.25783,0.91513
333.486,20.11263,1.61514,-0.26441,0.91467
334.186,20.134,1.62583,-0.27134,0.91422
334.886,20.15529,1.63715,-0.27863,0.91376
335.586,20.17655,1.6515,-0.28485,0.9133
336.286,20.1979,1.66307,-0.29238,0.91285
336.986,20.21923,1.67591,-0.29843,0.91239
337.686,20.24053,1.69145,-0.3062,0.91193
338.386,20.2619,1.70708,-0.3128,0.91147
339.086,20.2833,1.72343,-0.32148,0.91101
339.786,20.30463,1.73777,-0.32843,0.91056
340.486,20.32595,1.75631,-0.33693,0.9101
341.186,20.34725,1.77202,-0.34445,0.90964
341.886,20.3686,1.78924,-0.35279,0.90918
342.586,20.38983,1.8103,-0.36133,0.90872
343.286,20.41122,1.82842,-0.37065,0.90826
343.986,20.43272,1.84733,-0.38016,0.9078
344.686,20.45415,1.86878,-0.38884,0.90734
345.386,20.47564,1.88955,-0.39904,0.90688
346.086,20.497,1.91188,-0.40811,0.90642
346.786,20.51843,1.93657,-0.41829,0.90596
347.486,20.53987,1.96169,-0.42749,0.9055
348.186,20.56126,1.98636,-0.43949,0.90504
348.886,20.58268,2.01318,-0.44964,0.90458
349.586,20.60412,2.04267,-0.46302,0.90412
350.286,20.62556,2.06954,-0.47466,0.90365
350.986,20.647,2.10135,-0.48822,0.90319
351.686,20.66848,2.13145,-0.5007,0.90273
352.386,20.69,2.1612,-0.51508,0.90227
353.086,20.7115,2.1938,-0.52983,0.90181
353.786,20.73303,2.22627,-0.54507,0.90134
354.486,20.7546,2.26227,-0.56121,0.90088
355.186,20.77613,2.2986,-0.57548,0.90042
355.886,20.79767,2.3348,-0.59242,0.89995
356.586,20.81912,2.37502,-0.60694,0.89949
357.286,20.84062,2.41463,-0.62691,0.89903
357.986,20.86212,2.45672,-0.64245,0.89856
358.686,20.8837,2.49822,-0.66239,0.8981
359.386,20.90524,2.54372,-0.68001,0.89764
360.086,20.9268,2.587,-0.70061,0.89717
360.786,20.94835,2.63421,-0.71982,0.89671
361.486,20.96997,2.68415,-0.74123,0.89624
362.186,20.99155,2.73312,-0.76288,0.89578
362.886,21.0132,2.78371,-0.78461,0.89531
363.586,21.0348,2.83891,-0.80833,0.89485
364.286,21.05637,2.89096,-0.8291,0.89438
364.986,21.07801,2.9472,-0.85381,0.89391
365.686,21.09965,3.00681,-0.87449,0.89345
366.386,21.12133,3.06573,-0.90185,0.89298
367.086,21.14302,3.12558,-0.92526,0.89252
367.786,21.1647,3.18929,-0.95521,0.89205
368.486,21.1863,3.25443,-0.98161,0.89158
369.186,21.20794,3.3215,-1.01202,0.89112
369.886,21.2296,3.38994,-1.04069,0.89065
370.586,21.25127,3.45932,-1.07152,0.89018
371.286,21.27303,3.53224,-1.10381,0.88971
371.986,21.29475,3.60765,-1.13518,0.88925
372.686,21.31648,3.68303,-1.17294,0.88878
373.386,21.33819,3.75621,-1.20603,0.88831
374.086,21.3599,3.83735,-1.24575,0.88784
374.786,21.38167,3.91472,-1.27843,0.88737
375.486,21.4034,3.99451,-1.32016,0.8869
376.186,21.42525,4.07791,-1.35587,0.88644
376.886,21.447,4.16109,-1.39825,0.88597
377.586,21.46882,4.24266,-1.43592,0.8855
378.286,21.4906,4.32486,-1.47821,0.88503
378.986,21.51235,4.40671,-1.52167,0.88456
379.686,21.53412,4.49058,-1.56426,0.88409
380.386,21.556,4.57206,-1.61225,0.88362
381.086,21.57784,4.65615,-1.6547,0.88315
381.786,21.59972,4.73527,-1.70663,0.88268
382.486,21.62164,4.81202,-1.74929,0.88221
383.186,21.6435,4.88753,-1.80295,0.88174
383.886,21.66536,4.9596,-1.84857,0.88126
384.586,21.68711,5.02881,-1.9022,0.88079
385.286,21.7088,5.0924,-1.95062,0.88032
385.986,21.73058,5.15262,-2.00347,0.87985
386.686,21.75243,5.20326,-2.05566,0.87938
387.386,21.77435,5.25109,-2.10953,0.87891
388.086,21.79642,5.28922,-2.1729,0.87843
388.786,21.81839,5.32035,-2.23632,0.87796
389.486,21.8403,5.34481,-2.2926,0.87749
390.186,21.8622,5.35796,-2.34915,0.87702
390.886,21.88411,5.35942,-2.405,0.87654
391.586,21.906,5.35389,-2.4611,0.87607
392.286,21.9279,5.33357,-2.51728,0.8756
392.986,21.9498,5.29923,-2.57439,0.87512
393.686,21.97168,5.25445,-2.62816,0.87465
394.386,21.9936,5.19459,-2.68278,0.87418
395.086,22.01543,5.12193,-2.73694,0.8737
395.786,22.0372,5.03502,-2.78988,0.87323
396.486,22.05898,4.93078,-2.84039,0.87276
397.186,22.08077,4.81389,-2.88937,0.87228
397.886,22.10249,4.68313,-2.93146,0.87181
398.586,22.12428,4.53529,-2.97263,0.87133
399.286,22.14603,4.37171,-3.01838,0.87086
399.986,22.16775,4.19351,-3.0567,0.87038
400.686,22.18947,4.00222,-3.10048,0.86991
401.386,22.2111,3.80129,-3.13599,0.86943
402.086,22.2328,3.58751,-3.17454,0.86895
402.786,22.25431,3.36604,-3.20385,0.86848
403.486,22.27589,3.14005,-3.23635,0.868
404.186,22.2974,2.90879,-3.2626,0.86753
404.886,22.31891,2.67938,-3.28936,0.86705
405.586,22.34035,2.44806,-3.31125,0.86657
406.286,22.36179,2.22602,-3.33081,0.8661
406.986,22.38324,2.00683,-3.34948,0.86562
407.686,22.40462,1.80095,-3.36399,0.86514
408.386,22.42601,1.59899,-3.37732,0.86467
409.086,22.44739,1.41703,-3.38694,0.86419
409.786,22.46878,1.24825,-3.39641,0.86371
410.486,22.4902,1.09476,-3.40296,0.86323
411.186,22.5116,0.95675,-3.40976,0.86275
411.886,22.53292,0.83547,-3.41407,0.86228
412.586,22.55428,0.72866,-3.4179,0.8618
413.286,22.57564,0.63652,-3.42056,0.86132
413.986,22.59705,0.55938,-3.42386,0.86084
414.686,22.6186,0.49167,-3.42568,0.86036
415.386,22.63992,0.43404,-3.4268,0.85988
416.086,22.66135,0.38463,-3.42936,0.8594
416.786,22.68289,0.34421,-3.43219,0.85892
417.486,22.70429,0.30751,-3.43352,0.85844
418.186,22.7259,0.27897,-3.43381,0.85797
418.886,22.74757,0.25451,-3.43508,0.85749
419.586,22.76906,0.23514,-3.43524,0.85701
420.286,22.79055,0.21443,-3.43563,0.85653
420.986,22.81212,0.20152,-3.43666,0.85604
421.686,22.83374,0.18689,-3.43829,0.85556
422.386,22.8553,0.17642,-3.43938,0.85508
423.086,22.877,0.16672,-3.44025,0.8546
423.786,22.8986,0.15909,-3.44005,0.85412
424.486,22.92026,0.15281,-3.44153,0.85364
425.186,22.94199,0.14632,-3.44347,0.85316
425.886,22.96384,0.13919,-3.445,0.85268
426.586,22.98575,0.13471,-3.44523,0.8522
427.286,23.0075,0.12708,-3.44625,0.85171
427.986,23.02926,0.12455,-3.4476,0.85123
428.686,23.051,0.12204,-3.44672,0.85075
429.386,23.07272,0.1195,-3.44784,0.85027
430.086,23.09447,0.11463,-3.44956,0.84979
430.786,23.11628,0.1139,-3.45044,0.8493
431.486,23.1382,0.11073,-3.45229,0.84882
432.186,23.16,0.10823,-3.45292,0.84834
432.886,23.18195,0.10766,-3.45364,0.84785
433.586,23.20376,0.10492,-3.45566,0.84737
434.286,23.22552,0.10281,-3.45621,0.84689
434.986,23.24729,0.10358,-3.45707,0.8464
435.686,23.26918,0.09764003,-3.45887,0.84592
436.386,23.29101,0.09466562,-3.45991,0.84544
437.086,23.3129,0.09334363,-3.46155,0.84495
437.786,23.3349,0.09477343,-3.46328,0.84447
438.486,23.35681,0.09130634,-3.4646,0.84398
439.186,23.37879,0.08979344,-3.46626,0.8435
439.886,23.4008,0.08946689,-3.46776,0.84301
440.586,23.42277,0.08937532,-3.46774,0.84253
441.286,23.4448,0.08245144,-3.46926,0.84204
441.986,23.46676,0.08457265,-3.46956,0.84156
442.686,23.48875,0.08406452,-3.46969,0.84107
443.386,23.51073,0.07996617,-3.471,0.84059
444.086,23.53266,0.07946712,-3.47152,0.8401
444.786,23.55465,0.07788292,-3.47198,0.83962
445.486,23.57669,0.07669197,-3.472,0.83913
446.186,23.59873,0.07385294,-3.47204,0.83864
446.886,23.62077,0.07803628,-3.471,0.83816
447.586,23.64283,0.07373263,-3.47101,0.83767
448.286,23.66486,0.07511144,-3.47101,0.83718
448.986,23.68691,0.0724632,-3.47101,0.8367
449.686,23.70897,0.06757125,-3.47101,0.83621
450.386,23.73099,0.06724503,-3.47101,0.83572
451.086,23.75303,0.06662582,-3.47101,0.83524
451.786,23.77508,0.06499874,-3.47102,0.83475
452.486,23.79715,0.0685594,-3.47128,0.83426
453.186,23.81922,0.06469063,-3.47236,0.83377
453.886,23.84119,0.06425152,-3.47336,0.83328
454.586,23.86329,0.06382122,-3.47496,0.8328
455.286,23.88531,0.06202259,-3.47731,0.83231
455.986,23.9073,0.06020853,-3.47966,0.83182
456.686,23.9295,0.06221285,-3.48171,0.83133
457.386,23.95158,0.05892895,-3.48316,0.83084
458.086,23.9737,0.05902223,-3.48499,0.83035
458.786,23.99584,0.05961961,-3.48497,0.82986
459.486,24.01805,0.05321145,-3.48571,0.82938
460.186,24.04012,0.0548035,-3.48757,0.82889
460.886,24.0623,0.05249575,-3.48748,0.8284
461.586,24.08438,0.0527033,-3.48626,0.82791
462.286,24.10649,0.05108661,-3.48765,0.82742
462.986,24.12868,0.04890765,-3.4863,0.82693
463.686,24.15072,0.04941444,-3.48768,0.82644
464.386,24.17288,0.04773951,-3.4883,0.82595
465.086,24.19502,0.04912811,-3.48901,0.82546
465.786,24.2172,0.0490462,-3.49014,0.82497
466.486,24.23947,0.04765939,-3.49165,0.82448
467.186,24.26168,0.04545686,-3.49275,0.82399
467.886,24.28387,0.0442082,-3.49298,0.82349
468.586,24.30602,0.04444286,-3.49456,0.823
469.286,24.3281,0.04624124,-3.49578,0.82251
469.986,24.3503,0.04319753,-3.49835,0.82202
470.686,24.3724,0.04116351,-3.49952,0.82153
471.386,24.39467,0.0421098,-3.50095,0.82104
472.086,24.417,0.03977884,-3.50086,0.82055
472.786,24.4393,0.04032207,-3.50227,0.82005
473.486,24.46161,0.04048054,-3.50227,0.81956
474.186,24.48382,0.03509923,-3.50223,0.81907
474.886,24.506,0.03666808,-3.50346,0.81858
475.586,24.52811,0.03610324,-3.50386,0.81809
476.286,24.55033,0.03561191,-3.50522,0.81759
476.986,24.5726,0.03331711,-3.50677,0.8171
477.686,24.59488,0.03184487,-3.50711,0.81661
478.386,24.6172,0.02974966,-3.50797,0.81611
479.086,24.6394,0.02851635,-3.50936,0.81562
479.786,24.66161,0.02734642,-3.50941,0.81513
480.486,24.68388,0.02577107,-3.5094,0.81463
481.186,24.70611,0.02625462,-3.51045,0.81414
481.886,24.7284,0.02900352,-3.51003,0.81365
482.586,24.7506,0.02567497,-3.51042,0.81315
483.286,24.77294,0.02314197,-3.51071,0.81266
483.986,24.79524,0.02481418,-3.51063,0.81216
484.686,24.81759,0.02082889,-3.51202,0.81167
485.386,24.83993,0.02235889,-3.51204,0.81117
486.086,24.86224,0.02209758,-3.51213,0.81068
486.786,24.88455,0.0173915,-3.51342,0.81019
487.486,24.90683,0.0217231,-3.51402,0.80969
488.186,24.92912,0.01898446,-3.5158,0.8092
488.886,24.95141,0.01922954,-3.51711,0.8087
489.586,24.97373,0.01996655,-3.51891,0.8082
490.286,24.99605,0.01444764,-3.51981,0.80771
490.986,25.01841,0.01372399,-3.52015,0.80721
491.686,25.04075,0.01573987,-3.52087,0.80672
492.386,25.06307,0.01765085,-3.52145,0.80622
493.086,25.0854,0.01473104,-3.52148,0.80573
493.786,25.10773,0.01389935,-3.52086,0.80523
494.486,25.13007,0.01301738,-3.52081,0.80473
495.186,25.15241,0.01203988,-3.52081,0.80424
495.886,25.1748,0.01359022,-3.52082,0.80374
496.586,25.19717,0.01038949,-3.52124,0.80324
497.286,25.21957,0.01136672,-3.52213,0.80275
497.986,25.242,0.01188709,-3.52209,0.80225
498.686,25.26428,0.009773202,-3.5234,0.80175
499.386,25.28665,0.01064501,-3.52347,0.80126
500.086,25.3089,0.009769461,-3.52497,0.80076
500.786,25.3312,0.007957829,-3.52585,0.80026
501.486,25.3537,0.009187536,-3.52737,0.79976
502.186,25.37605,0.008551689,-3.52817,0.79926
502.886,25.39865,0.01072352,-3.52903,0.79877
503.586,25.42108,0.01044609,-3.52947,0.79827
504.286,25.44354,0.007463476,-3.53043,0.79777
504.986,25.46598,0.006431425,-3.53053,0.79727
505.686,25.48834,0.00625661,-3.53059,0.79677
506.386,25.51078,0.00624456,-3.5313,0.79628
507.086,25.53321,0.006460989,-3.53188,0.79578
507.786,25.55566,0.007474729,-3.53188,0.79528
508.486,25.57807,0.004893766,-3.53181,0.79478
509.186,25.60051,0.004072231,-3.53321,0.79428
509.886,25.623,0.004894329,-3.53321,0.79378
510.586,25.64544,0.002528539,-3.53319,0.79328
511.286,25.66793,0.002360917,-3.53312,0.79278
511.986,25.69044,0.003257617,-3.53464,0.79228
512.686,25.7129,0.003397245,-3.53488,0.79178
513.386,25.73535,0.00151389,-3.53614,0.79128
514.086,25.7578,0.00430691,-3.53757,0.79078
514.786,25.7803,0.0008781364,-3.53771,0.79028
515.486,25.80281,0.002437188,-3.53907,0.78978
516.186,25.8253,-0.0006563239,-3.53897,0.78928
516.886,25.84783,-0.003746268,-3.54024,0.78878
517.586,25.8703,-0.00279642,-3.54033,0.78828
518.286,25.89266,-0.00204667,-3.54033,0.78778
518.986,25.915,-0.001953204,-3.54038,0.78728
519.686,25.9375,-0.003049386,-3.53912,0.78678
520.386,25.96005,-0.003574148,-3.53901,0.78627
521.086,25.98262,-0.002067832,-3.53902,0.78577
521.786,26.00528,-0.00205048,-3.5395,0.78527
522.486,26.0278,-0.004126103,-3.54033,0.78477
523.186,26.05039,-0.002869649,-3.54035,0.78427
523.886,26.07301,-0.005389289,-3.54166,0.78377
524.586,26.09551,-0.006498908,-3.54165,0.78326
525.286,26.11801,-0.008407335,-3.54165,0.78276
525.986,26.14053,-0.00760234,-3.54165,0.78226
526.686,26.16306,-0.00650131,-3.54102,0.78176
527.386,26.18565,-0.004904855,-3.54036,0.78126
528.086,26.20823,-0.00748497,-3.5403,0.78075
528.786,26.2308,-0.005906576,-3.54167,0.78025
529.486,26.2534,-0.004820454,-3.54177,0.77975
530.186,26.2759,-0.005825357,-3.54411,0.77924
530.886,26.2984,-0.00603363,-3.54414,0.77874
531.586,26.32095,-0.00429886,-3.54715,0.77824
532.286,26.3435,-0.006984265,-3.5474,0.77773
532.986,26.3659,-0.00371608,-3.54957,0.77723
533.686,26.3885,-0.00729747,-3.54999,0.77673
534.386,26.411,-0.006523352,-3.55214,0.77622
535.086,26.4334,-0.004310977,-3.55253,0.77572
535.786,26.45617,-0.003142787,-3.5539,0.77522
536.486,26.47877,-0.002091876,-3.55382,0.77471
537.186,26.5016,-0.00109534,-3.55315,0.77421
537.886,26.52437,0.00292262,-3.55384,0.7737
538.586,26.547,0.004667368,-3.55381,0.7732
539.286,26.5696,0.007200784,-3.55379,0.77269
539.986,26.5922,0.00922846,-3.55407,0.77219
540.686,26.6148,0.01052823,-3.55414,0.77168
541.386,26.6374,0.0137605,-3.55415,0.77118
542.086,26.66007,0.01577828,-3.55415,0.77067
542.786,26.68273,0.01933231,-3.55581,0.77017
543.486,26.70535,0.02023058,-3.55618,0.76966
544.186,26.72795,0.02501699,-3.55712,0.76916
544.886,26.7505,0.02619099,-3.55711,0.76865
545.586,26.77314,0.02721203,-3.55714,0.76815
546.286,26.7957,0.02577622,-3.55851,0.76764
546.986,26.8184,0.02738141,-3.55843,0.76713
547.686,26.8411,0.02741092,-3.55979,0.76663
548.386,26.8637,0.0290511,-3.55975,0.76612
549.086,26.8865,0.02607922,-3.55974,0.76562
549.786,26.90918,0.02842423,-3.55974,0.76511
550.486,26.93181,0.02455768,-3.55974,0.7646
551.186,26.95445,0.02451361,-3.55974,0.7641
551.886,26.9771,0.02771244,-3.55974,0.76359
552.586,26.99972,0.0276367,-3.56005,0.76308
553.286,27.0224,0.02757337,-3.56104,0.76258
553.986,27.04519,0.02518009,-3.56105,0.76207
554.686,27.06777,0.02532424,-3.56102,0.76156
555.386,27.09044,0.02472809,-3.56239,0.76105
556.086,27.1131,0.02156634,-3.56238,0.76055
556.786,27.13578,0.02105366,-3.56238,0.76004
557.486,27.1586,0.0170604,-3.56238,0.75953
558.186,27.1814,0.0189526,-3.56234,0.75902
558.886,27.2041,0.01851201,-3.56167,0.75852
559.586,27.2268,0.01443131,-3.56177,0.75801
560.286,27.2496,0.01499649,-3.56132,0.7575
560.986,27.2723,0.01430304,-3.56148,0.75699
561.686,27.29506,0.01443383,-3.56193,0.75648
562.386,27.31782,0.01628856,-3.56216,0.75597
563.086,27.3406,0.0146032,-3.56192,0.75547
563.786,27.3633,0.01180668,-3.56193,0.75496
564.486,27.386,0.01038159,-3.56184,0.75445
565.186,27.40884,0.01110847,-3.56324,0.75394
565.886,27.4316,0.008384581,-3.56336,0.75343
566.586,27.45437,0.00965832,-3.56458,0.75292
567.286,27.47713,0.00996123,-3.56456,0.75241
567.986,27.49975,0.008003592,-3.56588,0.7519
568.686,27.5225,0.00506455,-3.56588,0.75139
569.386,27.5453,0.00167591,-3.56643,0.75088
570.086,27.56808,0.000938406,-3.56781,0.75037
570.786,27.591,-0.0009785754,-3.56797,0.74986
571.486,27.61393,-0.007292289,-3.56871,0.74935
572.186,27.63675,-0.01083379,-3.56927,0.74884
572.886,27.6596,-0.01011592,-3.56929,0.74833
573.586,27.68236,-0.01318962,-3.57015,0.74782
574.286,27.7051,-0.01668258,-3.5706,0.74731
574.986,27.72792,-0.01826824,-3.57061,0.7468
575.686,27.7507,-0.02215003,-3.57061,0.74629
576.386,27.7736,-0.02365071,-3.57061,0.74578
577.086,27.7964,-0.02677211,-3.57061,0.74527
577.786,27.8193,-0.02891813,-3.57061,0.74476
578.486,27.84217,-0.02918608,-3.57061,0.74425
579.186,27.865,-0.03365243,-3.57061,0.74374
579.886,27.8879,-0.03431505,-3.57061,0.74322
580.586,27.91064,-0.03525335,-3.57061,0.74271
581.286,27.93347,-0.03988673,-3.57108,0.7422
581.986,27.95631,-0.0413649,-3.57128,0.74169
582.686,27.9793,-0.04196775,-3.57187,0.74118
583.386,28.0022,-0.04362256,-3.57258,0.74067
584.086,28.0251,-0.04544742,-3.57254,0.74015
584.786,28.04797,-0.04409715,-3.57378,0.73964
585.486,28.07078,-0.04303923,-3.57523,0.73913
586.186,28.09354,-0.04698687,-3.57521,0.73862
586.886,28.11631,-0.04891519,-3.57521,0.73811
587.586,28.13915,-0.04802241,-3.57521,0.73759
588.286,28.162,-0.04942827,-3.57522,0.73708
588.986,28.18487,-0.05231364,-3.5757,0.73657
589.686,28.20775,-0.05412093,-3.57666,0.73605
590.386,28.2306,-0.05671087,-3.57752,0.73554
591.086,28.2535,-0.05877469,-3.57752,0.73503
591.786,28.27641,-0.06098573,-3.57762,0.73452
592.486,28.29931,-0.06294898,-3.57598,0.734
593.186,28.3222,-0.06787836,-3.57515,0.73349
593.886,28.345,-0.06669074,-3.57554,0.73298
594.586,28.3679,-0.06799358,-3.57597,0.73246
595.286,28.3908,-0.06620893,-3.57598,0.73195
595.986,28.4137,-0.07095658,-3.5763,0.73144
596.686,28.43657,-0.07075946,-3.5773,0.73092
597.386,28.45944,-0.07190891,-3.5773,0.73041
598.086,28.48232,-0.0726985,-3.5774,0.72989
598.786,28.5052,-0.07477275,-3.57867,0.72938
599.486,28.52812,-0.07434793,-3.57864,0.72886
600.186,28.55087,-0.07774252,-3.5793,0.72835
600.886,28.57361,-0.08019957,-3.57927,0.72784
601.586,28.5964,-0.08232213,-3.57927,0.72732
602.286,28.6192,-0.08208771,-3.57928,0.72681
602.986,28.6422,-0.08601583,-3.57999,0.72629
603.686,28.66524,-0.08629542,-3.58013,0.72578
604.386,28.6882,-0.08667158,-3.58108,0.72526
605.086,28.71125,-0.08916636,-3.58158,0.72475
605.786,28.7342,-0.08877519,-3.5816,0.72423
606.486,28.75715,-0.09181435,-3.58229,0.72372
607.186,28.78012,-0.09334229,-3.5829,0.7232
607.886,28.80307,-0.0948126,-3.58304,0.72269
608.586,28.82606,-0.09651974,-3.58426,0.72217
609.286,28.84905,-0.0994134,-3.58478,0.72166
609.986,28.87197,-0.09870343,-3.58573,0.72114
610.686,28.89488,-0.099714,-3.58577,0.72062
611.386,28.9178,-0.10136,-3.58646,0.72011
612.086,28.94063,-0.10245,-3.5877,0.71959
612.786,28.96361,-0.10646,-3.58771,0.71908
613.486,28.9866,-0.10542,-3.58778,0.71856
614.186,29.00954,-0.10794,-3.58707,0.71804
614.886,29.0325,-0.10943,-3.5857,0.71753
615.586,29.0555,-0.11133,-3.58575,0.71701
616.286,29.0784,-0.11526,-3.58575,0.71649
616.986,29.1014,-0.11428,-3.58575,0.71598
617.686,29.12442,-0.11823,-3.58575,0.71546
618.386,29.14736,-0.11714,-3.58559,0.71494
619.086,29.1703,-0.11956,-3.58443,0.71443
619.786,29.19325,-0.12023,-3.58443,0.71391
620.486,29.2162,-0.12557,-3.5844,0.71339
621.186,29.2392,-0.12663,-3.58352,0.71288
621.886,29.2623,-0.12838,-3.58312,0.71236
622.586,29.2853,-0.13063,-3.58313,0.71184
623.286,29.30828,-0.1304,-3.58363,0.71132
623.986,29.33128,-0.13343,-3.58442,0.71081
624.686,29.35428,-0.1341,-3.58435,0.71029
625.386,29.3773,-0.13946,-3.58573,0.70977
626.086,29.4003,-0.13602,-3.58575,0.70925
626.786,29.42326,-0.13919,-3.58572,0.70873
627.486,29.4462,-0.14166,-3.58446,0.70822
628.186,29.46932,-0.14133,-3.58575,0.7077
628.886,29.49235,-0.14723,-3.58592,0.70718
629.586,29.5154,-0.14621,-3.58706,0.70666
630.286,29.5385,-0.14683,-3.58699,0.70614
630.986,29.56148,-0.15025,-3.58837,0.70562
631.686,29.5845,-0.15358,-3.58927,0.70511
632.386,29.60737,-0.15238,-3.58987,0.70459
633.086,29.6304,-0.15669,-3.59056,0.70407
633.786,29.65336,-0.15485,-3.58993,0.70355
634.486,29.67625,-0.15886,-3.58991,0.70303
635.186,29.6994,-0.15786,-3.58991,0.70251
635.886,29.7225,-0.16126,-3.58991,0.70199
636.586,29.7455,-0.16336,-3.58991,0.70147
637.286,29.7687,-0.16451,-3.58991,0.70095
637.986,29.79177,-0.16362,-3.59129,0.70043
638.686,29.8148,-0.16658,-3.59124,0.69992
639.386,29.838,-0.1659,-3.59171,0.6994
640.086,29.86107,-0.17216,-3.59253,0.69888
640.786,29.8841,-0.17135,-3.59172,0.69836
641.486,29.9073,-0.17409,-3.59262,0.69784
642.186,29.93031,-0.1765,-3.59267,0.69732
642.886,29.9534,-0.17937,-3.594,0.6968
643.586,29.97655,-0.17934,-3.59333,0.69628
644.286,29.99955,-0.17745,-3.59265,0.69576
644.986,30.02265,-0.1786,-3.59265,0.69524
645.686,30.04573,-0.18123,-3.59274,0.69472
646.386,30.06884,-0.1822,-3.59398,0.6942
647.086,30.092,-0.1874,-3.59284,0.69368
647.786,30.1151,-0.1836,-3.59266,0.69315
648.486,30.1382,-0.18798,-3.59266,0.69263
649.186,30.1613,-0.18996,-3.59263,0.69211
649.886,30.1844,-0.18991,-3.59374,0.69159
650.586,30.2075,-0.19472,-3.59364,0.69107
651.286,30.2306,-0.19489,-3.59364,0.69055
651.986,30.2537,-0.19642,-3.59364,0.69003
652.686,30.27693,-0.19869,-3.59364,0.68951
653.386,30.30006,-0.20167,-3.59331,0.68899
654.086,30.3232,-0.20361,-3.59234,0.68847
654.786,30.3464,-0.20471,-3.59171,0.68794
655.486,30.36951,-0.2043,-3.59101,0.68742
656.186,30.39269,-0.20797,-3.58972,0.6869
656.886,30.4158,-0.20663,-3.59104,0.68638
657.586,30.4389,-0.21128,-3.59099,0.68586
658.286,30.46205,-0.21101,-3.59018,0.68534
658.986,30.4852,-0.21517,-3.5897,0.68482
659.686,30.50848,-0.21262,-3.5909,0.68429
660.386,30.53163,-0.21617,-3.59102,0.68377
661.086,30.55477,-0.2188,-3.59101,0.68325
661.786,30.57791,-0.21632,-3.59103,0.68273
662.486,30.6011,-0.22012,-3.59039,0.6822
663.186,30.62425,-0.21923,-3.59098,0.68168
663.886,30.64735,-0.22047,-3.59101,0.68116
664.586,30.6705,-0.22083,-3.5917,0.68064
665.286,30.69365,-0.22492,-3.59231,0.68012
665.986,30.71681,-0.22293,-3.59232,0.67959
666.686,30.74,-0.2258,-3.59232,0.67907
667.386,30.76319,-0.22561,-3.59351,0.67855
668.086,30.78635,-0.22702,-3.59465,0.67802
668.786,30.8095,-0.2274,-3.59496,0.6775
669.486,30.83268,-0.22957,-3.59496,0.67698
670.186,30.8558,-0.23061,-3.59496,0.67646
670.886,30.879,-0.22814,-3.59496,0.67593
671.586,30.90216,-0.23226,-3.59494,0.67541
672.286,30.9253,-0.23118,-3.59617,0.67489
672.986,30.9485,-0.23207,-3.59701,0.67436
673.686,30.9718,-0.23541,-3.59797,0.67384
674.386,30.99506,-0.23476,-3.59953,0.67332
675.086,31.01833,-0.23453,-3.59946,0.67279
675.786,31.04155,-0.23565,-3.59946,0.67227
676.486,31.06465,-0.23646,-3.59946,0.67175
677.186,31.0878,-0.23957,-3.59946,0.67122
677.886,31.1109,-0.23782,-3.59946,0.6707
678.586,31.134,-0.24274,-3.59872,0.67017
679.286,31.157,-0.24014,-3.59816,0.66965
679.986,31.18005,-0.2409,-3.59814,0.66913
680.686,31.20321,-0.24203,-3.59954,0.6686
681.386,31.22658,-0.24549,-3.59945,0.66808
682.086,31.24995,-0.24987,-3.59945,0.66755
682.786,31.2733,-0.24575,-3.59944,0.66703
683.486,31.29655,-0.24585,-3.59907,0.6665
684.186,31.3196,-0.24744,-3.59814,0.66598
684.886,31.3429,-0.25008,-3.59813,0.66546
685.586,31.3661,-0.24941,-3.5978,0.66493
686.286,31.3894,-0.25262,-3.59681,0.66441
686.986,31.4127,-0.25081,-3.59685,0.66388
687.686,31.43592,-0.25292,-3.5957,0.66336
688.386,31.45915,-0.25336,-3.5955,0.66283
689.086,31.4824,-0.25246,-3.59466,0.66231
689.786,31.50556,-0.25436,-3.59451,0.66178
690.486,31.52873,-0.25453,-3.59552,0.66126
691.186,31.552,-0.25801,-3.59552,0.66073
691.886,31.57527,-0.26033,-3.59691,0.66021
692.586,31.59855,-0.25823,-3.59682,0.65968
693.286,31.6218,-0.26066,-3.59696,0.65916
693.986,31.64504,-0.26265,-3.59815,0.65863
694.686,31.6682,-0.26368,-3.59814,0.65811
695.386,31.6914,-0.25983,-3.59815,0.65758
696.086,31.71456,-0.26319,-3.59714,0.65706
696.786,31.7378,-0.26457,-3.5976,0.65653
697.486,31.76101,-0.2625,-3.59813,0.656
698.186,31.78422,-0.26511,-3.59813,0.65548
698.886,31.8075,-0.26508,-3.59814,0.65495
699.586,31.8307,-0.26603,-3.59883,0.65443
700.286,31.8539,-0.26501,-3.59912,0.6539
700.986,31.8772,-0.2659,-3.59912,0.65338
701.686,31.90046,-0.2646,-3.59912,0.65285
702.386,31.92377,-0.27247,-3.59912,0.65232
703.086,31.9471,-0.27104,-3.59912,0.6518
703.786,31.97035,-0.27336,-3.59912,0.65127
704.486,31.9936,-0.27298,-3.59905,0.65075
705.186,32.01684,-0.27609,-3.60041,0.65022
705.886,32.04,-0.27775,-3.60044,0.64969
706.586,32.06322,-0.27824,-3.60044,0.64917
707.286,32.08648,-0.27928,-3.60044,0.64864
707.986,32.10975,-0.27933,-3.60044,0.64811
708.686,32.13301,-0.27832,-3.60046,0.64759
709.386,32.15631,-0.28217,-3.60183,0.64706
710.086,32.1795,-0.27983,-3.60176,0.64653
710.786,32.2027,-0.28345,-3.60262,0.64601
711.486,32.226,-0.28385,-3.60249,0.64548
712.186,32.24915,-0.28538,-3.60175,0.64495
712.886,32.27235,-0.28884,-3.6009,0.64443
713.586,32.29565,-0.29016,-3.59992,0.6439
714.286,32.31886,-0.28982,-3.59912,0.64337
714.986,32.34215,-0.28921,-3.59797,0.64285
715.686,32.36541,-0.29028,-3.5989,0.64232
716.386,32.3886,-0.29175,-3.59913,0.64179
717.086,32.41178,-0.29379,-3.59913,0.64126
717.786,32.43495,-0.29367,-3.59919,0.64074
718.486,32.45815,-0.29837,-3.6005,0.64021
719.186,32.48135,-0.29633,-3.60166,0.63968
719.886,32.50475,-0.29969,-3.60222,0.63916
720.586,32.52812,-0.29763,-3.60339,0.63863
721.286,32.55154,-0.29878,-3.60247,0.6381
721.986,32.57488,-0.30104,-3.60305,0.63757
722.686,32.59812,-0.30346,-3.6027,0.63705
723.386,32.62147,-0.30146,-3.6035,0.63652
724.086,32.64478,-0.30445,-3.60351,0.63599
724.786,32.6682,-0.3037,-3.6035,0.63546
725.486,32.6916,-0.30663,-3.60362,0.63494
726.186,32.7149,-0.30727,-3.60484,0.63441
726.886,32.73825,-0.30751,-3.60484,0.63388
727.586,32.76157,-0.31119,-3.60518,0.63335
728.286,32.78481,-0.31091,-3.60435,0.63282
728.986,32.80815,-0.314,-3.60314,0.6323
729.686,32.83153,-0.31204,-3.60139,0.63177
730.386,32.85484,-0.31745,-3.60267,0.63124
731.086,32.87826,-0.31966,-3.60274,0.63071
731.786,32.90153,-0.31672,-3.60273,0.63018
732.486,32.9248,-0.32145,-3.60125,0.62966
733.186,32.9482,-0.31927,-3.60274,0.62913
733.886,32.97165,-0.32137,-3.60275,0.6286
734.586,32.99504,-0.32436,-3.60275,0.62807
735.286,33.01838,-0.32722,-3.60296,0.62754
735.986,33.04173,-0.32509,-3.60415,0.62701
736.686,33.06505,-0.32832,-3.60514,0.62649
737.386,33.08847,-0.33502,-3.60564,0.62596
738.086,33.11184,-0.33374,-3.60703,0.62543
738.786,33.1352,-0.33305,-3.60705,0.6249
739.486,33.15846,-0.33563,-3.60787,0.62437
740.186,33.18182,-0.33311,-3.60821,0.62384
740.886,33.20515,-0.3364,-3.60749,0.62331
741.586,33.22855,-0.33522,-3.60832,0.62279
742.286,33.25201,-0.33827,-3.60722,0.62226
742.986,33.27537,-0.34218,-3.60703,0.62173
743.686,33.29882,-0.34192,-3.60702,0.6212
744.386,33.32224,-0.34249,-3.60589,0.62067
745.086,33.34558,-0.34569,-3.60571,0.62014
745.786,33.36894,-0.34785,-3.60571,0.61961
746.486,33.3923,-0.35064,-3.60552,0.61908
747.186,33.41568,-0.35227,-3.60298,0.61856
747.886,33.43912,-0.35273,-3.60307,0.61803
748.586,33.4625,-0.35685,-3.60309,0.6175
749.286,33.48587,-0.35743,-3.60442,0.61697
749.986,33.50931,-0.35979,-3.60569,0.61644
750.686,33.5328,-0.35933,-3.60574,0.61591
751.386,33.55623,-0.36292,-3.6071,0.61538
752.086,33.57966,-0.36198,-3.60703,0.61485
752.786,33.60305,-0.36321,-3.60853,0.61432
753.486,33.6265,-0.36047,-3.60816,0.61379
754.186,33.64994,-0.36529,-3.60856,0.61326
754.886,33.6734,-0.36909,-3.60856,0.61274
755.586,33.69686,-0.36816,-3.60862,0.61221
756.286,33.72031,-0.37327,-3.60802,0.61168
756.986,33.74375,-0.37376,-3.60729,0.61115
757.686,33.76724,-0.37383,-3.60681,0.61062
758.386,33.7907,-0.37679,-3.6068,0.61009
759.086,33.8141,-0.37752,-3.6068,0.60956
759.786,33.83741,-0.37873,-3.60678,0.60903
760.486,33.86079,-0.38184,-3.60609,0.6085
761.186,33.88426,-0.38402,-3.60581,0.60797
761.886,33.9078,-0.38353,-3.60581,0.60744
762.586,33.93137,-0.38487,-3.60581,0.60691
763.286,33.9548,-0.38857,-3.60665,0.60638
763.986,33.97821,-0.38981,-3.60711,0.60585
764.686,34.00159,-0.3887,-3.60678,0.60532
765.386,34.0251,-0.39399,-3.60674,0.60479
766.086,34.04858,-0.39885,-3.60546,0.60426
766.786,34.07206,-0.39695,-3.60558,0.60373
767.486,34.09554,-0.39626,-3.60684,0.6032
768.186,34.11898,-0.39929,-3.6068,0.60267
768.886,34.14244,-0.39944,-3.6068,0.60214
769.586,34.1659,-0.40154,-3.6068,0.60161
770.286,34.1894,-0.40401,-3.6068,0.60108
770.986,34.21278,-0.40707,-3.6068,0.60055
771.686,34.23616,-0.40495,-3.60679,0.60002
772.386,34.25962,-0.40866,-3.60678,0.59949
773.086,34.28302,-0.41149,-3.60813,0.59896
773.786,34.30652,-0.41042,-3.60812,0.59843
774.486,34.33,-0.41314,-3.60812,0.5979
775.186,34.35352,-0.41835,-3.60812,0.59737
775.886,34.37703,-0.41596,-3.60812,0.59684
776.586,34.40056,-0.4181,-3.60812,0.59631
777.286,34.42402,-0.4171,-3.60811,0.59578
777.986,34.44743,-0.42118,-3.60803,0.59525
778.686,34.4709,-0.42338,-3.60944,0.59472
779.386,34.49433,-0.42666,-3.6094,0.59419
780.086,34.51778,-0.4294,-3.60794,0.59366
780.786,34.5413,-0.43102,-3.60692,0.59313
781.486,34.5649,-0.43361,-3.60669,0.5926
782.186,34.58835,-0.43099,-3.60669,0.59207
782.886,34.61184,-0.43418,-3.60669,0.59154
783.586,34.6353,-0.43481,-3.60669,0.59101
784.286,34.65882,-0.43411,-3.60669,0.59048
784.986,34.68237,-0.4393,-3.60667,0.58995
785.686,34.7059,-0.43801,-3.6053,0.58942
786.386,34.7294,-0.43507,-3.60539,0.58889
787.086,34.75284,-0.43681,-3.60607,0.58836
787.786,34.77617,-0.43756,-3.60542,0.58783
788.486,34.79953,-0.43719,-3.60689,0.5873
789.186,34.82304,-0.43733,-3.60692,0.58677
789.886,34.8467,-0.43756,-3.60704,0.58624
790.586,34.87038,-0.44185,-3.60822,0.58571
791.286,34.894,-0.43845,-3.60824,0.58518
791.986,34.9175,-0.44083,-3.60865,0.58465
792.686,34.94104,-0.4429,-3.6086,0.58412
793.386,34.96454,-0.44261,-3.60865,0.58359
794.086,34.98808,-0.44452,-3.60866,0.58306
794.386,34.9981,-0.44862,-3.60866,0.58283