File: 01_Data/Hemp_Sheet/STA/N2/30K_min/Hemp_Sheet_STA_N2_30KData_22284_R1.csv
##Temp./Â°C,Time/min,DSC(subtr.2)/(mW/mg),Mass loss(subtr.2)/mg,Sensit./(uV/mW)
48.602,10.01,0.009439403,0.00483,1.07501
49.302,10.55717,0.05486804,0.008968944,1.0747
50.002,10.683,0.09432233,0.00838226,1.07439
50.702,10.77321,0.12828,0.008940832,1.07409
51.402,10.8465,0.15806,0.00769543,1.07378
52.102,10.91005,0.18751,0.00801171,1.07347
52.802,10.96711,0.21274,0.00870526,1.07315
53.502,11.01868,0.2412,0.008770746,1.07284
54.202,11.06666,0.2629,0.009043733,1.07253
54.902,11.11175,0.28737,0.008171455,1.07222
55.602,11.15438,0.30859,0.006206554,1.07191
56.302,11.19513,0.32954,0.008083481,1.07159
57.002,11.23403,0.35031,0.007209795,1.07128
57.702,11.2717,0.36929,0.008001737,1.07096
58.402,11.30795,0.38716,0.007956007,1.07065
59.102,11.34287,0.40379,0.00622301,1.07033
59.802,11.37706,0.4215,0.00318956,1.07001
60.502,11.4106,0.43949,0.000970727,1.0697
61.202,11.44322,0.45369,0.00190199,1.06938
61.902,11.47538,0.46809,0.004508923,1.06906
62.602,11.50681,0.48095,0.006699995,1.06874
63.302,11.53787,0.49519,0.007579909,1.06842
64.002,11.568,0.50667,0.00681587,1.0681
64.702,11.59779,0.51965,0.006881742,1.06778
65.402,11.6271,0.5324,0.00715932,1.06746
66.102,11.65611,0.5456,0.00670558,1.06714
66.802,11.68486,0.55545,0.00718263,1.06682
67.502,11.7132,0.56959,0.007828198,1.0665
68.202,11.7415,0.57929,0.006742397,1.06617
68.902,11.76937,0.588,0.006036451,1.06585
69.602,11.79703,0.59787,0.006657383,1.06553
70.302,11.82426,0.60952,0.00645124,1.0652
71.002,11.8515,0.62161,0.007079105,1.06488
71.702,11.8785,0.63217,0.006755666,1.06455
72.402,11.90541,0.63927,0.00741396,1.06423
73.102,11.932,0.64924,0.007401328,1.0639
73.802,11.95842,0.65905,0.00730912,1.06357
74.502,11.98471,0.67075,0.00799558,1.06325
75.202,12.01075,0.67826,0.008163232,1.06292
75.902,12.0367,0.68471,0.008227615,1.06259
76.602,12.06254,0.69435,0.008758948,1.06226
77.302,12.0882,0.70323,0.009194659,1.06193
78.002,12.11392,0.71025,0.01096075,1.0616
78.702,12.1395,0.71903,0.0107069,1.06127
79.402,12.16489,0.72689,0.009937589,1.06094
80.102,12.19022,0.73659,0.008352383,1.06061
80.802,12.21539,0.74636,0.00702303,1.06027
81.502,12.24045,0.75217,0.006547985,1.05994
82.202,12.2654,0.7602,0.005559867,1.05961
82.902,12.29036,0.76937,0.005497908,1.05927
83.602,12.31517,0.77524,0.005166624,1.05894
84.302,12.3399,0.78334,0.005485024,1.0586
85.002,12.3645,0.79377,0.00442123,1.05827
85.702,12.38905,0.80021,0.004047704,1.05793
86.402,12.41365,0.80754,0.003148251,1.0576
87.102,12.43803,0.8143,0.004434781,1.05726
87.802,12.4625,0.821,0.00408452,1.05692
88.502,12.4869,0.82768,0.005297736,1.05658
89.202,12.51121,0.83385,0.004156526,1.05625
89.902,12.53546,0.8399,0.005404345,1.05591
90.602,12.55955,0.84521,0.00600598,1.05557
91.302,12.58359,0.85246,0.005282155,1.05523
92.002,12.60755,0.85817,0.00676693,1.05489
92.702,12.63153,0.86557,0.006939004,1.05455
93.402,12.6555,0.87175,0.00582781,1.05421
94.102,12.67946,0.87541,0.005601281,1.05386
94.802,12.7034,0.87906,0.00559677,1.05352
95.502,12.72735,0.88634,0.00559349,1.05318
96.202,12.7513,0.89272,0.005541946,1.05284
96.902,12.77515,0.89885,0.004232162,1.05249
97.602,12.7989,0.90406,0.004282874,1.05215
98.302,12.8227,0.90774,0.004066233,1.0518
99.002,12.8463,0.91244,0.00295546,1.05146
99.702,12.86991,0.91714,0.002960382,1.05111
100.402,12.8935,0.92498,0.001543509,1.05077
101.102,12.91703,0.92854,0.001634935,1.05042
101.802,12.94065,0.93213,0.00164583,1.05007
102.502,12.96418,0.93941,0.0006550181,1.04973
103.202,12.98785,0.94205,0.0003416079,1.04938
103.902,13.01145,0.94591,-0.00105429,1.04903
104.602,13.035,0.94891,-0.001020433,1.04868
105.302,13.05851,0.95254,-0.00183298,1.04833
106.002,13.08208,0.95474,-0.002297636,1.04798
106.702,13.10554,0.96061,-0.002218356,1.04763
107.402,13.1291,0.96366,-0.0009640003,1.04728
108.102,13.15255,0.96566,-0.0009852901,1.04693
108.802,13.1759,0.96878,-1.669558e-05,1.04658
109.502,13.19938,0.96752,0.0003371945,1.04622
110.202,13.22284,0.97205,0.0003404728,1.04587
110.902,13.2462,0.97325,0.0003400463,1.04552
111.602,13.2696,0.97663,0.0003400532,1.04517
112.302,13.29304,0.97825,0.0003314982,1.04481
113.002,13.3164,0.98211,-2.54074e-05,1.04446
113.702,13.3398,0.98233,-0.0009818924,1.0441
114.402,13.3632,0.98145,-0.0009454251,1.04375
115.102,13.3866,0.98472,-0.002139677,1.04339
115.802,13.40991,0.98531,-0.00230008,1.04303
116.502,13.43322,0.98599,-0.002094113,1.04268
117.202,13.4564,0.98703,-0.00121265,1.04232
117.902,13.47972,0.98704,-0.000980932,1.04196
118.602,13.50285,0.98851,-0.000979338,1.0416
119.302,13.526,0.98726,-0.0009729521,1.04125
120.002,13.54919,0.9912,-0.00224776,1.04089
120.702,13.5723,0.98976,-0.002313175,1.04053
121.402,13.5955,0.98971,-0.00262486,1.04017
122.102,13.6186,0.99054,-0.003262135,1.03981
122.802,13.64165,0.98829,-0.00360294,1.03945
123.502,13.66479,0.98946,-0.0036077,1.03908
124.202,13.68784,0.99053,-0.003588923,1.03872
124.902,13.71088,0.99018,-0.002557892,1.03836
125.602,13.734,0.99024,-0.00279384,1.038
126.302,13.757,0.99279,-0.00295588,1.03763
127.002,13.77995,0.99024,-0.002959999,1.03727
127.702,13.80284,0.98919,-0.002957112,1.03691
128.402,13.82564,0.99054,-0.002889616,1.03654
129.102,13.8484,0.99101,-0.003641987,1.03618
129.802,13.8712,0.98989,-0.003618365,1.03581
130.502,13.894,0.99046,-0.003579047,1.03545
131.202,13.91676,0.99176,-0.00478375,1.03508
131.902,13.93954,0.99164,-0.004928942,1.03471
132.602,13.9622,0.99312,-0.004928574,1.03435
133.302,13.985,0.99448,-0.004881473,1.03398
134.002,14.0078,0.99587,-0.006159304,1.03361
134.702,14.03045,0.99633,-0.006243529,1.03324
135.402,14.05309,1.00007,-0.00743601,1.03287
136.102,14.0757,1.00042,-0.00757023,1.0325
136.802,14.0982,1.00384,-0.007589266,1.03214
137.502,14.12059,1.00494,-0.008596766,1.03177
138.202,14.1431,1.0063,-0.00887794,1.03139
138.902,14.16554,1.00785,-0.00887806,1.03102
139.602,14.1881,1.00519,-0.00868509,1.03065
140.302,14.21064,1.01126,-0.00756837,1.03028
141.002,14.2331,1.01134,-0.007529143,1.02991
141.702,14.2555,1.01309,-0.008652336,1.02954
142.402,14.27789,1.01467,-0.008874294,1.02916
143.102,14.3003,1.01778,-0.008880041,1.02879
143.802,14.32257,1.02057,-0.008880274,1.02842
144.502,14.34485,1.02023,-0.00888633,1.02804
145.202,14.36713,1.02368,-0.008971961,1.02767
145.902,14.3894,1.02491,-0.007562585,1.02729
146.602,14.4116,1.02667,-0.007575485,1.02692
147.302,14.43387,1.03048,-0.00658684,1.02654
148.002,14.45606,1.03164,-0.006257914,1.02616
148.702,14.4783,1.03559,-0.006311267,1.02579
149.402,14.50058,1.03865,-0.004927782,1.02541
150.102,14.52278,1.03834,-0.004929736,1.02503
150.802,14.545,1.03928,-0.004935148,1.02466
151.502,14.56717,1.04397,-0.005125555,1.02428
152.202,14.5892,1.04555,-0.004969959,1.0239
152.902,14.61135,1.04892,-0.004926357,1.02352
153.602,14.6334,1.05251,-0.00492346,1.02314
154.302,14.6555,1.0536,-0.0047545,1.02276
155.002,14.67767,1.05647,-0.004868921,1.02238
155.702,14.6997,1.05707,-0.004929594,1.022
156.402,14.7218,1.06284,-0.004930128,1.02162
157.102,14.7438,1.0641,-0.004930014,1.02124
157.802,14.76575,1.06819,-0.004930036,1.02085
158.502,14.78776,1.07065,-0.00493042,1.02047
159.202,14.8097,1.07431,-0.004931035,1.02009
159.902,14.8317,1.07736,-0.00354996,1.01971
160.602,14.85375,1.07982,-0.003651841,1.01932
161.302,14.8757,1.08232,-0.00251331,1.01894
162.002,14.89773,1.08585,-0.002306204,1.01855
162.702,14.91974,1.08838,-0.002300042,1.01817
163.402,14.9417,1.08917,-0.002299986,1.01779
164.102,14.96366,1.09247,-0.002299999,1.0174
164.802,14.9856,1.09737,-0.0023,1.01701
165.502,15.0075,1.09616,-0.0023,1.01663
166.202,15.02939,1.10164,-0.0023,1.01624
166.902,15.0512,1.10484,-0.0023,1.01585
167.602,15.0731,1.11048,-0.002299999,1.01547
168.302,15.09501,1.11109,-0.002299973,1.01508
169.002,15.11687,1.11546,-0.0022996,1.01469
169.702,15.13875,1.11597,-0.002296647,1.0143
170.402,15.1606,1.1219,-0.00363964,1.01391
171.102,15.18229,1.12439,-0.00361609,1.01352
171.802,15.2041,1.12855,-0.00361054,1.01313
172.502,15.22587,1.1297,-0.00361057,1.01274
173.202,15.2476,1.13355,-0.00361677,1.01235
173.902,15.26945,1.13745,-0.003641229,1.01196
174.602,15.2912,1.14065,-0.002635846,1.01157
175.302,15.3129,1.14439,-0.002622529,1.01118
176.002,15.3346,1.14687,-0.00263235,1.01079
176.702,15.3563,1.14945,-0.00297816,1.0104
177.402,15.378,1.15227,-0.00395685,1.01
178.102,15.3998,1.15528,-0.003934266,1.00961
178.802,15.4215,1.16079,-0.005294468,1.00922
179.502,15.44311,1.16304,-0.005259321,1.00882
180.202,15.4648,1.16664,-0.005172122,1.00843
180.902,15.48639,1.17006,-0.006547804,1.00804
181.602,15.50785,1.17311,-0.006601244,1.00764
182.302,15.52934,1.17598,-0.007511726,1.00725
183.002,15.55091,1.17904,-0.00789885,1.00685
183.702,15.57245,1.18333,-0.00788259,1.00645
184.402,15.5941,1.18458,-0.00648351,1.00606
185.102,15.6158,1.18704,-0.00657412,1.00566
185.802,15.6372,1.19114,-0.006579585,1.00526
186.502,15.6587,1.19197,-0.006578796,1.00487
187.202,15.68016,1.19658,-0.0062365,1.00447
187.902,15.70166,1.19871,-0.005298319,1.00407
188.602,15.72313,1.2011,-0.004439014,1.00367
189.302,15.7446,1.20394,-0.00427445,1.00327
190.002,15.7661,1.20855,-0.004270256,1.00287
190.702,15.7874,1.20987,-0.004270012,1.00247
191.402,15.8089,1.21086,-0.00427,1.00207
192.102,15.8303,1.2151,-0.00427,1.00167
192.802,15.85175,1.21854,-0.00427,1.00127
193.502,15.87321,1.22274,-0.00427,1.00087
194.202,15.89455,1.22524,-0.004269998,1.00047
194.902,15.91591,1.22842,-0.004269973,1.00007
195.602,15.93721,1.23152,-0.004269653,0.99967
196.302,15.9586,1.23338,-0.004266726,0.99927
197.002,15.98,1.2377,-0.005918085,0.99886
197.702,16.00135,1.24089,-0.006898188,0.99846
198.402,16.02274,1.24554,-0.006908716,0.99806
199.102,16.04402,1.24615,-0.006909902,0.99765
199.802,16.06537,1.24944,-0.006909994,0.99725
200.502,16.0867,1.25535,-0.00691,0.99685
201.202,16.10809,1.25748,-0.00691,0.99644
201.902,16.12947,1.25823,-0.00691,0.99604
202.602,16.15083,1.26129,-0.00691,0.99563
203.302,16.17216,1.26225,-0.006910004,0.99522
204.002,16.1934,1.2659,-0.0069101,0.99482
204.702,16.2147,1.26602,-0.006911844,0.99441
205.402,16.23595,1.27106,-0.006938769,0.994
206.102,16.25731,1.27426,-0.007665423,0.9936
206.802,16.2786,1.27701,-0.007892452,0.99319
207.502,16.29995,1.27765,-0.007899984,0.99278
208.202,16.32124,1.28316,-0.007900023,0.99237
208.902,16.3425,1.2827,-0.007900002,0.99197
209.602,16.3637,1.28688,-0.00789999,0.99156
210.302,16.38491,1.28761,-0.007899874,0.99115
211.002,16.4062,1.29221,-0.007898128,0.99074
211.702,16.42746,1.29562,-0.007876249,0.99033
212.402,16.44875,1.29574,-0.00702506,0.98992
213.102,16.47006,1.29785,-0.00658007,0.98951
213.802,16.4913,1.30171,-0.006580079,0.9891
214.502,16.51251,1.30313,-0.00657992,0.98869
215.202,16.53376,1.3063,-0.006578088,0.98828
215.902,16.55496,1.31059,-0.006547016,0.98786
216.602,16.5762,1.31128,-0.00693657,0.98745
217.302,16.59754,1.31303,-0.00691081,0.98704
218.002,16.61882,1.31365,-0.00690625,0.98663
218.702,16.64012,1.31761,-0.008236472,0.98621
219.402,16.66135,1.31783,-0.008232646,0.9858
220.102,16.68253,1.32122,-0.00818229,0.98539
220.802,16.70372,1.32276,-0.009430586,0.98497
221.502,16.72499,1.32607,-0.009538251,0.98456
222.202,16.74621,1.32926,-0.009541763,0.98414
222.902,16.7674,1.33107,-0.009563871,0.98373
223.602,16.78864,1.33373,-0.01040399,0.98331
224.302,16.8098,1.33484,-0.01086019,0.9829
225.002,16.83096,1.33756,-0.01085994,0.98248
225.702,16.85207,1.33852,-0.01086,0.98207
226.402,16.87321,1.34038,-0.01086008,0.98165
227.102,16.89442,1.3435,-0.01086151,0.98123
227.802,16.91563,1.34556,-0.01094272,0.98082
228.502,16.93691,1.34764,-0.01221427,0.9804
229.202,16.95825,1.34821,-0.01135809,0.97998
229.902,16.9794,1.35111,-0.01085927,0.97956
230.602,17.0006,1.35198,-0.01086247,0.97914
231.302,17.02184,1.35526,-0.01224507,0.97873
232.002,17.04298,1.35658,-0.01217687,0.97831
232.702,17.06417,1.3579,-0.01217201,0.97789
233.402,17.08525,1.36057,-0.01219492,0.97747
234.102,17.1063,1.36245,-0.01277721,0.97705
234.802,17.12734,1.36613,-0.01349555,0.97663
235.502,17.14849,1.36754,-0.01350784,0.97621
236.202,17.16978,1.36922,-0.01446095,0.97579
236.902,17.191,1.37037,-0.01480842,0.97537
237.602,17.2122,1.37215,-0.01478743,0.97494
238.302,17.23338,1.37292,-0.01573476,0.97452
239.002,17.25443,1.37855,-0.01610786,0.9741
239.702,17.27554,1.37777,-0.01620141,0.97368
240.402,17.29673,1.38125,-0.01749381,0.97326
241.102,17.31789,1.38436,-0.01743446,0.97283
241.802,17.33907,1.38601,-0.01768842,0.97241
242.502,17.36015,1.38677,-0.01874772,0.97199
243.202,17.38131,1.38824,-0.0187493,0.97156
243.902,17.40247,1.38973,-0.01876189,0.97114
244.602,17.42351,1.38875,-0.0190159,0.97071
245.302,17.44471,1.39438,-0.01866277,0.97029
246.002,17.46583,1.39286,-0.01873752,0.96986
246.702,17.48692,1.39608,-0.0186522,0.96944
247.402,17.50808,1.39754,-0.02003514,0.96901
248.102,17.52918,1.40031,-0.01914101,0.96859
248.802,17.55026,1.40271,-0.02007851,0.96816
249.502,17.57134,1.40555,-0.02011663,0.96774
250.202,17.5925,1.40672,-0.02167816,0.96731
250.902,17.61352,1.40954,-0.02237652,0.96688
251.602,17.6346,1.41251,-0.02224761,0.96645
252.302,17.6557,1.41018,-0.02294738,0.96603
253.002,17.67688,1.41477,-0.02313213,0.9656
253.702,17.69807,1.41637,-0.02313671,0.96517
254.402,17.7193,1.41762,-0.02312015,0.96474
255.102,17.74042,1.4184,-0.02447206,0.96431
255.802,17.76149,1.42018,-0.02446252,0.96389
256.502,17.7826,1.42388,-0.02446126,0.96346
257.202,17.8037,1.42091,-0.02449711,0.96303
257.902,17.82478,1.42495,-0.02586063,0.9626
258.602,17.84594,1.4265,-0.02576869,0.96217
259.302,17.86705,1.42703,-0.02567834,0.96174
260.002,17.88813,1.42706,-0.02727615,0.96131
260.702,17.9092,1.43097,-0.02842338,0.96088
261.402,17.9303,1.43201,-0.02841036,0.96044
262.102,17.95137,1.43703,-0.02845889,0.96001
262.802,17.9725,1.43575,-0.02988387,0.95958
263.502,17.99363,1.43618,-0.0305688,0.95915
264.202,18.01471,1.43765,-0.03209931,0.95872
264.902,18.03582,1.43884,-0.03405921,0.95828
265.602,18.0569,1.44111,-0.03506346,0.95785
266.302,18.07798,1.44196,-0.03529697,0.95742
267.002,18.0991,1.44576,-0.03528542,0.95698
267.702,18.12014,1.44335,-0.0366358,0.95655
268.402,18.14122,1.44734,-0.03591048,0.95612
269.102,18.16238,1.44835,-0.03690811,0.95568
269.802,18.18346,1.45102,-0.03788911,0.95525
270.502,18.2046,1.45206,-0.0388309,0.95481
271.202,18.22576,1.45319,-0.04000343,0.95438
271.902,18.24684,1.45431,-0.04156505,0.95394
272.602,18.268,1.45601,-0.04233851,0.95351
273.302,18.28901,1.45971,-0.04298079,0.95307
274.002,18.31007,1.46012,-0.04453248,0.95264
274.702,18.33117,1.46122,-0.04530026,0.9522
275.402,18.35224,1.46413,-0.04595728,0.95176
276.102,18.3734,1.46588,-0.04750517,0.95133
276.802,18.3945,1.46656,-0.04784394,0.95089
277.502,18.41565,1.46838,-0.04926999,0.95045
278.202,18.43678,1.47138,-0.05077669,0.95001
278.902,18.4579,1.46984,-0.05263496,0.94958
279.602,18.47905,1.47617,-0.05418416,0.94914
280.302,18.50021,1.47688,-0.05519007,0.9487
281.002,18.5214,1.47726,-0.05571985,0.94826
281.702,18.54256,1.48124,-0.05739766,0.94782
282.402,18.56365,1.48181,-0.05903076,0.94738
283.102,18.58474,1.48482,-0.05909259,0.94694
283.802,18.60585,1.48551,-0.05881745,0.9465
284.502,18.6269,1.4865,-0.06022386,0.94606
285.202,18.64805,1.48814,-0.06034571,0.94562
285.902,18.66928,1.48891,-0.06174879,0.94518
286.602,18.6905,1.49283,-0.06172295,0.94474
287.302,18.71163,1.49577,-0.06199774,0.9443
288.002,18.73282,1.49989,-0.0625466,0.94386
288.702,18.754,1.49999,-0.06401121,0.94342
289.402,18.77516,1.50118,-0.06556787,0.94298
290.102,18.7963,1.50501,-0.0673447,0.94253
290.802,18.8175,1.50498,-0.06905936,0.94209
291.502,18.83867,1.50887,-0.07071726,0.94165
292.202,18.8598,1.51094,-0.07159254,0.94121
292.902,18.881,1.5139,-0.07439543,0.94076
293.602,18.90211,1.51521,-0.07637293,0.94032
294.302,18.92325,1.51929,-0.07832905,0.93988
295.002,18.9444,1.51946,-0.0804391,0.93943
295.702,18.9655,1.52461,-0.08264999,0.93899
296.402,18.98667,1.52464,-0.08589689,0.93855
297.102,19.0078,1.52778,-0.08706905,0.9381
297.802,19.02895,1.53156,-0.08841522,0.93766
298.502,19.0501,1.53226,-0.09016779,0.93721
299.202,19.0713,1.53486,-0.09229833,0.93677
299.902,19.09241,1.53938,-0.09459927,0.93632
300.602,19.11361,1.54319,-0.09578052,0.93588
301.302,19.13482,1.54489,-0.09787045,0.93543
302.002,19.156,1.54774,-0.09981047,0.93498
302.702,19.1772,1.54932,-0.10142,0.93454
303.402,19.19839,1.55219,-0.10271,0.93409
304.102,19.21959,1.55512,-0.10502,0.93364
304.802,19.24071,1.5588,-0.10825,0.9332
305.502,19.2619,1.5619,-0.11061,0.93275
306.202,19.2831,1.56431,-0.11271,0.9323
306.902,19.30424,1.56829,-0.1145,0.93185
307.602,19.3254,1.5691,-0.11666,0.93141
308.302,19.3466,1.57292,-0.11924,0.93096
309.002,19.3678,1.57621,-0.12112,0.93051
309.702,19.38899,1.58198,-0.1233,0.93006
310.402,19.41014,1.58443,-0.12561,0.92961
311.102,19.43135,1.58564,-0.12828,0.92916
311.802,19.45251,1.58857,-0.13086,0.92871
312.502,19.47366,1.591,-0.13339,0.92826
313.202,19.49488,1.59721,-0.13631,0.92781
313.902,19.51611,1.60123,-0.14085,0.92736
314.602,19.5373,1.60391,-0.14383,0.92691
315.302,19.55859,1.60811,-0.14749,0.92646
316.002,19.5798,1.61186,-0.15034,0.92601
316.702,19.60099,1.61486,-0.1535,0.92556
317.402,19.62227,1.62035,-0.15802,0.92511
318.102,19.64348,1.62556,-0.16116,0.92466
318.802,19.6647,1.62961,-0.16361,0.9242
319.502,19.68596,1.63356,-0.16694,0.92375
320.202,19.70714,1.64185,-0.16981,0.9233
320.902,19.72834,1.64527,-0.17358,0.92285
321.602,19.7496,1.65192,-0.17761,0.92239
322.302,19.77086,1.65503,-0.18054,0.92194
323.002,19.79211,1.66264,-0.18271,0.92149
323.702,19.81325,1.66695,-0.18491,0.92103
324.402,19.83436,1.67389,-0.18856,0.92058
325.102,19.8554,1.68009,-0.19288,0.92013
325.802,19.87659,1.688,-0.19742,0.91967
326.502,19.89797,1.69507,-0.20248,0.91922
327.202,19.91938,1.70266,-0.20638,0.91876
327.902,19.9408,1.70904,-0.20982,0.91831
328.602,19.9621,1.71893,-0.21471,0.91785
329.302,19.98337,1.72669,-0.2195,0.9174
330.002,20.0046,1.73777,-0.22412,0.91694
330.702,20.02593,1.74479,-0.22958,0.91649
331.402,20.04731,1.75507,-0.237,0.91603
332.102,20.06859,1.76556,-0.24502,0.91558
332.802,20.08997,1.77848,-0.25029,0.91512
333.502,20.11131,1.78872,-0.25703,0.91466
334.202,20.13261,1.79963,-0.26284,0.91421
334.902,20.15397,1.81055,-0.27027,0.91375
335.602,20.1753,1.82382,-0.27606,0.91329
336.302,20.1966,1.8359,-0.28434,0.91284
337.002,20.21797,1.84863,-0.29066,0.91238
337.702,20.23934,1.86273,-0.29816,0.91192
338.402,20.26069,1.87553,-0.30555,0.91146
339.102,20.28207,1.89086,-0.31297,0.911
339.802,20.30347,1.90747,-0.32115,0.91055
340.502,20.3248,1.92645,-0.3276,0.91009
341.202,20.3462,1.94171,-0.33598,0.90963
341.902,20.36756,1.95925,-0.3434,0.90917
342.602,20.38891,1.97719,-0.35231,0.90871
343.302,20.41031,1.99516,-0.3599,0.90825
344.002,20.4316,2.0162,-0.37002,0.90779
344.702,20.45307,2.03573,-0.37866,0.90733
345.402,20.47446,2.05907,-0.38906,0.90687
346.102,20.49586,2.08005,-0.39936,0.90641
346.802,20.51727,2.10159,-0.41037,0.90595
347.502,20.5387,2.12691,-0.42093,0.90549
348.202,20.56015,2.15733,-0.43332,0.90503
348.902,20.5816,2.18,-0.44676,0.90457
349.602,20.60308,2.20824,-0.45867,0.90411
350.302,20.62454,2.23549,-0.47156,0.90364
351.002,20.64605,2.26177,-0.48264,0.90318
351.702,20.66747,2.29148,-0.49621,0.90272
352.402,20.68893,2.32208,-0.5071,0.90226
353.102,20.71036,2.35507,-0.52055,0.9018
353.802,20.7318,2.38594,-0.5311,0.90133
354.502,20.7533,2.42112,-0.54712,0.90087
355.202,20.77484,2.45621,-0.55923,0.90041
355.902,20.79639,2.49446,-0.57457,0.89994
356.602,20.81776,2.53119,-0.58638,0.89948
357.302,20.83929,2.56929,-0.59948,0.89902
358.002,20.8608,2.61092,-0.61586,0.89855
358.702,20.88234,2.65065,-0.63665,0.89809
359.402,20.90405,2.69541,-0.65892,0.89762
360.102,20.9256,2.74194,-0.67688,0.89716
360.802,20.94726,2.78756,-0.69699,0.8967
361.502,20.96892,2.83868,-0.71389,0.89623
362.202,20.99052,2.88833,-0.73675,0.89577
362.902,21.01216,2.94124,-0.75592,0.8953
363.602,21.03379,2.99158,-0.78096,0.89484
364.302,21.0553,3.04808,-0.80243,0.89437
365.002,21.07688,3.10302,-0.82789,0.8939
365.702,21.0985,3.16203,-0.85114,0.89344
366.402,21.1201,3.22262,-0.87701,0.89297
367.102,21.14174,3.28593,-0.90399,0.89251
367.802,21.16339,3.3469,-0.92956,0.89204
368.502,21.18502,3.41298,-0.95815,0.89157
369.202,21.20674,3.48121,-0.98448,0.8911
369.902,21.22843,3.54596,-1.01614,0.89064
370.602,21.25015,3.62046,-1.04309,0.89017
371.302,21.27187,3.69213,-1.07771,0.8897
372.002,21.29361,3.76736,-1.1059,0.88924
372.702,21.31541,3.84407,-1.1414,0.88877
373.402,21.3371,3.9214,-1.17215,0.8883
374.102,21.35892,3.99822,-1.20797,0.88783
374.802,21.38071,4.08027,-1.24384,0.88736
375.502,21.4025,4.15997,-1.28092,0.88689
376.202,21.4242,4.24375,-1.31953,0.88642
376.902,21.44608,4.3278,-1.35621,0.88596
377.602,21.46782,4.41076,-1.40027,0.88549
378.302,21.48965,4.4975,-1.43808,0.88502
379.002,21.51151,4.58302,-1.48493,0.88455
379.702,21.53331,4.66439,-1.5235,0.88408
380.402,21.5552,4.75004,-1.57288,0.88361
381.102,21.5771,4.83268,-1.61494,0.88314
381.802,21.5989,4.9114,-1.6637,0.88267
382.502,21.62071,4.98855,-1.71133,0.8822
383.202,21.6425,5.06683,-1.75969,0.88172
383.902,21.6644,5.13869,-1.81211,0.88125
384.602,21.6863,5.2111,-1.85991,0.88078
385.302,21.70816,5.27601,-1.91711,0.88031
386.002,21.72991,5.33411,-1.96359,0.87984
386.702,21.75185,5.38912,-2.01472,0.87937
387.402,21.77375,5.43825,-2.07457,0.8789
388.102,21.79574,5.48185,-2.14189,0.87842
388.802,21.81784,5.51268,-2.1986,0.87795
389.502,21.83974,5.53509,-2.25272,0.87748
390.202,21.86166,5.55228,-2.30671,0.87701
390.902,21.8836,5.55691,-2.36082,0.87653
391.602,21.90544,5.55144,-2.41513,0.87606
392.302,21.92726,5.53434,-2.4703,0.87559
393.002,21.9491,5.5069,-2.52501,0.87511
393.702,21.9709,5.46557,-2.5787,0.87464
394.402,21.9927,5.41482,-2.63185,0.87417
395.102,22.01465,5.34955,-2.68543,0.87369
395.802,22.03652,5.26999,-2.73874,0.87322
396.502,22.0583,5.17469,-2.79025,0.87274
397.202,22.08012,5.06485,-2.84574,0.87227
397.902,22.10184,4.94148,-2.88302,0.8718
398.602,22.12351,4.80241,-2.92967,0.87132
399.302,22.1452,4.65322,-2.97022,0.87085
400.002,22.16687,4.48509,-3.01491,0.87037
400.702,22.1885,4.30499,-3.05285,0.8699
401.402,22.2101,4.11674,-3.09204,0.86942
402.102,22.23171,3.91118,-3.12856,0.86894
402.802,22.2533,3.69609,-3.16135,0.86847
403.502,22.2749,3.47066,-3.19409,0.86799
404.202,22.29648,3.24454,-3.22258,0.86752
404.902,22.31794,3.01622,-3.25175,0.86704
405.602,22.3394,2.78824,-3.27336,0.86656
406.302,22.36082,2.56362,-3.2967,0.86609
407.002,22.38221,2.34065,-3.31283,0.86561
407.702,22.4036,2.12918,-3.33032,0.86513
408.402,22.425,1.92675,-3.34269,0.86465
409.102,22.44632,1.73535,-3.35521,0.86418
409.802,22.46771,1.55714,-3.36447,0.8637
410.502,22.4892,1.39461,-3.37369,0.86322
411.202,22.51049,1.24485,-3.38081,0.86274
411.902,22.53171,1.11912,-3.38644,0.86227
412.602,22.553,1.00376,-3.39077,0.86179
413.302,22.57431,0.90128,-3.39471,0.86131
414.002,22.59569,0.81623,-3.39609,0.86083
414.702,22.61729,0.74105,-3.39828,0.86035
415.402,22.63886,0.67583,-3.40065,0.85987
416.102,22.66038,0.6249,-3.40258,0.85939
416.802,22.68192,0.5798,-3.40409,0.85891
417.502,22.70341,0.54602,-3.40503,0.85843
418.202,22.7249,0.51188,-3.40717,0.85795
418.902,22.74638,0.48261,-3.40999,0.85747
419.602,22.76793,0.45832,-3.41169,0.85699
420.302,22.7895,0.44147,-3.4127,0.85651
421.002,22.81109,0.42293,-3.41168,0.85603
421.702,22.8327,0.4085,-3.4109,0.85555
422.402,22.85428,0.39551,-3.41139,0.85507
423.102,22.876,0.39016,-3.41233,0.85459
423.802,22.89764,0.37788,-3.41356,0.85411
424.502,22.91938,0.36853,-3.41376,0.85363
425.202,22.94115,0.36331,-3.41386,0.85315
425.902,22.9629,0.35838,-3.4152,0.85267
426.602,22.9846,0.35298,-3.41585,0.85218
427.302,23.00627,0.34912,-3.41695,0.8517
428.002,23.028,0.3413,-3.4183,0.85122
428.702,23.04974,0.34196,-3.41942,0.85074
429.402,23.07155,0.33579,-3.42131,0.85026
430.102,23.09335,0.33745,-3.42263,0.84977
430.802,23.11518,0.33014,-3.42476,0.84929
431.502,23.137,0.32647,-3.42585,0.84881
432.202,23.15879,0.32605,-3.4267,0.84833
432.902,23.18062,0.32411,-3.42714,0.84784
433.602,23.2024,0.32113,-3.42877,0.84736
434.302,23.22425,0.31975,-3.42954,0.84688
435.002,23.24615,0.31899,-3.43028,0.84639
435.702,23.26803,0.3157,-3.43166,0.84591
436.402,23.28997,0.31474,-3.43097,0.84542
437.102,23.31174,0.31057,-3.4303,0.84494
437.802,23.33363,0.31197,-3.43153,0.84446
438.502,23.3555,0.30842,-3.43164,0.84397
439.202,23.37746,0.30895,-3.43164,0.84349
439.902,23.39953,0.30651,-3.43163,0.843
440.602,23.42146,0.30592,-3.43299,0.84252
441.302,23.44342,0.30478,-3.43293,0.84203
442.002,23.4653,0.30299,-3.43402,0.84155
442.702,23.4873,0.30128,-3.43527,0.84106
443.402,23.50919,0.29945,-3.43701,0.84058
444.102,23.53117,0.30083,-3.43834,0.84009
444.802,23.55317,0.2985,-3.43896,0.8396
445.502,23.5752,0.29564,-3.44046,0.83912
446.202,23.59731,0.2973,-3.44224,0.83863
446.902,23.6193,0.29583,-3.44364,0.83815
447.602,23.64134,0.29538,-3.4438,0.83766
448.302,23.66335,0.29618,-3.44502,0.83717
449.002,23.68533,0.29161,-3.44493,0.83669
449.702,23.70737,0.29007,-3.44631,0.8362
450.402,23.72939,0.29066,-3.44631,0.83571
451.102,23.7513,0.28861,-3.44779,0.83522
451.802,23.7733,0.28748,-3.4475,0.83474
452.502,23.79535,0.2912,-3.44838,0.83425
453.202,23.81746,0.2872,-3.4484,0.83376
453.902,23.8397,0.28538,-3.44839,0.83327
454.602,23.86186,0.28778,-3.44984,0.83279
455.302,23.88403,0.28576,-3.45092,0.8323
456.002,23.90609,0.28577,-3.45169,0.83181
456.702,23.92824,0.28437,-3.45338,0.83132
457.402,23.95034,0.28194,-3.45566,0.83083
458.102,23.97245,0.28355,-3.45717,0.83034
458.802,23.99457,0.28182,-3.45794,0.82985
459.502,24.0166,0.28242,-3.45848,0.82936
460.202,24.03867,0.28391,-3.45974,0.82888
460.902,24.06072,0.27895,-3.45983,0.82839
461.602,24.0829,0.27902,-3.46136,0.8279
462.302,24.10509,0.28035,-3.46152,0.82741
463.002,24.12733,0.2776,-3.46271,0.82692
463.702,24.14956,0.2788,-3.46268,0.82643
464.402,24.17176,0.27828,-3.46268,0.82594
465.102,24.1939,0.27905,-3.46272,0.82545
465.802,24.2161,0.27531,-3.46407,0.82496
466.502,24.23827,0.27386,-3.46419,0.82447
467.202,24.26041,0.2734,-3.46586,0.82397
467.902,24.2826,0.27454,-3.46673,0.82348
468.602,24.30479,0.27271,-3.46784,0.82299
469.302,24.32699,0.27433,-3.46816,0.8225
470.002,24.34918,0.27076,-3.46817,0.82201
470.702,24.3714,0.26857,-3.46967,0.82152
471.402,24.39367,0.27086,-3.46994,0.82103
472.102,24.41587,0.27219,-3.4711,0.82054
472.802,24.43805,0.27202,-3.47254,0.82004
473.502,24.46024,0.26919,-3.47267,0.81955
474.202,24.48246,0.27013,-3.47402,0.81906
474.902,24.50467,0.26899,-3.47485,0.81857
475.602,24.52694,0.26838,-3.4755,0.81807
476.302,24.54918,0.26526,-3.47696,0.81758
477.002,24.57137,0.2671,-3.47771,0.81709
477.702,24.59366,0.2677,-3.47821,0.8166
478.402,24.61587,0.26221,-3.4795,0.8161
479.102,24.63815,0.26355,-3.4798,0.81561
479.802,24.6604,0.26557,-3.48082,0.81512
480.502,24.6827,0.26458,-3.48121,0.81462
481.202,24.70505,0.26361,-3.48267,0.81413
481.902,24.7273,0.26259,-3.48406,0.81363
482.602,24.74963,0.26412,-3.48285,0.81314
483.302,24.77186,0.26343,-3.4844,0.81265
484.002,24.7941,0.26342,-3.48519,0.81215
484.702,24.81632,0.26068,-3.48568,0.81166
485.402,24.83855,0.26027,-3.48569,0.81116
486.102,24.8609,0.25998,-3.48583,0.81067
486.802,24.88318,0.2614,-3.48722,0.81017
487.502,24.90543,0.25917,-3.48702,0.80968
488.202,24.92772,0.2591,-3.48612,0.80918
488.902,24.9499,0.25885,-3.48615,0.80869
489.602,24.9722,0.25852,-3.48699,0.80819
490.302,24.99454,0.2576,-3.48748,0.8077
491.002,25.01687,0.25817,-3.48815,0.8072
491.702,25.03923,0.25686,-3.48938,0.80671
492.402,25.06159,0.25624,-3.49015,0.80621
493.102,25.08394,0.25747,-3.49147,0.80571
493.802,25.1063,0.25799,-3.49142,0.80522
494.502,25.12862,0.25616,-3.49265,0.80472
495.202,25.15087,0.25791,-3.49379,0.80423
495.902,25.17318,0.25695,-3.49468,0.80373
496.602,25.19554,0.2626,-3.49519,0.80323
497.302,25.21797,0.25747,-3.4979,0.80274
498.002,25.24044,0.26009,-3.49799,0.80224
498.702,25.26285,0.2582,-3.49954,0.80174
499.402,25.2852,0.25927,-3.4999,0.80124
500.102,25.30753,0.25972,-3.50085,0.80075
500.802,25.32988,0.25735,-3.50084,0.80025
501.502,25.35229,0.26017,-3.50076,0.79975
502.202,25.3747,0.2558,-3.50089,0.79925
502.902,25.39711,0.25726,-3.50222,0.79876
503.602,25.4194,0.25674,-3.50089,0.79826
504.302,25.4418,0.2556,-3.50083,0.79776
505.002,25.4642,0.25671,-3.50185,0.79726
505.702,25.48657,0.25493,-3.50216,0.79676
506.402,25.50901,0.25552,-3.50217,0.79626
507.102,25.53141,0.25445,-3.50079,0.79577
507.802,25.55382,0.25385,-3.50084,0.79527
508.502,25.57623,0.25175,-3.50085,0.79477
509.202,25.5987,0.25125,-3.50085,0.79427
509.902,25.62108,0.25384,-3.50092,0.79377
510.602,25.6435,0.25224,-3.50214,0.79327
511.302,25.66592,0.24989,-3.50328,0.79277
512.002,25.68834,0.25065,-3.50348,0.79227
512.702,25.7108,0.25162,-3.50347,0.79177
513.402,25.73326,0.25284,-3.50472,0.79127
514.102,25.75575,0.25109,-3.50549,0.79077
514.802,25.77815,0.25205,-3.50636,0.79027
515.502,25.80061,0.25186,-3.50801,0.78977
516.202,25.82312,0.25038,-3.50926,0.78927
516.902,25.8456,0.24975,-3.51075,0.78877
517.602,25.8681,0.24977,-3.51218,0.78827
518.302,25.89055,0.2503,-3.51216,0.78777
519.002,25.9131,0.25065,-3.51351,0.78727
519.702,25.9356,0.24973,-3.51346,0.78676
520.402,25.95814,0.25352,-3.51346,0.78626
521.102,25.9807,0.25236,-3.51346,0.78576
521.802,26.00314,0.25556,-3.51346,0.78526
522.502,26.02573,0.25275,-3.51346,0.78476
523.202,26.04821,0.25501,-3.51346,0.78426
523.902,26.07076,0.25366,-3.51346,0.78376
524.602,26.0933,0.25312,-3.51347,0.78325
525.302,26.11575,0.25393,-3.51377,0.78275
526.002,26.13826,0.25495,-3.51491,0.78225
526.702,26.16076,0.25583,-3.51492,0.78175
527.402,26.18326,0.25642,-3.51625,0.78124
528.102,26.20581,0.25561,-3.51611,0.78074
528.802,26.2284,0.25654,-3.51751,0.78024
529.502,26.25092,0.25687,-3.51755,0.77974
530.202,26.27344,0.25644,-3.5189,0.77923
530.902,26.29598,0.25718,-3.51941,0.77873
531.602,26.3185,0.25695,-3.52017,0.77823
532.302,26.34105,0.25766,-3.52122,0.77772
533.002,26.36366,0.25734,-3.52147,0.77722
533.702,26.3863,0.25779,-3.52147,0.77672
534.402,26.40884,0.26,-3.52147,0.77621
535.102,26.43145,0.26265,-3.52147,0.77571
535.802,26.454,0.26453,-3.52147,0.7752
536.502,26.47659,0.26531,-3.52131,0.7747
537.202,26.4991,0.26921,-3.52047,0.7742
537.902,26.5216,0.27052,-3.52048,0.77369
538.602,26.5441,0.27189,-3.52048,0.77319
539.302,26.5666,0.27408,-3.52048,0.77268
540.002,26.5893,0.27519,-3.52048,0.77218
540.702,26.6119,0.27565,-3.52063,0.77167
541.402,26.63454,0.27866,-3.52322,0.77117
542.102,26.6571,0.28067,-3.52312,0.77066
542.802,26.6797,0.28885,-3.52312,0.77016
543.502,26.70225,0.28942,-3.52312,0.76965
544.202,26.7248,0.29261,-3.52312,0.76915
544.902,26.7475,0.29374,-3.52296,0.76864
545.602,26.77018,0.28969,-3.5218,0.76813
546.302,26.7928,0.29302,-3.52268,0.76763
547.002,26.81547,0.29321,-3.52312,0.76712
547.702,26.8382,0.29395,-3.52393,0.76662
548.402,26.8608,0.29533,-3.52443,0.76611
549.102,26.8835,0.29372,-3.52439,0.7656
549.802,26.90612,0.29731,-3.52556,0.7651
550.502,26.9287,0.2956,-3.52574,0.76459
551.202,26.95135,0.29478,-3.52574,0.76408
551.902,26.974,0.2974,-3.52742,0.76358
552.602,26.99669,0.29652,-3.52793,0.76307
553.302,27.0193,0.29629,-3.52871,0.76256
554.002,27.04205,0.29583,-3.52872,0.76206
554.702,27.0648,0.29557,-3.53011,0.76155
555.402,27.08745,0.29346,-3.53001,0.76104
556.102,27.11022,0.29129,-3.53136,0.76053
556.802,27.13297,0.2935,-3.53284,0.76003
557.502,27.15573,0.29154,-3.53277,0.75952
558.202,27.17843,0.29222,-3.53398,0.75901
558.902,27.2011,0.29224,-3.53482,0.7585
559.602,27.2238,0.29125,-3.53612,0.758
560.302,27.24653,0.2922,-3.53606,0.75749
561.002,27.2693,0.28871,-3.53607,0.75698
561.702,27.292,0.28682,-3.53689,0.75647
562.402,27.3147,0.28761,-3.53737,0.75596
563.102,27.3374,0.28772,-3.53737,0.75545
563.802,27.36,0.28625,-3.53672,0.75494
564.502,27.3827,0.28027,-3.53607,0.75444
565.202,27.4055,0.28157,-3.53609,0.75393
565.902,27.42825,0.27906,-3.53543,0.75342
566.602,27.45112,0.27945,-3.5354,0.75291
567.302,27.47397,0.27348,-3.5354,0.7524
568.002,27.49667,0.27485,-3.5354,0.75189
568.702,27.51943,0.27188,-3.5354,0.75138
569.402,27.5422,0.27144,-3.5354,0.75087
570.102,27.56505,0.26704,-3.53539,0.75036
570.802,27.58788,0.26581,-3.53531,0.74985
571.502,27.6107,0.26541,-3.5361,0.74934
572.202,27.6336,0.26165,-3.53655,0.74883
572.902,27.65632,0.25953,-3.53736,0.74832
573.602,27.67908,0.26115,-3.5386,0.74781
574.302,27.70185,0.25681,-3.53969,0.7473
575.002,27.7246,0.25513,-3.53989,0.74679
575.702,27.74744,0.25389,-3.54221,0.74628
576.402,27.77028,0.25195,-3.54221,0.74577
577.102,27.79308,0.25012,-3.54252,0.74526
577.802,27.8159,0.24764,-3.54253,0.74475
578.502,27.83868,0.24643,-3.54252,0.74423
579.202,27.8615,0.24505,-3.54182,0.74372
579.902,27.8843,0.24387,-3.54187,0.74321
580.602,27.90713,0.24127,-3.54187,0.7427
581.302,27.92997,0.23876,-3.54187,0.74219
582.002,27.9528,0.23834,-3.54187,0.74168
582.702,27.9756,0.23533,-3.54187,0.74117
583.402,27.9985,0.2303,-3.54187,0.74065
584.102,28.0213,0.23326,-3.54196,0.74014
584.802,28.0442,0.22938,-3.5432,0.73963
585.502,28.06697,0.22646,-3.54319,0.73912
586.202,28.0898,0.22438,-3.54319,0.73861
586.902,28.1126,0.22152,-3.54408,0.73809
587.602,28.1355,0.21714,-3.5446,0.73758
588.302,28.1585,0.21909,-3.54461,0.73707
589.002,28.18125,0.21204,-3.54465,0.73656
589.702,28.2042,0.20963,-3.54648,0.73604
590.402,28.227,0.20871,-3.54659,0.73553
591.102,28.2498,0.20813,-3.54659,0.73502
591.802,28.27277,0.20509,-3.54695,0.7345
592.502,28.2957,0.20327,-3.54695,0.73399
593.202,28.3185,0.20039,-3.54777,0.73348
593.902,28.3415,0.1969,-3.54824,0.73296
594.602,28.3644,0.19609,-3.54829,0.73245
595.302,28.38735,0.19204,-3.5496,0.73194
596.002,28.4103,0.19235,-3.54955,0.73142
596.702,28.43321,0.19013,-3.54956,0.73091
597.402,28.4561,0.18876,-3.54987,0.7304
598.102,28.4791,0.19105,-3.54997,0.72988
598.802,28.502,0.18622,-3.54955,0.72937
599.502,28.52491,0.18477,-3.54955,0.72885
600.202,28.5478,0.18314,-3.54951,0.72834
600.902,28.57074,0.18304,-3.55089,0.72782
601.602,28.59367,0.17881,-3.55087,0.72731
602.302,28.61662,0.18278,-3.55084,0.7268
603.002,28.6396,0.17957,-3.5512,0.72628
603.702,28.66253,0.17949,-3.55087,0.72577
604.402,28.6855,0.17918,-3.55084,0.72525
605.102,28.70852,0.17288,-3.55002,0.72474
605.802,28.73149,0.17259,-3.54955,0.72422
606.502,28.7545,0.17156,-3.54956,0.72371
607.202,28.7774,0.17352,-3.54844,0.72319
607.902,28.8003,0.17157,-3.54823,0.72267
608.602,28.82325,0.16978,-3.54822,0.72216
609.302,28.8461,0.16714,-3.54921,0.72164
610.002,28.86911,0.16671,-3.54954,0.72113
610.702,28.89207,0.1673,-3.5495,0.72061
611.402,28.91507,0.16789,-3.55085,0.7201
612.102,28.938,0.16509,-3.55089,0.71958
612.802,28.96094,0.16466,-3.55283,0.71906
613.502,28.9839,0.16858,-3.55388,0.71855
614.202,29.00685,0.16682,-3.55506,0.71803
614.902,29.0299,0.16736,-3.55503,0.71752
615.602,29.0528,0.16527,-3.55503,0.717
616.302,29.07576,0.16355,-3.55494,0.71648
617.002,29.09872,0.16507,-3.55637,0.71597
617.702,29.1217,0.16491,-3.55499,0.71545
618.402,29.1446,0.16438,-3.55503,0.71493
619.102,29.16759,0.16443,-3.55503,0.71441
619.802,29.1905,0.16143,-3.55503,0.7139
620.502,29.21347,0.16249,-3.55503,0.71338
621.202,29.2365,0.16252,-3.55503,0.71286
621.902,29.25941,0.16328,-3.55503,0.71235
622.602,29.28241,0.161,-3.55503,0.71183
623.302,29.3053,0.16423,-3.55503,0.71131
624.002,29.3282,0.16177,-3.55503,0.71079
624.702,29.35118,0.1649,-3.55503,0.71028
625.402,29.37417,0.16538,-3.55503,0.70976
626.102,29.3972,0.16581,-3.55394,0.70924
626.802,29.4202,0.16121,-3.55504,0.70872
627.502,29.44316,0.16244,-3.55504,0.7082
628.202,29.4661,0.16354,-3.55503,0.70769
628.902,29.489,0.16481,-3.55503,0.70717
629.602,29.512,0.16117,-3.55643,0.70665
630.302,29.535,0.16207,-3.55681,0.70613
631.002,29.558,0.16485,-3.55767,0.70561
631.702,29.58104,0.16456,-3.55762,0.70509
632.402,29.604,0.1661,-3.5563,0.70458
633.102,29.62702,0.16321,-3.55635,0.70406
633.802,29.65004,0.16294,-3.55668,0.70354
634.502,29.673,0.16616,-3.55765,0.70302
635.202,29.696,0.16321,-3.55769,0.7025
635.902,29.719,0.16374,-3.55828,0.70198
636.602,29.74199,0.16381,-3.55833,0.70146
637.302,29.765,0.16433,-3.55833,0.70094
638.002,29.78818,0.16607,-3.55833,0.70042
638.702,29.81123,0.16236,-3.55877,0.6999
639.402,29.83432,0.16412,-3.55961,0.69938
640.102,29.85735,0.16048,-3.55964,0.69886
640.802,29.8803,0.16412,-3.55964,0.69834
641.502,29.90333,0.16306,-3.55971,0.69782
642.202,29.9263,0.16095,-3.55836,0.6973
642.902,29.9494,0.16285,-3.55832,0.69679
643.602,29.9724,0.1625,-3.55832,0.69626
644.302,29.99547,0.16316,-3.55832,0.69574
645.002,30.0186,0.16096,-3.55832,0.69522
645.702,30.04161,0.16492,-3.55832,0.6947
646.402,30.06468,0.16074,-3.55831,0.69418
647.102,30.0877,0.16439,-3.55823,0.69366
647.802,30.11076,0.16404,-3.5593,0.69314
648.502,30.1338,0.16122,-3.55931,0.69262
649.202,30.15693,0.16495,-3.55926,0.6921
649.902,30.18,0.16385,-3.56063,0.69158
650.602,30.20318,0.16368,-3.56063,0.69106
651.302,30.2263,0.16119,-3.56063,0.69054
652.002,30.2494,0.16385,-3.56063,0.69002
652.702,30.2726,0.16606,-3.56081,0.6895
653.402,30.29573,0.16526,-3.56067,0.68898
654.102,30.31883,0.16415,-3.56207,0.68845
654.802,30.3419,0.16186,-3.56215,0.68793
655.502,30.365,0.1632,-3.56324,0.68741
656.202,30.38805,0.16552,-3.56428,0.68689
656.902,30.41119,0.16201,-3.56628,0.68637
657.602,30.43426,0.168,-3.56622,0.68585
658.302,30.4574,0.16322,-3.56733,0.68533
659.002,30.48057,0.16357,-3.56755,0.6848
659.702,30.50364,0.16515,-3.5667,0.68428
660.402,30.52678,0.16368,-3.5655,0.68376
661.102,30.54992,0.16418,-3.56523,0.68324
661.802,30.57297,0.16136,-3.5646,0.68272
662.502,30.5961,0.16163,-3.56393,0.68219
663.202,30.61928,0.16345,-3.56332,0.68167
663.902,30.6424,0.1653,-3.56264,0.68115
664.602,30.6655,0.16199,-3.56151,0.68063
665.302,30.6886,0.16247,-3.56128,0.6801
666.002,30.7117,0.16378,-3.56128,0.67958
666.702,30.7348,0.1646,-3.56128,0.67906
667.402,30.758,0.16341,-3.56128,0.67854
668.102,30.7811,0.16604,-3.56123,0.67801
668.802,30.8042,0.16399,-3.56065,0.67749
669.502,30.82729,0.1656,-3.56063,0.67697
670.202,30.85043,0.16688,-3.56063,0.67644
670.902,30.87361,0.16567,-3.5623,0.67592
671.602,30.89675,0.16833,-3.56282,0.6754
672.302,30.91992,0.16847,-3.56359,0.67487
673.002,30.9431,0.17055,-3.5645,0.67435
673.702,30.9662,0.16539,-3.56489,0.67383
674.402,30.98927,0.16812,-3.5649,0.6733
675.102,31.0122,0.16571,-3.56499,0.67278
675.802,31.0353,0.17025,-3.56627,0.67226
676.502,31.0584,0.16705,-3.56622,0.67173
677.202,31.0816,0.16596,-3.56622,0.67121
677.902,31.1049,0.16724,-3.56631,0.67069
678.602,31.12805,0.16454,-3.56491,0.67016
679.302,31.1513,0.16817,-3.5649,0.66964
680.002,31.17452,0.16681,-3.56489,0.66911
680.702,31.19768,0.16964,-3.56463,0.66859
681.402,31.2208,0.16945,-3.56457,0.66807
682.102,31.244,0.16939,-3.56449,0.66754
682.802,31.26721,0.17034,-3.56586,0.66702
683.502,31.2904,0.1691,-3.56591,0.66649
684.202,31.31359,0.16729,-3.56733,0.66597
684.902,31.33677,0.16826,-3.56709,0.66544
685.602,31.3598,0.1687,-3.56699,0.66492
686.302,31.38301,0.17011,-3.56667,0.66439
687.002,31.40617,0.17159,-3.56667,0.66387
687.702,31.42938,0.17086,-3.56538,0.66335
688.402,31.4527,0.17087,-3.56533,0.66282
689.102,31.476,0.17166,-3.56533,0.6623
689.802,31.49925,0.17157,-3.56661,0.66177
690.502,31.5224,0.17372,-3.56668,0.66125
691.202,31.54563,0.17402,-3.56817,0.66072
691.902,31.5688,0.17084,-3.56832,0.6602
692.602,31.59208,0.17022,-3.56938,0.65967
693.302,31.61526,0.17596,-3.5694,0.65915
694.002,31.63847,0.17361,-3.5694,0.65862
694.702,31.6616,0.1745,-3.5694,0.65809
695.402,31.68475,0.17393,-3.56915,0.65757
696.102,31.7081,0.17318,-3.56806,0.65704
696.802,31.7313,0.1757,-3.56808,0.65652
697.502,31.7546,0.17496,-3.56808,0.65599
698.202,31.7779,0.17513,-3.56808,0.65547
698.902,31.8011,0.17305,-3.56851,0.65494
699.602,31.8242,0.17737,-3.56937,0.65442
700.302,31.84747,0.17469,-3.5694,0.65389
701.002,31.87074,0.17741,-3.5694,0.65336
701.702,31.894,0.17386,-3.5694,0.65284
702.402,31.9173,0.17577,-3.5694,0.65231
703.102,31.94057,0.17333,-3.56937,0.65179
703.802,31.9638,0.1742,-3.56876,0.65126
704.502,31.987,0.17415,-3.56874,0.65073
705.202,32.01034,0.17546,-3.56874,0.65021
705.902,32.0336,0.1758,-3.56874,0.64968
706.602,32.05693,0.17461,-3.56874,0.64915
707.302,32.0802,0.18076,-3.56874,0.64863
708.002,32.10348,0.17916,-3.56781,0.6481
708.702,32.12676,0.17865,-3.56744,0.64757
709.402,32.15003,0.18006,-3.56743,0.64705
710.102,32.17335,0.17811,-3.56743,0.64652
710.802,32.19668,0.17989,-3.56743,0.646
711.502,32.21992,0.18225,-3.56775,0.64547
712.202,32.24317,0.17933,-3.56873,0.64494
712.902,32.2664,0.1816,-3.56936,0.64441
713.602,32.28967,0.18037,-3.57006,0.64389
714.302,32.3129,0.17853,-3.57019,0.64336
715.002,32.3362,0.17728,-3.57142,0.64283
715.702,32.3594,0.1814,-3.57138,0.64231
716.402,32.38256,0.18095,-3.57196,0.64178
717.102,32.40589,0.18212,-3.57267,0.64125
717.802,32.42918,0.18026,-3.57269,0.64073
718.502,32.45251,0.17977,-3.57267,0.6402
719.202,32.47592,0.18184,-3.57129,0.63967
719.902,32.49926,0.18164,-3.57137,0.63914
720.602,32.52267,0.1795,-3.57137,0.63862
721.302,32.54605,0.17684,-3.57137,0.63809
722.002,32.5694,0.17763,-3.57137,0.63756
722.702,32.59278,0.181,-3.57137,0.63703
723.402,32.61614,0.17908,-3.57137,0.63651
724.102,32.6396,0.17694,-3.57137,0.63598
724.802,32.66303,0.17902,-3.57137,0.63545
725.502,32.6864,0.18024,-3.57137,0.63492
726.202,32.7098,0.18128,-3.57137,0.6344
726.902,32.7331,0.18196,-3.57134,0.63387
727.602,32.75647,0.18218,-3.57252,0.63334
728.302,32.77987,0.18171,-3.57269,0.63281
729.002,32.80324,0.1811,-3.57269,0.63228
729.702,32.8266,0.18213,-3.57269,0.63176
730.402,32.85,0.17891,-3.57269,0.63123
731.102,32.8733,0.18289,-3.57388,0.6307
731.802,32.89669,0.18237,-3.57401,0.63017
732.502,32.92007,0.18325,-3.57401,0.62964
733.202,32.9434,0.18185,-3.57401,0.62912
733.902,32.9668,0.18227,-3.57401,0.62859
734.602,32.99017,0.18612,-3.57401,0.62806
735.302,33.01359,0.18024,-3.57401,0.62753
736.002,33.037,0.18077,-3.57401,0.627
736.702,33.06051,0.18432,-3.57401,0.62647
737.402,33.08398,0.1846,-3.57401,0.62595
738.102,33.1074,0.18812,-3.57401,0.62542
738.802,33.13082,0.18302,-3.57401,0.62489
739.502,33.15418,0.18631,-3.57402,0.62436
740.202,33.17755,0.1851,-3.57289,0.62383
740.902,33.20088,0.18859,-3.5727,0.6233
741.602,33.22422,0.18481,-3.57291,0.62277
742.302,33.24758,0.18741,-3.57404,0.62225
743.002,33.27088,0.18487,-3.57401,0.62172
743.702,33.2943,0.1901,-3.57401,0.62119
744.402,33.3178,0.18985,-3.57401,0.62066
745.102,33.34114,0.1865,-3.57401,0.62013
745.802,33.3644,0.19093,-3.57403,0.6196
746.502,33.38778,0.19175,-3.57481,0.61907
747.202,33.41121,0.19581,-3.575,0.61854
747.902,33.43477,0.19152,-3.575,0.61801
748.602,33.45841,0.19297,-3.575,0.61749
749.302,33.4818,0.19167,-3.575,0.61696
750.002,33.50517,0.19364,-3.575,0.61643
750.702,33.5285,0.19397,-3.575,0.6159
751.402,33.55193,0.19411,-3.57505,0.61537
752.102,33.5753,0.19416,-3.57535,0.61484
752.802,33.59871,0.19475,-3.5762,0.61431
753.502,33.62214,0.1923,-3.57512,0.61378
754.202,33.64555,0.19151,-3.57526,0.61325
754.902,33.669,0.19185,-3.5742,0.61272
755.602,33.69246,0.19101,-3.57484,0.61219
756.302,33.7159,0.19149,-3.57514,0.61166
757.002,33.73943,0.19066,-3.57389,0.61113
757.702,33.76296,0.1888,-3.57294,0.61061
758.402,33.78644,0.19075,-3.57243,0.61008
759.102,33.8099,0.18961,-3.57105,0.60955
759.802,33.83336,0.19348,-3.57105,0.60902
760.502,33.85674,0.19087,-3.57105,0.60849
761.202,33.88021,0.18496,-3.57105,0.60796
761.902,33.90364,0.189,-3.57105,0.60743
762.602,33.92712,0.18853,-3.57105,0.6069
763.302,33.95061,0.18652,-3.57105,0.60637
764.002,33.97408,0.18538,-3.57105,0.60584
764.702,33.9974,0.18369,-3.57105,0.60531
765.402,34.02088,0.18245,-3.57103,0.60478
766.102,34.04436,0.18751,-3.57227,0.60425
766.802,34.0679,0.18365,-3.57236,0.60372
767.502,34.09145,0.18402,-3.57241,0.60319
768.202,34.11493,0.18233,-3.57373,0.60266
768.902,34.13842,0.18034,-3.57368,0.60213
769.602,34.16195,0.18177,-3.57368,0.6016
770.302,34.18548,0.1797,-3.57368,0.60107
771.002,34.20899,0.18111,-3.57368,0.60054
771.702,34.2324,0.17733,-3.57368,0.60001
772.402,34.256,0.17689,-3.57368,0.59948
773.102,34.27947,0.17541,-3.57368,0.59895
773.802,34.30295,0.17502,-3.57368,0.59842
774.502,34.32645,0.17526,-3.57386,0.59789
775.202,34.35,0.1727,-3.57566,0.59736
775.902,34.3735,0.1727,-3.57598,0.59683
776.602,34.397,0.17322,-3.57598,0.5963
777.302,34.42053,0.17091,-3.57598,0.59577
778.002,34.44397,0.1732,-3.57637,0.59524
778.702,34.46745,0.17311,-3.57704,0.59471
779.402,34.491,0.17479,-3.57762,0.59418
780.102,34.5145,0.17273,-3.57757,0.59365
780.802,34.53808,0.17522,-3.57886,0.59312
781.502,34.56162,0.16805,-3.57894,0.59259
782.202,34.58513,0.17098,-3.57901,0.59206
782.902,34.6087,0.17513,-3.58029,0.59153
783.602,34.6322,0.16921,-3.58018,0.591
784.302,34.65573,0.1715,-3.5803,0.59047
785.002,34.67925,0.16671,-3.57999,0.58994
785.702,34.7027,0.1687,-3.57896,0.58941
786.402,34.72622,0.1662,-3.57894,0.58888
787.102,34.74978,0.16734,-3.57894,0.58835
787.802,34.77333,0.16542,-3.57894,0.58782
788.502,34.79683,0.1666,-3.57899,0.58729
789.202,34.82039,0.1645,-3.57762,0.58676
789.902,34.8439,0.16456,-3.57762,0.58623
790.602,34.86742,0.16414,-3.57737,0.5857
791.302,34.89095,0.16079,-3.57732,0.58517
792.002,34.9144,0.16132,-3.57542,0.58464
792.702,34.9379,0.16478,-3.57501,0.58411
793.402,34.96145,0.16466,-3.575,0.58358
794.102,34.985,0.16616,-3.575,0.58305
794.502,34.9985,0.16569,-3.575,0.58275