File: 01_Data/Hemp_Sheet/STA/N2/30K_min/Hemp_Sheet_STA_N2_30KData_22284_R3.csv
##Temp./Â°C,Time/min,DSC(subtr.2)/(mW/mg),Mass loss(subtr.2)/mg,Sensit./(uV/mW)
48.566,10.01,0.005309436,-0.00219,1.07503
49.266,10.5586,0.0466117,-0.004079506,1.07472
49.966,10.6841,0.07959051,-0.003400382,1.07441
50.666,10.77324,0.11181,-0.002883343,1.0741
51.366,10.84634,0.14019,-0.0026298,1.07379
52.066,10.90925,0.16616,-0.00385662,1.07348
52.766,10.9659,0.19374,-0.003970812,1.07317
53.466,11.01768,0.21523,-0.00468725,1.07286
54.166,11.06564,0.23939,-0.004523845,1.07255
54.866,11.11104,0.25845,-0.003975698,1.07223
55.566,11.15367,0.28067,-0.002616184,1.07192
56.266,11.19404,0.29873,-0.003744495,1.07161
56.966,11.23302,0.31825,-0.004664813,1.07129
57.666,11.27065,0.33711,-0.004847186,1.07098
58.366,11.30707,0.35644,-0.004217848,1.07066
59.066,11.34235,0.37249,-0.00460893,1.07035
59.766,11.37683,0.38953,-0.005440759,1.07003
60.466,11.41028,0.40133,-0.005917529,1.06971
61.166,11.44285,0.41461,-0.004560317,1.0694
61.866,11.4747,0.42885,-0.004568545,1.06908
62.566,11.5061,0.44284,-0.00367393,1.06876
63.266,11.53665,0.45537,-0.003553357,1.06844
63.966,11.567,0.46504,-0.004175959,1.06812
64.666,11.5969,0.47688,-0.00320956,1.0678
65.366,11.6265,0.48711,-0.00376977,1.06748
66.066,11.6555,0.49692,-0.00510333,1.06716
66.766,11.68413,0.50693,-0.006087859,1.06684
67.466,11.71236,0.51966,-0.005581545,1.06651
68.166,11.74042,0.52882,-0.00484605,1.06619
68.866,11.76822,0.53603,-0.00510939,1.06587
69.566,11.79578,0.5467,-0.004670275,1.06554
70.266,11.8231,0.55759,-0.00430887,1.06522
70.966,11.85024,0.56862,-0.00362544,1.06489
71.666,11.87721,0.57456,-0.00405067,1.06457
72.366,11.9039,0.58391,-0.004027607,1.06424
73.066,11.9305,0.59316,-0.004326598,1.06392
73.766,11.95694,0.60215,-0.004496722,1.06359
74.466,11.98294,0.61198,-0.00386655,1.06326
75.166,12.00873,0.61959,-0.003392982,1.06293
75.866,12.03473,0.62519,-0.004070377,1.06261
76.566,12.06048,0.63287,-0.005608561,1.06228
77.266,12.08654,0.64035,-0.006273742,1.06195
77.966,12.11214,0.64881,-0.00583284,1.06162
78.666,12.13756,0.6559,-0.006342987,1.06129
79.366,12.16275,0.66335,-0.005400928,1.06095
80.066,12.18794,0.67048,-0.00494517,1.06062
80.766,12.21305,0.67794,-0.00404444,1.06029
81.466,12.23836,0.68405,-0.003540628,1.05996
82.166,12.2635,0.68931,-0.00471346,1.05962
82.866,12.28847,0.69591,-0.003505178,1.05929
83.566,12.31323,0.70417,-0.003922348,1.05896
84.266,12.33785,0.70997,-0.003734117,1.05862
84.966,12.36253,0.71758,-0.00401611,1.05829
85.666,12.387,0.72143,-0.00382162,1.05795
86.366,12.41129,0.72983,-0.00378124,1.05761
87.066,12.43572,0.73533,-0.00355809,1.05728
87.766,12.46009,0.74132,-0.003830815,1.05694
88.466,12.48435,0.74672,-0.00524472,1.0566
89.166,12.50872,0.7533,-0.005688643,1.05626
89.866,12.5328,0.75911,-0.00532911,1.05593
90.566,12.55681,0.7649,-0.006753984,1.05559
91.266,12.58098,0.77025,-0.007555115,1.05525
91.966,12.60505,0.77793,-0.007146684,1.05491
92.666,12.62908,0.78245,-0.008561021,1.05457
93.366,12.653,0.78649,-0.008548068,1.05422
94.066,12.67685,0.79246,-0.008560854,1.05388
94.766,12.70076,0.79939,-0.008558362,1.05354
95.466,12.72454,0.80427,-0.008377542,1.0532
96.166,12.7483,0.80896,-0.00856495,1.05285
96.866,12.772,0.81689,-0.008549932,1.05251
97.566,12.79552,0.82126,-0.008628245,1.05217
98.266,12.81921,0.82472,-0.009873195,1.05182
98.966,12.84286,0.83112,-0.008692852,1.05148
99.666,12.8665,0.83482,-0.008550561,1.05113
100.366,12.8901,0.83943,-0.008550524,1.05079
101.066,12.91365,0.84367,-0.008940586,1.05044
101.766,12.93727,0.84725,-0.008835817,1.05009
102.466,12.96083,0.85329,-0.008890801,1.04974
103.166,12.98443,0.85683,-0.008890194,1.0494
103.866,13.00798,0.8605,-0.00889079,1.04905
104.566,13.03145,0.86682,-0.008876142,1.0487
105.266,13.05487,0.86579,-0.009926387,1.04835
105.966,13.0783,0.87409,-0.01019541,1.048
106.666,13.10173,0.87669,-0.01019897,1.04765
107.366,13.1252,0.87801,-0.01015087,1.0473
108.066,13.1487,0.88216,-0.01147129,1.04695
108.766,13.17215,0.88474,-0.01146393,1.0466
109.466,13.1955,0.88809,-0.01119795,1.04624
110.166,13.21899,0.89041,-0.01118649,1.04589
110.866,13.24247,0.89218,-0.01258618,1.04554
111.566,13.2659,0.89575,-0.01250562,1.04518
112.266,13.2893,0.89745,-0.01250006,1.04483
112.966,13.3127,0.89946,-0.01249999,1.04447
113.666,13.3359,0.90134,-0.0125,1.04412
114.366,13.35919,0.90417,-0.0125,1.04376
115.066,13.38246,0.90311,-0.01250025,1.04341
115.766,13.4057,0.90769,-0.0125069,1.04305
116.466,13.4289,0.91001,-0.01125578,1.0427
117.166,13.4522,0.91014,-0.01118486,1.04234
117.866,13.47529,0.91237,-0.01166101,1.04198
118.566,13.4986,0.91538,-0.01196146,1.04162
119.266,13.5218,0.91434,-0.01118808,1.04126
119.966,13.545,0.91346,-0.01109227,1.0409
120.666,13.56812,0.91648,-0.01248805,1.04055
121.366,13.5912,0.91732,-0.01250604,1.04018
122.066,13.61418,0.91698,-0.01286699,1.03982
122.766,13.63725,0.91667,-0.01381384,1.03946
123.466,13.66046,0.91872,-0.01381001,1.0391
124.166,13.68346,0.92067,-0.01381476,1.03874
124.866,13.7065,0.92106,-0.01390607,1.03838
125.566,13.72949,0.92147,-0.01250233,1.03802
126.266,13.75235,0.92206,-0.01249955,1.03765
126.966,13.7753,0.9249,-0.01249949,1.03729
127.666,13.79814,0.92426,-0.01249465,1.03693
128.366,13.82097,0.9243,-0.012564,1.03656
129.066,13.8438,0.9267,-0.01382553,1.0362
129.766,13.8666,0.92547,-0.01379466,1.03583
130.466,13.8894,0.92598,-0.01287944,1.03547
131.166,13.9123,0.92775,-0.0125016,1.0351
131.866,13.93513,0.92618,-0.01249966,1.03473
132.566,13.95779,0.9293,-0.01249416,1.03437
133.266,13.98025,0.92945,-0.01251461,1.034
133.966,14.0028,0.93069,-0.0138249,1.03363
134.666,14.02539,0.9312,-0.01377075,1.03326
135.366,14.0481,0.93364,-0.01505554,1.03289
136.066,14.07097,0.93333,-0.01511506,1.03252
136.766,14.09366,0.93507,-0.01633953,1.03215
137.466,14.11621,0.93535,-0.01644857,1.03178
138.166,14.1387,0.93676,-0.01644997,1.03141
138.866,14.1612,0.93951,-0.01645001,1.03104
139.566,14.18374,0.94084,-0.01645021,1.03067
140.266,14.20624,0.94363,-0.01645385,1.0303
140.966,14.22875,0.94285,-0.01648124,1.02993
141.666,14.25123,0.9475,-0.01509827,1.02956
142.366,14.27355,0.94638,-0.01608223,1.02918
143.066,14.2959,0.95,-0.01643877,1.02881
143.766,14.3182,0.9536,-0.01644957,1.02844
144.466,14.34045,0.95292,-0.01645043,1.02806
145.166,14.3628,0.95609,-0.01649276,1.02769
145.866,14.38509,0.95651,-0.01586562,1.02731
146.566,14.40734,0.96039,-0.01646131,1.02694
147.266,14.4296,0.96172,-0.01644999,1.02656
147.966,14.4519,0.96298,-0.01645928,1.02618
148.666,14.47414,0.96592,-0.01681156,1.02581
149.366,14.49635,0.96808,-0.01777222,1.02543
150.066,14.51857,0.9699,-0.01654951,1.02505
150.766,14.5407,0.97425,-0.01644824,1.02468
151.466,14.56282,0.97513,-0.01650432,1.0243
152.166,14.58492,0.97691,-0.01520857,1.02392
152.866,14.6071,0.97965,-0.01514114,1.02354
153.566,14.62924,0.97977,-0.01514005,1.02316
154.266,14.65143,0.98281,-0.01513882,1.02278
154.966,14.67353,0.98596,-0.01509648,1.0224
155.666,14.69554,0.98816,-0.01604161,1.02202
156.366,14.7176,0.99235,-0.01611576,1.02164
157.066,14.73957,0.99352,-0.01611169,1.02126
157.766,14.76159,0.99463,-0.01644329,1.02087
158.466,14.78372,0.99663,-0.01644555,1.02049
159.166,14.8057,1.00134,-0.01637945,1.02011
159.866,14.8278,1.004,-0.0171405,1.01973
160.566,14.8499,1.00585,-0.01711,1.01934
161.266,14.87183,1.00845,-0.01713543,1.01896
161.966,14.89386,1.01058,-0.01637811,1.01857
162.666,14.91575,1.0123,-0.01644572,1.01819
163.366,14.9377,1.01675,-0.01644983,1.0178
164.066,14.95955,1.01807,-0.01645,1.01742
164.766,14.98144,1.02144,-0.01645,1.01703
165.466,15.00337,1.02458,-0.01645,1.01665
166.166,15.02532,1.02582,-0.01645,1.01626
166.866,15.04734,1.02846,-0.01645,1.01587
167.566,15.06928,1.03073,-0.01645001,1.01549
168.266,15.09115,1.03415,-0.01644961,1.0151
168.966,15.11292,1.0375,-0.01643464,1.01471
169.666,15.1347,1.03914,-0.01602229,1.01432
170.366,15.1565,1.0437,-0.01512512,1.01393
171.066,15.1784,1.04597,-0.01512994,1.01354
171.766,15.20021,1.04882,-0.01512977,1.01315
172.466,15.22202,1.05331,-0.01509187,1.01276
173.166,15.2438,1.0556,-0.01634658,1.01237
173.866,15.26555,1.05602,-0.01644743,1.01198
174.566,15.28735,1.05942,-0.01643704,1.01159
175.266,15.3091,1.0629,-0.01586334,1.0112
175.966,15.33087,1.06386,-0.01514537,1.01081
176.666,15.3527,1.06554,-0.01511356,1.01042
177.366,15.3744,1.0701,-0.01614244,1.01002
178.066,15.39609,1.07169,-0.01643863,1.00963
178.766,15.41774,1.07494,-0.01644357,1.00924
179.466,15.43931,1.0794,-0.0177263,1.00884
180.166,15.4609,1.08285,-0.01777294,1.00845
180.866,15.48255,1.08337,-0.01775749,1.00806
181.566,15.50416,1.0865,-0.01740818,1.00766
182.266,15.52576,1.08796,-0.01653962,1.00727
182.966,15.5473,1.09341,-0.01515003,1.00687
183.666,15.56886,1.09661,-0.01513036,1.00647
184.366,15.5904,1.09838,-0.01513012,1.00608
185.066,15.61195,1.09995,-0.01514209,1.00568
185.766,15.6335,1.105,-0.01654653,1.00528
186.466,15.65509,1.10614,-0.01645643,1.00489
187.166,15.6767,1.10948,-0.01645036,1.00449
187.866,15.6982,1.11242,-0.01645025,1.00409
188.566,15.71967,1.11589,-0.01645081,1.00369
189.266,15.74111,1.11733,-0.01640268,1.00329
189.966,15.7625,1.1202,-0.01545337,1.00289
190.666,15.78394,1.12483,-0.01567952,1.0025
191.366,15.80545,1.12814,-0.01646398,1.0021
192.066,15.82691,1.13035,-0.01644394,1.0017
192.766,15.8483,1.13163,-0.0163798,1.00129
193.466,15.86979,1.13478,-0.01776909,1.00089
194.166,15.89126,1.13728,-0.01777062,1.00049
194.866,15.9127,1.13973,-0.01778047,1.00009
195.566,15.9341,1.14117,-0.01803194,0.99969
196.266,15.9554,1.14362,-0.01858474,0.99929
196.966,15.9767,1.14676,-0.01874282,0.99888
197.666,15.9981,1.14829,-0.01874971,0.99848
198.366,16.01944,1.15216,-0.01875002,0.99808
199.066,16.04089,1.1571,-0.01874931,0.99767
199.766,16.0623,1.1572,-0.0187221,0.99727
200.466,16.08369,1.15992,-0.01880169,0.99687
201.166,16.10509,1.1623,-0.01776571,0.99646
201.866,16.12637,1.16324,-0.01777162,0.99606
202.566,16.14775,1.16594,-0.01779233,0.99565
203.266,16.1691,1.16999,-0.01867745,0.99525
203.966,16.19033,1.17173,-0.01908966,0.99484
204.666,16.21175,1.17442,-0.01908957,0.99443
205.366,16.2331,1.17819,-0.01908129,0.99403
206.066,16.25451,1.18182,-0.01886074,0.99362
206.766,16.27591,1.18441,-0.01772833,0.99321
207.466,16.29727,1.18448,-0.01776795,0.9928
208.166,16.31849,1.18775,-0.01776983,0.9924
208.866,16.3397,1.18947,-0.01776964,0.99199
209.566,16.36095,1.19264,-0.01778712,0.99158
210.266,16.38225,1.19501,-0.01844144,0.99117
210.966,16.40354,1.19489,-0.01842174,0.99076
211.666,16.42502,1.20045,-0.01841961,0.99035
212.366,16.4464,1.20143,-0.01841237,0.98994
213.066,16.4677,1.20452,-0.01832722,0.98953
213.766,16.48899,1.20779,-0.01942951,0.98912
214.466,16.51025,1.20776,-0.0194101,0.98871
215.166,16.5315,1.2134,-0.01944831,0.9883
215.866,16.55269,1.21499,-0.01973102,0.98789
216.566,16.57376,1.21675,-0.01973931,0.98747
217.266,16.59495,1.22038,-0.01973995,0.98706
217.966,16.6162,1.22204,-0.01974,0.98665
218.666,16.6374,1.22534,-0.01974001,0.98624
219.366,16.65887,1.22756,-0.01974006,0.98582
220.066,16.68015,1.22912,-0.01973986,0.98541
220.766,16.7014,1.2296,-0.02019081,0.98499
221.466,16.7227,1.23189,-0.02102556,0.98458
222.166,16.74398,1.23455,-0.02104792,0.98417
222.866,16.76529,1.23667,-0.0210463,0.98375
223.566,16.78646,1.23967,-0.02099791,0.98334
224.266,16.80763,1.24157,-0.02227037,0.98292
224.966,16.82886,1.24246,-0.02236608,0.9825
225.666,16.8501,1.2455,-0.02237138,0.98209
226.366,16.87136,1.24682,-0.02304628,0.98167
227.066,16.89246,1.24871,-0.02303167,0.98125
227.766,16.91364,1.25256,-0.02302977,0.98084
228.466,16.9348,1.25579,-0.02302359,0.98042
229.166,16.95605,1.25743,-0.02400475,0.98
229.866,16.97728,1.25921,-0.02433548,0.97958
230.566,16.99851,1.2631,-0.02434477,0.97917
231.266,17.0197,1.26218,-0.02433277,0.97875
231.966,17.04083,1.26632,-0.02525865,0.97833
232.666,17.06196,1.26801,-0.02436089,0.97791
233.366,17.0831,1.26963,-0.02434184,0.97749
234.066,17.1042,1.27283,-0.02434011,0.97707
234.766,17.1253,1.2748,-0.02433953,0.97665
235.466,17.14647,1.27559,-0.02433308,0.97623
236.166,17.16761,1.2796,-0.02425443,0.97581
236.866,17.18884,1.27943,-0.02565368,0.97539
237.566,17.21003,1.2823,-0.02566003,0.97497
238.266,17.23126,1.2834,-0.02567251,0.97454
238.966,17.2525,1.28718,-0.02544889,0.97412
239.666,17.2736,1.28641,-0.02597841,0.9737
240.366,17.2948,1.29048,-0.02599857,0.97328
241.066,17.316,1.29198,-0.0260004,0.97285
241.766,17.33715,1.29132,-0.02600641,0.97243
242.466,17.3583,1.29616,-0.02644205,0.97201
243.166,17.3795,1.29788,-0.02862218,0.97158
243.866,17.40059,1.29844,-0.02862004,0.97116
244.566,17.42168,1.30065,-0.02862995,0.97074
245.266,17.4428,1.30292,-0.03002934,0.97031
245.966,17.46399,1.30622,-0.02989571,0.96989
246.666,17.485,1.30647,-0.03078405,0.96946
247.366,17.50618,1.30831,-0.03206164,0.96904
248.066,17.5273,1.31106,-0.03224213,0.96861
248.766,17.5484,1.31348,-0.03224971,0.96818
249.466,17.5695,1.31295,-0.03225016,0.96776
250.166,17.59059,1.31693,-0.03224661,0.96733
250.866,17.61176,1.31837,-0.03208806,0.9669
251.566,17.63277,1.31955,-0.03224665,0.96648
252.266,17.65395,1.32196,-0.03282914,0.96605
252.966,17.67513,1.32224,-0.03396611,0.96562
253.666,17.69621,1.32724,-0.03512817,0.96519
254.366,17.7175,1.32619,-0.03529663,0.96477
255.066,17.73861,1.32986,-0.03653039,0.96434
255.766,17.75968,1.3286,-0.03661995,0.96391
256.466,17.78078,1.33002,-0.03807473,0.96348
257.166,17.80184,1.33107,-0.03802806,0.96305
257.866,17.82294,1.33348,-0.03946784,0.96262
258.566,17.844,1.33267,-0.04069491,0.96219
259.266,17.86511,1.33706,-0.04068695,0.96176
259.966,17.8862,1.33652,-0.04175659,0.96133
260.666,17.90738,1.33841,-0.0421285,0.9609
261.366,17.92858,1.33951,-0.04296866,0.96047
262.066,17.94969,1.343,-0.04343066,0.96003
262.766,17.97083,1.34148,-0.04341605,0.9596
263.466,17.99194,1.34354,-0.04456996,0.95917
264.166,18.01296,1.3444,-0.04615202,0.95874
264.866,18.03399,1.34663,-0.04610847,0.95831
265.566,18.05507,1.3483,-0.04746993,0.95787
266.266,18.0762,1.3481,-0.04738601,0.95744
266.966,18.0973,1.35033,-0.04738917,0.95701
267.666,18.11845,1.35217,-0.04766986,0.95657
268.366,18.1396,1.35469,-0.04799949,0.95614
269.066,18.16059,1.35365,-0.04922929,0.95571
269.766,18.18167,1.35786,-0.05047906,0.95527
270.466,18.20281,1.35756,-0.05071621,0.95484
271.166,18.22389,1.35822,-0.05216301,0.9544
271.866,18.245,1.35841,-0.0523936,0.95397
272.566,18.26611,1.35922,-0.05359807,0.95353
273.266,18.28717,1.36287,-0.0539415,0.95309
273.966,18.30818,1.36416,-0.05499401,0.95266
274.666,18.32921,1.36505,-0.05596654,0.95222
275.366,18.35029,1.36654,-0.05650651,0.95179
276.066,18.3714,1.37014,-0.056618,0.95135
276.766,18.3925,1.3697,-0.05813311,0.95091
277.466,18.41377,1.3725,-0.05869426,0.95047
278.166,18.4348,1.37551,-0.05984942,0.95004
278.866,18.45591,1.37684,-0.06105808,0.9496
279.566,18.47702,1.37717,-0.06119806,0.94916
280.266,18.49813,1.38031,-0.06281763,0.94872
280.966,18.5193,1.38263,-0.06310406,0.94828
281.666,18.5404,1.38314,-0.06436666,0.94784
282.366,18.56147,1.38495,-0.06560761,0.94741
283.066,18.5826,1.38791,-0.06655569,0.94697
283.766,18.6037,1.39125,-0.06776349,0.94653
284.466,18.62481,1.39124,-0.06901679,0.94609
285.166,18.646,1.39199,-0.07081144,0.94565
285.866,18.6671,1.39464,-0.07210201,0.94521
286.566,18.68821,1.39751,-0.07376209,0.94476
287.266,18.70937,1.39989,-0.07515986,0.94432
287.966,18.73049,1.4015,-0.07683301,0.94388
288.666,18.75166,1.4038,-0.07847941,0.94344
289.366,18.77279,1.40714,-0.07961432,0.943
290.066,18.79389,1.40913,-0.08136638,0.94256
290.766,18.8151,1.41304,-0.08281825,0.94212
291.466,18.83621,1.41125,-0.08442504,0.94167
292.166,18.85732,1.416,-0.08597092,0.94123
292.866,18.87848,1.41769,-0.08765208,0.94079
293.566,18.8996,1.42123,-0.08935569,0.94034
294.266,18.9207,1.42566,-0.09060637,0.9399
294.966,18.94184,1.42666,-0.0927927,0.93946
295.666,18.96294,1.42964,-0.095649,0.93901
296.366,18.98408,1.43378,-0.09841898,0.93857
297.066,19.00527,1.43514,-0.10072,0.93812
297.766,19.0264,1.43721,-0.10217,0.93768
298.466,19.0477,1.44223,-0.10374,0.93723
299.166,19.0689,1.44313,-0.10513,0.93679
299.866,19.09011,1.44676,-0.10783,0.93634
300.566,19.1113,1.44561,-0.11026,0.9359
301.266,19.1325,1.45151,-0.11268,0.93545
301.966,19.1536,1.4508,-0.1143,0.93501
302.666,19.17474,1.45518,-0.11583,0.93456
303.366,19.19588,1.45842,-0.11595,0.93411
304.066,19.21695,1.46075,-0.11841,0.93367
304.766,19.23808,1.46327,-0.12154,0.93322
305.466,19.2592,1.46803,-0.12372,0.93277
306.166,19.28037,1.46928,-0.12583,0.93232
306.866,19.3016,1.47344,-0.12734,0.93188
307.566,19.32276,1.47527,-0.12934,0.93143
308.266,19.34395,1.47779,-0.13157,0.93098
308.966,19.36518,1.48138,-0.1341,0.93053
309.666,19.38635,1.48472,-0.13664,0.93008
310.366,19.40749,1.48836,-0.13763,0.92963
311.066,19.4286,1.49282,-0.13967,0.92918
311.766,19.44976,1.4926,-0.14145,0.92873
312.466,19.47089,1.49738,-0.14406,0.92828
313.166,19.49211,1.50164,-0.1469,0.92783
313.866,19.51335,1.5052,-0.1495,0.92738
314.566,19.53454,1.50649,-0.15165,0.92693
315.266,19.55573,1.51252,-0.15336,0.92648
315.966,19.57692,1.51545,-0.15648,0.92603
316.666,19.59808,1.52282,-0.16083,0.92558
317.366,19.6192,1.52473,-0.16429,0.92513
318.066,19.64045,1.52843,-0.1668,0.92468
318.766,19.6616,1.53266,-0.17014,0.92423
319.466,19.68281,1.53746,-0.17435,0.92377
320.166,19.70405,1.54477,-0.17833,0.92332
320.866,19.72523,1.54904,-0.18228,0.92287
321.566,19.74652,1.5558,-0.1859,0.92242
322.266,19.76772,1.55916,-0.18972,0.92196
322.966,19.789,1.56599,-0.19273,0.92151
323.666,19.8102,1.57147,-0.19615,0.92106
324.366,19.8314,1.57585,-0.1992,0.9206
325.066,19.85262,1.58247,-0.20334,0.92015
325.766,19.8738,1.58758,-0.20627,0.9197
326.466,19.89506,1.59471,-0.21065,0.91924
327.166,19.9163,1.60175,-0.21463,0.91879
327.866,19.93757,1.60913,-0.21859,0.91833
328.566,19.95886,1.61717,-0.22336,0.91788
329.266,19.98012,1.62574,-0.22838,0.91742
329.966,20.00141,1.63395,-0.23358,0.91697
330.666,20.0227,1.6423,-0.23992,0.91651
331.366,20.04399,1.65413,-0.24495,0.91606
332.066,20.06531,1.66206,-0.25083,0.9156
332.766,20.08659,1.67369,-0.25604,0.91514
333.466,20.10785,1.68306,-0.26276,0.91469
334.166,20.1291,1.69493,-0.26836,0.91423
334.866,20.15035,1.70405,-0.27484,0.91377
335.566,20.1717,1.71652,-0.28006,0.91332
336.266,20.19304,1.72832,-0.287,0.91286
336.966,20.21445,1.74184,-0.29288,0.9124
337.666,20.23578,1.75573,-0.30009,0.91194
338.366,20.25711,1.76908,-0.30677,0.91149
339.066,20.27845,1.78437,-0.31425,0.91103
339.766,20.29972,1.80052,-0.32255,0.91057
340.466,20.32105,1.81797,-0.33116,0.91011
341.166,20.34238,1.83314,-0.33932,0.90965
341.866,20.36369,1.84914,-0.34702,0.90919
342.566,20.38503,1.86759,-0.35768,0.90873
343.266,20.40634,1.88606,-0.36626,0.90827
343.966,20.42774,1.90228,-0.37777,0.90781
344.666,20.44916,1.9227,-0.38585,0.90735
345.366,20.4706,1.94616,-0.39612,0.90689
346.066,20.4921,1.96584,-0.40439,0.90643
346.766,20.51343,1.98737,-0.4147,0.90597
347.466,20.5348,2.01036,-0.42398,0.90551
348.166,20.55612,2.03478,-0.43544,0.90505
348.866,20.5775,2.05879,-0.44614,0.90459
349.566,20.59892,2.084,-0.45779,0.90413
350.266,20.62033,2.11255,-0.46937,0.90367
350.966,20.64172,2.13902,-0.48256,0.90321
351.666,20.66316,2.16519,-0.49571,0.90274
352.366,20.68461,2.19659,-0.50792,0.90228
353.066,20.70606,2.22961,-0.52063,0.90182
353.766,20.72758,2.26092,-0.53284,0.90136
354.466,20.74905,2.29294,-0.54914,0.90089
355.166,20.77052,2.32723,-0.56316,0.90043
355.866,20.79198,2.36414,-0.58054,0.89997
356.566,20.8135,2.40045,-0.595,0.8995
357.266,20.835,2.43519,-0.61261,0.89904
357.966,20.85652,2.47331,-0.62758,0.89858
358.666,20.8781,2.51482,-0.64552,0.89811
359.366,20.8996,2.55797,-0.66309,0.89765
360.066,20.9211,2.59996,-0.68208,0.89718
360.766,20.9426,2.64487,-0.70165,0.89672
361.466,20.96416,2.69057,-0.72008,0.89625
362.166,20.9857,2.73912,-0.74112,0.89579
362.866,21.00723,2.78785,-0.76023,0.89532
363.566,21.0288,2.83842,-0.78284,0.89486
364.266,21.05031,2.8927,-0.80232,0.89439
364.966,21.07189,2.94433,-0.82777,0.89393
365.666,21.09349,3.0015,-0.8475,0.89346
366.366,21.11512,3.06006,-0.874,0.893
367.066,21.13676,3.11671,-0.89871,0.89253
367.766,21.1584,3.17987,-0.9275,0.89206
368.466,21.18006,3.24073,-0.95435,0.8916
369.166,21.2017,3.30722,-0.98406,0.89113
369.866,21.22339,3.3705,-1.01413,0.89066
370.566,21.2451,3.44023,-1.04243,0.89019
371.266,21.2667,3.50943,-1.07565,0.88973
371.966,21.28835,3.57885,-1.10455,0.88926
372.666,21.31005,3.65043,-1.14082,0.88879
373.366,21.3317,3.72448,-1.1708,0.88832
374.066,21.35341,3.80018,-1.20929,0.88785
374.766,21.3752,3.87818,-1.24194,0.88739
375.466,21.39688,3.95545,-1.28077,0.88692
376.166,21.4186,4.03355,-1.31559,0.88645
376.866,21.44034,4.11227,-1.35415,0.88598
377.566,21.4621,4.19699,-1.39435,0.88551
378.266,21.48391,4.2744,-1.4341,0.88504
378.966,21.50574,4.35613,-1.47885,0.88457
379.666,21.52757,4.4358,-1.51837,0.8841
380.366,21.5493,4.5155,-1.56687,0.88363
381.066,21.57113,4.59804,-1.6068,0.88316
381.766,21.59294,4.67426,-1.65577,0.88269
382.466,21.61478,4.75081,-1.69794,0.88222
383.166,21.63664,4.82526,-1.74877,0.88175
383.866,21.6585,4.89875,-1.79481,0.88128
384.566,21.6803,4.9646,-1.8456,0.88081
385.266,21.7022,5.02905,-1.89734,0.88034
385.966,21.72399,5.0901,-1.94701,0.87986
386.666,21.74576,5.14517,-2.00257,0.87939
387.366,21.76772,5.19476,-2.05137,0.87892
388.066,21.78955,5.23762,-2.10891,0.87845
388.766,21.81144,5.27234,-2.15661,0.87798
389.466,21.8334,5.30045,-2.2076,0.8775
390.166,21.85524,5.31775,-2.26762,0.87703
390.866,21.87719,5.32939,-2.33522,0.87656
391.566,21.8991,5.32817,-2.39031,0.87609
392.266,21.9211,5.31837,-2.44428,0.87561
392.966,21.94294,5.29538,-2.49644,0.87514
393.666,21.96477,5.26157,-2.5484,0.87466
394.366,21.98661,5.21293,-2.60252,0.87419
395.066,22.00832,5.15285,-2.65407,0.87372
395.766,22.0301,5.08113,-2.70487,0.87324
396.466,22.05187,4.99021,-2.7552,0.87277
397.166,22.07367,4.89162,-2.80374,0.87229
397.866,22.0955,4.76895,-2.84376,0.87182
398.566,22.11726,4.63765,-2.89071,0.87134
399.266,22.139,4.49089,-2.93121,0.87087
399.966,22.16075,4.32604,-2.97785,0.87039
400.666,22.18243,4.15034,-3.01427,0.86992
401.366,22.2041,3.96045,-3.05634,0.86944
402.066,22.22569,3.76334,-3.08971,0.86897
402.766,22.24726,3.55355,-3.12509,0.86849
403.466,22.26884,3.33729,-3.1542,0.86802
404.166,22.2904,3.11571,-3.1828,0.86754
404.866,22.31196,2.89497,-3.20953,0.86706
405.566,22.3334,2.67276,-3.23271,0.86659
406.266,22.35491,2.45458,-3.25469,0.86611
406.966,22.3764,2.24216,-3.27195,0.86563
407.666,22.39771,2.035,-3.28989,0.86516
408.366,22.41909,1.83934,-3.30318,0.86468
409.066,22.44051,1.65509,-3.3164,0.8642
409.766,22.46185,1.4856,-3.32472,0.86372
410.466,22.48338,1.3313,-3.33304,0.86325
411.166,22.50491,1.18962,-3.33947,0.86277
411.866,22.52628,1.0684,-3.3452,0.86229
412.566,22.54775,0.96346,-3.34913,0.86181
413.266,22.56914,0.86966,-3.35175,0.86133
413.966,22.5905,0.79138,-3.35449,0.86085
414.666,22.61204,0.72611,-3.35706,0.86038
415.366,22.6335,0.66828,-3.35961,0.8599
416.066,22.655,0.61828,-3.36082,0.85942
416.766,22.6765,0.57743,-3.36369,0.85894
417.466,22.69794,0.54062,-3.36511,0.85846
418.166,22.71943,0.51017,-3.36681,0.85798
418.866,22.7409,0.48747,-3.3686,0.8575
419.566,22.7624,0.46822,-3.3701,0.85702
420.266,22.78394,0.4499,-3.37033,0.85654
420.966,22.80556,0.43083,-3.37146,0.85606
421.666,22.82714,0.41932,-3.37327,0.85558
422.366,22.8488,0.40966,-3.37485,0.8551
423.066,22.8704,0.39845,-3.37418,0.85462
423.766,22.89199,0.38952,-3.37479,0.85414
424.466,22.91364,0.38254,-3.37577,0.85365
425.166,22.93534,0.37701,-3.37612,0.85317
425.866,22.9571,0.3713,-3.3773,0.85269
426.566,22.9788,0.36592,-3.37753,0.85221
427.266,23.00056,0.35946,-3.3789,0.85173
427.966,23.02233,0.35606,-3.37888,0.85125
428.666,23.04412,0.3535,-3.37888,0.85076
429.366,23.0659,0.34963,-3.37898,0.85028
430.066,23.08774,0.34538,-3.38026,0.8498
430.766,23.10957,0.34532,-3.38114,0.84932
431.466,23.1314,0.3409,-3.38165,0.84883
432.166,23.15312,0.33767,-3.38411,0.84835
432.866,23.17481,0.33574,-3.38562,0.84787
433.566,23.1966,0.33391,-3.38635,0.84738
434.266,23.21838,0.33377,-3.38741,0.8469
434.966,23.24032,0.32857,-3.3892,0.84642
435.666,23.26226,0.32833,-3.3892,0.84593
436.366,23.28415,0.32427,-3.39076,0.84545
437.066,23.30611,0.32192,-3.39163,0.84496
437.766,23.328,0.32194,-3.3927,0.84448
438.466,23.35003,0.32078,-3.39336,0.844
439.166,23.37201,0.32038,-3.39475,0.84351
439.866,23.39395,0.31806,-3.39467,0.84303
440.566,23.41585,0.3173,-3.39564,0.84254
441.266,23.4378,0.31747,-3.39727,0.84206
441.966,23.45976,0.31515,-3.39872,0.84157
442.666,23.48171,0.31305,-3.39873,0.84109
443.366,23.50364,0.31542,-3.39943,0.8406
444.066,23.52564,0.31074,-3.39993,0.84011
444.766,23.54765,0.31028,-3.40158,0.83963
445.466,23.5697,0.30858,-3.40265,0.83914
446.166,23.59178,0.30895,-3.40308,0.83866
446.866,23.61381,0.30543,-3.40433,0.83817
447.566,23.63583,0.30684,-3.40439,0.83768
448.266,23.65783,0.30565,-3.40565,0.8372
448.966,23.6799,0.30608,-3.40574,0.83671
449.666,23.7019,0.3013,-3.40717,0.83622
450.366,23.72399,0.30167,-3.40821,0.83574
451.066,23.74607,0.29991,-3.40892,0.83525
451.766,23.76812,0.30149,-3.41005,0.83476
452.466,23.79018,0.2969,-3.41003,0.83427
453.166,23.81225,0.29796,-3.41003,0.83379
453.866,23.83434,0.29558,-3.41081,0.8333
454.566,23.85641,0.2977,-3.41127,0.83281
455.266,23.87854,0.29411,-3.4127,0.83232
455.966,23.9006,0.29462,-3.41281,0.83183
456.666,23.92259,0.29066,-3.41426,0.83135
457.366,23.9447,0.29146,-3.41572,0.83086
458.066,23.96673,0.28773,-3.41596,0.83037
458.766,23.9889,0.28962,-3.41718,0.82988
459.466,24.0111,0.28732,-3.41716,0.82939
460.166,24.03324,0.28864,-3.4187,0.8289
460.866,24.05545,0.28601,-3.41909,0.82841
461.566,24.07766,0.28621,-3.42003,0.82792
462.266,24.09977,0.28588,-3.42065,0.82743
462.966,24.12191,0.28589,-3.42132,0.82694
463.666,24.14408,0.2828,-3.42288,0.82645
464.366,24.16624,0.28377,-3.42335,0.82596
465.066,24.18845,0.28209,-3.42419,0.82547
465.766,24.21048,0.28223,-3.4245,0.82498
466.466,24.23265,0.28159,-3.4244,0.82449
467.166,24.25477,0.28137,-3.4258,0.824
467.866,24.27693,0.28066,-3.42746,0.82351
468.566,24.29927,0.28367,-3.4285,0.82302
469.266,24.32143,0.282,-3.42899,0.82253
469.966,24.34366,0.28141,-3.42995,0.82204
470.666,24.36591,0.28067,-3.42998,0.82154
471.366,24.38812,0.28242,-3.429,0.82105
472.066,24.41038,0.28269,-3.43014,0.82056
472.766,24.43254,0.2815,-3.43074,0.82007
473.466,24.45475,0.28303,-3.43354,0.81958
474.166,24.47702,0.28342,-3.43408,0.81908
474.866,24.4993,0.27994,-3.43482,0.81859
475.566,24.52141,0.28002,-3.43479,0.8181
476.266,24.54361,0.27856,-3.43602,0.81761
476.966,24.5659,0.28097,-3.43604,0.81711
477.666,24.58815,0.27874,-3.43743,0.81662
478.366,24.6106,0.2815,-3.43879,0.81613
479.066,24.63291,0.28002,-3.43876,0.81563
479.766,24.6551,0.28085,-3.43968,0.81514
480.466,24.67737,0.28283,-3.44013,0.81465
481.166,24.69962,0.27721,-3.4416,0.81415
481.866,24.72193,0.28095,-3.44177,0.81366
482.566,24.74421,0.28269,-3.44296,0.81317
483.266,24.76647,0.27923,-3.44363,0.81267
483.966,24.78878,0.28007,-3.44451,0.81218
484.666,24.81106,0.2796,-3.44518,0.81168
485.366,24.83341,0.27971,-3.44514,0.81119
486.066,24.85574,0.27958,-3.44544,0.81069
486.766,24.87804,0.27834,-3.44646,0.8102
487.466,24.90042,0.28105,-3.44645,0.8097
488.166,24.92276,0.28156,-3.44781,0.80921
488.866,24.94514,0.27851,-3.44776,0.80871
489.566,24.96751,0.28156,-3.44888,0.80822
490.266,24.9898,0.28055,-3.44907,0.80772
490.966,25.01216,0.27835,-3.44905,0.80723
491.666,25.03453,0.28069,-3.45009,0.80673
492.366,25.05689,0.27821,-3.45038,0.80624
493.066,25.07927,0.28019,-3.45037,0.80574
493.766,25.1016,0.27903,-3.45174,0.80524
494.466,25.1239,0.27975,-3.45252,0.80475
495.166,25.14623,0.27923,-3.45312,0.80425
495.866,25.16856,0.28123,-3.45465,0.80375
496.566,25.1909,0.27755,-3.45466,0.80326
497.266,25.21329,0.28162,-3.45559,0.80276
497.966,25.2357,0.27665,-3.45597,0.80226
498.666,25.2581,0.27822,-3.45597,0.80177
499.366,25.28053,0.27894,-3.45733,0.80127
500.066,25.3029,0.27834,-3.45744,0.80077
500.766,25.32526,0.2773,-3.45866,0.80027
501.466,25.34759,0.27833,-3.45983,0.79978
502.166,25.37,0.27851,-3.46004,0.79928
502.866,25.39245,0.27651,-3.46136,0.79878
503.566,25.41491,0.27796,-3.46132,0.79828
504.266,25.4374,0.28215,-3.46264,0.79778
504.966,25.45972,0.27914,-3.46276,0.79729
505.666,25.4821,0.27984,-3.46411,0.79679
506.366,25.50451,0.28234,-3.46433,0.79629
507.066,25.52693,0.28297,-3.4654,0.79579
507.766,25.54939,0.27938,-3.46672,0.79529
508.466,25.57183,0.28004,-3.46674,0.79479
509.166,25.59429,0.28226,-3.4657,0.79429
509.866,25.61673,0.2817,-3.46672,0.79379
510.566,25.63916,0.2796,-3.46669,0.79329
511.266,25.6616,0.28122,-3.46805,0.7928
511.966,25.68395,0.27865,-3.46797,0.7923
512.666,25.70638,0.2813,-3.46933,0.7918
513.366,25.72889,0.28272,-3.46936,0.7913
514.066,25.75134,0.28064,-3.46937,0.7908
514.766,25.77382,0.28057,-3.47078,0.7903
515.466,25.7963,0.27877,-3.47069,0.7898
516.166,25.81871,0.28143,-3.47068,0.78929
516.866,25.84119,0.27984,-3.47068,0.78879
517.566,25.86365,0.28127,-3.47069,0.78829
518.266,25.88605,0.278,-3.47102,0.78779
518.966,25.9085,0.27977,-3.47201,0.78729
519.666,25.93093,0.27977,-3.47203,0.78679
520.366,25.95338,0.28057,-3.47336,0.78629
521.066,25.9759,0.27985,-3.47331,0.78579
521.766,25.9985,0.28165,-3.47331,0.78529
522.466,26.0211,0.27942,-3.47332,0.78478
523.166,26.04361,0.2784,-3.47332,0.78428
523.866,26.06609,0.28066,-3.47324,0.78378
524.566,26.0886,0.2801,-3.47518,0.78328
525.266,26.111,0.27681,-3.47593,0.78278
525.966,26.13349,0.27985,-3.47714,0.78227
526.666,26.15595,0.28003,-3.47726,0.78177
527.366,26.17849,0.28061,-3.47748,0.78127
528.066,26.20099,0.28074,-3.47857,0.78077
528.766,26.22356,0.27825,-3.47857,0.78026
529.466,26.24598,0.27696,-3.47954,0.77976
530.166,26.26845,0.27733,-3.47988,0.77926
530.866,26.2911,0.27838,-3.47989,0.77876
531.566,26.3136,0.27733,-3.47992,0.77825
532.266,26.33636,0.27716,-3.48128,0.77775
532.966,26.35898,0.27959,-3.48121,0.77725
533.666,26.38155,0.28116,-3.48127,0.77674
534.366,26.4042,0.2845,-3.48278,0.77624
535.066,26.4267,0.28761,-3.484,0.77573
535.766,26.4493,0.28713,-3.48391,0.77523
536.466,26.4719,0.29122,-3.48379,0.77473
537.166,26.49447,0.29453,-3.48363,0.77422
537.866,26.51705,0.29598,-3.48386,0.77372
538.566,26.5396,0.29992,-3.48395,0.77321
539.266,26.5622,0.3017,-3.48503,0.77271
539.966,26.58475,0.30311,-3.48654,0.7722
540.666,26.6074,0.30359,-3.48658,0.7717
541.366,26.62994,0.30863,-3.48791,0.77119
542.066,26.6525,0.31081,-3.48734,0.77069
542.766,26.67513,0.31107,-3.48661,0.77018
543.466,26.6977,0.31384,-3.48659,0.76968
544.166,26.7203,0.31762,-3.48659,0.76917
544.866,26.74287,0.31979,-3.48775,0.76867
545.566,26.7655,0.31875,-3.4879,0.76816
546.266,26.78817,0.32147,-3.4879,0.76765
546.966,26.81077,0.31941,-3.4879,0.76715
547.666,26.8333,0.31997,-3.48791,0.76664
548.366,26.8559,0.32119,-3.48791,0.76614
549.066,26.87858,0.32231,-3.48791,0.76563
549.766,26.90124,0.32255,-3.48789,0.76512
550.466,26.92405,0.32204,-3.48948,0.76462
551.166,26.9468,0.32245,-3.49053,0.76411
551.866,26.96947,0.32275,-3.49053,0.7636
552.566,26.9921,0.32049,-3.49053,0.7631
553.266,27.01482,0.32151,-3.49053,0.76259
553.966,27.0375,0.3169,-3.49048,0.76208
554.666,27.06015,0.32171,-3.49185,0.76158
555.366,27.08285,0.31936,-3.49175,0.76107
556.066,27.1055,0.31911,-3.4919,0.76056
556.766,27.1282,0.31458,-3.49186,0.76005
557.466,27.15095,0.31712,-3.49184,0.75955
558.166,27.1737,0.31522,-3.49306,0.75904
558.866,27.1964,0.31621,-3.49319,0.75853
559.566,27.219,0.314,-3.49407,0.75802
560.266,27.24175,0.31395,-3.49449,0.75751
560.966,27.26452,0.31106,-3.49449,0.75701
561.666,27.2873,0.30971,-3.49449,0.7565
562.366,27.30997,0.30779,-3.49449,0.75599
563.066,27.33274,0.30465,-3.49461,0.75548
563.766,27.35538,0.30333,-3.49584,0.75497
564.466,27.3781,0.29975,-3.4958,0.75446
565.166,27.4009,0.29802,-3.49621,0.75395
565.866,27.42362,0.29934,-3.49709,0.75344
566.566,27.44647,0.29564,-3.49712,0.75293
567.266,27.4692,0.29634,-3.49712,0.75243
567.966,27.4919,0.29572,-3.49758,0.75192
568.666,27.5147,0.29325,-3.49808,0.75141
569.366,27.53743,0.29193,-3.49897,0.7509
570.066,27.5602,0.28802,-3.4991,0.75039
570.766,27.583,0.28976,-3.4991,0.74988
571.466,27.60575,0.28633,-3.4991,0.74937
572.166,27.6286,0.28842,-3.49907,0.74886
572.866,27.6514,0.28625,-3.50044,0.74835
573.566,27.6742,0.28446,-3.50041,0.74784
574.266,27.69698,0.28442,-3.50041,0.74733
574.966,27.71978,0.28488,-3.50041,0.74682
575.666,27.7425,0.28261,-3.50157,0.7463
576.366,27.7653,0.28049,-3.50173,0.74579
577.066,27.78815,0.27894,-3.50173,0.74528
577.766,27.811,0.282,-3.50173,0.74477
578.466,27.83385,0.27816,-3.50182,0.74426
579.166,27.85663,0.27618,-3.5024,0.74375
579.866,27.8795,0.27685,-3.50238,0.74324
580.566,27.90227,0.27719,-3.50238,0.74273
581.266,27.9251,0.27024,-3.50238,0.74222
581.966,27.94805,0.27175,-3.50239,0.7417
582.666,27.9709,0.26607,-3.50312,0.74119
583.366,27.9938,0.26937,-3.50369,0.74068
584.066,28.0167,0.2665,-3.50369,0.74017
584.766,28.0395,0.26502,-3.50498,0.73966
585.466,28.0623,0.26434,-3.50501,0.73914
586.166,28.0852,0.26405,-3.50496,0.73863
586.866,28.10807,0.26133,-3.50625,0.73812
587.566,28.131,0.25848,-3.50634,0.73761
588.266,28.1538,0.25865,-3.50666,0.73709
588.966,28.17666,0.25764,-3.50764,0.73658
589.666,28.1995,0.25726,-3.50764,0.73607
590.366,28.2224,0.25562,-3.50783,0.73556
591.066,28.24527,0.25622,-3.50897,0.73504
591.766,28.2682,0.25497,-3.50895,0.73453
592.466,28.291,0.25544,-3.50903,0.73402
593.166,28.31397,0.25277,-3.51029,0.7335
593.866,28.3369,0.25012,-3.51028,0.73299
594.566,28.3596,0.25193,-3.51028,0.73248
595.266,28.3825,0.2453,-3.51028,0.73196
595.966,28.4055,0.24683,-3.51023,0.73145
596.666,28.42847,0.24402,-3.51154,0.73094
597.366,28.45164,0.24243,-3.5116,0.73042
598.066,28.47457,0.24119,-3.51151,0.72991
598.766,28.4974,0.23913,-3.51274,0.72939
599.466,28.52025,0.23645,-3.51148,0.72888
600.166,28.54315,0.23787,-3.51134,0.72837
600.866,28.56612,0.23751,-3.51003,0.72785
601.566,28.58904,0.23199,-3.51148,0.72734
602.266,28.612,0.23323,-3.51153,0.72682
602.966,28.6349,0.23165,-3.51024,0.72631
603.666,28.6578,0.23029,-3.51017,0.72579
604.366,28.68078,0.22741,-3.51017,0.72528
605.066,28.70368,0.2288,-3.51017,0.72476
605.766,28.7266,0.22576,-3.51017,0.72425
606.466,28.7496,0.22166,-3.51017,0.72373
607.166,28.7726,0.22254,-3.51017,0.72322
607.866,28.7957,0.2234,-3.51017,0.7227
608.566,28.81865,0.22029,-3.51017,0.72219
609.266,28.8416,0.21889,-3.51017,0.72167
609.966,28.86451,0.2168,-3.51009,0.72115
610.666,28.8874,0.21721,-3.51147,0.72064
611.366,28.91037,0.21479,-3.51149,0.72012
612.066,28.93331,0.21693,-3.5115,0.71961
612.766,28.95696,0.21412,-3.5119,0.71909
613.466,28.98292,0.21681,-3.51281,0.71857
614.166,29.00873,0.21233,-3.51414,0.71806
614.866,29.03469,0.21226,-3.51412,0.71754
615.566,29.05814,0.21082,-3.51419,0.71703
616.266,29.0811,0.21143,-3.51287,0.71651
616.966,29.1041,0.21254,-3.51413,0.71599
617.666,29.12707,0.21309,-3.51412,0.71548
618.366,29.1501,0.21051,-3.51412,0.71496
619.066,29.1731,0.20968,-3.51428,0.71444
619.766,29.1961,0.20866,-3.51686,0.71392
620.466,29.21913,0.20979,-3.51675,0.71341
621.166,29.2421,0.20977,-3.51671,0.71289
621.866,29.26509,0.2095,-3.51801,0.71237
622.566,29.288,0.20725,-3.51807,0.71186
623.266,29.3111,0.20681,-3.51807,0.71134
623.966,29.3341,0.20784,-3.51811,0.71082
624.666,29.35714,0.20739,-3.51688,0.7103
625.366,29.3802,0.20453,-3.51675,0.70978
626.066,29.4032,0.20547,-3.51766,0.70927
626.766,29.42625,0.20598,-3.51746,0.70875
627.466,29.4493,0.20393,-3.51675,0.70823
628.166,29.4723,0.20703,-3.51685,0.70771
628.866,29.4953,0.20079,-3.51811,0.70719
629.566,29.5183,0.2022,-3.51806,0.70668
630.266,29.5413,0.20183,-3.51804,0.70616
630.966,29.56435,0.2014,-3.5193,0.70564
631.666,29.58741,0.20437,-3.51938,0.70512
632.366,29.61048,0.20164,-3.51938,0.7046
633.066,29.63353,0.19694,-3.51937,0.70408
633.766,29.65663,0.20058,-3.51899,0.70356
634.466,29.67965,0.20102,-3.51806,0.70305
635.166,29.7027,0.20278,-3.51806,0.70253
635.866,29.72567,0.20054,-3.51806,0.70201
636.566,29.74875,0.20106,-3.51806,0.70149
637.266,29.7719,0.20199,-3.51806,0.70097
637.966,29.7949,0.2012,-3.51808,0.70045
638.666,29.818,0.20094,-3.51886,0.69993
639.366,29.84102,0.20076,-3.51936,0.69941
640.066,29.8639,0.20069,-3.52076,0.69889
640.766,29.887,0.19997,-3.52092,0.69837
641.466,29.91013,0.20092,-3.52125,0.69785
642.166,29.9334,0.20093,-3.5222,0.69733
642.866,29.9566,0.20123,-3.52223,0.69681
643.566,29.97958,0.2034,-3.52223,0.69629
644.266,30.00266,0.20472,-3.52223,0.69577
644.966,30.02565,0.20379,-3.52223,0.69525
645.666,30.04873,0.20002,-3.52223,0.69473
646.366,30.07183,0.20201,-3.52223,0.69421
647.066,30.09495,0.2018,-3.52223,0.69369
647.766,30.1181,0.20055,-3.52222,0.69317
648.466,30.14126,0.2031,-3.52148,0.69265
649.166,30.16439,0.20296,-3.52093,0.69213
649.866,30.18742,0.20189,-3.52092,0.69161
650.566,30.21045,0.20616,-3.52092,0.69109
651.266,30.23354,0.20606,-3.52234,0.69057
651.966,30.25661,0.20526,-3.52224,0.69004
652.666,30.2796,0.20669,-3.52223,0.68952
653.366,30.30275,0.20494,-3.52448,0.689
654.066,30.32586,0.20387,-3.52485,0.68848
654.766,30.34905,0.20271,-3.52486,0.68796
655.466,30.3724,0.20427,-3.52486,0.68744
656.166,30.3955,0.2053,-3.52486,0.68692
656.866,30.41873,0.20545,-3.52486,0.6864
657.566,30.44186,0.20635,-3.52486,0.68587
658.266,30.46493,0.20523,-3.52487,0.68535
658.966,30.48804,0.20218,-3.52536,0.68483
659.666,30.51114,0.20622,-3.52617,0.68431
660.366,30.5342,0.20565,-3.52618,0.68379
661.066,30.55732,0.20685,-3.52618,0.68326
661.766,30.58042,0.20686,-3.52618,0.68274
662.466,30.6036,0.20487,-3.52618,0.68222
663.166,30.62671,0.21008,-3.52618,0.6817
663.866,30.6498,0.20832,-3.52618,0.68118
664.566,30.67292,0.20718,-3.52618,0.68065
665.266,30.696,0.20859,-3.52613,0.68013
665.966,30.7192,0.21206,-3.52758,0.67961
666.666,30.7424,0.21252,-3.52757,0.67908
667.366,30.7656,0.21187,-3.52776,0.67856
668.066,30.7889,0.21218,-3.52729,0.67804
668.766,30.812,0.21181,-3.52728,0.67752
669.466,30.8352,0.20853,-3.52815,0.67699
670.166,30.8583,0.21078,-3.52858,0.67647
670.866,30.8814,0.21052,-3.5286,0.67595
671.566,30.90452,0.20976,-3.52903,0.67542
672.266,30.9276,0.20906,-3.52957,0.6749
672.966,30.9506,0.20815,-3.52958,0.67438
673.666,30.9738,0.21039,-3.52958,0.67385
674.366,30.9969,0.2097,-3.52957,0.67333
675.066,31.0202,0.21153,-3.52891,0.67281
675.766,31.0435,0.20946,-3.52865,0.67228
676.466,31.06666,0.21331,-3.5286,0.67176
677.166,31.08985,0.21119,-3.5286,0.67124
677.866,31.113,0.21108,-3.5286,0.67071
678.566,31.13594,0.2089,-3.52861,0.67019
679.266,31.15898,0.20881,-3.52735,0.66966
679.966,31.1821,0.21073,-3.52727,0.66914
680.666,31.2054,0.21032,-3.52728,0.66862
681.366,31.2287,0.21064,-3.52751,0.66809
682.066,31.25195,0.21266,-3.52858,0.66757
682.766,31.27518,0.21192,-3.5286,0.66704
683.466,31.29833,0.21175,-3.5286,0.66652
684.166,31.3215,0.21237,-3.5286,0.666
684.866,31.34465,0.20873,-3.52866,0.66547
685.566,31.36785,0.21276,-3.52995,0.66495
686.266,31.3911,0.21197,-3.52991,0.66442
686.966,31.41429,0.21083,-3.52991,0.6639
687.666,31.4375,0.21322,-3.52991,0.66337
688.366,31.4606,0.21367,-3.52991,0.66285
689.066,31.4838,0.20885,-3.5299,0.66232
689.766,31.50692,0.20948,-3.53098,0.6618
690.466,31.5301,0.20572,-3.53123,0.66127
691.166,31.55337,0.20676,-3.53123,0.66075
691.866,31.5767,0.20673,-3.53123,0.66022
692.566,31.5999,0.21056,-3.53123,0.6597
693.266,31.62315,0.21175,-3.53123,0.65917
693.966,31.6464,0.20797,-3.53124,0.65865
694.666,31.66957,0.20951,-3.52994,0.65812
695.366,31.6928,0.20798,-3.5299,0.6576
696.066,31.7161,0.20861,-3.52992,0.65707
696.766,31.7393,0.20665,-3.52992,0.65655
697.466,31.7626,0.20616,-3.52992,0.65602
698.166,31.7858,0.20655,-3.52987,0.65549
698.866,31.80905,0.20647,-3.53145,0.65497
699.566,31.83237,0.20598,-3.53252,0.65444
700.266,31.8556,0.20617,-3.53254,0.65392
700.966,31.8789,0.20557,-3.53257,0.65339
701.666,31.90217,0.21026,-3.53119,0.65286
702.366,31.92541,0.2036,-3.53123,0.65234
703.066,31.9486,0.20572,-3.53123,0.65181
703.766,31.97195,0.2025,-3.53123,0.65129
704.466,31.99517,0.20399,-3.53123,0.65076
705.166,32.01838,0.20197,-3.53122,0.65023
705.866,32.04168,0.202,-3.53044,0.64971
706.566,32.06494,0.20309,-3.52996,0.64918
707.266,32.08825,0.20376,-3.53074,0.64866
707.966,32.1115,0.20062,-3.53122,0.64813
708.666,32.13475,0.20114,-3.53092,0.6476
709.366,32.15806,0.20247,-3.53058,0.64708
710.066,32.18136,0.20236,-3.53057,0.64655
710.766,32.20459,0.19805,-3.53057,0.64602
711.466,32.22789,0.2025,-3.53059,0.6455
712.166,32.2511,0.2024,-3.53164,0.64497
712.866,32.27438,0.20355,-3.53189,0.64444
713.566,32.29777,0.2012,-3.53189,0.64392
714.266,32.32104,0.20096,-3.53187,0.64339
714.966,32.3444,0.20227,-3.53318,0.64286
715.666,32.3677,0.19839,-3.53457,0.64233
716.366,32.391,0.20075,-3.53453,0.64181
717.066,32.41437,0.19698,-3.53453,0.64128
717.766,32.43763,0.19747,-3.53453,0.64075
718.466,32.46091,0.19817,-3.53455,0.64023
719.166,32.48424,0.19716,-3.5333,0.6397
719.866,32.50748,0.19537,-3.53321,0.63917
720.566,32.53082,0.19814,-3.53319,0.63864
721.266,32.55413,0.19277,-3.53406,0.63812
721.966,32.5775,0.19437,-3.5332,0.63759
722.666,32.6008,0.19793,-3.5332,0.63706
723.366,32.62415,0.19204,-3.53396,0.63653
724.066,32.64752,0.19361,-3.53451,0.63601
724.766,32.67083,0.1869,-3.53491,0.63548
725.466,32.69421,0.18689,-3.53654,0.63495
726.166,32.71753,0.18729,-3.5365,0.63442
726.866,32.74087,0.18802,-3.5365,0.63389
727.566,32.76423,0.18567,-3.5365,0.63337
728.266,32.78756,0.18661,-3.53656,0.63284
728.966,32.8109,0.18367,-3.5355,0.63231
729.666,32.83423,0.18505,-3.53537,0.63178
730.366,32.85758,0.18092,-3.53518,0.63126
731.066,32.8809,0.17803,-3.53518,0.63073
731.766,32.90425,0.18296,-3.53518,0.6302
732.466,32.92751,0.17892,-3.5352,0.62967
733.166,32.95087,0.17905,-3.53624,0.62914
733.866,32.97425,0.17899,-3.5367,0.62861
734.566,32.99757,0.1797,-3.53784,0.62809
735.266,33.02095,0.17866,-3.53781,0.62756
735.966,33.0443,0.17585,-3.53786,0.62703
736.666,33.06752,0.17883,-3.53917,0.6265
737.366,33.09093,0.17517,-3.53912,0.62597
738.066,33.1143,0.17606,-3.53912,0.62544
738.766,33.13762,0.17459,-3.53912,0.62492
739.466,33.16102,0.17216,-3.53912,0.62439
740.166,33.18427,0.17056,-3.53912,0.62386
740.866,33.20756,0.1696,-3.53913,0.62333
741.566,33.23086,0.1673,-3.53906,0.6228
742.266,33.2542,0.17105,-3.53857,0.62227
742.966,33.27765,0.1728,-3.53913,0.62174
743.666,33.30107,0.16881,-3.53904,0.62121
744.366,33.32442,0.16926,-3.53904,0.62069
745.066,33.34767,0.17115,-3.53913,0.62016
745.766,33.37083,0.16913,-3.53913,0.61963
746.466,33.3941,0.16758,-3.53838,0.6191
747.166,33.41734,0.16339,-3.53783,0.61857
747.866,33.4407,0.16788,-3.53778,0.61804
748.566,33.4641,0.16288,-3.53645,0.61751
749.266,33.48745,0.16538,-3.5365,0.61698
749.966,33.51092,0.1605,-3.53609,0.61645
750.666,33.53439,0.16188,-3.53521,0.61593
751.366,33.55795,0.16585,-3.53518,0.6154
752.066,33.58136,0.16252,-3.53518,0.61487
752.766,33.60474,0.16257,-3.53513,0.61434
753.466,33.62814,0.16044,-3.53642,0.61381
754.166,33.65147,0.16173,-3.53649,0.61328
754.866,33.67485,0.16053,-3.53649,0.61275
755.566,33.69822,0.15687,-3.53649,0.61222
756.266,33.7216,0.16059,-3.53697,0.61169
756.966,33.7451,0.15767,-3.53779,0.61116
757.666,33.76854,0.1596,-3.53781,0.61063
758.366,33.79193,0.15534,-3.53777,0.6101
759.066,33.81534,0.1574,-3.53908,0.60957
759.766,33.83866,0.15378,-3.53967,0.60904
760.466,33.86183,0.15715,-3.54043,0.60851
761.166,33.88521,0.15421,-3.54044,0.60799
761.866,33.9086,0.15167,-3.54043,0.60746
762.566,33.93203,0.1515,-3.53959,0.60693
763.266,33.95558,0.14692,-3.53902,0.6064
763.966,33.97891,0.14794,-3.5376,0.60587
764.666,34.0023,0.1491,-3.53759,0.60534
765.366,34.0257,0.14984,-3.53759,0.60481
766.066,34.04909,0.14615,-3.53759,0.60428
766.766,34.0726,0.14948,-3.53759,0.60375
767.466,34.09597,0.14494,-3.53759,0.60322
768.166,34.1194,0.14102,-3.5376,0.60269
768.866,34.14282,0.13778,-3.53876,0.60216
769.566,34.1662,0.1443,-3.53891,0.60163
770.266,34.1896,0.14154,-3.53891,0.6011
770.966,34.21308,0.14545,-3.53891,0.60057
771.666,34.23657,0.14255,-3.53891,0.60004
772.366,34.2601,0.1422,-3.53925,0.59951
773.066,34.2836,0.14007,-3.5402,0.59898
773.766,34.30692,0.13945,-3.54023,0.59845
774.466,34.3302,0.14094,-3.54023,0.59792
775.166,34.35354,0.14039,-3.54023,0.59739
775.866,34.37693,0.14176,-3.54036,0.59686
776.566,34.40043,0.14003,-3.54154,0.59633
777.266,34.42398,0.14324,-3.54228,0.5958
777.966,34.4475,0.1413,-3.54293,0.59527
778.666,34.47103,0.13932,-3.54154,0.59474
779.366,34.49456,0.13881,-3.54154,0.59421
780.066,34.51805,0.14076,-3.54153,0.59368
780.766,34.54148,0.14353,-3.54077,0.59315
781.466,34.5649,0.14405,-3.54164,0.59262
782.166,34.58831,0.14272,-3.54154,0.59209
782.866,34.61177,0.14304,-3.54154,0.59156
783.566,34.63528,0.14103,-3.54148,0.59103
784.266,34.6588,0.14171,-3.54225,0.5905
784.966,34.68233,0.14349,-3.54156,0.58997
785.666,34.70581,0.13999,-3.54154,0.58944
786.366,34.7292,0.14071,-3.54181,0.58891
787.066,34.75258,0.14244,-3.54284,0.58838
787.766,34.776,0.1413,-3.54286,0.58785
788.466,34.79939,0.14161,-3.54287,0.58732
789.166,34.8227,0.13911,-3.54366,0.58679
789.866,34.84608,0.14177,-3.54385,0.58626
790.566,34.8696,0.13801,-3.54385,0.58573
791.266,34.8932,0.13947,-3.54385,0.5852
791.966,34.91684,0.1444,-3.54385,0.58467
792.666,34.94047,0.14351,-3.54385,0.58414
793.366,34.9639,0.1377,-3.54385,0.58361
794.066,34.9874,0.139,-3.54385,0.58308
794.366,34.9974,0.13947,-3.54385,0.58285