File: 01_Data/Luan_Panel/STA/N2/10K_min/Luan_Panel_STA_N2_10KData_221003_R1.csv
##Temp./Â°C,Time/min,Mass loss(subtr.2)/mg,DSC(subtr.2)/mW,Sensit./(uV/mW)
49.612,10.00917,0.0079,0.11353,1.0752
50.212,10.72767,0.009401615,0.22966,1.07489
50.812,10.91452,0.01129933,0.32345,1.07458
51.412,11.05677,0.009538836,0.3935,1.07426
52.012,11.17453,0.01002322,0.46319,1.07395
52.612,11.27984,0.01078719,0.51625,1.07364
53.212,11.3766,0.009936369,0.56774,1.07333
53.812,11.4672,0.01047406,0.62379,1.07301
54.412,11.55315,0.009231051,0.66058,1.0727
55.012,11.63505,0.009699352,0.69285,1.07239
55.612,11.71371,0.01098607,0.72781,1.07208
56.212,11.79064,0.01036402,0.75973,1.07176
56.812,11.86525,0.009309058,0.7872,1.07145
57.412,11.93862,0.01063375,0.80305,1.07114
58.012,12.0108,0.01071405,0.83108,1.07083
58.612,12.08185,0.01062367,0.85995,1.07052
59.212,12.1517,0.009235053,0.87937,1.0702
59.812,12.22044,0.009227977,0.89059,1.06989
60.412,12.28904,0.00953912,0.90945,1.06958
61.012,12.35724,0.009226438,0.93158,1.06927
61.612,12.42491,0.0091229,0.95019,1.06896
62.212,12.49215,0.01011616,0.96139,1.06864
62.812,12.55865,0.01182587,0.9791,1.06833
63.412,12.62482,0.01188883,0.99763,1.06802
64.012,12.69057,0.00943486,1.00567,1.06771
64.612,12.7563,0.009153628,1.02576,1.0674
65.212,12.82178,0.009175053,1.03438,1.06709
65.812,12.8869,0.009182107,1.0583,1.06678
66.412,12.95193,0.009209775,1.06172,1.06646
67.012,13.01701,0.009227497,1.06802,1.06615
67.612,13.082,0.009218601,1.08678,1.06584
68.212,13.14684,0.008080115,1.10898,1.06553
68.812,13.21135,0.009208985,1.12181,1.06522
69.412,13.2756,0.009146032,1.13574,1.06491
70.012,13.33973,0.00920999,1.14392,1.0646
70.612,13.40356,0.00780508,1.15362,1.06429
71.212,13.4677,0.006697823,1.17299,1.06398
71.812,13.53129,0.007894112,1.18565,1.06367
72.412,13.59481,0.006586835,1.1994,1.06336
73.012,13.65792,0.006590085,1.21445,1.06304
73.612,13.72139,0.007881093,1.233,1.06273
74.212,13.78464,0.006581732,1.23426,1.06242
74.812,13.848,0.00534296,1.2474,1.06211
75.412,13.9111,0.005259968,1.25508,1.0618
76.012,13.97406,0.005199007,1.27425,1.06149
76.612,14.0369,0.00527304,1.27198,1.06118
77.212,14.09951,0.00393662,1.28528,1.06087
77.812,14.1619,0.00494501,1.29358,1.06056
78.412,14.22427,0.005269234,1.31175,1.06025
79.012,14.28638,0.004557392,1.31658,1.05994
79.612,14.34854,0.003949483,1.31714,1.05963
80.212,14.41051,0.00372063,1.3294,1.05932
80.812,14.4725,0.003949991,1.33374,1.05901
81.412,14.5345,0.00395051,1.34068,1.0587
82.012,14.596,0.0026461,1.35479,1.05839
82.612,14.65751,0.002630002,1.35197,1.05808
83.212,14.71905,0.002629792,1.36462,1.05777
83.812,14.78045,0.0026381,1.37455,1.05746
84.412,14.84172,0.00264354,1.36574,1.05715
85.012,14.90286,0.001321927,1.37119,1.05684
85.612,14.9637,0.001320444,1.37301,1.05654
86.212,15.02472,5.08988e-05,1.37472,1.05623
86.812,15.0854,-5.142994e-05,1.37786,1.05592
87.412,15.14584,0.001316238,1.38139,1.05561
88.012,15.20614,1.016356e-06,1.38124,1.0553
88.612,15.26635,-0.0004878703,1.3863,1.05499
89.212,15.32613,-0.000649942,1.37908,1.05468
89.812,15.3861,-0.0006499976,1.37976,1.05437
90.412,15.446,-0.000643533,1.38034,1.05406
91.012,15.5062,-0.0006803424,1.37934,1.05375
91.612,15.56645,-0.001972448,1.38247,1.05344
92.212,15.6264,-0.001980338,1.37938,1.05314
92.812,15.6862,-0.001277918,1.37964,1.05283
93.412,15.74591,-0.00132192,1.37952,1.05252
94.012,15.8055,-0.002634977,1.37043,1.05221
94.612,15.86541,-0.00273668,1.37075,1.0519
95.212,15.92511,-0.0039504,1.35526,1.05159
95.812,15.98444,-0.003950001,1.35728,1.05128
96.412,16.04353,-0.0048202,1.35705,1.05098
97.012,16.10256,-0.003949996,1.34227,1.05067
97.612,16.16161,-0.00395,1.33962,1.05036
98.212,16.22091,-0.00395064,1.33965,1.05005
98.812,16.27996,-0.005262791,1.32894,1.04974
99.412,16.33912,-0.005259811,1.33044,1.04943
100.012,16.39794,-0.00657963,1.31495,1.04913
100.612,16.4567,-0.007108934,1.31557,1.04882
101.212,16.51578,-0.007912536,1.30154,1.04851
101.812,16.57495,-0.00684931,1.30304,1.0482
102.412,16.63407,-0.006923953,1.306,1.0479
103.012,16.69282,-0.008219995,1.28303,1.04759
103.612,16.7511,-0.007897424,1.28887,1.04728
104.212,16.80995,-0.007862995,1.27503,1.04697
104.812,16.86897,-0.006250146,1.27776,1.04666
105.412,16.9286,-0.006580015,1.27411,1.04636
106.012,16.98774,-0.006546474,1.27152,1.04605
106.612,17.04673,-0.00789951,1.27956,1.04574
107.212,17.1055,-0.007899999,1.29472,1.04543
107.812,17.16433,-0.0079,1.29397,1.04513
108.412,17.223,-0.007899998,1.29906,1.04482
109.012,17.28187,-0.00789765,1.30575,1.04451
109.612,17.34056,-0.00789,1.30959,1.04421
110.212,17.39936,-0.00789,1.31199,1.0439
110.812,17.4582,-0.007889758,1.31068,1.04359
111.412,17.51693,-0.00919505,1.30484,1.04328
112.012,17.57566,-0.009209533,1.31089,1.04298
112.612,17.634,-0.01055156,1.30059,1.04267
113.212,17.6925,-0.01152505,1.29994,1.04236
113.812,17.751,-0.01020144,1.28046,1.04206
114.412,17.80958,-0.0102,1.28534,1.04175
115.012,17.86853,-0.01020032,1.28404,1.04144
115.612,17.92708,-0.009299301,1.27676,1.04114
116.212,17.98564,-0.01023249,1.26558,1.04083
116.812,18.04413,-0.01052988,1.25859,1.04052
117.412,18.10268,-0.01053,1.24967,1.04022
118.012,18.16149,-0.01053,1.24956,1.03991
118.612,18.2201,-0.01053,1.24294,1.03961
119.212,18.27884,-0.01053034,1.24043,1.0393
119.812,18.33744,-0.01185224,1.23781,1.03899
120.412,18.3963,-0.01184988,1.23906,1.03869
121.012,18.4549,-0.01130177,1.22607,1.03838
121.612,18.51351,-0.01054169,1.22736,1.03807
122.212,18.5719,-0.01184343,1.21526,1.03777
122.812,18.63035,-0.01183998,1.21088,1.03746
123.412,18.68875,-0.01185194,1.20944,1.03716
124.012,18.74693,-0.0105213,1.21223,1.03685
124.612,18.80528,-0.01188019,1.19679,1.03654
125.212,18.86375,-0.01184326,1.20766,1.03624
125.812,18.9223,-0.01054367,1.21447,1.03593
126.412,18.981,-0.01052868,1.20014,1.03563
127.012,19.03931,-0.01183659,1.19231,1.03532
127.612,19.09791,-0.01316012,1.20682,1.03502
128.212,19.15632,-0.01315993,1.20138,1.03471
128.812,19.21444,-0.01288184,1.20104,1.0344
129.412,19.2727,-0.01185043,1.19157,1.0341
130.012,19.33075,-0.0131954,1.19057,1.03379
130.612,19.38896,-0.01316,1.2025,1.03349
131.212,19.44761,-0.0129441,1.20171,1.03318
131.812,19.50596,-0.01289367,1.19791,1.03288
132.412,19.5643,-0.01315988,1.20509,1.03257
133.012,19.62268,-0.01316,1.20172,1.03227
133.612,19.68079,-0.01316,1.20387,1.03196
134.212,19.73901,-0.01316,1.19941,1.03166
134.812,19.79712,-0.01320267,1.20049,1.03135
135.412,19.8552,-0.01184213,1.20121,1.03105
136.012,19.9134,-0.01248115,1.21026,1.03074
136.612,19.97159,-0.01249999,1.21554,1.03044
137.212,20.02981,-0.01249957,1.21312,1.03013
137.812,20.08773,-0.01262314,1.21889,1.02983
138.412,20.14568,-0.01251011,1.22435,1.02952
139.012,20.20348,-0.01251,1.21685,1.02922
139.612,20.26128,-0.01250923,1.21852,1.02891
140.212,20.31935,-0.01118906,1.22467,1.02861
140.812,20.3774,-0.01250216,1.22012,1.0283
141.412,20.43521,-0.01378016,1.22324,1.028
142.012,20.49285,-0.01282281,1.23112,1.02769
142.612,20.55041,-0.01237518,1.23101,1.02739
143.212,20.60833,-0.01139861,1.23621,1.02709
143.812,20.6665,-0.01271248,1.22591,1.02678
144.412,20.72462,-0.01271633,1.23584,1.02648
145.012,20.78247,-0.01401675,1.23659,1.02617
145.612,20.8402,-0.0140305,1.23965,1.02587
146.212,20.89785,-0.01370227,1.23206,1.02556
146.812,20.95542,-0.01306611,1.25366,1.02526
147.412,21.01315,-0.01306872,1.25998,1.02496
148.012,21.0708,-0.01403706,1.25718,1.02465
148.612,21.12858,-0.01370974,1.26242,1.02435
149.212,21.18611,-0.01370999,1.26685,1.02404
149.812,21.24372,-0.01368735,1.26842,1.02374
150.412,21.30128,-0.01238957,1.27715,1.02344
151.012,21.35895,-0.01238939,1.27891,1.02313
151.612,21.41643,-0.01503318,1.2831,1.02283
152.212,21.47396,-0.01502832,1.29142,1.02252
152.812,21.53138,-0.01370422,1.30282,1.02222
153.412,21.58906,-0.01371,1.30048,1.02192
154.012,21.6468,-0.01370997,1.31164,1.02161
154.612,21.70434,-0.01458203,1.30903,1.02131
155.212,21.76191,-0.01501988,1.31544,1.021
155.812,21.81939,-0.01502,1.31414,1.0207
156.412,21.87702,-0.01502003,1.31247,1.0204
157.012,21.93466,-0.01511481,1.31807,1.02009
157.612,21.99227,-0.01371011,1.32598,1.01979
158.212,22.0501,-0.01370889,1.33822,1.01949
158.812,22.10781,-0.01503184,1.33383,1.01918
159.412,22.1655,-0.01502324,1.34216,1.01888
160.012,22.22305,-0.01633644,1.33885,1.01858
160.612,22.28061,-0.01502553,1.35595,1.01827
161.212,22.33823,-0.01504216,1.35198,1.01797
161.812,22.3958,-0.01635035,1.3501,1.01767
162.412,22.45348,-0.01635,1.36561,1.01736
163.012,22.5112,-0.0163502,1.36489,1.01706
163.612,22.56891,-0.01538196,1.37706,1.01676
164.212,22.6265,-0.01502999,1.38651,1.01645
164.812,22.68423,-0.01504523,1.39274,1.01615
165.412,22.74211,-0.0160167,1.4007,1.01585
166.012,22.79972,-0.0163398,1.42034,1.01554
166.612,22.8572,-0.01633998,1.41492,1.01524
167.212,22.91466,-0.01627065,1.42167,1.01494
167.812,22.97208,-0.01700064,1.43952,1.01463
168.412,23.02998,-0.01767094,1.44069,1.01433
169.012,23.08782,-0.01892936,1.44623,1.01403
169.612,23.14575,-0.01885982,1.45473,1.01373
170.212,23.20341,-0.0176595,1.46562,1.01342
170.812,23.26099,-0.01766005,1.47709,1.01312
171.412,23.31863,-0.0176306,1.48141,1.01282
172.012,23.37629,-0.0203333,1.49977,1.01251
172.612,23.43376,-0.02029003,1.51393,1.01221
173.212,23.4914,-0.02029,1.51843,1.01191
173.812,23.54893,-0.02029002,1.54156,1.01161
174.412,23.60654,-0.02166105,1.5499,1.0113
175.012,23.66424,-0.02247941,1.55455,1.011
175.612,23.7219,-0.02126652,1.56949,1.0107
176.212,23.77946,-0.02127,1.58049,1.01039
176.812,23.83695,-0.02126411,1.60834,1.01009
177.412,23.89442,-0.02258831,1.61242,1.00979
178.012,23.9516,-0.02266023,1.62676,1.00949
178.612,24.0091,-0.02423966,1.64587,1.00918
179.212,24.0667,-0.02560777,1.65642,1.00888
179.812,24.1246,-0.02556002,1.67098,1.00858
180.412,24.1819,-0.02553462,1.6807,1.00828
181.012,24.23923,-0.02555003,1.6924,1.00797
181.612,24.2965,-0.02554657,1.71089,1.00767
182.212,24.35355,-0.02685619,1.715,1.00737
182.812,24.41078,-0.02686783,1.74633,1.00707
183.412,24.46809,-0.02819131,1.75569,1.00676
184.012,24.52536,-0.02819,1.77529,1.00646
184.612,24.58286,-0.02819136,1.78499,1.00616
185.212,24.64019,-0.02951346,1.80016,1.00586
185.812,24.69738,-0.03203375,1.81799,1.00555
186.412,24.75456,-0.03213174,1.83285,1.00525
187.012,24.81161,-0.03345588,1.85435,1.00495
187.612,24.8687,-0.03345,1.86203,1.00465
188.212,24.926,-0.03345007,1.87259,1.00434
188.812,24.9833,-0.03365266,1.89472,1.00404
189.412,25.04055,-0.03608132,1.90298,1.00374
190.012,25.09787,-0.03608985,1.92756,1.00344
190.612,25.15503,-0.03719429,1.93982,1.00313
191.212,25.21229,-0.03754179,1.95761,1.00283
191.812,25.2696,-0.03872007,1.9711,1.00253
192.412,25.3266,-0.03983122,1.9925,1.00223
193.012,25.384,-0.0403936,2.00171,1.00192
193.612,25.44122,-0.04119011,2.01915,1.00162
194.212,25.49802,-0.04162692,2.02973,1.00132
194.812,25.5551,-0.04376171,2.03369,1.00102
195.412,25.61212,-0.04398583,2.0454,1.00072
196.012,25.66943,-0.04531572,2.06286,1.00041
196.612,25.7269,-0.04660854,2.06851,1.00011
197.212,25.78417,-0.04924006,2.07906,0.99981
197.812,25.84154,-0.0505582,2.09754,0.99951
198.412,25.89872,-0.05118265,2.10011,0.9992
199.012,25.9561,-0.05189602,2.11753,0.9989
199.612,26.01362,-0.05286918,2.12477,0.9986
200.212,26.07021,-0.05454261,2.13523,0.9983
200.812,26.1276,-0.05714763,2.14227,0.998
201.412,26.18471,-0.05580739,2.15791,0.99769
202.012,26.24196,-0.05741909,2.15548,0.99739
202.612,26.2999,-0.05988326,2.1628,0.99709
203.212,26.35705,-0.06119994,2.17097,0.99679
203.812,26.41439,-0.06382238,2.18058,0.99648
204.412,26.47168,-0.06512617,2.17913,0.99618
205.012,26.529,-0.06611931,2.20401,0.99588
205.612,26.5865,-0.06757134,2.1918,0.99558
206.212,26.6442,-0.06784548,2.20235,0.99527
206.812,26.7017,-0.07007645,2.20921,0.99497
207.412,26.7592,-0.07140013,2.20907,0.99467
208.012,26.81653,-0.0725108,2.21906,0.99437
208.612,26.87405,-0.07396633,2.2291,0.99407
209.212,26.9315,-0.0749482,2.23177,0.99376
209.812,26.9888,-0.07698944,2.23167,0.99346
210.412,27.04632,-0.07769938,2.23352,0.99316
211.012,27.1036,-0.07972399,2.23345,0.99286
211.612,27.1609,-0.08074345,2.24433,0.99255
212.212,27.2184,-0.08227298,2.24964,0.99225
212.812,27.27562,-0.08494999,2.25726,0.99195
213.412,27.3332,-0.08564036,2.25758,0.99165
214.012,27.39065,-0.08699339,2.27395,0.99134
214.612,27.4481,-0.08877723,2.277,0.99104
215.212,27.50543,-0.09019788,2.27652,0.99074
215.812,27.56261,-0.09146371,2.28974,0.99044
216.412,27.61976,-0.09279127,2.29656,0.99014
217.012,27.67705,-0.09544748,2.30163,0.98983
217.612,27.7347,-0.09694758,2.30353,0.98953
218.212,27.79215,-0.09784382,2.32858,0.98923
218.812,27.84974,-0.09864585,2.33396,0.98893
219.412,27.90697,-0.09995758,2.33544,0.98862
220.012,27.9643,-0.10189,2.33996,0.98832
220.612,28.0214,-0.10354,2.35737,0.98802
221.212,28.0786,-0.10513,2.36542,0.98772
221.812,28.13604,-0.10778,2.37547,0.98741
222.412,28.19329,-0.1096,2.38266,0.98711
223.012,28.25083,-0.11348,2.39424,0.98681
223.612,28.3083,-0.11473,2.40812,0.9865
224.212,28.36566,-0.11419,2.41292,0.9862
224.812,28.42302,-0.11624,2.41776,0.9859
225.412,28.4803,-0.11759,2.42439,0.9856
226.012,28.53766,-0.12015,2.43367,0.98529
226.612,28.59487,-0.12157,2.43693,0.98499
227.212,28.65202,-0.12366,2.44917,0.98469
227.812,28.7092,-0.1268,2.46229,0.98439
228.412,28.76636,-0.12825,2.46065,0.98408
229.012,28.82372,-0.13102,2.46836,0.98378
229.612,28.8809,-0.13332,2.47694,0.98348
230.212,28.9379,-0.13543,2.48146,0.98317
230.812,28.99525,-0.13854,2.48749,0.98287
231.412,29.0525,-0.14017,2.4944,0.98257
232.012,29.1097,-0.1434,2.48851,0.98227
232.612,29.16709,-0.14747,2.483,0.98196
233.212,29.22423,-0.1489,2.48541,0.98166
233.812,29.2814,-0.15182,2.48531,0.98136
234.412,29.33863,-0.15311,2.47608,0.98105
235.012,29.39579,-0.15614,2.46159,0.98075
235.612,29.453,-0.15919,2.47081,0.98045
236.212,29.51,-0.16211,2.46914,0.98014
236.812,29.56728,-0.16451,2.46913,0.97984
237.412,29.62435,-0.16709,2.46369,0.97954
238.012,29.6814,-0.17021,2.4639,0.97923
238.612,29.7387,-0.17174,2.45377,0.97893
239.212,29.7958,-0.17466,2.44977,0.97863
239.812,29.8529,-0.17771,2.44149,0.97832
240.412,29.91007,-0.18091,2.44631,0.97802
241.012,29.96717,-0.18376,2.43408,0.97772
241.612,30.0243,-0.18527,2.43501,0.97741
242.212,30.08145,-0.18807,2.43093,0.97711
242.812,30.13856,-0.19165,2.43539,0.97681
243.412,30.1957,-0.19446,2.42247,0.9765
244.012,30.2525,-0.19724,2.42503,0.9762
244.612,30.30967,-0.19968,2.42154,0.9759
245.212,30.36668,-0.2046,2.42483,0.97559
245.812,30.4239,-0.2078,2.41684,0.97529
246.412,30.481,-0.21009,2.4284,0.97499
247.012,30.53825,-0.21325,2.42221,0.97468
247.612,30.59555,-0.21639,2.42342,0.97438
248.212,30.6528,-0.21982,2.4147,0.97407
248.812,30.7099,-0.22271,2.41905,0.97377
249.412,30.76724,-0.2268,2.42807,0.97347
250.012,30.8246,-0.23113,2.4185,0.97316
250.612,30.882,-0.23475,2.41693,0.97286
251.212,30.9394,-0.23835,2.41158,0.97255
251.812,30.9968,-0.24143,2.40315,0.97225
252.412,31.05402,-0.24523,2.4017,0.97194
253.012,31.11138,-0.24964,2.40769,0.97164
253.612,31.16875,-0.25306,2.39448,0.97134
254.212,31.2261,-0.25671,2.38802,0.97103
254.812,31.28342,-0.2602,2.38523,0.97073
255.412,31.3407,-0.26547,2.38651,0.97042
256.012,31.39818,-0.26996,2.38941,0.97012
256.612,31.45542,-0.27307,2.38505,0.96981
257.212,31.5129,-0.27705,2.39135,0.96951
257.812,31.57027,-0.28138,2.38832,0.9692
258.412,31.6273,-0.2854,2.39026,0.9689
259.012,31.6843,-0.28964,2.37999,0.96859
259.612,31.74131,-0.29416,2.38165,0.96829
260.212,31.79859,-0.2985,2.38109,0.96798
260.812,31.85588,-0.30422,2.38012,0.96768
261.412,31.91285,-0.30916,2.37346,0.96737
262.012,31.97014,-0.31446,2.36819,0.96707
262.612,32.02737,-0.31882,2.37355,0.96676
263.212,32.08502,-0.3243,2.3652,0.96646
263.812,32.1426,-0.33038,2.36607,0.96615
264.412,32.19989,-0.33606,2.36222,0.96585
265.012,32.25707,-0.3411,2.35535,0.96554
265.612,32.314,-0.34722,2.35793,0.96524
266.212,32.3712,-0.35294,2.35484,0.96493
266.812,32.42844,-0.35946,2.34588,0.96463
267.412,32.48568,-0.36558,2.34607,0.96432
268.012,32.54288,-0.37099,2.33408,0.96401
268.612,32.60006,-0.37731,2.32931,0.96371
269.212,32.65713,-0.3852,2.32036,0.9634
269.812,32.71431,-0.39092,2.31707,0.9631
270.412,32.7714,-0.39796,2.30952,0.96279
271.012,32.8286,-0.40519,2.31205,0.96248
271.612,32.88572,-0.41321,2.29784,0.96218
272.212,32.9428,-0.4209,2.28355,0.96187
272.812,33.00014,-0.42643,2.2896,0.96157
273.412,33.05733,-0.43332,2.26983,0.96126
274.012,33.11463,-0.44034,2.26913,0.96095
274.612,33.17183,-0.4498,2.25746,0.96065
275.212,33.2291,-0.45782,2.24113,0.96034
275.812,33.28625,-0.46535,2.23251,0.96003
276.412,33.34341,-0.47382,2.22067,0.95973
277.012,33.40075,-0.48202,2.20035,0.95942
277.612,33.45783,-0.49019,2.18596,0.95911
278.212,33.51497,-0.49765,2.16941,0.95881
278.812,33.57213,-0.50629,2.15193,0.9585
279.412,33.62923,-0.51509,2.14103,0.95819
280.012,33.6866,-0.52569,2.11196,0.95788
280.612,33.74387,-0.53469,2.08981,0.95758
281.212,33.80117,-0.54236,2.07127,0.95727
281.812,33.85866,-0.55242,2.05653,0.95696
282.412,33.91585,-0.56004,2.02953,0.95665
283.012,33.973,-0.56935,2.01341,0.95635
283.612,34.03024,-0.57927,2.00294,0.95604
284.212,34.08761,-0.5887,1.9786,0.95573
284.812,34.14498,-0.59967,1.95131,0.95542
285.412,34.20203,-0.60915,1.94024,0.95512
286.012,34.25907,-0.61938,1.91051,0.95481
286.612,34.31615,-0.62829,1.89588,0.9545
287.212,34.37359,-0.6394,1.87938,0.95419
287.812,34.43098,-0.65055,1.85423,0.95388
288.412,34.48838,-0.66126,1.83446,0.95357
289.012,34.54578,-0.66993,1.80463,0.95327
289.612,34.60314,-0.68027,1.79233,0.95296
290.212,34.66055,-0.69115,1.7655,0.95265
290.812,34.718,-0.70184,1.74649,0.95234
291.412,34.7754,-0.71236,1.71622,0.95203
292.012,34.8328,-0.72338,1.70269,0.95172
292.612,34.89025,-0.73442,1.68119,0.95141
293.212,34.94753,-0.74575,1.65922,0.9511
293.812,35.0049,-0.75674,1.63715,0.95079
294.412,35.06225,-0.76742,1.61205,0.95048
295.012,35.1196,-0.77739,1.59022,0.95018
295.612,35.177,-0.78885,1.56916,0.94987
296.212,35.23433,-0.80052,1.55022,0.94956
296.812,35.29175,-0.81088,1.53762,0.94925
297.412,35.34921,-0.82287,1.52355,0.94894
298.012,35.40672,-0.83407,1.4987,0.94863
298.612,35.46403,-0.84692,1.47881,0.94832
299.212,35.52151,-0.85753,1.46024,0.94801
299.812,35.57894,-0.86887,1.44608,0.9477
300.412,35.63622,-0.88073,1.43008,0.94739
301.012,35.6937,-0.89266,1.41583,0.94708
301.612,35.75085,-0.90707,1.41365,0.94676
302.212,35.80814,-0.91787,1.3961,0.94645
302.812,35.8655,-0.93045,1.39125,0.94614
303.412,35.92287,-0.9432,1.3741,0.94583
304.012,35.98012,-0.95587,1.37226,0.94552
304.612,36.03737,-0.96806,1.36183,0.94521
305.212,36.09475,-0.98116,1.35425,0.9449
305.812,36.15191,-0.99399,1.34454,0.94459
306.412,36.2094,-1.00577,1.34131,0.94428
307.012,36.2669,-1.01826,1.33014,0.94396
307.612,36.3242,-1.03302,1.3293,0.94365
308.212,36.38157,-1.04656,1.32118,0.94334
308.812,36.439,-1.05909,1.32279,0.94303
309.412,36.49644,-1.07247,1.32315,0.94272
310.012,36.55395,-1.08498,1.31397,0.94241
310.612,36.61161,-1.09874,1.30895,0.94209
311.212,36.66908,-1.11132,1.30497,0.94178
311.812,36.72675,-1.12527,1.30868,0.94147
312.412,36.78441,-1.13865,1.30632,0.94116
313.012,36.84219,-1.15246,1.30941,0.94084
313.612,36.8999,-1.16652,1.31398,0.94053
314.212,36.95759,-1.18114,1.30691,0.94022
314.812,37.01533,-1.1941,1.31706,0.9399
315.412,37.0732,-1.2086,1.32381,0.93959
316.012,37.1309,-1.22296,1.3244,0.93928
316.612,37.18874,-1.23857,1.31686,0.93896
317.212,37.24653,-1.25171,1.32041,0.93865
317.812,37.30424,-1.26788,1.31589,0.93834
318.412,37.36207,-1.28266,1.31813,0.93802
319.012,37.42,-1.29795,1.31645,0.93771
319.612,37.47788,-1.31244,1.31598,0.9374
320.212,37.53604,-1.32787,1.31706,0.93708
320.812,37.59395,-1.34372,1.32042,0.93677
321.412,37.65189,-1.3588,1.32828,0.93645
322.012,37.70964,-1.37637,1.32484,0.93614
322.612,37.7675,-1.3919,1.32534,0.93582
323.212,37.82535,-1.40823,1.33107,0.93551
323.812,37.8833,-1.42465,1.33845,0.93519
324.412,37.9413,-1.44216,1.33931,0.93488
325.012,37.99944,-1.45901,1.33399,0.93456
325.612,38.0576,-1.47564,1.34517,0.93425
326.212,38.11558,-1.49406,1.3396,0.93393
326.812,38.1736,-1.51097,1.34494,0.93362
327.412,38.2314,-1.52861,1.34035,0.9333
328.012,38.28922,-1.54517,1.34845,0.93299
328.612,38.34711,-1.56404,1.36278,0.93267
329.212,38.4052,-1.58069,1.36401,0.93235
329.812,38.46348,-1.6003,1.36011,0.93204
330.412,38.5214,-1.61796,1.35367,0.93172
331.012,38.5794,-1.6366,1.35818,0.9314
331.612,38.6372,-1.65606,1.35478,0.93109
332.212,38.69485,-1.67482,1.36467,0.93077
332.812,38.75271,-1.69373,1.35966,0.93045
333.412,38.8106,-1.71187,1.36089,0.93014
334.012,38.8684,-1.73189,1.37114,0.92982
334.612,38.92617,-1.74987,1.35635,0.9295
335.212,38.98375,-1.76838,1.36153,0.92918
335.812,39.0416,-1.78623,1.35235,0.92887
336.412,39.09945,-1.80728,1.34723,0.92855
337.012,39.1574,-1.82729,1.35275,0.92823
337.612,39.2155,-1.84585,1.34299,0.92791
338.212,39.27344,-1.86716,1.34142,0.92759
338.812,39.3313,-1.88586,1.34396,0.92728
339.412,39.38919,-1.90679,1.34076,0.92696
340.012,39.4472,-1.92585,1.32272,0.92664
340.612,39.50544,-1.94622,1.31564,0.92632
341.212,39.56361,-1.9666,1.31076,0.926
341.812,39.6217,-1.98687,1.29146,0.92568
342.412,39.6798,-2.00839,1.28625,0.92536
343.012,39.73772,-2.02838,1.26995,0.92504
343.612,39.79602,-2.04699,1.25836,0.92472
344.212,39.85417,-2.06782,1.23736,0.9244
344.812,39.91248,-2.08939,1.22658,0.92408
345.412,39.97081,-2.1084,1.20233,0.92376
346.012,40.0293,-2.12895,1.19372,0.92344
346.612,40.08755,-2.14843,1.1727,0.92312
347.212,40.14598,-2.16875,1.14834,0.9228
347.812,40.20433,-2.18807,1.12879,0.92248
348.412,40.26277,-2.20792,1.10587,0.92216
349.012,40.32117,-2.22564,1.08652,0.92184
349.612,40.37941,-2.24436,1.07284,0.92152
350.212,40.43768,-2.26397,1.03371,0.9212
350.812,40.4958,-2.28225,1.00665,0.92087
351.412,40.55423,-2.30055,0.98925,0.92055
352.012,40.61235,-2.3179,0.96161,0.92023
352.612,40.67049,-2.33584,0.9391,0.91991
353.212,40.72887,-2.35117,0.9128,0.91959
353.812,40.7872,-2.36887,0.87565,0.91926
354.412,40.84596,-2.38358,0.84698,0.91894
355.012,40.90419,-2.40087,0.82378,0.91862
355.612,40.96236,-2.41498,0.7786,0.9183
356.212,41.02046,-2.43071,0.74396,0.91797
356.812,41.07882,-2.44428,0.71411,0.91765
357.412,41.13709,-2.45804,0.66835,0.91733
358.012,41.19542,-2.47026,0.6507,0.917
358.612,41.25372,-2.48128,0.62403,0.91668
359.212,41.31192,-2.49287,0.58344,0.91635
359.812,41.37024,-2.50297,0.55177,0.91603
360.412,41.42842,-2.51399,0.52023,0.91571
361.012,41.4865,-2.52285,0.49687,0.91538
361.612,41.54473,-2.53171,0.47106,0.91506
362.212,41.60281,-2.53922,0.45397,0.91473
362.812,41.66108,-2.54766,0.42375,0.91441
363.412,41.71927,-2.5535,0.40886,0.91408
364.012,41.77751,-2.55944,0.38173,0.91376
364.612,41.83578,-2.56601,0.36426,0.91343
365.212,41.8943,-2.57185,0.3496,0.91311
365.812,41.9525,-2.57677,0.33449,0.91278
366.412,42.0107,-2.5812,0.32919,0.91245
367.012,42.06906,-2.5854,0.29948,0.91213
367.612,42.1271,-2.58996,0.29556,0.9118
368.212,42.18542,-2.59275,0.29257,0.91147
368.812,42.24372,-2.59659,0.28241,0.91115
369.412,42.30198,-2.60025,0.27005,0.91082
370.012,42.3604,-2.60284,0.26218,0.91049
370.612,42.4187,-2.60643,0.23928,0.91017
371.212,42.47704,-2.60931,0.24844,0.90984
371.812,42.53535,-2.61344,0.23339,0.90951
372.412,42.5935,-2.61695,0.23058,0.90918
373.012,42.65161,-2.61961,0.21922,0.90885
373.612,42.70955,-2.62143,0.21661,0.90853
374.212,42.76769,-2.62412,0.21429,0.9082
374.812,42.82595,-2.62703,0.21262,0.90787
375.412,42.88423,-2.62959,0.19711,0.90754
376.012,42.9424,-2.6321,0.19518,0.90721
376.612,43.00051,-2.6345,0.18284,0.90688
377.212,43.0587,-2.63715,0.18042,0.90655
377.812,43.1171,-2.63899,0.17929,0.90622
378.412,43.17556,-2.64162,0.17854,0.90589
379.012,43.23409,-2.64399,0.17394,0.90556
379.612,43.29252,-2.64645,0.16655,0.90523
380.212,43.35099,-2.64984,0.16285,0.9049
380.812,43.40948,-2.65135,0.15586,0.90457
381.412,43.46785,-2.65398,0.15679,0.90424
382.012,43.52648,-2.6554,0.1457,0.90391
382.612,43.58508,-2.65832,0.1441,0.90358
383.212,43.64373,-2.66145,0.12984,0.90325
383.812,43.7025,-2.66377,0.12712,0.90292
384.412,43.76089,-2.66436,0.11875,0.90258
385.012,43.81926,-2.66637,0.11244,0.90225
385.612,43.87744,-2.66999,0.1156,0.90192
386.212,43.93587,-2.67206,0.11853,0.90159
386.812,43.9944,-2.67418,0.11122,0.90125
387.412,44.05299,-2.67744,0.11164,0.90092
388.012,44.1117,-2.67932,0.11478,0.90059
388.612,44.1701,-2.68148,0.10889,0.90026
389.212,44.22857,-2.68385,0.10952,0.89992
389.812,44.28709,-2.68409,0.10737,0.89959
390.412,44.34572,-2.68578,0.10438,0.89925
391.012,44.4044,-2.68695,0.0980521,0.89892
391.612,44.4629,-2.69071,0.09198115,0.89859
392.212,44.52126,-2.69244,0.0975447,0.89825
392.812,44.57969,-2.69387,0.08623297,0.89792
393.412,44.63808,-2.69674,0.09209999,0.89758
394.012,44.6967,-2.6968,0.07743289,0.89725
394.612,44.75504,-2.69912,0.0812735,0.89691
395.212,44.81345,-2.70089,0.07410799,0.89658
395.812,44.8716,-2.70353,0.07319606,0.89624
396.412,44.92995,-2.7054,0.06749538,0.8959
397.012,44.98853,-2.70672,0.07639849,0.89557
397.612,45.04736,-2.70864,0.06758617,0.89523
398.212,45.106,-2.71202,0.0687708,0.8949
398.812,45.16455,-2.71255,0.07164174,0.89456
399.412,45.223,-2.71494,0.06080538,0.89422
400.012,45.28113,-2.71625,0.06579807,0.89388
400.612,45.33958,-2.71838,0.06990657,0.89355
401.212,45.39799,-2.72034,0.06756957,0.89321
401.812,45.4564,-2.72151,0.06329534,0.89287
402.412,45.51494,-2.72314,0.07875978,0.89253
403.012,45.57346,-2.72595,0.07457126,0.89219
403.612,45.6323,-2.7289,0.07658674,0.89186
404.212,45.691,-2.73081,0.08113671,0.89152
404.812,45.7493,-2.73162,0.06582207,0.89118
405.412,45.80794,-2.73295,0.06969482,0.89084
406.012,45.86647,-2.73425,0.07374751,0.8905
406.612,45.9253,-2.73704,0.07119535,0.89016
407.212,45.9839,-2.73897,0.07256549,0.88982
407.812,46.0425,-2.74122,0.07648908,0.88948
408.412,46.10105,-2.74245,0.07835373,0.88914
409.012,46.15974,-2.74415,0.07463988,0.8888
409.612,46.21843,-2.74544,0.07268093,0.88846
410.212,46.27717,-2.74808,0.07049822,0.88812
410.812,46.33602,-2.74945,0.07284207,0.88777
411.412,46.39479,-2.74947,0.07341192,0.88743
412.012,46.4537,-2.75226,0.08168107,0.88709
412.612,46.51238,-2.75393,0.07254127,0.88675
413.212,46.5711,-2.75657,0.06803235,0.88641
413.812,46.62993,-2.75784,0.08057323,0.88606
414.412,46.6888,-2.75913,0.08190803,0.88572
415.012,46.74772,-2.76037,0.08078199,0.88538
415.612,46.8063,-2.76178,0.08615201,0.88504
416.212,46.86509,-2.76343,0.08105743,0.88469
416.812,46.92378,-2.76586,0.07643367,0.88435
417.412,46.98238,-2.76755,0.08787704,0.884
418.012,47.04115,-2.77038,0.07744967,0.88366
418.612,47.09998,-2.77165,0.09544697,0.88332
419.212,47.15876,-2.77238,0.10458,0.88297
419.812,47.2177,-2.77452,0.09213084,0.88263
420.412,47.27689,-2.77581,0.09984346,0.88228
421.012,47.3358,-2.77817,0.10517,0.88194
421.612,47.3947,-2.77812,0.10229,0.88159
422.212,47.45361,-2.77945,0.10574,0.88125
422.812,47.51249,-2.78078,0.12086,0.8809
423.412,47.57115,-2.78206,0.12073,0.88055
424.012,47.6301,-2.78306,0.12274,0.88021
424.612,47.68884,-2.78471,0.12044,0.87986
425.212,47.74757,-2.78603,0.11983,0.87951
425.812,47.8063,-2.78947,0.12626,0.87916
426.412,47.86521,-2.79018,0.13975,0.87882
427.012,47.92408,-2.7915,0.13882,0.87847
427.612,47.98312,-2.79284,0.14342,0.87812
428.212,48.04155,-2.79343,0.14926,0.87777
428.812,48.10007,-2.79628,0.15006,0.87742
429.412,48.15893,-2.79754,0.15385,0.87708
430.012,48.21783,-2.79888,0.16436,0.87673
430.612,48.2773,-2.80003,0.16667,0.87638
431.212,48.3362,-2.80059,0.16556,0.87603
431.812,48.39493,-2.80243,0.17024,0.87568
432.412,48.45388,-2.80421,0.17772,0.87533
433.012,48.5126,-2.80566,0.18242,0.87498
433.612,48.57156,-2.80691,0.17859,0.87463
434.212,48.63046,-2.80829,0.16905,0.87428
434.812,48.68922,-2.81092,0.19117,0.87393
435.412,48.7481,-2.8122,0.19609,0.87357
436.012,48.8067,-2.81361,0.19208,0.87322
436.612,48.86528,-2.81355,0.1988,0.87287
437.212,48.92396,-2.81487,0.19709,0.87252
437.812,48.98277,-2.81617,0.19965,0.87217
438.412,49.0413,-2.81751,0.22102,0.87181
439.012,49.10017,-2.81882,0.21656,0.87146
439.612,49.15886,-2.81959,0.22931,0.87111
440.212,49.21764,-2.82087,0.22438,0.87076
440.812,49.2766,-2.82213,0.22511,0.8704
441.412,49.33552,-2.82355,0.23512,0.87005
442.012,49.39447,-2.82485,0.2353,0.86969
442.612,49.4535,-2.82692,0.23978,0.86934
443.212,49.51252,-2.82814,0.23747,0.86898
443.812,49.57148,-2.82943,0.24049,0.86863
444.412,49.63042,-2.83078,0.2629,0.86827
445.012,49.6895,-2.83209,0.24687,0.86792
445.612,49.74864,-2.83341,0.255,0.86756
446.212,49.8078,-2.83409,0.25661,0.86721
446.812,49.86679,-2.83471,0.26941,0.86685
447.412,49.9259,-2.83473,0.27788,0.86649
448.012,49.98498,-2.83599,0.26997,0.86614
448.612,50.04418,-2.83876,0.27432,0.86578
449.212,50.10335,-2.83996,0.27756,0.86542
449.812,50.16252,-2.8401,0.29011,0.86507
450.412,50.22155,-2.84134,0.28227,0.86471
451.012,50.28053,-2.84261,0.29203,0.86435
451.612,50.33955,-2.84395,0.29613,0.86399
452.212,50.3988,-2.84525,0.29151,0.86363
452.812,50.45823,-2.84657,0.30412,0.86327
453.412,50.5175,-2.8481,0.29978,0.86291
454.012,50.57627,-2.84784,0.30444,0.86256
454.612,50.6353,-2.84979,0.3179,0.8622
455.212,50.6944,-2.8514,0.31462,0.86184
455.812,50.75374,-2.85183,0.31238,0.86148
456.412,50.81296,-2.8532,0.31656,0.86111
457.012,50.87188,-2.85448,0.31853,0.86075
457.612,50.93083,-2.85585,0.32663,0.86039
458.212,50.9898,-2.85742,0.31873,0.86003
458.812,51.04898,-2.85743,0.31501,0.85967
459.412,51.10812,-2.8587,0.32556,0.85931
460.012,51.16713,-2.86008,0.33056,0.85895
460.612,51.22614,-2.86006,0.33426,0.85858
461.212,51.2853,-2.86138,0.32912,0.85822
461.812,51.34426,-2.86264,0.33767,0.85786
462.412,51.4032,-2.86401,0.346,0.85749
463.012,51.4619,-2.86531,0.35318,0.85713
463.612,51.52069,-2.86579,0.35391,0.85677
464.212,51.57955,-2.867,0.36076,0.8564
464.812,51.63835,-2.86924,0.36747,0.85604
465.412,51.69744,-2.86927,0.35885,0.85567
466.012,51.75662,-2.86926,0.35748,0.85531
466.612,51.8157,-2.87128,0.35974,0.85494
467.212,51.87502,-2.87239,0.36437,0.85458
467.812,51.9341,-2.87235,0.36909,0.85421
468.412,51.99304,-2.87464,0.35703,0.85385
469.012,52.05213,-2.8763,0.37332,0.85348
469.612,52.11117,-2.87641,0.36776,0.85311
470.212,52.17031,-2.87761,0.36892,0.85275
470.812,52.22957,-2.87893,0.37965,0.85238
471.412,52.2888,-2.88024,0.38953,0.85201
472.012,52.34809,-2.88156,0.375,0.85164
472.612,52.40732,-2.88162,0.37931,0.85127
473.212,52.4664,-2.88189,0.38531,0.85091
473.812,52.5253,-2.88288,0.38327,0.85054
474.412,52.5842,-2.88429,0.3806,0.85017
475.012,52.6432,-2.88552,0.38521,0.8498
475.612,52.7023,-2.88692,0.37873,0.84943
476.212,52.7617,-2.88683,0.38808,0.84906
476.812,52.8211,-2.88684,0.38741,0.84869
477.412,52.88052,-2.88816,0.38201,0.84832
478.012,52.9398,-2.88946,0.381,0.84795
478.612,52.9992,-2.89078,0.38979,0.84758
479.212,53.05846,-2.8921,0.39179,0.84721
479.812,53.1179,-2.89342,0.38987,0.84683
480.412,53.17711,-2.89477,0.39063,0.84646
481.012,53.2363,-2.89539,0.38343,0.84609
481.612,53.2956,-2.89601,0.39249,0.84572
482.212,53.35491,-2.8967,0.38733,0.84535
482.812,53.41418,-2.89795,0.39053,0.84497
483.412,53.4735,-2.89802,0.39647,0.8446
484.012,53.5328,-2.89934,0.40078,0.84423
484.612,53.59219,-2.89933,0.39535,0.84385
485.212,53.65152,-2.90066,0.3915,0.84348
485.812,53.71089,-2.90132,0.38912,0.8431
486.412,53.77038,-2.90265,0.38992,0.84273
487.012,53.8296,-2.90265,0.39127,0.84235
487.612,53.88899,-2.90393,0.39515,0.84198
488.212,53.9483,-2.90525,0.40254,0.8416
488.812,54.0077,-2.90658,0.41624,0.84123
489.412,54.06709,-2.90757,0.40484,0.84085
490.012,54.1264,-2.90725,0.40265,0.84047
490.612,54.18584,-2.90854,0.4073,0.8401
491.212,54.24514,-2.9095,0.41506,0.83972
491.812,54.3045,-2.90986,0.40728,0.83934
492.412,54.3638,-2.91119,0.40991,0.83896
493.012,54.423,-2.91121,0.40634,0.83858
493.612,54.4823,-2.91249,0.4183,0.83821
494.212,54.54161,-2.9139,0.42211,0.83783
494.812,54.60111,-2.9152,0.42923,0.83745
495.412,54.6605,-2.91647,0.41361,0.83707
496.012,54.71999,-2.91643,0.42677,0.83669
496.612,54.77945,-2.91776,0.42136,0.83631
497.212,54.839,-2.91841,0.44714,0.83593
497.812,54.89835,-2.9191,0.4377,0.83555
498.412,54.95729,-2.91904,0.45906,0.83517
499.012,55.0164,-2.92136,0.45665,0.83479
499.612,55.07575,-2.92137,0.46303,0.83441
500.212,55.1351,-2.92269,0.47005,0.83402
500.812,55.1948,-2.92396,0.48525,0.83364
501.412,55.25394,-2.92359,0.48241,0.83326
502.012,55.3131,-2.92401,0.48319,0.83288
502.612,55.3724,-2.92543,0.4828,0.83249
503.212,55.43184,-2.92664,0.48724,0.83211
503.812,55.4913,-2.92796,0.48962,0.83173
504.412,55.55086,-2.92833,0.48666,0.83134
505.012,55.61028,-2.92794,0.49884,0.83096
505.612,55.66965,-2.92965,0.49855,0.83057
506.212,55.72894,-2.93059,0.5017,0.83019
506.812,55.7881,-2.93191,0.49649,0.8298
507.412,55.8476,-2.93191,0.50663,0.82942
508.012,55.90729,-2.93184,0.49833,0.82903
508.612,55.9671,-2.93318,0.50761,0.82865
509.212,56.02678,-2.93455,0.50701,0.82826
509.812,56.08631,-2.93519,0.5183,0.82787
510.412,56.1457,-2.93509,0.50981,0.82749
511.012,56.2051,-2.9365,0.51282,0.8271
511.612,56.2646,-2.93783,0.52225,0.82671
512.212,56.32388,-2.93888,0.52304,0.82632
512.812,56.3835,-2.9392,0.53452,0.82593
513.412,56.4431,-2.94013,0.53558,0.82555
514.012,56.50285,-2.9415,0.53556,0.82516
514.612,56.56255,-2.94145,0.53979,0.82477
515.212,56.62203,-2.94142,0.53199,0.82438
515.812,56.6814,-2.94276,0.53517,0.82399
516.412,56.7408,-2.94408,0.54444,0.8236
517.012,56.8002,-2.94408,0.54314,0.82321
517.612,56.85971,-2.9454,0.54992,0.82282
518.212,56.9192,-2.9454,0.53805,0.82243
518.812,56.97874,-2.94638,0.53308,0.82203
519.412,57.0381,-2.94638,0.54971,0.82164
520.012,57.0977,-2.94693,0.54048,0.82125
520.612,57.15733,-2.94795,0.546,0.82086
521.212,57.21686,-2.94837,0.54145,0.82047
521.812,57.2764,-2.94827,0.55658,0.82007
522.412,57.33591,-2.95097,0.55429,0.81968
523.012,57.39519,-2.95099,0.55483,0.81929
523.612,57.45451,-2.9523,0.55144,0.81889
524.212,57.51373,-2.95339,0.55988,0.8185
524.812,57.57294,-2.95296,0.55403,0.8181
525.412,57.63231,-2.95298,0.5565,0.81771
526.012,57.69184,-2.95428,0.56713,0.81731
526.612,57.75134,-2.95424,0.56167,0.81692
527.212,57.8108,-2.9567,0.57511,0.81652
527.812,57.87025,-2.95828,0.57463,0.81612
528.412,57.9296,-2.95823,0.56935,0.81573
529.012,57.98927,-2.95823,0.57828,0.81533
529.612,58.04895,-2.95887,0.57394,0.81493
530.212,58.1085,-2.95955,0.56662,0.81454
530.812,58.16806,-2.95956,0.57854,0.81414
531.412,58.2276,-2.96086,0.58813,0.81374
532.012,58.2873,-2.96078,0.58204,0.81334
532.612,58.3469,-2.96152,0.58245,0.81294
533.212,58.40655,-2.96152,0.58472,0.81254
533.812,58.4661,-2.96152,0.58283,0.81214
534.412,58.52561,-2.96282,0.56513,0.81175
535.012,58.58543,-2.96379,0.561,0.81135
535.612,58.64505,-2.96383,0.56427,0.81094
536.212,58.70515,-2.96381,0.54885,0.81054
536.812,58.76491,-2.96514,0.53778,0.81014
537.412,58.82501,-2.96644,0.53989,0.80974
538.012,58.88508,-2.96574,0.54138,0.80934
538.612,58.9451,-2.9658,0.53418,0.80894
539.212,59.00496,-2.96635,0.52877,0.80854
539.812,59.06471,-2.96715,0.52217,0.80813
540.412,59.1248,-2.96843,0.51278,0.80773
541.012,59.18464,-2.96951,0.50688,0.80733
541.612,59.24455,-2.97073,0.49974,0.80692
542.212,59.30455,-2.96966,0.49401,0.80652
542.812,59.3644,-2.9696,0.49923,0.80611
543.412,59.4246,-2.97102,0.48269,0.80571
544.012,59.48466,-2.97137,0.49245,0.8053
544.612,59.54461,-2.97238,0.48158,0.8049
545.212,59.60439,-2.97371,0.47905,0.80449
545.812,59.66421,-2.9737,0.48467,0.80409
546.412,59.72413,-2.97503,0.47639,0.80368
547.012,59.7841,-2.97502,0.47015,0.80327
547.612,59.844,-2.97502,0.47046,0.80287
548.212,59.90371,-2.97634,0.46853,0.80246
548.812,59.9631,-2.97635,0.46821,0.80205
549.412,60.023,-2.97765,0.47296,0.80165
550.012,60.0831,-2.97789,0.46231,0.80124
550.612,60.14365,-2.97831,0.45861,0.80083
551.212,60.20384,-2.97896,0.46033,0.80042
551.812,60.26407,-2.97993,0.46393,0.80001
552.412,60.32405,-2.97995,0.46388,0.7996
553.012,60.38385,-2.97989,0.45512,0.79919
553.612,60.44379,-2.97923,0.45651,0.79878
554.212,60.5037,-2.98124,0.45153,0.79837
554.812,60.5637,-2.98127,0.45159,0.79796
555.412,60.6237,-2.98267,0.46512,0.79755
556.012,60.6838,-2.98217,0.46157,0.79714
556.612,60.74369,-2.9813,0.44444,0.79672
557.212,60.80378,-2.9818,0.46075,0.79631
557.812,60.8636,-2.98309,0.45501,0.7959
558.412,60.9234,-2.98393,0.47094,0.79549
559.012,60.9831,-2.98435,0.43975,0.79507
559.612,61.0429,-2.98401,0.45465,0.79466
560.212,61.10286,-2.98537,0.44328,0.79425
560.812,61.16276,-2.98534,0.44898,0.79383
561.412,61.22263,-2.98751,0.45009,0.79342
562.012,61.2826,-2.98763,0.44587,0.793
562.612,61.3427,-2.98763,0.44233,0.79259
563.212,61.40265,-2.98756,0.45235,0.79217
563.812,61.46286,-2.98762,0.4498,0.79176
564.412,61.52265,-2.98792,0.44708,0.79134
565.012,61.58255,-2.98894,0.43846,0.79092
565.612,61.6425,-2.98909,0.43775,0.79051
566.212,61.70235,-2.99026,0.43005,0.79009
566.812,61.7627,-2.99145,0.44084,0.78967
567.412,61.8227,-2.99157,0.43908,0.78925
568.012,61.8826,-2.99157,0.44335,0.78884
568.612,61.9425,-2.99289,0.44073,0.78842
569.212,62.0022,-2.99305,0.44848,0.788
569.812,62.0618,-2.99421,0.44823,0.78758
570.412,62.12149,-2.99505,0.43184,0.78716
571.012,62.18114,-2.99552,0.4372,0.78674
571.612,62.2408,-2.99552,0.43906,0.78632
572.212,62.3004,-2.99684,0.44145,0.7859
572.812,62.36002,-2.99684,0.44946,0.78548
573.412,62.4198,-2.99684,0.43956,0.78506
574.012,62.47945,-2.99719,0.4423,0.78463
574.612,62.53911,-2.9975,0.4407,0.78421
575.212,62.59867,-2.9975,0.44303,0.78379
575.812,62.6584,-2.99751,0.44568,0.78337
576.412,62.7179,-2.99881,0.43721,0.78295
577.012,62.7776,-2.99979,0.43172,0.78252
577.612,62.83744,-2.9998,0.43398,0.7821
578.212,62.89711,-3.00013,0.43517,0.78167
578.812,62.9572,-3.00095,0.43069,0.78125
579.412,63.0168,-3.00111,0.42362,0.78083
580.012,63.07654,-3.00144,0.42343,0.7804
580.612,63.13635,-3.00144,0.43021,0.77998
581.212,63.1963,-3.00275,0.41283,0.77955
581.812,63.2562,-3.00279,0.42017,0.77912
582.412,63.3163,-3.00408,0.42699,0.7787
583.012,63.3764,-3.00412,0.42921,0.77827
583.612,63.4364,-3.00624,0.41496,0.77784
584.212,63.49641,-3.00628,0.41897,0.77742
584.812,63.5564,-3.00759,0.41498,0.77699
585.412,63.61643,-3.0076,0.4117,0.77656
586.012,63.67624,-3.00628,0.41089,0.77613
586.612,63.7362,-3.00762,0.41031,0.77571
587.212,63.796,-3.00759,0.41588,0.77528
587.812,63.85605,-3.00758,0.40553,0.77485
588.412,63.91607,-3.00891,0.40432,0.77442
589.012,63.97576,-3.00995,0.39294,0.77399
589.612,64.03582,-3.01023,0.40303,0.77356
590.212,64.0958,-3.00907,0.39923,0.77313
590.812,64.15581,-3.00892,0.39652,0.7727
591.412,64.21575,-3.01022,0.3931,0.77226
592.012,64.27566,-3.01054,0.39422,0.77183
592.612,64.33555,-3.01055,0.39508,0.7714
593.212,64.3956,-3.0117,0.40223,0.77097
593.812,64.4558,-3.01226,0.4033,0.77054
594.412,64.51592,-3.01319,0.40009,0.7701
595.012,64.5759,-3.01319,0.39566,0.76967
595.612,64.63594,-3.01319,0.39054,0.76924
596.212,64.69595,-3.01385,0.39124,0.7688
596.812,64.756,-3.01396,0.37606,0.76837
597.412,64.81608,-3.01318,0.37902,0.76793
598.012,64.8764,-3.01318,0.37074,0.7675
598.612,64.9368,-3.01318,0.37514,0.76706
599.212,64.99699,-3.01318,0.38729,0.76663
599.812,65.05725,-3.01449,0.38358,0.76619
600.412,65.1175,-3.01541,0.38009,0.76576
601.012,65.17796,-3.01549,0.39168,0.76532
601.612,65.23813,-3.01547,0.37421,0.76488
602.212,65.29858,-3.01714,0.38214,0.76444
602.812,65.3589,-3.01713,0.38942,0.76401
603.412,65.41934,-3.01747,0.3876,0.76357
604.012,65.47968,-3.01714,0.38373,0.76313
604.612,65.54013,-3.01714,0.39676,0.76269
605.212,65.60038,-3.01714,0.38832,0.76225
605.812,65.66088,-3.01726,0.40394,0.76181
606.412,65.7212,-3.01845,0.3981,0.76137
607.012,65.78156,-3.01845,0.39374,0.76093
607.612,65.842,-3.01942,0.39438,0.76049
608.212,65.90228,-3.01953,0.39246,0.76005
608.812,65.96274,-3.01976,0.3951,0.75961
609.412,66.02323,-3.01967,0.40219,0.75917
610.012,66.08354,-3.02109,0.4065,0.75873
610.612,66.14401,-3.02108,0.40596,0.75829
611.212,66.20421,-3.02207,0.40604,0.75784
611.812,66.26469,-3.02207,0.40027,0.7574
612.412,66.32502,-3.02197,0.40263,0.75696
613.012,66.38535,-3.02339,0.41302,0.75652
613.612,66.44559,-3.02339,0.40628,0.75607
614.212,66.50588,-3.02469,0.42851,0.75563
614.812,66.566,-3.0247,0.42001,0.75518
615.412,66.6263,-3.0247,0.40686,0.75474
616.012,66.6866,-3.02469,0.42845,0.75429
616.612,66.74706,-3.02602,0.42732,0.75385
617.212,66.8075,-3.02566,0.4389,0.7534
617.812,66.86784,-3.02668,0.42542,0.75296
618.412,66.9281,-3.02668,0.42616,0.75251
619.012,66.98858,-3.02799,0.44123,0.75206
619.612,67.04897,-3.02799,0.43435,0.75162
620.212,67.10955,-3.02799,0.43465,0.75117
620.812,67.17,-3.02799,0.44218,0.75072
621.412,67.23023,-3.02936,0.44561,0.75027
622.012,67.29057,-3.02931,0.45122,0.74983
622.612,67.3509,-3.03042,0.44435,0.74938
623.212,67.41121,-3.03146,0.46618,0.74893
623.812,67.47149,-3.03195,0.45377,0.74848
624.412,67.53189,-3.0308,0.4534,0.74803
625.012,67.59222,-3.03219,0.45566,0.74758
625.612,67.65259,-3.03358,0.46917,0.74713
626.212,67.713,-3.03326,0.45903,0.74668
626.812,67.77331,-3.03434,0.46678,0.74623
627.412,67.83362,-3.03424,0.45563,0.74578
628.012,67.89402,-3.03424,0.45494,0.74532
628.612,67.95421,-3.03464,0.46101,0.74487
629.212,68.01428,-3.03589,0.46597,0.74442
629.812,68.07466,-3.03589,0.46353,0.74397
630.412,68.13492,-3.03589,0.47268,0.74351
631.012,68.1958,-3.03589,0.47578,0.74306
631.612,68.2561,-3.0363,0.46836,0.74261
632.212,68.3164,-3.03721,0.47963,0.74215
632.812,68.3766,-3.03721,0.47174,0.7417
633.412,68.43689,-3.03857,0.47447,0.74124
634.012,68.49738,-3.0372,0.47521,0.74079
634.612,68.55794,-3.03852,0.48442,0.74033
635.212,68.61841,-3.03718,0.47807,0.73988
635.812,68.6787,-3.03952,0.47685,0.73942
636.412,68.73914,-3.03951,0.4832,0.73897
637.012,68.7996,-3.04083,0.46781,0.73851
637.612,68.8603,-3.04083,0.47528,0.73805
638.212,68.9209,-3.04155,0.48727,0.7376
638.812,68.98127,-3.04013,0.47473,0.73714
639.412,69.0416,-3.04082,0.48834,0.73668
640.012,69.1019,-3.04212,0.47344,0.73622
640.612,69.1623,-3.04208,0.47536,0.73576
641.212,69.22305,-3.04209,0.48373,0.73531
641.812,69.2838,-3.04214,0.46879,0.73485
642.412,69.34431,-3.04286,0.46882,0.73439
643.012,69.405,-3.04134,0.48624,0.73393
643.612,69.46557,-3.04203,0.47334,0.73347
644.212,69.5262,-3.04477,0.47154,0.73301
644.812,69.58675,-3.04477,0.46779,0.73254
645.412,69.64713,-3.04495,0.4678,0.73208
646.012,69.70767,-3.04511,0.46122,0.73162
646.612,69.76841,-3.04511,0.46461,0.73116
647.212,69.82887,-3.04511,0.46575,0.7307
647.812,69.8897,-3.04511,0.46249,0.73024
648.412,69.95035,-3.04511,0.45557,0.72977
649.012,70.01114,-3.04643,0.45946,0.72931
649.612,70.07189,-3.04612,0.45272,0.72885
650.212,70.13243,-3.0461,0.45624,0.72838
650.812,70.1931,-3.04609,0.4656,0.72792
651.412,70.25371,-3.04609,0.45253,0.72745
652.012,70.31442,-3.04609,0.45443,0.72699
652.612,70.37519,-3.04609,0.45932,0.72652
653.212,70.43575,-3.04606,0.46477,0.72606
653.812,70.4966,-3.04806,0.45184,0.72559
654.412,70.55728,-3.04755,0.46085,0.72513
655.012,70.61784,-3.04741,0.45356,0.72466
655.612,70.67851,-3.04839,0.45411,0.72419
656.212,70.7391,-3.04872,0.45853,0.72373
656.812,70.7996,-3.04872,0.45458,0.72326
657.412,70.86013,-3.04872,0.45042,0.72279
658.012,70.92061,-3.04871,0.46676,0.72232
658.612,70.98101,-3.04755,0.43615,0.72186
659.212,71.04164,-3.04883,0.44814,0.72139
659.812,71.10218,-3.05004,0.44538,0.72092
660.412,71.1627,-3.05132,0.43779,0.72045
661.012,71.22301,-3.05135,0.44161,0.71998
661.612,71.28341,-3.05003,0.4438,0.71951
662.212,71.34374,-3.05004,0.42439,0.71904
662.812,71.40401,-3.05004,0.42456,0.71857
663.412,71.46457,-3.05135,0.43329,0.7181
664.012,71.52507,-3.05004,0.42989,0.71763
664.612,71.58548,-3.05004,0.42095,0.71716
665.212,71.64587,-3.05004,0.43257,0.71668
665.812,71.70606,-3.05004,0.41915,0.71621
666.412,71.76644,-3.05247,0.424,0.71574
667.012,71.82676,-3.05255,0.44339,0.71527
667.612,71.88712,-3.04952,0.45162,0.71479
668.212,71.94756,-3.05206,0.45296,0.71432
668.812,72.0079,-3.05202,0.45012,0.71385
669.412,72.06836,-3.05333,0.47186,0.71337
670.012,72.12901,-3.05333,0.46778,0.7129
670.612,72.18949,-3.05434,0.47018,0.71242
671.212,72.25,-3.05432,0.48309,0.71195
671.812,72.31042,-3.05432,0.49062,0.71147
672.412,72.37086,-3.05432,0.49059,0.711
673.012,72.43141,-3.05561,0.4978,0.71052
673.612,72.49213,-3.05563,0.50371,0.71005
674.212,72.5528,-3.05563,0.50262,0.70957
674.812,72.61344,-3.05562,0.50256,0.70909
675.412,72.67401,-3.05662,0.51174,0.70862
676.012,72.7345,-3.05672,0.52586,0.70814
676.612,72.795,-3.05424,0.52102,0.70766
677.212,72.85548,-3.0557,0.519,0.70718
677.812,72.91593,-3.05563,0.53543,0.7067
678.412,72.97626,-3.05563,0.52381,0.70622
679.012,73.0365,-3.05563,0.53553,0.70575
679.612,73.09675,-3.05606,0.54242,0.70527
680.212,73.15717,-3.0573,0.54468,0.70479
680.812,73.2178,-3.0586,0.55244,0.70431
681.412,73.27831,-3.0586,0.55719,0.70383
682.012,73.33874,-3.05761,0.55236,0.70335
682.612,73.39915,-3.05761,0.57311,0.70287
683.212,73.4596,-3.05761,0.56584,0.70238
683.812,73.5201,-3.05704,0.57565,0.7019
684.412,73.58071,-3.05793,0.57734,0.70142
685.012,73.64132,-3.05878,0.59951,0.70094
685.612,73.70177,-3.06057,0.59171,0.70046
686.212,73.7623,-3.06057,0.59423,0.69997
686.812,73.8228,-3.06024,0.60336,0.69949
687.412,73.88338,-3.06024,0.6073,0.69901
688.012,73.94411,-3.06024,0.6195,0.69852
688.612,74.00461,-3.06115,0.61757,0.69804
689.212,74.06512,-3.06116,0.63806,0.69756
689.812,74.12555,-3.0609,0.62637,0.69707
690.412,74.1862,-3.06221,0.63848,0.69659
691.012,74.2469,-3.06221,0.6484,0.6961
691.612,74.3077,-3.0609,0.64894,0.69562
692.212,74.3684,-3.06222,0.64665,0.69513
692.812,74.42912,-3.06221,0.64245,0.69464
693.412,74.48991,-3.06254,0.64668,0.69416
694.012,74.55085,-3.06251,0.66137,0.69367
694.612,74.6118,-3.06353,0.65629,0.69318
695.212,74.67254,-3.06353,0.666,0.6927
695.812,74.73336,-3.06353,0.67943,0.69221
696.412,74.79423,-3.06353,0.6876,0.69172
697.012,74.85509,-3.06353,0.67628,0.69123
697.612,74.9161,-3.06352,0.69404,0.69075
698.212,74.97678,-3.06485,0.70354,0.69026
698.812,75.03761,-3.06551,0.70475,0.68977
699.412,75.098,-3.0655,0.71287,0.68928
700.012,75.1585,-3.06682,0.72218,0.68879
700.612,75.2192,-3.06583,0.7205,0.6883
701.212,75.2799,-3.0655,0.73036,0.68781
701.812,75.34074,-3.06693,0.74189,0.68732
702.412,75.4015,-3.06681,0.75284,0.68683
703.012,75.46212,-3.06551,0.75742,0.68634
703.612,75.5228,-3.06682,0.76756,0.68585
704.212,75.5835,-3.06687,0.76152,0.68535
704.812,75.64431,-3.06814,0.7754,0.68486
705.412,75.70517,-3.06814,0.7833,0.68437
706.012,75.76592,-3.06814,0.76578,0.68388
706.612,75.82675,-3.06814,0.75996,0.68338
707.212,75.88761,-3.06814,0.77031,0.68289
707.812,75.9482,-3.06684,0.77188,0.6824
708.412,76.009,-3.06683,0.7979,0.6819
709.012,76.0697,-3.06617,0.79235,0.68141
709.612,76.1306,-3.06748,0.80427,0.68092
710.212,76.19142,-3.06748,0.81495,0.68042
710.812,76.25203,-3.06765,0.79446,0.67993
711.412,76.31267,-3.06814,0.80425,0.67943
712.012,76.37347,-3.06819,0.81048,0.67894
712.612,76.43418,-3.06946,0.81585,0.67844
713.212,76.4951,-3.06951,0.81318,0.67795
713.812,76.55587,-3.06982,0.81721,0.67745
714.412,76.6168,-3.07262,0.81838,0.67695
715.012,76.67746,-3.07033,0.82924,0.67646
715.612,76.73815,-3.07044,0.82687,0.67596
716.212,76.79865,-3.0698,0.82492,0.67546
716.812,76.85933,-3.07044,0.81834,0.67496
717.412,76.91973,-3.07045,0.82127,0.67447
718.012,76.98049,-3.07142,0.84232,0.67397
718.612,77.04103,-3.07143,0.8491,0.67347
719.212,77.1018,-3.07132,0.84717,0.67297
719.812,77.16266,-3.07022,0.84761,0.67247
720.412,77.22335,-3.07081,0.84938,0.67197
721.012,77.28403,-3.0728,0.84089,0.67147
721.612,77.34443,-3.07307,0.84298,0.67097
722.212,77.405,-3.07176,0.85276,0.67047
722.812,77.46561,-3.07175,0.85424,0.66997
723.412,77.5263,-3.0717,0.85624,0.66947
724.012,77.58704,-3.07307,0.85309,0.66897
724.612,77.6477,-3.07286,0.86033,0.66847
725.212,77.70825,-3.07176,0.85936,0.66797
725.812,77.7689,-3.07176,0.87534,0.66747
726.412,77.82953,-3.07176,0.87033,0.66696
727.012,77.89013,-3.07209,0.86809,0.66646
727.612,77.95107,-3.07275,0.86727,0.66596
728.212,78.01173,-3.07275,0.88318,0.66546
728.812,78.07254,-3.07407,0.89333,0.66495
729.412,78.13346,-3.07274,0.8918,0.66445
730.012,78.19462,-3.07279,0.88098,0.66395
730.612,78.2556,-3.07277,0.88339,0.66344
731.212,78.31656,-3.07406,0.88409,0.66294
731.812,78.37739,-3.07408,0.89088,0.66243
732.412,78.4383,-3.07538,0.89785,0.66193
733.012,78.49924,-3.07406,0.9136,0.66142
733.612,78.56028,-3.07504,0.90152,0.66092
734.212,78.62124,-3.07576,0.91436,0.66041
734.812,78.68211,-3.0757,0.90665,0.65991
735.412,78.74274,-3.0757,0.91073,0.6594
736.012,78.8036,-3.0757,0.90987,0.65889
736.612,78.86455,-3.07504,0.92845,0.65839
737.212,78.92563,-3.07504,0.92026,0.65788
737.812,78.98696,-3.07504,0.91857,0.65737
738.412,79.0481,-3.07438,0.92013,0.65687
739.012,79.10915,-3.07439,0.90782,0.65636
739.612,79.17008,-3.07472,0.9252,0.65585
740.212,79.23089,-3.07604,0.92148,0.65534
740.812,79.2919,-3.07592,0.92473,0.65483
741.412,79.35303,-3.07468,0.9301,0.65432
742.012,79.414,-3.07604,0.9185,0.65382
742.612,79.4751,-3.07473,0.9219,0.65331
743.212,79.53605,-3.07472,0.92478,0.6528
743.812,79.59702,-3.07603,0.92278,0.65229
744.412,79.658,-3.07604,0.92971,0.65178
745.012,79.71875,-3.07604,0.93993,0.65127
745.612,79.77938,-3.07735,0.91785,0.65076
746.212,79.84005,-3.07735,0.90641,0.65025
746.812,79.90077,-3.07735,0.90391,0.64973
747.412,79.96168,-3.07715,0.92187,0.64922
747.712,79.99186,-3.07603,0.91499,0.64897