File: 01_Data/Luan_Panel/STA/N2/10K_min/Luan_STA_N2_10KData_221003_R3.csv
##Temp./Â°C,Time/min,Mass loss(subtr.2)/mg,DSC(subtr.2)/mW,Sensit./(uV/mW)
49.713,10.00917,-0.04344,0.06031738,1.07515
50.313,10.7277,-0.04609817,0.17831,1.07484
50.913,10.91807,-0.04698881,0.25919,1.07452
51.513,11.05818,-0.04696256,0.3344,1.07421
52.113,11.17795,-0.04541523,0.39362,1.0739
52.713,11.28332,-0.04723909,0.45219,1.07359
53.313,11.37937,-0.04682246,0.49984,1.07327
53.913,11.46945,-0.04760433,0.54258,1.07296
54.513,11.55488,-0.04398157,0.58158,1.07265
55.113,11.637,-0.04626143,0.613,1.07234
55.713,11.7165,-0.04782078,0.65057,1.07202
56.313,11.79298,-0.04832294,0.67149,1.07171
56.913,11.86777,-0.04784883,0.70175,1.0714
57.513,11.94103,-0.04781227,0.72369,1.07109
58.113,12.01304,-0.04921062,0.75361,1.07077
58.713,12.08425,-0.0477939,0.77444,1.07046
59.313,12.1547,-0.04917947,0.79944,1.07015
59.913,12.22429,-0.04940909,0.81417,1.06984
60.513,12.29283,-0.05031945,0.8302,1.06953
61.113,12.36069,-0.0488955,0.84119,1.06922
61.713,12.42817,-0.04936005,0.8621,1.0689
62.313,12.49507,-0.04904194,0.86749,1.06859
62.913,12.5615,-0.05008837,0.87512,1.06828
63.513,12.62776,-0.05069359,0.89543,1.06797
64.113,12.69382,-0.05209861,0.90774,1.06766
64.713,12.75958,-0.05104553,0.91636,1.06735
65.313,12.82525,-0.0505957,0.931,1.06703
65.913,12.89065,-0.05198884,0.94528,1.06672
66.513,12.95595,-0.05077725,0.94736,1.06641
67.113,13.02126,-0.0519938,0.95818,1.0661
67.713,13.08582,-0.05199619,0.96819,1.06579
68.313,13.1506,-0.0532934,0.9724,1.06548
68.913,13.2151,-0.05466466,0.98638,1.06517
69.513,13.27984,-0.05329865,0.99291,1.06486
70.113,13.344,-0.05329409,1.01064,1.06455
70.713,13.40794,-0.05461956,1.01388,1.06424
71.313,13.4716,-0.05470816,1.02745,1.06392
71.913,13.5354,-0.05462983,1.03648,1.06361
72.513,13.5993,-0.05462982,1.0512,1.0633
73.113,13.663,-0.05586557,1.05441,1.06299
73.713,13.7258,-0.05602904,1.06905,1.06268
74.313,13.78873,-0.05725004,1.07851,1.06237
74.913,13.85166,-0.05725,1.08956,1.06206
75.513,13.9149,-0.0572639,1.10271,1.06175
76.113,13.9777,-0.05857038,1.1027,1.06144
76.713,14.04026,-0.05726577,1.11342,1.06113
77.313,14.1028,-0.05857825,1.11431,1.06082
77.913,14.16495,-0.05857951,1.1249,1.06051
78.513,14.22625,-0.05986561,1.12777,1.0602
79.113,14.288,-0.05988999,1.13548,1.05989
79.713,14.35014,-0.05989454,1.15308,1.05958
80.313,14.41265,-0.06121056,1.15061,1.05927
80.913,14.4743,-0.06121013,1.15871,1.05896
81.513,14.53599,-0.06188051,1.17502,1.05865
82.113,14.5974,-0.06384261,1.16766,1.05834
82.713,14.65896,-0.06558279,1.17314,1.05803
83.313,14.7204,-0.07150805,1.18105,1.05772
83.913,14.78161,-0.07205406,1.18734,1.05741
84.513,14.8427,-0.07211118,1.18639,1.0571
85.113,14.9037,-0.0703395,1.19074,1.05679
85.713,14.9645,-0.06811516,1.18851,1.05648
86.313,15.02542,-0.06882813,1.18534,1.05617
86.913,15.0863,-0.06675986,1.18605,1.05586
87.513,15.14683,-0.06146217,1.18474,1.05556
88.113,15.2075,-0.06102054,1.18244,1.05525
88.713,15.26789,-0.06221199,1.18354,1.05494
89.313,15.32825,-0.06229998,1.17593,1.05463
89.913,15.38824,-0.06231282,1.18031,1.05432
90.513,15.44803,-0.06494157,1.17139,1.05401
91.113,15.50806,-0.06617613,1.16863,1.0537
91.713,15.5679,-0.06624569,1.18035,1.05339
92.313,15.62775,-0.06729721,1.17634,1.05308
92.913,15.68755,-0.06690993,1.17113,1.05277
93.513,15.747,-0.06683948,1.16689,1.05247
94.113,15.8064,-0.06954199,1.17314,1.05216
94.713,15.86597,-0.06953982,1.16356,1.05185
95.313,15.9255,-0.06916532,1.16486,1.05154
95.913,15.98492,-0.06954986,1.16184,1.05123
96.513,16.0442,-0.06955001,1.15582,1.05092
97.113,16.10325,-0.06957067,1.15074,1.05062
97.713,16.1623,-0.0708714,1.15403,1.05031
98.313,16.22135,-0.06733304,1.14102,1.05
98.913,16.2802,-0.07410259,1.14973,1.04969
99.513,16.33876,-0.0770035,1.14628,1.04938
100.113,16.3976,-0.07700001,1.15443,1.04908
100.713,16.45625,-0.07700001,1.16048,1.04877
101.313,16.51507,-0.07710255,1.1653,1.04846
101.913,16.57384,-0.07704892,1.16416,1.04815
102.513,16.6325,-0.07595716,1.17841,1.04784
103.113,16.6911,-0.07644716,1.17633,1.04754
103.713,16.7497,-0.07400418,1.18672,1.04723
104.313,16.80797,-0.07105648,1.19125,1.04692
104.913,16.86649,-0.07108039,1.19236,1.04661
105.513,16.92464,-0.07069012,1.19223,1.04631
106.113,16.98329,-0.07067851,1.18758,1.046
106.713,17.04166,-0.06959252,1.181,1.04569
107.313,17.10059,-0.06815299,1.17965,1.04538
107.913,17.159,-0.06712864,1.18039,1.04508
108.513,17.21735,-0.06829725,1.16749,1.04477
109.113,17.27553,-0.07067564,1.16475,1.04446
109.713,17.3339,-0.07239641,1.1704,1.04415
110.313,17.39197,-0.07233389,1.15513,1.04385
110.913,17.4509,-0.07379886,1.15692,1.04354
111.513,17.5094,-0.07568832,1.14957,1.04323
112.113,17.5677,-0.07635926,1.14583,1.04293
112.713,17.62645,-0.07706036,1.14265,1.04262
113.313,17.68475,-0.07766003,1.12598,1.04231
113.913,17.74312,-0.07766,1.12424,1.04201
114.513,17.8015,-0.07766086,1.12688,1.0417
115.113,17.85981,-0.07897245,1.11846,1.04139
115.713,17.91824,-0.07897,1.12475,1.04109
116.313,17.97644,-0.07897,1.1302,1.04078
116.913,18.03485,-0.07897,1.11942,1.04047
117.513,18.09313,-0.07897001,1.11615,1.04017
118.113,18.1516,-0.07898251,1.11439,1.03986
118.713,18.21,-0.08029022,1.10694,1.03955
119.313,18.26849,-0.08029,1.1036,1.03925
119.913,18.3268,-0.08029003,1.10187,1.03894
120.513,18.38513,-0.07933028,1.10079,1.03863
121.113,18.44352,-0.07898548,1.09659,1.03833
121.713,18.5019,-0.08159963,1.09875,1.03802
122.313,18.56022,-0.08167807,1.10073,1.03772
122.913,18.61845,-0.0825891,1.09568,1.03741
123.513,18.67655,-0.08156068,1.09358,1.0371
124.113,18.73491,-0.08160997,1.08944,1.0368
124.713,18.79328,-0.08161,1.08606,1.03649
125.313,18.85151,-0.08160977,1.09808,1.03619
125.913,18.91001,-0.08266582,1.0939,1.03588
126.513,18.9682,-0.08293,1.09733,1.03558
127.113,19.02659,-0.08293,1.0831,1.03527
127.713,19.08492,-0.08292974,1.09763,1.03496
128.313,19.14323,-0.08390714,1.09035,1.03466
128.913,19.20143,-0.08423993,1.09026,1.03435
129.513,19.2597,-0.08424,1.09658,1.03405
130.113,19.31768,-0.08424005,1.09054,1.03374
130.713,19.3757,-0.08343578,1.10393,1.03344
131.313,19.43376,-0.0832502,1.096,1.03313
131.913,19.492,-0.08347701,1.10554,1.03283
132.513,19.5503,-0.08457002,1.1103,1.03252
133.113,19.60831,-0.08457,1.10674,1.03222
133.713,19.6662,-0.08456328,1.11028,1.03191
134.313,19.7241,-0.08588828,1.11615,1.03161
134.913,19.78205,-0.08589,1.1198,1.0313
135.513,19.84,-0.08588859,1.10817,1.031
136.113,19.89819,-0.08555955,1.11566,1.03069
136.713,19.95619,-0.08555643,1.11779,1.03039
137.313,20.01437,-0.08685737,1.12731,1.03008
137.913,20.07222,-0.08686996,1.12201,1.02978
138.513,20.12977,-0.08685182,1.12017,1.02947
139.113,20.18758,-0.08686709,1.12348,1.02917
139.713,20.24529,-0.08817961,1.12782,1.02886
140.313,20.30323,-0.08819364,1.12982,1.02856
140.913,20.36174,-0.08720389,1.12449,1.02825
141.513,20.4198,-0.0872,1.13582,1.02795
142.113,20.47777,-0.08720002,1.14373,1.02764
142.713,20.53545,-0.08735226,1.12776,1.02734
143.313,20.5933,-0.08850965,1.13474,1.02703
143.913,20.65113,-0.08851,1.1342,1.02673
144.513,20.709,-0.08851,1.14324,1.02643
145.113,20.76695,-0.08851,1.13773,1.02612
145.713,20.82464,-0.08851,1.13997,1.02582
146.313,20.88252,-0.08850919,1.13793,1.02551
146.913,20.94054,-0.08948982,1.139,1.02521
147.513,20.99869,-0.08950255,1.14798,1.0249
148.113,21.0567,-0.08948219,1.14657,1.0246
148.713,21.1146,-0.08949999,1.1573,1.0243
149.313,21.17255,-0.08950128,1.15011,1.02399
149.913,21.2305,-0.09082442,1.15157,1.02369
150.513,21.28841,-0.09082,1.14649,1.02338
151.113,21.34626,-0.09081975,1.15368,1.02308
151.713,21.404,-0.09185317,1.16153,1.02278
152.313,21.46177,-0.09213346,1.16375,1.02247
152.913,21.5194,-0.09081802,1.16986,1.02217
153.513,21.57694,-0.08984052,1.16138,1.02187
154.113,21.63467,-0.08983998,1.1733,1.02156
154.713,21.69249,-0.08980587,1.17448,1.02126
155.313,21.75017,-0.09189304,1.19155,1.02095
155.913,21.808,-0.09246005,1.18574,1.02065
156.513,21.86559,-0.09245193,1.18185,1.02035
157.113,21.9231,-0.09395662,1.19394,1.02004
157.713,21.98085,-0.09371981,1.20187,1.01974
158.313,22.0385,-0.09345999,1.20339,1.01944
158.913,22.0961,-0.09347621,1.20741,1.01913
159.513,22.1539,-0.09245611,1.22037,1.01883
160.113,22.21161,-0.09345895,1.2269,1.01853
160.713,22.26921,-0.09346,1.2273,1.01822
161.313,22.32686,-0.0939305,1.23516,1.01792
161.913,22.38446,-0.09476781,1.24776,1.01762
162.513,22.44185,-0.09510243,1.26074,1.01731
163.113,22.49921,-0.09510259,1.26032,1.01701
163.713,22.55648,-0.0960902,1.26537,1.01671
164.313,22.61384,-0.09578747,1.2685,1.0164
164.913,22.6714,-0.09369459,1.28381,1.0161
165.513,22.7291,-0.0937761,1.28355,1.0158
166.113,22.78667,-0.09555429,1.3014,1.01549
166.713,22.8442,-0.09641024,1.29997,1.01519
167.313,22.90174,-0.09641,1.31837,1.01489
167.913,22.95932,-0.09641,1.3295,1.01458
168.513,23.01693,-0.09641,1.33473,1.01428
169.113,23.07454,-0.09640643,1.34906,1.01398
169.713,23.13199,-0.09771683,1.35523,1.01367
170.313,23.18949,-0.09773,1.36845,1.01337
170.913,23.24689,-0.09773,1.38594,1.01307
171.513,23.30426,-0.09772966,1.39596,1.01277
172.113,23.36151,-0.09844003,1.3989,1.01246
172.713,23.41884,-0.0987001,1.41507,1.01216
173.313,23.47625,-0.10003,1.42874,1.01186
173.913,23.53357,-0.10036,1.43951,1.01155
174.513,23.59115,-0.10169,1.44788,1.01125
175.113,23.64827,-0.103,1.46316,1.01095
175.713,23.70563,-0.10237,1.48145,1.01065
176.313,23.76278,-0.10168,1.50001,1.01034
176.913,23.82004,-0.10166,1.51475,1.01004
177.513,23.87765,-0.103,1.52525,1.00974
178.113,23.93508,-0.10301,1.52903,1.00944
178.713,23.99249,-0.10562,1.53714,1.00913
179.313,24.04995,-0.10563,1.55444,1.00883
179.913,24.107,-0.10563,1.56228,1.00853
180.513,24.1644,-0.10651,1.58056,1.00823
181.113,24.22164,-0.10695,1.59136,1.00792
181.713,24.2791,-0.10695,1.59841,1.00762
182.313,24.3368,-0.10827,1.61758,1.00732
182.913,24.39476,-0.10827,1.63243,1.00701
183.513,24.45218,-0.10967,1.64705,1.00671
184.113,24.5096,-0.10958,1.66046,1.00641
184.713,24.56699,-0.1096,1.67267,1.00611
185.313,24.6243,-0.11222,1.68664,1.00581
185.913,24.6818,-0.11222,1.70246,1.0055
186.513,24.7393,-0.11286,1.7154,1.0052
187.113,24.79697,-0.11304,1.7374,1.0049
187.713,24.85456,-0.11545,1.73907,1.0046
188.313,24.91208,-0.11574,1.75958,1.00429
188.913,24.96966,-0.11682,1.77167,1.00399
189.513,25.02717,-0.11817,1.79162,1.00369
190.113,25.0846,-0.11953,1.80194,1.00339
190.713,25.14205,-0.12077,1.81739,1.00308
191.313,25.19944,-0.12178,1.83069,1.00278
191.913,25.2569,-0.12209,1.84708,1.00248
192.513,25.31417,-0.12255,1.85556,1.00218
193.113,25.3714,-0.12395,1.87147,1.00187
193.713,25.42858,-0.12472,1.88133,1.00157
194.313,25.48568,-0.12603,1.90042,1.00127
194.913,25.5432,-0.12599,1.91834,1.00097
195.513,25.60061,-0.12735,1.92934,1.00066
196.113,25.65813,-0.12867,1.93915,1.00036
196.713,25.71537,-0.13014,1.95131,1.00006
197.313,25.77231,-0.13131,1.96532,0.99976
197.913,25.8294,-0.13261,1.96954,0.99946
198.513,25.88682,-0.13375,1.98717,0.99915
199.113,25.9445,-0.13545,1.99347,0.99885
199.713,26.00181,-0.13676,2.00615,0.99855
200.313,26.05905,-0.13667,2.01076,0.99825
200.913,26.11619,-0.13799,2.02158,0.99794
201.513,26.17336,-0.1393,2.03854,0.99764
202.113,26.2306,-0.14169,2.0317,0.99734
202.713,26.288,-0.14291,2.0372,0.99704
203.313,26.34549,-0.14423,2.04935,0.99674
203.913,26.40295,-0.14601,2.05931,0.99643
204.513,26.4603,-0.14589,2.06641,0.99613
205.113,26.5178,-0.14721,2.06267,0.99583
205.713,26.5752,-0.14852,2.06147,0.99553
206.313,26.63243,-0.14984,2.07051,0.99522
206.913,26.68995,-0.15114,2.07755,0.99492
207.513,26.7474,-0.1524,2.08055,0.99462
208.113,26.8049,-0.15382,2.08182,0.99432
208.713,26.86249,-0.15513,2.08363,0.99401
209.313,26.91978,-0.15663,2.09286,0.99371
209.913,26.9771,-0.15893,2.10247,0.99341
210.513,27.0343,-0.16022,2.10744,0.99311
211.113,27.0915,-0.16154,2.11104,0.99281
211.713,27.14872,-0.16287,2.117,0.9925
212.313,27.2058,-0.16593,2.12276,0.9922
212.913,27.26312,-0.1675,2.13264,0.9919
213.513,27.3205,-0.1675,2.14288,0.9916
214.113,27.37783,-0.16967,2.14858,0.99129
214.713,27.4349,-0.17123,2.15004,0.99099
215.313,27.49195,-0.17284,2.16085,0.99069
215.913,27.5489,-0.17418,2.15626,0.99039
216.513,27.60618,-0.17549,2.17749,0.99008
217.113,27.6634,-0.17759,2.18566,0.98978
217.713,27.72056,-0.17954,2.1874,0.98948
218.313,27.7777,-0.18081,2.20075,0.98918
218.913,27.8345,-0.18326,2.20909,0.98887
219.513,27.89142,-0.18482,2.22751,0.98857
220.113,27.94835,-0.18612,2.2326,0.98827
220.713,28.00562,-0.18746,2.23783,0.98797
221.313,28.0634,-0.19028,2.2524,0.98766
221.913,28.12077,-0.19314,2.25901,0.98736
222.513,28.1779,-0.19546,2.26804,0.98706
223.113,28.235,-0.19603,2.27554,0.98676
223.713,28.29216,-0.19843,2.28534,0.98645
224.313,28.3494,-0.19975,2.30085,0.98615
224.913,28.4067,-0.2028,2.30365,0.98585
225.513,28.46385,-0.20574,2.31378,0.98555
226.113,28.5211,-0.20706,2.32096,0.98524
226.713,28.57832,-0.20968,2.3269,0.98494
227.313,28.63553,-0.21281,2.33702,0.98464
227.913,28.69257,-0.2153,2.33756,0.98433
228.513,28.7499,-0.21646,2.33974,0.98403
229.113,28.8072,-0.21953,2.3417,0.98373
229.713,28.86467,-0.22178,2.35883,0.98343
230.313,28.922,-0.22403,2.36427,0.98312
230.913,28.9792,-0.22662,2.36376,0.98282
231.513,29.0363,-0.22787,2.36589,0.98252
232.113,29.09368,-0.23097,2.36293,0.98221
232.713,29.1511,-0.23357,2.35799,0.98191
233.313,29.2085,-0.23653,2.35983,0.98161
233.913,29.26608,-0.23895,2.35789,0.98131
234.513,29.32347,-0.24284,2.3509,0.981
235.113,29.3809,-0.24577,2.3518,0.9807
235.713,29.4382,-0.24882,2.3476,0.9804
236.313,29.49567,-0.24888,2.34357,0.98009
236.913,29.55309,-0.25213,2.32539,0.97979
237.513,29.6105,-0.25352,2.33283,0.97949
238.113,29.6679,-0.25799,2.32667,0.97918
238.713,29.72506,-0.26103,2.32806,0.97888
239.313,29.78227,-0.26419,2.32205,0.97858
239.913,29.8396,-0.26754,2.31045,0.97827
240.513,29.8971,-0.27047,2.3148,0.97797
241.113,29.9546,-0.27327,2.30712,0.97767
241.713,30.01203,-0.27499,2.30885,0.97736
242.313,30.0694,-0.27662,2.30116,0.97706
242.913,30.1268,-0.28073,2.28988,0.97676
243.513,30.18416,-0.28368,2.29464,0.97645
244.113,30.2416,-0.2876,2.29448,0.97615
244.713,30.29898,-0.29196,2.28997,0.97585
245.313,30.356,-0.29512,2.29146,0.97554
245.913,30.41318,-0.29836,2.28398,0.97524
246.513,30.4705,-0.30012,2.30061,0.97493
247.113,30.52791,-0.3033,2.29122,0.97463
247.713,30.58519,-0.30877,2.27196,0.97433
248.313,30.6425,-0.31157,2.27674,0.97402
248.913,30.69987,-0.3143,2.28574,0.97372
249.513,30.75713,-0.31804,2.29562,0.97341
250.113,30.8145,-0.32111,2.28422,0.97311
250.713,30.8716,-0.32509,2.28414,0.97281
251.313,30.9286,-0.32969,2.28534,0.9725
251.913,30.98558,-0.33332,2.28207,0.9722
252.513,31.04307,-0.33634,2.2734,0.97189
253.113,31.1002,-0.34112,2.28212,0.97159
253.713,31.1578,-0.3449,2.27962,0.97128
254.313,31.2149,-0.34821,2.27361,0.97098
254.913,31.27202,-0.35194,2.28786,0.97068
255.513,31.3291,-0.35703,2.27378,0.97037
256.113,31.3863,-0.36024,2.2902,0.97007
256.713,31.4435,-0.36565,2.27282,0.96976
257.313,31.501,-0.37108,2.27716,0.96946
257.913,31.55842,-0.37422,2.2724,0.96915
258.513,31.6158,-0.37927,2.28105,0.96885
259.113,31.67313,-0.3849,2.27486,0.96854
259.713,31.7302,-0.38818,2.27252,0.96824
260.313,31.7874,-0.39288,2.27153,0.96793
260.913,31.84475,-0.39867,2.2782,0.96763
261.513,31.90216,-0.40371,2.27663,0.96732
262.113,31.9596,-0.40784,2.26622,0.96702
262.713,32.01692,-0.41454,2.26494,0.96671
263.313,32.07418,-0.4201,2.26974,0.96641
263.913,32.13152,-0.42494,2.266,0.9661
264.513,32.189,-0.42985,2.25853,0.9658
265.113,32.2466,-0.43598,2.2625,0.96549
265.713,32.30404,-0.44153,2.26654,0.96519
266.313,32.3615,-0.44826,2.25318,0.96488
266.913,32.41895,-0.45507,2.26227,0.96457
267.513,32.47633,-0.46153,2.26409,0.96427
268.113,32.53385,-0.46768,2.25733,0.96396
268.713,32.59113,-0.47376,2.25754,0.96366
269.313,32.6484,-0.48108,2.25188,0.96335
269.913,32.7055,-0.48786,2.2546,0.96305
270.513,32.7628,-0.49544,2.25582,0.96274
271.113,32.82007,-0.50116,2.24178,0.96243
271.713,32.8772,-0.50885,2.2474,0.96213
272.313,32.93442,-0.51594,2.22875,0.96182
272.913,32.9919,-0.52253,2.23853,0.96151
273.513,33.04943,-0.53014,2.22392,0.96121
274.113,33.1064,-0.53913,2.21943,0.9609
274.713,33.16342,-0.54746,2.22089,0.96059
275.313,33.22034,-0.55645,2.20633,0.96029
275.913,33.27762,-0.56428,2.20433,0.95998
276.513,33.33502,-0.57281,2.18672,0.95967
277.113,33.39241,-0.58095,2.18261,0.95937
277.713,33.44963,-0.58855,2.17551,0.95906
278.313,33.507,-0.59897,2.1538,0.95875
278.913,33.5643,-0.60713,2.1414,0.95845
279.513,33.62154,-0.61468,2.12701,0.95814
280.113,33.67893,-0.62286,2.11566,0.95783
280.713,33.73618,-0.63244,2.09858,0.95752
281.313,33.7933,-0.64251,2.09371,0.95722
281.913,33.85071,-0.65185,2.08011,0.95691
282.513,33.90803,-0.66209,2.05868,0.9566
283.113,33.96559,-0.6718,2.05594,0.95629
283.713,34.02303,-0.68011,2.02937,0.95599
284.313,34.08039,-0.68875,2.01157,0.95568
284.913,34.13774,-0.69985,1.99243,0.95537
285.513,34.19492,-0.70871,1.97377,0.95506
286.113,34.25223,-0.71887,1.95643,0.95476
286.713,34.3096,-0.72971,1.93188,0.95445
287.313,34.36694,-0.74059,1.91608,0.95414
287.913,34.42429,-0.74991,1.89078,0.95383
288.513,34.48166,-0.76102,1.86735,0.95352
289.113,34.53895,-0.77019,1.85467,0.95321
289.713,34.59648,-0.78127,1.83212,0.9529
290.313,34.65387,-0.79233,1.82681,0.9526
290.913,34.71117,-0.80254,1.81172,0.95229
291.513,34.76858,-0.81292,1.7941,0.95198
292.113,34.8257,-0.82299,1.77041,0.95167
292.713,34.8829,-0.83375,1.75597,0.95136
293.313,34.9401,-0.84528,1.73923,0.95105
293.913,34.9975,-0.85607,1.72019,0.95074
294.513,35.0548,-0.86756,1.70229,0.95043
295.113,35.1122,-0.87922,1.68916,0.95012
295.713,35.1696,-0.89004,1.66528,0.94981
296.313,35.2267,-0.9009,1.66248,0.9495
296.913,35.28387,-0.91322,1.6383,0.94919
297.513,35.34105,-0.92482,1.61321,0.94888
298.113,35.3983,-0.93619,1.61463,0.94857
298.713,35.45547,-0.94886,1.59851,0.94826
299.313,35.5128,-0.96031,1.57886,0.94795
299.913,35.57018,-0.97109,1.55445,0.94764
300.513,35.62751,-0.98359,1.55462,0.94733
301.113,35.68486,-0.99596,1.54218,0.94702
301.713,35.74224,-1.00794,1.52651,0.94671
302.313,35.79955,-1.02028,1.51162,0.9464
302.913,35.85702,-1.0329,1.51754,0.94609
303.513,35.91434,-1.0451,1.49425,0.94578
304.113,35.9717,-1.05824,1.48857,0.94547
304.713,36.02905,-1.07161,1.48855,0.94516
305.313,36.0865,-1.08566,1.47609,0.94485
305.913,36.14403,-1.09839,1.46137,0.94454
306.513,36.20166,-1.10901,1.45129,0.94422
307.113,36.259,-1.12327,1.45578,0.94391
307.713,36.31655,-1.13693,1.45583,0.9436
308.313,36.37409,-1.14969,1.44713,0.94329
308.913,36.43159,-1.16304,1.45355,0.94298
309.513,36.4893,-1.17432,1.43977,0.94266
310.113,36.54684,-1.18862,1.44468,0.94235
310.713,36.60434,-1.20316,1.44645,0.94204
311.313,36.66194,-1.21844,1.44784,0.94173
311.913,36.71965,-1.23176,1.44851,0.94142
312.513,36.7773,-1.24508,1.43441,0.9411
313.113,36.83485,-1.25934,1.45196,0.94079
313.713,36.89242,-1.27234,1.4503,0.94048
314.313,36.94999,-1.28637,1.45268,0.94016
314.913,37.00762,-1.30158,1.46275,0.93985
315.513,37.0655,-1.31791,1.46151,0.93954
316.113,37.12316,-1.33134,1.46843,0.93923
316.713,37.1808,-1.34581,1.46411,0.93891
317.313,37.2385,-1.36117,1.4714,0.9386
317.913,37.29594,-1.37576,1.47596,0.93828
318.513,37.3536,-1.39055,1.48644,0.93797
319.113,37.41132,-1.40555,1.48496,0.93766
319.713,37.46926,-1.42133,1.49931,0.93734
320.313,37.527,-1.43708,1.49917,0.93703
320.913,37.58488,-1.45391,1.50157,0.93671
321.513,37.64249,-1.46892,1.50497,0.9364
322.113,37.7001,-1.48559,1.51646,0.93609
322.713,37.75782,-1.50162,1.51687,0.93577
323.313,37.81572,-1.51827,1.52261,0.93546
323.913,37.87364,-1.53694,1.53428,0.93514
324.513,37.93165,-1.5536,1.539,0.93483
325.113,37.9897,-1.56964,1.53592,0.93451
325.713,38.04753,-1.58623,1.55066,0.93419
326.313,38.10562,-1.60436,1.54517,0.93388
326.913,38.16345,-1.6217,1.54715,0.93356
327.513,38.22141,-1.63988,1.55051,0.93325
328.113,38.27942,-1.65721,1.55783,0.93293
328.713,38.33725,-1.67579,1.57084,0.93262
329.313,38.39515,-1.69443,1.56828,0.9323
329.913,38.45299,-1.71268,1.57535,0.93198
330.513,38.51083,-1.732,1.57367,0.93167
331.113,38.56859,-1.74834,1.58089,0.93135
331.713,38.6265,-1.7689,1.5836,0.93103
332.313,38.68427,-1.78673,1.58438,0.93072
332.913,38.7421,-1.8067,1.58893,0.9304
333.513,38.7999,-1.82506,1.58897,0.93008
334.113,38.85775,-1.84473,1.58525,0.92977
334.713,38.91585,-1.86479,1.58957,0.92945
335.313,38.97378,-1.88351,1.59464,0.92913
335.913,39.03178,-1.90461,1.59284,0.92881
336.513,39.08987,-1.92447,1.58924,0.92849
337.113,39.14785,-1.94406,1.58763,0.92818
337.713,39.20577,-1.96467,1.58423,0.92786
338.313,39.26355,-1.98532,1.58318,0.92754
338.913,39.32135,-2.00548,1.5783,0.92722
339.513,39.37911,-2.02533,1.5746,0.9269
340.113,39.4371,-2.04678,1.56613,0.92658
340.713,39.49511,-2.06719,1.55848,0.92627
341.313,39.55304,-2.08779,1.54773,0.92595
341.913,39.61102,-2.10793,1.54482,0.92563
342.513,39.66908,-2.1292,1.53772,0.92531
343.113,39.7272,-2.1485,1.52783,0.92499
343.713,39.78528,-2.17036,1.51971,0.92467
344.313,39.84332,-2.1901,1.50141,0.92435
344.913,39.9013,-2.21003,1.48791,0.92403
345.513,39.9593,-2.23182,1.46282,0.92371
346.113,40.0175,-2.25043,1.45214,0.92339
346.713,40.07564,-2.27299,1.43213,0.92307
347.313,40.13373,-2.2928,1.40847,0.92275
347.913,40.19194,-2.31219,1.38259,0.92243
348.513,40.25009,-2.33147,1.35071,0.92211
349.113,40.30838,-2.35203,1.32251,0.92178
349.713,40.3667,-2.37011,1.2972,0.92146
350.313,40.42487,-2.39043,1.27171,0.92114
350.913,40.4831,-2.40885,1.23532,0.92082
351.513,40.54143,-2.42875,1.20396,0.9205
352.113,40.59963,-2.44679,1.16801,0.92018
352.713,40.65777,-2.46447,1.12705,0.91985
353.313,40.71595,-2.48285,1.09693,0.91953
353.913,40.77432,-2.49967,1.04695,0.91921
354.513,40.83235,-2.51709,1.01957,0.91889
355.113,40.8902,-2.53315,0.97098,0.91856
355.713,40.94823,-2.54862,0.92334,0.91824
356.313,41.0062,-2.56428,0.87506,0.91792
356.913,41.0644,-2.5795,0.83876,0.91759
357.513,41.12257,-2.59323,0.78099,0.91727
358.113,41.1808,-2.60823,0.73327,0.91695
358.713,41.23878,-2.61869,0.68628,0.91662
359.313,41.29675,-2.63124,0.64288,0.9163
359.913,41.3548,-2.64234,0.5876,0.91598
360.513,41.41283,-2.65448,0.53959,0.91565
361.113,41.47092,-2.66504,0.4849,0.91533
361.713,41.52902,-2.67325,0.44788,0.915
362.313,41.5869,-2.68006,0.40876,0.91468
362.913,41.64468,-2.68709,0.37445,0.91435
363.513,41.70238,-2.69503,0.33516,0.91403
364.113,41.76005,-2.70223,0.30128,0.9137
364.713,41.81774,-2.70813,0.28058,0.91338
365.313,41.8755,-2.71419,0.24823,0.91305
365.913,41.93315,-2.72031,0.22342,0.91272
366.513,41.99119,-2.72484,0.20018,0.9124
367.113,42.04925,-2.72889,0.18225,0.91207
367.713,42.1075,-2.73254,0.15678,0.91175
368.313,42.16577,-2.73656,0.14505,0.91142
368.913,42.22404,-2.74145,0.12207,0.91109
369.513,42.2822,-2.74511,0.10463,0.91077
370.113,42.34042,-2.7484,0.09114526,0.91044
370.713,42.39863,-2.7511,0.0855933,0.91011
371.313,42.45686,-2.75512,0.0663777,0.90978
371.913,42.51497,-2.75729,0.05810294,0.90946
372.513,42.57298,-2.76002,0.05001529,0.90913
373.113,42.63105,-2.76432,0.04987889,0.9088
373.713,42.68908,-2.76572,0.04114339,0.90847
374.313,42.74723,-2.76855,0.0193219,0.90814
374.913,42.80527,-2.7719,0.01750788,0.90781
375.513,42.86367,-2.77493,0.00592918,0.90749
376.113,42.92201,-2.77673,0.006558696,0.90716
376.713,42.98055,-2.77938,-0.005216803,0.90683
377.313,43.03915,-2.7823,-0.01347928,0.9065
377.913,43.09755,-2.78561,-0.02102885,0.90617
378.513,43.15602,-2.787,-0.0211018,0.90584
379.113,43.2144,-2.78839,-0.0282433,0.90551
379.713,43.2729,-2.7926,-0.03350461,0.90518
380.313,43.33129,-2.79562,-0.04370833,0.90485
380.913,43.38966,-2.79748,-0.04127742,0.90452
381.513,43.44801,-2.79866,-0.05291325,0.90419
382.113,43.50628,-2.80144,-0.05998176,0.90385
382.713,43.5647,-2.8031,-0.0620123,0.90352
383.313,43.62299,-2.80705,-0.06539631,0.90319
383.913,43.68144,-2.80961,-0.06595061,0.90286
384.513,43.73964,-2.81093,-0.07568384,0.90253
385.113,43.79811,-2.81222,-0.08104208,0.9022
385.713,43.85637,-2.81281,-0.07802215,0.90186
386.313,43.91474,-2.81581,-0.08805146,0.90153
386.913,43.97313,-2.81882,-0.09054926,0.9012
387.513,44.0314,-2.82005,-0.08436662,0.90087
388.113,44.08996,-2.82137,-0.09364456,0.90053
388.713,44.1481,-2.82394,-0.09244574,0.9002
389.313,44.20642,-2.8254,-0.09585998,0.89987
389.913,44.26466,-2.82866,-0.10404,0.89953
390.513,44.32334,-2.83103,-0.11443,0.8992
391.113,44.3816,-2.83306,-0.11134,0.89886
391.713,44.4401,-2.83445,-0.11761,0.89853
392.313,44.49866,-2.83582,-0.11419,0.8982
392.913,44.55724,-2.83764,-0.12509,0.89786
393.513,44.61541,-2.84105,-0.12635,0.89753
394.113,44.6738,-2.84309,-0.12749,0.89719
394.713,44.73215,-2.84471,-0.12678,0.89686
395.313,44.7908,-2.84623,-0.12959,0.89652
395.913,44.8494,-2.8491,-0.13195,0.89618
396.513,44.9077,-2.85167,-0.14373,0.89585
397.113,44.96605,-2.85301,-0.13385,0.89551
397.713,45.02466,-2.85435,-0.1395,0.89518
398.313,45.08311,-2.8556,-0.14105,0.89484
398.913,45.1417,-2.85788,-0.13554,0.8945
399.513,45.2001,-2.8597,-0.14316,0.89416
400.113,45.2585,-2.86267,-0.13424,0.89383
400.713,45.3169,-2.864,-0.13793,0.89349
401.313,45.37549,-2.86557,-0.12668,0.89315
401.913,45.43394,-2.86832,-0.1411,0.89281
402.513,45.49259,-2.869,-0.14369,0.89248
403.113,45.5511,-2.87082,-0.14783,0.89214
403.713,45.60967,-2.87272,-0.13786,0.8918
404.313,45.66818,-2.87477,-0.14081,0.89146
404.913,45.72674,-2.87603,-0.14384,0.89112
405.513,45.78524,-2.87901,-0.14462,0.89078
406.113,45.84384,-2.88006,-0.15279,0.89044
406.713,45.9024,-2.87994,-0.14725,0.8901
407.313,45.9611,-2.88137,-0.14877,0.88976
407.913,46.01976,-2.88407,-0.15912,0.88942
408.513,46.07812,-2.88576,-0.16439,0.88908
409.113,46.13667,-2.88814,-0.15829,0.88874
409.713,46.19518,-2.88948,-0.15305,0.8884
410.313,46.25369,-2.89079,-0.14982,0.88806
410.913,46.3125,-2.89223,-0.15371,0.88772
411.513,46.3711,-2.89353,-0.14617,0.88738
412.113,46.42989,-2.89589,-0.13929,0.88703
412.713,46.48875,-2.89758,-0.12986,0.88669
413.313,46.54743,-2.89889,-0.13829,0.88635
413.913,46.6062,-2.90024,-0.14245,0.88601
414.513,46.66468,-2.9021,-0.13489,0.88566
415.113,46.72331,-2.90447,-0.13732,0.88532
415.713,46.782,-2.90579,-0.13682,0.88498
416.313,46.84055,-2.90759,-0.13671,0.88463
416.913,46.89929,-2.90844,-0.13377,0.88429
417.513,46.95796,-2.91066,-0.13332,0.88395
418.113,47.01676,-2.91211,-0.12215,0.8836
418.713,47.07547,-2.913,-0.13636,0.88326
419.313,47.13405,-2.91407,-0.12964,0.88291
419.913,47.19277,-2.91543,-0.12206,0.88257
420.513,47.25136,-2.9191,-0.11673,0.88222
421.113,47.3099,-2.92061,-0.11325,0.88188
421.713,47.36873,-2.92193,-0.10459,0.88153
422.313,47.42753,-2.92296,-0.10893,0.88119
422.913,47.48635,-2.92422,-0.11478,0.88084
423.513,47.5451,-2.92553,-0.10625,0.88049
424.113,47.60373,-2.92687,-0.09961896,0.88015
424.713,47.6625,-2.92811,-0.10264,0.8798
425.313,47.72113,-2.93002,-0.09526353,0.87945
425.913,47.7799,-2.93186,-0.09529264,0.87911
426.513,47.83874,-2.93345,-0.10251,0.87876
427.113,47.89754,-2.93478,-0.08690216,0.87841
427.713,47.95647,-2.93599,-0.08800418,0.87806
428.313,48.01526,-2.9373,-0.08722995,0.87771
428.913,48.07394,-2.93872,-0.08774553,0.87737
429.513,48.13283,-2.94003,-0.08567421,0.87702
430.113,48.19173,-2.94133,-0.07263202,0.87667
430.713,48.2507,-2.94277,-0.08376883,0.87632
431.313,48.30961,-2.9453,-0.07587052,0.87597
431.913,48.36865,-2.94559,-0.07590756,0.87562
432.513,48.42768,-2.94559,-0.06892899,0.87527
433.113,48.48663,-2.94696,-0.06894302,0.87492
433.713,48.54572,-2.94883,-0.06174075,0.87457
434.313,48.6048,-2.95054,-0.05805074,0.87422
434.913,48.6639,-2.95299,-0.05535329,0.87387
435.513,48.7231,-2.95439,-0.05267186,0.87352
436.113,48.78219,-2.95562,-0.04700695,0.87316
436.713,48.84131,-2.95694,-0.05101418,0.87281
437.313,48.9002,-2.95836,-0.03331757,0.87246
437.913,48.95943,-2.95966,-0.02962516,0.87211
438.513,49.01847,-2.96096,-0.02760738,0.87175
439.113,49.07756,-2.961,-0.02354549,0.8714
439.713,49.13645,-2.96315,-0.02810552,0.87105
440.313,49.19526,-2.9645,-0.01908169,0.8707
440.913,49.25424,-2.96589,-0.02228413,0.87034
441.513,49.31307,-2.96714,-0.02100773,0.86999
442.113,49.37223,-2.9666,-0.01494591,0.86963
442.713,49.43108,-2.9687,-0.003438014,0.86928
443.313,49.48986,-2.97024,0.001922476,0.86892
443.913,49.54899,-2.97183,0.01054521,0.86857
444.513,49.60807,-2.97272,0.006457105,0.86821
445.113,49.667,-2.97393,0.00185917,0.86786
445.713,49.72585,-2.9745,0.007785503,0.8675
446.313,49.78455,-2.97577,0.005564861,0.86715
446.913,49.8436,-2.97569,0.01174537,0.86679
447.513,49.9024,-2.9771,0.01572939,0.86643
448.113,49.96128,-2.97845,0.0108381,0.86608
448.713,50.01997,-2.97975,0.02806561,0.86572
449.313,50.07871,-2.98235,0.0139485,0.86536
449.913,50.1376,-2.98345,0.02558871,0.86501
450.513,50.19637,-2.98279,0.03324188,0.86465
451.113,50.2553,-2.98369,0.03746883,0.86429
451.713,50.31402,-2.98629,0.03050439,0.86393
452.313,50.3726,-2.9864,0.04877036,0.86357
452.913,50.4315,-2.98764,0.03997232,0.86321
453.513,50.49026,-2.98897,0.0427131,0.86285
454.113,50.54895,-2.98991,0.03812875,0.86249
454.713,50.60791,-2.99056,0.03309434,0.86214
455.313,50.66698,-2.99223,0.03984242,0.86177
455.913,50.72582,-2.99355,0.04322548,0.86141
456.513,50.78482,-2.99482,0.04808555,0.86105
457.113,50.84357,-2.99623,0.04923617,0.86069
457.713,50.9026,-2.99647,0.05507039,0.86033
458.313,50.96162,-2.99768,0.06195886,0.85997
458.913,51.0207,-2.99959,0.06797828,0.85961
459.513,51.07969,-2.99957,0.06100049,0.85925
460.113,51.13861,-3.0009,0.06690039,0.85888
460.713,51.1976,-3.00174,0.06771905,0.85852
461.313,51.25647,-3.00331,0.06470107,0.85816
461.913,51.31535,-3.00348,0.07042499,0.8578
462.513,51.3743,-3.00486,0.07535528,0.85743
463.113,51.4332,-3.00561,0.06194991,0.85707
463.713,51.49219,-3.00618,0.0705838,0.85671
464.313,51.55125,-3.00746,0.07024034,0.85634
464.913,51.6102,-3.00882,0.08706518,0.85598
465.513,51.66924,-3.00946,0.06418592,0.85561
466.113,51.72841,-3.01078,0.07165501,0.85525
466.713,51.7875,-3.01071,0.08488063,0.85488
467.313,51.84657,-3.01318,0.08425043,0.85452
467.913,51.90568,-3.01406,0.07865266,0.85415
468.513,51.9646,-3.01539,0.07113503,0.85378
469.113,52.02382,-3.0153,0.07028775,0.85342
469.713,52.08287,-3.01669,0.07223686,0.85305
470.313,52.142,-3.01785,0.07357978,0.85268
470.913,52.20104,-3.01815,0.08025151,0.85232
471.513,52.26024,-3.01835,0.08025335,0.85195
472.113,52.31923,-3.01966,0.08062799,0.85158
472.713,52.3782,-3.02056,0.08880643,0.85121
473.313,52.43736,-3.02118,0.08069044,0.85084
473.913,52.4966,-3.02229,0.07343144,0.85048
474.513,52.55595,-3.02361,0.07595861,0.85011
475.113,52.61535,-3.02475,0.07198546,0.84974
475.713,52.6748,-3.02484,0.08242718,0.84937
476.313,52.7344,-3.02623,0.0663741,0.849
476.913,52.7938,-3.02756,0.0928257,0.84863
477.513,52.8532,-3.02898,0.08191907,0.84826
478.113,52.91264,-3.02857,0.08693635,0.84789
478.713,52.9721,-3.02986,0.08783082,0.84752
479.313,53.03161,-3.03119,0.07867008,0.84714
479.913,53.09126,-3.03134,0.08698495,0.84677
480.513,53.1509,-3.03246,0.10277,0.8464
481.113,53.2106,-3.03381,0.09470831,0.84603
481.713,53.27026,-3.03515,0.10562,0.84566
482.313,53.32996,-3.0371,0.10412,0.84528
482.913,53.3896,-3.0371,0.09012743,0.84491
483.513,53.44935,-3.03842,0.10485,0.84454
484.113,53.509,-3.03918,0.09128765,0.84416
484.713,53.5687,-3.0385,0.07707885,0.84379
485.313,53.62846,-3.03984,0.09141254,0.84341
485.913,53.68809,-3.04116,0.08732992,0.84304
486.513,53.74759,-3.04246,0.09539963,0.84266
487.113,53.8072,-3.04365,0.10719,0.84229
487.713,53.86691,-3.04379,0.12261,0.84191
488.313,53.9268,-3.04511,0.12428,0.84154
488.913,53.9864,-3.04553,0.14441,0.84116
489.513,54.04603,-3.04643,0.15631,0.84079
490.113,54.1056,-3.04774,0.16877,0.84041
490.713,54.1652,-3.04784,0.18175,0.84003
491.313,54.2247,-3.05022,0.18792,0.83965
491.913,54.28419,-3.05063,0.1946,0.83928
492.513,54.34361,-3.05161,0.19796,0.8389
493.113,54.40314,-3.0517,0.20678,0.83852
493.713,54.4627,-3.053,0.20703,0.83814
494.313,54.5221,-3.05283,0.22259,0.83776
494.913,54.58133,-3.05382,0.22235,0.83738
495.513,54.6405,-3.05509,0.24473,0.83701
496.113,54.6997,-3.05476,0.24363,0.83663
496.713,54.75906,-3.05607,0.25719,0.83625
497.313,54.8184,-3.05739,0.24227,0.83587
497.913,54.87766,-3.05873,0.25792,0.83548
498.513,54.93676,-3.05983,0.25396,0.8351
499.113,54.99587,-3.06002,0.25274,0.83472
499.713,55.0549,-3.06133,0.26868,0.83434
500.313,55.11385,-3.06257,0.25815,0.83396
500.913,55.173,-3.06265,0.26671,0.83358
501.513,55.23223,-3.06395,0.27335,0.83319
502.113,55.29125,-3.06397,0.28106,0.83281
502.713,55.35055,-3.06397,0.27694,0.83243
503.313,55.4098,-3.06529,0.29054,0.83205
503.913,55.4691,-3.0666,0.29818,0.83166
504.513,55.5289,-3.06792,0.29119,0.83128
505.113,55.5885,-3.06792,0.28824,0.83089
505.713,55.64812,-3.06923,0.29582,0.83051
506.313,55.7074,-3.07005,0.28494,0.83012
506.913,55.7669,-3.07055,0.28819,0.82974
507.513,55.8265,-3.0719,0.28698,0.82935
508.113,55.8862,-3.07187,0.28668,0.82897
508.713,55.9462,-3.07318,0.29042,0.82858
509.313,56.00597,-3.07311,0.2847,0.82819
509.913,56.0655,-3.0745,0.29003,0.82781
510.513,56.12525,-3.07453,0.28599,0.82742
511.113,56.18499,-3.0755,0.27643,0.82703
511.713,56.24494,-3.07548,0.28675,0.82665
512.313,56.3047,-3.07679,0.28646,0.82626
512.913,56.36445,-3.07643,0.28106,0.82587
513.513,56.42419,-3.0778,0.28792,0.82548
514.113,56.4839,-3.07755,0.27917,0.82509
514.713,56.5436,-3.07808,0.2863,0.8247
515.313,56.6032,-3.07964,0.28816,0.82431
515.913,56.66276,-3.08075,0.27151,0.82392
516.513,56.72229,-3.08074,0.27647,0.82353
517.113,56.78196,-3.08076,0.27289,0.82314
517.713,56.8416,-3.08071,0.28002,0.82275
518.313,56.90112,-3.08199,0.27753,0.82236
518.913,56.9608,-3.08438,0.27341,0.82197
519.513,57.02046,-3.08438,0.28068,0.82158
520.113,57.0803,-3.08573,0.2924,0.82118
520.713,57.13989,-3.08541,0.28529,0.82079
521.313,57.19945,-3.08602,0.26988,0.8204
521.913,57.25903,-3.08602,0.26603,0.82001
522.513,57.31867,-3.08734,0.27631,0.81961
523.113,57.37837,-3.08734,0.27685,0.81922
523.713,57.438,-3.08865,0.26877,0.81883
524.313,57.49756,-3.08865,0.26671,0.81843
524.913,57.5571,-3.08999,0.2646,0.81804
525.513,57.6166,-3.08997,0.26619,0.81764
526.113,57.67615,-3.09129,0.26058,0.81725
526.713,57.73561,-3.09129,0.25262,0.81685
527.313,57.79506,-3.09258,0.25106,0.81645
527.913,57.8544,-3.09255,0.24421,0.81606
528.513,57.91401,-3.09391,0.22838,0.81566
529.113,57.9737,-3.09358,0.21885,0.81526
529.713,58.0333,-3.09491,0.2049,0.81487
530.313,58.0927,-3.09427,0.19712,0.81447
530.913,58.15221,-3.0949,0.19398,0.81407
531.513,58.2117,-3.09543,0.17949,0.81367
532.113,58.2714,-3.09754,0.18455,0.81328
532.713,58.3311,-3.0975,0.17369,0.81288
533.313,58.3907,-3.09885,0.16709,0.81248
533.913,58.45055,-3.09885,0.17241,0.81208
534.513,58.51036,-3.10008,0.15832,0.81168
535.113,58.57,-3.09885,0.14741,0.81128
535.713,58.6297,-3.10017,0.13598,0.81088
536.313,58.68945,-3.10017,0.13191,0.81048
536.913,58.7492,-3.10017,0.14033,0.81008
537.513,58.8086,-3.10148,0.1268,0.80967
538.113,58.86804,-3.10121,0.13705,0.80927
538.713,58.92759,-3.10182,0.13096,0.80887
539.313,58.9874,-3.10312,0.1329,0.80847
539.913,59.04736,-3.10444,0.122,0.80806
540.513,59.1072,-3.10311,0.11738,0.80766
541.113,59.167,-3.10313,0.11536,0.80726
541.713,59.2265,-3.10329,0.11277,0.80685
542.313,59.2863,-3.1044,0.10574,0.80645
542.913,59.34615,-3.10577,0.10073,0.80605
543.513,59.40585,-3.10616,0.10331,0.80564
544.113,59.46589,-3.10709,0.10877,0.80524
544.713,59.52574,-3.1084,0.09353987,0.80483
545.313,59.58569,-3.1084,0.08988075,0.80443
545.913,59.64555,-3.1084,0.08196281,0.80402
546.513,59.70519,-3.1097,0.07771313,0.80361
547.113,59.76491,-3.10967,0.07902667,0.80321
547.713,59.82467,-3.11103,0.07429898,0.8028
548.313,59.88457,-3.10977,0.05916157,0.80239
548.913,59.9444,-3.11108,0.05655813,0.80198
549.513,60.00415,-3.11103,0.06024369,0.80158
550.113,60.064,-3.11232,0.05455688,0.80117
550.713,60.12372,-3.11234,0.05436606,0.80076
551.313,60.18334,-3.1123,0.04063893,0.80035
551.913,60.2431,-3.11366,0.042249,0.79994
552.513,60.30299,-3.11544,0.04614591,0.79953
553.113,60.3629,-3.11531,0.02766609,0.79912
553.713,60.42284,-3.11531,0.01944438,0.79871
554.313,60.48279,-3.11558,0.02203955,0.7983
554.913,60.5429,-3.11548,0.02747607,0.79789
555.513,60.6027,-3.11662,0.02481169,0.79748
556.113,60.6624,-3.11662,0.01395297,0.79707
556.713,60.7223,-3.11795,0.01335651,0.79665
557.313,60.78204,-3.11932,0.00613513,0.79624
557.913,60.8425,-3.11793,-0.00354237,0.79583
558.513,60.9026,-3.11925,0.0013454,0.79542
559.113,60.96285,-3.11925,0.00271233,0.795
559.713,61.0231,-3.11925,0.001151975,0.79459
560.313,61.08299,-3.12062,-0.01001412,0.79418
560.913,61.14294,-3.12189,-0.01072371,0.79376
561.513,61.20287,-3.12188,-0.004211652,0.79335
562.113,61.26265,-3.12231,-0.006954618,0.79293
562.713,61.3229,-3.12123,-0.01433451,0.79252
563.313,61.38305,-3.1219,-0.01893837,0.7921
563.913,61.44301,-3.12208,-0.01882136,0.79169
564.513,61.50314,-3.12321,-0.01820216,0.79127
565.113,61.56298,-3.12321,-0.02849157,0.79085
565.713,61.62271,-3.1244,-0.02336739,0.79044
566.313,61.6825,-3.12446,-0.02642173,0.79002
566.913,61.74233,-3.12584,-0.03502819,0.7896
567.513,61.80219,-3.12559,-0.04067798,0.78918
568.113,61.862,-3.12452,-0.03713525,0.78876
568.713,61.92188,-3.12569,-0.04252493,0.78835
569.313,61.98177,-3.12584,-0.04528444,0.78793
569.913,62.0415,-3.12764,-0.04793912,0.78751
570.513,62.10128,-3.12781,-0.03589549,0.78709
571.113,62.1613,-3.12782,-0.0449494,0.78667
571.713,62.22093,-3.12913,-0.04582469,0.78625
572.313,62.2809,-3.12878,-0.0563476,0.78583
572.913,62.3407,-3.12912,-0.059016,0.78541
573.513,62.40036,-3.12956,-0.05562364,0.78499
574.113,62.46029,-3.13176,-0.0658178,0.78456
574.713,62.52,-3.13044,-0.06791719,0.78414
575.313,62.57994,-3.13044,-0.06561406,0.78372
575.913,62.6396,-3.13114,-0.07101043,0.7833
576.513,62.69925,-3.13176,-0.07800618,0.78287
577.113,62.759,-3.13176,-0.08871609,0.78245
577.713,62.8188,-3.13309,-0.08924184,0.78203
578.313,62.87869,-3.13241,-0.08690826,0.7816
578.913,62.9384,-3.13241,-0.08213264,0.78118
579.513,62.99828,-3.13373,-0.08811976,0.78075
580.113,63.05806,-3.13368,-0.08238335,0.78033
580.713,63.118,-3.13505,-0.08765822,0.7799
581.313,63.17782,-3.13505,-0.09204057,0.77948
581.913,63.2377,-3.13502,-0.09375181,0.77905
582.513,63.2976,-3.13636,-0.10837,0.77863
583.113,63.35745,-3.13636,-0.10556,0.7782
583.713,63.4176,-3.13689,-0.10464,0.77777
584.313,63.47784,-3.13768,-0.11261,0.77735
584.913,63.5379,-3.13823,-0.09837248,0.77692
585.513,63.59816,-3.13899,-0.11224,0.77649
586.113,63.65854,-3.13899,-0.11747,0.77606
586.713,63.71891,-3.14031,-0.10836,0.77563
587.313,63.77939,-3.14031,-0.1112,0.7752
587.913,63.8399,-3.14031,-0.1179,0.77477
588.513,63.9002,-3.14161,-0.12145,0.77435
589.113,63.9606,-3.1413,-0.11675,0.77392
589.713,64.02088,-3.14131,-0.12377,0.77348
590.313,64.08104,-3.14261,-0.13365,0.77305
590.913,64.14118,-3.14226,-0.13567,0.77262
591.513,64.2012,-3.14096,-0.13465,0.77219
592.113,64.26125,-3.14233,-0.14096,0.77176
592.713,64.3216,-3.14361,-0.13182,0.77133
593.313,64.38201,-3.14382,-0.13774,0.7709
593.913,64.44234,-3.14394,-0.13168,0.77046
594.513,64.50272,-3.1439,-0.14865,0.77003
595.113,64.56309,-3.14525,-0.15076,0.7696
595.713,64.6234,-3.14525,-0.13949,0.76916
596.313,64.68374,-3.14525,-0.15352,0.76873
596.913,64.7441,-3.14551,-0.14774,0.7683
597.513,64.80447,-3.14657,-0.14131,0.76786
598.113,64.8649,-3.14657,-0.15282,0.76743
598.713,64.92535,-3.14755,-0.1461,0.76699
599.313,64.9855,-3.14755,-0.14789,0.76655
599.913,65.0457,-3.14626,-0.15405,0.76612
600.513,65.10591,-3.14623,-0.15605,0.76568
601.113,65.1662,-3.14755,-0.1726,0.76525
601.713,65.2264,-3.14892,-0.16639,0.76481
602.313,65.28644,-3.14878,-0.1575,0.76437
602.913,65.34659,-3.1492,-0.16911,0.76393
603.513,65.40669,-3.1492,-0.17791,0.7635
604.113,65.467,-3.15055,-0.17517,0.76306
604.713,65.52712,-3.15052,-0.18558,0.76262
605.313,65.5872,-3.15183,-0.17509,0.76218
605.913,65.64743,-3.15183,-0.16518,0.76174
606.513,65.70773,-3.1515,-0.16884,0.7613
607.113,65.76785,-3.15147,-0.16354,0.76086
607.713,65.82819,-3.15151,-0.16067,0.76042
608.313,65.88824,-3.15151,-0.17679,0.75998
608.913,65.94827,-3.15282,-0.17188,0.75954
609.513,66.00832,-3.15412,-0.17489,0.7591
610.113,66.06838,-3.15282,-0.17417,0.75865
610.713,66.1285,-3.15414,-0.18002,0.75821
611.313,66.18862,-3.15414,-0.17816,0.75777
611.913,66.24885,-3.15512,-0.17471,0.75733
612.513,66.30904,-3.15643,-0.17235,0.75688
613.113,66.36905,-3.15643,-0.17234,0.75644
613.713,66.429,-3.15511,-0.16321,0.756
614.313,66.48904,-3.15644,-0.18285,0.75555
614.913,66.54938,-3.15644,-0.1665,0.75511
615.513,66.6101,-3.15778,-0.16108,0.75466
616.113,66.6707,-3.15644,-0.17044,0.75422
616.713,66.7312,-3.15727,-0.17768,0.75377
617.313,66.79171,-3.15777,-0.18752,0.75333
617.913,66.85205,-3.15908,-0.16998,0.75288
618.513,66.91243,-3.1579,-0.18718,0.75244
619.113,66.9729,-3.15907,-0.19223,0.75199
619.713,67.03328,-3.15907,-0.18248,0.75154
620.313,67.09401,-3.15902,-0.2009,0.75109
620.913,67.15473,-3.16039,-0.18975,0.75065
621.513,67.2154,-3.16038,-0.18997,0.7502
622.113,67.27601,-3.1617,-0.19582,0.74975
622.713,67.33605,-3.16183,-0.20305,0.7493
623.313,67.3965,-3.16302,-0.18589,0.74885
623.913,67.45708,-3.16302,-0.19678,0.7484
624.513,67.51776,-3.16302,-0.20389,0.74795
625.113,67.5783,-3.1617,-0.21142,0.7475
625.713,67.63879,-3.16169,-0.20662,0.74705
626.313,67.69933,-3.16444,-0.20333,0.7466
626.913,67.75985,-3.16576,-0.21196,0.74615
627.513,67.82039,-3.16576,-0.21797,0.7457
628.113,67.88091,-3.16474,-0.22857,0.74525
628.713,67.94148,-3.16444,-0.22828,0.7448
629.313,68.00202,-3.16581,-0.22649,0.74434
629.913,68.06233,-3.16577,-0.23633,0.74389
630.513,68.12268,-3.16761,-0.23512,0.74344
631.113,68.18302,-3.16773,-0.23744,0.74299
631.713,68.24337,-3.16773,-0.24251,0.74253
632.313,68.30359,-3.16773,-0.24291,0.74208
632.913,68.3638,-3.16876,-0.25525,0.74162
633.513,68.42402,-3.16903,-0.25396,0.74117
634.113,68.48431,-3.16839,-0.25284,0.74071
634.713,68.54471,-3.16839,-0.25865,0.74026
635.313,68.60497,-3.16971,-0.26747,0.7398
635.913,68.66526,-3.17103,-0.25672,0.73935
636.513,68.7255,-3.17102,-0.26937,0.73889
637.113,68.7859,-3.17109,-0.26778,0.73843
637.713,68.84647,-3.17037,-0.26633,0.73798
638.313,68.90665,-3.17168,-0.2734,0.73752
638.913,68.96715,-3.17169,-0.27486,0.73706
639.513,69.0274,-3.17177,-0.28086,0.7366
640.113,69.08785,-3.1707,-0.28532,0.73615
640.713,69.14839,-3.17201,-0.29402,0.73569
641.313,69.20889,-3.17201,-0.3022,0.73523
641.913,69.26945,-3.17334,-0.28263,0.73477
642.513,69.32983,-3.17433,-0.31102,0.73431
643.113,69.39015,-3.17432,-0.30649,0.73385
643.713,69.45047,-3.17422,-0.31735,0.73339
644.313,69.51087,-3.17432,-0.31404,0.73293
644.913,69.57135,-3.17433,-0.32066,0.73247
645.513,69.6318,-3.17567,-0.32745,0.73201
646.113,69.69239,-3.17432,-0.33409,0.73154
646.713,69.75307,-3.17528,-0.34226,0.73108
647.313,69.81373,-3.17563,-0.3383,0.73062
647.913,69.87435,-3.17563,-0.34044,0.73016
648.513,69.935,-3.17553,-0.35675,0.72969
649.113,69.99559,-3.17684,-0.34618,0.72923
649.713,70.056,-3.17563,-0.35279,0.72877
650.313,70.11661,-3.17683,-0.33944,0.7283
650.913,70.17704,-3.17694,-0.33956,0.72784
651.513,70.23775,-3.17695,-0.35516,0.72738
652.113,70.29828,-3.17793,-0.34201,0.72691
652.713,70.35897,-3.17793,-0.35293,0.72645
653.313,70.4195,-3.17793,-0.34988,0.72598
653.913,70.48012,-3.17795,-0.35518,0.72551
654.513,70.5407,-3.17725,-0.36356,0.72505
655.113,70.60124,-3.1786,-0.3567,0.72458
655.713,70.66167,-3.1786,-0.37434,0.72412
656.313,70.72216,-3.17956,-0.365,0.72365
656.913,70.78277,-3.17969,-0.37562,0.72318
657.513,70.84336,-3.17987,-0.376,0.72271
658.113,70.90394,-3.18114,-0.39292,0.72225
658.713,70.9646,-3.18254,-0.38477,0.72178
659.313,71.02518,-3.18198,-0.38058,0.72131
659.913,71.08577,-3.18189,-0.39331,0.72084
660.513,71.1465,-3.18189,-0.39114,0.72037
661.113,71.2072,-3.18197,-0.40049,0.7199
661.713,71.26796,-3.18255,-0.40111,0.71943
662.313,71.32858,-3.18123,-0.38046,0.71896
662.913,71.3892,-3.18386,-0.39609,0.71849
663.513,71.44965,-3.18386,-0.37619,0.71802
664.113,71.51007,-3.18254,-0.39344,0.71755
664.713,71.57038,-3.18254,-0.39723,0.71708
665.313,71.63079,-3.18266,-0.39988,0.7166
665.913,71.69117,-3.18386,-0.40747,0.71613
666.513,71.75149,-3.18386,-0.40388,0.71566
667.113,71.8122,-3.18386,-0.4224,0.71519
667.713,71.8727,-3.18527,-0.41248,0.71471
668.313,71.93343,-3.18517,-0.42273,0.71424
668.913,71.9939,-3.18514,-0.41315,0.71377
669.513,72.0543,-3.18418,-0.42834,0.71329
670.113,72.11497,-3.18513,-0.41509,0.71282
670.713,72.17543,-3.1855,-0.42433,0.71234
671.313,72.23598,-3.18551,-0.42781,0.71187
671.913,72.29655,-3.18682,-0.42566,0.71139
672.513,72.35726,-3.18551,-0.41882,0.71092
673.113,72.41866,-3.18682,-0.41704,0.71044
673.713,72.47926,-3.18551,-0.42451,0.70997
674.313,72.54002,-3.18551,-0.43079,0.70949
674.913,72.60065,-3.18551,-0.42816,0.70901
675.513,72.66139,-3.18683,-0.44399,0.70853
676.113,72.72198,-3.18682,-0.44178,0.70806
676.713,72.7825,-3.18682,-0.4289,0.70758
677.313,72.843,-3.18686,-0.43702,0.7071
677.913,72.9037,-3.18813,-0.44104,0.70662
678.513,72.96432,-3.18682,-0.43883,0.70614
679.113,73.02498,-3.18682,-0.44492,0.70567
679.713,73.0856,-3.18682,-0.44971,0.70519
680.313,73.14618,-3.18682,-0.45096,0.70471
680.913,73.20668,-3.18814,-0.45215,0.70423
681.513,73.26717,-3.18814,-0.44927,0.70375
682.113,73.3278,-3.18814,-0.45158,0.70327
682.713,73.3885,-3.18814,-0.44911,0.70278
683.313,73.4491,-3.18945,-0.43456,0.7023
683.913,73.5099,-3.18846,-0.45205,0.70182
684.513,73.5706,-3.18846,-0.44484,0.70134
685.113,73.63133,-3.19055,-0.43776,0.70086
685.713,73.69211,-3.19109,-0.45251,0.70038
686.313,73.7529,-3.18978,-0.44501,0.69989
686.913,73.81373,-3.18973,-0.44571,0.69941
687.513,73.8746,-3.19109,-0.45275,0.69893
688.113,73.93536,-3.19109,-0.45125,0.69844
688.713,73.996,-3.19097,-0.45717,0.69796
689.313,74.05671,-3.19112,-0.45327,0.69747
689.913,74.1172,-3.19233,-0.46629,0.69699
690.513,74.17786,-3.19241,-0.45764,0.69651
691.113,74.23844,-3.19241,-0.45175,0.69602
691.713,74.29905,-3.19241,-0.44976,0.69553
692.313,74.35961,-3.19241,-0.45201,0.69505
692.913,74.4203,-3.19373,-0.45972,0.69456
693.513,74.481,-3.19323,-0.46143,0.69408
694.113,74.5418,-3.19263,-0.45567,0.69359
694.713,74.60253,-3.19373,-0.44723,0.6931
695.313,74.66335,-3.19373,-0.45893,0.69262
695.913,74.72406,-3.19457,-0.46154,0.69213
696.513,74.78484,-3.19474,-0.47533,0.69164
697.113,74.84565,-3.19505,-0.46431,0.69115
697.713,74.90637,-3.19505,-0.4644,0.69066
698.313,74.967,-3.19505,-0.45879,0.69018
698.913,75.02784,-3.19505,-0.4725,0.68969
699.513,75.0886,-3.19505,-0.47467,0.6892
700.113,75.14947,-3.19473,-0.46961,0.68871
700.713,75.21014,-3.19505,-0.47519,0.68822
701.313,75.2709,-3.19506,-0.44911,0.68773
701.913,75.33159,-3.19636,-0.45505,0.68724
702.513,75.39233,-3.19645,-0.46677,0.68675
703.113,75.45311,-3.19669,-0.45681,0.68625
703.713,75.51392,-3.19669,-0.48114,0.68576
704.313,75.57474,-3.19537,-0.47707,0.68527
704.913,75.63555,-3.19674,-0.4823,0.68478
705.513,75.69623,-3.19768,-0.46758,0.68429
706.113,75.75689,-3.19767,-0.48274,0.68379
706.713,75.81753,-3.19807,-0.48116,0.6833
707.313,75.8781,-3.198,-0.47134,0.68281
707.913,75.9389,-3.198,-0.47922,0.68232
708.513,75.99961,-3.198,-0.49024,0.68182
709.113,76.06051,-3.198,-0.49339,0.68133
709.713,76.12119,-3.198,-0.47048,0.68083
710.313,76.18196,-3.19822,-0.47807,0.68034
710.913,76.24282,-3.19932,-0.47675,0.67984
711.513,76.3036,-3.19932,-0.47677,0.67935
712.113,76.36448,-3.19932,-0.48463,0.67885
712.713,76.42525,-3.20062,-0.48043,0.67836
713.313,76.48586,-3.20064,-0.47981,0.67786
713.913,76.5467,-3.20064,-0.47385,0.67737
714.513,76.6075,-3.20031,-0.46186,0.67687
715.113,76.6683,-3.20032,-0.47181,0.67637
715.713,76.72912,-3.20032,-0.47293,0.67587
716.313,76.7898,-3.20163,-0.46764,0.67538
716.913,76.8505,-3.20163,-0.48647,0.67488
717.513,76.91125,-3.20083,-0.48364,0.67438
718.113,76.97187,-3.20163,-0.50252,0.67388
718.713,77.0326,-3.20163,-0.49386,0.67339
719.313,77.0934,-3.20163,-0.50183,0.67289
719.913,77.15427,-3.20164,-0.515,0.67239
720.513,77.21507,-3.20295,-0.51038,0.67189
721.113,77.2758,-3.20298,-0.50043,0.67139
721.713,77.3366,-3.20229,-0.49619,0.67089
722.313,77.39752,-3.20229,-0.49759,0.67039
722.913,77.45836,-3.2023,-0.49711,0.66989
723.513,77.5192,-3.20327,-0.50605,0.66939
724.113,77.57986,-3.20329,-0.50711,0.66889
724.713,77.6405,-3.2029,-0.49886,0.66838
725.313,77.70135,-3.20311,-0.50968,0.66788
725.913,77.76216,-3.20426,-0.51292,0.66738
726.513,77.82291,-3.20431,-0.51072,0.66688
727.113,77.88371,-3.20346,-0.49804,0.66638
727.713,77.94447,-3.20402,-0.51294,0.66587
728.313,78.00535,-3.20426,-0.5185,0.66537
728.913,78.06618,-3.20426,-0.50237,0.66487
729.513,78.12695,-3.20557,-0.51521,0.66436
730.113,78.18782,-3.20433,-0.51688,0.66386
730.713,78.24871,-3.20525,-0.52346,0.66336
731.313,78.30972,-3.20525,-0.52729,0.66285
731.913,78.37057,-3.20666,-0.52211,0.66235
732.513,78.43141,-3.20672,-0.52223,0.66184
733.113,78.492,-3.20558,-0.52365,0.66134
733.713,78.55282,-3.20628,-0.53411,0.66083
734.313,78.61384,-3.20813,-0.51421,0.66033
734.913,78.675,-3.20695,-0.52585,0.65982
735.513,78.7364,-3.20689,-0.52207,0.65931
736.113,78.79738,-3.20788,-0.51868,0.65881
736.713,78.85825,-3.20759,-0.53755,0.6583
737.313,78.91885,-3.20722,-0.53442,0.65779
737.913,78.97984,-3.20756,-0.52405,0.65729
738.513,79.0408,-3.20689,-0.54852,0.65678
739.113,79.1019,-3.20821,-0.54817,0.65627
739.713,79.16271,-3.20953,-0.53328,0.65576
740.313,79.22351,-3.20852,-0.53441,0.65526
740.913,79.28452,-3.20821,-0.51103,0.65475
741.513,79.34566,-3.2095,-0.51965,0.65424
742.113,79.4067,-3.20953,-0.53279,0.65373
742.713,79.46772,-3.21084,-0.52579,0.65322
743.313,79.52861,-3.21084,-0.54361,0.65271
743.913,79.58983,-3.21085,-0.54444,0.6522
744.513,79.65106,-3.20888,-0.53773,0.65169
745.113,79.71221,-3.20883,-0.53926,0.65118
745.713,79.77339,-3.21014,-0.54258,0.65067
746.313,79.83455,-3.2115,-0.553,0.65016
746.913,79.89587,-3.21047,-0.54846,0.64965
747.513,79.95735,-3.21155,-0.55123,0.64914
747.913,79.9984,-3.2115,-0.55762,0.6488