File: 01_Data/Luan_Panel/STA/N2/10K_min/Luan_STA_N2_10KData_221003_R2.csv
##Temp./Â°C,Time/min,DSC(subtr.2)/mW,Mass loss(subtr.2)/mg,Sensit./(uV/mW)
49.511,10.01,0.10643,-0.04376,1.07525
50.111,10.71878,0.20562,-0.04733385,1.07494
50.711,10.91077,0.31253,-0.04692079,1.07463
51.311,11.0532,0.37045,-0.04715878,1.07432
51.911,11.1732,0.4455,-0.04657085,1.074
52.511,11.2788,0.50751,-0.04752998,1.07369
53.111,11.37525,0.54939,-0.04766919,1.07338
53.711,11.4655,0.59741,-0.04799621,1.07307
54.311,11.55083,0.6357,-0.04795698,1.07275
54.911,11.63313,0.67336,-0.04951864,1.07244
55.511,11.71217,0.7044,-0.04951095,1.07213
56.111,11.7895,0.74379,-0.0500329,1.07182
56.711,11.86425,0.76977,-0.05012927,1.0715
57.311,11.93703,0.79538,-0.04861975,1.07119
57.911,12.009,0.81378,-0.04851617,1.07088
58.511,12.08057,0.83133,-0.0500092,1.07057
59.111,12.15094,0.8636,-0.04999908,1.07026
59.711,12.2201,0.87781,-0.05001718,1.06994
60.311,12.28806,0.89039,-0.05003039,1.06963
60.911,12.35618,0.91389,-0.05003866,1.06932
61.511,12.42349,0.92511,-0.05169358,1.06901
62.111,12.4903,0.94731,-0.05185683,1.0687
62.711,12.55691,0.95163,-0.05157576,1.06839
63.311,12.62345,0.9654,-0.05255573,1.06807
63.911,12.68977,0.97323,-0.05220929,1.06776
64.511,12.75554,0.99178,-0.05163163,1.06745
65.111,12.82086,0.99993,-0.05286671,1.06714
65.711,12.8861,1.01809,-0.05286438,1.06683
66.311,12.95134,1.02894,-0.05288248,1.06652
66.911,13.01661,1.03751,-0.05142331,1.06621
67.511,13.08113,1.05088,-0.05362384,1.06589
68.111,13.14526,1.06467,-0.05418006,1.06558
68.711,13.20989,1.07498,-0.05515865,1.06527
69.311,13.2744,1.08625,-0.05552525,1.06496
69.911,13.33915,1.09582,-0.05551592,1.06465
70.511,13.40332,1.10667,-0.05539863,1.06434
71.111,13.46747,1.1143,-0.05681909,1.06403
71.711,13.5314,1.12853,-0.05681814,1.06372
72.311,13.59503,1.13885,-0.05726582,1.06341
72.911,13.65874,1.14852,-0.05680974,1.0631
73.511,13.72205,1.15602,-0.05813645,1.06279
74.111,13.78545,1.16781,-0.05945605,1.06248
74.711,13.8483,1.18209,-0.0581105,1.06217
75.311,13.91143,1.19511,-0.05944881,1.06186
75.911,13.9743,1.20738,-0.05946166,1.06154
76.511,14.03705,1.21853,-0.06077221,1.06123
77.111,14.09971,1.22471,-0.06077036,1.06092
77.711,14.16211,1.24113,-0.06072204,1.06061
78.311,14.22393,1.24926,-0.06207767,1.0603
78.911,14.28575,1.25774,-0.06337886,1.05999
79.511,14.34774,1.25978,-0.06218249,1.05968
80.111,14.4099,1.26961,-0.0624091,1.05937
80.711,14.472,1.27125,-0.06392079,1.05906
81.311,14.53386,1.28465,-0.06474945,1.05875
81.911,14.59554,1.29428,-0.0660305,1.05844
82.511,14.6569,1.29873,-0.06642249,1.05814
83.111,14.7181,1.30347,-0.06603591,1.05783
83.711,14.7793,1.30521,-0.06734833,1.05752
84.311,14.84031,1.31781,-0.06735,1.05721
84.911,14.90126,1.31699,-0.06779602,1.0569
85.511,14.9619,1.3145,-0.06902734,1.05659
86.111,15.02285,1.3224,-0.06900002,1.05628
86.711,15.08395,1.32818,-0.06904083,1.05597
87.311,15.1448,1.32832,-0.07027441,1.05566
87.911,15.20539,1.32246,-0.07160407,1.05535
88.511,15.2659,1.32324,-0.0703096,1.05504
89.111,15.32593,1.32808,-0.07031013,1.05473
89.711,15.38616,1.32189,-0.07090348,1.05442
90.311,15.44639,1.31867,-0.07162976,1.05411
90.911,15.50671,1.3194,-0.07279074,1.05381
91.511,15.5671,1.31899,-0.07269433,1.0535
92.111,15.6275,1.30773,-0.07261002,1.05319
92.711,15.68746,1.30929,-0.07259567,1.05288
93.311,15.74719,1.31145,-0.07392306,1.05257
93.911,15.807,1.29783,-0.0743087,1.05226
94.511,15.8666,1.29697,-0.07426002,1.05195
95.111,15.92635,1.29786,-0.07426205,1.05164
95.711,15.98603,1.29294,-0.07557541,1.05134
96.311,16.0454,1.28626,-0.07557007,1.05103
96.911,16.10501,1.28853,-0.07583345,1.05072
97.511,16.1645,1.27163,-0.07689054,1.05041
98.111,16.22379,1.26894,-0.07794959,1.0501
98.711,16.2834,1.26803,-0.07820931,1.04979
99.311,16.34284,1.26623,-0.07812892,1.04949
99.911,16.40203,1.2587,-0.07755335,1.04918
100.511,16.46115,1.26016,-0.07886244,1.04887
101.111,16.5202,1.26012,-0.07821089,1.04856
101.711,16.57925,1.25052,-0.07821003,1.04825
102.311,16.63811,1.25226,-0.07871285,1.04795
102.911,16.69695,1.24522,-0.07884786,1.04764
103.511,16.7557,1.24709,-0.07952623,1.04733
104.111,16.81462,1.24413,-0.07952,1.04702
104.711,16.8738,1.26676,-0.07952001,1.04672
105.311,16.9327,1.25889,-0.07954047,1.04641
105.911,16.99149,1.27443,-0.08084033,1.0461
106.511,17.05022,1.28482,-0.08084,1.04579
107.111,17.10869,1.27845,-0.08206783,1.04549
107.711,17.16755,1.28546,-0.08083652,1.04518
108.311,17.22626,1.26931,-0.08083205,1.04487
108.911,17.28497,1.28063,-0.0821483,1.04456
109.511,17.34381,1.28787,-0.08213089,1.04426
110.111,17.40237,1.28322,-0.08083954,1.04395
110.711,17.461,1.27156,-0.08083874,1.04364
111.311,17.5197,1.26227,-0.08216037,1.04334
111.911,17.57815,1.2685,-0.08243291,1.04303
112.511,17.6366,1.25922,-0.08216143,1.04272
113.111,17.69537,1.24824,-0.08352651,1.04242
113.711,17.75411,1.2328,-0.08348013,1.04211
114.311,17.81295,1.22399,-0.08371699,1.0418
114.911,17.87143,1.22763,-0.08468952,1.0415
115.511,17.92997,1.22592,-0.0834684,1.04119
116.111,17.98859,1.22971,-0.08478996,1.04088
116.711,18.04733,1.21749,-0.08479,1.04058
117.311,18.10602,1.21197,-0.08479,1.04027
117.911,18.16456,1.21495,-0.08478956,1.03996
118.511,18.2232,1.2097,-0.08597013,1.03966
119.111,18.28184,1.21082,-0.08610017,1.03935
119.711,18.3404,1.2134,-0.08479704,1.03904
120.311,18.3991,1.20744,-0.08610768,1.03874
120.911,18.45749,1.20284,-0.08611001,1.03843
121.511,18.516,1.20266,-0.08613589,1.03813
122.111,18.57445,1.20087,-0.08743048,1.03782
122.711,18.63297,1.19872,-0.08743001,1.03751
123.311,18.6913,1.19266,-0.08743701,1.03721
123.911,18.7496,1.18869,-0.08841054,1.0369
124.511,18.808,1.19718,-0.08841,1.0366
125.111,18.86635,1.19094,-0.08841,1.03629
125.711,18.92491,1.18316,-0.08840812,1.03598
126.311,18.98334,1.19332,-0.0874482,1.03568
126.911,19.04157,1.18451,-0.08742414,1.03537
127.511,19.09968,1.19567,-0.08873927,1.03507
128.111,19.15779,1.19092,-0.08874,1.03476
128.711,19.21619,1.18873,-0.08874,1.03446
129.311,19.27448,1.18994,-0.08873403,1.03415
129.911,19.33253,1.18328,-0.09010811,1.03385
130.511,19.39059,1.18729,-0.08874005,1.03354
131.111,19.4485,1.18525,-0.08870708,1.03323
131.711,19.5064,1.18139,-0.09004928,1.03293
132.311,19.56457,1.19078,-0.09005,1.03262
132.911,19.6223,1.18798,-0.09005,1.03232
133.511,19.68039,1.18794,-0.09005169,1.03201
134.111,19.73829,1.19661,-0.09136942,1.03171
134.711,19.79646,1.197,-0.0913701,1.0314
135.311,19.85485,1.19393,-0.09168396,1.0311
135.911,19.91295,1.20184,-0.09268469,1.03079
136.511,19.97107,1.20562,-0.09266067,1.03049
137.111,20.02915,1.20161,-0.09203008,1.03018
137.711,20.08709,1.20498,-0.09203131,1.02988
138.311,20.14489,1.19961,-0.09267195,1.02957
138.911,20.2025,1.20679,-0.0926934,1.02927
139.511,20.26023,1.21066,-0.09137024,1.02896
140.111,20.31821,1.20489,-0.09136979,1.02866
140.711,20.37642,1.20944,-0.09252041,1.02836
141.311,20.43423,1.20469,-0.0926902,1.02805
141.911,20.49196,1.20813,-0.09371787,1.02775
142.511,20.5498,1.21036,-0.09367,1.02744
143.111,20.60758,1.20713,-0.09375687,1.02714
143.711,20.66552,1.20777,-0.09235011,1.02683
144.311,20.72345,1.21194,-0.09234999,1.02653
144.911,20.78114,1.20377,-0.0923426,1.02622
145.511,20.839,1.21517,-0.09143544,1.02592
146.111,20.8968,1.21867,-0.09131964,1.02562
146.711,20.95466,1.2231,-0.09268902,1.02531
147.311,21.0126,1.21694,-0.09269,1.02501
147.911,21.07046,1.22255,-0.09269019,1.0247
148.511,21.12827,1.2224,-0.09238319,1.0244
149.111,21.18582,1.22407,-0.09331087,1.02409
149.711,21.24346,1.22935,-0.09333999,1.02379
150.311,21.30085,1.2241,-0.09334,1.02349
150.911,21.35849,1.22843,-0.09333913,1.02318
151.511,21.4162,1.23089,-0.09304781,1.02288
152.111,21.4738,1.24379,-0.09400028,1.02257
152.711,21.53164,1.25071,-0.09400845,1.02227
153.311,21.5894,1.24387,-0.09399924,1.02197
153.911,21.64712,1.25313,-0.09400998,1.02166
154.511,21.70488,1.26672,-0.09401149,1.02136
155.111,21.76246,1.26662,-0.09617732,1.02106
155.711,21.81984,1.27269,-0.09662991,1.02075
156.311,21.87704,1.27424,-0.09528994,1.02045
156.911,21.93458,1.28007,-0.09531998,1.02015
157.511,21.99232,1.29323,-0.09532,1.01984
158.111,22.04994,1.28563,-0.09532,1.01954
158.711,22.1077,1.28507,-0.09532,1.01923
159.311,22.16525,1.30317,-0.09532,1.01893
159.911,22.22302,1.3096,-0.09532,1.01863
160.511,22.2804,1.31589,-0.09532014,1.01832
161.111,22.3378,1.32505,-0.09635668,1.01802
161.711,22.39544,1.3377,-0.09627584,1.01772
162.311,22.4531,1.33626,-0.09664018,1.01741
162.911,22.51071,1.34142,-0.09663914,1.01711
163.511,22.5683,1.35285,-0.09796228,1.01681
164.111,22.62575,1.35455,-0.09796,1.0165
164.711,22.68327,1.36008,-0.09796,1.0162
165.311,22.74089,1.36787,-0.09796,1.0159
165.911,22.79843,1.37636,-0.09796921,1.01559
166.511,22.85586,1.38381,-0.10056,1.01529
167.111,22.91337,1.38808,-0.10058,1.01499
167.711,22.97085,1.39619,-0.10061,1.01469
168.311,23.02844,1.40264,-0.10157,1.01438
168.911,23.08618,1.41019,-0.10157,1.01408
169.511,23.14396,1.42198,-0.10157,1.01378
170.111,23.2016,1.42855,-0.10157,1.01347
170.711,23.2592,1.43878,-0.10157,1.01317
171.311,23.3166,1.45561,-0.1019,1.01287
171.911,23.37419,1.46706,-0.10317,1.01257
172.511,23.43165,1.4848,-0.10453,1.01226
173.111,23.4893,1.49316,-0.10453,1.01196
173.711,23.54666,1.4998,-0.10453,1.01166
174.311,23.60387,1.51875,-0.10454,1.01135
174.911,23.66113,1.52255,-0.10552,1.01105
175.511,23.71846,1.53833,-0.10552,1.01075
176.111,23.77638,1.55765,-0.10552,1.01045
176.711,23.834,1.56553,-0.10552,1.01014
177.311,23.89159,1.57237,-0.10552,1.00984
177.911,23.94923,1.58255,-0.10683,1.00954
178.511,24.00686,1.60293,-0.10683,1.00923
179.111,24.0645,1.61818,-0.10698,1.00893
179.711,24.12206,1.63531,-0.10724,1.00863
180.311,24.17969,1.63326,-0.10978,1.00833
180.911,24.23728,1.6515,-0.1098,1.00802
181.511,24.29499,1.66384,-0.1098,1.00772
182.111,24.3526,1.67836,-0.11111,1.00742
182.711,24.41018,1.68785,-0.11112,1.00712
183.311,24.46771,1.70511,-0.11243,1.00681
183.911,24.52514,1.70939,-0.11243,1.00651
184.511,24.58249,1.72923,-0.11352,1.00621
185.111,24.64,1.75278,-0.11506,1.00591
185.711,24.6975,1.76767,-0.11506,1.0056
186.311,24.75518,1.77905,-0.11639,1.0053
186.911,24.81288,1.79542,-0.1164,1.005
187.511,24.8706,1.8082,-0.11903,1.0047
188.111,24.92809,1.82193,-0.11901,1.00439
188.711,24.98558,1.82449,-0.12034,1.00409
189.311,25.0431,1.84473,-0.12033,1.00379
189.911,25.1007,1.85688,-0.12163,1.00349
190.511,25.15821,1.86534,-0.12283,1.00319
191.111,25.21555,1.88394,-0.12423,1.00288
191.711,25.27279,1.90156,-0.12426,1.00258
192.311,25.3303,1.90477,-0.12691,1.00228
192.911,25.38784,1.92589,-0.1269,1.00198
193.511,25.44525,1.93756,-0.1293,1.00167
194.111,25.50273,1.94968,-0.12921,1.00137
194.711,25.56017,1.96172,-0.13053,1.00107
195.311,25.61761,1.97343,-0.13165,1.00077
195.911,25.67494,1.98727,-0.13175,1.00046
196.511,25.73239,1.99889,-0.13316,1.00016
197.111,25.78979,2.01214,-0.13446,0.99986
197.711,25.8472,2.02234,-0.13462,0.99956
198.311,25.90457,2.02855,-0.13639,0.99926
198.911,25.96187,2.04319,-0.13888,0.99895
199.511,26.01919,2.05212,-0.14007,0.99865
200.111,26.07651,2.05716,-0.14117,0.99835
200.711,26.13379,2.06945,-0.14291,0.99805
201.311,26.19081,2.07466,-0.14284,0.99774
201.911,26.248,2.08497,-0.14415,0.99744
202.511,26.30507,2.09545,-0.14571,0.99714
203.111,26.3623,2.09715,-0.14815,0.99684
203.711,26.4199,2.1115,-0.14939,0.99653
204.311,26.4772,2.1194,-0.1507,0.99623
204.911,26.53465,2.12433,-0.15062,0.99593
205.511,26.59188,2.12202,-0.15333,0.99563
206.111,26.64895,2.13452,-0.15466,0.99533
206.711,26.7062,2.13385,-0.15596,0.99502
207.311,26.7633,2.13946,-0.15732,0.99472
207.911,26.82044,2.14524,-0.15898,0.99442
208.511,26.8776,2.15489,-0.16221,0.99412
209.111,26.93455,2.15463,-0.16246,0.99381
209.711,26.99172,2.15939,-0.16362,0.99351
210.311,27.0488,2.1693,-0.16486,0.99321
210.911,27.1057,2.1725,-0.16618,0.99291
211.511,27.16269,2.18462,-0.16748,0.9926
212.111,27.21977,2.19134,-0.16881,0.9923
212.711,27.2768,2.19172,-0.17017,0.992
213.311,27.3342,2.19981,-0.1717,0.9917
213.911,27.3914,2.19971,-0.1732,0.9914
214.511,27.4485,2.20398,-0.17473,0.99109
215.111,27.5054,2.21656,-0.17754,0.99079
215.711,27.56245,2.20629,-0.17887,0.99049
216.311,27.61958,2.22591,-0.18,0.99019
216.911,27.6768,2.22784,-0.18208,0.98988
217.511,27.7337,2.23451,-0.18405,0.98958
218.111,27.7904,2.24425,-0.18548,0.98928
218.711,27.8476,2.26755,-0.18743,0.98898
219.311,27.9044,2.27171,-0.18872,0.98867
219.911,27.9621,2.28182,-0.19007,0.98837
220.511,28.0191,2.29202,-0.19166,0.98807
221.111,28.0763,2.29107,-0.19459,0.98777
221.711,28.13356,2.30186,-0.19626,0.98746
222.311,28.19077,2.31501,-0.19934,0.98716
222.911,28.2477,2.3257,-0.20215,0.98686
223.511,28.3046,2.32532,-0.20286,0.98656
224.111,28.36155,2.33457,-0.20457,0.98625
224.711,28.4184,2.35178,-0.20609,0.98595
225.311,28.47552,2.36157,-0.20793,0.98565
225.911,28.53255,2.3652,-0.20963,0.98535
226.511,28.58979,2.36624,-0.21149,0.98504
227.111,28.6469,2.37688,-0.21421,0.98474
227.711,28.70402,2.381,-0.2169,0.98444
228.311,28.76105,2.39072,-0.2198,0.98413
228.911,28.81816,2.39734,-0.22162,0.98383
229.511,28.8752,2.40851,-0.22391,0.98353
230.111,28.9322,2.40651,-0.2255,0.98323
230.711,28.98922,2.41051,-0.22875,0.98292
231.311,29.0462,2.42112,-0.23003,0.98262
231.911,29.1031,2.41512,-0.23328,0.98232
232.511,29.1601,2.4333,-0.23451,0.98201
233.111,29.21717,2.41749,-0.23817,0.98171
233.711,29.2744,2.41527,-0.24153,0.98141
234.311,29.33134,2.4144,-0.24489,0.9811
234.911,29.38845,2.41663,-0.24776,0.9808
235.511,29.44558,2.4023,-0.25054,0.9805
236.111,29.5027,2.40083,-0.25174,0.9802
236.711,29.55967,2.39891,-0.25541,0.97989
237.311,29.6166,2.39666,-0.25916,0.97959
237.911,29.67342,2.38737,-0.2611,0.97929
238.511,29.7305,2.38352,-0.26248,0.97898
239.111,29.78772,2.3737,-0.26558,0.97868
239.711,29.8448,2.37749,-0.26781,0.97838
240.311,29.90199,2.36934,-0.27067,0.97807
240.911,29.95903,2.36367,-0.275,0.97777
241.511,30.016,2.35497,-0.2769,0.97747
242.111,30.0731,2.34684,-0.28003,0.97716
242.711,30.13012,2.35788,-0.2819,0.97686
243.311,30.1871,2.34154,-0.28479,0.97655
243.911,30.2443,2.34001,-0.28963,0.97625
244.511,30.30142,2.33608,-0.2929,0.97595
245.111,30.3587,2.33445,-0.2967,0.97564
245.711,30.4159,2.35264,-0.30016,0.97534
246.311,30.473,2.33911,-0.30297,0.97504
246.911,30.53015,2.3365,-0.30626,0.97473
247.511,30.5873,2.32737,-0.31009,0.97443
248.111,30.64456,2.33471,-0.31387,0.97412
248.711,30.70171,2.3332,-0.3157,0.97382
249.311,30.7589,2.33257,-0.3203,0.97352
249.911,30.816,2.33764,-0.32502,0.97321
250.511,30.8733,2.33157,-0.32676,0.97291
251.111,30.93065,2.33054,-0.33023,0.9726
251.711,30.98797,2.32714,-0.33346,0.9723
252.311,31.04515,2.3252,-0.33819,0.972
252.911,31.1024,2.31267,-0.34252,0.97169
253.511,31.1596,2.31233,-0.34635,0.97139
254.111,31.21695,2.30746,-0.34984,0.97108
254.711,31.2745,2.31407,-0.35362,0.97078
255.311,31.3317,2.30902,-0.35752,0.97047
255.911,31.38908,2.31128,-0.36155,0.97017
256.511,31.44643,2.31087,-0.36637,0.96986
257.111,31.50382,2.30767,-0.37017,0.96956
257.711,31.56121,2.31557,-0.37525,0.96926
258.311,31.61855,2.30894,-0.37882,0.96895
258.911,31.67561,2.30974,-0.3836,0.96865
259.511,31.73225,2.29982,-0.38871,0.96834
260.111,31.7895,2.29504,-0.39439,0.96804
260.711,31.84682,2.29868,-0.39824,0.96773
261.311,31.90462,2.29414,-0.40345,0.96743
261.911,31.96208,2.29903,-0.40745,0.96712
262.511,32.0194,2.27596,-0.41249,0.96682
263.111,32.07663,2.27799,-0.41616,0.96651
263.711,32.13381,2.28208,-0.42199,0.9662
264.311,32.19086,2.27543,-0.42849,0.9659
264.911,32.24835,2.27618,-0.43301,0.96559
265.511,32.30565,2.26464,-0.43897,0.96529
266.111,32.36345,2.2706,-0.44543,0.96498
266.711,32.4208,2.25413,-0.45122,0.96468
267.311,32.478,2.24998,-0.45813,0.96437
267.911,32.5354,2.25141,-0.46354,0.96407
268.511,32.59255,2.24508,-0.46941,0.96376
269.111,32.64973,2.24971,-0.47623,0.96345
269.711,32.707,2.24088,-0.48223,0.96315
270.311,32.7643,2.23231,-0.49005,0.96284
270.911,32.8217,2.23435,-0.49702,0.96254
271.511,32.87894,2.21863,-0.50535,0.96223
272.111,32.93629,2.21455,-0.51206,0.96192
272.711,32.99354,2.21022,-0.5185,0.96162
273.311,33.0509,2.19778,-0.52538,0.96131
273.911,33.10828,2.19142,-0.53425,0.961
274.511,33.16543,2.1885,-0.54053,0.9607
275.111,33.2227,2.16404,-0.54915,0.96039
275.711,33.27987,2.15029,-0.55785,0.96008
276.311,33.33712,2.14183,-0.56539,0.95978
276.911,33.39443,2.1451,-0.57322,0.95947
277.511,33.4517,2.11991,-0.58219,0.95916
278.111,33.50892,2.10424,-0.5888,0.95886
278.711,33.56607,2.08734,-0.5976,0.95855
279.311,33.62307,2.07299,-0.60648,0.95824
279.911,33.68014,2.05715,-0.61624,0.95794
280.511,33.7374,2.03438,-0.6248,0.95763
281.111,33.79452,2.02412,-0.63351,0.95732
281.711,33.8519,2.00615,-0.64289,0.95701
282.311,33.90941,1.98632,-0.65314,0.95671
282.911,33.96683,1.96635,-0.6609,0.9564
283.511,34.0246,1.95346,-0.67084,0.95609
284.111,34.08194,1.92263,-0.68107,0.95578
284.711,34.13937,1.9096,-0.68949,0.95547
285.311,34.19661,1.88477,-0.6999,0.95517
285.911,34.25401,1.87208,-0.70911,0.95486
286.511,34.31157,1.84836,-0.71855,0.95455
287.111,34.369,1.82819,-0.72918,0.95424
287.711,34.42648,1.80039,-0.73946,0.95393
288.311,34.484,1.77601,-0.74865,0.95363
288.911,34.54163,1.76507,-0.75921,0.95332
289.511,34.59928,1.73731,-0.7703,0.95301
290.111,34.65683,1.70397,-0.78025,0.9527
290.711,34.71413,1.68118,-0.7911,0.95239
291.311,34.77169,1.65837,-0.80237,0.95208
291.911,34.82914,1.64434,-0.81261,0.95177
292.511,34.88664,1.6165,-0.82397,0.95146
293.111,34.94461,1.60235,-0.83453,0.95116
293.711,35.0022,1.58046,-0.84492,0.95085
294.311,35.0599,1.55473,-0.85565,0.95054
294.911,35.11755,1.53571,-0.86694,0.95023
295.511,35.17518,1.52063,-0.87818,0.94992
296.111,35.23285,1.49662,-0.88876,0.94961
296.711,35.2907,1.48516,-0.90025,0.9493
297.311,35.34839,1.46655,-0.91298,0.94899
297.911,35.40616,1.45703,-0.92444,0.94868
298.511,35.46387,1.44911,-0.93497,0.94837
299.111,35.52146,1.42661,-0.94697,0.94806
299.711,35.57904,1.39924,-0.95924,0.94775
300.311,35.63647,1.38494,-0.97167,0.94744
300.911,35.69386,1.37562,-0.98304,0.94713
301.511,35.75135,1.37412,-0.99521,0.94682
302.111,35.80903,1.36211,-1.00669,0.94651
302.711,35.8665,1.35315,-1.01897,0.9462
303.311,35.9238,1.34905,-1.03064,0.94588
303.911,35.98124,1.34389,-1.04167,0.94557
304.511,36.0384,1.3286,-1.0539,0.94526
305.111,36.0958,1.3253,-1.06868,0.94495
305.711,36.15333,1.31318,-1.08097,0.94464
306.311,36.2108,1.31573,-1.09313,0.94433
306.911,36.26833,1.30966,-1.10553,0.94402
307.511,36.32584,1.30245,-1.1183,0.94371
308.111,36.3831,1.3062,-1.13172,0.94339
308.711,36.4405,1.30679,-1.14452,0.94308
309.311,36.4978,1.29734,-1.15796,0.94277
309.911,36.55546,1.28863,-1.17168,0.94246
310.511,36.6131,1.27854,-1.18474,0.94215
311.111,36.67064,1.28462,-1.19769,0.94183
311.711,36.72828,1.29395,-1.20978,0.94152
312.311,36.78587,1.28681,-1.22491,0.94121
312.911,36.84325,1.2841,-1.23844,0.9409
313.511,36.90078,1.2937,-1.25305,0.94058
314.111,36.95812,1.28125,-1.2662,0.94027
314.711,37.01567,1.28714,-1.28029,0.93996
315.311,37.07315,1.29073,-1.29468,0.93964
315.911,37.13073,1.29204,-1.30784,0.93933
316.511,37.18823,1.29134,-1.32204,0.93902
317.111,37.2457,1.29176,-1.33599,0.9387
317.711,37.3034,1.30927,-1.35099,0.93839
318.311,37.3611,1.2973,-1.36714,0.93808
318.911,37.4188,1.30414,-1.38311,0.93776
319.511,37.47648,1.30052,-1.39758,0.93745
320.111,37.5342,1.31239,-1.41296,0.93713
320.711,37.5918,1.31755,-1.42903,0.93682
321.311,37.64938,1.31429,-1.44265,0.93651
321.911,37.70706,1.31851,-1.45788,0.93619
322.511,37.76457,1.3253,-1.47379,0.93588
323.111,37.8222,1.33035,-1.49043,0.93556
323.711,37.87989,1.33215,-1.50695,0.93525
324.311,37.9376,1.34087,-1.52326,0.93493
324.911,37.99536,1.33371,-1.53938,0.93462
325.511,38.05305,1.34427,-1.55713,0.9343
326.111,38.11084,1.33754,-1.57445,0.93399
326.711,38.16858,1.34567,-1.5887,0.93367
327.311,38.22592,1.34543,-1.6073,0.93335
327.911,38.2836,1.34691,-1.62491,0.93304
328.511,38.3412,1.34664,-1.64278,0.93272
329.111,38.39905,1.34403,-1.66128,0.93241
329.711,38.45718,1.35352,-1.67942,0.93209
330.311,38.51512,1.34259,-1.69696,0.93177
330.911,38.57314,1.34273,-1.71346,0.93146
331.511,38.631,1.35165,-1.73191,0.93114
332.111,38.68906,1.34177,-1.74952,0.93082
332.711,38.74709,1.34815,-1.77084,0.93051
333.311,38.8051,1.34317,-1.78889,0.93019
333.911,38.86327,1.33474,-1.80852,0.92987
334.511,38.9212,1.33878,-1.82747,0.92955
335.111,38.97878,1.33657,-1.8464,0.92924
335.711,39.03672,1.33998,-1.86583,0.92892
336.311,39.09472,1.33637,-1.88393,0.9286
336.911,39.15286,1.33242,-1.90463,0.92828
337.511,39.21094,1.32896,-1.92446,0.92797
338.111,39.26886,1.32929,-1.94434,0.92765
338.711,39.32662,1.32314,-1.96397,0.92733
339.311,39.38456,1.31455,-1.98489,0.92701
339.911,39.44269,1.30876,-2.00407,0.92669
340.511,39.50071,1.30507,-2.02212,0.92637
341.111,39.5587,1.30115,-2.04199,0.92605
341.711,39.61676,1.28304,-2.06345,0.92573
342.311,39.67475,1.28088,-2.08409,0.92542
342.911,39.7327,1.25971,-2.10295,0.9251
343.511,39.79071,1.25253,-2.12326,0.92478
344.111,39.84876,1.23983,-2.14251,0.92446
344.711,39.90665,1.22551,-2.16258,0.92414
345.311,39.96464,1.21305,-2.18241,0.92382
345.911,40.02265,1.19994,-2.20397,0.9235
346.511,40.08057,1.17753,-2.22283,0.92318
347.111,40.13855,1.16304,-2.24196,0.92286
347.711,40.19647,1.14371,-2.26241,0.92253
348.311,40.25428,1.11772,-2.28148,0.92221
348.911,40.3124,1.08552,-2.3009,0.92189
349.511,40.37019,1.06447,-2.31959,0.92157
350.111,40.4285,1.03304,-2.33845,0.92125
350.711,40.48659,1.00866,-2.35677,0.92093
351.311,40.54483,0.98671,-2.3747,0.92061
351.911,40.6029,0.95422,-2.39323,0.92028
352.511,40.66101,0.92004,-2.41095,0.91996
353.111,40.7191,0.88508,-2.42913,0.91964
353.711,40.7772,0.84533,-2.4441,0.91932
354.311,40.8352,0.808,-2.46085,0.919
354.911,40.89338,0.77373,-2.47673,0.91867
355.511,40.9514,0.72807,-2.49403,0.91835
356.111,41.00938,0.70311,-2.50856,0.91803
356.711,41.06766,0.6646,-2.52349,0.9177
357.311,41.1257,0.62348,-2.53528,0.91738
357.911,41.18395,0.58692,-2.54831,0.91706
358.511,41.24179,0.55998,-2.56076,0.91673
359.111,41.29971,0.50705,-2.57251,0.91641
359.711,41.35771,0.46347,-2.58331,0.91608
360.311,41.4159,0.43275,-2.59473,0.91576
360.911,41.47405,0.40002,-2.60421,0.91544
361.511,41.5322,0.36911,-2.61375,0.91511
362.111,41.59017,0.32938,-2.62119,0.91479
362.711,41.64825,0.3077,-2.62979,0.91446
363.311,41.70632,0.28109,-2.63568,0.91414
363.911,41.7644,0.2455,-2.64209,0.91381
364.511,41.82241,0.22612,-2.64709,0.91349
365.111,41.88048,0.20285,-2.65354,0.91316
365.711,41.93851,0.1832,-2.65874,0.91283
366.311,41.99662,0.17369,-2.6621,0.91251
366.911,42.0548,0.14921,-2.66693,0.91218
367.511,42.11291,0.13614,-2.67071,0.91186
368.111,42.17111,0.12087,-2.67379,0.91153
368.711,42.2294,0.10543,-2.67715,0.9112
369.311,42.2876,0.1002,-2.68203,0.91088
369.911,42.34561,0.09277512,-2.68526,0.91055
370.511,42.40379,0.073057,-2.68862,0.91022
371.111,42.46204,0.07735858,-2.69287,0.90989
371.711,42.52044,0.06446566,-2.69586,0.90957
372.311,42.579,0.05642111,-2.69888,0.90924
372.911,42.6372,0.05064649,-2.70186,0.90891
373.511,42.69552,0.03300401,-2.70316,0.90858
374.111,42.75399,0.02684523,-2.70598,0.90825
374.711,42.81234,0.01057145,-2.70825,0.90792
375.311,42.8707,0.00367923,-2.71106,0.9076
375.911,42.9291,0.008467294,-2.71541,0.90727
376.511,42.98752,-0.01096654,-2.71728,0.90694
377.111,43.04612,-0.006897183,-2.71889,0.90661
377.711,43.10479,-0.01649235,-2.72261,0.90628
378.311,43.1634,-0.01698234,-2.72562,0.90595
378.911,43.22214,-0.02119733,-2.72821,0.90562
379.511,43.28035,-0.04034743,-2.72954,0.90529
380.111,43.339,-0.03958205,-2.73228,0.90496
380.711,43.39757,-0.05362434,-2.7342,0.90463
381.311,43.45628,-0.05117375,-2.7376,0.9043
381.911,43.51484,-0.05403578,-2.73996,0.90397
382.511,43.57315,-0.06465422,-2.7427,0.90363
383.111,43.63155,-0.06807431,-2.74339,0.9033
383.711,43.69008,-0.06429285,-2.74634,0.90297
384.311,43.74845,-0.06638874,-2.74832,0.90264
384.911,43.8072,-0.07250641,-2.74918,0.90231
385.511,43.86546,-0.08113387,-2.75298,0.90198
386.111,43.92406,-0.07927511,-2.75453,0.90164
386.711,43.98243,-0.08373544,-2.75683,0.90131
387.311,44.04081,-0.08559461,-2.75856,0.90098
387.911,44.09942,-0.09201007,-2.76135,0.90065
388.511,44.15762,-0.09924497,-2.76279,0.90031
389.111,44.21627,-0.10135,-2.76541,0.89998
389.711,44.27468,-0.09879109,-2.76696,0.89964
390.311,44.33312,-0.10281,-2.76884,0.89931
390.911,44.392,-0.11024,-2.77143,0.89898
391.511,44.45064,-0.10612,-2.77275,0.89864
392.111,44.50913,-0.1042,-2.77519,0.89831
392.711,44.56725,-0.1065,-2.77702,0.89797
393.311,44.62555,-0.11516,-2.77833,0.89764
393.911,44.68424,-0.11857,-2.78147,0.8973
394.511,44.74303,-0.12304,-2.78351,0.89697
395.111,44.80187,-0.12989,-2.78534,0.89663
395.711,44.86035,-0.12725,-2.78756,0.8963
396.311,44.91887,-0.1253,-2.78757,0.89596
396.911,44.97728,-0.12994,-2.79019,0.89562
397.511,45.03588,-0.14591,-2.79171,0.89529
398.111,45.09418,-0.14127,-2.7931,0.89495
398.711,45.1524,-0.13424,-2.7958,0.89462
399.311,45.21083,-0.13535,-2.79711,0.89428
399.911,45.26948,-0.14675,-2.80005,0.89394
400.511,45.3282,-0.15121,-2.80139,0.8936
401.111,45.3872,-0.15028,-2.80277,0.89327
401.711,45.44593,-0.14244,-2.80408,0.89293
402.311,45.50458,-0.1593,-2.80668,0.89259
402.911,45.5633,-0.14691,-2.80821,0.89225
403.511,45.62189,-0.15076,-2.81007,0.89191
404.111,45.6804,-0.14439,-2.8125,0.89157
404.711,45.73888,-0.15109,-2.81478,0.89124
405.311,45.7973,-0.14566,-2.8173,0.8909
405.911,45.8559,-0.14432,-2.81879,0.89056
406.511,45.91446,-0.14034,-2.82005,0.89022
407.111,45.9731,-0.14338,-2.82236,0.88988
407.711,46.03175,-0.13496,-2.82413,0.88954
408.311,46.09025,-0.14415,-2.82509,0.8892
408.911,46.14878,-0.15037,-2.82537,0.88886
409.511,46.20735,-0.14911,-2.82671,0.88851
410.111,46.2661,-0.14389,-2.82963,0.88817
410.711,46.32481,-0.13686,-2.83069,0.88783
411.311,46.3836,-0.1398,-2.83328,0.88749
411.911,46.44218,-0.14669,-2.83364,0.88715
412.511,46.50098,-0.13664,-2.83495,0.88681
413.111,46.55916,-0.14605,-2.83627,0.88646
413.711,46.61788,-0.13777,-2.83754,0.88612
414.311,46.67644,-0.12899,-2.84016,0.88578
414.911,46.73515,-0.12609,-2.84158,0.88544
415.511,46.79416,-0.12497,-2.84286,0.88509
416.111,46.85283,-0.1348,-2.84439,0.88475
416.711,46.91147,-0.12576,-2.84701,0.88441
417.311,46.97011,-0.12508,-2.84767,0.88406
417.911,47.02868,-0.11793,-2.84898,0.88372
418.511,47.08724,-0.12975,-2.85034,0.88337
419.111,47.146,-0.11884,-2.85172,0.88303
419.711,47.20463,-0.11867,-2.85418,0.88268
420.311,47.2633,-0.12354,-2.8552,0.88234
420.911,47.32222,-0.11417,-2.85605,0.88199
421.511,47.38095,-0.11419,-2.85764,0.88165
422.111,47.43927,-0.10974,-2.8603,0.8813
422.711,47.49793,-0.09923701,-2.86091,0.88096
423.311,47.5566,-0.09872731,-2.86258,0.88061
423.911,47.6152,-0.09212676,-2.86326,0.88026
424.511,47.6741,-0.09643626,-2.86449,0.87992
425.111,47.7328,-0.08619189,-2.866,0.87957
425.711,47.79155,-0.08676963,-2.86731,0.87922
426.311,47.8507,-0.07373297,-2.86996,0.87888
426.911,47.90954,-0.06972816,-2.8726,0.87853
427.511,47.9684,-0.07004158,-2.87391,0.87818
428.111,48.02734,-0.05750986,-2.8739,0.87783
428.711,48.08623,-0.04991915,-2.87519,0.87748
429.311,48.14503,-0.0537633,-2.87652,0.87713
429.911,48.20405,-0.04541312,-2.87819,0.87679
430.511,48.26282,-0.04674489,-2.87979,0.87644
431.111,48.32165,-0.05307861,-2.88113,0.87609
431.711,48.3805,-0.03934069,-2.88217,0.87574
432.311,48.43954,-0.0358238,-2.88388,0.87539
432.911,48.4985,-0.04262615,-2.88512,0.87504
433.511,48.55761,-0.0388889,-2.88642,0.87469
434.111,48.61631,-0.02693394,-2.88843,0.87434
434.711,48.67519,-0.02471525,-2.88915,0.87399
435.311,48.73397,-0.01515694,-2.89045,0.87363
435.911,48.79282,-0.00842739,-2.89177,0.87328
436.511,48.8516,-0.0193802,-2.89175,0.87293
437.111,48.9106,-0.01545231,-2.89368,0.87258
437.711,48.9694,-0.00275376,-2.89463,0.87223
438.311,49.0283,-0.00263551,-2.89593,0.87187
438.911,49.0871,-0.002283676,-2.89787,0.87152
439.511,49.14586,-0.003611482,-2.89987,0.87117
440.111,49.20467,0.01546696,-2.90125,0.87081
440.711,49.2636,0.01132541,-2.90241,0.87046
441.311,49.3226,0.02187762,-2.90388,0.87011
441.911,49.3814,0.01265507,-2.90646,0.86975
442.511,49.4402,0.024432,-2.90669,0.8694
443.111,49.49905,0.01959743,-2.90754,0.86904
443.711,49.55803,0.0295555,-2.9089,0.86869
444.311,49.61698,0.03781706,-2.90919,0.86833
444.911,49.67584,0.03745832,-2.91138,0.86798
445.511,49.73468,0.03892622,-2.91309,0.86762
446.111,49.79334,0.03653244,-2.91319,0.86727
446.711,49.85226,0.03490376,-2.91561,0.86691
447.311,49.9111,0.03683361,-2.91684,0.86655
447.911,49.96963,0.05017193,-2.91677,0.8662
448.511,50.02848,0.03752542,-2.9181,0.86584
449.111,50.08726,0.04456398,-2.91941,0.86548
449.711,50.14634,0.0469807,-2.91931,0.86513
450.311,50.20551,0.04834017,-2.92296,0.86477
450.911,50.26471,0.05138673,-2.92333,0.86441
451.511,50.3237,0.05956101,-2.92338,0.86405
452.111,50.38275,0.05990109,-2.92464,0.86369
452.711,50.44168,0.06048416,-2.92599,0.86333
453.311,50.50078,0.05548105,-2.92597,0.86298
453.911,50.5597,0.0556863,-2.92761,0.86262
454.511,50.6188,0.06895319,-2.92994,0.86226
455.111,50.67795,0.06195311,-2.93046,0.8619
455.711,50.73709,0.0709779,-2.92984,0.86154
456.311,50.7964,0.06541781,-2.93187,0.86118
456.911,50.85552,0.0664144,-2.9338,0.86081
457.511,50.9147,0.07704843,-2.93518,0.86045
458.111,50.97378,0.08835019,-2.93542,0.86009
458.711,51.03297,0.08568915,-2.93553,0.85973
459.311,51.092,0.08610054,-2.93684,0.85937
459.911,51.15132,0.07902648,-2.93816,0.85901
460.511,51.21054,0.08313224,-2.93854,0.85864
461.111,51.2697,0.07845931,-2.93946,0.85828
461.711,51.32867,0.08320359,-2.94102,0.85792
462.311,51.38758,0.08107993,-2.94257,0.85756
462.911,51.44679,0.08379399,-2.94355,0.85719
463.511,51.50598,0.08962151,-2.94477,0.85683
464.111,51.56539,0.08966449,-2.94642,0.85646
464.711,51.62455,0.09060456,-2.94673,0.8561
465.311,51.68383,0.080651,-2.94804,0.85573
465.911,51.74295,0.08355928,-2.94937,0.85537
466.511,51.8022,0.09262111,-2.95067,0.855
467.111,51.8615,0.09255693,-2.95198,0.85464
467.711,51.9208,0.08854306,-2.95269,0.85427
468.311,51.98033,0.09873008,-2.95366,0.85391
468.911,52.03975,0.08583081,-2.95429,0.85354
469.511,52.09917,0.0943359,-2.9543,0.85317
470.111,52.15855,0.09798655,-2.9556,0.85281
470.711,52.21772,0.10011,-2.95692,0.85244
471.311,52.27713,0.08756308,-2.95691,0.85207
471.911,52.33658,0.08359578,-2.9582,0.8517
472.511,52.39608,0.08581976,-2.95837,0.85134
473.111,52.45542,0.08321926,-2.95855,0.85097
473.711,52.5147,0.09291129,-2.95979,0.8506
474.311,52.57408,0.09551397,-2.96121,0.85023
474.911,52.63324,0.09751975,-2.96251,0.84986
475.511,52.69265,0.10651,-2.96251,0.84949
476.111,52.7521,0.08556737,-2.96384,0.84912
476.711,52.81155,0.10285,-2.96514,0.84875
477.311,52.87112,0.10181,-2.96646,0.84838
477.911,52.9303,0.11001,-2.96647,0.84801
478.511,52.98945,0.10262,-2.96777,0.84764
479.111,53.0486,0.10735,-2.96909,0.84727
479.711,53.108,0.10985,-2.96909,0.8469
480.311,53.16724,0.10563,-2.97046,0.84653
480.911,53.2266,0.11037,-2.97078,0.84615
481.511,53.2858,0.1039,-2.97173,0.84578
482.111,53.3451,0.11322,-2.97311,0.84541
482.711,53.40436,0.1161,-2.97573,0.84504
483.311,53.4637,0.12131,-2.97537,0.84466
483.911,53.52304,0.11809,-2.97449,0.84429
484.511,53.5823,0.11991,-2.97682,0.84391
485.111,53.64173,0.11777,-2.97809,0.84354
485.711,53.70098,0.11969,-2.97829,0.84317
486.311,53.76021,0.12061,-2.97962,0.84279
486.911,53.8194,0.1287,-2.9796,0.84242
487.511,53.87837,0.13322,-2.98093,0.84204
488.111,53.93747,0.12794,-2.98225,0.84166
488.711,53.99674,0.14337,-2.98224,0.84129
489.311,54.0561,0.15691,-2.98358,0.84091
489.911,54.1154,0.17023,-2.98489,0.84054
490.511,54.1746,0.18022,-2.98488,0.84016
491.111,54.2337,0.18289,-2.98612,0.83978
491.711,54.293,0.19888,-2.98752,0.8394
492.311,54.35241,0.19583,-2.98881,0.83903
492.911,54.41185,0.2104,-2.98934,0.83865
493.511,54.47135,0.21459,-2.98917,0.83827
494.111,54.5306,0.20743,-2.99021,0.83789
494.711,54.5899,0.22692,-2.9918,0.83751
495.311,54.64905,0.21574,-2.9918,0.83713
495.911,54.7083,0.23365,-2.99312,0.83675
496.511,54.7677,0.2316,-2.99444,0.83637
497.111,54.8269,0.23698,-2.99511,0.83599
497.711,54.8861,0.23077,-2.99565,0.83561
498.311,54.94536,0.23572,-2.99707,0.83523
498.911,55.00476,0.24016,-2.99707,0.83485
499.511,55.0642,0.23871,-2.99837,0.83447
500.111,55.12373,0.24064,-2.99838,0.83409
500.711,55.18322,0.25416,-2.99971,0.83371
501.311,55.24256,0.26074,-3.00028,0.83332
501.911,55.3019,0.24788,-3.00102,0.83294
502.511,55.36119,0.24586,-3.00233,0.83256
503.111,55.4206,0.2576,-3.00368,0.83217
503.711,55.47981,0.26223,-3.00365,0.83179
504.311,55.53917,0.26718,-3.00506,0.83141
504.911,55.59831,0.27014,-3.00639,0.83102
505.511,55.6577,0.27397,-3.00606,0.83064
506.111,55.71719,0.26777,-3.00606,0.83025
506.711,55.7765,0.26867,-3.00736,0.82987
507.311,55.83616,0.27523,-3.00738,0.82948
507.911,55.8955,0.27681,-3.009,0.8291
508.511,55.955,0.28459,-3.01001,0.82871
509.111,56.0145,0.29475,-3.00873,0.82832
509.711,56.0739,0.2933,-3.01001,0.82794
510.311,56.1333,0.28413,-3.01016,0.82755
510.911,56.1927,0.28249,-3.01192,0.82716
511.511,56.2523,0.28412,-3.01264,0.82678
512.111,56.31179,0.27424,-3.01264,0.82639
512.711,56.37129,0.29096,-3.01393,0.826
513.311,56.43068,0.27232,-3.01461,0.82561
513.911,56.49025,0.28555,-3.01461,0.82522
514.511,56.5497,0.2914,-3.01527,0.82483
515.111,56.60925,0.28084,-3.01619,0.82444
515.711,56.6688,0.28483,-3.01659,0.82405
516.311,56.7285,0.2784,-3.01791,0.82366
516.911,56.78816,0.29269,-3.01656,0.82327
517.511,56.848,0.27969,-3.01791,0.82288
518.111,56.90778,0.28282,-3.0179,0.82249
518.711,56.9676,0.2918,-3.01923,0.8221
519.311,57.02745,0.27783,-3.02036,0.82171
519.911,57.087,0.28383,-3.02185,0.82132
520.511,57.14676,0.27767,-3.02122,0.82092
521.111,57.20645,0.2859,-3.02186,0.82053
521.711,57.26627,0.27882,-3.02321,0.82014
522.311,57.32603,0.2862,-3.02317,0.81975
522.911,57.3858,0.28947,-3.02312,0.81935
523.511,57.4456,0.27305,-3.02449,0.81896
524.111,57.5051,0.28145,-3.02449,0.81856
524.711,57.56462,0.28216,-3.0258,0.81817
525.311,57.6241,0.27573,-3.02713,0.81777
525.911,57.68371,0.28486,-3.02712,0.81738
526.511,57.74345,0.26137,-3.02714,0.81698
527.111,57.80307,0.2611,-3.02779,0.81659
527.711,57.8629,0.24249,-3.02919,0.81619
528.311,57.9226,0.24188,-3.0291,0.8158
528.911,57.98234,0.22712,-3.0291,0.8154
529.511,58.04218,0.2232,-3.02973,0.815
530.111,58.10142,0.218,-3.03046,0.8146
530.711,58.161,0.20765,-3.03041,0.81421
531.311,58.22042,0.20537,-3.03076,0.81381
531.911,58.28001,0.21667,-3.03107,0.81341
532.511,58.3398,0.20262,-3.03303,0.81301
533.111,58.39965,0.19804,-3.0337,0.81261
533.711,58.4594,0.20717,-3.03505,0.81221
534.311,58.519,0.20247,-3.0337,0.81181
534.911,58.57871,0.18181,-3.0337,0.81141
535.511,58.63834,0.18352,-3.03502,0.81101
536.111,58.69771,0.1738,-3.03632,0.81061
536.711,58.7573,0.17502,-3.03689,0.81021
537.311,58.81678,0.1868,-3.03831,0.80981
537.911,58.8766,0.16615,-3.03831,0.80941
538.511,58.9367,0.16248,-3.03969,0.80901
539.111,58.99675,0.17743,-3.03963,0.8086
539.711,59.05665,0.17088,-3.04094,0.8082
540.311,59.1163,0.15179,-3.04094,0.8078
540.911,59.1759,0.16064,-3.04231,0.80739
541.511,59.2355,0.15836,-3.04217,0.80699
542.111,59.295,0.1558,-3.04258,0.80659
542.711,59.35473,0.15451,-3.04258,0.80618
543.311,59.41443,0.14619,-3.04395,0.80578
543.911,59.47415,0.14614,-3.04392,0.80537
544.511,59.5339,0.14893,-3.04522,0.80497
545.111,59.59345,0.1426,-3.04521,0.80456
545.711,59.65316,0.13623,-3.04625,0.80416
546.311,59.713,0.13126,-3.0462,0.80375
546.911,59.77279,0.13414,-3.04757,0.80334
547.511,59.8326,0.1266,-3.04752,0.80294
548.111,59.8923,0.12519,-3.04882,0.80253
548.711,59.9521,0.12271,-3.04884,0.80212
549.311,60.0118,0.13028,-3.05016,0.80171
549.911,60.07147,0.11499,-3.05015,0.80131
550.511,60.1313,0.11882,-3.0515,0.8009
551.111,60.1911,0.13353,-3.05148,0.80049
551.711,60.25121,0.13242,-3.05081,0.80008
552.311,60.31114,0.11798,-3.05217,0.79967
552.911,60.3711,0.12072,-3.05284,0.79926
553.511,60.43099,0.12037,-3.05385,0.79885
554.111,60.4909,0.11739,-3.05337,0.79844
554.711,60.55084,0.11299,-3.05311,0.79803
555.311,60.6106,0.11478,-3.05443,0.79762
555.911,60.6703,0.10234,-3.05443,0.79721
556.511,60.73,0.09384204,-3.05574,0.79679
557.111,60.78985,0.09873126,-3.05574,0.79638
557.711,60.8499,0.08737524,-3.05706,0.79597
558.311,60.90971,0.10275,-3.0577,0.79556
558.911,60.96977,0.09880944,-3.05707,0.79514
559.511,61.02956,0.08747753,-3.05707,0.79473
560.111,61.08942,0.09607076,-3.05835,0.79432
560.711,61.14904,0.09894857,-3.05937,0.7939
561.311,61.2089,0.0826342,-3.05937,0.79349
561.911,61.26894,0.08599104,-3.05937,0.79307
562.511,61.32901,0.09002086,-3.05896,0.79266
563.111,61.38916,0.08812435,-3.05937,0.79224
563.711,61.44922,0.09079385,-3.06068,0.79183
564.311,61.5092,0.08225079,-3.06135,0.79141
564.911,61.5693,0.0790003,-3.06134,0.79099
565.511,61.6293,0.07831625,-3.06134,0.79058
566.111,61.68946,0.06594301,-3.062,0.79016
566.711,61.7495,0.08208958,-3.06295,0.78974
567.311,61.8095,0.08035097,-3.06332,0.78932
567.911,61.86956,0.0837878,-3.06462,0.78891
568.511,61.92957,0.07663883,-3.06397,0.78849
569.111,61.98949,0.07919845,-3.06397,0.78807
569.711,62.04931,0.06955908,-3.0653,0.78765
570.311,62.1089,0.07236991,-3.06529,0.78723
570.911,62.1687,0.06905974,-3.06631,0.78681
571.511,62.22877,0.07330958,-3.06494,0.78639
572.111,62.289,0.0788888,-3.0666,0.78597
572.711,62.349,0.0794346,-3.068,0.78555
573.311,62.4088,0.06686289,-3.06935,0.78513
573.911,62.46813,0.07647201,-3.06935,0.78471
574.511,62.52794,0.07213997,-3.06935,0.78428
575.111,62.5877,0.07994234,-3.06882,0.78386
575.711,62.6475,0.07829469,-3.07003,0.78344
576.311,62.70796,0.07178816,-3.07134,0.78302
576.911,62.76784,0.07612533,-3.07132,0.78259
577.511,62.82804,0.07347234,-3.07134,0.78217
578.111,62.8877,0.06572757,-3.07264,0.78175
578.711,62.9477,0.06701549,-3.07264,0.78132
579.311,63.00765,0.07298103,-3.07264,0.7809
579.911,63.06771,0.06068103,-3.07377,0.78047
580.511,63.1276,0.05881373,-3.07393,0.78005
581.111,63.1874,0.05457747,-3.07264,0.77962
581.711,63.2475,0.05017,-3.07309,0.7792
582.311,63.3074,0.05084934,-3.07396,0.77877
582.911,63.3677,0.06074104,-3.07527,0.77834
583.511,63.42782,0.05947067,-3.07527,0.77792
584.111,63.48785,0.05102694,-3.07527,0.77749
584.711,63.54805,0.04678013,-3.07526,0.77706
585.311,63.6083,0.05100457,-3.07659,0.77663
585.911,63.6688,0.05274191,-3.07846,0.77621
586.511,63.7293,0.05744029,-3.07889,0.77578
587.111,63.78982,0.05916866,-3.07889,0.77535
587.711,63.8503,0.05024007,-3.0802,0.77492
588.311,63.91055,0.0552655,-3.07958,0.77449
588.911,63.9711,0.05281726,-3.08021,0.77406
589.511,64.03138,0.049562,-3.08015,0.77363
590.111,64.0918,0.04885769,-3.08022,0.7732
590.711,64.152,0.05032353,-3.08153,0.77277
591.311,64.2123,0.03531341,-3.08154,0.77234
591.911,64.27256,0.04335986,-3.08284,0.77191
592.511,64.33279,0.04044565,-3.08415,0.77147
593.111,64.39291,0.0426152,-3.08348,0.77104
593.711,64.45317,0.04766759,-3.08416,0.77061
594.311,64.5134,0.03906347,-3.08416,0.77018
594.911,64.57372,0.02667637,-3.08557,0.76974
595.511,64.63388,0.03117021,-3.08547,0.76931
596.111,64.69404,0.02812329,-3.0841,0.76888
596.711,64.75421,0.022938,-3.08415,0.76844
597.311,64.81446,0.01133835,-3.08327,0.76801
597.911,64.87444,0.02108767,-3.08569,0.76757
598.511,64.9341,0.02490488,-3.08701,0.76714
599.111,64.9941,0.02613791,-3.08701,0.7667
599.711,65.05404,0.02001337,-3.08837,0.76627
600.311,65.11425,0.02122333,-3.08832,0.76583
600.911,65.1747,0.02717214,-3.08856,0.76539
601.511,65.23467,0.0275372,-3.08964,0.76496
602.111,65.2947,0.009537097,-3.08964,0.76452
602.711,65.35476,0.02831802,-3.08931,0.76408
603.311,65.41481,0.03045737,-3.09067,0.76364
603.911,65.4748,0.03367193,-3.09062,0.7632
604.511,65.53485,0.04010371,-3.08995,0.76277
605.111,65.59499,0.04135349,-3.09004,0.76233
605.711,65.65524,0.04121194,-3.08926,0.76189
606.311,65.71539,0.03419415,-3.09062,0.76145
606.911,65.77564,0.03329727,-3.09065,0.76101
607.511,65.83583,0.04699124,-3.09194,0.76057
608.111,65.89601,0.04366975,-3.09194,0.76013
608.711,65.95619,0.03481978,-3.09325,0.75969
609.311,66.01637,0.05035378,-3.09324,0.75925
609.911,66.07647,0.04250033,-3.09196,0.7588
610.511,66.1367,0.0359793,-3.09442,0.75836
611.111,66.19678,0.03679181,-3.09457,0.75792
611.711,66.25685,0.03426748,-3.09457,0.75748
612.311,66.31701,0.0321161,-3.09565,0.75703
612.911,66.37724,0.04424686,-3.09589,0.75659
613.511,66.4375,0.04941021,-3.09589,0.75615
614.111,66.49767,0.0368076,-3.09589,0.7557
614.711,66.55805,0.04224264,-3.0945,0.75526
615.311,66.6182,0.03631558,-3.09588,0.75481
615.911,66.67832,0.03455122,-3.09721,0.75437
616.511,66.73827,0.03013499,-3.09721,0.75392
617.111,66.7982,0.04254906,-3.09721,0.75348
617.711,66.85821,0.04629805,-3.09824,0.75303
618.311,66.91832,0.05350348,-3.09849,0.75259
618.911,66.9784,0.0527555,-3.09987,0.75214
619.511,67.03859,0.04817123,-3.09851,0.75169
620.111,67.0988,0.04971153,-3.09852,0.75125
620.711,67.15897,0.05865317,-3.09984,0.7508
621.311,67.2189,0.06163533,-3.10041,0.75035
621.911,67.27893,0.05948713,-3.10116,0.7499
622.511,67.3391,0.05858683,-3.10115,0.74945
623.111,67.3994,0.04660815,-3.10115,0.749
623.711,67.45982,0.04284667,-3.10247,0.74855
624.311,67.5201,0.03568749,-3.10247,0.74811
624.911,67.58017,0.04778123,-3.10247,0.74766
625.511,67.6404,0.05392443,-3.10379,0.74721
626.111,67.7008,0.05148816,-3.10379,0.74675
626.711,67.76126,0.0473531,-3.10379,0.7463
627.311,67.82169,0.05599279,-3.10428,0.74585
627.911,67.88199,0.05254662,-3.1051,0.7454
628.511,67.94226,0.05580726,-3.10512,0.74495
629.111,68.00262,0.06071206,-3.10642,0.7445
629.711,68.06305,0.06494572,-3.10642,0.74404
630.311,68.12357,0.05190409,-3.10513,0.74359
630.911,68.18421,0.05716551,-3.10651,0.74314
631.511,68.2444,0.04877305,-3.10682,0.74268
632.111,68.3048,0.05320862,-3.10898,0.74223
632.711,68.36514,0.06908162,-3.10799,0.74178
633.311,68.42564,0.06641714,-3.10867,0.74132
633.911,68.48647,0.05087222,-3.10906,0.74087
634.511,68.5471,0.05317908,-3.10906,0.74041
635.111,68.60783,0.05240311,-3.10906,0.73996
635.711,68.66848,0.04865801,-3.11026,0.7395
636.311,68.7289,0.0434925,-3.11037,0.73904
636.911,68.78964,0.04261823,-3.11169,0.73859
637.511,68.8505,0.05079977,-3.11103,0.73813
638.111,68.91139,0.03658825,-3.11201,0.73767
638.711,68.97251,0.03894318,-3.11235,0.73722
639.311,69.03356,0.03569133,-3.11304,0.73676
639.911,69.09421,0.02725894,-3.11498,0.7363
640.511,69.15513,0.02318828,-3.11497,0.73584
641.111,69.21606,0.02022632,-3.11497,0.73538
641.711,69.27722,0.01071663,-3.11629,0.73492
642.311,69.3386,0.01076185,-3.11494,0.73446
642.911,69.39949,0.008203854,-3.11487,0.734
643.511,69.46032,0.006438851,-3.11619,0.73354
644.111,69.52122,0.01657386,-3.11619,0.73308
644.711,69.58207,0.009770586,-3.11619,0.73262
645.311,69.64278,0.01848458,-3.11614,0.73216
645.911,69.70359,0.005088635,-3.1175,0.7317
646.511,69.76435,0.001046249,-3.11749,0.73124
647.111,69.82529,-0.002288084,-3.11882,0.73078
647.711,69.88597,-0.001059927,-3.11978,0.73031
648.311,69.94667,0.0054323,-3.11882,0.72985
648.911,70.0074,-0.002168718,-3.11881,0.72939
649.511,70.06801,-0.007788635,-3.11881,0.72892
650.111,70.12871,0.0001365302,-3.12015,0.72846
650.711,70.18935,0.006661443,-3.12143,0.728
651.311,70.25,-0.005256811,-3.12145,0.72753
651.911,70.3107,0.009905569,-3.12276,0.72707
652.511,70.37135,0.00872655,-3.12277,0.7266
653.111,70.43188,0.002397132,-3.12284,0.72614
653.711,70.49248,0.0073298,-3.1234,0.72567
654.311,70.55286,-0.003499443,-3.12145,0.72521
654.911,70.61301,-0.00194293,-3.12276,0.72474
655.511,70.67347,0.005983855,-3.12276,0.72427
656.111,70.73393,0.01192801,-3.12276,0.72381
656.711,70.79443,0.006528393,-3.12417,0.72334
657.311,70.855,0.01050329,-3.12408,0.72287
657.911,70.9153,0.01738171,-3.12408,0.7224
658.511,70.9754,0.01691538,-3.12408,0.72193
659.111,71.03545,0.006551304,-3.12457,0.72147
659.711,71.09581,0.02006883,-3.12409,0.721
660.311,71.1562,0.02729633,-3.12472,0.72053
660.911,71.21676,0.02760949,-3.126,0.72006
661.511,71.27731,0.02445059,-3.12605,0.71959
662.111,71.3377,0.04187903,-3.12605,0.71912
662.711,71.39811,0.03870899,-3.12605,0.71865
663.311,71.45852,0.03423156,-3.12606,0.71818
663.911,71.5189,0.04464517,-3.12638,0.71771
664.511,71.57915,0.04119107,-3.12507,0.71723
665.111,71.6395,0.04320229,-3.12507,0.71676
665.711,71.69966,0.04910263,-3.12507,0.71629
666.311,71.76001,0.04475689,-3.12408,0.71582
666.911,71.82034,0.04680682,-3.1254,0.71535
667.511,71.8806,0.05453074,-3.1254,0.71487
668.111,71.94088,0.05996747,-3.12671,0.7144
668.711,72.00102,0.05284086,-3.12671,0.71393
669.311,72.06124,0.0634858,-3.12671,0.71345
669.911,72.12136,0.05939496,-3.12911,0.71298
670.511,72.18172,0.06004551,-3.12935,0.7125
671.111,72.24209,0.06098859,-3.12935,0.71203
671.711,72.30265,0.04462096,-3.12935,0.71155
672.311,72.36307,0.05985297,-3.12929,0.71108
672.911,72.42353,0.05158868,-3.13067,0.7106
673.511,72.4839,0.05849056,-3.12935,0.71013
674.111,72.54439,0.05245428,-3.12974,0.70965
674.711,72.60503,0.05704474,-3.13068,0.70917
675.311,72.6657,0.05662759,-3.13078,0.7087
675.911,72.7262,0.0600067,-3.13106,0.70822
676.511,72.7868,0.05261338,-3.13033,0.70774
677.111,72.84734,0.05803844,-3.13077,0.70726
677.711,72.90777,0.07698342,-3.13165,0.70678
678.311,72.96846,0.07971944,-3.13289,0.70631
678.911,73.0291,0.07156667,-3.13428,0.70583
679.511,73.0898,0.08125014,-3.13429,0.70535
680.111,73.1507,0.08403149,-3.13296,0.70487
680.711,73.21133,0.07888967,-3.13296,0.70439
681.311,73.27212,0.09274562,-3.13344,0.70391
681.911,73.3329,0.07874451,-3.13297,0.70343
682.511,73.3938,0.07544771,-3.13297,0.70295
683.111,73.45451,0.08483816,-3.1332,0.70247
683.711,73.51514,0.07783124,-3.13429,0.70198
684.311,73.57591,0.08272849,-3.13429,0.7015
684.911,73.63672,0.09795602,-3.1356,0.70102
685.511,73.69759,0.08994843,-3.1356,0.70054
686.111,73.7585,0.0858566,-3.1356,0.70006
686.711,73.81906,0.09846357,-3.13626,0.69957
687.311,73.87971,0.09512319,-3.13724,0.69909
687.911,73.9405,0.09721111,-3.13757,0.69861
688.511,74.00146,0.08496299,-3.13759,0.69812
689.111,74.06228,0.10086,-3.13785,0.69764
689.711,74.12295,0.09645697,-3.13725,0.69715
690.311,74.18347,0.09551902,-3.13725,0.69667
690.911,74.24423,0.096712,-3.13756,0.69618
691.511,74.305,0.08743998,-3.13757,0.6957
692.111,74.36559,0.10153,-3.13757,0.69521
692.711,74.42612,0.11574,-3.13752,0.69473
693.311,74.48647,0.11815,-3.13884,0.69424
693.911,74.54688,0.09766546,-3.14021,0.69375
694.511,74.60713,0.11003,-3.1402,0.69327
695.111,74.66765,0.11812,-3.14152,0.69278
695.711,74.72814,0.11456,-3.14282,0.69229
696.311,74.7889,0.11713,-3.14282,0.6918
696.911,74.84963,0.12908,-3.14152,0.69132
697.511,74.91027,0.11708,-3.14152,0.69083
698.111,74.971,0.13092,-3.1402,0.69034
698.711,75.03148,0.11726,-3.1402,0.68985
699.311,75.0919,0.13123,-3.1402,0.68936
699.911,75.15258,0.12784,-3.14177,0.68887
700.511,75.2132,0.12668,-3.14284,0.68838
701.111,75.27376,0.12065,-3.1428,0.68789
701.711,75.33428,0.12242,-3.14416,0.6874
702.311,75.3947,0.13011,-3.14349,0.68691
702.911,75.4553,0.1162,-3.14317,0.68642
703.511,75.51597,0.13792,-3.14317,0.68593
704.111,75.5766,0.13536,-3.14317,0.68544
704.711,75.6374,0.12862,-3.14282,0.68495
705.311,75.6981,0.14193,-3.14414,0.68445
705.911,75.75865,0.13016,-3.14289,0.68396
706.511,75.81939,0.12315,-3.14284,0.68347
707.111,75.88008,0.13627,-3.14284,0.68297
707.711,75.94083,0.12264,-3.14415,0.68248
708.311,76.0017,0.12828,-3.14416,0.68199
708.911,76.06255,0.12235,-3.14416,0.68149
709.511,76.12331,0.14203,-3.14416,0.681
710.111,76.18431,0.1389,-3.14544,0.68051
710.711,76.2452,0.12391,-3.14547,0.68001
711.311,76.30641,0.13859,-3.14547,0.67952
711.911,76.36724,0.12245,-3.14547,0.67902
712.511,76.4282,0.13199,-3.14551,0.67852
713.111,76.48907,0.12629,-3.14284,0.67803
713.711,76.55033,0.12381,-3.14428,0.67753
714.311,76.61143,0.12938,-3.1469,0.67704
714.911,76.67246,0.14009,-3.14687,0.67654
715.511,76.73352,0.13763,-3.14656,0.67604
716.111,76.7945,0.12319,-3.14657,0.67555
716.711,76.85568,0.1238,-3.14654,0.67505
717.311,76.91665,0.14751,-3.14525,0.67455
717.911,76.97762,0.13499,-3.14525,0.67405
718.511,77.03851,0.14567,-3.14591,0.67355
719.111,77.09953,0.14198,-3.14591,0.67305
719.711,77.16068,0.13872,-3.14624,0.67256
720.311,77.22185,0.15294,-3.14685,0.67206
720.911,77.28308,0.13798,-3.14788,0.67156
721.511,77.34404,0.15032,-3.14788,0.67106
722.111,77.40508,0.1525,-3.14782,0.67056
722.711,77.46621,0.14749,-3.1469,0.67006
723.311,77.52727,0.15735,-3.14573,0.66956
723.911,77.58838,0.14216,-3.14745,0.66905
724.511,77.64941,0.14644,-3.14788,0.66855
725.111,77.71019,0.14141,-3.14788,0.66805
725.711,77.77102,0.1351,-3.14788,0.66755
726.311,77.8319,0.13852,-3.1492,0.66705
726.911,77.8927,0.13433,-3.1492,0.66655
727.511,77.95349,0.13273,-3.1492,0.66604
728.111,78.01428,0.12447,-3.14871,0.66554
728.711,78.07517,0.13509,-3.14791,0.66504
729.311,78.13596,0.12916,-3.14789,0.66453
729.911,78.19674,0.13741,-3.14827,0.66403
730.511,78.25758,0.13898,-3.15019,0.66353
731.111,78.31864,0.14502,-3.15013,0.66302
731.711,78.3796,0.13137,-3.15151,0.66252
732.311,78.44065,0.14203,-3.1515,0.66201
732.911,78.50157,0.12925,-3.1515,0.66151
733.511,78.56234,0.12543,-3.15147,0.661
734.111,78.62303,0.11822,-3.15052,0.6605
734.711,78.68386,0.12496,-3.15056,0.65999
735.311,78.7448,0.12845,-3.15183,0.65949
735.911,78.8056,0.12909,-3.15182,0.65898
736.511,78.86654,0.13163,-3.15315,0.65847
737.111,78.92738,0.12746,-3.15194,0.65797
737.711,78.98844,0.11942,-3.15183,0.65746
738.311,79.04941,0.13345,-3.15249,0.65695
738.911,79.11026,0.11536,-3.15249,0.65644
739.511,79.17109,0.12805,-3.1525,0.65594
740.111,79.23176,0.1159,-3.15124,0.65543
740.711,79.29265,0.13275,-3.15317,0.65492
741.311,79.35346,0.11888,-3.15348,0.65441
741.911,79.41418,0.12154,-3.15347,0.6539
742.511,79.47495,0.11004,-3.15249,0.65339
743.111,79.53573,0.11165,-3.15249,0.65288
743.711,79.59654,0.11832,-3.15211,0.65237
744.311,79.65736,0.1146,-3.15188,0.65186
744.911,79.71814,0.1026,-3.15184,0.65135
745.511,79.77883,0.10461,-3.15212,0.65084
746.111,79.83974,0.11357,-3.15248,0.65033
746.711,79.90048,0.11087,-3.15381,0.64982
747.311,79.96136,0.0965051,-3.15381,0.64931
747.611,79.9918,0.10994,-3.15381,0.64905