File: 01_Data/Composite_Deck_Board/STA/N2/10K_min/Composite_Deck_Board_STA_N2_10KData_210625_R1.csv
##Temp./Â°C,Time/min,Mass loss(subtr.2)/mg,DSC(subtr.2)/mW,Sensit./(uV/mW)
49.329,10.01,-0.00439,-0.0690973,0.61832
49.929,11.3963,-0.004962415,0.06314417,0.61864
50.529,11.7373,-0.00653431,0.15753,0.61896
51.129,11.97764,-0.004629727,0.22111,0.61927
51.729,12.17954,-0.005222964,0.29185,0.61959
52.329,12.35437,-0.006015375,0.33389,0.6199
52.929,12.51063,-0.004881589,0.37999,0.62022
53.529,12.65437,-0.005607253,0.43399,0.62053
54.129,12.7897,-0.0059433,0.46074,0.62084
54.729,12.9186,-0.00637566,0.49172,0.62115
55.329,13.04107,-0.00559557,0.53348,0.62145
55.929,13.1584,-0.005550746,0.56252,0.62176
56.529,13.2715,-0.006696424,0.58968,0.62207
57.129,13.3807,-0.006210251,0.61908,0.62237
57.729,13.48715,-0.005714734,0.63952,0.62267
58.329,13.5916,-0.00696636,0.65969,0.62298
58.929,13.6937,-0.005619315,0.68011,0.62328
59.529,13.7933,-0.00560916,0.68707,0.62358
60.129,13.8908,-0.005647328,0.71955,0.62387
60.729,13.9865,-0.0068867,0.72886,0.62417
61.329,14.0808,-0.00690543,0.7356,0.62447
61.929,14.17315,-0.006813866,0.76265,0.62476
62.529,14.2641,-0.006998159,0.77201,0.62505
63.129,14.35391,-0.006909681,0.77714,0.62534
63.729,14.4432,-0.006829809,0.78861,0.62563
64.329,14.5305,-0.006917159,0.79975,0.62592
64.929,14.61699,-0.00728165,0.82268,0.62621
65.529,14.70196,-0.00708724,0.83589,0.6265
66.129,14.78616,-0.008128547,0.83933,0.62678
66.729,14.86951,-0.006825659,0.85638,0.62707
67.329,14.95289,-0.00602927,0.87277,0.62735
67.929,15.03475,-0.007401975,0.883,0.62763
68.529,15.11589,-0.00703647,0.89721,0.62791
69.129,15.1961,-0.008127685,0.90716,0.62819
69.729,15.2755,-0.008057648,0.92823,0.62847
70.329,15.35431,-0.009480925,0.92957,0.62875
70.929,15.4324,-0.00706146,0.9466,0.62902
71.529,15.5096,-0.008023117,0.97587,0.6293
72.129,15.58584,-0.00801143,0.983,0.62957
72.729,15.66195,-0.009407416,0.9924,0.62984
73.329,15.73737,-0.008228201,1.00231,0.63011
73.929,15.8125,-0.008660628,1.01364,0.63038
74.529,15.88674,-0.00747833,1.02601,0.63065
75.129,15.9601,-0.008009966,1.04723,0.63091
75.729,16.03272,-0.008016949,1.03776,0.63118
76.329,16.10514,-0.008111958,1.04751,0.63144
76.929,16.17751,-0.01124249,1.06188,0.6317
77.529,16.24955,-0.01543834,1.05853,0.63197
78.129,16.32096,-0.01545069,1.08014,0.63223
78.729,16.39167,-0.01576755,1.09284,0.63249
79.329,16.4619,-0.0102493,1.09106,0.63274
79.929,16.53192,-0.01032009,1.10526,0.633
80.529,16.60145,-0.01034931,1.11524,0.63325
81.129,16.67093,-0.01032001,1.12157,0.63351
81.729,16.73986,-0.009335159,1.13633,0.63376
82.329,16.8085,-0.00768865,1.14936,0.63401
82.929,16.87657,-0.00758266,1.14503,0.63426
83.529,16.94421,-0.008904851,1.16929,0.63451
84.129,17.01166,-0.01032035,1.17603,0.63476
84.729,17.0789,-0.01032104,1.18474,0.635
85.329,17.14578,-0.0116282,1.19449,0.63525
85.929,17.2121,-0.01162914,1.20793,0.63549
86.529,17.27821,-0.01030844,1.21101,0.63574
87.129,17.34393,-0.01031901,1.22212,0.63598
87.729,17.41014,-0.01032306,1.23278,0.63622
88.329,17.47557,-0.01196621,1.23181,0.63646
88.929,17.5406,-0.01196001,1.23678,0.63669
89.529,17.60512,-0.01241035,1.25442,0.63693
90.129,17.66909,-0.01254341,1.25273,0.63716
90.729,17.73295,-0.01198172,1.2717,0.6374
91.329,17.7961,-0.01064495,1.28296,0.63763
91.929,17.8599,-0.01065154,1.27382,0.63786
92.529,17.92373,-0.01214086,1.28812,0.63809
93.129,17.9878,-0.0132797,1.31526,0.63832
93.729,18.05056,-0.01262204,1.3227,0.63855
94.329,18.1133,-0.0137998,1.331,0.63877
94.929,18.17575,-0.0132871,1.34321,0.639
95.529,18.23839,-0.0142962,1.36404,0.63922
96.129,18.30066,-0.01329222,1.35888,0.63944
96.729,18.36266,-0.01328196,1.36232,0.63966
97.329,18.42466,-0.01197033,1.38008,0.63988
97.929,18.48633,-0.01327171,1.40132,0.6401
98.529,18.54797,-0.01463526,1.40496,0.64032
99.129,18.60941,-0.0132701,1.42208,0.64053
99.729,18.67035,-0.0132704,1.44449,0.64075
100.329,18.73131,-0.01393114,1.45611,0.64096
100.929,18.79164,-0.01392595,1.49634,0.64117
101.529,18.85243,-0.01325969,1.50074,0.64139
102.129,18.9135,-0.01328296,1.52828,0.64159
102.729,18.97399,-0.01404251,1.54237,0.6418
103.329,19.03452,-0.01292271,1.56927,0.64201
103.929,19.09469,-0.01198315,1.5702,0.64222
104.529,19.15469,-0.01196748,1.60466,0.64242
105.129,19.21491,-0.01338806,1.61548,0.64262
105.729,19.27497,-0.01339012,1.64067,0.64283
106.329,19.33507,-0.01385895,1.65784,0.64303
106.929,19.39474,-0.01329645,1.68566,0.64323
107.529,19.45449,-0.01338976,1.71162,0.64342
108.129,19.5143,-0.01366847,1.73198,0.64362
108.729,19.5741,-0.01338086,1.75475,0.64382
109.329,19.63362,-0.01475194,1.78051,0.64401
109.929,19.6931,-0.01470002,1.79723,0.6442
110.529,19.75231,-0.01469916,1.83429,0.6444
111.129,19.81129,-0.01338562,1.85783,0.64459
111.729,19.87025,-0.01339031,1.89572,0.64478
112.329,19.92907,-0.01240475,1.90759,0.64496
112.929,19.9881,-0.01259942,1.94685,0.64515
113.529,20.04709,-0.01338906,1.98745,0.64534
114.129,20.10592,-0.01227077,2.02212,0.64552
114.729,20.16469,-0.01207095,2.04335,0.6457
115.329,20.22324,-0.01343175,2.08133,0.64588
115.929,20.2817,-0.01344597,2.11924,0.64607
116.529,20.34042,-0.01338837,2.16075,0.64624
117.129,20.3991,-0.01338675,2.20125,0.64642
117.729,20.45733,-0.01470901,2.25309,0.6466
118.329,20.5156,-0.01471,2.28,0.64677
118.929,20.5736,-0.01471037,2.3282,0.64695
119.529,20.63194,-0.01358309,2.38745,0.64712
120.129,20.69023,-0.01274245,2.43546,0.64729
120.729,20.74853,-0.01339009,2.51825,0.64746
121.329,20.80641,-0.01339,2.58417,0.64763
121.929,20.86419,-0.01339149,2.69345,0.6478
122.529,20.92212,-0.01471579,2.79568,0.64797
123.129,20.98011,-0.01470987,2.90068,0.64813
123.729,21.038,-0.01602333,2.99557,0.6483
124.329,21.0957,-0.01472209,3.05811,0.64846
124.929,21.15306,-0.01463999,3.0637,0.64862
125.529,21.2106,-0.01601996,2.97237,0.64878
126.129,21.26804,-0.01601999,2.78782,0.64894
126.729,21.32548,-0.01594024,2.58399,0.6491
127.329,21.38276,-0.01469952,2.42342,0.64926
127.929,21.4394,-0.0147,2.34657,0.64941
128.529,21.49629,-0.01470027,2.33423,0.64957
129.129,21.55295,-0.01381923,2.35148,0.64972
129.729,21.6096,-0.01471517,2.44242,0.64987
130.329,21.66647,-0.01602259,2.53147,0.65002
130.929,21.72316,-0.01752072,2.59511,0.65017
131.529,21.7798,-0.01623874,2.61385,0.65032
132.129,21.8362,-0.0149359,2.53671,0.65046
132.729,21.89256,-0.01394292,2.34132,0.65061
133.329,21.9488,-0.01524691,2.12824,0.65075
133.929,22.0049,-0.01524527,1.94868,0.6509
134.529,22.06097,-0.01591269,1.80402,0.65104
135.129,22.11684,-0.01661537,1.71507,0.65118
135.729,22.1722,-0.01657006,1.63842,0.65132
136.329,22.2273,-0.01651213,1.59584,0.65146
136.929,22.28286,-0.01742295,1.539,0.65159
137.529,22.33823,-0.01643397,1.50088,0.65173
138.129,22.39395,-0.01777057,1.48396,0.65186
138.729,22.44962,-0.01789666,1.47095,0.65199
139.329,22.50491,-0.01720515,1.45603,0.65213
139.929,22.56034,-0.01755004,1.44204,0.65226
140.529,22.6156,-0.01755,1.44115,0.65239
141.129,22.67071,-0.01755082,1.44538,0.65251
141.729,22.72564,-0.01659442,1.4248,0.65264
142.329,22.78051,-0.01757673,1.42912,0.65277
142.929,22.83543,-0.01756172,1.42992,0.65289
143.529,22.8905,-0.01887365,1.43696,0.65301
144.129,22.94568,-0.01712437,1.43033,0.65313
144.729,23.00054,-0.01843201,1.4274,0.65326
145.329,23.05528,-0.01842835,1.44936,0.65337
145.929,23.10995,-0.01712317,1.48036,0.65349
146.529,23.16473,-0.0158127,1.48366,0.65361
147.129,23.21949,-0.01710892,1.48165,0.65373
147.729,23.27435,-0.01637981,1.49277,0.65384
148.329,23.32902,-0.0164568,1.48714,0.65395
148.929,23.3839,-0.01777369,1.49334,0.65406
149.529,23.43842,-0.0177707,1.48958,0.65418
150.129,23.49312,-0.01914071,1.50525,0.65428
150.729,23.54761,-0.01909004,1.50088,0.65439
151.329,23.60216,-0.018611,1.50276,0.6545
151.929,23.65686,-0.01809607,1.49995,0.65461
152.529,23.7116,-0.01933071,1.50839,0.65471
153.129,23.7661,-0.01877667,1.50639,0.65481
153.729,23.82035,-0.01745035,1.50746,0.65492
154.329,23.87453,-0.01745008,1.50582,0.65502
154.929,23.92863,-0.01740616,1.51907,0.65512
155.529,23.98307,-0.01810035,1.51396,0.65521
156.129,24.03746,-0.0181,1.52289,0.65531
156.729,24.09195,-0.0181,1.5108,0.65541
157.329,24.1464,-0.01810709,1.51806,0.6555
157.929,24.20085,-0.01837464,1.51743,0.6556
158.529,24.25573,-0.01917183,1.52374,0.65569
159.129,24.31054,-0.01909001,1.51825,0.65578
159.729,24.3655,-0.01909,1.51626,0.65587
160.329,24.42023,-0.01909,1.50378,0.65596
160.929,24.47462,-0.01909,1.50408,0.65605
161.529,24.52901,-0.01908942,1.51773,0.65613
162.129,24.58318,-0.02005426,1.5157,0.65622
162.729,24.63731,-0.02007001,1.52437,0.6563
163.329,24.6911,-0.02006997,1.51714,0.65638
163.929,24.74488,-0.02015828,1.51429,0.65647
164.529,24.7989,-0.01875963,1.50349,0.65655
165.129,24.85364,-0.02005401,1.50657,0.65662
165.729,24.9087,-0.02063284,1.50433,0.6567
166.329,24.9637,-0.02139027,1.49091,0.65678
166.929,25.01843,-0.02138991,1.50008,0.65685
167.529,25.0727,-0.02117906,1.50061,0.65693
168.129,25.12681,-0.02008009,1.49366,0.657
168.729,25.181,-0.02008,1.49462,0.65707
169.329,25.2351,-0.02008001,1.48149,0.65714
169.929,25.28937,-0.02007766,1.48723,0.65721
170.529,25.34358,-0.02139812,1.49064,0.65728
171.129,25.39769,-0.0214,1.48762,0.65735
171.729,25.452,-0.02139964,1.48727,0.65741
172.329,25.5061,-0.02019881,1.50433,0.65748
172.929,25.56044,-0.01997194,1.49664,0.65754
173.529,25.6147,-0.02127769,1.50929,0.6576
174.129,25.66902,-0.02218235,1.50762,0.65767
174.729,25.72342,-0.02260004,1.51823,0.65773
175.329,25.77743,-0.02259942,1.51421,0.65778
175.929,25.83147,-0.02359442,1.51879,0.65784
176.529,25.88539,-0.02260015,1.52268,0.6579
177.129,25.93935,-0.0226,1.52351,0.65795
177.729,25.9936,-0.02257983,1.52486,0.65801
178.329,26.04741,-0.02160603,1.52657,0.65806
178.929,26.10097,-0.02161,1.52613,0.65811
179.529,26.15447,-0.02160386,1.52393,0.65816
180.129,26.20796,-0.02301232,1.53904,0.65821
180.729,26.26207,-0.02162009,1.52926,0.65826
181.329,26.31632,-0.02162,1.53774,0.65831
181.929,26.3706,-0.02161931,1.52875,0.65835
182.529,26.4248,-0.02376106,1.53759,0.6584
183.129,26.4786,-0.02424013,1.54321,0.65844
183.729,26.53244,-0.02423818,1.54043,0.65848
184.329,26.58628,-0.02560586,1.53552,0.65852
184.929,26.6392,-0.02423898,1.53582,0.65856
185.529,26.69282,-0.02424393,1.54866,0.6586
186.129,26.7461,-0.02291842,1.55331,0.65864
186.729,26.79944,-0.02422165,1.54975,0.65867
187.329,26.85342,-0.0255586,1.55733,0.65871
187.929,26.9067,-0.02425595,1.54746,0.65874
188.529,26.96027,-0.02458209,1.55764,0.65878
189.129,27.0137,-0.02456989,1.56313,0.65881
189.729,27.0672,-0.02457,1.57206,0.65884
190.329,27.1207,-0.02457013,1.5736,0.65887
190.929,27.17465,-0.02560106,1.59542,0.65889
191.529,27.22863,-0.02589006,1.58661,0.65892
192.129,27.28265,-0.02587489,1.60146,0.65895
192.729,27.33653,-0.02491327,1.60525,0.65897
193.329,27.38992,-0.02556006,1.61042,0.659
193.929,27.44347,-0.02556005,1.6131,0.65902
194.529,27.4969,-0.02550948,1.61907,0.65904
195.129,27.55037,-0.0268798,1.62191,0.65906
195.729,27.6036,-0.02683123,1.6339,0.65908
196.329,27.65692,-0.02823304,1.63263,0.6591
196.929,27.7104,-0.02819,1.63433,0.65911
197.529,27.76387,-0.02820481,1.63813,0.65913
198.129,27.81747,-0.02885152,1.63674,0.65914
198.729,27.8707,-0.02785402,1.64011,0.65915
199.329,27.924,-0.02821139,1.65598,0.65917
199.929,27.97745,-0.02917993,1.64289,0.65918
200.529,28.0307,-0.02917994,1.65892,0.65919
201.129,28.0842,-0.02955358,1.6661,0.6592
201.729,28.13758,-0.03049994,1.67584,0.6592
202.329,28.19073,-0.0305,1.67332,0.65921
202.929,28.244,-0.03049997,1.67754,0.65922
203.529,28.29741,-0.03052369,1.68114,0.65922
204.129,28.35077,-0.03181017,1.6792,0.65922
204.729,28.40431,-0.03181,1.67402,0.65922
205.329,28.4577,-0.03181,1.68323,0.65922
205.929,28.51117,-0.03181,1.68873,0.65922
206.529,28.56462,-0.03180954,1.69137,0.65922
207.129,28.618,-0.03316838,1.69243,0.65922
207.729,28.67152,-0.03316357,1.68516,0.65922
208.329,28.7249,-0.03247441,1.68765,0.65921
208.929,28.77818,-0.03246986,1.69541,0.6592
209.529,28.8315,-0.03282367,1.71038,0.6592
210.129,28.8849,-0.03352704,1.71464,0.65919
210.729,28.9382,-0.03345797,1.70819,0.65918
211.329,28.9916,-0.03379171,1.71138,0.65917
211.929,29.04503,-0.03412272,1.71036,0.65916
212.529,29.09825,-0.03563194,1.71671,0.65914
213.129,29.15182,-0.03576577,1.72157,0.65913
213.729,29.20525,-0.03476611,1.7333,0.65912
214.329,29.2586,-0.03493225,1.7327,0.6591
214.929,29.31216,-0.03708088,1.74148,0.65908
215.529,29.36572,-0.03708,1.74599,0.65906
216.129,29.4192,-0.03708,1.73896,0.65904
216.729,29.47284,-0.03708,1.7452,0.65902
217.329,29.52635,-0.03708,1.74628,0.659
217.929,29.57977,-0.03708,1.75052,0.65898
218.529,29.63327,-0.03708,1.7624,0.65896
219.129,29.68685,-0.03707922,1.75502,0.65893
219.729,29.7403,-0.03873165,1.75887,0.65891
220.329,29.7938,-0.03905045,1.7584,0.65888
220.929,29.8473,-0.03906127,1.75357,0.65885
221.529,29.90072,-0.03970473,1.76613,0.65882
222.129,29.95405,-0.04100622,1.76665,0.65879
222.729,30.00753,-0.04101989,1.76211,0.65876
223.329,30.06083,-0.04096691,1.75703,0.65873
223.929,30.1143,-0.03973233,1.76662,0.65869
224.529,30.1677,-0.04216376,1.75393,0.65866
225.129,30.22076,-0.04233995,1.76773,0.65862
225.729,30.27425,-0.04234,1.76216,0.65859
226.329,30.32756,-0.04234,1.76456,0.65855
226.929,30.38103,-0.04233787,1.76741,0.65851
227.529,30.43481,-0.04509919,1.76724,0.65847
228.129,30.48827,-0.04557485,1.7594,0.65843
228.729,30.54185,-0.04508002,1.779,0.65839
229.329,30.59549,-0.04599331,1.77816,0.65834
229.929,30.64899,-0.04639996,1.7706,0.6583
230.529,30.70253,-0.04726684,1.76969,0.65825
231.129,30.75599,-0.04770969,1.77264,0.65821
231.729,30.80967,-0.04904065,1.77143,0.65816
232.329,30.8633,-0.050018,1.77837,0.65811
232.929,30.91672,-0.05002007,1.78468,0.65806
233.529,30.97035,-0.05003146,1.77964,0.65801
234.129,31.02354,-0.05133904,1.78705,0.65796
234.729,31.07617,-0.05130459,1.80135,0.65791
235.329,31.1293,-0.05166749,1.78958,0.65785
235.929,31.18198,-0.05297844,1.79794,0.6578
236.529,31.23558,-0.05298004,1.78783,0.65774
237.129,31.28975,-0.0532824,1.80269,0.65768
237.729,31.3436,-0.05561951,1.79458,0.65763
238.329,31.39769,-0.05561957,1.79187,0.65757
238.929,31.4509,-0.05667786,1.79235,0.65751
239.529,31.50415,-0.05692897,1.8014,0.65745
240.129,31.55763,-0.05692047,1.80132,0.65738
240.729,31.61117,-0.05956136,1.79502,0.65732
241.329,31.66501,-0.05956953,1.80185,0.65726
241.929,31.71868,-0.06090351,1.80418,0.65719
242.529,31.7723,-0.06089515,1.80701,0.65712
243.129,31.82585,-0.06209858,1.81743,0.65706
243.729,31.87945,-0.06483499,1.81415,0.65699
244.329,31.93298,-0.06496177,1.81488,0.65692
244.929,31.98643,-0.06736008,1.81279,0.65685
245.529,32.03989,-0.0676873,1.81564,0.65678
246.129,32.09329,-0.06905111,1.81426,0.65671
246.729,32.1468,-0.06899284,1.81399,0.65663
247.329,32.20032,-0.07164692,1.81406,0.65656
247.929,32.2538,-0.07259572,1.82055,0.65648
248.529,32.30737,-0.07294189,1.81821,0.65641
249.129,32.36103,-0.07429842,1.82547,0.65633
249.729,32.41473,-0.07592925,1.83009,0.65625
250.329,32.46848,-0.07753254,1.81994,0.65617
250.929,32.5221,-0.0791527,1.83108,0.65609
251.529,32.57557,-0.08055189,1.82878,0.65601
252.129,32.62904,-0.08092523,1.82727,0.65593
252.729,32.68228,-0.08316233,1.84471,0.65584
253.329,32.73588,-0.08566519,1.82556,0.65576
253.929,32.78953,-0.08665984,1.82817,0.65567
254.529,32.8433,-0.08658939,1.8427,0.65559
255.129,32.89711,-0.08957851,1.82387,0.6555
255.729,32.9503,-0.09226478,1.83564,0.65541
256.329,33.0038,-0.09368602,1.84119,0.65532
256.929,33.05725,-0.09496942,1.83726,0.65523
257.529,33.11076,-0.09641138,1.84121,0.65514
258.129,33.1649,-0.09834152,1.84401,0.65505
258.729,33.2185,-0.10093,1.84471,0.65495
259.329,33.2723,-0.10345,1.85754,0.65486
259.929,33.32605,-0.10586,1.84357,0.65476
260.529,33.37961,-0.10615,1.84586,0.65467
261.129,33.4332,-0.10861,1.85381,0.65457
261.729,33.48675,-0.11186,1.85872,0.65447
262.329,33.5404,-0.11363,1.86205,0.65437
262.929,33.59406,-0.11582,1.86816,0.65427
263.529,33.64782,-0.11793,1.86564,0.65417
264.129,33.70148,-0.12119,1.87838,0.65407
264.729,33.75513,-0.12362,1.87465,0.65397
265.329,33.80881,-0.12558,1.87302,0.65386
265.929,33.86265,-0.12849,1.8741,0.65376
266.529,33.9165,-0.13219,1.88625,0.65365
267.129,33.97017,-0.13284,1.87832,0.65354
267.729,34.02391,-0.13595,1.89113,0.65344
268.329,34.0775,-0.1393,1.89258,0.65333
268.929,34.13118,-0.14372,1.90283,0.65322
269.529,34.1849,-0.14688,1.89878,0.65311
270.129,34.23853,-0.14873,1.90548,0.653
270.729,34.29225,-0.15156,1.91106,0.65288
271.329,34.3459,-0.15505,1.91168,0.65277
271.929,34.39968,-0.16022,1.91475,0.65265
272.529,34.45353,-0.16316,1.92309,0.65254
273.129,34.50737,-0.16686,1.92102,0.65242
273.729,34.56113,-0.1699,1.92448,0.65231
274.329,34.6145,-0.17479,1.93816,0.65219
274.929,34.66782,-0.17825,1.93908,0.65207
275.529,34.72143,-0.18289,1.94201,0.65195
276.129,34.7751,-0.18672,1.94396,0.65183
276.729,34.82929,-0.18848,1.95629,0.65171
277.329,34.88329,-0.1935,1.95501,0.65158
277.929,34.9371,-0.19762,1.96065,0.65146
278.529,34.991,-0.20368,1.96172,0.65133
279.129,35.04481,-0.20674,1.96502,0.65121
279.729,35.09887,-0.21103,1.95989,0.65108
280.329,35.15283,-0.21585,1.96037,0.65096
280.929,35.2068,-0.22136,1.97028,0.65083
281.529,35.26079,-0.22534,1.9664,0.6507
282.129,35.3148,-0.23076,1.98648,0.65057
282.729,35.36874,-0.23485,1.97776,0.65044
283.329,35.42272,-0.2407,1.98527,0.65031
283.929,35.47664,-0.24492,1.98733,0.65017
284.529,35.5306,-0.2497,1.98106,0.65004
285.129,35.58448,-0.25541,1.98331,0.6499
285.729,35.63834,-0.26081,1.99368,0.64977
286.329,35.69223,-0.26629,1.98629,0.64963
286.929,35.7462,-0.27118,1.97881,0.6495
287.529,35.80021,-0.27611,1.99367,0.64936
288.129,35.85415,-0.28251,1.98456,0.64922
288.729,35.90807,-0.28765,1.98289,0.64908
289.329,35.9619,-0.29303,1.98419,0.64894
289.929,36.01583,-0.2982,1.98259,0.6488
290.529,36.07,-0.30395,1.97955,0.64865
291.129,36.12383,-0.30972,1.98959,0.64851
291.729,36.17777,-0.31435,1.98473,0.64837
292.329,36.23162,-0.32249,1.97628,0.64822
292.929,36.28568,-0.32795,1.97997,0.64808
293.529,36.33979,-0.33322,1.98293,0.64793
294.129,36.39395,-0.33991,1.98118,0.64778
294.729,36.44812,-0.34559,1.97509,0.64763
295.329,36.50223,-0.35048,1.97148,0.64748
295.929,36.55638,-0.35582,1.98355,0.64733
296.529,36.6105,-0.36259,1.98291,0.64718
297.129,36.6646,-0.36869,1.97911,0.64703
297.729,36.7189,-0.37497,1.96926,0.64688
298.329,36.77306,-0.37931,1.97537,0.64672
298.929,36.82748,-0.38553,1.96189,0.64657
299.529,36.88176,-0.39228,1.96691,0.64641
300.129,36.936,-0.39764,1.96334,0.64626
300.729,36.9901,-0.40334,1.96014,0.6461
301.329,37.04438,-0.40954,1.9711,0.64594
301.929,37.09858,-0.4152,1.96053,0.64578
302.529,37.1528,-0.42159,1.97336,0.64562
303.129,37.20708,-0.42777,1.96368,0.64546
303.729,37.26133,-0.43396,1.96256,0.6453
304.329,37.31579,-0.43969,1.96579,0.64514
304.929,37.37015,-0.44644,1.96828,0.64498
305.529,37.4244,-0.45286,1.9558,0.64482
306.129,37.47876,-0.45919,1.96579,0.64465
306.729,37.53297,-0.46307,1.96548,0.64449
307.329,37.5872,-0.47016,1.96403,0.64432
307.929,37.6415,-0.47707,1.97143,0.64415
308.529,37.69565,-0.48226,1.97558,0.64399
309.129,37.75006,-0.48724,1.97544,0.64382
309.729,37.80449,-0.4935,1.97501,0.64365
310.329,37.859,-0.49953,1.97756,0.64348
310.929,37.91353,-0.50607,1.97638,0.64331
311.529,37.96755,-0.51237,1.98705,0.64314
312.129,38.02142,-0.51931,1.98641,0.64296
312.729,38.07566,-0.52476,1.98842,0.64279
313.329,38.12999,-0.53078,1.99454,0.64262
313.929,38.1847,-0.53665,1.98647,0.64244
314.529,38.2395,-0.54276,2.00132,0.64227
315.129,38.29395,-0.54936,2.00964,0.64209
315.729,38.34838,-0.55568,2.01113,0.64191
316.329,38.4028,-0.56204,2.00732,0.64173
316.929,38.45728,-0.56795,2.01122,0.64156
317.529,38.5118,-0.57435,2.02089,0.64138
318.129,38.5663,-0.58077,2.01497,0.6412
318.729,38.6208,-0.58708,2.03062,0.64101
319.329,38.6753,-0.59321,2.02999,0.64083
319.929,38.7297,-0.5983,2.03891,0.64065
320.529,38.7842,-0.60569,2.03962,0.64047
321.129,38.83882,-0.61107,2.05439,0.64028
321.729,38.89311,-0.61859,2.052,0.6401
322.329,38.94763,-0.62508,2.05793,0.63991
322.929,39.00213,-0.63213,2.06882,0.63973
323.529,39.05644,-0.63851,2.07323,0.63954
324.129,39.11098,-0.64285,2.07667,0.63935
324.729,39.1654,-0.65033,2.09367,0.63916
325.329,39.21987,-0.65768,2.09194,0.63897
325.929,39.27393,-0.66379,2.10314,0.63878
326.529,39.32804,-0.67019,2.12106,0.63859
327.129,39.38221,-0.67847,2.12624,0.6384
327.729,39.43688,-0.68386,2.1353,0.63821
328.329,39.49188,-0.69214,2.14634,0.63802
328.929,39.54688,-0.6988,2.15849,0.63782
329.529,39.60179,-0.70549,2.15949,0.63763
330.129,39.65645,-0.71201,2.18371,0.63743
330.729,39.71128,-0.71869,2.18541,0.63724
331.329,39.76593,-0.72605,2.20317,0.63704
331.929,39.8206,-0.73419,2.21023,0.63684
332.529,39.87532,-0.74113,2.22892,0.63665
333.129,39.93,-0.74763,2.23806,0.63645
333.729,39.98472,-0.7557,2.25264,0.63625
334.329,40.0396,-0.76361,2.26371,0.63605
334.929,40.09429,-0.76988,2.27796,0.63585
335.529,40.149,-0.78001,2.2818,0.63564
336.129,40.2038,-0.78829,2.29238,0.63544
336.729,40.25848,-0.79396,2.30567,0.63524
337.329,40.31327,-0.80221,2.32582,0.63504
337.929,40.36807,-0.81162,2.33539,0.63483
338.529,40.423,-0.82094,2.35443,0.63463
339.129,40.47795,-0.82762,2.36573,0.63442
339.729,40.5328,-0.83652,2.386,0.63421
340.329,40.5876,-0.84451,2.40842,0.63401
340.929,40.64255,-0.85416,2.43088,0.6338
341.529,40.6976,-0.86344,2.4545,0.63359
342.129,40.75292,-0.87162,2.47016,0.63338
342.729,40.80807,-0.87942,2.48536,0.63317
343.329,40.86307,-0.88752,2.52371,0.63296
343.929,40.91805,-0.89806,2.54305,0.63275
344.529,40.973,-0.90822,2.55506,0.63254
345.129,41.02772,-0.91695,2.58697,0.63233
345.729,41.0824,-0.92664,2.61687,0.63211
346.329,41.13727,-0.93552,2.64,0.6319
346.929,41.19222,-0.94756,2.67402,0.63168
347.529,41.2474,-0.95893,2.6932,0.63147
348.129,41.3025,-0.97012,2.74273,0.63125
348.729,41.35794,-0.9821,2.76001,0.63104
349.329,41.4133,-0.99392,2.80644,0.63082
349.929,41.4688,-1.00397,2.81999,0.6306
350.529,41.5242,-1.01572,2.86327,0.63038
351.129,41.57932,-1.02794,2.89271,0.63016
351.729,41.63453,-1.03938,2.92327,0.62994
352.329,41.68953,-1.05147,2.96903,0.62972
352.929,41.74462,-1.06351,3.00416,0.6295
353.529,41.79972,-1.07519,3.04539,0.62928
354.129,41.8549,-1.09027,3.06766,0.62906
354.729,41.91015,-1.1036,3.11826,0.62884
355.329,41.96526,-1.11655,3.13962,0.62861
355.929,42.02043,-1.13068,3.17775,0.62839
356.529,42.0756,-1.14436,3.21111,0.62816
357.129,42.13088,-1.15897,3.24551,0.62794
357.729,42.1862,-1.17234,3.26645,0.62771
358.329,42.24159,-1.18708,3.30637,0.62749
358.929,42.29698,-1.20121,3.33493,0.62726
359.529,42.35223,-1.2167,3.35895,0.62703
360.129,42.4074,-1.23079,3.39023,0.6268
360.729,42.4627,-1.2474,3.40687,0.62657
361.329,42.51782,-1.26227,3.43319,0.62634
361.929,42.57298,-1.27891,3.45239,0.62611
362.529,42.62839,-1.29578,3.46268,0.62588
363.129,42.68349,-1.31033,3.47621,0.62565
363.729,42.73881,-1.32428,3.47096,0.62542
364.329,42.79424,-1.33994,3.47566,0.62519
364.929,42.84967,-1.35605,3.46628,0.62495
365.529,42.90521,-1.37231,3.45467,0.62472
366.129,42.96069,-1.38756,3.4366,0.62448
366.729,43.01625,-1.40241,3.40517,0.62425
367.329,43.0715,-1.41729,3.39662,0.62401
367.929,43.12693,-1.43137,3.34814,0.62378
368.529,43.1823,-1.44589,3.32424,0.62354
369.129,43.23766,-1.46126,3.26671,0.6233
369.729,43.29317,-1.47475,3.20907,0.62307
370.329,43.3488,-1.48822,3.13563,0.62283
370.929,43.40432,-1.50287,3.06713,0.62259
371.529,43.45962,-1.51493,3.00655,0.62235
372.129,43.515,-1.52498,2.92331,0.62211
372.729,43.57025,-1.5393,2.8412,0.62187
373.329,43.6258,-1.55054,2.7492,0.62163
373.929,43.68116,-1.5598,2.64515,0.62139
374.529,43.7365,-1.56929,2.54487,0.62114
375.129,43.79187,-1.57835,2.45136,0.6209
375.729,43.84714,-1.58705,2.32859,0.62066
376.329,43.90249,-1.59851,2.23145,0.62041
376.929,43.958,-1.60491,2.12451,0.62017
377.529,44.01338,-1.61083,2.04216,0.61992
378.129,44.06883,-1.61821,1.92379,0.61968
378.729,44.1238,-1.62309,1.83973,0.61943
379.329,44.17908,-1.6278,1.74749,0.61919
379.929,44.23446,-1.63278,1.6423,0.61894
380.529,44.28994,-1.63674,1.57237,0.61869
381.129,44.3457,-1.64187,1.49222,0.61844
381.729,44.40117,-1.64563,1.43633,0.61819
382.329,44.45687,-1.64937,1.36838,0.61795
382.929,44.51231,-1.65044,1.31457,0.6177
383.529,44.5679,-1.65336,1.26347,0.61745
384.129,44.62343,-1.65635,1.21857,0.61719
384.729,44.67899,-1.65769,1.19032,0.61694
385.329,44.73464,-1.65946,1.13847,0.61669
385.929,44.79016,-1.66208,1.12005,0.61644
386.529,44.84582,-1.66425,1.08839,0.61619
387.129,44.90152,-1.66725,1.0718,0.61593
387.729,44.95725,-1.66768,1.05597,0.61568
388.329,45.01299,-1.66896,1.04344,0.61542
388.929,45.06862,-1.67028,1.03447,0.61517
389.529,45.12424,-1.67164,1.02718,0.61491
390.129,45.17993,-1.67294,1.01412,0.61466
390.729,45.23568,-1.67417,1.00699,0.6144
391.329,45.29137,-1.68418,1.0118,0.61415
391.929,45.3472,-1.67068,1.00032,0.61389
392.529,45.40311,-1.67909,0.98762,0.61363
393.129,45.45903,-1.6798,0.98366,0.61337
393.729,45.51486,-1.68117,0.97712,0.61311
394.329,45.57062,-1.68247,0.97974,0.61286
394.929,45.62639,-1.68449,0.97053,0.6126
395.529,45.68229,-1.68662,0.95779,0.61234
396.129,45.7384,-1.68869,0.96228,0.61208
396.729,45.79441,-1.68918,0.96064,0.61181
397.329,45.8505,-1.69048,0.9541,0.61155
397.929,45.9065,-1.69079,0.95174,0.61129
398.529,45.96249,-1.69192,0.95175,0.61103
399.129,46.0186,-1.69439,0.94228,0.61077
399.729,46.07472,-1.69581,0.94009,0.6105
400.329,46.1308,-1.69575,0.9252,0.61024
400.929,46.1869,-1.69747,0.92209,0.60998
401.529,46.24309,-1.69847,0.92795,0.60971
402.129,46.29915,-1.69982,0.92803,0.60945
402.729,46.35538,-1.70108,0.93341,0.60918
403.329,46.41153,-1.70251,0.93225,0.60891
403.929,46.46768,-1.70368,0.92381,0.60865
404.529,46.524,-1.70527,0.92637,0.60838
405.129,46.5803,-1.70707,0.91701,0.60811
405.729,46.63657,-1.709,0.92085,0.60785
406.329,46.69288,-1.70905,0.92601,0.60758
406.929,46.74903,-1.71173,0.90825,0.60731
407.529,46.80533,-1.71308,0.91784,0.60704
408.129,46.86149,-1.71388,0.91405,0.60677
408.729,46.91778,-1.71574,0.91125,0.6065
409.329,46.97397,-1.71719,0.92337,0.60623
409.929,47.0304,-1.71856,0.91679,0.60596
410.529,47.08692,-1.7199,0.91867,0.60569
411.129,47.14349,-1.72193,0.91784,0.60542
411.729,47.19995,-1.72263,0.91785,0.60515
412.329,47.25636,-1.72401,0.91385,0.60488
412.929,47.31275,-1.72594,0.91877,0.6046
413.529,47.369,-1.72822,0.92363,0.60433
414.129,47.4255,-1.72824,0.92298,0.60406
414.729,47.4821,-1.73042,0.91254,0.60378
415.329,47.53877,-1.73285,0.92224,0.60351
415.929,47.5955,-1.73393,0.91179,0.60324
416.529,47.65193,-1.7351,0.92977,0.60296
417.129,47.70832,-1.73713,0.92741,0.60269
417.729,47.76467,-1.73967,0.93445,0.60241
418.329,47.82095,-1.7413,0.93172,0.60213
418.929,47.8773,-1.74431,0.937,0.60186
419.529,47.93396,-1.74661,0.94739,0.60158
420.129,47.9906,-1.74953,0.94112,0.6013
420.729,48.04735,-1.74808,0.94028,0.60103
421.329,48.10413,-1.75127,0.95072,0.60075
421.929,48.16077,-1.75384,0.95167,0.60047
422.529,48.21751,-1.75689,0.95974,0.60019
423.129,48.27409,-1.75694,0.96074,0.59991
423.729,48.33076,-1.75824,0.96639,0.59963
424.329,48.38748,-1.76096,0.96535,0.59936
424.929,48.44416,-1.76301,0.98308,0.59908
425.529,48.5009,-1.76499,0.99904,0.59879
426.129,48.55767,-1.76864,0.99779,0.59851
426.729,48.6143,-1.77183,1.00322,0.59823
427.329,48.671,-1.77313,1.0095,0.59795
427.929,48.72777,-1.77498,1.0322,0.59767
428.529,48.78453,-1.77634,1.0353,0.59739
429.129,48.84127,-1.77936,1.04489,0.59711
429.729,48.89805,-1.78269,1.05951,0.59682
430.329,48.9549,-1.78621,1.06928,0.59654
430.929,49.01167,-1.78911,1.08265,0.59626
431.529,49.06844,-1.79056,1.1031,0.59597
432.129,49.1252,-1.7943,1.11987,0.59569
432.729,49.18197,-1.79707,1.12574,0.59541
433.329,49.23863,-1.80018,1.11934,0.59512
433.929,49.29535,-1.8031,1.14902,0.59484
434.529,49.35203,-1.80762,1.16116,0.59455
435.129,49.40886,-1.80973,1.18313,0.59427
435.729,49.46569,-1.81375,1.18398,0.59398
436.329,49.52257,-1.81663,1.1979,0.59369
436.929,49.57946,-1.82133,1.23347,0.59341
437.529,49.6365,-1.82448,1.25042,0.59312
438.129,49.69356,-1.82822,1.26587,0.59283
438.729,49.7506,-1.83326,1.27084,0.59255
439.329,49.8077,-1.83658,1.2862,0.59226
439.929,49.86462,-1.84052,1.30922,0.59197
440.529,49.92154,-1.84486,1.3216,0.59168
441.129,49.9784,-1.84728,1.34363,0.5914
441.729,50.0354,-1.85423,1.37263,0.59111
442.329,50.09244,-1.85849,1.38714,0.59082
442.929,50.14963,-1.86343,1.41447,0.59053
443.529,50.20669,-1.86939,1.44617,0.59024
444.129,50.2639,-1.87343,1.47325,0.58995
444.729,50.32105,-1.87988,1.48604,0.58966
445.329,50.37836,-1.88675,1.50214,0.58937
445.929,50.4357,-1.89142,1.54495,0.58908
446.529,50.49296,-1.89675,1.55907,0.58879
447.129,50.54958,-1.90281,1.57493,0.5885
447.729,50.6068,-1.90894,1.62305,0.5882
448.329,50.664,-1.91597,1.65797,0.58791
448.929,50.72148,-1.92402,1.6671,0.58762
449.529,50.7791,-1.93071,1.70094,0.58733
450.129,50.83633,-1.93742,1.74475,0.58704
450.729,50.8936,-1.94428,1.77353,0.58674
451.329,50.9508,-1.95267,1.79571,0.58645
451.929,51.00821,-1.95988,1.82482,0.58616
452.529,51.0655,-1.96811,1.86596,0.58586
453.129,51.12292,-1.97704,1.9009,0.58557
453.729,51.1804,-1.98608,1.93328,0.58528
454.329,51.23774,-1.99455,1.97163,0.58498
454.929,51.2952,-2.0035,1.99632,0.58469
455.529,51.3527,-2.01342,2.0322,0.58439
456.129,51.40964,-2.02388,2.06864,0.5841
456.729,51.46715,-2.03439,2.11173,0.5838
457.329,51.52456,-2.04479,2.14009,0.58351
457.929,51.5822,-2.05455,2.17545,0.58321
458.529,51.63989,-2.06548,2.21189,0.58292
459.129,51.69732,-2.07722,2.26012,0.58262
459.729,51.75496,-2.09237,2.29509,0.58233
460.329,51.81263,-2.10393,2.34464,0.58203
460.929,51.86996,-2.11903,2.37639,0.58173
461.529,51.92774,-2.13119,2.42401,0.58144
462.129,51.98516,-2.14327,2.46616,0.58114
462.729,52.04291,-2.15827,2.50403,0.58084
463.329,52.10035,-2.17167,2.55496,0.58054
463.929,52.15772,-2.1864,2.60201,0.58025
464.529,52.21544,-2.2057,2.65471,0.57995
465.129,52.27306,-2.21977,2.68375,0.57965
465.729,52.33077,-2.23599,2.7382,0.57935
466.329,52.3881,-2.25281,2.79171,0.57905
466.929,52.44537,-2.27043,2.82601,0.57876
467.529,52.50274,-2.2883,2.87906,0.57846
468.129,52.56038,-2.30583,2.90725,0.57816
468.729,52.61804,-2.32528,2.95736,0.57786
469.329,52.6758,-2.34548,2.99766,0.57756
469.929,52.7335,-2.36509,3.03824,0.57726
470.529,52.7913,-2.38665,3.08173,0.57696
471.129,52.8492,-2.40635,3.12036,0.57666
471.729,52.90704,-2.42818,3.14802,0.57636
472.329,52.96476,-2.4505,3.18639,0.57606
472.929,53.02268,-2.47351,3.21441,0.57576
473.529,53.08035,-2.49504,3.2698,0.57546
474.129,53.13819,-2.51948,3.29,0.57516
474.729,53.19615,-2.54436,3.32351,0.57486
475.329,53.2541,-2.56839,3.35103,0.57456
475.929,53.31182,-2.59387,3.37418,0.57426
476.529,53.36939,-2.61762,3.3961,0.57396
477.129,53.42695,-2.64562,3.41149,0.57366
477.729,53.4848,-2.67081,3.41926,0.57335
478.329,53.54303,-2.69736,3.42748,0.57305
478.929,53.6011,-2.72382,3.44511,0.57275
479.529,53.65909,-2.75105,3.44599,0.57245
480.129,53.71708,-2.77927,3.42767,0.57215
480.729,53.7751,-2.80653,3.4185,0.57184
481.329,53.83315,-2.83491,3.42057,0.57154
481.929,53.8912,-2.86263,3.4007,0.57124
482.529,53.94931,-2.8906,3.36349,0.57094
483.129,54.00734,-2.91724,3.32576,0.57063
483.729,54.0655,-2.94565,3.30001,0.57033
484.329,54.12347,-2.97166,3.25348,0.57003
484.929,54.1817,-3.00143,3.20483,0.56972
485.529,54.23989,-3.02743,3.13661,0.56942
486.129,54.298,-3.04526,3.09606,0.56912
486.729,54.3561,-3.08999,3.00688,0.56881
487.329,54.41406,-3.1086,2.92431,0.56851
487.929,54.4722,-3.13571,2.8362,0.56821
488.529,54.53023,-3.15907,2.74165,0.5679
489.129,54.5884,-3.18505,2.65218,0.5676
489.729,54.6465,-3.20713,2.5406,0.5673
490.329,54.70469,-3.2317,2.43384,0.56699
490.929,54.7631,-3.25196,2.34164,0.56669
491.529,54.8211,-3.27402,2.20985,0.56638
492.129,54.87913,-3.29298,2.09206,0.56608
492.729,54.93711,-3.31251,1.97094,0.56577
493.329,54.995,-3.33043,1.82268,0.56547
493.929,55.0531,-3.34746,1.70315,0.56516
494.529,55.11125,-3.36352,1.57023,0.56486
495.129,55.1695,-3.37669,1.43894,0.56455
495.729,55.22764,-3.3918,1.33269,0.56425
496.329,55.2858,-3.39851,1.21509,0.56394
496.929,55.34401,-3.41576,1.06593,0.56364
497.529,55.40204,-3.43311,0.95775,0.56333
498.129,55.4601,-3.43715,0.83993,0.56303
498.729,55.5181,-3.44555,0.72936,0.56272
499.329,55.57598,-3.45302,0.63683,0.56242
499.929,55.6342,-3.46105,0.53533,0.56211
500.529,55.69239,-3.46721,0.41891,0.56181
501.129,55.7507,-3.47353,0.33994,0.5615
501.729,55.8089,-3.47574,0.25848,0.5612
502.329,55.867,-3.48019,0.17756,0.56089
502.929,55.92504,-3.48471,0.1093,0.56058
503.529,55.9831,-3.48709,0.0443983,0.56028
504.129,56.0413,-3.48825,-0.009813505,0.55997
504.729,56.09964,-3.49096,-0.05176329,0.55967
505.329,56.15814,-3.49285,-0.08175715,0.55936
505.929,56.21655,-3.4942,-0.10889,0.55905
506.529,56.27486,-3.49545,-0.14591,0.55875
507.129,56.3333,-3.49559,-0.17097,0.55844
507.729,56.39141,-3.49691,-0.18201,0.55813
508.329,56.44973,-3.4969,-0.1888,0.55783
508.929,56.50784,-3.49856,-0.1988,0.55752
509.529,56.56592,-3.49855,-0.21771,0.55722
510.129,56.62406,-3.49855,-0.21456,0.55691
510.729,56.6821,-3.49871,-0.21321,0.5566
511.329,56.74009,-3.49987,-0.21115,0.5563
511.929,56.7981,-3.4998,-0.19499,0.55599
512.529,56.8561,-3.5023,-0.19298,0.55568
513.129,56.9144,-3.50382,-0.20059,0.55538
513.729,56.9721,-3.50382,-0.2025,0.55507
514.329,57.0304,-3.50448,-0.22406,0.55476
514.929,57.08879,-3.50449,-0.23499,0.55446
515.529,57.1473,-3.50537,-0.23608,0.55415
516.129,57.2056,-3.50513,-0.2477,0.55384
516.729,57.2639,-3.50646,-0.26955,0.55354
517.329,57.32225,-3.50645,-0.27714,0.55323
517.929,57.3808,-3.50749,-0.27215,0.55292
518.529,57.4392,-3.50776,-0.29811,0.55262
519.129,57.4978,-3.50891,-0.29725,0.55231
519.729,57.55641,-3.5091,-0.308,0.552
520.329,57.6151,-3.51007,-0.303,0.5517
520.929,57.67374,-3.51024,-0.31602,0.55139
521.529,57.7323,-3.50997,-0.3223,0.55108
522.129,57.7909,-3.50997,-0.33066,0.55078
522.729,57.84949,-3.50995,-0.33116,0.55047
523.329,57.90817,-3.50996,-0.33345,0.55016
523.929,57.96677,-3.51122,-0.35612,0.54986
524.529,58.02539,-3.5126,-0.35435,0.54955
525.129,58.0842,-3.5126,-0.36702,0.54924
525.729,58.14297,-3.51392,-0.37368,0.54894
526.329,58.20171,-3.5153,-0.37585,0.54863
526.929,58.26056,-3.51523,-0.36769,0.54832
527.529,58.31944,-3.51552,-0.36487,0.54801
528.129,58.37836,-3.51655,-0.37568,0.54771
528.729,58.43761,-3.51523,-0.36843,0.5474
529.329,58.4964,-3.51523,-0.37998,0.54709
529.929,58.5553,-3.51648,-0.37996,0.54679
530.529,58.61407,-3.51658,-0.38496,0.54648
531.129,58.6727,-3.51785,-0.37037,0.54618
531.729,58.73166,-3.51886,-0.3784,0.54587
532.329,58.79065,-3.52016,-0.38602,0.54556
532.929,58.84964,-3.5192,-0.39178,0.54526
533.529,58.90849,-3.51884,-0.39494,0.54495
534.129,58.9673,-3.52018,-0.4063,0.54464
534.729,59.02607,-3.52159,-0.40098,0.54434
535.329,59.085,-3.52159,-0.39984,0.54403
535.929,59.14385,-3.52151,-0.38798,0.54372
536.529,59.2028,-3.52289,-0.38189,0.54342
537.129,59.2616,-3.5229,-0.39145,0.54311
537.729,59.3205,-3.5229,-0.39317,0.54281
538.329,59.37936,-3.52329,-0.3968,0.5425
538.929,59.43821,-3.52291,-0.39118,0.54219
539.529,59.49716,-3.52422,-0.40143,0.54189
540.129,59.556,-3.52479,-0.40837,0.54158
540.729,59.615,-3.52553,-0.40847,0.54128
541.329,59.6739,-3.52557,-0.40556,0.54097
541.929,59.73291,-3.52685,-0.40808,0.54066
542.529,59.7919,-3.52685,-0.41737,0.54036
543.129,59.85076,-3.52684,-0.42532,0.54005
543.729,59.9097,-3.52815,-0.42118,0.53975
544.329,59.96866,-3.52948,-0.42321,0.53944
544.929,60.02775,-3.52817,-0.43535,0.53914
545.529,60.0868,-3.52817,-0.44593,0.53883
546.129,60.14569,-3.52956,-0.43357,0.53853
546.729,60.20462,-3.53085,-0.43455,0.53822
547.329,60.2636,-3.53097,-0.43821,0.53792
547.929,60.32266,-3.53211,-0.43001,0.53761
548.529,60.38168,-3.53342,-0.43563,0.53731
549.129,60.4406,-3.53343,-0.44358,0.537
549.729,60.49969,-3.53343,-0.43331,0.5367
550.329,60.559,-3.53279,-0.44263,0.53639
550.929,60.6184,-3.53337,-0.44525,0.53609
551.529,60.67748,-3.53527,-0.43196,0.53578
552.129,60.7369,-3.53447,-0.43179,0.53548
552.729,60.7962,-3.53442,-0.45166,0.53517
553.329,60.8556,-3.53442,-0.44819,0.53487
553.929,60.91515,-3.53583,-0.4492,0.53457
554.529,60.97419,-3.53757,-0.44367,0.53426
555.129,61.03337,-3.53544,-0.44797,0.53396
555.729,61.09251,-3.53703,-0.44365,0.53365
556.329,61.1516,-3.53843,-0.45794,0.53335
556.929,61.2106,-3.53968,-0.4725,0.53305
557.529,61.26973,-3.53837,-0.47089,0.53274
558.129,61.329,-3.53835,-0.48256,0.53244
558.729,61.3883,-3.53836,-0.48984,0.53214
559.329,61.44771,-3.53968,-0.47529,0.53183
559.929,61.50691,-3.53969,-0.47875,0.53153
560.529,61.5662,-3.54214,-0.47996,0.53123
561.129,61.62546,-3.54093,-0.48434,0.53092
561.729,61.68486,-3.54243,-0.4869,0.53062
562.329,61.74415,-3.54243,-0.4714,0.53032
562.929,61.80356,-3.54243,-0.47804,0.53002
563.529,61.86302,-3.54257,-0.47888,0.52971
564.129,61.92249,-3.5445,-0.48906,0.52941
564.729,61.98186,-3.54374,-0.46973,0.52911
565.329,62.0413,-3.54374,-0.47233,0.52881
565.929,62.10085,-3.54374,-0.49071,0.5285
566.529,62.1606,-3.54517,-0.4888,0.5282
567.129,62.22015,-3.54008,-0.47541,0.5279
567.729,62.27936,-3.54133,-0.48218,0.5276
568.329,62.3387,-3.55817,-0.49779,0.5273
568.929,62.39805,-3.55227,-0.50973,0.527
569.529,62.45777,-3.554,-0.5035,0.5267
570.129,62.51745,-3.5523,-0.49813,0.52639
570.729,62.5769,-3.55003,-0.50717,0.52609
571.329,62.6365,-3.55147,-0.48558,0.52579
571.929,62.69611,-3.55106,-0.49837,0.52549
572.529,62.75575,-3.54974,-0.49088,0.52519
573.129,62.8156,-3.55222,-0.49492,0.52489
573.729,62.87526,-3.55339,-0.5082,0.52459
574.329,62.93512,-3.55356,-0.5176,0.52429
574.929,62.9949,-3.55248,-0.50975,0.52399
575.529,63.0547,-3.55241,-0.51822,0.52369
576.129,63.11445,-3.5524,-0.52109,0.52339
576.729,63.17423,-3.55373,-0.5051,0.52309
577.329,63.23405,-3.55373,-0.51163,0.52279
577.929,63.29382,-3.55479,-0.5099,0.52249
578.529,63.35363,-3.54826,-0.5242,0.5222
579.129,63.4133,-3.55126,-0.52068,0.5219
579.729,63.47277,-3.55248,-0.53348,0.5216
580.329,63.53258,-3.55333,-0.52721,0.5213
580.929,63.59209,-3.55244,-0.53375,0.521
581.529,63.6521,-3.55252,-0.52182,0.5207
582.129,63.7119,-3.55394,-0.51484,0.52041
582.729,63.77185,-3.55526,-0.49369,0.52011
583.329,63.83172,-3.55391,-0.49504,0.51981
583.929,63.8914,-3.55526,-0.48834,0.51951
584.529,63.95125,-3.55526,-0.49692,0.51922
585.129,64.01097,-3.55592,-0.50538,0.51892
585.729,64.0708,-3.55592,-0.49552,0.51862
586.329,64.13061,-3.55592,-0.50354,0.51832
586.929,64.1904,-3.55658,-0.49772,0.51803
587.529,64.25019,-3.55723,-0.49955,0.51773
588.129,64.30981,-3.55689,-0.50578,0.51743
588.729,64.36954,-3.55855,-0.49229,0.51714
589.329,64.42928,-3.55658,-0.49878,0.51684
589.929,64.48917,-3.55658,-0.49183,0.51655
590.529,64.54898,-3.5579,-0.50682,0.51625
591.129,64.6089,-3.55786,-0.51143,0.51596
591.729,64.66865,-3.55789,-0.51026,0.51566
592.329,64.72829,-3.5592,-0.50766,0.51537
592.929,64.7879,-3.55805,-0.50368,0.51507
593.529,64.84745,-3.55896,-0.52509,0.51478
594.129,64.907,-3.56053,-0.50526,0.51448
594.729,64.96637,-3.55991,-0.51627,0.51419
595.329,65.026,-3.55931,-0.52307,0.51389
595.929,65.0857,-3.56161,-0.53725,0.5136
596.529,65.1455,-3.56153,-0.52803,0.51331
597.129,65.20546,-3.56102,-0.52994,0.51301
597.729,65.2651,-3.5614,-0.52862,0.51272
598.329,65.32489,-3.56055,-0.52928,0.51243
598.929,65.38463,-3.56007,-0.52373,0.51213
599.529,65.4443,-3.56103,-0.52631,0.51184
600.129,65.50405,-3.56239,-0.52388,0.51155
600.729,65.5634,-3.5624,-0.51828,0.51126
601.329,65.6229,-3.56371,-0.50887,0.51097
601.929,65.68245,-3.56371,-0.51887,0.51067
602.529,65.74223,-3.56371,-0.54113,0.51038
603.129,65.80212,-3.56371,-0.53544,0.51009
603.729,65.86211,-3.56371,-0.55539,0.5098
604.329,65.92201,-3.56258,-0.5567,0.50951
604.929,65.98216,-3.56256,-0.54294,0.50922
605.529,66.04219,-3.56371,-0.54709,0.50893
606.129,66.1023,-3.56374,-0.53951,0.50864
606.729,66.1627,-3.56272,-0.54791,0.50835
607.329,66.22322,-3.56403,-0.55748,0.50806
607.929,66.2838,-3.56475,-0.55806,0.50777
608.529,66.3442,-3.56504,-0.55885,0.50748
609.129,66.40439,-3.56503,-0.57088,0.50719
609.729,66.46438,-3.56637,-0.54791,0.5069
610.329,66.52447,-3.56502,-0.53723,0.50661
610.929,66.58463,-3.56502,-0.53433,0.50632
611.529,66.6446,-3.56601,-0.53322,0.50603
612.129,66.70492,-3.56601,-0.54003,0.50575
612.729,66.765,-3.56598,-0.53364,0.50546
613.329,66.82513,-3.56509,-0.53912,0.50517
613.929,66.88545,-3.56767,-0.53445,0.50488
614.529,66.9455,-3.56766,-0.53373,0.5046
615.129,67.00562,-3.56766,-0.52961,0.50431
615.729,67.0658,-3.56876,-0.55193,0.50402
616.329,67.12625,-3.56899,-0.53855,0.50374
616.929,67.18645,-3.56996,-0.55437,0.50345
617.529,67.24669,-3.56996,-0.55682,0.50316
618.129,67.307,-3.56996,-0.57195,0.50288
618.729,67.36734,-3.56768,-0.55843,0.50259
619.329,67.42774,-3.56764,-0.55885,0.50231
619.929,67.48807,-3.56897,-0.55608,0.50202
620.529,67.54863,-3.56897,-0.55398,0.50174
621.129,67.60893,-3.56765,-0.55908,0.50145
621.729,67.66901,-3.56897,-0.54721,0.50117
622.329,67.7293,-3.56897,-0.52733,0.50088
622.929,67.78971,-3.56897,-0.52569,0.5006
623.529,67.85002,-3.57029,-0.52152,0.50032
624.129,67.91022,-3.56928,-0.52674,0.50003
624.729,67.97023,-3.56886,-0.52663,0.49975
625.329,68.03056,-3.56886,-0.50979,0.49947
625.929,68.09125,-3.57018,-0.52545,0.49919
626.529,68.15172,-3.57018,-0.52453,0.4989
627.129,68.21202,-3.56905,-0.53695,0.49862
627.729,68.2723,-3.56884,-0.52155,0.49834
628.329,68.33241,-3.57018,-0.5385,0.49806
628.929,68.39279,-3.57013,-0.53739,0.49778
629.529,68.4532,-3.56913,-0.53848,0.4975
630.129,68.51382,-3.57018,-0.53727,0.49722
630.729,68.57441,-3.57146,-0.54045,0.49693
631.329,68.63498,-3.57175,-0.5399,0.49665
631.929,68.69529,-3.5728,-0.55011,0.49637
632.529,68.7558,-3.57283,-0.53859,0.4961
633.129,68.8163,-3.57412,-0.54017,0.49582
633.729,68.87684,-3.57314,-0.53173,0.49554
634.329,68.93705,-3.57314,-0.5389,0.49526
634.929,68.99754,-3.57315,-0.53418,0.49498
635.529,69.058,-3.57303,-0.53097,0.4947
636.129,69.11842,-3.57303,-0.52624,0.49442
636.729,69.1789,-3.57303,-0.53142,0.49414
637.329,69.23918,-3.57172,-0.52386,0.49387
637.929,69.29958,-3.57172,-0.52564,0.49359
638.529,69.3601,-3.57172,-0.52575,0.49331
639.129,69.42064,-3.57303,-0.51792,0.49304
639.729,69.48102,-3.57303,-0.51415,0.49276
640.329,69.54146,-3.57435,-0.52459,0.49248
640.929,69.602,-3.57435,-0.51932,0.49221
641.529,69.66247,-3.57435,-0.53341,0.49193
642.129,69.72299,-3.57435,-0.54459,0.49166
642.729,69.78354,-3.57435,-0.54625,0.49138
643.329,69.84395,-3.57435,-0.51598,0.49111
643.929,69.90398,-3.57333,-0.53398,0.49083
644.529,69.96422,-3.57434,-0.55486,0.49056
645.129,70.0245,-3.57434,-0.54275,0.49028
645.729,70.08506,-3.57304,-0.52829,0.49001
646.329,70.14581,-3.57434,-0.5486,0.48974
646.929,70.20656,-3.57565,-0.54597,0.48946
647.529,70.2675,-3.57563,-0.53904,0.48919
648.129,70.32854,-3.57599,-0.53107,0.48892
648.729,70.38962,-3.57599,-0.53697,0.48865
649.329,70.45071,-3.57599,-0.54092,0.48837
649.929,70.5115,-3.57599,-0.53936,0.4881
650.529,70.5721,-3.57567,-0.53308,0.48783
651.129,70.63276,-3.57567,-0.51556,0.48756
651.729,70.69351,-3.57703,-0.52466,0.48729
652.329,70.75437,-3.57697,-0.5116,0.48702
652.929,70.81483,-3.57665,-0.50003,0.48675
653.529,70.87565,-3.57659,-0.49739,0.48648
654.129,70.9363,-3.57764,-0.50981,0.48621
654.729,70.9974,-3.57766,-0.50032,0.48594
655.329,71.05835,-3.57534,-0.50829,0.48567
655.929,71.11922,-3.57627,-0.49683,0.4854
656.529,71.18002,-3.57599,-0.48755,0.48513
657.129,71.24079,-3.57566,-0.49898,0.48486
657.729,71.30166,-3.57566,-0.48215,0.4846
658.329,71.36248,-3.57566,-0.47526,0.48433
658.929,71.42349,-3.57576,-0.48242,0.48406
659.529,71.48445,-3.57753,-0.4738,0.48379
660.129,71.5454,-3.57753,-0.48639,0.48353
660.729,71.60639,-3.57682,-0.47478,0.48326
661.329,71.66718,-3.57696,-0.48596,0.483
661.929,71.72797,-3.57605,-0.48424,0.48273
662.529,71.7889,-3.57688,-0.47293,0.48246
663.129,71.84989,-3.5772,-0.47467,0.4822
663.729,71.91102,-3.5772,-0.46055,0.48193
664.329,71.97203,-3.5772,-0.46432,0.48167
664.929,72.0326,-3.5772,-0.45477,0.48141
665.529,72.0934,-3.57716,-0.44247,0.48114
666.129,72.15429,-3.57819,-0.44397,0.48088
666.729,72.21558,-3.57792,-0.43444,0.48061
667.329,72.27679,-3.57516,-0.42895,0.48035
667.929,72.33779,-3.57522,-0.45226,0.48009
668.529,72.39862,-3.57519,-0.45762,0.47983
669.129,72.45959,-3.57654,-0.44841,0.47956
669.729,72.52046,-3.57652,-0.45707,0.4793
670.329,72.5816,-3.57653,-0.46036,0.47904
670.929,72.6427,-3.5775,-0.48286,0.47878
671.529,72.70379,-3.57753,-0.47224,0.47852
672.129,72.76482,-3.57884,-0.49158,0.47826
672.729,72.8257,-3.57753,-0.47501,0.478
673.329,72.88654,-3.57624,-0.49386,0.47774
673.929,72.94751,-3.57622,-0.49508,0.47748
674.529,73.00854,-3.57622,-0.4827,0.47722
675.129,73.06953,-3.5775,-0.49112,0.47696
675.729,73.1305,-3.57753,-0.46229,0.4767
676.329,73.19158,-3.57643,-0.47066,0.47644
676.929,73.2526,-3.57621,-0.46518,0.47618
677.529,73.31365,-3.57763,-0.44849,0.47593
678.129,73.37474,-3.57754,-0.45878,0.47567
678.729,73.43598,-3.57621,-0.45366,0.47541
679.329,73.49709,-3.57705,-0.44712,0.47516
679.929,73.55812,-3.5772,-0.43561,0.4749
680.529,73.6191,-3.5772,-0.44422,0.47464
681.129,73.67987,-3.57688,-0.4503,0.47439
681.729,73.74075,-3.57588,-0.44537,0.47413
682.329,73.80151,-3.57621,-0.43631,0.47388
682.929,73.8623,-3.57621,-0.4544,0.47362
683.529,73.92335,-3.57648,-0.45786,0.47337
684.129,73.98451,-3.57767,-0.46788,0.47311
684.729,74.04547,-3.57632,-0.46125,0.47286
685.329,74.1065,-3.57632,-0.461,0.4726
685.929,74.16767,-3.57632,-0.47739,0.47235
686.529,74.229,-3.57501,-0.47229,0.4721
687.129,74.29043,-3.57669,-0.47547,0.47185
687.729,74.35195,-3.57764,-0.47256,0.47159
688.329,74.41322,-3.57764,-0.47679,0.47134
688.929,74.47462,-3.57764,-0.47001,0.47109
689.529,74.53596,-3.57764,-0.47006,0.47084
690.129,74.59721,-3.57795,-0.47244,0.47059
690.729,74.65855,-3.57731,-0.47677,0.47034
691.329,74.71987,-3.57731,-0.48036,0.47009
691.929,74.78146,-3.57727,-0.48158,0.46984
692.529,74.843,-3.57698,-0.49854,0.46959
693.129,74.9042,-3.57827,-0.51406,0.46934
693.729,74.96548,-3.57697,-0.50103,0.46909
694.329,75.0266,-3.57697,-0.4896,0.46884
694.929,75.08774,-3.57833,-0.47882,0.46859
695.529,75.14894,-3.57769,-0.47366,0.46834
696.129,75.20975,-3.57764,-0.50188,0.4681
696.729,75.27029,-3.57763,-0.48443,0.46785
697.329,75.3313,-3.57763,-0.48486,0.4676
697.929,75.39245,-3.57762,-0.48768,0.46735
698.529,75.4543,-3.57764,-0.49685,0.46711
699.129,75.5155,-3.57873,-0.52388,0.46686
699.729,75.57677,-3.57763,-0.5203,0.46662
700.329,75.6379,-3.57631,-0.53709,0.46637
700.929,75.69917,-3.57764,-0.55478,0.46613
701.529,75.76034,-3.5783,-0.55154,0.46588
702.129,75.8216,-3.57764,-0.55716,0.46564
702.729,75.88283,-3.579,-0.55036,0.46539
703.329,75.944,-3.57896,-0.56095,0.46515
703.929,76.00514,-3.57764,-0.57318,0.4649
704.529,76.06645,-3.57876,-0.56499,0.46466
705.129,76.12776,-3.57796,-0.57682,0.46442
705.729,76.1893,-3.57796,-0.57112,0.46418
706.329,76.25076,-3.57796,-0.57253,0.46393
706.929,76.31236,-3.57903,-0.60168,0.46369
707.529,76.3741,-3.57906,-0.6063,0.46345
708.129,76.4359,-3.57906,-0.59445,0.46321
708.729,76.49758,-3.57897,-0.59353,0.46297
709.329,76.55936,-3.58038,-0.59538,0.46273
709.929,76.62115,-3.57907,-0.60264,0.46249
710.529,76.68299,-3.5806,-0.5877,0.46225
711.129,76.74475,-3.5806,-0.60664,0.46201
711.729,76.80659,-3.57928,-0.57918,0.46177
712.329,76.86833,-3.57935,-0.58527,0.46153
712.929,76.93008,-3.57897,-0.5789,0.46129
713.529,76.9917,-3.57928,-0.57602,0.46105
714.129,77.0535,-3.57928,-0.5852,0.46082
714.729,77.1154,-3.57925,-0.59431,0.46058
715.329,77.17749,-3.57961,-0.61728,0.46034
715.929,77.23935,-3.5823,-0.62204,0.46011
716.529,77.30116,-3.59112,-0.6199,0.45987
717.129,77.36272,-3.56423,-0.58864,0.45963
717.729,77.4243,-3.5763,-0.59304,0.4594
718.329,77.48573,-3.57792,-0.56256,0.45916
718.929,77.54738,-3.57845,-0.57565,0.45893
719.529,77.60892,-3.57961,-0.56384,0.45869
720.129,77.67064,-3.58061,-0.55739,0.45846
720.729,77.73246,-3.57861,-0.57482,0.45822
721.329,77.7942,-3.56931,-0.54395,0.45799
721.929,77.85565,-3.57454,-0.54731,0.45776
722.529,77.9169,-3.59616,-0.6036,0.45752
723.129,77.97848,-3.58122,-0.58679,0.45729
723.729,78.04005,-3.5806,-0.58425,0.45706
724.329,78.10175,-3.58062,-0.57803,0.45683
724.929,78.16375,-3.57929,-0.58366,0.4566
725.529,78.22585,-3.57367,-0.58807,0.45636
726.129,78.288,-3.57226,-0.57661,0.45613
726.729,78.34945,-3.57868,-0.58381,0.4559
727.329,78.4108,-3.58907,-0.62998,0.45567
727.929,78.47231,-3.59436,-0.62883,0.45544
728.529,78.53379,-3.58123,-0.62914,0.45521
729.129,78.59565,-3.58004,-0.62693,0.45498
729.729,78.65743,-3.57939,-0.62004,0.45475
730.329,78.7192,-3.57939,-0.62247,0.45453
730.929,78.78105,-3.57939,-0.62761,0.4543
731.529,78.8429,-3.58038,-0.65757,0.45407
732.129,78.9047,-3.58038,-0.65321,0.45384
732.729,78.96644,-3.58038,-0.6576,0.45361
733.329,79.0282,-3.58004,-0.65011,0.45339
733.929,79.08999,-3.58005,-0.62967,0.45316
734.529,79.15188,-3.57972,-0.63537,0.45293
735.129,79.21367,-3.581,-0.63436,0.45271
735.729,79.27542,-3.58103,-0.63017,0.45248
736.329,79.3372,-3.58103,-0.64932,0.45226
736.929,79.399,-3.57979,-0.62778,0.45203
737.529,79.46091,-3.58078,-0.64136,0.45181
738.129,79.5227,-3.58103,-0.64903,0.45158
738.729,79.5845,-3.57972,-0.63642,0.45136
739.329,79.64611,-3.58102,-0.62572,0.45114
739.929,79.70777,-3.58152,-0.63228,0.45091
740.529,79.76963,-3.58199,-0.64141,0.45069
741.129,79.83159,-3.58183,-0.6448,0.45047
741.729,79.89356,-3.58225,-0.64757,0.45025
742.329,79.95537,-3.58127,-0.68785,0.45002
742.729,79.99629,-3.58126,-0.69345,0.44988