File: 01_Data/Composite_Deck_Board/STA/N2/10K_min/Composite_Deck_Board_STA_N2_10KData_210625_R2.csv
##Temp./Â°C,Time/min,Mass loss(subtr.2)/mg,DSC(subtr.2)/mW,Sensit./(uV/mW)
49.33,10.00917,-0.0498,-0.01233866,0.61832
49.93,11.38672,-0.05546662,0.08699662,0.61864
50.53,11.73099,-0.05530359,0.17972,0.61896
51.13,11.97194,-0.05688019,0.22207,0.61927
51.73,12.17424,-0.05743711,0.2817,0.61959
52.33,12.34811,-0.05958549,0.32695,0.6199
52.93,12.50447,-0.05841386,0.3519,0.62022
53.53,12.64888,-0.05967059,0.39723,0.62053
54.13,12.78502,-0.05972834,0.42303,0.62084
54.73,12.9125,-0.05961894,0.45075,0.62115
55.33,13.03454,-0.05917805,0.48638,0.62146
55.93,13.1523,-0.05362857,0.49227,0.62176
56.53,13.2642,-0.06056311,0.50478,0.62207
57.13,13.37421,-0.05943083,0.53903,0.62237
57.73,13.48216,-0.06204692,0.54474,0.62267
58.33,13.58588,-0.06096554,0.56572,0.62298
58.93,13.6876,-0.06075546,0.5822,0.62328
59.53,13.7869,-0.06339149,0.58892,0.62358
60.13,13.8842,-0.0623287,0.60107,0.62387
60.73,13.9802,-0.0634088,0.61544,0.62417
61.33,14.07456,-0.06476871,0.62926,0.62447
61.93,14.16729,-0.06469071,0.64553,0.62476
62.53,14.259,-0.06472016,0.66158,0.62505
63.13,14.34866,-0.06340808,0.65492,0.62534
63.73,14.43685,-0.06473922,0.67629,0.62564
64.33,14.52411,-0.06466158,0.68316,0.62592
64.93,14.6104,-0.06484427,0.69069,0.62621
65.53,14.69563,-0.06551066,0.71178,0.6265
66.13,14.78001,-0.0656727,0.7171,0.62678
66.73,14.8635,-0.06572283,0.72606,0.62707
67.33,14.9465,-0.06690535,0.73644,0.62735
67.93,15.02769,-0.06734949,0.74607,0.62763
68.53,15.10855,-0.0673751,0.7678,0.62791
69.13,15.189,-0.0673507,0.77003,0.62819
69.73,15.26795,-0.06735218,0.77262,0.62847
70.33,15.34649,-0.0699594,0.788,0.62875
70.93,15.4243,-0.06856246,0.79605,0.62902
71.53,15.5015,-0.06864877,0.80763,0.6293
72.13,15.57826,-0.06724626,0.81411,0.62957
72.73,15.6542,-0.06715574,0.82504,0.62984
73.33,15.7301,-0.06856006,0.83487,0.63011
73.93,15.80494,-0.06855002,0.84374,0.63038
74.53,15.8792,-0.06987001,0.84441,0.63065
75.13,15.95302,-0.06854731,0.8555,0.63091
75.73,16.0261,-0.06850289,0.87782,0.63118
76.33,16.09853,-0.06855876,0.86871,0.63144
76.93,16.1707,-0.06993656,0.88499,0.63171
77.53,16.24223,-0.06989613,0.89812,0.63197
78.13,16.31369,-0.07118839,0.90818,0.63223
78.73,16.3841,-0.07088129,0.91134,0.63249
79.33,16.45468,-0.07066925,0.91262,0.63274
79.93,16.5248,-0.06986191,0.92783,0.633
80.53,16.5947,-0.06988334,0.92987,0.63325
81.13,16.66362,-0.07117644,0.93067,0.63351
81.73,16.73181,-0.07120989,0.93697,0.63376
82.33,16.80007,-0.07132912,0.94242,0.63401
82.93,16.86855,-0.07098183,0.96091,0.63426
83.53,16.9367,-0.07096335,0.97156,0.63451
84.13,17.00421,-0.07229048,0.96193,0.63476
84.73,17.07139,-0.07282374,0.9754,0.63501
85.33,17.13792,-0.07359993,0.97646,0.63525
85.93,17.20453,-0.0724152,0.99853,0.63549
86.53,17.27026,-0.06391128,0.98927,0.63574
87.13,17.33589,-0.08107046,0.99348,0.63598
87.73,17.40117,-0.075111,1.00377,0.63622
88.33,17.4662,-0.07503298,1.01826,0.63646
88.93,17.53107,-0.07371567,1.01836,0.63669
89.53,17.59574,-0.07251656,1.01325,0.63693
90.13,17.65999,-0.07377245,1.03751,0.63716
90.73,17.72364,-0.07497781,1.03634,0.6374
91.33,17.78739,-0.07370454,1.03728,0.63763
91.93,17.8508,-0.07503156,1.04716,0.63786
92.53,17.91433,-0.07379308,1.05343,0.63809
93.13,17.9773,-0.07503018,1.07354,0.63832
93.73,18.04017,-0.07503,1.06847,0.63855
94.33,18.10324,-0.07506871,1.08467,0.63877
94.93,18.16587,-0.07643384,1.09828,0.639
95.53,18.2283,-0.07503068,1.10653,0.63922
96.13,18.29032,-0.07777933,1.1238,0.63944
96.73,18.3521,-0.07778528,1.13323,0.63966
97.33,18.41394,-0.07906818,1.14102,0.63988
97.93,18.47549,-0.07776721,1.15,0.6401
98.53,18.53669,-0.07776998,1.16429,0.64032
99.13,18.59791,-0.07618038,1.19208,0.64053
99.73,18.65934,-0.07755001,1.21677,0.64075
100.33,18.72043,-0.07756919,1.2187,0.64096
100.93,18.7814,-0.07756128,1.22107,0.64117
101.53,18.84206,-0.07756115,1.24373,0.64139
102.13,18.90271,-0.07887204,1.252,0.6416
102.73,18.96343,-0.08018802,1.26885,0.6418
103.33,19.0239,-0.07877625,1.28587,0.64201
103.93,19.08399,-0.07886996,1.29504,0.64222
104.53,19.14397,-0.07886997,1.30987,0.64242
105.13,19.2037,-0.07967091,1.31967,0.64262
105.73,19.2638,-0.07994166,1.35269,0.64283
106.33,19.32382,-0.08018641,1.36875,0.64303
106.93,19.38393,-0.08018186,1.39367,0.64323
107.53,19.44389,-0.08037354,1.41774,0.64342
108.13,19.5036,-0.07997038,1.43854,0.64362
108.73,19.56314,-0.08101359,1.46324,0.64382
109.33,19.62257,-0.07964371,1.49219,0.64401
109.93,19.682,-0.07965997,1.52044,0.6442
110.53,19.74134,-0.07836772,1.54157,0.6444
111.13,19.80046,-0.07995932,1.55596,0.64459
111.73,19.85964,-0.08128169,1.59181,0.64478
112.33,19.9188,-0.08127651,1.62403,0.64496
112.93,19.97786,-0.07999198,1.63727,0.64515
113.53,20.03697,-0.07978221,1.67849,0.64534
114.13,20.0957,-0.07991759,1.70647,0.64552
114.73,20.15437,-0.08118786,1.73973,0.6457
115.33,20.21303,-0.08259025,1.77942,0.64589
115.93,20.2717,-0.08144179,1.80434,0.64607
116.53,20.33059,-0.08127998,1.85736,0.64624
117.13,20.38915,-0.08160885,1.88485,0.64642
117.73,20.44751,-0.08101442,1.92261,0.6466
118.33,20.5058,-0.08095957,1.9713,0.64677
118.93,20.56416,-0.08127985,2.01646,0.64695
119.53,20.62247,-0.08130383,2.05764,0.64712
120.13,20.68084,-0.08062999,2.141,0.64729
120.73,20.739,-0.0812711,2.20562,0.64746
121.33,20.79625,-0.07992937,2.28984,0.64763
121.93,20.85408,-0.08128042,2.39637,0.6478
122.53,20.9116,-0.08128,2.4918,0.64797
123.13,20.96973,-0.08128181,2.59617,0.64813
123.73,21.028,-0.08391721,2.68668,0.6483
124.33,21.0857,-0.08406959,2.73739,0.64846
124.93,21.1436,-0.08290366,2.70714,0.64862
125.53,21.20127,-0.08123418,2.58942,0.64878
126.13,21.25858,-0.08259072,2.36061,0.64894
126.73,21.31567,-0.08259,2.10607,0.6491
127.33,21.37249,-0.08258999,1.92942,0.64926
127.93,21.42938,-0.08258823,1.7936,0.64941
128.53,21.48622,-0.08391211,1.73209,0.64957
129.13,21.54293,-0.08254063,1.71364,0.64972
129.73,21.59937,-0.08392006,1.73051,0.64987
130.33,21.65612,-0.08498244,1.76279,0.65002
130.93,21.7127,-0.08522987,1.80999,0.65017
131.53,21.76906,-0.08523003,1.8325,0.65032
132.13,21.82544,-0.0839462,1.79209,0.65046
132.73,21.88154,-0.08377622,1.67417,0.65061
133.33,21.93761,-0.08324986,1.53632,0.65075
133.93,21.9935,-0.08312417,1.43081,0.6509
134.53,22.04929,-0.08588298,1.34976,0.65104
135.13,22.10506,-0.08419224,1.28614,0.65118
135.73,22.16086,-0.08845549,1.24172,0.65132
136.33,22.21668,-0.07752646,1.20904,0.65146
136.93,22.27244,-0.08295124,1.19246,0.65159
137.53,22.32799,-0.08566937,1.17027,0.65173
138.13,22.38341,-0.0856703,1.15526,0.65186
138.73,22.4389,-0.08502206,1.16209,0.65199
139.33,22.4938,-0.08632617,1.16247,0.65213
139.93,22.54896,-0.08566779,1.15211,0.65226
140.53,22.6043,-0.08699642,1.15292,0.65239
141.13,22.65953,-0.08699653,1.1376,0.65251
141.73,22.71552,-0.08600147,1.15783,0.65264
142.33,22.7705,-0.08596618,1.16494,0.65277
142.93,22.82574,-0.08566987,1.1601,0.65289
143.53,22.88091,-0.08566769,1.15571,0.65301
144.13,22.936,-0.08698464,1.1621,0.65314
144.73,22.9911,-0.08698067,1.16695,0.65326
145.33,23.04587,-0.08828262,1.17104,0.65338
145.93,23.1007,-0.08829115,1.1759,0.65349
146.53,23.15558,-0.08698136,1.16951,0.65361
147.13,23.21041,-0.08697992,1.18483,0.65373
147.73,23.26524,-0.08625592,1.18393,0.65384
148.33,23.32011,-0.08565338,1.18865,0.65395
148.93,23.37486,-0.08699042,1.18439,0.65407
149.53,23.42946,-0.08699,1.19337,0.65418
150.13,23.48415,-0.08699,1.20065,0.65429
150.73,23.53866,-0.08699,1.19834,0.65439
151.33,23.59335,-0.08698997,1.19753,0.6545
151.93,23.64798,-0.08700449,1.20438,0.65461
152.53,23.70281,-0.08829815,1.21048,0.65471
153.13,23.75725,-0.08883154,1.21917,0.65481
153.73,23.8118,-0.08830067,1.22123,0.65492
154.33,23.8657,-0.08900973,1.23756,0.65502
154.93,23.9201,-0.08896001,1.23295,0.65512
155.53,23.9747,-0.08895832,1.24058,0.65522
156.13,24.02892,-0.08894687,1.2386,0.65531
156.73,24.084,-0.08895988,1.24353,0.65541
157.33,24.1386,-0.08896,1.23715,0.6555
157.93,24.1932,-0.08896,1.2405,0.6556
158.53,24.2483,-0.08896,1.24337,0.65569
159.13,24.303,-0.08896,1.24699,0.65578
159.73,24.35738,-0.08896,1.2446,0.65587
160.33,24.41179,-0.08896058,1.2354,0.65596
160.93,24.466,-0.0904945,1.24132,0.65605
161.53,24.52039,-0.09117513,1.2423,0.65613
162.13,24.57479,-0.08628203,1.2506,0.65622
162.73,24.62925,-0.08808727,1.24038,0.6563
163.33,24.6837,-0.08874025,1.24078,0.65638
163.93,24.73815,-0.08874,1.24211,0.65647
164.53,24.79263,-0.08874909,1.24019,0.65655
165.13,24.84684,-0.09016218,1.24243,0.65662
165.73,24.90115,-0.09017,1.24824,0.6567
166.33,24.95561,-0.09016755,1.24981,0.65678
166.93,25.0098,-0.08852085,1.24846,0.65685
167.53,25.06425,-0.08851342,1.2541,0.65693
168.13,25.1186,-0.08983893,1.25185,0.657
168.73,25.1726,-0.09114815,1.25663,0.65707
169.33,25.22681,-0.09114988,1.25991,0.65714
169.93,25.2809,-0.0897687,1.26036,0.65721
170.53,25.3349,-0.08984146,1.26457,0.65728
171.13,25.38914,-0.09049029,1.27669,0.65735
171.73,25.44335,-0.09117583,1.26061,0.65741
172.33,25.49759,-0.09110647,1.27182,0.65748
172.93,25.5518,-0.09113072,1.27089,0.65754
173.53,25.60564,-0.09247503,1.26728,0.6576
174.13,25.65975,-0.09247,1.28422,0.65767
174.73,25.7137,-0.09245777,1.28235,0.65773
175.33,25.76793,-0.09115312,1.2874,0.65778
175.93,25.82208,-0.09109404,1.29006,0.65784
176.53,25.87593,-0.0924249,1.28787,0.6579
177.13,25.92996,-0.09278982,1.28823,0.65795
177.73,25.98379,-0.0915571,1.29147,0.65801
178.33,26.0377,-0.09148123,1.29898,0.65806
178.93,26.09179,-0.09279636,1.29109,0.65811
179.53,26.14565,-0.09278999,1.29639,0.65816
180.13,26.1997,-0.09279005,1.29319,0.65821
180.73,26.25358,-0.09138553,1.29874,0.65826
181.33,26.30718,-0.09148016,1.29227,0.65831
181.93,26.36102,-0.09287457,1.3038,0.65835
182.53,26.4146,-0.09279942,1.30451,0.6584
183.13,26.46845,-0.0941323,1.31006,0.65844
183.73,26.52236,-0.09412004,1.31526,0.65848
184.33,26.576,-0.09412,1.32106,0.65852
184.93,26.62988,-0.09412,1.32896,0.65856
185.53,26.6836,-0.09412,1.32659,0.6586
186.13,26.73729,-0.09412229,1.32813,0.65864
186.73,26.79105,-0.09678542,1.33305,0.65867
187.33,26.84457,-0.09617215,1.33079,0.65871
187.93,26.89817,-0.09405825,1.34914,0.65874
188.53,26.9518,-0.09269111,1.3307,0.65878
189.13,27.0054,-0.09396087,1.33447,0.65881
189.73,27.05889,-0.094,1.34327,0.65884
190.33,27.1124,-0.0939976,1.33865,0.65887
190.93,27.16587,-0.09528212,1.32795,0.65889
191.53,27.2193,-0.09631029,1.33733,0.65892
192.13,27.273,-0.09694536,1.33829,0.65895
192.73,27.32668,-0.09900483,1.33874,0.65897
193.33,27.38035,-0.0927161,1.34223,0.659
193.93,27.434,-0.09704686,1.34633,0.65902
194.53,27.4876,-0.09809741,1.34366,0.65904
195.13,27.5409,-0.09597789,1.34836,0.65906
195.73,27.59429,-0.09734755,1.35071,0.65908
196.33,27.64752,-0.09726267,1.34768,0.6591
196.93,27.70083,-0.09860929,1.35979,0.65911
197.53,27.7542,-0.09861,1.35205,0.65913
198.13,27.80767,-0.09861017,1.35697,0.65914
198.73,27.8612,-0.09614022,1.35668,0.65915
199.33,27.91473,-0.09341559,1.36195,0.65917
199.93,27.96815,-0.11554,1.36025,0.65918
200.53,28.02157,-0.10342,1.37592,0.65919
201.13,28.0751,-0.09026743,1.37646,0.6592
201.73,28.128,-0.1009,1.3762,0.6592
202.33,28.1814,-0.10152,1.37319,0.65921
202.93,28.2348,-0.10157,1.395,0.65922
203.53,28.2881,-0.10157,1.38856,0.65922
204.13,28.3419,-0.10157,1.39778,0.65922
204.73,28.39531,-0.10157,1.40713,0.65922
205.33,28.44877,-0.10158,1.3981,0.65922
205.93,28.5021,-0.10289,1.414,0.65922
206.53,28.5555,-0.10129,1.41878,0.65922
207.13,28.6088,-0.10311,1.42248,0.65922
207.73,28.662,-0.1031,1.43488,0.65922
208.33,28.7155,-0.1031,1.43587,0.65921
208.93,28.7688,-0.1031,1.44066,0.6592
209.53,28.82212,-0.10193,1.45044,0.6592
210.13,28.87551,-0.10179,1.45376,0.65919
210.73,28.9289,-0.1031,1.44559,0.65918
211.33,28.98238,-0.10432,1.45962,0.65917
211.93,29.03561,-0.10453,1.46195,0.65916
212.53,29.0892,-0.10453,1.46652,0.65914
213.13,29.14265,-0.10882,1.47407,0.65913
213.73,29.1961,-0.10879,1.47628,0.65912
214.33,29.2497,-0.10077,1.48039,0.6591
214.93,29.30306,-0.1059,1.47504,0.65908
215.53,29.35636,-0.10574,1.4893,0.65906
216.13,29.40973,-0.10574,1.49326,0.65904
216.73,29.463,-0.10562,1.48912,0.65902
217.33,29.5164,-0.10672,1.48421,0.659
217.93,29.5698,-0.11019,1.48655,0.65898
218.53,29.6231,-0.10921,1.48813,0.65896
219.13,29.67665,-0.1053,1.4974,0.65893
219.73,29.73,-0.10713,1.4882,0.65891
220.33,29.7836,-0.1072,1.49668,0.65888
220.93,29.8373,-0.10979,1.50228,0.65885
221.53,29.891,-0.1098,1.49874,0.65882
222.13,29.94465,-0.1098,1.49783,0.65879
222.73,29.9983,-0.1098,1.49503,0.65876
223.33,30.0518,-0.11172,1.50384,0.65873
223.93,30.10527,-0.1111,1.51276,0.65869
224.53,30.15885,-0.11207,1.52872,0.65866
225.13,30.21225,-0.11376,1.51822,0.65862
225.73,30.2657,-0.11268,1.52943,0.65859
226.33,30.31928,-0.11407,1.52229,0.65855
226.93,30.37227,-0.11407,1.53356,0.65851
227.53,30.42575,-0.11537,1.53373,0.65847
228.13,30.47924,-0.11639,1.54226,0.65843
228.73,30.5327,-0.11734,1.5315,0.65839
229.33,30.5865,-0.11671,1.54304,0.65834
229.93,30.6401,-0.11671,1.5334,0.6583
230.53,30.69375,-0.11807,1.55191,0.65825
231.13,30.7472,-0.11926,1.55434,0.65821
231.73,30.8007,-0.11934,1.55828,0.65816
232.33,30.85417,-0.12067,1.55865,0.65811
232.93,30.9077,-0.12066,1.56202,0.65806
233.53,30.96129,-0.12328,1.5642,0.65801
234.13,31.0149,-0.12423,1.57298,0.65796
234.73,31.06825,-0.12329,1.57529,0.65791
235.33,31.12167,-0.12592,1.57713,0.65785
235.93,31.17515,-0.12496,1.5734,0.6578
236.53,31.2286,-0.12461,1.57979,0.65774
237.13,31.2822,-0.12597,1.5854,0.65768
237.73,31.33557,-0.12733,1.58117,0.65763
238.33,31.3891,-0.12856,1.59187,0.65757
238.93,31.4425,-0.12988,1.59068,0.65751
239.53,31.49595,-0.13027,1.58916,0.65745
240.13,31.54944,-0.13119,1.59354,0.65738
240.73,31.6028,-0.1319,1.5952,0.65732
241.33,31.6564,-0.13381,1.6036,0.65726
241.93,31.7098,-0.13455,1.60666,0.65719
242.53,31.76335,-0.13609,1.6193,0.65712
243.13,31.8171,-0.13693,1.60045,0.65706
243.73,31.8707,-0.13925,1.59024,0.65699
244.33,31.9238,-0.13919,1.5815,0.65692
244.93,31.9772,-0.1405,1.58812,0.65685
245.53,32.03075,-0.14195,1.59906,0.65678
246.13,32.0843,-0.14444,1.58923,0.65671
246.73,32.13844,-0.14446,1.59751,0.65663
247.33,32.192,-0.14599,1.59325,0.65656
247.93,32.24543,-0.14598,1.59087,0.65648
248.53,32.299,-0.14742,1.59452,0.65641
249.13,32.35255,-0.14735,1.59879,0.65633
249.73,32.4063,-0.14891,1.60697,0.65625
250.33,32.45994,-0.15242,1.60631,0.65617
250.93,32.51362,-0.15417,1.6158,0.65609
251.53,32.56722,-0.15529,1.60909,0.65601
252.13,32.62092,-0.15682,1.60143,0.65593
252.73,32.6747,-0.15669,1.62263,0.65584
253.33,32.72821,-0.16073,1.62817,0.65576
253.93,32.78157,-0.1621,1.61903,0.65567
254.53,32.83518,-0.16221,1.61947,0.65559
255.13,32.88867,-0.16344,1.62131,0.6555
255.73,32.94243,-0.16477,1.63044,0.65541
256.33,32.99644,-0.16767,1.6313,0.65532
256.93,33.05017,-0.16918,1.62725,0.65523
257.53,33.10388,-0.17187,1.63118,0.65514
258.13,33.15759,-0.17221,1.63451,0.65505
258.73,33.21118,-0.17475,1.64129,0.65495
259.33,33.26473,-0.17608,1.64904,0.65486
259.93,33.3185,-0.1789,1.65332,0.65476
260.53,33.37208,-0.18041,1.66077,0.65467
261.13,33.4258,-0.1832,1.66533,0.65457
261.73,33.4795,-0.18616,1.67169,0.65447
262.33,33.53306,-0.18749,1.66937,0.65437
262.93,33.58688,-0.19028,1.67334,0.65427
263.53,33.64045,-0.1933,1.67437,0.65417
264.13,33.69415,-0.1944,1.67302,0.65407
264.73,33.74781,-0.19918,1.68696,0.65397
265.33,33.80134,-0.201,1.68589,0.65386
265.93,33.8551,-0.20409,1.69099,0.65376
266.53,33.909,-0.20468,1.69477,0.65365
267.13,33.9627,-0.20738,1.70479,0.65354
267.73,34.0165,-0.21895,1.70793,0.65344
268.33,34.07025,-0.20817,1.70981,0.65333
268.93,34.12408,-0.21487,1.72019,0.65322
269.53,34.17756,-0.21874,1.71918,0.65311
270.13,34.23081,-0.22218,1.72222,0.65299
270.73,34.28409,-0.22709,1.7424,0.65288
271.33,34.33742,-0.23209,1.75152,0.65277
271.93,34.39094,-0.23674,1.74729,0.65265
272.53,34.44505,-0.2387,1.75693,0.65254
273.13,34.49917,-0.24262,1.76579,0.65242
273.73,34.55327,-0.2475,1.77728,0.65231
274.33,34.6075,-0.24929,1.78552,0.65219
274.93,34.66138,-0.25176,1.79419,0.65207
275.53,34.71523,-0.25746,1.79089,0.65195
276.13,34.7691,-0.26051,1.80018,0.65183
276.73,34.82278,-0.26403,1.78967,0.65171
277.33,34.87656,-0.26759,1.79799,0.65158
277.93,34.93036,-0.27252,1.81201,0.65146
278.53,34.98429,-0.27617,1.80682,0.65133
279.13,35.03823,-0.28071,1.80753,0.65121
279.73,35.09207,-0.28627,1.81831,0.65108
280.33,35.14598,-0.29161,1.81422,0.65096
280.93,35.19968,-0.29468,1.81458,0.65083
281.53,35.25354,-0.29954,1.82066,0.6507
282.13,35.3074,-0.30442,1.81314,0.65057
282.73,35.3612,-0.30912,1.81568,0.65044
283.33,35.41515,-0.31362,1.82494,0.6503
283.93,35.46908,-0.31709,1.82826,0.65017
284.53,35.52306,-0.32414,1.81969,0.65004
285.13,35.57707,-0.32944,1.82662,0.6499
285.73,35.631,-0.3355,1.81666,0.64977
286.33,35.6849,-0.34062,1.83509,0.64963
286.93,35.73881,-0.34612,1.83474,0.6495
287.53,35.7928,-0.35369,1.84147,0.64936
288.13,35.84681,-0.35803,1.8428,0.64922
288.73,35.90083,-0.36435,1.84858,0.64908
289.33,35.95478,-0.36765,1.83721,0.64894
289.93,36.00867,-0.37585,1.84637,0.6488
290.53,36.06258,-0.38536,1.843,0.64865
291.13,36.11647,-0.3789,1.83535,0.64851
291.73,36.17053,-0.38962,1.83202,0.64837
292.33,36.2245,-0.39792,1.82885,0.64822
292.93,36.2787,-0.4033,1.83757,0.64808
293.53,36.33287,-0.40895,1.84177,0.64793
294.13,36.38694,-0.41633,1.84703,0.64778
294.73,36.44097,-0.42067,1.85454,0.64763
295.33,36.49498,-0.42677,1.85158,0.64748
295.93,36.5489,-0.43356,1.84582,0.64733
296.53,36.60308,-0.43757,1.84871,0.64718
297.13,36.65703,-0.44583,1.84449,0.64703
297.73,36.71114,-0.45113,1.8483,0.64688
298.33,36.7652,-0.45756,1.84718,0.64672
298.93,36.8193,-0.46224,1.8466,0.64657
299.53,36.8737,-0.46843,1.84981,0.64641
300.13,36.928,-0.47489,1.85742,0.64626
300.73,36.98252,-0.48088,1.85916,0.6461
301.33,37.03669,-0.48738,1.85307,0.64594
301.93,37.09113,-0.4935,1.85358,0.64578
302.53,37.1454,-0.49876,1.85034,0.64562
303.13,37.1996,-0.50427,1.84638,0.64546
303.73,37.25412,-0.51084,1.8439,0.6453
304.33,37.3084,-0.51782,1.84273,0.64514
304.93,37.36285,-0.52432,1.84395,0.64498
305.53,37.41711,-0.52975,1.86448,0.64482
306.13,37.4711,-0.53611,1.85792,0.64465
306.73,37.5255,-0.54069,1.85578,0.64449
307.33,37.57972,-0.54884,1.8613,0.64432
307.93,37.63408,-0.55384,1.86271,0.64415
308.53,37.6886,-0.55803,1.86966,0.64399
309.13,37.74275,-0.56639,1.87236,0.64382
309.73,37.7971,-0.57139,1.87053,0.64365
310.33,37.8514,-0.57864,1.88118,0.64348
310.93,37.90562,-0.58368,1.87855,0.64331
311.53,37.95988,-0.58962,1.88987,0.64314
312.13,38.0137,-0.59656,1.88951,0.64296
312.73,38.06803,-0.60251,1.89961,0.64279
313.33,38.12257,-0.60789,1.89963,0.64262
313.93,38.1771,-0.61496,1.91244,0.64244
314.53,38.23198,-0.62067,1.91241,0.64227
315.13,38.28622,-0.62466,1.93017,0.64209
315.73,38.34042,-0.63198,1.92931,0.64191
316.33,38.39461,-0.63736,1.93062,0.64173
316.93,38.4489,-0.64491,1.92762,0.64156
317.53,38.50335,-0.65248,1.94028,0.64138
318.13,38.55784,-0.65755,1.94806,0.6412
318.73,38.6124,-0.66403,1.93694,0.64101
319.33,38.66689,-0.67047,1.95549,0.64083
319.93,38.72128,-0.6788,1.96873,0.64065
320.53,38.77578,-0.68498,1.97857,0.64047
321.13,38.83033,-0.6891,1.98273,0.64028
321.73,38.88496,-0.69511,1.98725,0.6401
322.33,38.93946,-0.70247,2.0077,0.63991
322.93,38.99398,-0.70858,2.00877,0.63973
323.53,39.04871,-0.715,2.01943,0.63954
324.13,39.1032,-0.7217,2.02471,0.63935
324.73,39.15781,-0.72885,2.03663,0.63916
325.33,39.21237,-0.7344,2.04342,0.63897
325.93,39.2667,-0.74398,2.04603,0.63878
326.53,39.32125,-0.7519,2.05449,0.63859
327.13,39.37603,-0.75793,2.07721,0.6384
327.73,39.4306,-0.76954,2.0913,0.63821
328.33,39.48525,-0.77299,2.10098,0.63802
328.93,39.53988,-0.77372,2.11189,0.63782
329.53,39.5943,-0.78502,2.1078,0.63763
330.13,39.64884,-0.79104,2.11113,0.63743
330.73,39.70345,-0.79917,2.12654,0.63724
331.33,39.75804,-0.80584,2.14929,0.63704
331.93,39.81279,-0.81402,2.14701,0.63684
332.53,39.8675,-0.82215,2.16537,0.63664
333.13,39.92236,-0.82941,2.18919,0.63645
333.73,39.97705,-0.83704,2.20717,0.63625
334.33,40.0319,-0.84635,2.22166,0.63605
334.93,40.0867,-0.85281,2.24248,0.63585
335.53,40.1415,-0.86027,2.25459,0.63564
336.13,40.19617,-0.86765,2.26373,0.63544
336.73,40.25107,-0.87483,2.27459,0.63524
337.33,40.3059,-0.88309,2.30544,0.63504
337.93,40.36075,-0.88991,2.33025,0.63483
338.53,40.41578,-0.90077,2.34594,0.63463
339.13,40.47061,-0.91038,2.36586,0.63442
339.73,40.52545,-0.9167,2.38737,0.63421
340.33,40.58035,-0.92543,2.40308,0.63401
340.93,40.63516,-0.93459,2.423,0.6338
341.53,40.68987,-0.94409,2.43997,0.63359
342.13,40.7448,-0.9529,2.46416,0.63338
342.73,40.7999,-0.95984,2.49543,0.63317
343.33,40.85479,-0.97024,2.51629,0.63296
343.93,40.90983,-0.98082,2.54538,0.63275
344.53,40.96481,-0.9908,2.57125,0.63254
345.13,41.01977,-1.00054,2.60635,0.63232
345.73,41.07504,-1.01011,2.62783,0.63211
346.33,41.13016,-1.02145,2.66194,0.6319
346.93,41.1852,-1.03208,2.69283,0.63168
347.53,41.24024,-1.04343,2.72442,0.63147
348.13,41.29523,-1.05248,2.75778,0.63125
348.73,41.35042,-1.0658,2.79173,0.63104
349.33,41.4056,-1.07592,2.83193,0.63082
349.93,41.4607,-1.08781,2.85579,0.6306
350.53,41.51572,-1.09792,2.88819,0.63038
351.13,41.5706,-1.11094,2.9412,0.63016
351.73,41.62572,-1.12344,2.96735,0.62994
352.33,41.68051,-1.13667,3.00202,0.62972
352.93,41.73579,-1.15036,3.04228,0.6295
353.53,41.79105,-1.16171,3.07548,0.62928
354.13,41.84652,-1.17581,3.12158,0.62906
354.73,41.90211,-1.18974,3.15496,0.62884
355.33,41.9572,-1.20395,3.19673,0.62861
355.93,42.01243,-1.2164,3.23764,0.62839
356.53,42.0676,-1.23243,3.26218,0.62816
357.13,42.1229,-1.24663,3.3028,0.62794
357.73,42.1783,-1.25939,3.33656,0.62771
358.33,42.2338,-1.27655,3.37892,0.62749
358.93,42.2892,-1.29244,3.40693,0.62726
359.53,42.3446,-1.30437,3.44573,0.62703
360.13,42.39999,-1.32218,3.45227,0.6268
360.73,42.45525,-1.33628,3.48042,0.62657
361.33,42.5107,-1.35128,3.50974,0.62634
361.93,42.56613,-1.36771,3.52309,0.62611
362.53,42.6216,-1.38246,3.54784,0.62588
363.13,42.67703,-1.39982,3.5484,0.62565
363.73,42.73247,-1.41602,3.55476,0.62542
364.33,42.78784,-1.43124,3.56976,0.62519
364.93,42.8433,-1.44755,3.56721,0.62495
365.53,42.89875,-1.46222,3.53937,0.62472
366.13,42.9542,-1.47605,3.53348,0.62448
366.73,43.00975,-1.49396,3.50842,0.62425
367.33,43.06523,-1.50958,3.4823,0.62401
367.93,43.12073,-1.52458,3.44759,0.62378
368.53,43.17615,-1.53767,3.39211,0.62354
369.13,43.2316,-1.55296,3.35412,0.6233
369.73,43.28715,-1.56724,3.2921,0.62307
370.33,43.34279,-1.58007,3.21776,0.62283
370.93,43.3984,-1.594,3.15922,0.62259
371.53,43.45402,-1.60367,3.07682,0.62235
372.13,43.50927,-1.61922,3.00328,0.62211
372.73,43.5648,-1.63099,2.92278,0.62187
373.33,43.62038,-1.64131,2.83944,0.62163
373.93,43.67579,-1.65193,2.73799,0.62139
374.53,43.73168,-1.66334,2.64097,0.62114
375.13,43.78723,-1.67292,2.54345,0.6209
375.73,43.84297,-1.68204,2.45487,0.62066
376.33,43.89877,-1.68882,2.35169,0.62041
376.93,43.95429,-1.69596,2.25247,0.62017
377.53,44.00973,-1.70427,2.15662,0.61992
378.13,44.06528,-1.70931,2.03724,0.61968
378.73,44.12084,-1.71678,1.94879,0.61943
379.33,44.17649,-1.72132,1.86537,0.61919
379.93,44.23223,-1.72643,1.7722,0.61894
380.53,44.28776,-1.72993,1.70484,0.61869
381.13,44.34328,-1.73408,1.62988,0.61844
381.73,44.39868,-1.73742,1.5555,0.61819
382.33,44.4542,-1.74005,1.50309,0.61794
382.93,44.5098,-1.74287,1.45945,0.61769
383.53,44.56542,-1.74517,1.40505,0.61744
384.13,44.6213,-1.74917,1.34675,0.61719
384.73,44.67686,-1.75119,1.31902,0.61694
385.33,44.73245,-1.7521,1.29325,0.61669
385.93,44.78805,-1.75438,1.26673,0.61644
386.53,44.84395,-1.75623,1.23698,0.61619
387.13,44.89971,-1.75759,1.22131,0.61593
387.73,44.9556,-1.75982,1.2009,0.61568
388.33,45.0113,-1.76305,1.19447,0.61542
388.93,45.0667,-1.76299,1.17903,0.61517
389.53,45.12253,-1.76399,1.17382,0.61491
390.13,45.1783,-1.76605,1.16348,0.61466
390.73,45.23429,-1.76731,1.1564,0.6144
391.33,45.29036,-1.7687,1.1398,0.61415
391.93,45.34613,-1.77,1.14773,0.61389
392.53,45.40208,-1.77134,1.1363,0.61363
393.13,45.45794,-1.77221,1.13325,0.61337
393.73,45.51401,-1.77421,1.12616,0.61311
394.33,45.5702,-1.77678,1.12683,0.61286
394.93,45.62638,-1.77823,1.12636,0.6126
395.53,45.68243,-1.77832,1.11881,0.61234
396.13,45.7384,-1.77835,1.11671,0.61208
396.73,45.7945,-1.78121,1.11475,0.61181
397.33,45.85058,-1.78176,1.1155,0.61155
397.93,45.90659,-1.78383,1.11193,0.61129
398.53,45.96267,-1.78299,1.11023,0.61103
399.13,46.01877,-1.78479,1.10419,0.61077
399.73,46.07498,-1.78684,1.10051,0.6105
400.33,46.13126,-1.78953,1.10074,0.61024
400.93,46.1875,-1.7908,1.10633,0.60997
401.53,46.24362,-1.79096,1.11773,0.60971
402.13,46.29977,-1.79228,1.10138,0.60945
402.73,46.35597,-1.7924,1.10184,0.60918
403.33,46.412,-1.79496,1.11034,0.60891
403.93,46.46839,-1.79645,1.11298,0.60865
404.53,46.52449,-1.79896,1.10613,0.60838
405.13,46.58085,-1.80019,1.11347,0.60811
405.73,46.63738,-1.80149,1.11521,0.60785
406.33,46.69383,-1.80279,1.11134,0.60758
406.93,46.75029,-1.80426,1.11719,0.60731
407.53,46.8067,-1.80457,1.10836,0.60704
408.13,46.86295,-1.80589,1.11731,0.60677
408.73,46.91908,-1.80719,1.11196,0.6065
409.33,46.97534,-1.8094,1.11487,0.60623
409.93,47.0317,-1.81198,1.10592,0.60596
410.53,47.08805,-1.81221,1.1148,0.60569
411.13,47.14456,-1.81492,1.11276,0.60542
411.73,47.20088,-1.81633,1.11625,0.60515
412.33,47.25734,-1.8163,1.11345,0.60488
412.93,47.31394,-1.81764,1.1142,0.6046
413.53,47.37041,-1.81907,1.12154,0.60433
414.13,47.42669,-1.82307,1.13123,0.60406
414.73,47.48287,-1.82453,1.11451,0.60378
415.33,47.5392,-1.82584,1.12388,0.60351
415.93,47.59588,-1.82722,1.12771,0.60324
416.53,47.65234,-1.82991,1.13159,0.60296
417.13,47.70888,-1.8301,1.13544,0.60269
417.73,47.76515,-1.83265,1.13804,0.60241
418.33,47.82162,-1.83358,1.13158,0.60213
418.93,47.8783,-1.83696,1.14229,0.60186
419.53,47.9353,-1.83846,1.15208,0.60158
420.13,47.99203,-1.84023,1.15721,0.6013
420.73,48.0488,-1.8401,1.16536,0.60103
421.33,48.10548,-1.84138,1.15912,0.60075
421.93,48.162,-1.84285,1.17974,0.60047
422.53,48.21885,-1.8457,1.17695,0.60019
423.13,48.27554,-1.84859,1.17601,0.59991
423.73,48.33226,-1.85043,1.19239,0.59963
424.33,48.38904,-1.85204,1.20413,0.59935
424.93,48.44598,-1.85453,1.20758,0.59907
425.53,48.50274,-1.8576,1.20086,0.59879
426.13,48.55953,-1.85975,1.21872,0.59851
426.73,48.61636,-1.86037,1.23305,0.59823
427.33,48.6732,-1.86383,1.24275,0.59795
427.93,48.7301,-1.86631,1.25379,0.59767
428.53,48.78688,-1.86783,1.26384,0.59739
429.13,48.84386,-1.87053,1.27657,0.59711
429.73,48.90079,-1.87409,1.27813,0.59682
430.33,48.9578,-1.87711,1.30048,0.59654
430.93,49.0148,-1.87923,1.30147,0.59626
431.53,49.07175,-1.8816,1.30833,0.59597
432.13,49.12862,-1.88216,1.32431,0.59569
432.73,49.18533,-1.88693,1.33371,0.59541
433.33,49.2421,-1.89056,1.35709,0.59512
433.93,49.2988,-1.89238,1.38002,0.59484
434.53,49.35564,-1.8962,1.38737,0.59455
435.13,49.41276,-1.89935,1.39902,0.59427
435.73,49.4699,-1.90399,1.40793,0.59398
436.33,49.52677,-1.90752,1.42464,0.59369
436.93,49.58365,-1.91066,1.44088,0.59341
437.53,49.64034,-1.91404,1.46075,0.59312
438.13,49.69705,-1.91737,1.49478,0.59283
438.73,49.7541,-1.92014,1.50103,0.59255
439.33,49.81114,-1.92525,1.52012,0.59226
439.93,49.86842,-1.92953,1.54402,0.59197
440.53,49.92546,-1.93348,1.55339,0.59168
441.13,49.98259,-1.93865,1.57003,0.59139
441.73,50.03971,-1.94206,1.60575,0.59111
442.33,50.09698,-1.94696,1.62249,0.59082
442.93,50.15396,-1.95248,1.6458,0.59053
443.53,50.21119,-1.95644,1.66339,0.59024
444.13,50.2686,-1.9609,1.69771,0.58995
444.73,50.32605,-1.968,1.72437,0.58966
445.33,50.3834,-1.97461,1.7345,0.58937
445.93,50.44059,-1.97784,1.77239,0.58908
446.53,50.4979,-1.98381,1.8106,0.58879
447.13,50.55509,-1.99183,1.84386,0.5885
447.73,50.6123,-1.99733,1.86767,0.5882
448.33,50.6697,-2.00306,1.89258,0.58791
448.93,50.72703,-2.00899,1.9289,0.58762
449.53,50.78457,-2.01468,1.96119,0.58733
450.13,50.84198,-2.02257,1.98743,0.58704
450.73,50.89902,-2.03093,2.02196,0.58674
451.33,50.9565,-2.03796,2.0601,0.58645
451.93,51.01399,-2.04614,2.09813,0.58616
452.53,51.0715,-2.0534,2.11458,0.58586
453.13,51.12915,-2.06145,2.16282,0.58557
453.73,51.18646,-2.07035,2.19885,0.58528
454.33,51.2438,-2.07893,2.23509,0.58498
454.93,51.3011,-2.08767,2.27027,0.58469
455.53,51.35825,-2.09687,2.30392,0.58439
456.13,51.41564,-2.10719,2.34883,0.5841
456.73,51.4731,-2.11708,2.39671,0.5838
457.33,51.5304,-2.12628,2.42697,0.58351
457.93,51.58812,-2.13622,2.46458,0.58321
458.53,51.64562,-2.14796,2.5026,0.58292
459.13,51.70305,-2.15988,2.54993,0.58262
459.73,51.7607,-2.17169,2.58863,0.58233
460.33,51.81813,-2.1851,2.65392,0.58203
460.93,51.87553,-2.19517,2.68315,0.58173
461.53,51.933,-2.20956,2.71371,0.58144
462.13,51.9904,-2.22286,2.76287,0.58114
462.73,52.04792,-2.23536,2.797,0.58084
463.33,52.1056,-2.24914,2.85257,0.58054
463.93,52.16312,-2.26411,2.89337,0.58025
464.53,52.22072,-2.27802,2.93361,0.57995
465.13,52.27828,-2.29296,2.98777,0.57965
465.73,52.33569,-2.30959,3.02792,0.57935
466.33,52.3934,-2.3251,3.07642,0.57905
466.93,52.4511,-2.34077,3.12863,0.57876
467.53,52.5088,-2.35937,3.18533,0.57846
468.13,52.5665,-2.3765,3.21323,0.57816
468.73,52.62401,-2.39438,3.249,0.57786
469.33,52.68165,-2.41226,3.30207,0.57756
469.93,52.73952,-2.43243,3.3403,0.57726
470.53,52.79746,-2.45227,3.37487,0.57696
471.13,52.8552,-2.47312,3.42199,0.57666
471.73,52.91295,-2.49325,3.4614,0.57636
472.33,52.97075,-2.51271,3.50002,0.57606
472.93,53.02841,-2.53416,3.52518,0.57576
473.53,53.08616,-2.55609,3.55978,0.57546
474.13,53.144,-2.57835,3.5915,0.57516
474.73,53.20165,-2.60022,3.61896,0.57486
475.33,53.25945,-2.62403,3.63206,0.57456
475.93,53.3173,-2.64746,3.65517,0.57426
476.53,53.37505,-2.67275,3.6723,0.57396
477.13,53.43258,-2.69372,3.69733,0.57365
477.73,53.49052,-2.72017,3.70453,0.57335
478.33,53.54837,-2.7452,3.69882,0.57305
478.93,53.6066,-2.77031,3.70042,0.57275
479.53,53.66432,-2.79657,3.69695,0.57245
480.13,53.7221,-2.82068,3.69565,0.57215
480.73,53.7799,-2.84569,3.68552,0.57184
481.33,53.8377,-2.87035,3.66559,0.57154
481.93,53.89586,-2.89751,3.6466,0.57124
482.53,53.9536,-2.92307,3.61797,0.57094
483.13,54.01144,-2.94749,3.58425,0.57063
483.73,54.0694,-2.97291,3.54493,0.57033
484.33,54.12732,-2.99908,3.49684,0.57003
484.93,54.18535,-3.02447,3.4482,0.56972
485.53,54.24344,-3.0481,3.40908,0.56942
486.13,54.30135,-3.07485,3.33432,0.56912
486.73,54.3594,-3.09818,3.26443,0.56881
487.33,54.41744,-3.12253,3.19668,0.56851
487.93,54.47538,-3.14312,3.10514,0.56821
488.53,54.5333,-3.16774,3.02483,0.5679
489.13,54.5914,-3.19028,2.92317,0.5676
489.73,54.64911,-3.20983,2.82025,0.56729
490.33,54.70717,-3.23083,2.73372,0.56699
490.93,54.76517,-3.24951,2.62989,0.56669
491.53,54.82355,-3.27035,2.50106,0.56638
492.13,54.8816,-3.28677,2.39903,0.56608
492.73,54.9399,-3.30485,2.28519,0.56577
493.33,54.99808,-3.32241,2.14324,0.56547
493.93,55.0562,-3.33654,2.01471,0.56516
494.53,55.11419,-3.3504,1.90075,0.56486
495.13,55.1723,-3.36204,1.78351,0.56455
495.73,55.23039,-3.37494,1.66752,0.56425
496.33,55.28866,-3.38754,1.52354,0.56394
496.93,55.3473,-3.39743,1.41666,0.56364
497.53,55.40563,-3.40614,1.30391,0.56333
498.13,55.46402,-3.41404,1.19816,0.56303
498.73,55.5223,-3.42158,1.0922,0.56272
499.33,55.5806,-3.43024,0.97762,0.56242
499.93,55.63915,-3.43395,0.89177,0.56211
500.53,55.6976,-3.4421,0.78983,0.56181
501.13,55.756,-3.4448,0.73124,0.5615
501.73,55.8141,-3.44774,0.63472,0.56119
502.33,55.8724,-3.45221,0.59219,0.56089
502.93,55.9307,-3.45369,0.49741,0.56058
503.53,55.989,-3.45631,0.44545,0.56028
504.13,56.04744,-3.45756,0.39679,0.55997
504.73,56.10579,-3.46095,0.35016,0.55967
505.33,56.16423,-3.46139,0.31174,0.55936
505.93,56.2227,-3.46285,0.27174,0.55905
506.53,56.28094,-3.46536,0.25129,0.55875
507.13,56.3392,-3.46598,0.23632,0.55844
507.73,56.3975,-3.46663,0.2041,0.55813
508.33,56.45579,-3.46647,0.18111,0.55783
508.93,56.5141,-3.46663,0.17168,0.55752
509.53,56.57241,-3.46666,0.15734,0.55722
510.13,56.63083,-3.46875,0.16222,0.55691
510.73,56.6891,-3.46926,0.15496,0.5566
511.33,56.7474,-3.47061,0.14958,0.5563
511.93,56.8058,-3.47058,0.14579,0.55599
512.53,56.86413,-3.47191,0.13906,0.55568
513.13,56.92255,-3.47258,0.14616,0.55538
513.73,56.98109,-3.47453,0.13747,0.55507
514.33,57.03976,-3.47551,0.1375,0.55476
514.93,57.09819,-3.47525,0.14467,0.55446
515.53,57.15659,-3.47498,0.12545,0.55415
516.13,57.21479,-3.47584,0.11428,0.55384
516.73,57.27333,-3.4766,0.12067,0.55354
517.33,57.3319,-3.47721,0.11953,0.55323
517.93,57.3905,-3.47585,0.10004,0.55292
518.53,57.4491,-3.47781,0.10217,0.55262
519.13,57.5076,-3.47968,0.09706227,0.55231
519.73,57.56644,-3.47979,0.09783162,0.552
520.33,57.6249,-3.4811,0.10501,0.5517
520.93,57.6837,-3.48031,0.09282256,0.55139
521.53,57.7423,-3.4798,0.10039,0.55108
522.13,57.801,-3.4803,0.09626381,0.55078
522.73,57.8596,-3.48112,0.08449077,0.55047
523.33,57.91823,-3.48202,0.08113506,0.55016
523.93,57.97679,-3.48158,0.06212002,0.54985
524.53,58.03539,-3.48145,0.06619244,0.54955
525.13,58.09395,-3.48276,0.07238368,0.54924
525.73,58.1526,-3.48432,0.06927743,0.54893
526.33,58.21105,-3.48692,0.05806227,0.54863
526.93,58.26953,-3.48538,0.04017142,0.54832
527.53,58.3283,-3.48667,0.048039,0.54801
528.13,58.3872,-3.48664,0.04772767,0.54771
528.73,58.44647,-3.48746,0.03256227,0.5474
529.33,58.50521,-3.48779,0.04023934,0.54709
529.93,58.5638,-3.48798,0.02521721,0.54679
530.53,58.6223,-3.48769,0.02820622,0.54648
531.13,58.68095,-3.48769,0.02114492,0.54617
531.73,58.73984,-3.48738,0.00263697,0.54587
532.33,58.79875,-3.48802,0.01125818,0.54556
532.93,58.8575,-3.48823,0.01464312,0.54526
533.53,58.91633,-3.48934,0.01027612,0.54495
534.13,58.9753,-3.49067,0.000559852,0.54464
534.73,59.0341,-3.49348,0.00575447,0.54434
535.33,59.0931,-3.49197,0.00960657,0.54403
535.93,59.15192,-3.49089,0.004535412,0.54372
536.53,59.2108,-3.49164,0.01859364,0.54342
537.13,59.26979,-3.49197,0.01352771,0.54311
537.73,59.3286,-3.49263,-0.01162435,0.54281
538.33,59.3875,-3.49319,-0.001582364,0.5425
538.93,59.4463,-3.49328,-0.01066261,0.54219
539.53,59.5052,-3.49464,-0.01260626,0.54189
540.13,59.5638,-3.4946,-0.03210969,0.54158
540.73,59.6225,-3.49422,-0.03661137,0.54128
541.33,59.6813,-3.49461,-0.02394501,0.54097
541.93,59.74063,-3.49592,-0.03972686,0.54066
542.53,59.79979,-3.49592,-0.03801448,0.54036
543.13,59.8588,-3.49656,-0.04809881,0.54005
543.73,59.91803,-3.49724,-0.04633357,0.53975
544.33,59.97732,-3.49724,-0.0471601,0.53944
544.93,60.03671,-3.4977,-0.04850305,0.53914
545.53,60.0961,-3.49856,-0.0529375,0.53883
546.13,60.15537,-3.49758,-0.05208622,0.53853
546.73,60.21462,-3.49888,-0.05222299,0.53822
547.33,60.27385,-3.49888,-0.05984885,0.53792
547.93,60.3332,-3.49954,-0.0698151,0.53761
548.53,60.3925,-3.50027,-0.08663772,0.53731
549.13,60.45165,-3.50015,-0.08131208,0.537
549.73,60.5109,-3.50151,-0.06969394,0.5367
550.33,60.5701,-3.50151,-0.06682545,0.53639
550.93,60.6295,-3.5025,-0.0839059,0.53609
551.53,60.68885,-3.5025,-0.07408467,0.53578
552.13,60.74814,-3.5025,-0.08931501,0.53548
552.73,60.8074,-3.50382,-0.08046935,0.53517
553.33,60.8664,-3.50382,-0.08525023,0.53487
553.93,60.9256,-3.50381,-0.0880762,0.53456
554.53,60.9847,-3.50513,-0.08817189,0.53426
555.13,61.04393,-3.50511,-0.08371743,0.53396
555.73,61.10284,-3.50381,-0.09510988,0.53365
556.33,61.16171,-3.50378,-0.09433845,0.53335
556.93,61.2206,-3.5051,-0.10568,0.53305
557.53,61.27936,-3.50547,-0.10299,0.53274
558.13,61.33866,-3.50547,-0.09589843,0.53244
558.73,61.39846,-3.50547,-0.10345,0.53214
559.33,61.45835,-3.50678,-0.10722,0.53183
559.93,61.5181,-3.50776,-0.11708,0.53153
560.53,61.57755,-3.50902,-0.10374,0.53123
561.13,61.63683,-3.50907,-0.11651,0.53092
561.73,61.69616,-3.51039,-0.12961,0.53062
562.33,61.7557,-3.50899,-0.13444,0.53032
562.93,61.8153,-3.50897,-0.11761,0.53002
563.53,61.87477,-3.51154,-0.12427,0.52971
564.13,61.93436,-3.51159,-0.12213,0.52941
564.73,61.99377,-3.51161,-0.13851,0.52911
565.33,62.0531,-3.51034,-0.12057,0.52881
565.93,62.1125,-3.51026,-0.11731,0.5285
566.53,62.1719,-3.51161,-0.13518,0.5282
567.13,62.2314,-3.51274,-0.13022,0.5279
567.73,62.291,-3.51292,-0.13766,0.5276
568.33,62.3502,-3.51299,-0.13965,0.5273
568.93,62.40974,-3.51424,-0.13337,0.527
569.53,62.46929,-3.51424,-0.13187,0.5267
570.13,62.5292,-3.51358,-0.14059,0.52639
570.73,62.589,-3.51457,-0.1351,0.52609
571.33,62.648,-3.51452,-0.14808,0.52579
571.93,62.70715,-3.51589,-0.14648,0.52549
572.53,62.76625,-3.51676,-0.14455,0.52519
573.13,62.8256,-3.51588,-0.15209,0.52489
573.73,62.8857,-3.51851,-0.15489,0.52459
574.33,62.94585,-3.51717,-0.15032,0.52429
574.93,63.006,-3.5172,-0.16038,0.52399
575.53,63.0658,-3.5172,-0.14845,0.52369
576.13,63.1254,-3.51722,-0.15269,0.52339
576.73,63.18493,-3.51824,-0.14483,0.52309
577.33,63.2446,-3.51688,-0.14938,0.52279
577.93,63.3042,-3.51714,-0.14975,0.52249
578.53,63.36354,-3.51915,-0.15251,0.5222
579.13,63.42292,-3.51982,-0.14744,0.5219
579.73,63.4825,-3.51854,-0.14703,0.5216
580.33,63.54214,-3.51988,-0.15455,0.5213
580.93,63.6021,-3.51983,-0.14578,0.521
581.53,63.66183,-3.51975,-0.1634,0.5207
582.13,63.7215,-3.5195,-0.1697,0.5204
582.73,63.7811,-3.5197,-0.15894,0.52011
583.33,63.84097,-3.52104,-0.16531,0.51981
583.93,63.90074,-3.52183,-0.16092,0.51951
584.53,63.96082,-3.52125,-0.15431,0.51921
585.13,64.02076,-3.52104,-0.15601,0.51892
585.73,64.08062,-3.51972,-0.16248,0.51862
586.33,64.14039,-3.5225,-0.16219,0.51832
586.93,64.20034,-3.52247,-0.16637,0.51803
587.53,64.26015,-3.52244,-0.17423,0.51773
588.13,64.3202,-3.52115,-0.17734,0.51743
588.73,64.38006,-3.52121,-0.17567,0.51714
589.33,64.43983,-3.52246,-0.19482,0.51684
589.93,64.49973,-3.52381,-0.19049,0.51655
590.53,64.55943,-3.52378,-0.20389,0.51625
591.13,64.61912,-3.52378,-0.17603,0.51596
591.73,64.67907,-3.52279,-0.17745,0.51566
592.33,64.73898,-3.52376,-0.17915,0.51537
592.93,64.79884,-3.52411,-0.1894,0.51507
593.53,64.85866,-3.52543,-0.20292,0.51478
594.13,64.9184,-3.52674,-0.19364,0.51448
594.73,64.9781,-3.52674,-0.18011,0.51419
595.33,65.03814,-3.52617,-0.18119,0.51389
595.93,65.0981,-3.52675,-0.19858,0.5136
596.53,65.15802,-3.52698,-0.19137,0.51331
597.13,65.21799,-3.52806,-0.20772,0.51301
597.73,65.27794,-3.52781,-0.19247,0.51272
598.33,65.33803,-3.52542,-0.18357,0.51243
598.93,65.3982,-3.52808,-0.18342,0.51213
599.53,65.45812,-3.52876,-0.19368,0.51184
600.13,65.5182,-3.52871,-0.19023,0.51155
600.73,65.57823,-3.52999,-0.19229,0.51126
601.33,65.63848,-3.53002,-0.18509,0.51096
601.93,65.69873,-3.53003,-0.19713,0.51067
602.53,65.75894,-3.53102,-0.19121,0.51038
603.13,65.81913,-3.53102,-0.17798,0.51009
603.73,65.87901,-3.53102,-0.17366,0.5098
604.33,65.9391,-3.52971,-0.18566,0.50951
604.93,65.99931,-3.52971,-0.16177,0.50922
605.53,66.05928,-3.52871,-0.16345,0.50893
606.13,66.1191,-3.53003,-0.1546,0.50864
606.73,66.1788,-3.53003,-0.16629,0.50835
607.33,66.23898,-3.53102,-0.16813,0.50806
607.93,66.2993,-3.53102,-0.17574,0.50777
608.53,66.35986,-3.53234,-0.17877,0.50748
609.13,66.42022,-3.53234,-0.18188,0.50719
609.73,66.48039,-3.53234,-0.16938,0.5069
610.33,66.54042,-3.53235,-0.18411,0.50661
610.93,66.60047,-3.53233,-0.18872,0.50632
611.53,66.6606,-3.53233,-0.20211,0.50603
612.13,66.72078,-3.53232,-0.20623,0.50575
612.73,66.78169,-3.53431,-0.19329,0.50546
613.33,66.8421,-3.53431,-0.18936,0.50517
613.93,66.90256,-3.53337,-0.18847,0.50488
614.53,66.96293,-3.53299,-0.20722,0.5046
615.13,67.02292,-3.533,-0.20177,0.50431
615.73,67.0831,-3.53418,-0.18355,0.50402
616.33,67.14333,-3.53431,-0.18369,0.50374
616.93,67.20363,-3.53432,-0.18116,0.50345
617.53,67.26383,-3.53342,-0.17986,0.50316
618.13,67.3241,-3.53555,-0.17285,0.50288
618.73,67.38425,-3.53668,-0.16717,0.50259
619.33,67.44448,-3.53692,-0.17098,0.50231
619.93,67.50488,-3.53435,-0.17587,0.50202
620.53,67.56517,-3.53431,-0.16284,0.50174
621.13,67.62539,-3.53431,-0.16427,0.50145
621.73,67.68571,-3.53671,-0.16153,0.50117
622.33,67.74594,-3.53699,-0.15876,0.50088
622.93,67.80631,-3.53497,-0.14239,0.5006
623.53,67.86668,-3.53651,-0.14013,0.50032
624.13,67.92709,-3.53781,-0.15461,0.50003
624.73,67.9875,-3.53782,-0.15424,0.49975
625.33,68.04799,-3.53782,-0.14584,0.49947
625.93,68.10842,-3.53914,-0.13124,0.49919
626.53,68.16878,-3.53784,-0.15732,0.4989
627.13,68.2293,-3.5375,-0.15449,0.49862
627.73,68.28994,-3.53782,-0.16521,0.49834
628.33,68.35064,-3.53785,-0.16063,0.49806
628.93,68.41121,-3.53783,-0.15931,0.49778
629.53,68.4717,-3.53913,-0.15434,0.4975
630.13,68.53214,-3.53913,-0.14134,0.49722
630.73,68.59249,-3.53914,-0.14211,0.49693
631.33,68.65309,-3.53979,-0.1558,0.49665
631.93,68.71366,-3.53979,-0.14657,0.49637
632.53,68.77426,-3.53979,-0.13686,0.49609
633.13,68.83498,-3.53982,-0.14702,0.49582
633.73,68.8956,-3.53913,-0.14121,0.49554
634.33,68.9562,-3.53913,-0.12336,0.49526
634.93,69.01694,-3.54036,-0.13091,0.49498
635.53,69.07738,-3.54052,-0.12381,0.4947
636.13,69.13781,-3.53965,-0.11896,0.49442
636.73,69.19827,-3.54086,-0.11525,0.49414
637.33,69.25876,-3.53979,-0.10963,0.49387
637.93,69.31951,-3.53979,-0.11897,0.49359
638.53,69.3802,-3.5411,-0.11858,0.49331
639.13,69.44068,-3.5416,-0.10296,0.49304
639.73,69.50125,-3.542,-0.10548,0.49276
640.33,69.56182,-3.54134,-0.13833,0.49248
640.93,69.6225,-3.54034,-0.13465,0.49221
641.53,69.6831,-3.54036,-0.11815,0.49193
642.13,69.74373,-3.54133,-0.10968,0.49166
642.73,69.8045,-3.54133,-0.124,0.49138
643.33,69.8651,-3.54245,-0.12098,0.49111
643.93,69.92573,-3.54265,-0.11856,0.49083
644.53,69.9864,-3.54265,-0.13349,0.49056
645.13,70.04719,-3.54267,-0.13911,0.49028
645.73,70.108,-3.54264,-0.13994,0.49001
646.33,70.1686,-3.54133,-0.16206,0.48974
646.93,70.22919,-3.54133,-0.17144,0.48946
647.53,70.28961,-3.54133,-0.17484,0.48919
648.13,70.35019,-3.54264,-0.17572,0.48892
648.73,70.41054,-3.54133,-0.18684,0.48865
649.33,70.4709,-3.54133,-0.19876,0.48837
649.93,70.5317,-3.54263,-0.20779,0.4881
650.53,70.59266,-3.54258,-0.19735,0.48783
651.13,70.654,-3.54364,-0.1977,0.48756
651.73,70.71516,-3.54199,-0.19458,0.48729
652.33,70.77587,-3.54199,-0.20018,0.48702
652.93,70.83657,-3.54318,-0.20554,0.48675
653.53,70.8972,-3.54475,-0.20232,0.48648
654.13,70.95785,-3.54341,-0.19423,0.48621
654.73,71.01859,-3.54341,-0.20072,0.48594
655.33,71.07964,-3.54473,-0.18188,0.48567
655.93,71.14058,-3.54473,-0.16433,0.4854
656.53,71.20166,-3.5459,-0.15306,0.48513
657.13,71.26268,-3.54615,-0.14786,0.48486
657.73,71.32365,-3.54615,-0.12614,0.4846
658.33,71.38423,-3.54615,-0.12715,0.48433
658.93,71.4452,-3.54511,-0.13015,0.48406
659.53,71.50613,-3.54516,-0.12993,0.48379
660.13,71.56696,-3.54516,-0.13649,0.48353
660.73,71.62814,-3.54644,-0.12292,0.48326
661.33,71.68902,-3.54648,-0.12475,0.483
661.93,71.74986,-3.5458,-0.119,0.48273
662.53,71.8108,-3.5455,-0.12946,0.48246
663.13,71.8716,-3.54683,-0.1276,0.4822
663.73,71.9325,-3.5481,-0.13935,0.48193
664.33,71.9936,-3.54845,-0.16037,0.48167
664.93,72.0547,-3.54815,-0.15538,0.4814
665.53,72.11584,-3.54714,-0.1552,0.48114
666.13,72.1769,-3.54714,-0.1538,0.48088
666.73,72.23775,-3.54714,-0.16797,0.48061
667.33,72.29867,-3.54714,-0.16395,0.48035
667.93,72.35948,-3.54645,-0.14787,0.48009
668.53,72.4203,-3.54452,-0.14735,0.47983
669.13,72.48147,-3.54582,-0.15872,0.47956
669.73,72.5425,-3.54583,-0.15129,0.4793
670.33,72.60355,-3.54714,-0.17167,0.47904
670.93,72.6643,-3.54709,-0.15412,0.47878
671.53,72.72532,-3.54846,-0.15012,0.47852
672.13,72.78627,-3.54846,-0.15877,0.47826
672.73,72.84743,-3.54846,-0.17816,0.478
673.33,72.90857,-3.54978,-0.18883,0.47774
673.93,72.96978,-3.54978,-0.17814,0.47748
674.53,73.03101,-3.54846,-0.17102,0.47722
675.13,73.092,-3.5485,-0.17221,0.47696
675.73,73.15303,-3.54847,-0.15067,0.4767
676.33,73.214,-3.54846,-0.14596,0.47644
676.93,73.27502,-3.54846,-0.15298,0.47618
677.53,73.33636,-3.54906,-0.13645,0.47593
678.13,73.39753,-3.54937,-0.13959,0.47567
678.73,73.4589,-3.54977,-0.13156,0.47541
679.33,73.51997,-3.5488,-0.13147,0.47515
679.93,73.5809,-3.54911,-0.11732,0.4749
680.53,73.6421,-3.5478,-0.10837,0.47464
681.13,73.70317,-3.54779,-0.11849,0.47439
681.73,73.7646,-3.54912,-0.11609,0.47413
682.33,73.8258,-3.54912,-0.12008,0.47388
682.93,73.88694,-3.55047,-0.11242,0.47362
683.53,73.9481,-3.55043,-0.10237,0.47337
684.13,74.00927,-3.55043,-0.10798,0.47311
684.73,74.0706,-3.55174,-0.0954502,0.47286
685.33,74.1319,-3.55038,-0.10289,0.4726
685.93,74.19326,-3.54947,-0.11173,0.47235
686.53,74.25449,-3.54944,-0.10299,0.4721
687.13,74.31567,-3.54944,-0.09075884,0.47185
687.73,74.37702,-3.54944,-0.09659195,0.47159
688.33,74.43825,-3.54944,-0.07236114,0.47134
688.93,74.49956,-3.54911,-0.05990663,0.47109
689.53,74.56067,-3.54912,-0.06178272,0.47084
690.13,74.62172,-3.55043,-0.04868441,0.47059
690.73,74.68299,-3.55044,-0.02563007,0.47034
691.33,74.74429,-3.54911,-0.0200841,0.47009
691.93,74.80572,-3.5478,-0.04765944,0.46984
692.53,74.86684,-3.54874,-0.03330547,0.46959
693.13,74.928,-3.5501,-0.03162786,0.46934
693.73,74.98868,-3.5501,-0.03097347,0.46909
694.33,75.0496,-3.5501,-0.02389637,0.46884
694.93,75.11045,-3.5501,-0.02766597,0.46859
695.53,75.17201,-3.55009,0.00310208,0.46834
696.13,75.2336,-3.54911,-0.004001584,0.46809
696.73,75.2954,-3.54879,-0.01692979,0.46785
697.33,75.35683,-3.54913,0.004900133,0.4676
697.93,75.41813,-3.55043,0.01410744,0.46735
698.53,75.47946,-3.55043,0.009925058,0.46711
699.13,75.5403,-3.54912,0.00359419,0.46686
699.73,75.60144,-3.54908,0.01954386,0.46662
700.33,75.6627,-3.55043,0.01503046,0.46637
700.93,75.72436,-3.55043,0.03053234,0.46612
701.53,75.78614,-3.55176,0.01773539,0.46588
702.13,75.848,-3.55174,0.03728819,0.46564
702.73,75.90966,-3.55109,0.05897851,0.46539
703.33,75.9713,-3.55244,0.07487373,0.46515
703.93,76.03277,-3.54978,0.0892376,0.4649
704.53,76.0942,-3.55082,0.09839222,0.46466
705.13,76.15558,-3.55175,0.11904,0.46442
705.73,76.21698,-3.55253,0.12565,0.46418
706.33,76.27844,-3.55307,0.14305,0.46393
706.93,76.34,-3.55175,0.14879,0.46369
707.53,76.40127,-3.55175,0.18003,0.46345
708.13,76.46247,-3.55175,0.17924,0.46321
708.73,76.52381,-3.55175,0.18891,0.46297
709.33,76.5852,-3.55175,0.19751,0.46273
709.93,76.64639,-3.55171,0.20182,0.46249
710.53,76.70788,-3.55175,0.19479,0.46225
711.13,76.7689,-3.55205,0.19136,0.46201
711.73,76.83051,-3.55306,0.20692,0.46177
712.33,76.89188,-3.55306,0.22392,0.46153
712.93,76.95351,-3.55175,0.23364,0.46129
713.53,77.0151,-3.55175,0.23146,0.46105
714.13,77.07679,-3.55316,0.20559,0.46082
714.73,77.1384,-3.55387,0.19801,0.46058
715.33,77.19999,-3.55252,0.20087,0.46034
715.93,77.2614,-3.55318,0.21107,0.46011
716.53,77.3228,-3.55341,0.20715,0.45987
717.13,77.38428,-3.55384,0.21746,0.45963
717.73,77.44582,-3.55419,0.24568,0.4594
718.33,77.5073,-3.55292,0.23634,0.45916
718.93,77.569,-3.55285,0.25782,0.45893
719.53,77.63083,-3.55285,0.26705,0.45869
720.13,77.69259,-3.55285,0.28277,0.45846
720.73,77.75429,-3.55186,0.32314,0.45822
721.33,77.81594,-3.55186,0.34317,0.45799
721.93,77.8775,-3.55285,0.38819,0.45776
722.53,77.9391,-3.55284,0.39521,0.45752
723.13,78.00094,-3.55297,0.40619,0.45729
723.73,78.06272,-3.55318,0.40744,0.45706
724.33,78.12446,-3.55449,0.39185,0.45683
724.93,78.18646,-3.55317,0.37017,0.4566
725.53,78.24829,-3.55317,0.38606,0.45636
726.13,78.3103,-3.55317,0.37079,0.45613
726.73,78.37218,-3.55254,0.35301,0.4559
727.33,78.43385,-3.55319,0.35708,0.45567
727.93,78.49529,-3.55318,0.33455,0.45544
728.53,78.55673,-3.55318,0.32163,0.45521
729.13,78.61822,-3.55446,0.27435,0.45498
729.73,78.67989,-3.55449,0.22971,0.45475
730.33,78.7415,-3.55449,0.23883,0.45453
730.93,78.80331,-3.55449,0.25712,0.4543
731.53,78.86498,-3.55449,0.24561,0.45407
732.13,78.92689,-3.55449,0.20473,0.45384
732.73,78.9886,-3.55449,0.17348,0.45361
733.33,79.05036,-3.55449,0.15806,0.45339
733.93,79.112,-3.55468,0.1407,0.45316
734.53,79.17385,-3.55444,0.1198,0.45293
735.13,79.23571,-3.55581,0.13516,0.45271
735.73,79.29754,-3.55581,0.14804,0.45248
736.33,79.35939,-3.55581,0.1602,0.45226
736.93,79.4212,-3.55581,0.19876,0.45203
737.53,79.48312,-3.55654,0.19089,0.45181
738.13,79.5449,-3.55712,0.18268,0.45158
738.73,79.60679,-3.55577,0.16894,0.45136
739.33,79.66847,-3.55449,0.1656,0.45114
739.93,79.73029,-3.55449,0.18688,0.45091
740.53,79.7922,-3.55715,0.18314,0.45069
741.13,79.8541,-3.55844,0.20045,0.45047
741.73,79.91624,-3.55709,0.2078,0.45025
742.33,79.9785,-3.55712,0.24214,0.45002
742.43,79.9891,-3.55712,0.24752,0.44999