File: 01_Data/Composite_Deck_Board/STA/N2/10K_min/Composite_Deck_Board_STA_N2_10KData_210628_R3.csv
##Temp./Â°C,Time/min,Mass loss(subtr.2)/mg,DSC(subtr.2)/mW,Sensit./(uV/mW)
49.3,10.01,0.00856,-0.02344425,0.6183
49.9,11.38764,0.00445084,0.10065,0.61862
50.5,11.734,0.004955269,0.18913,0.61894
51.1,11.98022,0.005927056,0.26504,0.61926
51.7,12.17808,0.005701456,0.3217,0.61957
52.3,12.3551,0.00549796,0.38698,0.61989
52.9,12.51063,0.004083588,0.41974,0.6202
53.5,12.65511,0.005509123,0.4672,0.62051
54.1,12.78987,0.00646999,0.50505,0.62082
54.7,12.91832,0.00494672,0.53583,0.62113
55.3,13.03969,0.00558323,0.57578,0.62144
55.9,13.1567,0.00481979,0.60426,0.62175
56.5,13.2704,0.00691848,0.63177,0.62205
57.1,13.37985,0.006042276,0.65705,0.62236
57.7,13.4862,0.00504587,0.66881,0.62266
58.3,13.5906,0.00328378,0.68566,0.62296
58.9,13.69196,0.00412272,0.70256,0.62326
59.5,13.79147,0.003398045,0.73101,0.62356
60.1,13.88938,0.00343867,0.74948,0.62386
60.7,13.98492,0.00367963,0.75149,0.62416
61.3,14.0782,0.004225283,0.76834,0.62445
61.9,14.1709,0.00603898,0.78381,0.62475
62.5,14.26295,0.004445681,0.80705,0.62504
63.1,14.3527,0.004400549,0.81539,0.62533
63.7,14.4413,0.00438895,0.82525,0.62562
64.3,14.52891,0.003959019,0.83893,0.62591
64.9,14.6152,0.00307277,0.85293,0.6262
65.5,14.70036,0.002848567,0.86715,0.62648
66.1,14.78475,0.002386225,0.8827,0.62677
66.7,14.8682,0.00286186,0.89607,0.62705
67.3,14.95084,0.001144305,0.90065,0.62734
67.9,15.03245,0.00164866,0.9246,0.62762
68.5,15.11331,0.00298515,0.94226,0.6279
69.1,15.1931,0.004251484,0.9544,0.62818
69.7,15.27236,0.00343107,0.96951,0.62846
70.3,15.35056,0.00208979,0.97207,0.62873
70.9,15.42839,0.00176297,0.99484,0.62901
71.5,15.5056,0.003134187,1.00928,0.62928
72.1,15.58218,0.00311732,1.01143,0.62955
72.7,15.6583,0.00177866,1.02492,0.62983
73.3,15.73365,0.00308523,1.04329,0.6301
73.9,15.8081,0.0012608,1.05528,0.63037
74.5,15.88235,0.001765981,1.05993,0.63063
75.1,15.95568,0.002055527,1.07114,0.6309
75.7,16.02896,0.001883246,1.08937,0.63117
76.3,16.1015,0.001870264,1.09844,0.63143
76.9,16.17407,0.00187001,1.11074,0.63169
77.5,16.2459,0.002827242,1.10794,0.63195
78.1,16.31703,0.00284477,1.12364,0.63221
78.7,16.38775,0.001759822,1.13348,0.63247
79.3,16.45821,0.00175915,1.13865,0.63273
79.9,16.52815,0.0003254716,1.13751,0.63299
80.5,16.59789,0.001593378,1.15666,0.63324
81.1,16.6668,0.002309844,1.16709,0.6335
81.7,16.73565,0.00158906,1.17793,0.63375
82.3,16.80392,0.000848084,1.18931,0.634
82.9,16.8716,0.001429481,1.20029,0.63425
83.5,16.9393,0.0001214798,1.21172,0.6345
84.1,17.00665,0.0001243773,1.22295,0.63475
84.7,17.07435,0.000164215,1.22454,0.63499
85.3,17.14086,0.000372942,1.23503,0.63524
85.9,17.20736,0.00010925,1.24615,0.63548
86.5,17.27265,0.0001088353,1.25903,0.63572
87.1,17.33748,0.0001153799,1.27348,0.63597
87.7,17.40209,0.001184187,1.27664,0.63621
88.3,17.46696,7.805533e-05,1.28725,0.63644
88.9,17.53175,0.0001100159,1.30016,0.63668
89.5,17.5962,0.0002081209,1.30616,0.63692
90.1,17.66015,0.000109141,1.31844,0.63715
90.7,17.72427,0.001433666,1.32229,0.63739
91.3,17.7883,0.001448448,1.33327,0.63762
91.9,17.8525,0.002739894,1.33645,0.63785
92.5,17.9164,0.0028359,1.33947,0.63808
93.1,17.98,0.00143,1.35423,0.63831
93.7,18.04277,0.00143028,1.36807,0.63854
94.3,18.10538,0.0001760519,1.38013,0.63876
94.9,18.1678,0.0001200041,1.38977,0.63899
95.5,18.23029,0.0001200574,1.40491,0.63921
96.1,18.2925,0.001128479,1.41993,0.63943
96.7,18.35462,1.206336e-05,1.43061,0.63965
97.3,18.41601,-0.001309003,1.44327,0.63987
97.9,18.4774,6.306495e-06,1.46081,0.64009
98.5,18.53877,0.0009945346,1.47847,0.64031
99.1,18.59986,0.000890252,1.47946,0.64052
99.7,18.66092,-0.0001705302,1.49671,0.64074
100.3,18.72191,-0.0004332901,1.50784,0.64095
100.9,18.78278,-0.00241824,1.53317,0.64116
101.5,18.84371,-0.002483281,1.54154,0.64138
102.1,18.90448,-0.00109055,1.54527,0.64158
102.7,18.9652,0.0001596847,1.58302,0.64179
103.3,19.0256,-0.000300497,1.60544,0.642
103.9,19.08568,-0.001004117,1.61683,0.64221
104.5,19.1456,0.0002024499,1.63306,0.64241
105.1,19.20553,-0.000758223,1.66046,0.64261
105.7,19.26545,-0.0007599994,1.68366,0.64282
106.3,19.3255,-0.0007600346,1.70009,0.64302
106.9,19.38533,-0.000854067,1.72277,0.64322
107.5,19.445,0.0003853379,1.73361,0.64341
108.1,19.50443,-0.0004044856,1.75433,0.64361
108.7,19.56389,0.0002186516,1.79083,0.64381
109.3,19.62335,0.0002200008,1.81526,0.644
109.9,19.68281,0.0002228643,1.84519,0.64419
110.5,19.74192,-0.002414246,1.85249,0.64439
111.1,19.80082,-0.001098753,1.87751,0.64458
111.7,19.85999,0.0002299546,1.90862,0.64477
112.3,19.91904,-0.00109122,1.92564,0.64495
112.9,19.9784,-0.00109044,1.96803,0.64514
113.5,20.03746,-0.0005389745,1.9899,0.64533
114.1,20.09646,0.0002332695,2.01562,0.64551
114.7,20.15513,0.0003150637,2.0501,0.64569
115.3,20.21354,0.0003616085,2.08476,0.64588
115.9,20.27199,0.000178949,2.10939,0.64606
116.5,20.3305,0.000213637,2.14767,0.64624
117.1,20.3892,0.0002315999,2.17509,0.64641
117.7,20.44784,0.002851176,2.21776,0.64659
118.3,20.50641,0.0008794008,2.24938,0.64677
118.9,20.56456,-0.00106498,2.30843,0.64694
119.5,20.6227,-0.00109001,2.34028,0.64711
120.1,20.68081,-0.0011036,2.39669,0.64729
120.7,20.73895,0.0002200335,2.46861,0.64746
121.3,20.797,-0.001149318,2.54725,0.64762
121.9,20.85492,-0.00108957,2.62504,0.64779
122.5,20.91261,-0.002253583,2.7186,0.64796
123.1,20.97015,-0.00240937,2.81595,0.64813
123.7,21.02756,-0.00109095,2.9032,0.64829
124.3,21.08502,-0.001089994,2.95584,0.64845
124.9,21.14245,-0.001080644,2.9482,0.64861
125.5,21.20018,-0.000430035,2.85464,0.64877
126.1,21.258,-0.00153197,2.65536,0.64893
126.7,21.31576,8.477371e-06,2.45485,0.64909
127.3,21.37322,-0.000703296,2.30569,0.64925
127.9,21.43029,-0.001099871,2.21555,0.6494
128.5,21.4869,-0.0014154,2.19065,0.64956
129.1,21.54336,-0.002425041,2.1939,0.64971
129.7,21.59992,-0.001090311,2.24461,0.64986
130.3,21.65651,-0.001088131,2.32073,0.65001
130.9,21.71296,0.0002355454,2.36993,0.65016
131.5,21.7696,-0.001089408,2.38018,0.65031
132.1,21.82581,0.000863124,2.32226,0.65046
132.7,21.88206,0.000874455,2.18486,0.6506
133.3,21.9379,-0.0004343033,2.03214,0.65075
133.9,21.9934,-0.0004399899,1.88673,0.65089
134.5,22.04876,-0.0004430055,1.77679,0.65103
135.1,22.1041,-0.001322918,1.68802,0.65117
135.7,22.15982,-0.002627065,1.62973,0.65131
136.3,22.21552,-0.001316383,1.58513,0.65145
136.9,22.27105,6.39982e-06,1.55732,0.65159
137.5,22.3266,-0.00129857,1.53152,0.65172
138.1,22.38201,1.568336e-05,1.50464,0.65186
138.7,22.43744,-2.894679e-06,1.50859,0.65199
139.3,22.49305,-0.00131366,1.4978,0.65212
139.9,22.54833,-0.00131,1.49811,0.65225
140.5,22.60352,-0.0013114,1.49766,0.65238
141.1,22.65885,-0.0006057871,1.50748,0.65251
141.7,22.71399,-0.001310354,1.49327,0.65263
142.3,22.76901,-0.001310483,1.50198,0.65276
142.9,22.82414,-0.00267224,1.50489,0.65288
143.5,22.87901,-0.002620003,1.50996,0.65301
144.1,22.93395,-0.00189269,1.52296,0.65313
144.7,22.9894,-0.001310107,1.52188,0.65325
145.3,23.0449,-1.44985e-05,1.53357,0.65337
145.9,23.10039,9.997595e-06,1.53403,0.65349
146.5,23.15559,1.359745e-05,1.53413,0.6536
147.1,23.21021,-0.001308335,1.53351,0.65372
147.7,23.26494,-0.001310018,1.53189,0.65383
148.3,23.31979,-0.001310005,1.52947,0.65395
148.9,23.3746,-0.0005059428,1.52773,0.65406
149.5,23.42935,5.6363e-08,1.53082,0.65417
150.1,23.48401,5.813805e-06,1.54495,0.65428
150.7,23.5386,-0.001311765,1.54683,0.65439
151.3,23.59335,-0.001312864,1.56959,0.6545
151.9,23.64795,-0.000323235,1.55791,0.6546
152.5,23.7026,-0.0003299943,1.56516,0.65471
153.1,23.75712,-0.00033001,1.57637,0.65481
153.7,23.81154,-0.0003381695,1.59046,0.65491
154.3,23.86609,-0.0009379742,1.57427,0.65501
154.9,23.92055,-0.000299258,1.59313,0.65511
155.5,23.9751,-0.0003200564,1.57961,0.65521
156.1,24.02956,-0.0003262767,1.59518,0.65531
156.7,24.08409,-0.00164049,1.59877,0.6554
157.3,24.13859,-0.00164,1.59901,0.6555
157.9,24.19316,-0.00163995,1.61047,0.65559
158.5,24.24759,-0.00168624,1.61405,0.65568
159.1,24.30185,-0.0007022061,1.61795,0.65578
159.7,24.35581,-0.00163899,1.61356,0.65587
160.3,24.41001,-0.00164,1.60973,0.65595
160.9,24.46434,-0.00162604,1.60463,0.65604
161.5,24.5188,-0.000660994,1.61527,0.65613
162.1,24.57327,-0.0006600016,1.60901,0.65621
162.7,24.62762,-0.000660009,1.61525,0.6563
163.3,24.68189,-0.000671927,1.61,0.65638
163.9,24.73609,-0.00196839,1.60361,0.65646
164.5,24.79016,-0.001960453,1.61172,0.65654
165.1,24.84443,-0.0008797889,1.6155,0.65662
165.7,24.89852,-0.00196972,1.60402,0.6567
166.3,24.95289,-0.00197004,1.59001,0.65678
166.9,25.00716,-0.001920603,1.60434,0.65685
167.5,25.06139,-0.001907882,1.58891,0.65693
168.1,25.1158,-0.001970112,1.60028,0.657
168.7,25.16994,-0.00197,1.61396,0.65707
169.3,25.224,-0.00197,1.61867,0.65714
169.9,25.2781,-0.001969749,1.63673,0.65721
170.5,25.33236,-0.002756695,1.64115,0.65728
171.1,25.38665,-0.004302302,1.62998,0.65735
171.7,25.4411,-0.00294629,1.63718,0.65741
172.3,25.49546,-0.00295001,1.63874,0.65748
172.9,25.5491,-0.00295,1.64131,0.65754
173.5,25.60291,-0.002950006,1.64622,0.6576
174.1,25.65697,-0.002943179,1.64538,0.65766
174.7,25.71102,-0.004269106,1.65451,0.65772
175.3,25.7656,-0.00500015,1.64246,0.65778
175.9,25.81997,-0.004599639,1.65497,0.65784
176.5,25.87409,-0.00327944,1.65626,0.6579
177.1,25.9282,-0.003320918,1.66292,0.65795
177.7,25.9823,-0.003296838,1.66633,0.658
178.3,26.03641,-0.0032882,1.66309,0.65806
178.9,26.09021,-0.001857785,1.66701,0.65811
179.5,26.14418,-0.001871487,1.66655,0.65816
180.1,26.1982,-0.003175153,1.65912,0.65821
180.7,26.25204,-0.00318,1.66502,0.65826
181.3,26.30602,-0.00318,1.67422,0.6583
181.9,26.35975,-0.00318,1.66522,0.65835
182.5,26.41362,-0.003181362,1.67601,0.65839
183.1,26.4675,-0.004482303,1.68304,0.65844
183.7,26.5213,-0.00449975,1.6821,0.65848
184.3,26.57537,-0.00341658,1.67767,0.65852
184.9,26.6292,-0.003158312,1.67888,0.65856
185.5,26.683,-0.00462901,1.67799,0.6586
186.1,26.7367,-0.005809329,1.68924,0.65864
186.7,26.7903,-0.00581,1.69112,0.65867
187.3,26.8439,-0.005810386,1.69157,0.65871
187.9,26.8976,-0.00504965,1.68886,0.65874
188.5,26.9513,-0.004476637,1.69143,0.65877
189.1,27.0049,-0.005810481,1.69424,0.65881
189.7,27.05858,-0.005808799,1.69354,0.65884
190.3,27.1123,-0.004483572,1.70378,0.65887
190.9,27.1659,-0.004822523,1.69564,0.65889
191.5,27.2196,-0.005810785,1.69744,0.65892
192.1,27.27327,-0.004776509,1.71407,0.65895
192.7,27.3268,-0.0058099,1.71326,0.65897
193.3,27.38024,-0.00581,1.70535,0.65899
193.9,27.4338,-0.00580551,1.72593,0.65902
194.5,27.48728,-0.00832767,1.73781,0.65904
195.1,27.5407,-0.008440026,1.74581,0.65906
195.7,27.59422,-0.0070369,1.72964,0.65908
196.3,27.6477,-0.006898741,1.7411,0.65909
196.9,27.70085,-0.00745001,1.74317,0.65911
197.5,27.75426,-0.00745,1.7397,0.65913
198.1,27.80738,-0.007450124,1.74281,0.65914
198.7,27.86093,-0.007511314,1.75577,0.65915
199.3,27.9148,-0.0087759,1.7443,0.65917
199.9,27.9683,-0.007447785,1.76147,0.65918
200.5,28.0221,-0.0070904,1.75213,0.65919
201.1,28.07555,-0.007213677,1.74796,0.6592
201.7,28.129,-0.005781651,1.75389,0.6592
202.3,28.1821,-0.008547301,1.77549,0.65921
202.9,28.23525,-0.009546979,1.76994,0.65921
203.5,28.28868,-0.00954,1.77264,0.65922
204.1,28.3419,-0.009540261,1.77224,0.65922
204.7,28.3956,-0.009900203,1.77081,0.65922
205.3,28.44918,-0.00987028,1.78447,0.65922
205.9,28.50256,-0.01018725,1.78627,0.65922
206.5,28.556,-0.01039805,1.80286,0.65922
207.1,28.60943,-0.008899066,1.78546,0.65922
207.7,28.6628,-0.009977148,1.78939,0.65922
208.3,28.71616,-0.01055885,1.7892,0.65921
208.9,28.76949,-0.01052999,1.80204,0.65921
209.5,28.8227,-0.01049681,1.79697,0.6592
210.1,28.87605,-0.01151517,1.80536,0.65919
210.7,28.9294,-0.01283073,1.79358,0.65918
211.3,28.98268,-0.01285136,1.79936,0.65917
211.9,29.03609,-0.01413856,1.7969,0.65916
212.5,29.08933,-0.01414244,1.79528,0.65915
213.1,29.14276,-0.01283189,1.80326,0.65913
213.7,29.19619,-0.01283453,1.8112,0.65912
214.3,29.2496,-0.01381901,1.80792,0.6591
214.9,29.3033,-0.01381991,1.81932,0.65908
215.5,29.35662,-0.01391534,1.82142,0.65907
216.1,29.4101,-0.01250005,1.82667,0.65905
216.7,29.4636,-0.01378405,1.84046,0.65903
217.3,29.51691,-0.01375348,1.83579,0.659
217.9,29.57038,-0.01644852,1.82813,0.65898
218.5,29.6237,-0.01514391,1.83005,0.65896
219.1,29.677,-0.01503669,1.84339,0.65893
219.7,29.73037,-0.01511628,1.83065,0.65891
220.3,29.7838,-0.01373683,1.85127,0.65888
220.9,29.83724,-0.01584711,1.85645,0.65885
221.5,29.8908,-0.01644003,1.8565,0.65882
222.1,29.94428,-0.01638053,1.86464,0.65879
222.7,29.9976,-0.01907852,1.87663,0.65876
223.3,30.05095,-0.02144877,1.87581,0.65873
223.9,30.1041,-0.02030752,1.87342,0.65869
224.5,30.15754,-0.01892226,1.87905,0.65866
225.1,30.21094,-0.01896998,1.89421,0.65862
225.7,30.26442,-0.01899346,1.89109,0.65859
226.3,30.31798,-0.02162004,1.89936,0.65855
226.9,30.37143,-0.02297315,1.89601,0.65851
227.5,30.4251,-0.02331135,1.91083,0.65847
228.1,30.47867,-0.02164703,1.89872,0.65843
228.7,30.53217,-0.02050806,1.90623,0.65839
229.3,30.5857,-0.02186296,1.92212,0.65834
229.9,30.63908,-0.02181999,1.9097,0.6583
230.5,30.69254,-0.02183282,1.91884,0.65825
231.1,30.746,-0.02453563,1.91735,0.65821
231.7,30.7994,-0.02446112,1.93124,0.65816
232.3,30.85292,-0.02456325,1.93165,0.65811
232.9,30.90632,-0.02587159,1.93144,0.65806
233.5,30.95972,-0.02719884,1.93383,0.65801
234.1,31.01319,-0.02861581,1.94161,0.65796
234.7,31.0666,-0.02748676,1.94222,0.65791
235.3,31.1203,-0.02720013,1.9311,0.65785
235.9,31.17398,-0.02849395,1.9373,0.6578
236.5,31.2275,-0.02851999,1.93167,0.65774
237.1,31.2812,-0.02850457,1.93755,0.65769
237.7,31.3347,-0.03113523,1.93793,0.65763
238.3,31.38853,-0.03247414,1.93657,0.65757
238.9,31.4423,-0.03241508,1.94354,0.65751
239.5,31.49598,-0.03378037,1.93829,0.65745
240.1,31.54965,-0.03408142,1.9451,0.65739
240.7,31.60337,-0.03511514,1.94485,0.65732
241.3,31.657,-0.03800495,1.95765,0.65726
241.9,31.71077,-0.03809949,1.94681,0.65719
242.5,31.7645,-0.0393302,1.94564,0.65713
243.1,31.81799,-0.04171003,1.94779,0.65706
243.7,31.8717,-0.04142564,1.96204,0.65699
244.3,31.92545,-0.04089647,1.95081,0.65692
244.9,31.9791,-0.04085067,1.95579,0.65685
245.5,32.0328,-0.04231005,1.95692,0.65678
246.1,32.08637,-0.04222004,1.96458,0.65671
246.7,32.13994,-0.04353679,1.9578,0.65664
247.3,32.19344,-0.04587187,1.9675,0.65656
247.9,32.247,-0.04618839,1.96916,0.65649
248.5,32.30057,-0.04744299,1.96942,0.65641
249.1,32.35414,-0.04941886,1.98443,0.65633
249.7,32.40782,-0.0506695,1.9878,0.65625
250.3,32.46148,-0.05068152,1.98201,0.65617
250.9,32.51513,-0.05348956,1.98058,0.65609
251.5,32.5687,-0.05385096,1.98174,0.65601
252.1,32.62232,-0.0560243,1.98765,0.65593
252.7,32.676,-0.05723878,1.98727,0.65585
253.3,32.7296,-0.05725,1.9932,0.65576
253.9,32.78327,-0.05722448,1.98989,0.65568
254.5,32.8369,-0.05852365,1.98571,0.65559
255.1,32.89043,-0.06090732,1.9996,0.6555
255.7,32.94407,-0.06327263,1.99837,0.65541
256.3,32.99773,-0.06429879,1.99745,0.65532
256.9,33.05133,-0.06717868,2.00181,0.65523
257.5,33.1049,-0.06843691,2.00673,0.65514
258.1,33.1586,-0.07062212,2.02078,0.65505
258.7,33.21212,-0.07140001,2.01377,0.65496
259.3,33.26574,-0.07278785,2.02426,0.65486
259.9,33.3193,-0.0726673,2.01697,0.65477
260.5,33.37285,-0.07576027,2.01659,0.65467
261.1,33.42657,-0.07695839,2.02335,0.65457
261.7,33.48017,-0.08007746,2.02367,0.65448
262.3,33.53373,-0.08383716,2.04142,0.65438
262.9,33.58732,-0.0876049,2.04475,0.65428
263.5,33.6407,-0.0889452,2.0377,0.65418
264.1,33.69425,-0.0901983,2.04744,0.65407
264.7,33.74788,-0.09339643,2.05555,0.65397
265.3,33.8016,-0.09323384,2.05834,0.65387
265.9,33.85541,-0.09511159,2.05664,0.65376
266.5,33.90903,-0.09542808,2.06058,0.65366
267.1,33.96263,-0.09850031,2.0749,0.65355
267.7,34.01616,-0.10328,2.06613,0.65344
268.3,34.06965,-0.10598,2.07838,0.65333
268.9,34.1233,-0.10923,2.07744,0.65322
269.5,34.1768,-0.11206,2.08719,0.65311
270.1,34.23046,-0.1152,2.09364,0.653
270.7,34.28405,-0.11796,2.09258,0.65289
271.3,34.33762,-0.11948,2.10827,0.65277
271.9,34.39136,-0.121,2.10183,0.65266
272.5,34.44514,-0.12504,2.1042,0.65254
273.1,34.49899,-0.12858,2.12056,0.65243
273.7,34.55283,-0.1314,2.11721,0.65231
274.3,34.60652,-0.13501,2.12146,0.65219
274.9,34.66026,-0.13997,2.13649,0.65207
275.5,34.71405,-0.14547,2.13884,0.65195
276.1,34.7675,-0.1482,2.13684,0.65183
276.7,34.82105,-0.15121,2.15304,0.65171
277.3,34.87446,-0.15608,2.13956,0.65159
277.9,34.9278,-0.15994,2.13846,0.65147
278.5,34.98151,-0.16401,2.14341,0.65134
279.1,35.03559,-0.16603,2.15123,0.65122
279.7,35.0899,-0.17186,2.155,0.65109
280.3,35.14434,-0.17584,2.16077,0.65096
280.9,35.19854,-0.17965,2.16119,0.65083
281.5,35.2523,-0.1823,2.16597,0.6507
282.1,35.30617,-0.18663,2.15892,0.65057
282.7,35.36,-0.19239,2.16645,0.65044
283.3,35.41408,-0.19708,2.16111,0.65031
283.9,35.4681,-0.20295,2.17087,0.65018
284.5,35.52211,-0.2087,2.17947,0.65005
285.1,35.57604,-0.21137,2.17734,0.64991
285.7,35.63006,-0.21323,2.18628,0.64978
286.3,35.68408,-0.22023,2.17394,0.64964
286.9,35.73806,-0.22458,2.17461,0.6495
287.5,35.79207,-0.22847,2.18447,0.64936
288.1,35.84615,-0.23509,2.18387,0.64923
288.7,35.9003,-0.24101,2.18286,0.64909
289.3,35.9544,-0.24657,2.1883,0.64894
289.9,36.00853,-0.25149,2.17817,0.6488
290.5,36.06252,-0.2564,2.17997,0.64866
291.1,36.11658,-0.26037,2.17601,0.64852
291.7,36.17066,-0.26586,2.17803,0.64837
292.3,36.22467,-0.27115,2.18695,0.64823
292.9,36.27884,-0.27631,2.16937,0.64808
293.5,36.33303,-0.27995,2.17936,0.64794
294.1,36.38725,-0.28532,2.16485,0.64779
294.7,36.44141,-0.29245,2.17393,0.64764
295.3,36.49555,-0.29603,2.1706,0.64749
295.9,36.54963,-0.30267,2.16026,0.64734
296.5,36.60373,-0.30827,2.15821,0.64719
297.1,36.658,-0.31276,2.16213,0.64704
297.7,36.7121,-0.31965,2.16007,0.64688
298.3,36.76644,-0.32586,2.16625,0.64673
298.9,36.82078,-0.3326,2.1491,0.64658
299.5,36.87506,-0.33533,2.16792,0.64642
300.1,36.92938,-0.33963,2.16853,0.64627
300.7,36.9836,-0.3443,2.16686,0.64611
301.3,37.03774,-0.3517,2.17248,0.64595
301.9,37.09199,-0.35705,2.1742,0.64579
302.5,37.14625,-0.36392,2.18228,0.64563
303.1,37.20041,-0.36964,2.17493,0.64547
303.7,37.25472,-0.37375,2.17042,0.64531
304.3,37.30892,-0.37948,2.17895,0.64515
304.9,37.36323,-0.38348,2.17265,0.64499
305.5,37.41765,-0.38991,2.17424,0.64482
306.1,37.47198,-0.39504,2.17848,0.64466
306.7,37.52635,-0.40111,2.16681,0.64449
307.3,37.58058,-0.40723,2.17522,0.64433
307.9,37.63482,-0.41237,2.18246,0.64416
308.5,37.68902,-0.41702,2.18395,0.64399
309.1,37.74324,-0.42146,2.18491,0.64383
309.7,37.79746,-0.42828,2.18446,0.64366
310.3,37.8518,-0.43326,2.18294,0.64349
310.9,37.90605,-0.43994,2.19376,0.64332
311.5,37.96033,-0.44546,2.19579,0.64314
312.1,38.0147,-0.44882,2.19109,0.64297
312.7,38.0687,-0.45405,2.19379,0.6428
313.3,38.12318,-0.4614,2.20766,0.64262
313.9,38.17756,-0.46688,2.20365,0.64245
314.5,38.2316,-0.47276,2.20684,0.64227
315.1,38.2862,-0.47782,2.21504,0.6421
315.7,38.34057,-0.48377,2.21779,0.64192
316.3,38.39516,-0.49094,2.2361,0.64174
316.9,38.44979,-0.49696,2.22246,0.64156
317.5,38.5043,-0.50004,2.2334,0.64138
318.1,38.55878,-0.50345,2.24029,0.6412
318.7,38.61327,-0.51203,2.24951,0.64102
319.3,38.6679,-0.51728,2.24848,0.64084
319.9,38.72254,-0.52368,2.24755,0.64066
320.5,38.7771,-0.53123,2.24619,0.64048
321.1,38.83187,-0.53613,2.26585,0.64029
321.7,38.88655,-0.53985,2.27141,0.64011
322.3,38.94103,-0.54712,2.27719,0.63992
322.9,38.9955,-0.5534,2.27958,0.63974
323.5,39.05011,-0.56006,2.28331,0.63955
324.1,39.10459,-0.56542,2.29324,0.63936
324.7,39.15937,-0.57223,2.29676,0.63917
325.3,39.21391,-0.57822,2.31591,0.63898
325.9,39.26854,-0.58256,2.32122,0.63879
326.5,39.32327,-0.59097,2.33023,0.6386
327.1,39.37789,-0.59563,2.34088,0.63841
327.7,39.43277,-0.60207,2.35498,0.63822
328.3,39.4874,-0.60972,2.34273,0.63803
328.9,39.54224,-0.6149,2.36411,0.63783
329.5,39.59706,-0.62299,2.37842,0.63764
330.1,39.65188,-0.62733,2.37898,0.63744
330.7,39.70673,-0.63387,2.3932,0.63725
331.3,39.76145,-0.64013,2.39641,0.63705
331.9,39.81619,-0.64712,2.41147,0.63685
332.5,39.871,-0.65401,2.42771,0.63665
333.1,39.92592,-0.66172,2.44741,0.63646
333.7,39.98067,-0.66719,2.45328,0.63626
334.3,40.0354,-0.6744,2.45714,0.63606
334.9,40.0901,-0.68159,2.48977,0.63586
335.5,40.14495,-0.69011,2.49349,0.63565
336.1,40.1997,-0.69404,2.50547,0.63545
336.7,40.2547,-0.70171,2.51471,0.63525
337.3,40.30943,-0.71092,2.52187,0.63505
337.9,40.36415,-0.71644,2.54756,0.63484
338.5,40.4189,-0.72378,2.55864,0.63464
339.1,40.47359,-0.73273,2.57442,0.63443
339.7,40.52839,-0.74046,2.58468,0.63422
340.3,40.58293,-0.74821,2.60974,0.63402
340.9,40.63792,-0.75651,2.62556,0.63381
341.5,40.69294,-0.76436,2.6463,0.6336
342.1,40.7479,-0.77269,2.65701,0.63339
342.7,40.80314,-0.78023,2.68962,0.63318
343.3,40.85814,-0.78922,2.71202,0.63297
343.9,40.91303,-0.79847,2.72617,0.63276
344.5,40.96796,-0.80798,2.75622,0.63255
345.1,41.0229,-0.8167,2.78387,0.63234
345.7,41.0777,-0.8262,2.80452,0.63212
346.3,41.1326,-0.83467,2.81865,0.63191
346.9,41.1875,-0.844,2.86282,0.63169
347.5,41.24237,-0.85317,2.87677,0.63148
348.1,41.2975,-0.86335,2.9127,0.63126
348.7,41.35248,-0.87402,2.93487,0.63105
349.3,41.4076,-0.8852,2.96916,0.63083
349.9,41.46285,-0.89382,2.99636,0.63061
350.5,41.51789,-0.90327,3.02293,0.63039
351.1,41.57298,-0.91466,3.05047,0.63017
351.7,41.62789,-0.92528,3.08929,0.62995
352.3,41.68289,-0.93712,3.10914,0.62973
352.9,41.73793,-0.94873,3.15117,0.62951
353.5,41.79302,-0.96021,3.18015,0.62929
354.1,41.8483,-0.9727,3.21641,0.62907
354.7,41.9032,-0.98486,3.25115,0.62885
355.3,41.95824,-0.99642,3.27531,0.62862
355.9,42.01345,-1.00974,3.31125,0.6284
356.5,42.0685,-1.02212,3.34348,0.62817
357.1,42.1241,-1.03826,3.37326,0.62795
357.7,42.17942,-1.04905,3.40413,0.62772
358.3,42.2348,-1.06043,3.42245,0.6275
358.9,42.28986,-1.07553,3.45915,0.62727
359.5,42.34507,-1.08746,3.48276,0.62704
360.1,42.40039,-1.10187,3.51532,0.62681
360.7,42.45558,-1.11464,3.53519,0.62658
361.3,42.5113,-1.13105,3.55002,0.62635
361.9,42.5667,-1.14537,3.56697,0.62612
362.5,42.62227,-1.15861,3.57971,0.62589
363.1,42.6777,-1.17294,3.58915,0.62566
363.7,42.73298,-1.187,3.59232,0.62543
364.3,42.78843,-1.20139,3.5882,0.6252
364.9,42.844,-1.21538,3.58961,0.62496
365.5,42.8996,-1.22935,3.59416,0.62473
366.1,42.9551,-1.24396,3.57128,0.6245
366.7,43.0107,-1.259,3.55383,0.62426
367.3,43.06629,-1.27394,3.52481,0.62403
367.9,43.12184,-1.2859,3.4914,0.62379
368.5,43.17739,-1.30019,3.45015,0.62355
369.1,43.23298,-1.31336,3.42254,0.62332
369.7,43.2885,-1.32593,3.36863,0.62308
370.3,43.34407,-1.33893,3.29455,0.62284
370.9,43.3996,-1.35057,3.25133,0.6226
371.5,43.45517,-1.36167,3.17829,0.62236
372.1,43.51078,-1.37346,3.11811,0.62212
372.7,43.5663,-1.38416,3.03556,0.62188
373.3,43.62182,-1.39559,2.9666,0.62164
373.9,43.67738,-1.40319,2.88097,0.6214
374.5,43.73292,-1.41326,2.78725,0.62116
375.1,43.78832,-1.42244,2.69123,0.62091
375.7,43.8436,-1.43039,2.60346,0.62067
376.3,43.89873,-1.43848,2.52311,0.62043
376.9,43.95404,-1.44613,2.42817,0.62018
377.5,44.00949,-1.45219,2.33184,0.61994
378.1,44.06515,-1.45775,2.25073,0.61969
378.7,44.12057,-1.46261,2.1581,0.61944
379.3,44.17638,-1.46932,2.07104,0.6192
379.9,44.23213,-1.47371,1.99841,0.61895
380.5,44.28795,-1.47782,1.93397,0.6187
381.1,44.34355,-1.48056,1.84443,0.61845
381.7,44.39868,-1.48441,1.78792,0.61821
382.3,44.4542,-1.48713,1.73087,0.61796
382.9,44.50966,-1.48907,1.6951,0.61771
383.5,44.5655,-1.49317,1.63439,0.61746
384.1,44.62121,-1.49512,1.60527,0.61721
384.7,44.6768,-1.49975,1.55709,0.61696
385.3,44.73242,-1.49975,1.51835,0.6167
385.9,44.7881,-1.50138,1.51719,0.61645
386.5,44.84364,-1.50234,1.4799,0.6162
387.1,44.89933,-1.50411,1.46552,0.61595
387.7,44.95519,-1.50399,1.45108,0.61569
388.3,45.011,-1.50575,1.44922,0.61544
388.9,45.067,-1.50691,1.4306,0.61518
389.5,45.12278,-1.50937,1.4204,0.61493
390.1,45.17852,-1.5106,1.40513,0.61467
390.7,45.2344,-1.51059,1.41525,0.61442
391.3,45.2905,-1.51129,1.40605,0.61416
391.9,45.3464,-1.51438,1.40239,0.6139
392.5,45.40238,-1.51475,1.394,0.61364
393.1,45.4583,-1.51593,1.40395,0.61339
393.7,45.5142,-1.51749,1.39871,0.61313
394.3,45.57018,-1.52015,1.38658,0.61287
394.9,45.62596,-1.52057,1.3855,0.61261
395.5,45.68202,-1.52155,1.38682,0.61235
396.1,45.73802,-1.52408,1.39593,0.61209
396.7,45.79395,-1.52413,1.38863,0.61183
397.3,45.85004,-1.52639,1.39222,0.61157
397.9,45.90591,-1.52672,1.38489,0.6113
398.5,45.96202,-1.5282,1.39684,0.61104
399.1,46.0182,-1.53,1.39433,0.61078
399.7,46.07437,-1.53209,1.37628,0.61052
400.3,46.13041,-1.5334,1.39293,0.61025
400.9,46.18663,-1.53325,1.39121,0.60999
401.5,46.24277,-1.53402,1.40176,0.60972
402.1,46.29902,-1.53474,1.37751,0.60946
402.7,46.3553,-1.53746,1.37939,0.60919
403.3,46.4114,-1.53922,1.37963,0.60893
403.9,46.46751,-1.53789,1.38251,0.60866
404.5,46.52373,-1.53923,1.37813,0.60839
405.1,46.57996,-1.54054,1.38632,0.60813
405.7,46.63617,-1.54195,1.36878,0.60786
406.3,46.69253,-1.54312,1.37982,0.60759
406.9,46.7488,-1.54449,1.38561,0.60732
407.5,46.80502,-1.54627,1.38375,0.60705
408.1,46.8614,-1.54836,1.37448,0.60679
408.7,46.91778,-1.55086,1.37347,0.60652
409.3,46.97425,-1.55085,1.37881,0.60625
409.9,47.03074,-1.55226,1.38003,0.60598
410.5,47.08716,-1.55222,1.36906,0.6057
411.1,47.1436,-1.55231,1.37665,0.60543
411.7,47.19989,-1.55205,1.37293,0.60516
412.3,47.25611,-1.55485,1.37067,0.60489
412.9,47.31266,-1.55633,1.38033,0.60462
413.5,47.36934,-1.55885,1.38815,0.60434
414.1,47.42606,-1.56146,1.38652,0.60407
414.7,47.48223,-1.56149,1.39698,0.6038
415.3,47.5387,-1.56283,1.38944,0.60352
415.9,47.5952,-1.56661,1.41069,0.60325
416.5,47.65198,-1.56835,1.43712,0.60297
417.1,47.7089,-1.56972,1.42228,0.6027
417.7,47.76551,-1.57104,1.42734,0.60242
418.3,47.82222,-1.57234,1.43277,0.60215
418.9,47.87904,-1.57232,1.43896,0.60187
419.5,47.9359,-1.5751,1.43692,0.60159
420.1,47.99269,-1.57772,1.43644,0.60132
420.7,48.0495,-1.57904,1.45492,0.60104
421.3,48.1063,-1.58036,1.4706,0.60076
421.9,48.16299,-1.58191,1.47772,0.60048
422.5,48.21968,-1.58418,1.46551,0.60021
423.1,48.27643,-1.58467,1.47715,0.59993
423.7,48.3332,-1.58602,1.47664,0.59965
424.3,48.39012,-1.58935,1.50078,0.59937
424.9,48.44701,-1.5918,1.50063,0.59909
425.5,48.50394,-1.5926,1.49703,0.59881
426.1,48.56077,-1.59446,1.51297,0.59853
426.7,48.6177,-1.59495,1.51572,0.59825
427.3,48.67457,-1.59764,1.52964,0.59797
427.9,48.73148,-1.60325,1.54695,0.59768
428.5,48.78839,-1.6055,1.5548,0.5974
429.1,48.8452,-1.6049,1.57112,0.59712
429.7,48.9022,-1.60753,1.57704,0.59684
430.3,48.95893,-1.60933,1.58443,0.59655
430.9,49.01577,-1.61232,1.60602,0.59627
431.5,49.07266,-1.61693,1.61809,0.59599
432.1,49.12927,-1.61975,1.62976,0.5957
432.7,49.18586,-1.62181,1.65355,0.59542
433.3,49.2427,-1.62259,1.66134,0.59514
433.9,49.29963,-1.62619,1.67118,0.59485
434.5,49.35695,-1.63058,1.69943,0.59457
435.1,49.4139,-1.63525,1.7043,0.59428
435.7,49.47083,-1.63705,1.72541,0.59399
436.3,49.52745,-1.64072,1.73192,0.59371
436.9,49.58444,-1.64314,1.75412,0.59342
437.5,49.64164,-1.64635,1.77055,0.59314
438.1,49.69882,-1.64862,1.7859,0.59285
438.7,49.75628,-1.65248,1.8099,0.59256
439.3,49.8134,-1.6562,1.81757,0.59227
439.9,49.8705,-1.65934,1.83378,0.59199
440.5,49.92752,-1.66324,1.85608,0.5917
441.1,49.9846,-1.66727,1.88377,0.59141
441.7,50.04167,-1.67266,1.89568,0.59112
442.3,50.09871,-1.67622,1.91928,0.59083
442.9,50.1558,-1.68054,1.93302,0.59054
443.5,50.21281,-1.68581,1.96871,0.59025
444.1,50.2699,-1.68926,1.97848,0.58996
444.7,50.32703,-1.69456,2.00026,0.58967
445.3,50.3842,-1.69993,2.01686,0.58938
445.9,50.44151,-1.70474,2.04549,0.58909
446.5,50.49882,-1.71239,2.07514,0.5888
447.1,50.556,-1.71754,2.11297,0.58851
447.7,50.6132,-1.72154,2.13735,0.58822
448.3,50.6703,-1.72704,2.15428,0.58793
448.9,50.7276,-1.73274,2.1779,0.58764
449.5,50.78464,-1.7382,2.2266,0.58734
450.1,50.84169,-1.74854,2.23758,0.58705
450.7,50.89905,-1.75324,2.27283,0.58676
451.3,50.95632,-1.76081,2.30841,0.58647
451.9,51.0141,-1.76793,2.33229,0.58617
452.5,51.07124,-1.77446,2.37538,0.58588
453.1,51.1286,-1.78383,2.40689,0.58558
453.7,51.18594,-1.79014,2.44731,0.58529
454.3,51.24334,-1.79593,2.46775,0.585
454.9,51.3009,-1.80449,2.50587,0.5847
455.5,51.3584,-1.81447,2.51699,0.58441
456.1,51.4157,-1.82243,2.56936,0.58411
456.7,51.47312,-1.83245,2.60093,0.58382
457.3,51.53048,-1.84216,2.64005,0.58352
457.9,51.58791,-1.85262,2.6778,0.58323
458.5,51.6456,-1.86265,2.71427,0.58293
459.1,51.70303,-1.87248,2.75567,0.58264
459.7,51.76063,-1.88344,2.80003,0.58234
460.3,51.81821,-1.89655,2.85007,0.58204
460.9,51.87574,-1.9086,2.88256,0.58175
461.5,51.93339,-1.91985,2.91795,0.58145
462.1,51.99096,-1.92984,2.96601,0.58115
462.7,52.04851,-1.94388,3.00308,0.58086
463.3,52.10597,-1.95738,3.06496,0.58056
463.9,52.16362,-1.97094,3.08189,0.58026
464.5,52.22112,-1.98755,3.1318,0.57996
465.1,52.27877,-2.00025,3.17791,0.57967
465.7,52.3365,-2.01427,3.20722,0.57937
466.3,52.394,-2.03232,3.26427,0.57907
466.9,52.4518,-2.04564,3.29868,0.57877
467.5,52.50949,-2.06238,3.33777,0.57847
468.1,52.5672,-2.07979,3.36913,0.57817
468.7,52.62497,-2.09312,3.41353,0.57787
469.3,52.6827,-2.11236,3.46091,0.57758
469.9,52.74057,-2.13024,3.48946,0.57728
470.5,52.79832,-2.14896,3.52369,0.57698
471.1,52.8561,-2.16931,3.55689,0.57668
471.7,52.9137,-2.18699,3.61159,0.57638
472.3,52.97136,-2.20802,3.64697,0.57608
472.9,53.0291,-2.22753,3.67629,0.57578
473.5,53.08695,-2.24971,3.70492,0.57548
474.1,53.1449,-2.26864,3.73723,0.57517
474.7,53.2028,-2.29109,3.75991,0.57487
475.3,53.2608,-2.31409,3.80306,0.57457
475.9,53.3187,-2.33434,3.80025,0.57427
476.5,53.3765,-2.36032,3.81741,0.57397
477.1,53.4343,-2.3819,3.83335,0.57367
477.7,53.4921,-2.40515,3.84852,0.57337
478.3,53.5499,-2.42699,3.88217,0.57307
478.9,53.60776,-2.45216,3.88365,0.57276
479.5,53.66555,-2.4759,3.87818,0.57246
480.1,53.7233,-2.5002,3.88677,0.57216
480.7,53.78106,-2.5238,3.85195,0.57186
481.3,53.8388,-2.54938,3.8476,0.57156
481.9,53.89677,-2.57477,3.8341,0.57125
482.5,53.9547,-2.5989,3.79395,0.57095
483.1,54.0124,-2.62447,3.77908,0.57065
483.7,54.07014,-2.64755,3.73878,0.57035
484.3,54.12805,-2.67365,3.70151,0.57004
484.9,54.18595,-2.69692,3.66255,0.56974
485.5,54.2444,-2.72271,3.59736,0.56944
486.1,54.3024,-2.74839,3.53053,0.56913
486.7,54.36029,-2.77048,3.4895,0.56883
487.3,54.41819,-2.7949,3.41797,0.56853
487.9,54.4761,-2.81377,3.35288,0.56822
488.5,54.534,-2.83873,3.25337,0.56792
489.1,54.5921,-2.86028,3.16008,0.56761
489.7,54.6501,-2.88147,3.0795,0.56731
490.3,54.7081,-2.90114,2.98349,0.56701
490.9,54.7662,-2.92086,2.88641,0.5667
491.5,54.8242,-2.93782,2.78414,0.5664
492.1,54.88236,-2.95593,2.67996,0.56609
492.7,54.9405,-2.97391,2.56914,0.56579
493.3,54.99856,-2.98941,2.46362,0.56548
493.9,55.0568,-3.00615,2.3513,0.56518
494.5,55.11512,-3.01909,2.2484,0.56487
495.1,55.17338,-3.03491,2.13047,0.56457
495.7,55.2316,-3.0461,2.02076,0.56426
496.3,55.28994,-3.05967,1.91435,0.56396
496.9,55.34805,-3.06901,1.80646,0.56365
497.5,55.4063,-3.07705,1.7115,0.56335
498.1,55.4645,-3.08533,1.59677,0.56304
498.7,55.52281,-3.09056,1.50658,0.56274
499.3,55.58119,-3.09666,1.40809,0.56243
499.9,55.63955,-3.10439,1.32777,0.56213
500.5,55.69781,-3.11035,1.2512,0.56182
501.1,55.7562,-3.11432,1.18061,0.56152
501.7,55.81449,-3.11937,1.09986,0.56121
502.3,55.87275,-3.12058,1.04543,0.5609
502.9,55.93094,-3.12487,0.97964,0.5606
503.5,55.98907,-3.12827,0.93179,0.56029
504.1,56.0473,-3.13116,0.8847,0.55999
504.7,56.1055,-3.13342,0.83521,0.55968
505.3,56.16375,-3.13496,0.80813,0.55937
505.9,56.22201,-3.13438,0.77634,0.55907
506.5,56.2803,-3.1357,0.77691,0.55876
507.1,56.3388,-3.1357,0.74476,0.55846
507.7,56.3973,-3.13702,0.73667,0.55815
508.3,56.4557,-3.13701,0.72461,0.55784
508.9,56.5138,-3.13958,0.71158,0.55754
509.5,56.57213,-3.1396,0.68998,0.55723
510.1,56.63052,-3.13846,0.67578,0.55692
510.7,56.68897,-3.14037,0.68205,0.55662
511.3,56.7476,-3.14163,0.67219,0.55631
511.9,56.80607,-3.14173,0.67367,0.556
512.5,56.8645,-3.14175,0.67086,0.5557
513.1,56.92286,-3.14305,0.67697,0.55539
513.7,56.9815,-3.14353,0.66315,0.55508
514.3,57.04008,-3.14447,0.66692,0.55478
514.9,57.0986,-3.14582,0.66813,0.55447
515.5,57.1571,-3.1446,0.66192,0.55416
516.1,57.21566,-3.14456,0.6655,0.55386
516.7,57.27426,-3.1458,0.65823,0.55355
517.3,57.33286,-3.14711,0.6724,0.55324
517.9,57.39141,-3.14603,0.66038,0.55294
518.5,57.44954,-3.14579,0.66532,0.55263
519.1,57.5078,-3.14703,0.68017,0.55232
519.7,57.56544,-3.14842,0.6726,0.55202
520.3,57.6239,-3.14838,0.66894,0.55171
520.9,57.68251,-3.14974,0.67466,0.5514
521.5,57.7415,-3.14884,0.66945,0.5511
522.1,57.80052,-3.14974,0.67584,0.55079
522.7,57.859,-3.15109,0.67644,0.55048
523.3,57.9175,-3.15117,0.68202,0.55018
523.9,57.976,-3.15254,0.68763,0.54987
524.5,58.03474,-3.15116,0.67528,0.54956
525.1,58.09378,-3.15249,0.69782,0.54926
525.7,58.1529,-3.15366,0.68416,0.54895
526.3,58.21205,-3.1551,0.68024,0.54864
526.9,58.27089,-3.1538,0.6896,0.54834
527.5,58.3297,-3.15448,0.6836,0.54803
528.1,58.38836,-3.15511,0.68983,0.54772
528.7,58.4471,-3.15512,0.68523,0.54742
529.3,58.50577,-3.15511,0.67176,0.54711
529.9,58.5645,-3.15646,0.67376,0.5468
530.5,58.6232,-3.15742,0.66001,0.5465
531.1,58.68181,-3.15723,0.66713,0.54619
531.7,58.74061,-3.15775,0.67233,0.54588
532.3,58.799,-3.15775,0.67082,0.54558
532.9,58.85805,-3.15776,0.66778,0.54527
533.5,58.9167,-3.15906,0.66102,0.54496
534.1,58.9757,-3.15905,0.67375,0.54466
534.7,59.0342,-3.16046,0.6768,0.54435
535.3,59.09274,-3.1617,0.68533,0.54405
535.9,59.15138,-3.16061,0.67229,0.54374
536.5,59.2101,-3.16323,0.68361,0.54343
537.1,59.26902,-3.16195,0.66027,0.54313
537.7,59.32816,-3.16192,0.67407,0.54282
538.3,59.3873,-3.16192,0.67112,0.54251
538.9,59.44631,-3.16324,0.6705,0.54221
539.5,59.5054,-3.16456,0.67307,0.5419
540.1,59.5647,-3.16537,0.68008,0.5416
540.7,59.6244,-3.1671,0.66792,0.54129
541.3,59.684,-3.16718,0.66774,0.54098
541.9,59.7435,-3.16718,0.67207,0.54068
542.5,59.8028,-3.16859,0.67595,0.54037
543.1,59.86201,-3.16835,0.67475,0.54007
543.7,59.921,-3.16825,0.67686,0.53976
544.3,59.9801,-3.16752,0.67605,0.53946
544.9,60.03924,-3.16849,0.67834,0.53915
545.5,60.09841,-3.16849,0.68601,0.53885
546.1,60.1577,-3.16849,0.68932,0.53854
546.7,60.21695,-3.16982,0.69224,0.53824
547.3,60.2761,-3.1685,0.6859,0.53793
547.9,60.3351,-3.17121,0.69048,0.53763
548.5,60.3943,-3.16985,0.67666,0.53732
549.1,60.4535,-3.16982,0.69611,0.53702
549.7,60.5125,-3.17243,0.6887,0.53671
550.3,60.57195,-3.17244,0.69791,0.53641
550.9,60.6309,-3.17247,0.69843,0.5361
551.5,60.6899,-3.17387,0.68632,0.5358
552.1,60.74909,-3.17387,0.68798,0.53549
552.7,60.8078,-3.17256,0.69219,0.53519
553.3,60.86695,-3.17426,0.69566,0.53488
553.9,60.92625,-3.17596,0.69118,0.53458
554.5,60.98575,-3.17617,0.68437,0.53428
555.1,61.0456,-3.17526,0.70268,0.53397
555.7,61.10535,-3.18157,0.69589,0.53367
556.3,61.1647,-3.16654,0.70295,0.53336
556.9,61.224,-3.1761,0.70318,0.53306
557.5,61.28334,-3.17661,0.69791,0.53276
558.1,61.34259,-3.17793,0.70007,0.53245
558.7,61.402,-3.17793,0.70206,0.53215
559.3,61.46141,-3.17658,0.6932,0.53185
559.9,61.5208,-3.17661,0.70615,0.53154
560.5,61.58019,-3.17762,0.6978,0.53124
561.1,61.63935,-3.17924,0.7185,0.53094
561.7,61.6987,-3.1873,0.69339,0.53064
562.3,61.7582,-3.17428,0.70381,0.53033
562.9,61.81759,-3.17679,0.71161,0.53003
563.5,61.87709,-3.17948,0.72538,0.52973
564.1,61.9364,-3.17811,0.70886,0.52943
564.7,61.9959,-3.18216,0.7202,0.52912
565.3,62.05528,-3.18221,0.71425,0.52882
565.9,62.11484,-3.18116,0.71898,0.52852
566.5,62.1745,-3.18089,0.71902,0.52822
567.1,62.23398,-3.18163,0.72609,0.52792
567.7,62.29351,-3.18221,0.72532,0.52761
568.3,62.353,-3.18286,0.72703,0.52731
568.9,62.4127,-3.18359,0.72513,0.52701
569.5,62.4726,-3.18482,0.73252,0.52671
570.1,62.5321,-3.18363,0.73523,0.52641
570.7,62.5917,-3.18484,0.73047,0.52611
571.3,62.6511,-3.18655,0.73265,0.52581
571.9,62.7108,-3.18681,0.7302,0.52551
572.5,62.77038,-3.18681,0.74227,0.52521
573.1,62.83008,-3.18681,0.7456,0.52491
573.7,62.88971,-3.1855,0.7475,0.52461
574.3,62.9493,-3.1855,0.74788,0.52431
574.9,63.0089,-3.18583,0.73875,0.52401
575.5,63.0685,-3.18716,0.75074,0.52371
576.1,63.128,-3.18715,0.75235,0.52341
576.7,63.1874,-3.18846,0.75029,0.52311
577.3,63.24705,-3.18847,0.74815,0.52281
577.9,63.30669,-3.18846,0.75196,0.52251
578.5,63.36685,-3.18746,0.73851,0.52221
579.1,63.42658,-3.18747,0.75559,0.52191
579.7,63.48659,-3.18888,0.75166,0.52161
580.3,63.5464,-3.18853,0.7565,0.52131
580.9,63.60621,-3.18758,0.75189,0.52102
581.5,63.6663,-3.18926,0.74653,0.52072
582.1,63.72602,-3.19022,0.76264,0.52042
582.7,63.7858,-3.19022,0.75504,0.52012
583.3,63.8455,-3.1889,0.7628,0.51982
583.9,63.90523,-3.19022,0.76211,0.51953
584.5,63.96507,-3.19025,0.76249,0.51923
585.1,64.02476,-3.18422,0.76014,0.51893
585.7,64.08466,-3.19625,0.77015,0.51864
586.3,64.1444,-3.19284,0.77094,0.51834
586.9,64.20437,-3.19416,0.76382,0.51804
587.5,64.26435,-3.19415,0.75688,0.51775
588.1,64.32414,-3.18473,0.78116,0.51745
588.7,64.38413,-3.20246,0.77763,0.51715
589.3,64.4438,-3.1958,0.7819,0.51686
589.9,64.50347,-3.19309,0.77686,0.51656
590.5,64.5634,-3.19447,0.7794,0.51627
591.1,64.6232,-3.19318,0.79537,0.51597
591.7,64.6832,-3.19344,0.78881,0.51568
592.3,64.74302,-3.19429,0.7965,0.51538
592.9,64.803,-3.19427,0.80294,0.51509
593.5,64.8629,-3.19427,0.80565,0.51479
594.1,64.92296,-3.19427,0.80783,0.5145
594.7,64.98294,-3.19427,0.81975,0.5142
595.3,65.0428,-3.19427,0.81514,0.51391
595.9,65.1028,-3.19296,0.80678,0.51361
596.5,65.16254,-3.19326,0.82659,0.51332
597.1,65.22234,-3.19632,0.80288,0.51303
597.7,65.2821,-3.19749,0.80459,0.51273
598.3,65.34192,-3.19614,0.80513,0.51244
598.9,65.4018,-3.19583,0.80722,0.51215
599.5,65.46199,-3.19614,0.81091,0.51186
600.1,65.5221,-3.19614,0.80345,0.51156
600.7,65.5823,-3.19614,0.82185,0.51127
601.3,65.64224,-3.19745,0.82809,0.51098
601.9,65.70231,-3.19745,0.83191,0.51069
602.5,65.76241,-3.19811,0.82394,0.5104
603.1,65.8225,-3.19877,0.8335,0.5101
603.7,65.8827,-3.19877,0.83904,0.50981
604.3,65.94285,-3.19741,0.83851,0.50952
604.9,66.00316,-3.19877,0.84808,0.50923
605.5,66.0633,-3.19877,0.85162,0.50894
606.1,66.12344,-3.19874,0.84016,0.50865
606.7,66.1836,-3.19815,0.85123,0.50836
607.3,66.24375,-3.19877,0.83826,0.50807
607.9,66.30399,-3.19869,0.85078,0.50778
608.5,66.3642,-3.20009,0.85256,0.50749
609.1,66.42447,-3.19944,0.86091,0.5072
609.7,66.48472,-3.19942,0.86555,0.50691
610.3,66.54507,-3.20101,0.86574,0.50662
610.9,66.6049,-3.20095,0.8712,0.50634
611.5,66.66512,-3.2009,0.87074,0.50605
612.1,66.7252,-3.20206,0.87413,0.50576
612.7,66.78567,-3.20111,0.87299,0.50547
613.3,66.84603,-3.20206,0.88494,0.50518
613.9,66.90648,-3.20206,0.87189,0.5049
614.5,66.96691,-3.20075,0.87234,0.50461
615.1,67.02714,-3.20183,0.88563,0.50432
615.7,67.08755,-3.20206,0.88048,0.50404
616.3,67.1477,-3.20273,0.88785,0.50375
616.9,67.20795,-3.20281,0.86859,0.50346
617.5,67.26841,-3.20345,0.86295,0.50318
618.1,67.32871,-3.20208,0.86933,0.50289
618.7,67.38905,-3.20338,0.87661,0.50261
619.3,67.44925,-3.20469,0.88931,0.50232
619.9,67.50955,-3.20531,0.90416,0.50204
620.5,67.56989,-3.20601,0.9063,0.50175
621.1,67.63032,-3.20568,0.89454,0.50147
621.7,67.69057,-3.20569,0.9036,0.50118
622.3,67.75086,-3.20398,0.91113,0.5009
622.9,67.8112,-3.20437,0.91716,0.50061
623.5,67.87155,-3.20305,0.91127,0.50033
624.1,67.9319,-3.20438,0.9142,0.50005
624.7,67.99235,-3.20536,0.9268,0.49977
625.3,68.0526,-3.20536,0.92596,0.49948
625.9,68.1129,-3.20533,0.91838,0.4992
626.5,68.1733,-3.20667,0.91613,0.49892
627.1,68.2338,-3.20662,0.92669,0.49864
627.7,68.29441,-3.20625,0.92074,0.49835
628.3,68.35504,-3.20678,0.92776,0.49807
628.9,68.4157,-3.20677,0.91319,0.49779
629.5,68.47638,-3.20405,0.9206,0.49751
630.1,68.537,-3.20538,0.93193,0.49723
630.7,68.59747,-3.20766,0.93516,0.49695
631.3,68.65804,-3.20632,0.93539,0.49667
631.9,68.71848,-3.20743,0.94131,0.49639
632.5,68.77914,-3.20634,0.96014,0.49611
633.1,68.83985,-3.20634,0.96025,0.49583
633.7,68.90044,-3.20766,0.95288,0.49555
634.3,68.9611,-3.20766,0.94939,0.49527
634.9,69.0218,-3.20685,0.95183,0.49499
635.5,69.08225,-3.20643,0.94794,0.49471
636.1,69.143,-3.20766,0.95241,0.49444
636.7,69.20342,-3.20773,0.9644,0.49416
637.3,69.26398,-3.20894,0.96336,0.49388
637.9,69.3246,-3.20897,0.97257,0.4936
638.5,69.38517,-3.20765,0.97786,0.49333
639.1,69.44569,-3.20766,0.99551,0.49305
639.7,69.5061,-3.20767,0.99796,0.49277
640.3,69.56662,-3.20897,0.98974,0.4925
640.9,69.62699,-3.20861,0.99945,0.49222
641.5,69.68727,-3.21065,0.98727,0.49195
642.1,69.74757,-3.21017,0.98979,0.49167
642.7,69.8079,-3.20919,0.97394,0.49139
643.3,69.8683,-3.2105,0.99722,0.49112
643.9,69.92869,-3.2105,0.99729,0.49085
644.5,69.98897,-3.2105,0.99308,0.49057
645.1,70.0493,-3.21051,1.01767,0.4903
645.7,70.10982,-3.21183,0.99786,0.49002
646.3,70.17015,-3.21051,1.00327,0.48975
646.9,70.23075,-3.21052,0.9909,0.48948
647.5,70.29127,-3.21281,1.01213,0.4892
648.1,70.35212,-3.21281,1.00277,0.48893
648.7,70.41289,-3.2115,0.99004,0.48866
649.3,70.4738,-3.21018,0.98821,0.48839
649.9,70.5347,-3.21024,0.978,0.48812
650.5,70.5956,-3.21149,0.98479,0.48784
651.1,70.6563,-3.21256,0.98398,0.48757
651.7,70.7171,-3.21379,1.00051,0.4873
652.3,70.77775,-3.2138,0.99316,0.48703
652.9,70.83832,-3.2138,0.99137,0.48676
653.5,70.89907,-3.21282,0.99802,0.48649
654.1,70.9597,-3.21378,1.0027,0.48622
654.7,71.02041,-3.21382,0.98465,0.48595
655.3,71.08105,-3.2154,0.98619,0.48568
655.9,71.14191,-3.21281,0.98848,0.48541
656.5,71.20274,-3.21281,1.00328,0.48515
657.1,71.2635,-3.21349,1.00625,0.48488
657.7,71.3242,-3.21412,0.99979,0.48461
658.3,71.38475,-3.21402,0.99488,0.48434
658.9,71.44561,-3.21511,1.00525,0.48407
659.5,71.50653,-3.21511,1.03559,0.48381
660.1,71.56751,-3.21512,1.03006,0.48354
660.7,71.62858,-3.21544,1.03123,0.48327
661.3,71.68953,-3.21413,1.03301,0.48301
661.9,71.75045,-3.21413,1.06527,0.48274
662.5,71.8112,-3.21483,1.06837,0.48248
663.1,71.87201,-3.21592,1.0711,0.48221
663.7,71.93276,-3.21611,1.09427,0.48195
664.3,71.99334,-3.21611,1.10309,0.48168
664.9,72.0541,-3.21612,1.11203,0.48142
665.5,72.11491,-3.22459,1.09187,0.48115
666.1,72.17588,-3.20341,1.10764,0.48089
666.7,72.23683,-3.21111,1.12094,0.48063
667.3,72.29764,-3.21285,1.10845,0.48036
667.9,72.35851,-3.21553,1.12731,0.4801
668.5,72.41938,-3.21517,1.13693,0.47984
669.1,72.48021,-3.21688,1.14079,0.47958
669.7,72.54097,-3.21587,1.15762,0.47931
670.3,72.60199,-3.2164,1.16078,0.47905
670.9,72.663,-3.2172,1.16552,0.47879
671.5,72.72366,-3.2172,1.18426,0.47853
672.1,72.78445,-3.21745,1.17188,0.47827
672.7,72.8451,-3.21752,1.18221,0.47801
673.3,72.9067,-3.21756,1.19849,0.47775
673.9,72.96837,-3.21681,1.21671,0.47749
674.5,73.03,-3.21753,1.23096,0.47723
675.1,73.09133,-3.21753,1.2331,0.47697
675.7,73.1525,-3.21868,1.23639,0.47671
676.3,73.21348,-3.21953,1.23845,0.47645
676.9,73.27459,-3.22014,1.24691,0.4762
677.5,73.3356,-3.21884,1.2525,0.47594
678.1,73.39672,-3.21884,1.26724,0.47568
678.7,73.45789,-3.21761,1.27848,0.47542
679.3,73.51909,-3.21752,1.28598,0.47517
679.9,73.58029,-3.21753,1.29963,0.47491
680.5,73.64138,-3.21631,1.30265,0.47465
681.1,73.70246,-3.21812,1.31945,0.4744
681.7,73.76347,-3.22259,1.30001,0.47414
682.3,73.82467,-3.22024,1.31488,0.47389
682.9,73.88575,-3.21322,1.32509,0.47363
683.5,73.94649,-3.21751,1.3262,0.47338
684.1,74.0073,-3.21636,1.3501,0.47312
684.7,74.06819,-3.21622,1.35359,0.47287
685.3,74.1292,-3.21773,1.36282,0.47262
685.9,74.1901,-3.21884,1.3599,0.47236
686.5,74.25118,-3.21884,1.37392,0.47211
687.1,74.31246,-3.21884,1.36706,0.47186
687.7,74.37393,-3.21884,1.35607,0.47161
688.3,74.4353,-3.22021,1.3885,0.47135
688.9,74.4967,-3.21891,1.37379,0.4711
689.5,74.55804,-3.22005,1.40454,0.47085
690.1,74.61955,-3.22005,1.406,0.4706
690.7,74.681,-3.22007,1.41262,0.47035
691.3,74.74234,-3.21874,1.41156,0.4701
691.9,74.80368,-3.21745,1.41514,0.46985
692.5,74.86493,-3.21912,1.41128,0.4696
693.1,74.9261,-3.22368,1.3929,0.46935
693.7,74.98738,-3.2219,1.40532,0.4691
694.3,75.04854,-3.21435,1.41311,0.46885
694.9,75.10984,-3.22016,1.39866,0.4686
695.5,75.1713,-3.21884,1.40024,0.46835
696.1,75.2327,-3.21884,1.42227,0.46811
696.7,75.29426,-3.22048,1.44156,0.46786
697.3,75.3557,-3.22049,1.4421,0.46761
697.9,75.41707,-3.22049,1.45157,0.46737
698.5,75.4785,-3.22184,1.45208,0.46712
699.1,75.53994,-3.22049,1.47729,0.46687
699.7,75.6015,-3.22082,1.47755,0.46663
700.3,75.663,-3.22082,1.47933,0.46638
700.9,75.7245,-3.22081,1.48319,0.46614
701.5,75.7859,-3.22214,1.477,0.46589
702.1,75.84744,-3.22168,1.49449,0.46565
702.7,75.90896,-3.22179,1.5112,0.4654
703.3,75.97036,-3.22049,1.50743,0.46516
703.9,76.03184,-3.22053,1.51543,0.46492
704.5,76.09311,-3.22191,1.51869,0.46467
705.1,76.15448,-3.22244,1.52531,0.46443
705.7,76.21593,-3.22192,1.53778,0.46419
706.3,76.27754,-3.22192,1.5682,0.46395
706.9,76.3392,-3.22166,1.54247,0.4637
707.5,76.40088,-3.22061,1.5281,0.46346
708.1,76.4626,-3.22077,1.5333,0.46322
708.7,76.52402,-3.22071,1.52006,0.46298
709.3,76.5856,-3.21938,1.54818,0.46274
709.9,76.6472,-3.22853,1.51655,0.4625
710.5,76.7088,-3.21633,1.54012,0.46226
711.1,76.76985,-3.2196,1.5306,0.46202
711.7,76.831,-3.22259,1.55398,0.46178
712.3,76.892,-3.22126,1.57359,0.46154
712.9,76.95329,-3.22124,1.55227,0.4613
713.5,77.01479,-3.2215,1.55692,0.46107
714.1,77.07676,-3.21959,1.57452,0.46083
714.7,77.13863,-3.22433,1.53514,0.46059
715.3,77.20058,-3.22726,1.56485,0.46035
715.9,77.26205,-3.22112,1.59632,0.46012
716.5,77.32335,-3.22253,1.61551,0.45988
717.1,77.38467,-3.22115,1.59689,0.45964
717.7,77.44624,-3.22215,1.59702,0.45941
718.3,77.5076,-3.22247,1.60671,0.45917
718.9,77.56914,-3.22247,1.61626,0.45894
719.5,77.6304,-3.22345,1.61153,0.4587
720.1,77.69207,-3.22222,1.63568,0.45847
720.7,77.75389,-3.22077,1.65587,0.45824
721.3,77.81563,-3.22302,1.64051,0.458
721.9,77.87719,-3.2269,1.62742,0.45777
722.5,77.93873,-3.22348,1.62188,0.45754
723.1,78.0004,-3.23477,1.63352,0.4573
723.7,78.062,-3.21262,1.65367,0.45707
724.3,78.12355,-3.22366,1.64886,0.45684
724.9,78.18514,-3.2255,1.64345,0.45661
725.5,78.24676,-3.22587,1.6381,0.45638
726.1,78.30834,-3.22189,1.62219,0.45614
726.7,78.36998,-3.22411,1.6182,0.45591
727.3,78.43156,-3.22446,1.60867,0.45568
727.9,78.49336,-3.22312,1.61162,0.45545
728.5,78.5553,-3.22328,1.59249,0.45522
729.1,78.6173,-3.22443,1.61189,0.45499
729.7,78.67917,-3.22443,1.60408,0.45477
730.3,78.74085,-3.22439,1.59653,0.45454
730.9,78.80242,-3.22363,1.5887,0.45431
731.5,78.86423,-3.22455,1.59593,0.45408
732.1,78.9259,-3.22634,1.59192,0.45385
732.7,78.98756,-3.21725,1.59483,0.45363
733.3,79.04913,-3.22494,1.59608,0.4534
733.9,79.1109,-3.22546,1.61694,0.45317
734.5,79.17274,-3.2244,1.6338,0.45295
735.1,79.2345,-3.22379,1.65046,0.45272
735.7,79.2962,-3.23236,1.6213,0.45249
736.3,79.35789,-3.22045,1.66443,0.45227
736.9,79.41977,-3.2167,1.66921,0.45204
737.5,79.48159,-3.22342,1.67888,0.45182
738.1,79.54339,-3.2228,1.70091,0.4516
738.7,79.60505,-3.2235,1.72265,0.45137
739.3,79.66663,-3.22344,1.74682,0.45115
739.9,79.72831,-3.22344,1.74244,0.45092
740.5,79.79005,-3.22344,1.77235,0.4507
741.1,79.8519,-3.22344,1.76098,0.45048
741.7,79.9137,-3.22342,1.77113,0.45026
742.3,79.9756,-3.23059,1.77265,0.45004
742.5,79.99583,-3.2342,1.7883,0.44996