File: 01_Data/Engineered_Flooring/FTIR/IS/Engineered_Flooring_IS_S_220909_R2.dpt
7497.02,0.37411
7491.24,0.37836
7485.45,0.37446
7479.66,0.38273
7473.88,0.37836
7468.09,0.37514
7462.3,0.37065
7456.52,0.37925
7450.73,0.37608
7444.95,0.37941
7439.16,0.36320
7433.37,0.37272
7427.59,0.37262
7421.8,0.37128
7416.01,0.37218
7410.23,0.37402
7404.44,0.37768
7398.66,0.36610
7392.87,0.37077
7387.08,0.36593
7381.3,0.36721
7375.51,0.36338
7369.73,0.36581
7363.94,0.36892
7358.15,0.36762
7352.37,0.36561
7346.58,0.37028
7340.79,0.36820
7335.01,0.36613
7329.22,0.35881
7323.44,0.36113
7317.65,0.35958
7311.86,0.36269
7306.08,0.35722
7300.29,0.36641
7294.5,0.36159
7288.72,0.35508
7282.93,0.36234
7277.15,0.36020
7271.36,0.35852
7265.57,0.35696
7259.79,0.34950
7254,0.36040
7248.21,0.35986
7242.43,0.36584
7236.64,0.35457
7230.86,0.35610
7225.07,0.36093
7219.28,0.36075
7213.5,0.35604
7207.71,0.36368
7201.92,0.35186
7196.14,0.35470
7190.35,0.35443
7184.57,0.33958
7178.78,0.34796
7172.99,0.35343
7167.21,0.36046
7161.42,0.35848
7155.63,0.35167
7149.85,0.34410
7144.06,0.35025
7138.28,0.35178
7132.49,0.34722
7126.7,0.33879
7120.92,0.34564
7115.13,0.33619
7109.34,0.34076
7103.56,0.34074
7097.77,0.33777
7091.99,0.34219
7086.2,0.33846
7080.41,0.33078
7074.63,0.33283
7068.84,0.33169
7063.06,0.32791
7057.27,0.32637
7051.48,0.32358
7045.7,0.32216
7039.91,0.32054
7034.12,0.32627
7028.34,0.31236
7022.55,0.30897
7016.77,0.30924
7010.98,0.31332
7005.19,0.31559
6999.41,0.30968
6993.62,0.31076
6987.83,0.31141
6982.05,0.30231
6976.26,0.30517
6970.48,0.30629
6964.69,0.30526
6958.9,0.30406
6953.12,0.30216
6947.33,0.30312
6941.54,0.29953
6935.76,0.30737
6929.97,0.30561
6924.19,0.30534
6918.4,0.30531
6912.61,0.30625
6906.83,0.30670
6901.04,0.30313
6895.25,0.30108
6889.47,0.30762
6883.68,0.30815
6877.9,0.31023
6872.11,0.30855
6866.32,0.30793
6860.54,0.30588
6854.75,0.30450
6848.96,0.30617
6843.18,0.30387
6837.39,0.30664
6831.61,0.30848
6825.82,0.30444
6820.03,0.30236
6814.25,0.30261
6808.46,0.30320
6802.67,0.29997
6796.89,0.30621
6791.1,0.30430
6785.32,0.30599
6779.53,0.30459
6773.74,0.30639
6767.96,0.30813
6762.17,0.31135
6756.38,0.30441
6750.6,0.30730
6744.81,0.30098
6739.03,0.30840
6733.24,0.30587
6727.45,0.30411
6721.67,0.30453
6715.88,0.30748
6710.1,0.31233
6704.31,0.31520
6698.52,0.30757
6692.74,0.30659
6686.95,0.30917
6681.16,0.31119
6675.38,0.31419
6669.59,0.30844
6663.81,0.31325
6658.02,0.31068
6652.23,0.31275
6646.45,0.31657
6640.66,0.31457
6634.87,0.31669
6629.09,0.31893
6623.3,0.31899
6617.52,0.31453
6611.73,0.31869
6605.94,0.31835
6600.16,0.31882
6594.37,0.32048
6588.58,0.31913
6582.8,0.32019
6577.01,0.31687
6571.23,0.32594
6565.44,0.32624
6559.65,0.32513
6553.87,0.32534
6548.08,0.32634
6542.29,0.32363
6536.51,0.32897
6530.72,0.32399
6524.94,0.32805
6519.15,0.32843
6513.36,0.32222
6507.58,0.32440
6501.79,0.32806
6496,0.33052
6490.22,0.33144
6484.43,0.32873
6478.65,0.32927
6472.86,0.32841
6467.07,0.33260
6461.29,0.33080
6455.5,0.33149
6449.71,0.32962
6443.93,0.33220
6438.14,0.32821
6432.36,0.32934
6426.57,0.33243
6420.78,0.33193
6415,0.32928
6409.21,0.33681
6403.43,0.33219
6397.64,0.33001
6391.85,0.33168
6386.07,0.33268
6380.28,0.33296
6374.49,0.33854
6368.71,0.33847
6362.92,0.33399
6357.14,0.33338
6351.35,0.33676
6345.56,0.33869
6339.78,0.33742
6333.99,0.33643
6328.2,0.33557
6322.42,0.33535
6316.63,0.33872
6310.85,0.33329
6305.06,0.33521
6299.27,0.33696
6293.49,0.33783
6287.7,0.33956
6281.91,0.33873
6276.13,0.34155
6270.34,0.34168
6264.56,0.34195
6258.77,0.34218
6252.98,0.34312
6247.2,0.34617
6241.41,0.34297
6235.62,0.34329
6229.84,0.34647
6224.05,0.34678
6218.27,0.34877
6212.48,0.34817
6206.69,0.34709
6200.91,0.34805
6195.12,0.34884
6189.33,0.35257
6183.55,0.34805
6177.76,0.35048
6171.98,0.35077
6166.19,0.34859
6160.4,0.35067
6154.62,0.35246
6148.83,0.35229
6143.04,0.35126
6137.26,0.35332
6131.47,0.35414
6125.69,0.35564
6119.9,0.35434
6114.11,0.35496
6108.33,0.35395
6102.54,0.35360
6096.76,0.35499
6090.97,0.35502
6085.18,0.35403
6079.4,0.35272
6073.61,0.35285
6067.82,0.35212
6062.04,0.35154
6056.25,0.35075
6050.47,0.34785
6044.68,0.34957
6038.89,0.35004
6033.11,0.34632
6027.32,0.34255
6021.53,0.34423
6015.75,0.34083
6009.96,0.34030
6004.18,0.33663
5998.39,0.33553
5992.6,0.33556
5986.82,0.33220
5981.03,0.33004
5975.24,0.33069
5969.46,0.33027
5963.67,0.33098
5957.89,0.32824
5952.1,0.32520
5946.31,0.32613
5940.53,0.32431
5934.74,0.32272
5928.95,0.32153
5923.17,0.32364
5917.38,0.32308
5911.6,0.32455
5905.81,0.32208
5900.02,0.32157
5894.24,0.32006
5888.45,0.32197
5882.66,0.32104
5876.88,0.32113
5871.09,0.32155
5865.31,0.32226
5859.52,0.32349
5853.73,0.32322
5847.95,0.32177
5842.16,0.32158
5836.37,0.32041
5830.59,0.31777
5824.8,0.31691
5819.02,0.31416
5813.23,0.31466
5807.44,0.31635
5801.66,0.31494
5795.87,0.31619
5790.08,0.31298
5784.3,0.31591
5778.51,0.31600
5772.73,0.31803
5766.94,0.31784
5761.15,0.32006
5755.37,0.32119
5749.58,0.32258
5743.8,0.32504
5738.01,0.32522
5732.22,0.32695
5726.44,0.32686
5720.65,0.32696
5714.86,0.32853
5709.08,0.32778
5703.29,0.33018
5697.51,0.33112
5691.72,0.33143
5685.93,0.33035
5680.15,0.33096
5674.36,0.33076
5668.57,0.33229
5662.79,0.33254
5657,0.33277
5651.22,0.33175
5645.43,0.33397
5639.64,0.33482
5633.86,0.33541
5628.07,0.33308
5622.28,0.33579
5616.5,0.33692
5610.71,0.33598
5604.93,0.33689
5599.14,0.33687
5593.35,0.33727
5587.57,0.33736
5581.78,0.33809
5575.99,0.33655
5570.21,0.33573
5564.42,0.33898
5558.64,0.34100
5552.85,0.34051
5547.06,0.34006
5541.28,0.34188
5535.49,0.34101
5529.7,0.34077
5523.92,0.34219
5518.13,0.34212
5512.35,0.34485
5506.56,0.34526
5500.77,0.34591
5494.99,0.34699
5489.2,0.34742
5483.41,0.34580
5477.63,0.34529
5471.84,0.34619
5466.06,0.34874
5460.27,0.34865
5454.48,0.34913
5448.7,0.34853
5442.91,0.35042
5437.13,0.35034
5431.34,0.35258
5425.55,0.35265
5419.77,0.35253
5413.98,0.35373
5408.19,0.35379
5402.41,0.35506
5396.62,0.35621
5390.84,0.35438
5385.05,0.35522
5379.26,0.35469
5373.48,0.35473
5367.69,0.35480
5361.9,0.35330
5356.12,0.35428
5350.33,0.35305
5344.55,0.35079
5338.76,0.35211
5332.97,0.35041
5327.19,0.34825
5321.4,0.34535
5315.61,0.34306
5309.83,0.33992
5304.04,0.33729
5298.26,0.33216
5292.47,0.32558
5286.68,0.32113
5280.9,0.31461
5275.11,0.30636
5269.32,0.29872
5263.54,0.29112
5257.75,0.28373
5251.97,0.27769
5246.18,0.27014
5240.39,0.26589
5234.61,0.26231
5228.82,0.25847
5223.03,0.25643
5217.25,0.25409
5211.46,0.25363
5205.68,0.25160
5199.89,0.25328
5194.1,0.25152
5188.32,0.25127
5182.53,0.25355
5176.74,0.25455
5170.96,0.25445
5165.17,0.25741
5159.39,0.26167
5153.6,0.26345
5147.81,0.26422
5142.03,0.26520
5136.24,0.26765
5130.46,0.26971
5124.67,0.27149
5118.88,0.27320
5113.1,0.27578
5107.31,0.27712
5101.52,0.27934
5095.74,0.28182
5089.95,0.28355
5084.17,0.28667
5078.38,0.28836
5072.59,0.28850
5066.81,0.29124
5061.02,0.29248
5055.23,0.29394
5049.45,0.29560
5043.66,0.29934
5037.88,0.29990
5032.09,0.29952
5026.3,0.30207
5020.52,0.30296
5014.73,0.30441
5008.94,0.30591
5003.16,0.30511
4997.37,0.30622
4991.59,0.30669
4985.8,0.30657
4980.01,0.30608
4974.23,0.30379
4968.44,0.30403
4962.65,0.30372
4956.87,0.30128
4951.08,0.29917
4945.3,0.29725
4939.51,0.29559
4933.72,0.29282
4927.94,0.29080
4922.15,0.28717
4916.36,0.28573
4910.58,0.28407
4904.79,0.28085
4899.01,0.27861
4893.22,0.27732
4887.43,0.27590
4881.65,0.27420
4875.86,0.27369
4870.07,0.27185
4864.29,0.26986
4858.5,0.27018
4852.72,0.26693
4846.93,0.26593
4841.14,0.26466
4835.36,0.26240
4829.57,0.26163
4823.78,0.26029
4818,0.25941
4812.21,0.25808
4806.43,0.25782
4800.64,0.25682
4794.85,0.25679
4789.07,0.25581
4783.28,0.25507
4777.5,0.25461
4771.71,0.25372
4765.92,0.25238
4760.14,0.25076
4754.35,0.25085
4748.56,0.24843
4742.78,0.24836
4736.99,0.24836
4731.21,0.24725
4725.42,0.24618
4719.63,0.24620
4713.85,0.24598
4708.06,0.24513
4702.27,0.24469
4696.49,0.24342
4690.7,0.24230
4684.92,0.24211
4679.13,0.24135
4673.34,0.24179
4667.56,0.24315
4661.77,0.24564
4655.98,0.24750
4650.2,0.24944
4644.41,0.25081
4638.63,0.25266
4632.84,0.25316
4627.05,0.25301
4621.27,0.25436
4615.48,0.25611
4609.69,0.25826
4603.91,0.26071
4598.12,0.26300
4592.34,0.26454
4586.55,0.26591
4580.76,0.26674
4574.98,0.26670
4569.19,0.26790
4563.4,0.26852
4557.62,0.27030
4551.83,0.27158
4546.05,0.27117
4540.26,0.27178
4534.47,0.27052
4528.69,0.27156
4522.9,0.27003
4517.11,0.26990
4511.33,0.26812
4505.54,0.26571
4499.76,0.26326
4493.97,0.26050
4488.18,0.25690
4482.4,0.25305
4476.61,0.24726
4470.83,0.24132
4465.04,0.23373
4459.25,0.22541
4453.47,0.21663
4447.68,0.20680
4441.89,0.19873
4436.11,0.19022
4430.32,0.18326
4424.54,0.17765
4418.75,0.17446
4412.96,0.17229
4407.18,0.17270
4401.39,0.17228
4395.6,0.17302
4389.82,0.17335
4384.03,0.17337
4378.25,0.17134
4372.46,0.16956
4366.67,0.16922
4360.89,0.16855
4355.1,0.16782
4349.31,0.16714
4343.53,0.16655
4337.74,0.16686
4331.96,0.16679
4326.17,0.16643
4320.38,0.16800
4314.6,0.16975
4308.81,0.17084
4303.02,0.17236
4297.24,0.17195
4291.45,0.17263
4285.67,0.17218
4279.88,0.17184
4274.09,0.17239
4268.31,0.17325
4262.52,0.17408
4256.73,0.17569
4250.95,0.17533
4245.16,0.17639
4239.38,0.17829
4233.59,0.17922
4227.8,0.18046
4222.02,0.18114
4216.23,0.18222
4210.44,0.18313
4204.66,0.18383
4198.87,0.18474
4193.09,0.18342
4187.3,0.18389
4181.51,0.18302
4175.73,0.18381
4169.94,0.18390
4164.16,0.18359
4158.37,0.18283
4152.58,0.18283
4146.8,0.18145
4141.01,0.18052
4135.22,0.17930
4129.44,0.17914
4123.65,0.17748
4117.87,0.17567
4112.08,0.17434
4106.29,0.17315
4100.51,0.17160
4094.72,0.16937
4088.93,0.16615
4083.15,0.16383
4077.36,0.16059
4071.58,0.15780
4065.79,0.15407
4060,0.15263
4054.22,0.15083
4048.43,0.14997
4042.64,0.14978
4036.86,0.14924
4031.07,0.14820
4025.29,0.14817
4019.5,0.14762
4013.71,0.14799
4007.93,0.14834
4002.14,0.14808
3996.35,0.15008
3990.57,0.15093
3984.78,0.15262
3979,0.15388
3973.21,0.15528
3967.42,0.15756
3961.64,0.16020
3955.85,0.16132
3950.06,0.16309
3944.28,0.16548
3938.49,0.16696
3932.71,0.16853
3926.92,0.17020
3921.13,0.17215
3915.35,0.17367
3909.56,0.17590
3903.77,0.17737
3897.99,0.17915
3892.2,0.18026
3886.42,0.18184
3880.63,0.18270
3874.84,0.18438
3869.06,0.18585
3863.27,0.18736
3857.48,0.18940
3851.7,0.19162
3845.91,0.19273
3840.13,0.19450
3834.34,0.19441
3828.55,0.19527
3822.77,0.19654
3816.98,0.19602
3811.2,0.19555
3805.41,0.19591
3799.62,0.19591
3793.84,0.19586
3788.05,0.19539
3782.26,0.19435
3776.48,0.19432
3770.69,0.19342
3764.91,0.19223
3759.12,0.19131
3753.33,0.18995
3747.55,0.18851
3741.76,0.18582
3735.97,0.18401
3730.19,0.18079
3724.4,0.17662
3718.62,0.17263
3712.83,0.16813
3707.04,0.16214
3701.26,0.15379
3695.47,0.14488
3689.68,0.13376
3683.9,0.12011
3678.11,0.10131
3672.33,0.09448
3666.54,0.08674
3660.75,0.07905
3654.97,0.07294
3649.18,0.06740
3643.39,0.06380
3637.61,0.06093
3631.82,0.05875
3626.04,0.05699
3620.25,0.05582
3614.46,0.05362
3608.68,0.05255
3602.89,0.05217
3597.1,0.05152
3591.32,0.05072
3585.53,0.05036
3579.75,0.04938
3573.96,0.04902
3568.17,0.04898
3562.39,0.04896
3556.6,0.04797
3550.81,0.04764
3545.03,0.04794
3539.24,0.04758
3533.46,0.04773
3527.67,0.04750
3521.88,0.04711
3516.1,0.04725
3510.31,0.04730
3504.53,0.04742
3498.74,0.04754
3492.95,0.04752
3487.17,0.04669
3481.38,0.04694
3475.59,0.04718
3469.81,0.04746
3464.02,0.04726
3458.24,0.04702
3452.45,0.04731
3446.66,0.04760
3440.88,0.04708
3435.09,0.04694
3429.3,0.04762
3423.52,0.04714
3417.73,0.04703
3411.95,0.04711
3406.16,0.04712
3400.37,0.04770
3394.59,0.04740
3388.8,0.04719
3383.01,0.04758
3377.23,0.04751
3371.44,0.04759
3365.66,0.04714
3359.87,0.04800
3354.08,0.04731
3348.3,0.04733
3342.51,0.04722
3336.72,0.04786
3330.94,0.04850
3325.15,0.04774
3319.37,0.04762
3313.58,0.04792
3307.79,0.04849
3302.01,0.04750
3296.22,0.04866
3290.43,0.04805
3284.65,0.04808
3278.86,0.04787
3273.08,0.04867
3267.29,0.04791
3261.5,0.04866
3255.72,0.04908
3249.93,0.04819
3244.14,0.04867
3238.36,0.04943
3232.57,0.05004
3226.79,0.04982
3221,0.04981
3215.21,0.04994
3209.43,0.04996
3203.64,0.05034
3197.86,0.04995
3192.07,0.05085
3186.28,0.05010
3180.5,0.05056
3174.71,0.05104
3168.92,0.05129
3163.14,0.05091
3157.35,0.05128
3151.57,0.05159
3145.78,0.05226
3139.99,0.05247
3134.21,0.05231
3128.42,0.05292
3122.63,0.05269
3116.85,0.05255
3111.06,0.05307
3105.28,0.05325
3099.49,0.05294
3093.7,0.05340
3087.92,0.05316
3082.13,0.05274
3076.34,0.05268
3070.56,0.05280
3064.77,0.05215
3058.99,0.05252
3053.2,0.05340
3047.41,0.05268
3041.63,0.05281
3035.84,0.05230
3030.05,0.05275
3024.27,0.05176
3018.48,0.05149
3012.7,0.05020
3006.91,0.04908
3001.12,0.04816
2995.34,0.04686
2989.55,0.04671
2983.76,0.04626
2977.98,0.04620
2972.19,0.04654
2966.41,0.04700
2960.62,0.04724
2954.83,0.04775
2949.05,0.04730
2943.26,0.04787
2937.47,0.04749
2931.69,0.04879
2925.9,0.04931
2920.12,0.05009
2914.33,0.05057
2908.54,0.04991
2902.76,0.04955
2896.97,0.04982
2891.18,0.04925
2885.4,0.04969
2879.61,0.04921
2873.83,0.04965
2868.04,0.05051
2862.25,0.05025
2856.47,0.05069
2850.68,0.05203
2844.9,0.05184
2839.11,0.05268
2833.32,0.05365
2827.54,0.05412
2821.75,0.05498
2815.96,0.05606
2810.18,0.05696
2804.39,0.05775
2798.61,0.05858
2792.82,0.05977
2787.03,0.06049
2781.25,0.06069
2775.46,0.06151
2769.67,0.06205
2763.89,0.06277
2758.1,0.06296
2752.32,0.06315
2746.53,0.06358
2740.74,0.06431
2734.96,0.06471
2729.17,0.06503
2723.38,0.06614
2717.6,0.06686
2711.81,0.06781
2706.03,0.06887
2700.24,0.06958
2694.45,0.07053
2688.67,0.07193
2682.88,0.07279
2677.09,0.07334
2671.31,0.07403
2665.52,0.07475
2659.74,0.07508
2653.95,0.07607
2648.16,0.07669
2642.38,0.07758
2636.59,0.07785
2630.8,0.07904
2625.02,0.08006
2619.23,0.08002
2613.45,0.08029
2607.66,0.08122
2601.87,0.08149
2596.09,0.08163
2590.3,0.08234
2584.51,0.08298
2578.73,0.08369
2572.94,0.08418
2567.16,0.08477
2561.37,0.08499
2555.58,0.08544
2549.8,0.08573
2544.01,0.08631
2538.23,0.08692
2532.44,0.08744
2526.65,0.08836
2520.87,0.08932
2515.08,0.08970
2509.29,0.09118
2503.51,0.09183
2497.72,0.09257
2491.94,0.09354
2486.15,0.09448
2480.36,0.09527
2474.58,0.09609
2468.79,0.09715
2463,0.09817
2457.22,0.09901
2451.43,0.09948
2445.65,0.09985
2439.86,0.10086
2434.07,0.10183
2428.29,0.10240
2422.5,0.10320
2416.71,0.10459
2410.93,0.10518
2405.14,0.10616
2399.36,0.10691
2393.57,0.10776
2387.78,0.10783
2382,0.10860
2376.21,0.10890
2370.42,0.10948
2364.64,0.10986
2358.85,0.11079
2353.07,0.11136
2347.28,0.11226
2341.49,0.11257
2335.71,0.11306
2329.92,0.11349
2324.13,0.11375
2318.35,0.11430
2312.56,0.11483
2306.78,0.11508
2300.99,0.11556
2295.2,0.11589
2289.42,0.11681
2283.63,0.11716
2277.84,0.11743
2272.06,0.11737
2266.27,0.11722
2260.49,0.11742
2254.7,0.11695
2248.91,0.11659
2243.13,0.11605
2237.34,0.11619
2231.56,0.11650
2225.77,0.11678
2219.98,0.11673
2214.2,0.11655
2208.41,0.11604
2202.62,0.11573
2196.84,0.11513
2191.05,0.11394
2185.27,0.11239
2179.48,0.11087
2173.69,0.10914
2167.91,0.10778
2162.12,0.10634
2156.33,0.10478
2150.55,0.10385
2144.76,0.10263
2138.98,0.10209
2133.19,0.10119
2127.4,0.10083
2121.62,0.10035
2115.83,0.09951
2110.04,0.09957
2104.26,0.09911
2098.47,0.09898
2092.69,0.09880
2086.9,0.09905
2081.11,0.09855
2075.33,0.09834
2069.54,0.09832
2063.75,0.09851
2057.97,0.09878
2052.18,0.09877
2046.4,0.09928
2040.61,0.09926
2034.82,0.09939
2029.04,0.09926
2023.25,0.09953
2017.46,0.10034
2011.68,0.10098
2005.89,0.10145
2000.11,0.10194
1994.32,0.10267
1988.53,0.10339
1982.75,0.10332
1976.96,0.10324
1971.17,0.10324
1965.39,0.10267
1959.6,0.10249
1953.82,0.10241
1948.03,0.10333
1942.24,0.10424
1936.46,0.10534
1930.67,0.10596
1924.89,0.10652
1919.1,0.10684
1913.31,0.10700
1907.53,0.10749
1901.74,0.10704
1895.95,0.10635
1890.17,0.10544
1884.38,0.10532
1878.6,0.10475
1872.81,0.10371
1867.02,0.10203
1861.24,0.10029
1855.45,0.09797
1849.66,0.09542
1843.88,0.09240
1838.09,0.08896
1832.31,0.08547
1826.52,0.08138
1820.73,0.07692
1814.95,0.07323
1809.16,0.06881
1803.37,0.06421
1797.59,0.05910
1791.8,0.05469
1786.02,0.05014
1780.23,0.04519
1774.44,0.04037
1768.66,0.03624
1762.87,0.03261
1757.08,0.02979
1751.3,0.02864
1745.51,0.03265
1739.73,0.04048
1733.94,0.05118
1728.15,0.06017
1722.37,0.06500
1716.58,0.06527
1710.79,0.06368
1705.01,0.06164
1699.22,0.05940
1693.44,0.05713
1687.65,0.05655
1681.86,0.05505
1676.08,0.05426
1670.29,0.05342
1664.5,0.05290
1658.72,0.05234
1652.93,0.05235
1647.15,0.05178
1641.36,0.05070
1635.57,0.05116
1629.79,0.05095
1624,0.05097
1618.21,0.05054
1612.43,0.05058
1606.64,0.05057
1600.86,0.04972
1595.07,0.05064
1589.28,0.05089
1583.5,0.05042
1577.71,0.05049
1571.93,0.05194
1566.14,0.05162
1560.35,0.05078
1554.57,0.04920
1548.78,0.04907
1542.99,0.04866
1537.21,0.04772
1531.42,0.04792
1525.64,0.04776
1519.85,0.04698
1514.06,0.04571
1508.28,0.04628
1502.49,0.04630
1496.7,0.04685
1490.92,0.04601
1485.13,0.04437
1479.35,0.04252
1473.56,0.04199
1467.77,0.04230
1461.99,0.04297
1456.2,0.04258
1450.41,0.04344
1444.63,0.04482
1438.84,0.04501
1433.06,0.04478
1427.27,0.04412
1421.48,0.04340
1415.7,0.04240
1409.91,0.04356
1404.12,0.04399
1398.34,0.04321
1392.55,0.04257
1386.77,0.04252
1380.98,0.04313
1375.19,0.04360
1369.41,0.04402
1363.62,0.04358
1357.83,0.04284
1352.05,0.04224
1346.26,0.04196
1340.48,0.04155
1334.69,0.04061
1328.9,0.04045
1323.12,0.03995
1317.33,0.03951
1311.54,0.03864
1305.76,0.03852
1299.97,0.03885
1294.19,0.03885
1288.4,0.03897
1282.61,0.03821
1276.83,0.03908
1271.04,0.03981
1265.26,0.04087
1259.47,0.04157
1253.68,0.04205
1247.9,0.04250
1242.11,0.04300
1236.32,0.04384
1230.54,0.04381
1224.75,0.04386
1218.97,0.04421
1213.18,0.04477
1207.39,0.04496
1201.61,0.04491
1195.82,0.04599
1190.03,0.04702
1184.25,0.04736
1178.46,0.04830
1172.68,0.04930
1166.89,0.05113
1161.1,0.05352
1155.32,0.05610
1149.53,0.05731
1143.74,0.05753
1137.96,0.05718
1132.17,0.05608
1126.39,0.05600
1120.6,0.05651
1114.81,0.05702
1109.03,0.05801
1103.24,0.05895
1097.45,0.06004
1091.67,0.06056
1085.88,0.05975
1080.1,0.05936
1074.31,0.06004
1068.52,0.06187
1062.74,0.06379
1056.95,0.06495
1051.16,0.06579
1045.38,0.06622
1039.59,0.06726
1033.81,0.06771
1028.02,0.06868
1022.23,0.06864
1016.45,0.06926
1010.66,0.06913
1004.87,0.06916
999.089,0.06930
993.302,0.06879
987.516,0.06909
981.73,0.06991
975.944,0.06961
970.157,0.06900
964.371,0.06870
958.585,0.06834
952.799,0.06821
947.013,0.06782
941.226,0.06679
935.44,0.06633
929.654,0.06591
923.868,0.06604
918.081,0.06564
912.295,0.06530
906.509,0.06500
900.723,0.06413
894.937,0.06485
889.15,0.06565
883.364,0.06611
877.578,0.06578
871.792,0.06491
866.005,0.06440
860.219,0.06342
854.433,0.06284
848.647,0.06191
842.86,0.06158
837.074,0.06091
831.288,0.06084
825.502,0.06154
819.716,0.06125
813.929,0.06126
808.143,0.06208
802.357,0.06340
796.571,0.06328
790.784,0.06277
784.998,0.06188
779.212,0.06090
773.426,0.06032
767.64,0.06080
761.853,0.06051
756.067,0.06034
750.281,0.05940
744.495,0.06010
738.708,0.06018
732.922,0.06179
727.136,0.06334
721.35,0.06211
715.563,0.06193
709.777,0.06180
703.991,0.06231
698.205,0.06381
692.419,0.06669
686.632,0.06936
680.846,0.07010
675.06,0.07019
669.274,0.06877
663.487,0.06273
657.701,0.06092
651.915,0.05966
646.129,0.05844
640.343,0.05813
634.556,0.05769
628.77,0.05588
622.984,0.05541
617.198,0.05725
611.411,0.05658
605.625,0.05825
599.839,0.05688