File: 01_Data/Engineered_Flooring/FTIR/IS/Engineered_Flooring_IS_T_220909_R1.dpt
7497.02,0.03606
7491.24,0.02496
7485.45,0.02193
7479.66,0.03138
7473.88,0.02966
7468.09,0.02518
7462.3,0.02045
7456.52,0.02171
7450.73,0.03626
7444.95,0.02291
7439.16,0.02861
7433.37,0.02646
7427.59,0.02961
7421.8,0.02546
7416.01,0.01697
7410.23,0.02010
7404.44,0.02952
7398.66,0.02809
7392.87,0.02804
7387.08,0.03474
7381.3,0.03246
7375.51,0.02462
7369.73,0.02741
7363.94,0.02288
7358.15,0.02554
7352.37,0.02771
7346.58,0.02871
7340.79,0.02273
7335.01,0.02118
7329.22,0.01975
7323.44,0.02297
7317.65,0.02860
7311.86,0.02550
7306.08,0.02010
7300.29,0.03000
7294.5,0.02435
7288.72,0.02628
7282.93,0.02497
7277.15,0.02717
7271.36,0.02558
7265.57,0.02066
7259.79,0.02046
7254,0.02743
7248.21,0.01858
7242.43,0.02693
7236.64,0.02214
7230.86,0.03149
7225.07,0.03323
7219.28,0.02155
7213.5,0.02654
7207.71,0.02645
7201.92,0.02286
7196.14,0.02259
7190.35,0.02378
7184.57,0.02355
7178.78,0.02545
7172.99,0.02451
7167.21,0.02338
7161.42,0.02391
7155.63,0.02089
7149.85,0.02763
7144.06,0.02860
7138.28,0.02431
7132.49,0.02756
7126.7,0.02211
7120.92,0.02638
7115.13,0.02011
7109.34,0.02638
7103.56,0.02328
7097.77,0.01960
7091.99,0.02657
7086.2,0.02208
7080.41,0.02161
7074.63,0.02041
7068.84,0.02419
7063.06,0.02013
7057.27,0.02312
7051.48,0.02250
7045.7,0.02225
7039.91,0.02221
7034.12,0.02534
7028.34,0.01781
7022.55,0.02578
7016.77,0.02499
7010.98,0.02162
7005.19,0.01972
6999.41,0.02283
6993.62,0.02232
6987.83,0.02703
6982.05,0.02152
6976.26,0.02300
6970.48,0.02431
6964.69,0.02792
6958.9,0.02209
6953.12,0.02029
6947.33,0.02027
6941.54,0.01650
6935.76,0.02644
6929.97,0.03035
6924.19,0.02551
6918.4,0.02148
6912.61,0.02410
6906.83,0.02459
6901.04,0.02485
6895.25,0.02173
6889.47,0.02222
6883.68,0.02468
6877.9,0.02124
6872.11,0.02251
6866.32,0.02991
6860.54,0.02445
6854.75,0.02417
6848.96,0.02322
6843.18,0.01968
6837.39,0.02202
6831.61,0.02378
6825.82,0.02237
6820.03,0.02425
6814.25,0.02563
6808.46,0.02437
6802.67,0.02551
6796.89,0.02627
6791.1,0.02666
6785.32,0.02243
6779.53,0.02020
6773.74,0.02524
6767.96,0.02281
6762.17,0.02446
6756.38,0.02393
6750.6,0.02908
6744.81,0.02080
6739.03,0.02608
6733.24,0.02656
6727.45,0.02096
6721.67,0.02290
6715.88,0.02468
6710.1,0.02172
6704.31,0.02117
6698.52,0.02294
6692.74,0.02206
6686.95,0.02168
6681.16,0.02396
6675.38,0.02500
6669.59,0.02457
6663.81,0.02153
6658.02,0.02366
6652.23,0.02272
6646.45,0.02428
6640.66,0.02075
6634.87,0.02113
6629.09,0.02801
6623.3,0.02388
6617.52,0.02193
6611.73,0.02039
6605.94,0.02196
6600.16,0.02078
6594.37,0.02358
6588.58,0.02201
6582.8,0.02573
6577.01,0.02406
6571.23,0.01947
6565.44,0.02032
6559.65,0.02065
6553.87,0.02101
6548.08,0.02555
6542.29,0.02373
6536.51,0.02216
6530.72,0.02074
6524.94,0.02028
6519.15,0.02153
6513.36,0.02469
6507.58,0.02254
6501.79,0.02460
6496,0.02190
6490.22,0.02072
6484.43,0.02051
6478.65,0.02141
6472.86,0.01722
6467.07,0.02273
6461.29,0.02122
6455.5,0.01958
6449.71,0.02169
6443.93,0.02138
6438.14,0.02293
6432.36,0.02319
6426.57,0.02488
6420.78,0.02438
6415,0.02210
6409.21,0.02260
6403.43,0.02152
6397.64,0.02303
6391.85,0.02145
6386.07,0.02101
6380.28,0.02478
6374.49,0.01964
6368.71,0.02340
6362.92,0.02279
6357.14,0.02104
6351.35,0.02175
6345.56,0.01794
6339.78,0.02737
6333.99,0.02294
6328.2,0.02190
6322.42,0.02489
6316.63,0.02143
6310.85,0.02619
6305.06,0.02120
6299.27,0.01775
6293.49,0.02112
6287.7,0.02043
6281.91,0.02082
6276.13,0.02379
6270.34,0.02408
6264.56,0.02451
6258.77,0.02342
6252.98,0.02306
6247.2,0.02551
6241.41,0.02181
6235.62,0.02399
6229.84,0.02308
6224.05,0.02353
6218.27,0.02419
6212.48,0.02426
6206.69,0.02260
6200.91,0.02268
6195.12,0.02224
6189.33,0.02347
6183.55,0.02271
6177.76,0.02190
6171.98,0.02188
6166.19,0.02412
6160.4,0.02562
6154.62,0.02261
6148.83,0.02441
6143.04,0.02199
6137.26,0.02365
6131.47,0.02574
6125.69,0.02215
6119.9,0.02565
6114.11,0.02307
6108.33,0.01954
6102.54,0.02216
6096.76,0.02117
6090.97,0.02021
6085.18,0.02061
6079.4,0.02294
6073.61,0.02092
6067.82,0.02227
6062.04,0.02183
6056.25,0.02158
6050.47,0.02078
6044.68,0.02376
6038.89,0.01882
6033.11,0.02324
6027.32,0.02240
6021.53,0.02124
6015.75,0.02163
6009.96,0.02567
6004.18,0.02192
5998.39,0.01870
5992.6,0.02157
5986.82,0.02502
5981.03,0.02477
5975.24,0.02239
5969.46,0.02172
5963.67,0.02141
5957.89,0.02126
5952.1,0.02245
5946.31,0.02143
5940.53,0.02236
5934.74,0.02276
5928.95,0.02286
5923.17,0.02105
5917.38,0.02132
5911.6,0.02234
5905.81,0.02180
5900.02,0.02280
5894.24,0.02134
5888.45,0.02238
5882.66,0.02330
5876.88,0.01926
5871.09,0.01966
5865.31,0.02093
5859.52,0.01993
5853.73,0.02020
5847.95,0.02219
5842.16,0.02376
5836.37,0.02113
5830.59,0.02316
5824.8,0.02147
5819.02,0.01951
5813.23,0.02211
5807.44,0.02340
5801.66,0.02395
5795.87,0.02201
5790.08,0.02104
5784.3,0.02361
5778.51,0.02108
5772.73,0.02347
5766.94,0.02348
5761.15,0.02231
5755.37,0.02327
5749.58,0.02160
5743.8,0.02180
5738.01,0.02045
5732.22,0.02038
5726.44,0.02312
5720.65,0.02314
5714.86,0.02178
5709.08,0.02371
5703.29,0.02473
5697.51,0.02067
5691.72,0.02150
5685.93,0.02090
5680.15,0.02201
5674.36,0.02304
5668.57,0.02142
5662.79,0.02154
5657,0.02191
5651.22,0.02370
5645.43,0.02406
5639.64,0.02368
5633.86,0.02133
5628.07,0.02107
5622.28,0.02451
5616.5,0.02441
5610.71,0.02274
5604.93,0.02219
5599.14,0.02253
5593.35,0.02110
5587.57,0.02270
5581.78,0.02373
5575.99,0.02190
5570.21,0.02387
5564.42,0.02367
5558.64,0.02164
5552.85,0.02233
5547.06,0.02103
5541.28,0.02201
5535.49,0.02281
5529.7,0.02172
5523.92,0.02292
5518.13,0.02184
5512.35,0.02163
5506.56,0.02188
5500.77,0.02266
5494.99,0.02180
5489.2,0.02186
5483.41,0.02135
5477.63,0.02277
5471.84,0.02231
5466.06,0.02271
5460.27,0.02165
5454.48,0.02437
5448.7,0.02004
5442.91,0.02214
5437.13,0.02265
5431.34,0.02334
5425.55,0.02410
5419.77,0.02306
5413.98,0.02294
5408.19,0.02255
5402.41,0.02171
5396.62,0.02161
5390.84,0.02201
5385.05,0.02272
5379.26,0.02128
5373.48,0.02336
5367.69,0.02196
5361.9,0.02262
5356.12,0.02228
5350.33,0.02166
5344.55,0.02220
5338.76,0.02214
5332.97,0.02111
5327.19,0.02156
5321.4,0.02327
5315.61,0.02240
5309.83,0.02341
5304.04,0.02289
5298.26,0.02140
5292.47,0.02174
5286.68,0.02304
5280.9,0.02278
5275.11,0.02129
5269.32,0.02168
5263.54,0.02170
5257.75,0.02099
5251.97,0.02227
5246.18,0.02197
5240.39,0.02224
5234.61,0.02305
5228.82,0.02092
5223.03,0.02106
5217.25,0.02350
5211.46,0.02176
5205.68,0.02245
5199.89,0.02192
5194.1,0.02233
5188.32,0.02173
5182.53,0.02125
5176.74,0.02139
5170.96,0.02273
5165.17,0.02243
5159.39,0.02268
5153.6,0.02284
5147.81,0.02162
5142.03,0.02209
5136.24,0.02307
5130.46,0.02196
5124.67,0.02251
5118.88,0.02204
5113.1,0.02241
5107.31,0.02235
5101.52,0.02164
5095.74,0.02326
5089.95,0.02228
5084.17,0.02248
5078.38,0.02257
5072.59,0.02235
5066.81,0.02206
5061.02,0.02165
5055.23,0.02221
5049.45,0.02223
5043.66,0.02163
5037.88,0.02120
5032.09,0.02180
5026.3,0.02220
5020.52,0.02358
5014.73,0.02387
5008.94,0.02300
5003.16,0.02247
4997.37,0.02320
4991.59,0.02251
4985.8,0.02119
4980.01,0.02287
4974.23,0.02216
4968.44,0.02178
4962.65,0.02112
4956.87,0.02214
4951.08,0.02353
4945.3,0.02246
4939.51,0.02149
4933.72,0.02174
4927.94,0.02151
4922.15,0.02318
4916.36,0.02302
4910.58,0.02153
4904.79,0.02322
4899.01,0.02191
4893.22,0.02187
4887.43,0.02160
4881.65,0.02188
4875.86,0.02105
4870.07,0.02240
4864.29,0.02304
4858.5,0.02209
4852.72,0.02198
4846.93,0.02244
4841.14,0.02318
4835.36,0.02169
4829.57,0.02135
4823.78,0.02128
4818,0.02226
4812.21,0.02200
4806.43,0.02332
4800.64,0.02341
4794.85,0.02148
4789.07,0.02134
4783.28,0.02145
4777.5,0.02370
4771.71,0.02255
4765.92,0.02206
4760.14,0.02205
4754.35,0.02237
4748.56,0.02164
4742.78,0.02175
4736.99,0.02320
4731.21,0.02248
4725.42,0.02173
4719.63,0.02218
4713.85,0.02210
4708.06,0.02228
4702.27,0.02234
4696.49,0.02237
4690.7,0.02193
4684.92,0.02279
4679.13,0.02303
4673.34,0.02344
4667.56,0.02240
4661.77,0.02216
4655.98,0.02224
4650.2,0.02324
4644.41,0.02190
4638.63,0.02276
4632.84,0.02254
4627.05,0.02296
4621.27,0.02240
4615.48,0.02199
4609.69,0.02144
4603.91,0.02122
4598.12,0.02195
4592.34,0.02248
4586.55,0.02213
4580.76,0.02276
4574.98,0.02203
4569.19,0.02201
4563.4,0.02118
4557.62,0.02172
4551.83,0.02226
4546.05,0.02207
4540.26,0.02197
4534.47,0.02188
4528.69,0.02282
4522.9,0.02282
4517.11,0.02241
4511.33,0.02295
4505.54,0.02253
4499.76,0.02193
4493.97,0.02229
4488.18,0.02216
4482.4,0.02219
4476.61,0.02265
4470.83,0.02195
4465.04,0.02309
4459.25,0.02283
4453.47,0.02293
4447.68,0.02199
4441.89,0.02159
4436.11,0.02260
4430.32,0.02261
4424.54,0.02227
4418.75,0.02234
4412.96,0.02238
4407.18,0.02233
4401.39,0.02175
4395.6,0.02227
4389.82,0.02217
4384.03,0.02139
4378.25,0.02194
4372.46,0.02199
4366.67,0.02234
4360.89,0.02197
4355.1,0.02244
4349.31,0.02249
4343.53,0.02244
4337.74,0.02234
4331.96,0.02133
4326.17,0.02240
4320.38,0.02226
4314.6,0.02197
4308.81,0.02220
4303.02,0.02255
4297.24,0.02309
4291.45,0.02245
4285.67,0.02231
4279.88,0.02284
4274.09,0.02192
4268.31,0.02238
4262.52,0.02254
4256.73,0.02205
4250.95,0.02261
4245.16,0.02222
4239.38,0.02196
4233.59,0.02283
4227.8,0.02198
4222.02,0.02224
4216.23,0.02223
4210.44,0.02229
4204.66,0.02276
4198.87,0.02180
4193.09,0.02256
4187.3,0.02346
4181.51,0.02252
4175.73,0.02242
4169.94,0.02227
4164.16,0.02172
4158.37,0.02216
4152.58,0.02231
4146.8,0.02290
4141.01,0.02255
4135.22,0.02299
4129.44,0.02234
4123.65,0.02230
4117.87,0.02194
4112.08,0.02231
4106.29,0.02257
4100.51,0.02246
4094.72,0.02198
4088.93,0.02205
4083.15,0.02302
4077.36,0.02246
4071.58,0.02228
4065.79,0.02261
4060,0.02257
4054.22,0.02269
4048.43,0.02269
4042.64,0.02278
4036.86,0.02220
4031.07,0.02291
4025.29,0.02250
4019.5,0.02218
4013.71,0.02245
4007.93,0.02257
4002.14,0.02266
3996.35,0.02254
3990.57,0.02236
3984.78,0.02187
3979,0.02276
3973.21,0.02245
3967.42,0.02226
3961.64,0.02216
3955.85,0.02211
3950.06,0.02252
3944.28,0.02270
3938.49,0.02219
3932.71,0.02212
3926.92,0.02208
3921.13,0.02264
3915.35,0.02216
3909.56,0.02276
3903.77,0.02277
3897.99,0.02259
3892.2,0.02229
3886.42,0.02215
3880.63,0.02266
3874.84,0.02254
3869.06,0.02213
3863.27,0.02307
3857.48,0.02317
3851.7,0.02274
3845.91,0.02217
3840.13,0.02246
3834.34,0.02274
3828.55,0.02260
3822.77,0.02320
3816.98,0.02253
3811.2,0.02242
3805.41,0.02266
3799.62,0.02245
3793.84,0.02239
3788.05,0.02269
3782.26,0.02225
3776.48,0.02242
3770.69,0.02266
3764.91,0.02231
3759.12,0.02238
3753.33,0.02252
3747.55,0.02216
3741.76,0.02272
3735.97,0.02239
3730.19,0.02268
3724.4,0.02265
3718.62,0.02239
3712.83,0.02348
3707.04,0.02176
3701.26,0.02223
3695.47,0.02244
3689.68,0.02234
3683.9,0.02151
3678.11,0.02228
3672.33,0.02232
3666.54,0.02133
3660.75,0.02205
3654.97,0.02229
3649.18,0.02148
3643.39,0.02147
3637.61,0.02166
3631.82,0.02098
3626.04,0.02208
3620.25,0.02141
3614.46,0.02196
3608.68,0.02167
3602.89,0.02098
3597.1,0.02139
3591.32,0.02165
3585.53,0.02151
3579.75,0.02136
3573.96,0.02096
3568.17,0.02148
3562.39,0.02151
3556.6,0.02108
3550.81,0.02110
3545.03,0.02118
3539.24,0.02095
3533.46,0.02178
3527.67,0.02100
3521.88,0.02045
3516.1,0.02091
3510.31,0.02077
3504.53,0.02121
3498.74,0.02105
3492.95,0.02050
3487.17,0.02100
3481.38,0.02092
3475.59,0.02063
3469.81,0.02070
3464.02,0.02115
3458.24,0.02034
3452.45,0.02055
3446.66,0.02094
3440.88,0.02049
3435.09,0.02070
3429.3,0.02082
3423.52,0.01991
3417.73,0.02025
3411.95,0.02049
3406.16,0.02071
3400.37,0.02029
3394.59,0.02047
3388.8,0.02002
3383.01,0.02048
3377.23,0.01987
3371.44,0.01976
3365.66,0.01953
3359.87,0.02006
3354.08,0.02013
3348.3,0.02050
3342.51,0.01951
3336.72,0.02069
3330.94,0.02013
3325.15,0.02046
3319.37,0.02007
3313.58,0.02072
3307.79,0.02035
3302.01,0.02021
3296.22,0.01987
3290.43,0.02022
3284.65,0.01997
3278.86,0.01989
3273.08,0.02002
3267.29,0.02018
3261.5,0.02007
3255.72,0.01950
3249.93,0.01990
3244.14,0.02043
3238.36,0.02040
3232.57,0.02047
3226.79,0.02076
3221,0.02006
3215.21,0.02107
3209.43,0.02090
3203.64,0.02012
3197.86,0.02089
3192.07,0.02053
3186.28,0.02057
3180.5,0.01980
3174.71,0.02070
3168.92,0.02053
3163.14,0.01985
3157.35,0.02038
3151.57,0.02077
3145.78,0.02021
3139.99,0.02046
3134.21,0.02068
3128.42,0.02018
3122.63,0.02075
3116.85,0.02017
3111.06,0.02025
3105.28,0.02041
3099.49,0.02030
3093.7,0.02037
3087.92,0.02014
3082.13,0.02063
3076.34,0.02029
3070.56,0.02016
3064.77,0.02039
3058.99,0.02083
3053.2,0.02044
3047.41,0.02049
3041.63,0.02071
3035.84,0.02042
3030.05,0.02066
3024.27,0.02002
3018.48,0.02035
3012.7,0.02019
3006.91,0.02049
3001.12,0.02054
2995.34,0.01986
2989.55,0.01988
2983.76,0.01955
2977.98,0.01973
2972.19,0.01917
2966.41,0.01923
2960.62,0.01944
2954.83,0.01894
2949.05,0.01951
2943.26,0.01921
2937.47,0.01927
2931.69,0.01997
2925.9,0.01951
2920.12,0.02006
2914.33,0.02033
2908.54,0.02038
2902.76,0.02051
2896.97,0.02035
2891.18,0.02027
2885.4,0.02042
2879.61,0.02044
2873.83,0.01998
2868.04,0.02049
2862.25,0.02042
2856.47,0.02025
2850.68,0.02019
2844.9,0.02110
2839.11,0.02092
2833.32,0.02088
2827.54,0.02081
2821.75,0.02121
2815.96,0.02098
2810.18,0.02123
2804.39,0.02106
2798.61,0.02134
2792.82,0.02148
2787.03,0.02110
2781.25,0.02126
2775.46,0.02090
2769.67,0.02118
2763.89,0.02072
2758.1,0.02062
2752.32,0.02054
2746.53,0.02091
2740.74,0.02117
2734.96,0.02072
2729.17,0.02064
2723.38,0.02110
2717.6,0.02121
2711.81,0.02070
2706.03,0.02121
2700.24,0.02112
2694.45,0.02100
2688.67,0.02127
2682.88,0.02086
2677.09,0.02081
2671.31,0.02105
2665.52,0.02101
2659.74,0.02103
2653.95,0.02106
2648.16,0.02091
2642.38,0.02082
2636.59,0.02078
2630.8,0.02098
2625.02,0.02122
2619.23,0.02126
2613.45,0.02114
2607.66,0.02107
2601.87,0.02090
2596.09,0.02120
2590.3,0.02071
2584.51,0.02087
2578.73,0.02118
2572.94,0.02097
2567.16,0.02096
2561.37,0.02092
2555.58,0.02101
2549.8,0.02084
2544.01,0.02114
2538.23,0.02094
2532.44,0.02098
2526.65,0.02079
2520.87,0.02089
2515.08,0.02100
2509.29,0.02112
2503.51,0.02131
2497.72,0.02122
2491.94,0.02105
2486.15,0.02106
2480.36,0.02133
2474.58,0.02123
2468.79,0.02102
2463,0.02100
2457.22,0.02112
2451.43,0.02073
2445.65,0.02073
2439.86,0.02064
2434.07,0.02088
2428.29,0.02088
2422.5,0.02064
2416.71,0.02087
2410.93,0.02064
2405.14,0.02090
2399.36,0.02082
2393.57,0.02126
2387.78,0.02098
2382,0.02099
2376.21,0.02099
2370.42,0.02064
2364.64,0.02127
2358.85,0.02102
2353.07,0.02096
2347.28,0.02067
2341.49,0.02090
2335.71,0.02109
2329.92,0.02091
2324.13,0.02099
2318.35,0.02066
2312.56,0.02085
2306.78,0.02053
2300.99,0.02104
2295.2,0.02109
2289.42,0.02112
2283.63,0.02070
2277.84,0.02062
2272.06,0.02057
2266.27,0.02077
2260.49,0.02066
2254.7,0.02039
2248.91,0.02073
2243.13,0.02070
2237.34,0.02078
2231.56,0.02080
2225.77,0.02083
2219.98,0.02083
2214.2,0.02095
2208.41,0.02098
2202.62,0.02101
2196.84,0.02050
2191.05,0.02086
2185.27,0.02065
2179.48,0.02038
2173.69,0.02051
2167.91,0.02063
2162.12,0.02079
2156.33,0.02034
2150.55,0.02060
2144.76,0.02070
2138.98,0.02095
2133.19,0.02093
2127.4,0.02067
2121.62,0.02032
2115.83,0.02073
2110.04,0.02079
2104.26,0.02051
2098.47,0.02060
2092.69,0.02053
2086.9,0.02063
2081.11,0.02072
2075.33,0.02072
2069.54,0.02053
2063.75,0.02068
2057.97,0.02076
2052.18,0.02058
2046.4,0.02071
2040.61,0.02050
2034.82,0.02077
2029.04,0.02084
2023.25,0.02054
2017.46,0.02045
2011.68,0.02075
2005.89,0.02048
2000.11,0.02049
1994.32,0.02068
1988.53,0.02056
1982.75,0.02050
1976.96,0.02031
1971.17,0.02027
1965.39,0.02026
1959.6,0.02078
1953.82,0.02073
1948.03,0.02056
1942.24,0.02064
1936.46,0.02072
1930.67,0.02078
1924.89,0.02043
1919.1,0.02049
1913.31,0.02049
1907.53,0.02035
1901.74,0.02023
1895.95,0.02048
1890.17,0.02026
1884.38,0.02026
1878.6,0.02048
1872.81,0.02039
1867.02,0.02030
1861.24,0.01997
1855.45,0.02037
1849.66,0.02017
1843.88,0.02023
1838.09,0.02020
1832.31,0.02028
1826.52,0.02028
1820.73,0.01953
1814.95,0.01955
1809.16,0.01960
1803.37,0.01957
1797.59,0.01953
1791.8,0.01918
1786.02,0.01882
1780.23,0.01862
1774.44,0.01858
1768.66,0.01829
1762.87,0.01795
1757.08,0.01766
1751.3,0.01762
1745.51,0.01764
1739.73,0.01818
1733.94,0.01918
1728.15,0.02033
1722.37,0.02060
1716.58,0.02070
1710.79,0.02005
1705.01,0.01966
1699.22,0.01973
1693.44,0.01900
1687.65,0.01926
1681.86,0.01821
1676.08,0.01839
1670.29,0.01834
1664.5,0.01830
1658.72,0.01823
1652.93,0.01829
1647.15,0.01833
1641.36,0.01864
1635.57,0.01872
1629.79,0.01866
1624,0.01838
1618.21,0.01836
1612.43,0.01868
1606.64,0.01849
1600.86,0.01863
1595.07,0.01902
1589.28,0.01816
1583.5,0.01840
1577.71,0.01819
1571.93,0.01783
1566.14,0.01803
1560.35,0.01841
1554.57,0.01795
1548.78,0.01813
1542.99,0.01827
1537.21,0.01823
1531.42,0.01828
1525.64,0.01841
1519.85,0.01814
1514.06,0.01867
1508.28,0.01870
1502.49,0.01862
1496.7,0.01869
1490.92,0.01896
1485.13,0.01845
1479.35,0.01868
1473.56,0.01838
1467.77,0.01789
1461.99,0.01850
1456.2,0.01866
1450.41,0.01845
1444.63,0.01815
1438.84,0.01842
1433.06,0.01845
1427.27,0.01818
1421.48,0.01838
1415.7,0.01871
1409.91,0.01836
1404.12,0.01831
1398.34,0.01790
1392.55,0.01801
1386.77,0.01768
1380.98,0.01779
1375.19,0.01852
1369.41,0.01773
1363.62,0.01804
1357.83,0.01833
1352.05,0.01827
1346.26,0.01774
1340.48,0.01771
1334.69,0.01734
1328.9,0.01739
1323.12,0.01735
1317.33,0.01738
1311.54,0.01686
1305.76,0.01678
1299.97,0.01715
1294.19,0.01738
1288.4,0.01821
1282.61,0.01851
1276.83,0.01889
1271.04,0.01931
1265.26,0.01976
1259.47,0.02014
1253.68,0.02035
1247.9,0.02028
1242.11,0.01982
1236.32,0.01963
1230.54,0.01924
1224.75,0.01939
1218.97,0.01901
1213.18,0.01843
1207.39,0.01867
1201.61,0.01804
1195.82,0.01778
1190.03,0.01799
1184.25,0.01760
1178.46,0.01768
1172.68,0.01775
1166.89,0.01730
1161.1,0.01755
1155.32,0.01723
1149.53,0.01736
1143.74,0.01778
1137.96,0.01735
1132.17,0.01724
1126.39,0.01756
1120.6,0.01822
1114.81,0.01798
1109.03,0.01804
1103.24,0.01812
1097.45,0.01828
1091.67,0.01851
1085.88,0.01800
1080.1,0.01865
1074.31,0.01904
1068.52,0.01956
1062.74,0.01947
1056.95,0.01906
1051.16,0.01887
1045.38,0.01912
1039.59,0.01906
1033.81,0.01964
1028.02,0.01917
1022.23,0.01952
1016.45,0.01892
1010.66,0.01982
1004.87,0.02030
999.089,0.02021
993.302,0.02067
987.516,0.02107
981.73,0.02092
975.944,0.02036
970.157,0.02044
964.371,0.02028
958.585,0.01973
952.799,0.01991
947.013,0.02041
941.226,0.01920
935.44,0.01918
929.654,0.01961
923.868,0.01964
918.081,0.01919
912.295,0.01924
906.509,0.01950
900.723,0.01910
894.937,0.01905
889.15,0.01913
883.364,0.01856
877.578,0.01932
871.792,0.01840
866.005,0.01889
860.219,0.01837
854.433,0.01923
848.647,0.01964
842.86,0.01869
837.074,0.01921
831.288,0.01874
825.502,0.01910
819.716,0.01881
813.929,0.01830
808.143,0.01890
802.357,0.01811
796.571,0.01858
790.784,0.01845
784.998,0.01874
779.212,0.01793
773.426,0.01754
767.64,0.01824
761.853,0.01775
756.067,0.01800
750.281,0.01763
744.495,0.01812
738.708,0.01777
732.922,0.01876
727.136,0.01813
721.35,0.01827
715.563,0.01765
709.777,0.01727
703.991,0.01745
698.205,0.01729
692.419,0.01776
686.632,0.01748
680.846,0.01730
675.06,0.01647
669.274,0.01717
663.487,0.01668
657.701,0.01700
651.915,0.01652
646.129,0.01605
640.343,0.01729
634.556,0.01713
628.77,0.01684
622.984,0.01727
617.198,0.01669
611.411,0.01740
605.625,0.01672
599.839,0.01848