File: 01_Data/Engineered_Flooring/FTIR/IS/Engineered_Flooring_IS_T_220909_R4.dpt
7497.02,0.01794
7491.24,0.02331
7485.45,0.02738
7479.66,0.02098
7473.88,0.01520
7468.09,0.02123
7462.3,0.02581
7456.52,0.03188
7450.73,0.02456
7444.95,0.02746
7439.16,0.02570
7433.37,0.03485
7427.59,0.03232
7421.8,0.03258
7416.01,0.02486
7410.23,0.02511
7404.44,0.03046
7398.66,0.02855
7392.87,0.02646
7387.08,0.01905
7381.3,0.02070
7375.51,0.01823
7369.73,0.01730
7363.94,0.01842
7358.15,0.02475
7352.37,0.02961
7346.58,0.02493
7340.79,0.01804
7335.01,0.01991
7329.22,0.02149
7323.44,0.02113
7317.65,0.02579
7311.86,0.02256
7306.08,0.02788
7300.29,0.02392
7294.5,0.02590
7288.72,0.03009
7282.93,0.01431
7277.15,0.02252
7271.36,0.02208
7265.57,0.02796
7259.79,0.03299
7254,0.02527
7248.21,0.02536
7242.43,0.02805
7236.64,0.03006
7230.86,0.02481
7225.07,0.02532
7219.28,0.02395
7213.5,0.02737
7207.71,0.02321
7201.92,0.02404
7196.14,0.02951
7190.35,0.03208
7184.57,0.03023
7178.78,0.02609
7172.99,0.01976
7167.21,0.02288
7161.42,0.02575
7155.63,0.02741
7149.85,0.02023
7144.06,0.02210
7138.28,0.02628
7132.49,0.02668
7126.7,0.02300
7120.92,0.02176
7115.13,0.01809
7109.34,0.02541
7103.56,0.02531
7097.77,0.02793
7091.99,0.03070
7086.2,0.02626
7080.41,0.02906
7074.63,0.02924
7068.84,0.02041
7063.06,0.02375
7057.27,0.01622
7051.48,0.01767
7045.7,0.02531
7039.91,0.02604
7034.12,0.02157
7028.34,0.02678
7022.55,0.02310
7016.77,0.02504
7010.98,0.02717
7005.19,0.02560
6999.41,0.02789
6993.62,0.02433
6987.83,0.02554
6982.05,0.02508
6976.26,0.02406
6970.48,0.03019
6964.69,0.02239
6958.9,0.02230
6953.12,0.02395
6947.33,0.02152
6941.54,0.02594
6935.76,0.01947
6929.97,0.02404
6924.19,0.02484
6918.4,0.01944
6912.61,0.02427
6906.83,0.02200
6901.04,0.02238
6895.25,0.02385
6889.47,0.02334
6883.68,0.02635
6877.9,0.02541
6872.11,0.02076
6866.32,0.02021
6860.54,0.02258
6854.75,0.02172
6848.96,0.02649
6843.18,0.02167
6837.39,0.02639
6831.61,0.02502
6825.82,0.02221
6820.03,0.02564
6814.25,0.02366
6808.46,0.02194
6802.67,0.02351
6796.89,0.02502
6791.1,0.02334
6785.32,0.02652
6779.53,0.02608
6773.74,0.02153
6767.96,0.02603
6762.17,0.02385
6756.38,0.02984
6750.6,0.02330
6744.81,0.02106
6739.03,0.02505
6733.24,0.02386
6727.45,0.02362
6721.67,0.02157
6715.88,0.02151
6710.1,0.02451
6704.31,0.02477
6698.52,0.02499
6692.74,0.02364
6686.95,0.02373
6681.16,0.02540
6675.38,0.02662
6669.59,0.01935
6663.81,0.02263
6658.02,0.02371
6652.23,0.02635
6646.45,0.02434
6640.66,0.02593
6634.87,0.02379
6629.09,0.02490
6623.3,0.02072
6617.52,0.02320
6611.73,0.02088
6605.94,0.02442
6600.16,0.02147
6594.37,0.02545
6588.58,0.02019
6582.8,0.02249
6577.01,0.02415
6571.23,0.02739
6565.44,0.02472
6559.65,0.02217
6553.87,0.02252
6548.08,0.02146
6542.29,0.02247
6536.51,0.02318
6530.72,0.02172
6524.94,0.02379
6519.15,0.02465
6513.36,0.02314
6507.58,0.02430
6501.79,0.02592
6496,0.02615
6490.22,0.02156
6484.43,0.02270
6478.65,0.02292
6472.86,0.02352
6467.07,0.01790
6461.29,0.02161
6455.5,0.02684
6449.71,0.02087
6443.93,0.02102
6438.14,0.02156
6432.36,0.02128
6426.57,0.02579
6420.78,0.02647
6415,0.02693
6409.21,0.02332
6403.43,0.02493
6397.64,0.02528
6391.85,0.02058
6386.07,0.02107
6380.28,0.02346
6374.49,0.02083
6368.71,0.02390
6362.92,0.01975
6357.14,0.02412
6351.35,0.01986
6345.56,0.02106
6339.78,0.01901
6333.99,0.02062
6328.2,0.02220
6322.42,0.02238
6316.63,0.02483
6310.85,0.01977
6305.06,0.02033
6299.27,0.02429
6293.49,0.02141
6287.7,0.01987
6281.91,0.02360
6276.13,0.01828
6270.34,0.02177
6264.56,0.02534
6258.77,0.02017
6252.98,0.02180
6247.2,0.02059
6241.41,0.02275
6235.62,0.02491
6229.84,0.02314
6224.05,0.02101
6218.27,0.02428
6212.48,0.02100
6206.69,0.02154
6200.91,0.02109
6195.12,0.02142
6189.33,0.02261
6183.55,0.02286
6177.76,0.02332
6171.98,0.02382
6166.19,0.01571
6160.4,0.02377
6154.62,0.02207
6148.83,0.02570
6143.04,0.01952
6137.26,0.02261
6131.47,0.02349
6125.69,0.02022
6119.9,0.02250
6114.11,0.02163
6108.33,0.02221
6102.54,0.02177
6096.76,0.02290
6090.97,0.02394
6085.18,0.02194
6079.4,0.02657
6073.61,0.02132
6067.82,0.02140
6062.04,0.02323
6056.25,0.02370
6050.47,0.02228
6044.68,0.02455
6038.89,0.02329
6033.11,0.02016
6027.32,0.02144
6021.53,0.02008
6015.75,0.02116
6009.96,0.01834
6004.18,0.02124
5998.39,0.02246
5992.6,0.02026
5986.82,0.02369
5981.03,0.02387
5975.24,0.02283
5969.46,0.02208
5963.67,0.02204
5957.89,0.02027
5952.1,0.02339
5946.31,0.02157
5940.53,0.02202
5934.74,0.02154
5928.95,0.02126
5923.17,0.02411
5917.38,0.02218
5911.6,0.02331
5905.81,0.01871
5900.02,0.02226
5894.24,0.02312
5888.45,0.02204
5882.66,0.02194
5876.88,0.02125
5871.09,0.02133
5865.31,0.02029
5859.52,0.02199
5853.73,0.02002
5847.95,0.02066
5842.16,0.02236
5836.37,0.02162
5830.59,0.02207
5824.8,0.02158
5819.02,0.02169
5813.23,0.02313
5807.44,0.02182
5801.66,0.02313
5795.87,0.02178
5790.08,0.02212
5784.3,0.02368
5778.51,0.02051
5772.73,0.02108
5766.94,0.02131
5761.15,0.02275
5755.37,0.02216
5749.58,0.02257
5743.8,0.02317
5738.01,0.02247
5732.22,0.02090
5726.44,0.02099
5720.65,0.02271
5714.86,0.02473
5709.08,0.02449
5703.29,0.02070
5697.51,0.01991
5691.72,0.02284
5685.93,0.02217
5680.15,0.02227
5674.36,0.02215
5668.57,0.02385
5662.79,0.02101
5657,0.02240
5651.22,0.02210
5645.43,0.02146
5639.64,0.02372
5633.86,0.02297
5628.07,0.02351
5622.28,0.02368
5616.5,0.02127
5610.71,0.02221
5604.93,0.02164
5599.14,0.02217
5593.35,0.02266
5587.57,0.02076
5581.78,0.01933
5575.99,0.02275
5570.21,0.02206
5564.42,0.02299
5558.64,0.02117
5552.85,0.02370
5547.06,0.02272
5541.28,0.02326
5535.49,0.02310
5529.7,0.02389
5523.92,0.02435
5518.13,0.02331
5512.35,0.02349
5506.56,0.02076
5500.77,0.02369
5494.99,0.02040
5489.2,0.02255
5483.41,0.02183
5477.63,0.02238
5471.84,0.02139
5466.06,0.02403
5460.27,0.02338
5454.48,0.02222
5448.7,0.02294
5442.91,0.02177
5437.13,0.02404
5431.34,0.02287
5425.55,0.02470
5419.77,0.02287
5413.98,0.02403
5408.19,0.02334
5402.41,0.02301
5396.62,0.02306
5390.84,0.02128
5385.05,0.02367
5379.26,0.02187
5373.48,0.02231
5367.69,0.02114
5361.9,0.02152
5356.12,0.02250
5350.33,0.02304
5344.55,0.02206
5338.76,0.02333
5332.97,0.02227
5327.19,0.02252
5321.4,0.02277
5315.61,0.02316
5309.83,0.02062
5304.04,0.02062
5298.26,0.02207
5292.47,0.02379
5286.68,0.02334
5280.9,0.02216
5275.11,0.02267
5269.32,0.02267
5263.54,0.02187
5257.75,0.02288
5251.97,0.02343
5246.18,0.02141
5240.39,0.02150
5234.61,0.02315
5228.82,0.02282
5223.03,0.02287
5217.25,0.02320
5211.46,0.02222
5205.68,0.02292
5199.89,0.02274
5194.1,0.02179
5188.32,0.02274
5182.53,0.02417
5176.74,0.02191
5170.96,0.02335
5165.17,0.02185
5159.39,0.02168
5153.6,0.02291
5147.81,0.02287
5142.03,0.02477
5136.24,0.02289
5130.46,0.02239
5124.67,0.02230
5118.88,0.02388
5113.1,0.02249
5107.31,0.02229
5101.52,0.02238
5095.74,0.02246
5089.95,0.02351
5084.17,0.02302
5078.38,0.02222
5072.59,0.02326
5066.81,0.02259
5061.02,0.02225
5055.23,0.02325
5049.45,0.02309
5043.66,0.02317
5037.88,0.02242
5032.09,0.02348
5026.3,0.02302
5020.52,0.02299
5014.73,0.02220
5008.94,0.02261
5003.16,0.02337
4997.37,0.02247
4991.59,0.02242
4985.8,0.02135
4980.01,0.02302
4974.23,0.02312
4968.44,0.02373
4962.65,0.02372
4956.87,0.02272
4951.08,0.02372
4945.3,0.02263
4939.51,0.02181
4933.72,0.02271
4927.94,0.02204
4922.15,0.02294
4916.36,0.02240
4910.58,0.02265
4904.79,0.02311
4899.01,0.02224
4893.22,0.02226
4887.43,0.02157
4881.65,0.02263
4875.86,0.02266
4870.07,0.02184
4864.29,0.02299
4858.5,0.02267
4852.72,0.02249
4846.93,0.02415
4841.14,0.02254
4835.36,0.02319
4829.57,0.02396
4823.78,0.02320
4818,0.02277
4812.21,0.02261
4806.43,0.02273
4800.64,0.02221
4794.85,0.02246
4789.07,0.02342
4783.28,0.02238
4777.5,0.02396
4771.71,0.02354
4765.92,0.02232
4760.14,0.02216
4754.35,0.02166
4748.56,0.02339
4742.78,0.02285
4736.99,0.02282
4731.21,0.02256
4725.42,0.02220
4719.63,0.02282
4713.85,0.02272
4708.06,0.02239
4702.27,0.02244
4696.49,0.02339
4690.7,0.02334
4684.92,0.02285
4679.13,0.02270
4673.34,0.02272
4667.56,0.02408
4661.77,0.02270
4655.98,0.02263
4650.2,0.02373
4644.41,0.02365
4638.63,0.02313
4632.84,0.02314
4627.05,0.02285
4621.27,0.02288
4615.48,0.02314
4609.69,0.02240
4603.91,0.02227
4598.12,0.02308
4592.34,0.02299
4586.55,0.02224
4580.76,0.02241
4574.98,0.02286
4569.19,0.02373
4563.4,0.02309
4557.62,0.02288
4551.83,0.02237
4546.05,0.02290
4540.26,0.02299
4534.47,0.02298
4528.69,0.02366
4522.9,0.02327
4517.11,0.02299
4511.33,0.02307
4505.54,0.02269
4499.76,0.02343
4493.97,0.02385
4488.18,0.02405
4482.4,0.02327
4476.61,0.02247
4470.83,0.02246
4465.04,0.02384
4459.25,0.02305
4453.47,0.02302
4447.68,0.02389
4441.89,0.02250
4436.11,0.02278
4430.32,0.02251
4424.54,0.02310
4418.75,0.02285
4412.96,0.02335
4407.18,0.02282
4401.39,0.02287
4395.6,0.02369
4389.82,0.02294
4384.03,0.02331
4378.25,0.02210
4372.46,0.02328
4366.67,0.02375
4360.89,0.02292
4355.1,0.02286
4349.31,0.02228
4343.53,0.02353
4337.74,0.02324
4331.96,0.02349
4326.17,0.02375
4320.38,0.02324
4314.6,0.02324
4308.81,0.02332
4303.02,0.02275
4297.24,0.02334
4291.45,0.02270
4285.67,0.02304
4279.88,0.02326
4274.09,0.02336
4268.31,0.02198
4262.52,0.02303
4256.73,0.02232
4250.95,0.02279
4245.16,0.02325
4239.38,0.02325
4233.59,0.02301
4227.8,0.02342
4222.02,0.02371
4216.23,0.02376
4210.44,0.02299
4204.66,0.02273
4198.87,0.02216
4193.09,0.02261
4187.3,0.02351
4181.51,0.02289
4175.73,0.02337
4169.94,0.02316
4164.16,0.02311
4158.37,0.02305
4152.58,0.02378
4146.8,0.02380
4141.01,0.02327
4135.22,0.02218
4129.44,0.02348
4123.65,0.02301
4117.87,0.02311
4112.08,0.02407
4106.29,0.02336
4100.51,0.02271
4094.72,0.02374
4088.93,0.02325
4083.15,0.02292
4077.36,0.02305
4071.58,0.02334
4065.79,0.02372
4060,0.02386
4054.22,0.02326
4048.43,0.02290
4042.64,0.02362
4036.86,0.02265
4031.07,0.02359
4025.29,0.02327
4019.5,0.02330
4013.71,0.02321
4007.93,0.02327
4002.14,0.02305
3996.35,0.02292
3990.57,0.02324
3984.78,0.02321
3979,0.02274
3973.21,0.02283
3967.42,0.02321
3961.64,0.02312
3955.85,0.02308
3950.06,0.02336
3944.28,0.02305
3938.49,0.02368
3932.71,0.02363
3926.92,0.02298
3921.13,0.02296
3915.35,0.02276
3909.56,0.02293
3903.77,0.02318
3897.99,0.02295
3892.2,0.02273
3886.42,0.02291
3880.63,0.02294
3874.84,0.02376
3869.06,0.02371
3863.27,0.02298
3857.48,0.02257
3851.7,0.02360
3845.91,0.02351
3840.13,0.02313
3834.34,0.02346
3828.55,0.02289
3822.77,0.02388
3816.98,0.02278
3811.2,0.02237
3805.41,0.02365
3799.62,0.02335
3793.84,0.02311
3788.05,0.02292
3782.26,0.02313
3776.48,0.02348
3770.69,0.02365
3764.91,0.02380
3759.12,0.02357
3753.33,0.02322
3747.55,0.02238
3741.76,0.02290
3735.97,0.02323
3730.19,0.02272
3724.4,0.02270
3718.62,0.02356
3712.83,0.02253
3707.04,0.02334
3701.26,0.02257
3695.47,0.02250
3689.68,0.02293
3683.9,0.02275
3678.11,0.02231
3672.33,0.02208
3666.54,0.02251
3660.75,0.02315
3654.97,0.02183
3649.18,0.02235
3643.39,0.02222
3637.61,0.02275
3631.82,0.02280
3626.04,0.02248
3620.25,0.02205
3614.46,0.02168
3608.68,0.02161
3602.89,0.02216
3597.1,0.02133
3591.32,0.02180
3585.53,0.02201
3579.75,0.02208
3573.96,0.02114
3568.17,0.02194
3562.39,0.02245
3556.6,0.02171
3550.81,0.02232
3545.03,0.02226
3539.24,0.02203
3533.46,0.02188
3527.67,0.02159
3521.88,0.02115
3516.1,0.02081
3510.31,0.02089
3504.53,0.02147
3498.74,0.02135
3492.95,0.02128
3487.17,0.02137
3481.38,0.02181
3475.59,0.02138
3469.81,0.02109
3464.02,0.02107
3458.24,0.02142
3452.45,0.02184
3446.66,0.02094
3440.88,0.02129
3435.09,0.02079
3429.3,0.02125
3423.52,0.02140
3417.73,0.02121
3411.95,0.02153
3406.16,0.02059
3400.37,0.02114
3394.59,0.02072
3388.8,0.02099
3383.01,0.02074
3377.23,0.02045
3371.44,0.02143
3365.66,0.02059
3359.87,0.02027
3354.08,0.02073
3348.3,0.02027
3342.51,0.02047
3336.72,0.02070
3330.94,0.02066
3325.15,0.02069
3319.37,0.02011
3313.58,0.02066
3307.79,0.02138
3302.01,0.02145
3296.22,0.02087
3290.43,0.02063
3284.65,0.02061
3278.86,0.02080
3273.08,0.02096
3267.29,0.02152
3261.5,0.02082
3255.72,0.02099
3249.93,0.02085
3244.14,0.02010
3238.36,0.02107
3232.57,0.02131
3226.79,0.02061
3221,0.02116
3215.21,0.02119
3209.43,0.02138
3203.64,0.02133
3197.86,0.02134
3192.07,0.02129
3186.28,0.02090
3180.5,0.02071
3174.71,0.02188
3168.92,0.02171
3163.14,0.02138
3157.35,0.02151
3151.57,0.02130
3145.78,0.02215
3139.99,0.02153
3134.21,0.02113
3128.42,0.02133
3122.63,0.02122
3116.85,0.02171
3111.06,0.02155
3105.28,0.02133
3099.49,0.02114
3093.7,0.02081
3087.92,0.02062
3082.13,0.02151
3076.34,0.02104
3070.56,0.02153
3064.77,0.02111
3058.99,0.02137
3053.2,0.02092
3047.41,0.02107
3041.63,0.02106
3035.84,0.02111
3030.05,0.02088
3024.27,0.02079
3018.48,0.02120
3012.7,0.02039
3006.91,0.02061
3001.12,0.02057
2995.34,0.02072
2989.55,0.02052
2983.76,0.02030
2977.98,0.01987
2972.19,0.02037
2966.41,0.02045
2960.62,0.02036
2954.83,0.01981
2949.05,0.02008
2943.26,0.02049
2937.47,0.02024
2931.69,0.01998
2925.9,0.02007
2920.12,0.02060
2914.33,0.02055
2908.54,0.02080
2902.76,0.02098
2896.97,0.02104
2891.18,0.02073
2885.4,0.02115
2879.61,0.02095
2873.83,0.02111
2868.04,0.02101
2862.25,0.02100
2856.47,0.02122
2850.68,0.02119
2844.9,0.02138
2839.11,0.02155
2833.32,0.02178
2827.54,0.02169
2821.75,0.02204
2815.96,0.02157
2810.18,0.02147
2804.39,0.02159
2798.61,0.02165
2792.82,0.02235
2787.03,0.02193
2781.25,0.02162
2775.46,0.02196
2769.67,0.02169
2763.89,0.02183
2758.1,0.02171
2752.32,0.02161
2746.53,0.02188
2740.74,0.02189
2734.96,0.02179
2729.17,0.02165
2723.38,0.02186
2717.6,0.02157
2711.81,0.02177
2706.03,0.02201
2700.24,0.02189
2694.45,0.02214
2688.67,0.02176
2682.88,0.02184
2677.09,0.02166
2671.31,0.02180
2665.52,0.02170
2659.74,0.02197
2653.95,0.02206
2648.16,0.02166
2642.38,0.02202
2636.59,0.02195
2630.8,0.02147
2625.02,0.02174
2619.23,0.02192
2613.45,0.02193
2607.66,0.02143
2601.87,0.02219
2596.09,0.02169
2590.3,0.02179
2584.51,0.02205
2578.73,0.02185
2572.94,0.02215
2567.16,0.02150
2561.37,0.02176
2555.58,0.02200
2549.8,0.02192
2544.01,0.02186
2538.23,0.02170
2532.44,0.02209
2526.65,0.02184
2520.87,0.02136
2515.08,0.02183
2509.29,0.02201
2503.51,0.02196
2497.72,0.02152
2491.94,0.02146
2486.15,0.02162
2480.36,0.02183
2474.58,0.02185
2468.79,0.02160
2463,0.02167
2457.22,0.02189
2451.43,0.02153
2445.65,0.02184
2439.86,0.02171
2434.07,0.02150
2428.29,0.02157
2422.5,0.02173
2416.71,0.02171
2410.93,0.02188
2405.14,0.02161
2399.36,0.02165
2393.57,0.02173
2387.78,0.02182
2382,0.02169
2376.21,0.02159
2370.42,0.02216
2364.64,0.02209
2358.85,0.02165
2353.07,0.02154
2347.28,0.02174
2341.49,0.02158
2335.71,0.02184
2329.92,0.02154
2324.13,0.02138
2318.35,0.02164
2312.56,0.02181
2306.78,0.02204
2300.99,0.02179
2295.2,0.02193
2289.42,0.02132
2283.63,0.02143
2277.84,0.02154
2272.06,0.02142
2266.27,0.02155
2260.49,0.02154
2254.7,0.02177
2248.91,0.02148
2243.13,0.02164
2237.34,0.02149
2231.56,0.02160
2225.77,0.02182
2219.98,0.02129
2214.2,0.02171
2208.41,0.02133
2202.62,0.02155
2196.84,0.02198
2191.05,0.02118
2185.27,0.02122
2179.48,0.02140
2173.69,0.02172
2167.91,0.02162
2162.12,0.02133
2156.33,0.02152
2150.55,0.02135
2144.76,0.02087
2138.98,0.02158
2133.19,0.02098
2127.4,0.02144
2121.62,0.02123
2115.83,0.02136
2110.04,0.02127
2104.26,0.02180
2098.47,0.02170
2092.69,0.02129
2086.9,0.02170
2081.11,0.02126
2075.33,0.02154
2069.54,0.02115
2063.75,0.02119
2057.97,0.02125
2052.18,0.02160
2046.4,0.02103
2040.61,0.02137
2034.82,0.02156
2029.04,0.02111
2023.25,0.02121
2017.46,0.02152
2011.68,0.02124
2005.89,0.02137
2000.11,0.02110
1994.32,0.02133
1988.53,0.02147
1982.75,0.02161
1976.96,0.02103
1971.17,0.02177
1965.39,0.02130
1959.6,0.02150
1953.82,0.02122
1948.03,0.02146
1942.24,0.02165
1936.46,0.02127
1930.67,0.02129
1924.89,0.02157
1919.1,0.02099
1913.31,0.02090
1907.53,0.02098
1901.74,0.02083
1895.95,0.02099
1890.17,0.02106
1884.38,0.02120
1878.6,0.02095
1872.81,0.02103
1867.02,0.02068
1861.24,0.02051
1855.45,0.02042
1849.66,0.02050
1843.88,0.02093
1838.09,0.02039
1832.31,0.02084
1826.52,0.02079
1820.73,0.02037
1814.95,0.02028
1809.16,0.02031
1803.37,0.02014
1797.59,0.01992
1791.8,0.01998
1786.02,0.01978
1780.23,0.01950
1774.44,0.01955
1768.66,0.01892
1762.87,0.01891
1757.08,0.01819
1751.3,0.01814
1745.51,0.01814
1739.73,0.01885
1733.94,0.01993
1728.15,0.02067
1722.37,0.02119
1716.58,0.02123
1710.79,0.02076
1705.01,0.02082
1699.22,0.02005
1693.44,0.02001
1687.65,0.01966
1681.86,0.01920
1676.08,0.01959
1670.29,0.01890
1664.5,0.01892
1658.72,0.01865
1652.93,0.01915
1647.15,0.01877
1641.36,0.01900
1635.57,0.01932
1629.79,0.01951
1624,0.01919
1618.21,0.01946
1612.43,0.01954
1606.64,0.01920
1600.86,0.01936
1595.07,0.01932
1589.28,0.01908
1583.5,0.01880
1577.71,0.01910
1571.93,0.01833
1566.14,0.01844
1560.35,0.01887
1554.57,0.01849
1548.78,0.01868
1542.99,0.01856
1537.21,0.01907
1531.42,0.01902
1525.64,0.01885
1519.85,0.01904
1514.06,0.01908
1508.28,0.01923
1502.49,0.01900
1496.7,0.01901
1490.92,0.01909
1485.13,0.01934
1479.35,0.01913
1473.56,0.01897
1467.77,0.01865
1461.99,0.01845
1456.2,0.01915
1450.41,0.01923
1444.63,0.01937
1438.84,0.01933
1433.06,0.01898
1427.27,0.01922
1421.48,0.01921
1415.7,0.01887
1409.91,0.01857
1404.12,0.01853
1398.34,0.01837
1392.55,0.01845
1386.77,0.01846
1380.98,0.01839
1375.19,0.01845
1369.41,0.01864
1363.62,0.01879
1357.83,0.01834
1352.05,0.01842
1346.26,0.01849
1340.48,0.01849
1334.69,0.01806
1328.9,0.01796
1323.12,0.01751
1317.33,0.01755
1311.54,0.01736
1305.76,0.01764
1299.97,0.01745
1294.19,0.01797
1288.4,0.01893
1282.61,0.01927
1276.83,0.01955
1271.04,0.01972
1265.26,0.02049
1259.47,0.02063
1253.68,0.02083
1247.9,0.02075
1242.11,0.02066
1236.32,0.02051
1230.54,0.01977
1224.75,0.01968
1218.97,0.01982
1213.18,0.01969
1207.39,0.01896
1201.61,0.01898
1195.82,0.01917
1190.03,0.01838
1184.25,0.01865
1178.46,0.01809
1172.68,0.01876
1166.89,0.01819
1161.1,0.01771
1155.32,0.01775
1149.53,0.01753
1143.74,0.01849
1137.96,0.01780
1132.17,0.01837
1126.39,0.01801
1120.6,0.01918
1114.81,0.01904
1109.03,0.01834
1103.24,0.01855
1097.45,0.01901
1091.67,0.01878
1085.88,0.01915
1080.1,0.01888
1074.31,0.01952
1068.52,0.02074
1062.74,0.02026
1056.95,0.01984
1051.16,0.01985
1045.38,0.01961
1039.59,0.02004
1033.81,0.01976
1028.02,0.01986
1022.23,0.02000
1016.45,0.01977
1010.66,0.01999
1004.87,0.02087
999.089,0.02135
993.302,0.02134
987.516,0.02136
981.73,0.02075
975.944,0.02103
970.157,0.02057
964.371,0.02029
958.585,0.02061
952.799,0.01990
947.013,0.02091
941.226,0.02024
935.44,0.01980
929.654,0.01961
923.868,0.01964
918.081,0.01916
912.295,0.01949
906.509,0.01962
900.723,0.02020
894.937,0.01901
889.15,0.01977
883.364,0.01975
877.578,0.01873
871.792,0.01905
866.005,0.01815
860.219,0.01978
854.433,0.01987
848.647,0.01926
842.86,0.01848
837.074,0.01912
831.288,0.01857
825.502,0.01874
819.716,0.01886
813.929,0.01950
808.143,0.01952
802.357,0.01869
796.571,0.01896
790.784,0.01896
784.998,0.01808
779.212,0.01937
773.426,0.01905
767.64,0.01830
761.853,0.01913
756.067,0.01925
750.281,0.01815
744.495,0.01802
738.708,0.01848
732.922,0.01789
727.136,0.01846
721.35,0.01835
715.563,0.01826
709.777,0.01851
703.991,0.01805
698.205,0.01848
692.419,0.01777
686.632,0.01768
680.846,0.01740
675.06,0.01733
669.274,0.01835
663.487,0.01700
657.701,0.01585
651.915,0.01604
646.129,0.01646
640.343,0.01840
634.556,0.01494
628.77,0.01614
622.984,0.01507
617.198,0.01490
611.411,0.01653
605.625,0.01637
599.839,0.01723