File: 01_Data/Engineered_Flooring/FTIR/IS/Engineered_Flooring_IS_T_220909_R8.dpt
7497.02,0.02596
7491.24,0.02434
7485.45,0.02015
7479.66,0.01809
7473.88,0.02199
7468.09,0.01953
7462.3,0.02496
7456.52,0.02838
7450.73,0.01901
7444.95,0.02318
7439.16,0.02699
7433.37,0.02616
7427.59,0.02870
7421.8,0.02378
7416.01,0.03184
7410.23,0.02981
7404.44,0.03467
7398.66,0.02637
7392.87,0.02699
7387.08,0.03444
7381.3,0.02462
7375.51,0.01648
7369.73,0.02543
7363.94,0.02667
7358.15,0.02611
7352.37,0.01879
7346.58,0.03427
7340.79,0.03053
7335.01,0.02576
7329.22,0.01402
7323.44,0.02533
7317.65,0.02054
7311.86,0.01788
7306.08,0.02535
7300.29,0.02370
7294.5,0.02759
7288.72,0.02956
7282.93,0.02594
7277.15,0.02271
7271.36,0.02662
7265.57,0.02283
7259.79,0.01454
7254,0.02691
7248.21,0.02316
7242.43,0.02686
7236.64,0.02503
7230.86,0.03177
7225.07,0.02321
7219.28,0.02540
7213.5,0.02160
7207.71,0.02549
7201.92,0.02493
7196.14,0.02285
7190.35,0.03040
7184.57,0.02402
7178.78,0.02158
7172.99,0.02736
7167.21,0.03058
7161.42,0.02677
7155.63,0.02422
7149.85,0.02587
7144.06,0.02304
7138.28,0.02680
7132.49,0.02479
7126.7,0.01909
7120.92,0.02098
7115.13,0.02526
7109.34,0.02902
7103.56,0.02690
7097.77,0.02516
7091.99,0.02393
7086.2,0.02312
7080.41,0.01987
7074.63,0.02497
7068.84,0.01893
7063.06,0.02486
7057.27,0.03445
7051.48,0.02925
7045.7,0.02850
7039.91,0.02383
7034.12,0.02351
7028.34,0.02648
7022.55,0.02756
7016.77,0.02671
7010.98,0.02249
7005.19,0.02247
6999.41,0.02635
6993.62,0.02941
6987.83,0.02238
6982.05,0.02844
6976.26,0.02216
6970.48,0.02911
6964.69,0.02477
6958.9,0.02379
6953.12,0.02515
6947.33,0.01839
6941.54,0.02608
6935.76,0.02429
6929.97,0.01991
6924.19,0.02430
6918.4,0.02615
6912.61,0.02465
6906.83,0.02240
6901.04,0.02524
6895.25,0.02683
6889.47,0.02055
6883.68,0.02732
6877.9,0.02424
6872.11,0.02586
6866.32,0.02791
6860.54,0.02543
6854.75,0.02200
6848.96,0.02126
6843.18,0.02606
6837.39,0.02316
6831.61,0.02638
6825.82,0.02382
6820.03,0.02635
6814.25,0.02125
6808.46,0.02083
6802.67,0.02113
6796.89,0.02443
6791.1,0.02216
6785.32,0.02648
6779.53,0.02445
6773.74,0.02510
6767.96,0.02286
6762.17,0.02456
6756.38,0.02303
6750.6,0.02129
6744.81,0.03083
6739.03,0.02488
6733.24,0.02600
6727.45,0.02843
6721.67,0.02475
6715.88,0.02295
6710.1,0.02554
6704.31,0.02133
6698.52,0.02575
6692.74,0.02507
6686.95,0.02212
6681.16,0.02307
6675.38,0.02543
6669.59,0.02563
6663.81,0.02222
6658.02,0.02255
6652.23,0.02220
6646.45,0.02513
6640.66,0.02611
6634.87,0.02388
6629.09,0.02499
6623.3,0.02810
6617.52,0.02143
6611.73,0.02696
6605.94,0.02429
6600.16,0.01900
6594.37,0.02632
6588.58,0.02532
6582.8,0.02150
6577.01,0.01947
6571.23,0.02393
6565.44,0.02362
6559.65,0.02265
6553.87,0.02247
6548.08,0.01932
6542.29,0.02244
6536.51,0.02313
6530.72,0.02209
6524.94,0.01869
6519.15,0.02147
6513.36,0.01983
6507.58,0.01974
6501.79,0.02079
6496,0.02078
6490.22,0.02596
6484.43,0.02017
6478.65,0.02088
6472.86,0.02190
6467.07,0.02242
6461.29,0.02236
6455.5,0.02660
6449.71,0.01979
6443.93,0.02318
6438.14,0.02319
6432.36,0.02151
6426.57,0.02620
6420.78,0.02516
6415,0.02328
6409.21,0.02171
6403.43,0.02058
6397.64,0.02079
6391.85,0.02363
6386.07,0.02564
6380.28,0.02436
6374.49,0.02410
6368.71,0.01913
6362.92,0.02216
6357.14,0.02089
6351.35,0.02450
6345.56,0.02571
6339.78,0.02273
6333.99,0.02102
6328.2,0.02172
6322.42,0.02260
6316.63,0.01848
6310.85,0.02683
6305.06,0.02337
6299.27,0.02403
6293.49,0.02164
6287.7,0.02163
6281.91,0.02362
6276.13,0.02276
6270.34,0.02348
6264.56,0.02251
6258.77,0.02216
6252.98,0.02138
6247.2,0.02304
6241.41,0.01964
6235.62,0.02171
6229.84,0.02189
6224.05,0.02798
6218.27,0.02666
6212.48,0.02117
6206.69,0.02135
6200.91,0.02474
6195.12,0.02202
6189.33,0.02194
6183.55,0.02325
6177.76,0.02153
6171.98,0.02055
6166.19,0.02276
6160.4,0.02354
6154.62,0.02402
6148.83,0.02500
6143.04,0.02051
6137.26,0.02264
6131.47,0.02044
6125.69,0.01996
6119.9,0.02383
6114.11,0.02235
6108.33,0.02574
6102.54,0.02124
6096.76,0.02307
6090.97,0.02320
6085.18,0.02129
6079.4,0.02277
6073.61,0.02242
6067.82,0.02412
6062.04,0.02460
6056.25,0.02262
6050.47,0.02160
6044.68,0.01962
6038.89,0.02446
6033.11,0.02356
6027.32,0.02400
6021.53,0.02268
6015.75,0.02323
6009.96,0.01874
6004.18,0.02140
5998.39,0.02040
5992.6,0.02307
5986.82,0.02104
5981.03,0.02320
5975.24,0.02431
5969.46,0.02260
5963.67,0.02179
5957.89,0.02407
5952.1,0.02203
5946.31,0.02097
5940.53,0.02221
5934.74,0.02071
5928.95,0.02240
5923.17,0.02143
5917.38,0.02318
5911.6,0.02147
5905.81,0.02259
5900.02,0.02343
5894.24,0.02079
5888.45,0.02232
5882.66,0.01948
5876.88,0.02162
5871.09,0.02112
5865.31,0.02204
5859.52,0.02231
5853.73,0.02346
5847.95,0.02031
5842.16,0.02066
5836.37,0.02243
5830.59,0.02157
5824.8,0.02049
5819.02,0.02029
5813.23,0.02329
5807.44,0.02190
5801.66,0.02110
5795.87,0.02021
5790.08,0.02207
5784.3,0.02027
5778.51,0.02254
5772.73,0.02149
5766.94,0.02535
5761.15,0.02278
5755.37,0.02395
5749.58,0.02186
5743.8,0.02157
5738.01,0.02264
5732.22,0.02426
5726.44,0.02128
5720.65,0.02058
5714.86,0.02064
5709.08,0.02055
5703.29,0.02217
5697.51,0.02218
5691.72,0.02032
5685.93,0.02276
5680.15,0.02328
5674.36,0.02318
5668.57,0.02257
5662.79,0.02105
5657,0.02291
5651.22,0.02246
5645.43,0.02115
5639.64,0.02095
5633.86,0.02204
5628.07,0.02153
5622.28,0.02051
5616.5,0.02158
5610.71,0.02155
5604.93,0.02172
5599.14,0.02138
5593.35,0.02205
5587.57,0.02260
5581.78,0.02339
5575.99,0.02159
5570.21,0.02083
5564.42,0.02403
5558.64,0.02381
5552.85,0.02236
5547.06,0.02225
5541.28,0.02159
5535.49,0.02322
5529.7,0.02113
5523.92,0.02305
5518.13,0.02225
5512.35,0.02274
5506.56,0.02134
5500.77,0.02194
5494.99,0.02265
5489.2,0.02327
5483.41,0.02319
5477.63,0.02288
5471.84,0.02234
5466.06,0.02131
5460.27,0.02312
5454.48,0.02301
5448.7,0.02133
5442.91,0.02159
5437.13,0.02349
5431.34,0.02338
5425.55,0.02216
5419.77,0.02279
5413.98,0.02201
5408.19,0.02222
5402.41,0.02193
5396.62,0.02083
5390.84,0.02349
5385.05,0.02214
5379.26,0.02346
5373.48,0.02204
5367.69,0.02239
5361.9,0.02236
5356.12,0.02419
5350.33,0.02221
5344.55,0.02133
5338.76,0.02220
5332.97,0.02326
5327.19,0.02265
5321.4,0.02295
5315.61,0.02217
5309.83,0.02150
5304.04,0.02193
5298.26,0.02438
5292.47,0.02276
5286.68,0.02180
5280.9,0.02247
5275.11,0.02267
5269.32,0.02230
5263.54,0.02277
5257.75,0.02329
5251.97,0.02194
5246.18,0.02361
5240.39,0.02338
5234.61,0.02165
5228.82,0.02237
5223.03,0.02261
5217.25,0.02200
5211.46,0.02340
5205.68,0.02169
5199.89,0.02112
5194.1,0.02240
5188.32,0.02231
5182.53,0.02123
5176.74,0.02275
5170.96,0.02278
5165.17,0.02228
5159.39,0.02273
5153.6,0.02233
5147.81,0.02269
5142.03,0.02329
5136.24,0.02264
5130.46,0.02230
5124.67,0.02234
5118.88,0.02159
5113.1,0.02258
5107.31,0.02196
5101.52,0.02254
5095.74,0.02364
5089.95,0.02219
5084.17,0.02239
5078.38,0.02157
5072.59,0.02281
5066.81,0.02184
5061.02,0.02268
5055.23,0.02284
5049.45,0.02173
5043.66,0.02245
5037.88,0.02221
5032.09,0.02358
5026.3,0.02352
5020.52,0.02267
5014.73,0.02127
5008.94,0.02177
5003.16,0.02261
4997.37,0.02237
4991.59,0.02255
4985.8,0.02215
4980.01,0.02205
4974.23,0.02236
4968.44,0.02279
4962.65,0.02216
4956.87,0.02143
4951.08,0.02237
4945.3,0.02320
4939.51,0.02266
4933.72,0.02339
4927.94,0.02274
4922.15,0.02240
4916.36,0.02376
4910.58,0.02344
4904.79,0.02224
4899.01,0.02283
4893.22,0.02300
4887.43,0.02267
4881.65,0.02241
4875.86,0.02271
4870.07,0.02195
4864.29,0.02399
4858.5,0.02286
4852.72,0.02245
4846.93,0.02223
4841.14,0.02231
4835.36,0.02290
4829.57,0.02153
4823.78,0.02214
4818,0.02356
4812.21,0.02253
4806.43,0.02248
4800.64,0.02340
4794.85,0.02216
4789.07,0.02251
4783.28,0.02193
4777.5,0.02355
4771.71,0.02240
4765.92,0.02201
4760.14,0.02203
4754.35,0.02209
4748.56,0.02356
4742.78,0.02335
4736.99,0.02275
4731.21,0.02252
4725.42,0.02211
4719.63,0.02263
4713.85,0.02226
4708.06,0.02250
4702.27,0.02275
4696.49,0.02283
4690.7,0.02271
4684.92,0.02305
4679.13,0.02309
4673.34,0.02335
4667.56,0.02270
4661.77,0.02292
4655.98,0.02298
4650.2,0.02288
4644.41,0.02335
4638.63,0.02290
4632.84,0.02322
4627.05,0.02269
4621.27,0.02352
4615.48,0.02304
4609.69,0.02309
4603.91,0.02140
4598.12,0.02246
4592.34,0.02266
4586.55,0.02190
4580.76,0.02299
4574.98,0.02239
4569.19,0.02232
4563.4,0.02176
4557.62,0.02325
4551.83,0.02224
4546.05,0.02342
4540.26,0.02245
4534.47,0.02242
4528.69,0.02269
4522.9,0.02275
4517.11,0.02240
4511.33,0.02183
4505.54,0.02281
4499.76,0.02237
4493.97,0.02185
4488.18,0.02286
4482.4,0.02282
4476.61,0.02234
4470.83,0.02278
4465.04,0.02205
4459.25,0.02311
4453.47,0.02274
4447.68,0.02369
4441.89,0.02200
4436.11,0.02327
4430.32,0.02255
4424.54,0.02208
4418.75,0.02294
4412.96,0.02222
4407.18,0.02305
4401.39,0.02244
4395.6,0.02229
4389.82,0.02295
4384.03,0.02273
4378.25,0.02250
4372.46,0.02379
4366.67,0.02249
4360.89,0.02215
4355.1,0.02259
4349.31,0.02249
4343.53,0.02249
4337.74,0.02262
4331.96,0.02255
4326.17,0.02234
4320.38,0.02204
4314.6,0.02243
4308.81,0.02283
4303.02,0.02261
4297.24,0.02261
4291.45,0.02267
4285.67,0.02257
4279.88,0.02177
4274.09,0.02276
4268.31,0.02234
4262.52,0.02344
4256.73,0.02300
4250.95,0.02248
4245.16,0.02239
4239.38,0.02258
4233.59,0.02284
4227.8,0.02282
4222.02,0.02202
4216.23,0.02193
4210.44,0.02164
4204.66,0.02299
4198.87,0.02271
4193.09,0.02290
4187.3,0.02254
4181.51,0.02242
4175.73,0.02270
4169.94,0.02258
4164.16,0.02250
4158.37,0.02227
4152.58,0.02283
4146.8,0.02241
4141.01,0.02281
4135.22,0.02260
4129.44,0.02286
4123.65,0.02291
4117.87,0.02270
4112.08,0.02306
4106.29,0.02329
4100.51,0.02237
4094.72,0.02242
4088.93,0.02296
4083.15,0.02299
4077.36,0.02231
4071.58,0.02297
4065.79,0.02292
4060,0.02293
4054.22,0.02265
4048.43,0.02243
4042.64,0.02235
4036.86,0.02223
4031.07,0.02341
4025.29,0.02292
4019.5,0.02267
4013.71,0.02279
4007.93,0.02269
4002.14,0.02389
3996.35,0.02379
3990.57,0.02350
3984.78,0.02250
3979,0.02291
3973.21,0.02239
3967.42,0.02280
3961.64,0.02276
3955.85,0.02265
3950.06,0.02364
3944.28,0.02284
3938.49,0.02271
3932.71,0.02269
3926.92,0.02296
3921.13,0.02297
3915.35,0.02245
3909.56,0.02221
3903.77,0.02296
3897.99,0.02256
3892.2,0.02208
3886.42,0.02350
3880.63,0.02289
3874.84,0.02300
3869.06,0.02350
3863.27,0.02337
3857.48,0.02290
3851.7,0.02347
3845.91,0.02314
3840.13,0.02316
3834.34,0.02306
3828.55,0.02282
3822.77,0.02352
3816.98,0.02226
3811.2,0.02282
3805.41,0.02304
3799.62,0.02290
3793.84,0.02278
3788.05,0.02273
3782.26,0.02308
3776.48,0.02301
3770.69,0.02331
3764.91,0.02235
3759.12,0.02271
3753.33,0.02315
3747.55,0.02341
3741.76,0.02302
3735.97,0.02235
3730.19,0.02255
3724.4,0.02273
3718.62,0.02258
3712.83,0.02238
3707.04,0.02258
3701.26,0.02244
3695.47,0.02272
3689.68,0.02290
3683.9,0.02291
3678.11,0.02261
3672.33,0.02232
3666.54,0.02197
3660.75,0.02271
3654.97,0.02229
3649.18,0.02232
3643.39,0.02255
3637.61,0.02267
3631.82,0.02235
3626.04,0.02218
3620.25,0.02260
3614.46,0.02262
3608.68,0.02261
3602.89,0.02236
3597.1,0.02137
3591.32,0.02115
3585.53,0.02173
3579.75,0.02196
3573.96,0.02203
3568.17,0.02204
3562.39,0.02161
3556.6,0.02166
3550.81,0.02143
3545.03,0.02168
3539.24,0.02108
3533.46,0.02113
3527.67,0.02104
3521.88,0.02133
3516.1,0.02061
3510.31,0.02130
3504.53,0.02083
3498.74,0.02102
3492.95,0.02101
3487.17,0.02148
3481.38,0.02148
3475.59,0.02113
3469.81,0.02115
3464.02,0.02111
3458.24,0.02097
3452.45,0.02115
3446.66,0.02114
3440.88,0.02103
3435.09,0.02068
3429.3,0.02031
3423.52,0.02042
3417.73,0.02103
3411.95,0.02135
3406.16,0.02101
3400.37,0.02098
3394.59,0.02060
3388.8,0.02031
3383.01,0.02066
3377.23,0.02110
3371.44,0.02032
3365.66,0.02007
3359.87,0.02013
3354.08,0.02017
3348.3,0.02033
3342.51,0.01992
3336.72,0.01993
3330.94,0.02063
3325.15,0.02052
3319.37,0.02009
3313.58,0.02033
3307.79,0.01971
3302.01,0.02076
3296.22,0.02054
3290.43,0.02061
3284.65,0.02034
3278.86,0.02063
3273.08,0.02010
3267.29,0.02004
3261.5,0.02079
3255.72,0.02025
3249.93,0.02114
3244.14,0.02100
3238.36,0.02089
3232.57,0.02065
3226.79,0.02146
3221,0.02093
3215.21,0.02038
3209.43,0.02089
3203.64,0.02094
3197.86,0.02001
3192.07,0.02069
3186.28,0.02071
3180.5,0.02123
3174.71,0.02102
3168.92,0.02066
3163.14,0.02080
3157.35,0.02126
3151.57,0.02036
3145.78,0.02054
3139.99,0.02036
3134.21,0.02157
3128.42,0.02104
3122.63,0.02113
3116.85,0.02054
3111.06,0.02153
3105.28,0.02162
3099.49,0.02150
3093.7,0.02056
3087.92,0.02072
3082.13,0.02066
3076.34,0.02080
3070.56,0.02138
3064.77,0.02085
3058.99,0.02098
3053.2,0.02110
3047.41,0.02102
3041.63,0.02108
3035.84,0.02109
3030.05,0.02143
3024.27,0.02049
3018.48,0.02063
3012.7,0.02089
3006.91,0.02075
3001.12,0.02060
2995.34,0.01994
2989.55,0.02002
2983.76,0.02025
2977.98,0.01991
2972.19,0.02032
2966.41,0.02021
2960.62,0.01949
2954.83,0.01972
2949.05,0.01949
2943.26,0.02009
2937.47,0.01960
2931.69,0.01973
2925.9,0.02035
2920.12,0.02001
2914.33,0.02060
2908.54,0.02041
2902.76,0.02033
2896.97,0.02069
2891.18,0.02045
2885.4,0.02081
2879.61,0.02088
2873.83,0.02082
2868.04,0.02084
2862.25,0.02055
2856.47,0.02034
2850.68,0.02106
2844.9,0.02095
2839.11,0.02115
2833.32,0.02120
2827.54,0.02122
2821.75,0.02144
2815.96,0.02141
2810.18,0.02171
2804.39,0.02178
2798.61,0.02165
2792.82,0.02100
2787.03,0.02117
2781.25,0.02144
2775.46,0.02193
2769.67,0.02158
2763.89,0.02140
2758.1,0.02154
2752.32,0.02127
2746.53,0.02157
2740.74,0.02137
2734.96,0.02122
2729.17,0.02116
2723.38,0.02136
2717.6,0.02162
2711.81,0.02165
2706.03,0.02098
2700.24,0.02138
2694.45,0.02111
2688.67,0.02146
2682.88,0.02159
2677.09,0.02140
2671.31,0.02143
2665.52,0.02149
2659.74,0.02145
2653.95,0.02156
2648.16,0.02162
2642.38,0.02159
2636.59,0.02144
2630.8,0.02126
2625.02,0.02146
2619.23,0.02152
2613.45,0.02111
2607.66,0.02139
2601.87,0.02121
2596.09,0.02122
2590.3,0.02164
2584.51,0.02111
2578.73,0.02106
2572.94,0.02121
2567.16,0.02147
2561.37,0.02164
2555.58,0.02103
2549.8,0.02125
2544.01,0.02159
2538.23,0.02112
2532.44,0.02086
2526.65,0.02118
2520.87,0.02119
2515.08,0.02095
2509.29,0.02113
2503.51,0.02160
2497.72,0.02120
2491.94,0.02123
2486.15,0.02161
2480.36,0.02132
2474.58,0.02148
2468.79,0.02153
2463,0.02133
2457.22,0.02149
2451.43,0.02142
2445.65,0.02113
2439.86,0.02146
2434.07,0.02136
2428.29,0.02166
2422.5,0.02142
2416.71,0.02127
2410.93,0.02147
2405.14,0.02150
2399.36,0.02152
2393.57,0.02134
2387.78,0.02147
2382,0.02129
2376.21,0.02128
2370.42,0.02119
2364.64,0.02110
2358.85,0.02115
2353.07,0.02124
2347.28,0.02162
2341.49,0.02138
2335.71,0.02154
2329.92,0.02139
2324.13,0.02150
2318.35,0.02137
2312.56,0.02129
2306.78,0.02123
2300.99,0.02151
2295.2,0.02127
2289.42,0.02112
2283.63,0.02150
2277.84,0.02135
2272.06,0.02118
2266.27,0.02110
2260.49,0.02124
2254.7,0.02141
2248.91,0.02082
2243.13,0.02122
2237.34,0.02110
2231.56,0.02129
2225.77,0.02108
2219.98,0.02080
2214.2,0.02128
2208.41,0.02140
2202.62,0.02152
2196.84,0.02112
2191.05,0.02140
2185.27,0.02143
2179.48,0.02104
2173.69,0.02135
2167.91,0.02151
2162.12,0.02147
2156.33,0.02129
2150.55,0.02107
2144.76,0.02102
2138.98,0.02133
2133.19,0.02095
2127.4,0.02150
2121.62,0.02107
2115.83,0.02096
2110.04,0.02087
2104.26,0.02094
2098.47,0.02117
2092.69,0.02109
2086.9,0.02114
2081.11,0.02085
2075.33,0.02081
2069.54,0.02129
2063.75,0.02118
2057.97,0.02096
2052.18,0.02106
2046.4,0.02079
2040.61,0.02105
2034.82,0.02074
2029.04,0.02121
2023.25,0.02105
2017.46,0.02082
2011.68,0.02074
2005.89,0.02086
2000.11,0.02098
1994.32,0.02105
1988.53,0.02108
1982.75,0.02110
1976.96,0.02096
1971.17,0.02106
1965.39,0.02070
1959.6,0.02127
1953.82,0.02069
1948.03,0.02113
1942.24,0.02080
1936.46,0.02077
1930.67,0.02096
1924.89,0.02087
1919.1,0.02118
1913.31,0.02066
1907.53,0.02050
1901.74,0.02085
1895.95,0.02095
1890.17,0.02062
1884.38,0.02087
1878.6,0.02035
1872.81,0.02064
1867.02,0.02055
1861.24,0.02082
1855.45,0.02069
1849.66,0.02046
1843.88,0.02014
1838.09,0.02034
1832.31,0.02035
1826.52,0.02023
1820.73,0.02053
1814.95,0.02028
1809.16,0.01998
1803.37,0.01971
1797.59,0.01983
1791.8,0.01943
1786.02,0.01926
1780.23,0.01933
1774.44,0.01880
1768.66,0.01846
1762.87,0.01796
1757.08,0.01770
1751.3,0.01750
1745.51,0.01778
1739.73,0.01865
1733.94,0.01963
1728.15,0.02038
1722.37,0.02121
1716.58,0.02112
1710.79,0.02050
1705.01,0.02018
1699.22,0.02022
1693.44,0.01924
1687.65,0.01960
1681.86,0.01884
1676.08,0.01901
1670.29,0.01848
1664.5,0.01862
1658.72,0.01872
1652.93,0.01835
1647.15,0.01833
1641.36,0.01844
1635.57,0.01866
1629.79,0.01844
1624,0.01873
1618.21,0.01919
1612.43,0.01936
1606.64,0.01901
1600.86,0.01890
1595.07,0.01886
1589.28,0.01847
1583.5,0.01814
1577.71,0.01871
1571.93,0.01827
1566.14,0.01825
1560.35,0.01813
1554.57,0.01790
1548.78,0.01817
1542.99,0.01881
1537.21,0.01857
1531.42,0.01834
1525.64,0.01903
1519.85,0.01882
1514.06,0.01871
1508.28,0.01909
1502.49,0.01892
1496.7,0.01943
1490.92,0.01877
1485.13,0.01857
1479.35,0.01846
1473.56,0.01904
1467.77,0.01847
1461.99,0.01871
1456.2,0.01871
1450.41,0.01869
1444.63,0.01862
1438.84,0.01884
1433.06,0.01871
1427.27,0.01868
1421.48,0.01841
1415.7,0.01817
1409.91,0.01847
1404.12,0.01804
1398.34,0.01862
1392.55,0.01839
1386.77,0.01796
1380.98,0.01828
1375.19,0.01838
1369.41,0.01823
1363.62,0.01809
1357.83,0.01860
1352.05,0.01818
1346.26,0.01787
1340.48,0.01803
1334.69,0.01790
1328.9,0.01785
1323.12,0.01753
1317.33,0.01725
1311.54,0.01707
1305.76,0.01724
1299.97,0.01781
1294.19,0.01791
1288.4,0.01837
1282.61,0.01905
1276.83,0.01903
1271.04,0.01929
1265.26,0.01999
1259.47,0.01994
1253.68,0.02037
1247.9,0.01993
1242.11,0.02061
1236.32,0.01991
1230.54,0.01899
1224.75,0.01936
1218.97,0.01950
1213.18,0.01907
1207.39,0.01925
1201.61,0.01835
1195.82,0.01877
1190.03,0.01828
1184.25,0.01784
1178.46,0.01783
1172.68,0.01772
1166.89,0.01788
1161.1,0.01758
1155.32,0.01747
1149.53,0.01778
1143.74,0.01759
1137.96,0.01869
1132.17,0.01834
1126.39,0.01861
1120.6,0.01845
1114.81,0.01909
1109.03,0.01885
1103.24,0.01919
1097.45,0.01876
1091.67,0.01863
1085.88,0.01850
1080.1,0.01911
1074.31,0.01916
1068.52,0.01940
1062.74,0.01994
1056.95,0.01944
1051.16,0.01940
1045.38,0.01933
1039.59,0.01991
1033.81,0.01922
1028.02,0.01926
1022.23,0.01974
1016.45,0.01895
1010.66,0.01984
1004.87,0.02124
999.089,0.02146
993.302,0.02111
987.516,0.02137
981.73,0.02007
975.944,0.01994
970.157,0.01958
964.371,0.01999
958.585,0.01989
952.799,0.01980
947.013,0.01970
941.226,0.01935
935.44,0.01934
929.654,0.01902
923.868,0.01904
918.081,0.01857
912.295,0.01876
906.509,0.01943
900.723,0.01967
894.937,0.01938
889.15,0.01910
883.364,0.01930
877.578,0.01932
871.792,0.01915
866.005,0.01937
860.219,0.01891
854.433,0.01903
848.647,0.01903
842.86,0.01886
837.074,0.01916
831.288,0.01873
825.502,0.01948
819.716,0.01897
813.929,0.01859
808.143,0.01907
802.357,0.01880
796.571,0.01942
790.784,0.01906
784.998,0.01908
779.212,0.01848
773.426,0.01894
767.64,0.01912
761.853,0.01857
756.067,0.01792
750.281,0.01728
744.495,0.01829
738.708,0.01835
732.922,0.01865
727.136,0.01838
721.35,0.01871
715.563,0.01866
709.777,0.01720
703.991,0.01809
698.205,0.01800
692.419,0.01737
686.632,0.01859
680.846,0.01717
675.06,0.01774
669.274,0.01721
663.487,0.01700
657.701,0.01806
651.915,0.01696
646.129,0.01689
640.343,0.01732
634.556,0.01630
628.77,0.01428
622.984,0.01398
617.198,0.01372
611.411,0.01522
605.625,0.01701
599.839,0.01699