File: 01_Data/Engineered_Flooring/FTIR/IS/Engineered_Flooring_IS_S_220909_R7.dpt
7497.02,0.36978
7491.24,0.37534
7485.45,0.37496
7479.66,0.37705
7473.88,0.38090
7468.09,0.38854
7462.3,0.38089
7456.52,0.36434
7450.73,0.36971
7444.95,0.37908
7439.16,0.38037
7433.37,0.37301
7427.59,0.37178
7421.8,0.36726
7416.01,0.37577
7410.23,0.37002
7404.44,0.36939
7398.66,0.36817
7392.87,0.36568
7387.08,0.36756
7381.3,0.36718
7375.51,0.37219
7369.73,0.36347
7363.94,0.36696
7358.15,0.35919
7352.37,0.36603
7346.58,0.36264
7340.79,0.36610
7335.01,0.36101
7329.22,0.36072
7323.44,0.35475
7317.65,0.35916
7311.86,0.36063
7306.08,0.36230
7300.29,0.35816
7294.5,0.36149
7288.72,0.35659
7282.93,0.36023
7277.15,0.36149
7271.36,0.35928
7265.57,0.35360
7259.79,0.35597
7254,0.35583
7248.21,0.35962
7242.43,0.36830
7236.64,0.36361
7230.86,0.35341
7225.07,0.36200
7219.28,0.35701
7213.5,0.35763
7207.71,0.35720
7201.92,0.36217
7196.14,0.35361
7190.35,0.36076
7184.57,0.35407
7178.78,0.34614
7172.99,0.35502
7167.21,0.35226
7161.42,0.34713
7155.63,0.35320
7149.85,0.34572
7144.06,0.34518
7138.28,0.34974
7132.49,0.34775
7126.7,0.34610
7120.92,0.34514
7115.13,0.34052
7109.34,0.34193
7103.56,0.33830
7097.77,0.34029
7091.99,0.33222
7086.2,0.33424
7080.41,0.33022
7074.63,0.33141
7068.84,0.32663
7063.06,0.32581
7057.27,0.32546
7051.48,0.32241
7045.7,0.32112
7039.91,0.32148
7034.12,0.31793
7028.34,0.31810
7022.55,0.31981
7016.77,0.31435
7010.98,0.31299
7005.19,0.31167
6999.41,0.30992
6993.62,0.30803
6987.83,0.30727
6982.05,0.31153
6976.26,0.31139
6970.48,0.30894
6964.69,0.30536
6958.9,0.30543
6953.12,0.30247
6947.33,0.30486
6941.54,0.30687
6935.76,0.30637
6929.97,0.30716
6924.19,0.30226
6918.4,0.30381
6912.61,0.30831
6906.83,0.30260
6901.04,0.30497
6895.25,0.29832
6889.47,0.30647
6883.68,0.30355
6877.9,0.30637
6872.11,0.29808
6866.32,0.30348
6860.54,0.30639
6854.75,0.30764
6848.96,0.30478
6843.18,0.30590
6837.39,0.30809
6831.61,0.30782
6825.82,0.30511
6820.03,0.30416
6814.25,0.30825
6808.46,0.31114
6802.67,0.30178
6796.89,0.30664
6791.1,0.30302
6785.32,0.30386
6779.53,0.30397
6773.74,0.30896
6767.96,0.30701
6762.17,0.30352
6756.38,0.30807
6750.6,0.30300
6744.81,0.30413
6739.03,0.30837
6733.24,0.30649
6727.45,0.30748
6721.67,0.30902
6715.88,0.31163
6710.1,0.31027
6704.31,0.30963
6698.52,0.30913
6692.74,0.31510
6686.95,0.31369
6681.16,0.30943
6675.38,0.30991
6669.59,0.31189
6663.81,0.31344
6658.02,0.31466
6652.23,0.31257
6646.45,0.31442
6640.66,0.31247
6634.87,0.31706
6629.09,0.31374
6623.3,0.31542
6617.52,0.31953
6611.73,0.31734
6605.94,0.31933
6600.16,0.32112
6594.37,0.32397
6588.58,0.32504
6582.8,0.32031
6577.01,0.32086
6571.23,0.31958
6565.44,0.32382
6559.65,0.32444
6553.87,0.32635
6548.08,0.32521
6542.29,0.32904
6536.51,0.32378
6530.72,0.32567
6524.94,0.32698
6519.15,0.32518
6513.36,0.32390
6507.58,0.32729
6501.79,0.33106
6496,0.32626
6490.22,0.32714
6484.43,0.32622
6478.65,0.32880
6472.86,0.33125
6467.07,0.32808
6461.29,0.33063
6455.5,0.33026
6449.71,0.33343
6443.93,0.33195
6438.14,0.33231
6432.36,0.33300
6426.57,0.33170
6420.78,0.33172
6415,0.33293
6409.21,0.33114
6403.43,0.33273
6397.64,0.33517
6391.85,0.33390
6386.07,0.33319
6380.28,0.33418
6374.49,0.33654
6368.71,0.33401
6362.92,0.33823
6357.14,0.33435
6351.35,0.33337
6345.56,0.33775
6339.78,0.33592
6333.99,0.33575
6328.2,0.33676
6322.42,0.33783
6316.63,0.33973
6310.85,0.34014
6305.06,0.33882
6299.27,0.33905
6293.49,0.33805
6287.7,0.33990
6281.91,0.33889
6276.13,0.34043
6270.34,0.34090
6264.56,0.34097
6258.77,0.34372
6252.98,0.34461
6247.2,0.34243
6241.41,0.34288
6235.62,0.34546
6229.84,0.34719
6224.05,0.34784
6218.27,0.34949
6212.48,0.34979
6206.69,0.34724
6200.91,0.34797
6195.12,0.34890
6189.33,0.34745
6183.55,0.34941
6177.76,0.35000
6171.98,0.35008
6166.19,0.35112
6160.4,0.35050
6154.62,0.35334
6148.83,0.35184
6143.04,0.35110
6137.26,0.35375
6131.47,0.35155
6125.69,0.35399
6119.9,0.35315
6114.11,0.35441
6108.33,0.35660
6102.54,0.35563
6096.76,0.35532
6090.97,0.35518
6085.18,0.35520
6079.4,0.35453
6073.61,0.35158
6067.82,0.35072
6062.04,0.35450
6056.25,0.35134
6050.47,0.35146
6044.68,0.35045
6038.89,0.34961
6033.11,0.34726
6027.32,0.34410
6021.53,0.34291
6015.75,0.34170
6009.96,0.34131
6004.18,0.33840
5998.39,0.33755
5992.6,0.33596
5986.82,0.33333
5981.03,0.33126
5975.24,0.32960
5969.46,0.33202
5963.67,0.32982
5957.89,0.32891
5952.1,0.32907
5946.31,0.32723
5940.53,0.32555
5934.74,0.32448
5928.95,0.32421
5923.17,0.32438
5917.38,0.32353
5911.6,0.32455
5905.81,0.31990
5900.02,0.32362
5894.24,0.32107
5888.45,0.32047
5882.66,0.31983
5876.88,0.32254
5871.09,0.32273
5865.31,0.32249
5859.52,0.32229
5853.73,0.32135
5847.95,0.32052
5842.16,0.32233
5836.37,0.32190
5830.59,0.31993
5824.8,0.31851
5819.02,0.31545
5813.23,0.31499
5807.44,0.31569
5801.66,0.31462
5795.87,0.31453
5790.08,0.31661
5784.3,0.31508
5778.51,0.31659
5772.73,0.31789
5766.94,0.31835
5761.15,0.31953
5755.37,0.32145
5749.58,0.32315
5743.8,0.32535
5738.01,0.32559
5732.22,0.32584
5726.44,0.32532
5720.65,0.32734
5714.86,0.32950
5709.08,0.33128
5703.29,0.32770
5697.51,0.33045
5691.72,0.33029
5685.93,0.32992
5680.15,0.33065
5674.36,0.33097
5668.57,0.33340
5662.79,0.33425
5657,0.33370
5651.22,0.33217
5645.43,0.33588
5639.64,0.33430
5633.86,0.33389
5628.07,0.33561
5622.28,0.33566
5616.5,0.33711
5610.71,0.33499
5604.93,0.33758
5599.14,0.33676
5593.35,0.33694
5587.57,0.33853
5581.78,0.33790
5575.99,0.33688
5570.21,0.33952
5564.42,0.33924
5558.64,0.34082
5552.85,0.34165
5547.06,0.34065
5541.28,0.34169
5535.49,0.34207
5529.7,0.34392
5523.92,0.34332
5518.13,0.34293
5512.35,0.34370
5506.56,0.34416
5500.77,0.34502
5494.99,0.34638
5489.2,0.34691
5483.41,0.34617
5477.63,0.34642
5471.84,0.34737
5466.06,0.35008
5460.27,0.34825
5454.48,0.34856
5448.7,0.34918
5442.91,0.35024
5437.13,0.35203
5431.34,0.35196
5425.55,0.35257
5419.77,0.35389
5413.98,0.35585
5408.19,0.35453
5402.41,0.35655
5396.62,0.35590
5390.84,0.35586
5385.05,0.35672
5379.26,0.35774
5373.48,0.35669
5367.69,0.35519
5361.9,0.35599
5356.12,0.35450
5350.33,0.35449
5344.55,0.35404
5338.76,0.35278
5332.97,0.35020
5327.19,0.34914
5321.4,0.34540
5315.61,0.34514
5309.83,0.34156
5304.04,0.33723
5298.26,0.33187
5292.47,0.32946
5286.68,0.32251
5280.9,0.31477
5275.11,0.30965
5269.32,0.30306
5263.54,0.29435
5257.75,0.28674
5251.97,0.28060
5246.18,0.27445
5240.39,0.27012
5234.61,0.26697
5228.82,0.26350
5223.03,0.26067
5217.25,0.25973
5211.46,0.25809
5205.68,0.25641
5199.89,0.25522
5194.1,0.25590
5188.32,0.25660
5182.53,0.25726
5176.74,0.25885
5170.96,0.26032
5165.17,0.26144
5159.39,0.26387
5153.6,0.26478
5147.81,0.26658
5142.03,0.26762
5136.24,0.26983
5130.46,0.27281
5124.67,0.27623
5118.88,0.27712
5113.1,0.27899
5107.31,0.28038
5101.52,0.28196
5095.74,0.28608
5089.95,0.28670
5084.17,0.28824
5078.38,0.28935
5072.59,0.29104
5066.81,0.29407
5061.02,0.29532
5055.23,0.29739
5049.45,0.29779
5043.66,0.30062
5037.88,0.30218
5032.09,0.30359
5026.3,0.30456
5020.52,0.30571
5014.73,0.30688
5008.94,0.30758
5003.16,0.30830
4997.37,0.30846
4991.59,0.30793
4985.8,0.30806
4980.01,0.30714
4974.23,0.30715
4968.44,0.30539
4962.65,0.30452
4956.87,0.30310
4951.08,0.30075
4945.3,0.29806
4939.51,0.29592
4933.72,0.29461
4927.94,0.29086
4922.15,0.28928
4916.36,0.28620
4910.58,0.28442
4904.79,0.28250
4899.01,0.28025
4893.22,0.27844
4887.43,0.27731
4881.65,0.27587
4875.86,0.27465
4870.07,0.27304
4864.29,0.27035
4858.5,0.27015
4852.72,0.26832
4846.93,0.26722
4841.14,0.26654
4835.36,0.26462
4829.57,0.26215
4823.78,0.26188
4818,0.26022
4812.21,0.25888
4806.43,0.25764
4800.64,0.25764
4794.85,0.25780
4789.07,0.25661
4783.28,0.25531
4777.5,0.25436
4771.71,0.25532
4765.92,0.25364
4760.14,0.25281
4754.35,0.25165
4748.56,0.25040
4742.78,0.24969
4736.99,0.24794
4731.21,0.24770
4725.42,0.24689
4719.63,0.24699
4713.85,0.24643
4708.06,0.24580
4702.27,0.24632
4696.49,0.24440
4690.7,0.24314
4684.92,0.24248
4679.13,0.24250
4673.34,0.24303
4667.56,0.24420
4661.77,0.24563
4655.98,0.24743
4650.2,0.25006
4644.41,0.25199
4638.63,0.25306
4632.84,0.25322
4627.05,0.25379
4621.27,0.25418
4615.48,0.25648
4609.69,0.25965
4603.91,0.26087
4598.12,0.26416
4592.34,0.26512
4586.55,0.26655
4580.76,0.26720
4574.98,0.26769
4569.19,0.26837
4563.4,0.26996
4557.62,0.27007
4551.83,0.27084
4546.05,0.27270
4540.26,0.27216
4534.47,0.27280
4528.69,0.27249
4522.9,0.27198
4517.11,0.27088
4511.33,0.26933
4505.54,0.26693
4499.76,0.26381
4493.97,0.26126
4488.18,0.25746
4482.4,0.25324
4476.61,0.24840
4470.83,0.24199
4465.04,0.23458
4459.25,0.22526
4453.47,0.21643
4447.68,0.20670
4441.89,0.19910
4436.11,0.19048
4430.32,0.18305
4424.54,0.17889
4418.75,0.17588
4412.96,0.17372
4407.18,0.17353
4401.39,0.17373
4395.6,0.17255
4389.82,0.17433
4384.03,0.17308
4378.25,0.17237
4372.46,0.17083
4366.67,0.16923
4360.89,0.16774
4355.1,0.16758
4349.31,0.16739
4343.53,0.16686
4337.74,0.16761
4331.96,0.16797
4326.17,0.16749
4320.38,0.16830
4314.6,0.17085
4308.81,0.17145
4303.02,0.17251
4297.24,0.17340
4291.45,0.17262
4285.67,0.17225
4279.88,0.17249
4274.09,0.17300
4268.31,0.17401
4262.52,0.17466
4256.73,0.17576
4250.95,0.17671
4245.16,0.17704
4239.38,0.17861
4233.59,0.17965
4227.8,0.18109
4222.02,0.18272
4216.23,0.18267
4210.44,0.18352
4204.66,0.18466
4198.87,0.18510
4193.09,0.18451
4187.3,0.18463
4181.51,0.18414
4175.73,0.18455
4169.94,0.18421
4164.16,0.18396
4158.37,0.18417
4152.58,0.18398
4146.8,0.18298
4141.01,0.18212
4135.22,0.18073
4129.44,0.17974
4123.65,0.17936
4117.87,0.17739
4112.08,0.17628
4106.29,0.17411
4100.51,0.17283
4094.72,0.16963
4088.93,0.16714
4083.15,0.16463
4077.36,0.16134
4071.58,0.15793
4065.79,0.15546
4060,0.15295
4054.22,0.15283
4048.43,0.15138
4042.64,0.15051
4036.86,0.14985
4031.07,0.14966
4025.29,0.14938
4019.5,0.14842
4013.71,0.14919
4007.93,0.14903
4002.14,0.14906
3996.35,0.15058
3990.57,0.15183
3984.78,0.15306
3979,0.15475
3973.21,0.15637
3967.42,0.15821
3961.64,0.16053
3955.85,0.16230
3950.06,0.16435
3944.28,0.16600
3938.49,0.16792
3932.71,0.16998
3926.92,0.17153
3921.13,0.17322
3915.35,0.17512
3909.56,0.17706
3903.77,0.17921
3897.99,0.18034
3892.2,0.18110
3886.42,0.18280
3880.63,0.18394
3874.84,0.18499
3869.06,0.18625
3863.27,0.18877
3857.48,0.19106
3851.7,0.19268
3845.91,0.19447
3840.13,0.19593
3834.34,0.19621
3828.55,0.19728
3822.77,0.19846
3816.98,0.19826
3811.2,0.19719
3805.41,0.19738
3799.62,0.19789
3793.84,0.19664
3788.05,0.19715
3782.26,0.19622
3776.48,0.19602
3770.69,0.19599
3764.91,0.19419
3759.12,0.19305
3753.33,0.19214
3747.55,0.19060
3741.76,0.18853
3735.97,0.18680
3730.19,0.18378
3724.4,0.17964
3718.62,0.17566
3712.83,0.17109
3707.04,0.16479
3701.26,0.15741
3695.47,0.14869
3689.68,0.13833
3683.9,0.12442
3678.11,0.10438
3672.33,0.09826
3666.54,0.09175
3660.75,0.08313
3654.97,0.07607
3649.18,0.07133
3643.39,0.06741
3637.61,0.06377
3631.82,0.06101
3626.04,0.05888
3620.25,0.05689
3614.46,0.05528
3608.68,0.05404
3602.89,0.05337
3597.1,0.05194
3591.32,0.05116
3585.53,0.05081
3579.75,0.04983
3573.96,0.04941
3568.17,0.04966
3562.39,0.04913
3556.6,0.04872
3550.81,0.04710
3545.03,0.04802
3539.24,0.04716
3533.46,0.04742
3527.67,0.04741
3521.88,0.04743
3516.1,0.04754
3510.31,0.04714
3504.53,0.04704
3498.74,0.04716
3492.95,0.04759
3487.17,0.04705
3481.38,0.04695
3475.59,0.04640
3469.81,0.04691
3464.02,0.04684
3458.24,0.04737
3452.45,0.04700
3446.66,0.04661
3440.88,0.04691
3435.09,0.04686
3429.3,0.04658
3423.52,0.04744
3417.73,0.04720
3411.95,0.04726
3406.16,0.04748
3400.37,0.04688
3394.59,0.04721
3388.8,0.04777
3383.01,0.04682
3377.23,0.04698
3371.44,0.04758
3365.66,0.04724
3359.87,0.04785
3354.08,0.04802
3348.3,0.04754
3342.51,0.04733
3336.72,0.04730
3330.94,0.04733
3325.15,0.04775
3319.37,0.04851
3313.58,0.04781
3307.79,0.04782
3302.01,0.04776
3296.22,0.04829
3290.43,0.04730
3284.65,0.04859
3278.86,0.04788
3273.08,0.04884
3267.29,0.04833
3261.5,0.04823
3255.72,0.04908
3249.93,0.04892
3244.14,0.04882
3238.36,0.04914
3232.57,0.04850
3226.79,0.04910
3221,0.04946
3215.21,0.04991
3209.43,0.05020
3203.64,0.04994
3197.86,0.05026
3192.07,0.05001
3186.28,0.04991
3180.5,0.05080
3174.71,0.05165
3168.92,0.05172
3163.14,0.05157
3157.35,0.05144
3151.57,0.05177
3145.78,0.05224
3139.99,0.05194
3134.21,0.05248
3128.42,0.05305
3122.63,0.05282
3116.85,0.05320
3111.06,0.05277
3105.28,0.05320
3099.49,0.05331
3093.7,0.05319
3087.92,0.05298
3082.13,0.05313
3076.34,0.05326
3070.56,0.05287
3064.77,0.05260
3058.99,0.05339
3053.2,0.05316
3047.41,0.05280
3041.63,0.05286
3035.84,0.05300
3030.05,0.05273
3024.27,0.05229
3018.48,0.05221
3012.7,0.05031
3006.91,0.04917
3001.12,0.04781
2995.34,0.04721
2989.55,0.04644
2983.76,0.04575
2977.98,0.04588
2972.19,0.04598
2966.41,0.04719
2960.62,0.04753
2954.83,0.04732
2949.05,0.04724
2943.26,0.04745
2937.47,0.04811
2931.69,0.04849
2925.9,0.04922
2920.12,0.04985
2914.33,0.04995
2908.54,0.04966
2902.76,0.04941
2896.97,0.04947
2891.18,0.04902
2885.4,0.04949
2879.61,0.04910
2873.83,0.04971
2868.04,0.04975
2862.25,0.05018
2856.47,0.05059
2850.68,0.05185
2844.9,0.05182
2839.11,0.05223
2833.32,0.05351
2827.54,0.05429
2821.75,0.05500
2815.96,0.05621
2810.18,0.05699
2804.39,0.05771
2798.61,0.05862
2792.82,0.05893
2787.03,0.06049
2781.25,0.06096
2775.46,0.06137
2769.67,0.06200
2763.89,0.06224
2758.1,0.06289
2752.32,0.06330
2746.53,0.06411
2740.74,0.06408
2734.96,0.06462
2729.17,0.06521
2723.38,0.06635
2717.6,0.06754
2711.81,0.06837
2706.03,0.06898
2700.24,0.06973
2694.45,0.07108
2688.67,0.07238
2682.88,0.07313
2677.09,0.07374
2671.31,0.07420
2665.52,0.07482
2659.74,0.07528
2653.95,0.07628
2648.16,0.07697
2642.38,0.07766
2636.59,0.07861
2630.8,0.07925
2625.02,0.08026
2619.23,0.08079
2613.45,0.08100
2607.66,0.08134
2601.87,0.08142
2596.09,0.08229
2590.3,0.08287
2584.51,0.08350
2578.73,0.08402
2572.94,0.08430
2567.16,0.08497
2561.37,0.08555
2555.58,0.08563
2549.8,0.08608
2544.01,0.08651
2538.23,0.08758
2532.44,0.08802
2526.65,0.08844
2520.87,0.08976
2515.08,0.09045
2509.29,0.09139
2503.51,0.09217
2497.72,0.09320
2491.94,0.09401
2486.15,0.09511
2480.36,0.09612
2474.58,0.09704
2468.79,0.09796
2463,0.09847
2457.22,0.09946
2451.43,0.09999
2445.65,0.10101
2439.86,0.10167
2434.07,0.10202
2428.29,0.10255
2422.5,0.10357
2416.71,0.10483
2410.93,0.10570
2405.14,0.10666
2399.36,0.10745
2393.57,0.10788
2387.78,0.10846
2382,0.10893
2376.21,0.10988
2370.42,0.11028
2364.64,0.11103
2358.85,0.11125
2353.07,0.11157
2347.28,0.11278
2341.49,0.11355
2335.71,0.11360
2329.92,0.11379
2324.13,0.11436
2318.35,0.11483
2312.56,0.11550
2306.78,0.11578
2300.99,0.11598
2295.2,0.11670
2289.42,0.11716
2283.63,0.11777
2277.84,0.11806
2272.06,0.11817
2266.27,0.11842
2260.49,0.11812
2254.7,0.11765
2248.91,0.11750
2243.13,0.11723
2237.34,0.11725
2231.56,0.11723
2225.77,0.11722
2219.98,0.11735
2214.2,0.11788
2208.41,0.11754
2202.62,0.11738
2196.84,0.11635
2191.05,0.11508
2185.27,0.11365
2179.48,0.11180
2173.69,0.11103
2167.91,0.10897
2162.12,0.10725
2156.33,0.10616
2150.55,0.10514
2144.76,0.10436
2138.98,0.10311
2133.19,0.10231
2127.4,0.10167
2121.62,0.10120
2115.83,0.10089
2110.04,0.10052
2104.26,0.10003
2098.47,0.09973
2092.69,0.09943
2086.9,0.09983
2081.11,0.09958
2075.33,0.09976
2069.54,0.09914
2063.75,0.09923
2057.97,0.09972
2052.18,0.09996
2046.4,0.10010
2040.61,0.10032
2034.82,0.10046
2029.04,0.10049
2023.25,0.10071
2017.46,0.10140
2011.68,0.10229
2005.89,0.10304
2000.11,0.10309
1994.32,0.10380
1988.53,0.10428
1982.75,0.10418
1976.96,0.10433
1971.17,0.10439
1965.39,0.10406
1959.6,0.10373
1953.82,0.10342
1948.03,0.10373
1942.24,0.10487
1936.46,0.10588
1930.67,0.10704
1924.89,0.10745
1919.1,0.10764
1913.31,0.10819
1907.53,0.10819
1901.74,0.10763
1895.95,0.10739
1890.17,0.10664
1884.38,0.10592
1878.6,0.10544
1872.81,0.10447
1867.02,0.10294
1861.24,0.10078
1855.45,0.09867
1849.66,0.09586
1843.88,0.09266
1838.09,0.08951
1832.31,0.08591
1826.52,0.08186
1820.73,0.07775
1814.95,0.07339
1809.16,0.06849
1803.37,0.06444
1797.59,0.05946
1791.8,0.05449
1786.02,0.04992
1780.23,0.04489
1774.44,0.04059
1768.66,0.03621
1762.87,0.03311
1757.08,0.02945
1751.3,0.02879
1745.51,0.03224
1739.73,0.04086
1733.94,0.05121
1728.15,0.06026
1722.37,0.06481
1716.58,0.06555
1710.79,0.06348
1705.01,0.06161
1699.22,0.05927
1693.44,0.05718
1687.65,0.05636
1681.86,0.05531
1676.08,0.05423
1670.29,0.05322
1664.5,0.05270
1658.72,0.05258
1652.93,0.05230
1647.15,0.05155
1641.36,0.05109
1635.57,0.05113
1629.79,0.05114
1624,0.05079
1618.21,0.05042
1612.43,0.05035
1606.64,0.05014
1600.86,0.05006
1595.07,0.05094
1589.28,0.05096
1583.5,0.05043
1577.71,0.05058
1571.93,0.05208
1566.14,0.05182
1560.35,0.05085
1554.57,0.04978
1548.78,0.04857
1542.99,0.04819
1537.21,0.04754
1531.42,0.04780
1525.64,0.04733
1519.85,0.04650
1514.06,0.04559
1508.28,0.04588
1502.49,0.04637
1496.7,0.04637
1490.92,0.04589
1485.13,0.04422
1479.35,0.04257
1473.56,0.04202
1467.77,0.04225
1461.99,0.04251
1456.2,0.04269
1450.41,0.04361
1444.63,0.04467
1438.84,0.04498
1433.06,0.04493
1427.27,0.04428
1421.48,0.04302
1415.7,0.04231
1409.91,0.04272
1404.12,0.04369
1398.34,0.04307
1392.55,0.04269
1386.77,0.04238
1380.98,0.04291
1375.19,0.04337
1369.41,0.04361
1363.62,0.04309
1357.83,0.04271
1352.05,0.04226
1346.26,0.04189
1340.48,0.04151
1334.69,0.04101
1328.9,0.04048
1323.12,0.04002
1317.33,0.03906
1311.54,0.03876
1305.76,0.03844
1299.97,0.03838
1294.19,0.03894
1288.4,0.03850
1282.61,0.03849
1276.83,0.03844
1271.04,0.03953
1265.26,0.04017
1259.47,0.04097
1253.68,0.04201
1247.9,0.04279
1242.11,0.04299
1236.32,0.04347
1230.54,0.04364
1224.75,0.04367
1218.97,0.04409
1213.18,0.04398
1207.39,0.04458
1201.61,0.04525
1195.82,0.04619
1190.03,0.04663
1184.25,0.04715
1178.46,0.04820
1172.68,0.04929
1166.89,0.05061
1161.1,0.05339
1155.32,0.05497
1149.53,0.05676
1143.74,0.05711
1137.96,0.05736
1132.17,0.05615
1126.39,0.05526
1120.6,0.05541
1114.81,0.05715
1109.03,0.05803
1103.24,0.05898
1097.45,0.05970
1091.67,0.05974
1085.88,0.05955
1080.1,0.05930
1074.31,0.06056
1068.52,0.06170
1062.74,0.06328
1056.95,0.06554
1051.16,0.06606
1045.38,0.06685
1039.59,0.06711
1033.81,0.06730
1028.02,0.06794
1022.23,0.06940
1016.45,0.06936
1010.66,0.06910
1004.87,0.06842
999.089,0.06846
993.302,0.06819
987.516,0.06850
981.73,0.06896
975.944,0.06911
970.157,0.06917
964.371,0.06861
958.585,0.06859
952.799,0.06833
947.013,0.06819
941.226,0.06704
935.44,0.06641
929.654,0.06579
923.868,0.06572
918.081,0.06522
912.295,0.06514
906.509,0.06534
900.723,0.06496
894.937,0.06548
889.15,0.06529
883.364,0.06633
877.578,0.06633
871.792,0.06534
866.005,0.06438
860.219,0.06371
854.433,0.06312
848.647,0.06227
842.86,0.06171
837.074,0.06051
831.288,0.06077
825.502,0.06112
819.716,0.06162
813.929,0.06084
808.143,0.06320
802.357,0.06385
796.571,0.06349
790.784,0.06318
784.998,0.06207
779.212,0.06094
773.426,0.05995
767.64,0.06011
761.853,0.06033
756.067,0.06061
750.281,0.06005
744.495,0.05960
738.708,0.06084
732.922,0.06236
727.136,0.06311
721.35,0.06211
715.563,0.06171
709.777,0.06114
703.991,0.06160
698.205,0.06333
692.419,0.06626
686.632,0.06923
680.846,0.07044
675.06,0.07004
669.274,0.06742
663.487,0.06244
657.701,0.06078
651.915,0.05835
646.129,0.05848
640.343,0.05896
634.556,0.05799
628.77,0.05659
622.984,0.05761
617.198,0.05639
611.411,0.05864
605.625,0.05606
599.839,0.05789