File: 01_Data/Engineered_Flooring/FTIR/IS/Engineered_Flooring_IS_S_220909_R8.dpt
7497.02,0.37885
7491.24,0.37562
7485.45,0.37207
7479.66,0.37159
7473.88,0.36800
7468.09,0.37607
7462.3,0.37067
7456.52,0.37454
7450.73,0.37893
7444.95,0.37039
7439.16,0.36977
7433.37,0.36282
7427.59,0.37104
7421.8,0.37089
7416.01,0.37152
7410.23,0.36383
7404.44,0.36753
7398.66,0.36580
7392.87,0.36713
7387.08,0.36391
7381.3,0.37139
7375.51,0.36254
7369.73,0.36786
7363.94,0.36498
7358.15,0.36025
7352.37,0.36107
7346.58,0.35754
7340.79,0.37107
7335.01,0.36751
7329.22,0.37267
7323.44,0.36335
7317.65,0.36097
7311.86,0.36114
7306.08,0.36711
7300.29,0.35253
7294.5,0.35817
7288.72,0.36195
7282.93,0.35865
7277.15,0.36147
7271.36,0.36499
7265.57,0.35934
7259.79,0.36283
7254,0.35862
7248.21,0.35696
7242.43,0.35751
7236.64,0.36249
7230.86,0.35960
7225.07,0.36187
7219.28,0.36061
7213.5,0.36255
7207.71,0.35633
7201.92,0.35925
7196.14,0.35504
7190.35,0.35901
7184.57,0.35193
7178.78,0.35473
7172.99,0.35378
7167.21,0.36023
7161.42,0.35635
7155.63,0.35017
7149.85,0.34785
7144.06,0.34678
7138.28,0.35090
7132.49,0.35149
7126.7,0.34095
7120.92,0.34411
7115.13,0.34058
7109.34,0.34091
7103.56,0.33318
7097.77,0.33401
7091.99,0.33336
7086.2,0.34058
7080.41,0.33530
7074.63,0.32638
7068.84,0.32938
7063.06,0.32850
7057.27,0.32502
7051.48,0.31738
7045.7,0.32696
7039.91,0.32503
7034.12,0.31697
7028.34,0.31888
7022.55,0.31208
7016.77,0.30923
7010.98,0.31377
7005.19,0.30858
6999.41,0.31294
6993.62,0.31230
6987.83,0.31408
6982.05,0.30668
6976.26,0.30549
6970.48,0.31131
6964.69,0.30802
6958.9,0.30651
6953.12,0.30982
6947.33,0.30969
6941.54,0.30619
6935.76,0.30149
6929.97,0.30313
6924.19,0.30062
6918.4,0.30067
6912.61,0.30504
6906.83,0.30467
6901.04,0.30567
6895.25,0.30586
6889.47,0.30504
6883.68,0.30322
6877.9,0.29852
6872.11,0.30583
6866.32,0.30398
6860.54,0.30070
6854.75,0.30257
6848.96,0.30107
6843.18,0.30102
6837.39,0.30139
6831.61,0.30204
6825.82,0.30363
6820.03,0.30419
6814.25,0.30109
6808.46,0.30669
6802.67,0.30318
6796.89,0.30295
6791.1,0.30132
6785.32,0.30519
6779.53,0.30612
6773.74,0.30007
6767.96,0.30427
6762.17,0.30572
6756.38,0.30841
6750.6,0.31316
6744.81,0.30451
6739.03,0.30725
6733.24,0.30609
6727.45,0.30596
6721.67,0.30946
6715.88,0.30796
6710.1,0.30769
6704.31,0.30892
6698.52,0.30952
6692.74,0.31104
6686.95,0.31066
6681.16,0.30935
6675.38,0.31228
6669.59,0.31311
6663.81,0.31061
6658.02,0.31103
6652.23,0.31571
6646.45,0.31360
6640.66,0.31637
6634.87,0.31821
6629.09,0.31924
6623.3,0.31480
6617.52,0.31591
6611.73,0.31726
6605.94,0.31955
6600.16,0.31825
6594.37,0.31981
6588.58,0.32002
6582.8,0.32071
6577.01,0.32238
6571.23,0.32577
6565.44,0.32377
6559.65,0.32371
6553.87,0.32320
6548.08,0.32428
6542.29,0.32443
6536.51,0.32405
6530.72,0.32562
6524.94,0.32605
6519.15,0.32558
6513.36,0.32605
6507.58,0.32917
6501.79,0.32790
6496,0.32553
6490.22,0.32617
6484.43,0.32611
6478.65,0.33039
6472.86,0.33120
6467.07,0.32773
6461.29,0.32837
6455.5,0.33059
6449.71,0.33274
6443.93,0.33040
6438.14,0.33251
6432.36,0.33090
6426.57,0.32816
6420.78,0.33213
6415,0.33288
6409.21,0.33508
6403.43,0.33867
6397.64,0.33425
6391.85,0.33349
6386.07,0.33450
6380.28,0.33590
6374.49,0.33492
6368.71,0.33805
6362.92,0.33715
6357.14,0.33321
6351.35,0.33623
6345.56,0.33621
6339.78,0.33786
6333.99,0.33879
6328.2,0.34059
6322.42,0.33417
6316.63,0.33451
6310.85,0.33599
6305.06,0.33686
6299.27,0.33824
6293.49,0.34393
6287.7,0.34139
6281.91,0.34076
6276.13,0.33978
6270.34,0.34344
6264.56,0.34193
6258.77,0.34232
6252.98,0.34351
6247.2,0.34245
6241.41,0.34399
6235.62,0.34899
6229.84,0.34642
6224.05,0.34433
6218.27,0.34218
6212.48,0.34797
6206.69,0.34755
6200.91,0.35076
6195.12,0.35003
6189.33,0.34840
6183.55,0.34699
6177.76,0.35026
6171.98,0.34927
6166.19,0.34787
6160.4,0.34794
6154.62,0.34914
6148.83,0.35328
6143.04,0.35458
6137.26,0.35124
6131.47,0.35277
6125.69,0.35304
6119.9,0.35386
6114.11,0.35802
6108.33,0.35412
6102.54,0.35528
6096.76,0.35439
6090.97,0.35593
6085.18,0.35392
6079.4,0.35219
6073.61,0.35192
6067.82,0.35394
6062.04,0.35201
6056.25,0.35039
6050.47,0.34935
6044.68,0.35080
6038.89,0.34843
6033.11,0.34346
6027.32,0.34299
6021.53,0.34422
6015.75,0.34088
6009.96,0.34096
6004.18,0.33709
5998.39,0.33432
5992.6,0.33492
5986.82,0.33321
5981.03,0.33150
5975.24,0.33079
5969.46,0.32954
5963.67,0.33043
5957.89,0.32814
5952.1,0.32698
5946.31,0.32638
5940.53,0.32632
5934.74,0.32400
5928.95,0.32664
5923.17,0.32412
5917.38,0.32320
5911.6,0.32345
5905.81,0.32168
5900.02,0.32395
5894.24,0.32026
5888.45,0.32283
5882.66,0.32015
5876.88,0.32279
5871.09,0.32336
5865.31,0.32099
5859.52,0.31781
5853.73,0.32120
5847.95,0.32106
5842.16,0.31974
5836.37,0.31714
5830.59,0.31681
5824.8,0.31562
5819.02,0.31507
5813.23,0.31639
5807.44,0.31291
5801.66,0.31847
5795.87,0.31517
5790.08,0.31454
5784.3,0.31562
5778.51,0.31524
5772.73,0.31523
5766.94,0.31684
5761.15,0.32012
5755.37,0.32138
5749.58,0.32337
5743.8,0.32349
5738.01,0.32244
5732.22,0.32447
5726.44,0.32514
5720.65,0.32717
5714.86,0.32607
5709.08,0.32871
5703.29,0.32880
5697.51,0.32890
5691.72,0.32970
5685.93,0.33082
5680.15,0.33111
5674.36,0.33146
5668.57,0.33401
5662.79,0.33280
5657,0.33161
5651.22,0.33280
5645.43,0.33355
5639.64,0.33426
5633.86,0.33544
5628.07,0.33350
5622.28,0.33570
5616.5,0.33490
5610.71,0.33606
5604.93,0.33699
5599.14,0.33519
5593.35,0.33608
5587.57,0.33940
5581.78,0.33750
5575.99,0.33787
5570.21,0.33914
5564.42,0.34058
5558.64,0.33851
5552.85,0.33978
5547.06,0.34095
5541.28,0.34077
5535.49,0.34027
5529.7,0.34219
5523.92,0.34281
5518.13,0.34205
5512.35,0.34390
5506.56,0.34374
5500.77,0.34457
5494.99,0.34467
5489.2,0.34535
5483.41,0.34630
5477.63,0.34829
5471.84,0.34711
5466.06,0.34539
5460.27,0.34792
5454.48,0.34879
5448.7,0.34955
5442.91,0.35005
5437.13,0.34906
5431.34,0.35329
5425.55,0.35157
5419.77,0.35380
5413.98,0.35430
5408.19,0.35426
5402.41,0.35682
5396.62,0.35456
5390.84,0.35585
5385.05,0.35483
5379.26,0.35649
5373.48,0.35632
5367.69,0.35569
5361.9,0.35358
5356.12,0.35526
5350.33,0.35306
5344.55,0.35432
5338.76,0.35254
5332.97,0.35029
5327.19,0.34823
5321.4,0.34647
5315.61,0.34414
5309.83,0.34090
5304.04,0.33714
5298.26,0.33363
5292.47,0.32889
5286.68,0.32307
5280.9,0.31581
5275.11,0.30929
5269.32,0.30220
5263.54,0.29470
5257.75,0.28760
5251.97,0.28078
5246.18,0.27518
5240.39,0.26861
5234.61,0.26598
5228.82,0.26168
5223.03,0.25965
5217.25,0.25812
5211.46,0.25759
5205.68,0.25685
5199.89,0.25695
5194.1,0.25687
5188.32,0.25696
5182.53,0.25667
5176.74,0.25830
5170.96,0.26013
5165.17,0.26222
5159.39,0.26363
5153.6,0.26468
5147.81,0.26689
5142.03,0.26888
5136.24,0.26881
5130.46,0.27290
5124.67,0.27513
5118.88,0.27701
5113.1,0.27878
5107.31,0.28048
5101.52,0.28340
5095.74,0.28458
5089.95,0.28538
5084.17,0.28845
5078.38,0.28989
5072.59,0.29322
5066.81,0.29354
5061.02,0.29461
5055.23,0.29636
5049.45,0.29784
5043.66,0.29925
5037.88,0.30135
5032.09,0.30327
5026.3,0.30384
5020.52,0.30474
5014.73,0.30613
5008.94,0.30659
5003.16,0.30703
4997.37,0.30812
4991.59,0.30692
4985.8,0.30706
4980.01,0.30613
4974.23,0.30485
4968.44,0.30473
4962.65,0.30308
4956.87,0.30206
4951.08,0.30017
4945.3,0.29816
4939.51,0.29562
4933.72,0.29267
4927.94,0.28952
4922.15,0.28787
4916.36,0.28664
4910.58,0.28385
4904.79,0.28221
4899.01,0.27959
4893.22,0.27818
4887.43,0.27694
4881.65,0.27530
4875.86,0.27399
4870.07,0.27218
4864.29,0.26999
4858.5,0.27000
4852.72,0.26783
4846.93,0.26573
4841.14,0.26383
4835.36,0.26268
4829.57,0.26151
4823.78,0.26052
4818,0.25919
4812.21,0.25851
4806.43,0.25691
4800.64,0.25676
4794.85,0.25709
4789.07,0.25671
4783.28,0.25569
4777.5,0.25400
4771.71,0.25372
4765.92,0.25304
4760.14,0.25296
4754.35,0.25181
4748.56,0.24988
4742.78,0.24937
4736.99,0.24786
4731.21,0.24703
4725.42,0.24755
4719.63,0.24646
4713.85,0.24618
4708.06,0.24486
4702.27,0.24444
4696.49,0.24309
4690.7,0.24222
4684.92,0.24212
4679.13,0.24293
4673.34,0.24200
4667.56,0.24370
4661.77,0.24541
4655.98,0.24816
4650.2,0.24971
4644.41,0.25082
4638.63,0.25194
4632.84,0.25202
4627.05,0.25398
4621.27,0.25388
4615.48,0.25626
4609.69,0.25822
4603.91,0.26059
4598.12,0.26351
4592.34,0.26500
4586.55,0.26523
4580.76,0.26682
4574.98,0.26742
4569.19,0.26761
4563.4,0.26826
4557.62,0.26976
4551.83,0.27045
4546.05,0.27066
4540.26,0.27237
4534.47,0.27215
4528.69,0.27228
4522.9,0.27061
4517.11,0.27034
4511.33,0.26848
4505.54,0.26675
4499.76,0.26389
4493.97,0.26122
4488.18,0.25714
4482.4,0.25312
4476.61,0.24728
4470.83,0.24175
4465.04,0.23383
4459.25,0.22525
4453.47,0.21569
4447.68,0.20794
4441.89,0.19860
4436.11,0.18937
4430.32,0.18330
4424.54,0.17785
4418.75,0.17462
4412.96,0.17281
4407.18,0.17278
4401.39,0.17338
4395.6,0.17324
4389.82,0.17387
4384.03,0.17199
4378.25,0.17191
4372.46,0.16973
4366.67,0.16793
4360.89,0.16807
4355.1,0.16774
4349.31,0.16636
4343.53,0.16642
4337.74,0.16709
4331.96,0.16634
4326.17,0.16732
4320.38,0.16762
4314.6,0.16999
4308.81,0.17117
4303.02,0.17159
4297.24,0.17263
4291.45,0.17265
4285.67,0.17223
4279.88,0.17174
4274.09,0.17175
4268.31,0.17350
4262.52,0.17395
4256.73,0.17549
4250.95,0.17565
4245.16,0.17695
4239.38,0.17883
4233.59,0.17930
4227.8,0.18082
4222.02,0.18181
4216.23,0.18258
4210.44,0.18383
4204.66,0.18461
4198.87,0.18373
4193.09,0.18446
4187.3,0.18495
4181.51,0.18417
4175.73,0.18407
4169.94,0.18446
4164.16,0.18412
4158.37,0.18347
4152.58,0.18344
4146.8,0.18262
4141.01,0.18112
4135.22,0.18035
4129.44,0.17944
4123.65,0.17770
4117.87,0.17715
4112.08,0.17602
4106.29,0.17375
4100.51,0.17199
4094.72,0.16991
4088.93,0.16704
4083.15,0.16377
4077.36,0.16053
4071.58,0.15846
4065.79,0.15499
4060,0.15384
4054.22,0.15209
4048.43,0.15086
4042.64,0.15008
4036.86,0.14969
4031.07,0.14926
4025.29,0.14920
4019.5,0.14862
4013.71,0.14841
4007.93,0.14937
4002.14,0.14921
3996.35,0.15065
3990.57,0.15186
3984.78,0.15271
3979,0.15454
3973.21,0.15638
3967.42,0.15843
3961.64,0.16059
3955.85,0.16179
3950.06,0.16407
3944.28,0.16581
3938.49,0.16808
3932.71,0.16966
3926.92,0.17117
3921.13,0.17375
3915.35,0.17523
3909.56,0.17680
3903.77,0.17823
3897.99,0.17999
3892.2,0.18138
3886.42,0.18295
3880.63,0.18381
3874.84,0.18487
3869.06,0.18708
3863.27,0.18920
3857.48,0.19061
3851.7,0.19216
3845.91,0.19423
3840.13,0.19572
3834.34,0.19679
3828.55,0.19723
3822.77,0.19759
3816.98,0.19763
3811.2,0.19778
3805.41,0.19683
3799.62,0.19701
3793.84,0.19741
3788.05,0.19706
3782.26,0.19670
3776.48,0.19599
3770.69,0.19502
3764.91,0.19413
3759.12,0.19267
3753.33,0.19226
3747.55,0.19099
3741.76,0.18913
3735.97,0.18650
3730.19,0.18299
3724.4,0.18023
3718.62,0.17618
3712.83,0.17114
3707.04,0.16486
3701.26,0.15797
3695.47,0.14952
3689.68,0.13835
3683.9,0.12493
3678.11,0.10552
3672.33,0.09895
3666.54,0.09156
3660.75,0.08368
3654.97,0.07728
3649.18,0.07104
3643.39,0.06697
3637.61,0.06347
3631.82,0.06131
3626.04,0.05883
3620.25,0.05687
3614.46,0.05512
3608.68,0.05398
3602.89,0.05276
3597.1,0.05244
3591.32,0.05144
3585.53,0.05041
3579.75,0.05037
3573.96,0.04903
3568.17,0.04863
3562.39,0.04805
3556.6,0.04786
3550.81,0.04834
3545.03,0.04820
3539.24,0.04739
3533.46,0.04753
3527.67,0.04714
3521.88,0.04720
3516.1,0.04709
3510.31,0.04679
3504.53,0.04687
3498.74,0.04740
3492.95,0.04693
3487.17,0.04720
3481.38,0.04708
3475.59,0.04718
3469.81,0.04655
3464.02,0.04721
3458.24,0.04723
3452.45,0.04740
3446.66,0.04717
3440.88,0.04695
3435.09,0.04649
3429.3,0.04683
3423.52,0.04747
3417.73,0.04651
3411.95,0.04688
3406.16,0.04744
3400.37,0.04690
3394.59,0.04717
3388.8,0.04737
3383.01,0.04665
3377.23,0.04710
3371.44,0.04775
3365.66,0.04723
3359.87,0.04653
3354.08,0.04775
3348.3,0.04811
3342.51,0.04823
3336.72,0.04777
3330.94,0.04831
3325.15,0.04710
3319.37,0.04786
3313.58,0.04773
3307.79,0.04809
3302.01,0.04766
3296.22,0.04770
3290.43,0.04787
3284.65,0.04811
3278.86,0.04828
3273.08,0.04798
3267.29,0.04860
3261.5,0.04859
3255.72,0.04804
3249.93,0.04845
3244.14,0.04878
3238.36,0.04873
3232.57,0.04851
3226.79,0.04941
3221,0.04873
3215.21,0.04979
3209.43,0.04934
3203.64,0.04974
3197.86,0.04988
3192.07,0.05031
3186.28,0.05131
3180.5,0.05056
3174.71,0.05062
3168.92,0.05130
3163.14,0.05215
3157.35,0.05233
3151.57,0.05205
3145.78,0.05237
3139.99,0.05244
3134.21,0.05244
3128.42,0.05260
3122.63,0.05332
3116.85,0.05316
3111.06,0.05317
3105.28,0.05292
3099.49,0.05338
3093.7,0.05336
3087.92,0.05330
3082.13,0.05299
3076.34,0.05293
3070.56,0.05270
3064.77,0.05276
3058.99,0.05299
3053.2,0.05292
3047.41,0.05299
3041.63,0.05307
3035.84,0.05231
3030.05,0.05283
3024.27,0.05248
3018.48,0.05205
3012.7,0.05032
3006.91,0.04872
3001.12,0.04773
2995.34,0.04676
2989.55,0.04671
2983.76,0.04619
2977.98,0.04595
2972.19,0.04612
2966.41,0.04669
2960.62,0.04680
2954.83,0.04719
2949.05,0.04725
2943.26,0.04765
2937.47,0.04742
2931.69,0.04840
2925.9,0.04944
2920.12,0.04999
2914.33,0.05007
2908.54,0.04942
2902.76,0.04901
2896.97,0.04911
2891.18,0.04912
2885.4,0.04959
2879.61,0.04941
2873.83,0.04951
2868.04,0.04949
2862.25,0.05004
2856.47,0.05032
2850.68,0.05119
2844.9,0.05216
2839.11,0.05216
2833.32,0.05336
2827.54,0.05439
2821.75,0.05510
2815.96,0.05635
2810.18,0.05676
2804.39,0.05776
2798.61,0.05814
2792.82,0.05920
2787.03,0.06016
2781.25,0.06088
2775.46,0.06185
2769.67,0.06183
2763.89,0.06237
2758.1,0.06270
2752.32,0.06296
2746.53,0.06369
2740.74,0.06397
2734.96,0.06467
2729.17,0.06554
2723.38,0.06652
2717.6,0.06719
2711.81,0.06824
2706.03,0.06907
2700.24,0.07017
2694.45,0.07113
2688.67,0.07196
2682.88,0.07296
2677.09,0.07376
2671.31,0.07407
2665.52,0.07493
2659.74,0.07517
2653.95,0.07587
2648.16,0.07681
2642.38,0.07773
2636.59,0.07832
2630.8,0.07894
2625.02,0.07933
2619.23,0.08000
2613.45,0.08050
2607.66,0.08114
2601.87,0.08185
2596.09,0.08198
2590.3,0.08254
2584.51,0.08325
2578.73,0.08383
2572.94,0.08398
2567.16,0.08463
2561.37,0.08516
2555.58,0.08568
2549.8,0.08591
2544.01,0.08656
2538.23,0.08669
2532.44,0.08779
2526.65,0.08883
2520.87,0.08934
2515.08,0.09060
2509.29,0.09127
2503.51,0.09215
2497.72,0.09324
2491.94,0.09409
2486.15,0.09474
2480.36,0.09562
2474.58,0.09656
2468.79,0.09717
2463,0.09814
2457.22,0.09902
2451.43,0.09983
2445.65,0.10087
2439.86,0.10128
2434.07,0.10187
2428.29,0.10279
2422.5,0.10323
2416.71,0.10461
2410.93,0.10559
2405.14,0.10682
2399.36,0.10739
2393.57,0.10825
2387.78,0.10845
2382,0.10873
2376.21,0.10930
2370.42,0.10956
2364.64,0.11051
2358.85,0.11146
2353.07,0.11156
2347.28,0.11267
2341.49,0.11291
2335.71,0.11307
2329.92,0.11385
2324.13,0.11441
2318.35,0.11468
2312.56,0.11529
2306.78,0.11559
2300.99,0.11614
2295.2,0.11639
2289.42,0.11704
2283.63,0.11753
2277.84,0.11800
2272.06,0.11842
2266.27,0.11831
2260.49,0.11784
2254.7,0.11761
2248.91,0.11720
2243.13,0.11730
2237.34,0.11729
2231.56,0.11728
2225.77,0.11743
2219.98,0.11747
2214.2,0.11751
2208.41,0.11742
2202.62,0.11667
2196.84,0.11568
2191.05,0.11463
2185.27,0.11357
2179.48,0.11192
2173.69,0.11040
2167.91,0.10923
2162.12,0.10731
2156.33,0.10598
2150.55,0.10503
2144.76,0.10376
2138.98,0.10302
2133.19,0.10240
2127.4,0.10185
2121.62,0.10137
2115.83,0.10059
2110.04,0.10065
2104.26,0.10030
2098.47,0.10014
2092.69,0.10008
2086.9,0.09992
2081.11,0.09969
2075.33,0.09916
2069.54,0.09941
2063.75,0.09919
2057.97,0.09947
2052.18,0.09963
2046.4,0.10022
2040.61,0.10053
2034.82,0.10031
2029.04,0.10024
2023.25,0.10068
2017.46,0.10145
2011.68,0.10231
2005.89,0.10268
2000.11,0.10327
1994.32,0.10354
1988.53,0.10383
1982.75,0.10433
1976.96,0.10424
1971.17,0.10416
1965.39,0.10372
1959.6,0.10332
1953.82,0.10330
1948.03,0.10380
1942.24,0.10463
1936.46,0.10562
1930.67,0.10673
1924.89,0.10731
1919.1,0.10753
1913.31,0.10772
1907.53,0.10794
1901.74,0.10781
1895.95,0.10733
1890.17,0.10662
1884.38,0.10594
1878.6,0.10525
1872.81,0.10425
1867.02,0.10268
1861.24,0.10083
1855.45,0.09858
1849.66,0.09604
1843.88,0.09345
1838.09,0.08956
1832.31,0.08592
1826.52,0.08167
1820.73,0.07754
1814.95,0.07337
1809.16,0.06859
1803.37,0.06433
1797.59,0.05958
1791.8,0.05448
1786.02,0.04990
1780.23,0.04466
1774.44,0.04021
1768.66,0.03627
1762.87,0.03296
1757.08,0.02956
1751.3,0.02830
1745.51,0.03203
1739.73,0.04066
1733.94,0.05099
1728.15,0.05983
1722.37,0.06471
1716.58,0.06506
1710.79,0.06337
1705.01,0.06151
1699.22,0.05912
1693.44,0.05717
1687.65,0.05619
1681.86,0.05503
1676.08,0.05424
1670.29,0.05348
1664.5,0.05238
1658.72,0.05232
1652.93,0.05199
1647.15,0.05160
1641.36,0.05172
1635.57,0.05096
1629.79,0.05124
1624,0.05073
1618.21,0.05078
1612.43,0.05013
1606.64,0.04984
1600.86,0.04956
1595.07,0.05055
1589.28,0.05097
1583.5,0.05023
1577.71,0.05066
1571.93,0.05232
1566.14,0.05183
1560.35,0.05100
1554.57,0.04918
1548.78,0.04931
1542.99,0.04819
1537.21,0.04803
1531.42,0.04797
1525.64,0.04752
1519.85,0.04665
1514.06,0.04583
1508.28,0.04571
1502.49,0.04630
1496.7,0.04649
1490.92,0.04559
1485.13,0.04409
1479.35,0.04243
1473.56,0.04202
1467.77,0.04193
1461.99,0.04238
1456.2,0.04301
1450.41,0.04356
1444.63,0.04424
1438.84,0.04486
1433.06,0.04487
1427.27,0.04435
1421.48,0.04317
1415.7,0.04227
1409.91,0.04299
1404.12,0.04380
1398.34,0.04320
1392.55,0.04257
1386.77,0.04303
1380.98,0.04336
1375.19,0.04338
1369.41,0.04332
1363.62,0.04339
1357.83,0.04297
1352.05,0.04228
1346.26,0.04217
1340.48,0.04128
1334.69,0.04081
1328.9,0.04028
1323.12,0.03962
1317.33,0.03933
1311.54,0.03829
1305.76,0.03797
1299.97,0.03862
1294.19,0.03856
1288.4,0.03853
1282.61,0.03849
1276.83,0.03868
1271.04,0.03934
1265.26,0.04064
1259.47,0.04145
1253.68,0.04218
1247.9,0.04279
1242.11,0.04234
1236.32,0.04362
1230.54,0.04326
1224.75,0.04369
1218.97,0.04382
1213.18,0.04377
1207.39,0.04410
1201.61,0.04474
1195.82,0.04563
1190.03,0.04663
1184.25,0.04720
1178.46,0.04823
1172.68,0.04879
1166.89,0.05062
1161.1,0.05323
1155.32,0.05469
1149.53,0.05652
1143.74,0.05761
1137.96,0.05717
1132.17,0.05616
1126.39,0.05566
1120.6,0.05566
1114.81,0.05687
1109.03,0.05820
1103.24,0.05897
1097.45,0.05929
1091.67,0.05976
1085.88,0.05960
1080.1,0.05922
1074.31,0.05971
1068.52,0.06139
1062.74,0.06348
1056.95,0.06434
1051.16,0.06598
1045.38,0.06641
1039.59,0.06735
1033.81,0.06824
1028.02,0.06763
1022.23,0.06854
1016.45,0.06953
1010.66,0.06958
1004.87,0.06877
999.089,0.06821
993.302,0.06863
987.516,0.06839
981.73,0.06906
975.944,0.06906
970.157,0.06887
964.371,0.06860
958.585,0.06793
952.799,0.06816
947.013,0.06801
941.226,0.06727
935.44,0.06632
929.654,0.06545
923.868,0.06539
918.081,0.06521
912.295,0.06505
906.509,0.06513
900.723,0.06496
894.937,0.06546
889.15,0.06536
883.364,0.06594
877.578,0.06594
871.792,0.06559
866.005,0.06420
860.219,0.06314
854.433,0.06324
848.647,0.06234
842.86,0.06094
837.074,0.06026
831.288,0.05980
825.502,0.06062
819.716,0.06142
813.929,0.06123
808.143,0.06294
802.357,0.06377
796.571,0.06449
790.784,0.06377
784.998,0.06260
779.212,0.06164
773.426,0.06065
767.64,0.06037
761.853,0.06060
756.067,0.06062
750.281,0.06015
744.495,0.05943
738.708,0.05996
732.922,0.06133
727.136,0.06288
721.35,0.06233
715.563,0.06116
709.777,0.06083
703.991,0.06136
698.205,0.06323
692.419,0.06682
686.632,0.06906
680.846,0.07052
675.06,0.06998
669.274,0.06681
663.487,0.06349
657.701,0.06036
651.915,0.05897
646.129,0.05932
640.343,0.05871
634.556,0.05837
628.77,0.05479
622.984,0.05770
617.198,0.05674
611.411,0.05552
605.625,0.05737
599.839,0.06014