File: 01_Data/Engineered_Flooring/FTIR/IS/Engineered_Flooring_IS_S_220909_R6.dpt
7497.02,0.37701
7491.24,0.37485
7485.45,0.37879
7479.66,0.37657
7473.88,0.37706
7468.09,0.36995
7462.3,0.37080
7456.52,0.37324
7450.73,0.36973
7444.95,0.36979
7439.16,0.37802
7433.37,0.36780
7427.59,0.37311
7421.8,0.36560
7416.01,0.37659
7410.23,0.36394
7404.44,0.36717
7398.66,0.36826
7392.87,0.36749
7387.08,0.36984
7381.3,0.36907
7375.51,0.36379
7369.73,0.36888
7363.94,0.36802
7358.15,0.36431
7352.37,0.36788
7346.58,0.36296
7340.79,0.36593
7335.01,0.36055
7329.22,0.35989
7323.44,0.35956
7317.65,0.35757
7311.86,0.35805
7306.08,0.36024
7300.29,0.35969
7294.5,0.35841
7288.72,0.35272
7282.93,0.35863
7277.15,0.35660
7271.36,0.35976
7265.57,0.35751
7259.79,0.35648
7254,0.35986
7248.21,0.35469
7242.43,0.35469
7236.64,0.35577
7230.86,0.35578
7225.07,0.35910
7219.28,0.35581
7213.5,0.35705
7207.71,0.35522
7201.92,0.36028
7196.14,0.35304
7190.35,0.35225
7184.57,0.34640
7178.78,0.35600
7172.99,0.35514
7167.21,0.35135
7161.42,0.34569
7155.63,0.34987
7149.85,0.35116
7144.06,0.34386
7138.28,0.34394
7132.49,0.34548
7126.7,0.34641
7120.92,0.33520
7115.13,0.33925
7109.34,0.34244
7103.56,0.34230
7097.77,0.32985
7091.99,0.33167
7086.2,0.32940
7080.41,0.33399
7074.63,0.32954
7068.84,0.32259
7063.06,0.32533
7057.27,0.32682
7051.48,0.32299
7045.7,0.32129
7039.91,0.32403
7034.12,0.32053
7028.34,0.31838
7022.55,0.32008
7016.77,0.31393
7010.98,0.30959
7005.19,0.31611
6999.41,0.30912
6993.62,0.31028
6987.83,0.30444
6982.05,0.30689
6976.26,0.30356
6970.48,0.30334
6964.69,0.30582
6958.9,0.30199
6953.12,0.30919
6947.33,0.30617
6941.54,0.30610
6935.76,0.30325
6929.97,0.30284
6924.19,0.30411
6918.4,0.31048
6912.61,0.30386
6906.83,0.30141
6901.04,0.30205
6895.25,0.30115
6889.47,0.30002
6883.68,0.30731
6877.9,0.30384
6872.11,0.30279
6866.32,0.30166
6860.54,0.30348
6854.75,0.30287
6848.96,0.30017
6843.18,0.29750
6837.39,0.30262
6831.61,0.29939
6825.82,0.30513
6820.03,0.30593
6814.25,0.30637
6808.46,0.30700
6802.67,0.30258
6796.89,0.30133
6791.1,0.30473
6785.32,0.30833
6779.53,0.30701
6773.74,0.30641
6767.96,0.30434
6762.17,0.30401
6756.38,0.30558
6750.6,0.30735
6744.81,0.30772
6739.03,0.30588
6733.24,0.30764
6727.45,0.30528
6721.67,0.30254
6715.88,0.30775
6710.1,0.30778
6704.31,0.30448
6698.52,0.31201
6692.74,0.31121
6686.95,0.31000
6681.16,0.31088
6675.38,0.31385
6669.59,0.31042
6663.81,0.31231
6658.02,0.31477
6652.23,0.31493
6646.45,0.31520
6640.66,0.31363
6634.87,0.31354
6629.09,0.31794
6623.3,0.31919
6617.52,0.32029
6611.73,0.31760
6605.94,0.32103
6600.16,0.31640
6594.37,0.31916
6588.58,0.31792
6582.8,0.31959
6577.01,0.32279
6571.23,0.32342
6565.44,0.32020
6559.65,0.32462
6553.87,0.32383
6548.08,0.32829
6542.29,0.32750
6536.51,0.32631
6530.72,0.32641
6524.94,0.32347
6519.15,0.32784
6513.36,0.32948
6507.58,0.32522
6501.79,0.32564
6496,0.33136
6490.22,0.32799
6484.43,0.32883
6478.65,0.33610
6472.86,0.32615
6467.07,0.32842
6461.29,0.32978
6455.5,0.33217
6449.71,0.33017
6443.93,0.33111
6438.14,0.33068
6432.36,0.32933
6426.57,0.33458
6420.78,0.33157
6415,0.33222
6409.21,0.33056
6403.43,0.33524
6397.64,0.33229
6391.85,0.33394
6386.07,0.33419
6380.28,0.33443
6374.49,0.33223
6368.71,0.33224
6362.92,0.33294
6357.14,0.33251
6351.35,0.33903
6345.56,0.33263
6339.78,0.33458
6333.99,0.33807
6328.2,0.33822
6322.42,0.33665
6316.63,0.33780
6310.85,0.33813
6305.06,0.33531
6299.27,0.33579
6293.49,0.33487
6287.7,0.33843
6281.91,0.34118
6276.13,0.34286
6270.34,0.33792
6264.56,0.33806
6258.77,0.34079
6252.98,0.34421
6247.2,0.34274
6241.41,0.34487
6235.62,0.34231
6229.84,0.34353
6224.05,0.34542
6218.27,0.34655
6212.48,0.34701
6206.69,0.34668
6200.91,0.34885
6195.12,0.34847
6189.33,0.34640
6183.55,0.34471
6177.76,0.34620
6171.98,0.34810
6166.19,0.34827
6160.4,0.34939
6154.62,0.35054
6148.83,0.35009
6143.04,0.34748
6137.26,0.35152
6131.47,0.35281
6125.69,0.35245
6119.9,0.35217
6114.11,0.35029
6108.33,0.35423
6102.54,0.35501
6096.76,0.35569
6090.97,0.35419
6085.18,0.35127
6079.4,0.35291
6073.61,0.35104
6067.82,0.35259
6062.04,0.35069
6056.25,0.34980
6050.47,0.35064
6044.68,0.34817
6038.89,0.34569
6033.11,0.34371
6027.32,0.34197
6021.53,0.34185
6015.75,0.34167
6009.96,0.34000
6004.18,0.33872
5998.39,0.33478
5992.6,0.33563
5986.82,0.33165
5981.03,0.33110
5975.24,0.32894
5969.46,0.32785
5963.67,0.32740
5957.89,0.32750
5952.1,0.32548
5946.31,0.32511
5940.53,0.32411
5934.74,0.32407
5928.95,0.32456
5923.17,0.32100
5917.38,0.32266
5911.6,0.32172
5905.81,0.32091
5900.02,0.31951
5894.24,0.31817
5888.45,0.32173
5882.66,0.32164
5876.88,0.31989
5871.09,0.31745
5865.31,0.31897
5859.52,0.31866
5853.73,0.31999
5847.95,0.31975
5842.16,0.31813
5836.37,0.31844
5830.59,0.31660
5824.8,0.31599
5819.02,0.31619
5813.23,0.31438
5807.44,0.31340
5801.66,0.31452
5795.87,0.31288
5790.08,0.31477
5784.3,0.31654
5778.51,0.31565
5772.73,0.31833
5766.94,0.31789
5761.15,0.31957
5755.37,0.32015
5749.58,0.32088
5743.8,0.32137
5738.01,0.32366
5732.22,0.32527
5726.44,0.32535
5720.65,0.32753
5714.86,0.32920
5709.08,0.33070
5703.29,0.33164
5697.51,0.32812
5691.72,0.33025
5685.93,0.33083
5680.15,0.33139
5674.36,0.32911
5668.57,0.32933
5662.79,0.32959
5657,0.33046
5651.22,0.33189
5645.43,0.33139
5639.64,0.33323
5633.86,0.33365
5628.07,0.33443
5622.28,0.33520
5616.5,0.33342
5610.71,0.33623
5604.93,0.33523
5599.14,0.33479
5593.35,0.33643
5587.57,0.33620
5581.78,0.33484
5575.99,0.33589
5570.21,0.33645
5564.42,0.33678
5558.64,0.33662
5552.85,0.34014
5547.06,0.33921
5541.28,0.34096
5535.49,0.33967
5529.7,0.34218
5523.92,0.34198
5518.13,0.34188
5512.35,0.34171
5506.56,0.34165
5500.77,0.34436
5494.99,0.34448
5489.2,0.34371
5483.41,0.34331
5477.63,0.34495
5471.84,0.34567
5466.06,0.34698
5460.27,0.34755
5454.48,0.34881
5448.7,0.34757
5442.91,0.34951
5437.13,0.34900
5431.34,0.35004
5425.55,0.35220
5419.77,0.35270
5413.98,0.35155
5408.19,0.35274
5402.41,0.35233
5396.62,0.35460
5390.84,0.35353
5385.05,0.35347
5379.26,0.35426
5373.48,0.35454
5367.69,0.35247
5361.9,0.35410
5356.12,0.35289
5350.33,0.35303
5344.55,0.35212
5338.76,0.34965
5332.97,0.34933
5327.19,0.34872
5321.4,0.34568
5315.61,0.34391
5309.83,0.34004
5304.04,0.33652
5298.26,0.33227
5292.47,0.32843
5286.68,0.32065
5280.9,0.31471
5275.11,0.30706
5269.32,0.29931
5263.54,0.29107
5257.75,0.28367
5251.97,0.27736
5246.18,0.27185
5240.39,0.26734
5234.61,0.26373
5228.82,0.25945
5223.03,0.25705
5217.25,0.25567
5211.46,0.25407
5205.68,0.25384
5199.89,0.25360
5194.1,0.25422
5188.32,0.25367
5182.53,0.25485
5176.74,0.25410
5170.96,0.25707
5165.17,0.25886
5159.39,0.26095
5153.6,0.26321
5147.81,0.26478
5142.03,0.26643
5136.24,0.26906
5130.46,0.27160
5124.67,0.27304
5118.88,0.27505
5113.1,0.27750
5107.31,0.27911
5101.52,0.28040
5095.74,0.28181
5089.95,0.28479
5084.17,0.28613
5078.38,0.28757
5072.59,0.28969
5066.81,0.29120
5061.02,0.29278
5055.23,0.29491
5049.45,0.29529
5043.66,0.29823
5037.88,0.29914
5032.09,0.30111
5026.3,0.30214
5020.52,0.30304
5014.73,0.30367
5008.94,0.30530
5003.16,0.30549
4997.37,0.30699
4991.59,0.30795
4985.8,0.30594
4980.01,0.30596
4974.23,0.30501
4968.44,0.30317
4962.65,0.30163
4956.87,0.30106
4951.08,0.29831
4945.3,0.29595
4939.51,0.29403
4933.72,0.29040
4927.94,0.28812
4922.15,0.28653
4916.36,0.28512
4910.58,0.28323
4904.79,0.27984
4899.01,0.27882
4893.22,0.27648
4887.43,0.27555
4881.65,0.27418
4875.86,0.27304
4870.07,0.27082
4864.29,0.27036
4858.5,0.26940
4852.72,0.26685
4846.93,0.26499
4841.14,0.26374
4835.36,0.26233
4829.57,0.26121
4823.78,0.26038
4818,0.25870
4812.21,0.25762
4806.43,0.25648
4800.64,0.25609
4794.85,0.25413
4789.07,0.25533
4783.28,0.25425
4777.5,0.25431
4771.71,0.25287
4765.92,0.25229
4760.14,0.25136
4754.35,0.25057
4748.56,0.24834
4742.78,0.24817
4736.99,0.24693
4731.21,0.24736
4725.42,0.24631
4719.63,0.24521
4713.85,0.24495
4708.06,0.24515
4702.27,0.24444
4696.49,0.24294
4690.7,0.24182
4684.92,0.24116
4679.13,0.24136
4673.34,0.24171
4667.56,0.24288
4661.77,0.24498
4655.98,0.24663
4650.2,0.24894
4644.41,0.25058
4638.63,0.25110
4632.84,0.25164
4627.05,0.25262
4621.27,0.25308
4615.48,0.25635
4609.69,0.25803
4603.91,0.25956
4598.12,0.26260
4592.34,0.26365
4586.55,0.26466
4580.76,0.26542
4574.98,0.26693
4569.19,0.26836
4563.4,0.26686
4557.62,0.26885
4551.83,0.26940
4546.05,0.27094
4540.26,0.27097
4534.47,0.27084
4528.69,0.27057
4522.9,0.27094
4517.11,0.26935
4511.33,0.26764
4505.54,0.26528
4499.76,0.26323
4493.97,0.25987
4488.18,0.25575
4482.4,0.25211
4476.61,0.24724
4470.83,0.24144
4465.04,0.23336
4459.25,0.22432
4453.47,0.21574
4447.68,0.20592
4441.89,0.19712
4436.11,0.18927
4430.32,0.18259
4424.54,0.17668
4418.75,0.17353
4412.96,0.17271
4407.18,0.17182
4401.39,0.17262
4395.6,0.17300
4389.82,0.17345
4384.03,0.17217
4378.25,0.17086
4372.46,0.16999
4366.67,0.16789
4360.89,0.16782
4355.1,0.16707
4349.31,0.16616
4343.53,0.16633
4337.74,0.16602
4331.96,0.16673
4326.17,0.16649
4320.38,0.16703
4314.6,0.16921
4308.81,0.17042
4303.02,0.17147
4297.24,0.17195
4291.45,0.17252
4285.67,0.17188
4279.88,0.17150
4274.09,0.17203
4268.31,0.17202
4262.52,0.17366
4256.73,0.17471
4250.95,0.17531
4245.16,0.17652
4239.38,0.17816
4233.59,0.17941
4227.8,0.18015
4222.02,0.18089
4216.23,0.18241
4210.44,0.18324
4204.66,0.18381
4198.87,0.18401
4193.09,0.18389
4187.3,0.18280
4181.51,0.18405
4175.73,0.18316
4169.94,0.18334
4164.16,0.18304
4158.37,0.18244
4152.58,0.18220
4146.8,0.18197
4141.01,0.18048
4135.22,0.17979
4129.44,0.17881
4123.65,0.17752
4117.87,0.17642
4112.08,0.17488
4106.29,0.17338
4100.51,0.17097
4094.72,0.16891
4088.93,0.16619
4083.15,0.16388
4077.36,0.16107
4071.58,0.15754
4065.79,0.15401
4060,0.15242
4054.22,0.15157
4048.43,0.15083
4042.64,0.14914
4036.86,0.14949
4031.07,0.14853
4025.29,0.14795
4019.5,0.14751
4013.71,0.14783
4007.93,0.14815
4002.14,0.14926
3996.35,0.15016
3990.57,0.15082
3984.78,0.15255
3979,0.15383
3973.21,0.15548
3967.42,0.15702
3961.64,0.15892
3955.85,0.16162
3950.06,0.16369
3944.28,0.16497
3938.49,0.16700
3932.71,0.16904
3926.92,0.17125
3921.13,0.17234
3915.35,0.17449
3909.56,0.17596
3903.77,0.17705
3897.99,0.17904
3892.2,0.18049
3886.42,0.18123
3880.63,0.18237
3874.84,0.18406
3869.06,0.18541
3863.27,0.18754
3857.48,0.18984
3851.7,0.19201
3845.91,0.19310
3840.13,0.19461
3834.34,0.19492
3828.55,0.19553
3822.77,0.19539
3816.98,0.19584
3811.2,0.19579
3805.41,0.19610
3799.62,0.19552
3793.84,0.19565
3788.05,0.19614
3782.26,0.19545
3776.48,0.19451
3770.69,0.19366
3764.91,0.19264
3759.12,0.19133
3753.33,0.19099
3747.55,0.18977
3741.76,0.18731
3735.97,0.18471
3730.19,0.18154
3724.4,0.17804
3718.62,0.17410
3712.83,0.16955
3707.04,0.16373
3701.26,0.15547
3695.47,0.14706
3689.68,0.13589
3683.9,0.12266
3678.11,0.10340
3672.33,0.09679
3666.54,0.08937
3660.75,0.08153
3654.97,0.07496
3649.18,0.07015
3643.39,0.06577
3637.61,0.06224
3631.82,0.05975
3626.04,0.05791
3620.25,0.05637
3614.46,0.05475
3608.68,0.05314
3602.89,0.05231
3597.1,0.05159
3591.32,0.05095
3585.53,0.05014
3579.75,0.05008
3573.96,0.04841
3568.17,0.04908
3562.39,0.04800
3556.6,0.04806
3550.81,0.04705
3545.03,0.04726
3539.24,0.04773
3533.46,0.04706
3527.67,0.04665
3521.88,0.04718
3516.1,0.04664
3510.31,0.04762
3504.53,0.04688
3498.74,0.04672
3492.95,0.04744
3487.17,0.04705
3481.38,0.04716
3475.59,0.04733
3469.81,0.04703
3464.02,0.04687
3458.24,0.04727
3452.45,0.04684
3446.66,0.04703
3440.88,0.04702
3435.09,0.04738
3429.3,0.04677
3423.52,0.04725
3417.73,0.04715
3411.95,0.04707
3406.16,0.04778
3400.37,0.04721
3394.59,0.04698
3388.8,0.04730
3383.01,0.04726
3377.23,0.04690
3371.44,0.04683
3365.66,0.04742
3359.87,0.04788
3354.08,0.04742
3348.3,0.04781
3342.51,0.04820
3336.72,0.04772
3330.94,0.04757
3325.15,0.04800
3319.37,0.04850
3313.58,0.04815
3307.79,0.04760
3302.01,0.04741
3296.22,0.04810
3290.43,0.04781
3284.65,0.04701
3278.86,0.04738
3273.08,0.04807
3267.29,0.04872
3261.5,0.04819
3255.72,0.04866
3249.93,0.04809
3244.14,0.04836
3238.36,0.04933
3232.57,0.04915
3226.79,0.04928
3221,0.04979
3215.21,0.04986
3209.43,0.04938
3203.64,0.04948
3197.86,0.05056
3192.07,0.04956
3186.28,0.05020
3180.5,0.05051
3174.71,0.05083
3168.92,0.05081
3163.14,0.05159
3157.35,0.05184
3151.57,0.05145
3145.78,0.05166
3139.99,0.05244
3134.21,0.05274
3128.42,0.05236
3122.63,0.05282
3116.85,0.05281
3111.06,0.05325
3105.28,0.05255
3099.49,0.05248
3093.7,0.05289
3087.92,0.05321
3082.13,0.05281
3076.34,0.05246
3070.56,0.05261
3064.77,0.05270
3058.99,0.05262
3053.2,0.05284
3047.41,0.05354
3041.63,0.05264
3035.84,0.05228
3030.05,0.05253
3024.27,0.05215
3018.48,0.05148
3012.7,0.05012
3006.91,0.04850
3001.12,0.04734
2995.34,0.04702
2989.55,0.04669
2983.76,0.04630
2977.98,0.04642
2972.19,0.04619
2966.41,0.04679
2960.62,0.04690
2954.83,0.04731
2949.05,0.04759
2943.26,0.04732
2937.47,0.04785
2931.69,0.04829
2925.9,0.04914
2920.12,0.04955
2914.33,0.05046
2908.54,0.04943
2902.76,0.04960
2896.97,0.04888
2891.18,0.04922
2885.4,0.04893
2879.61,0.04894
2873.83,0.04965
2868.04,0.05000
2862.25,0.05003
2856.47,0.05073
2850.68,0.05112
2844.9,0.05179
2839.11,0.05182
2833.32,0.05296
2827.54,0.05425
2821.75,0.05473
2815.96,0.05624
2810.18,0.05671
2804.39,0.05779
2798.61,0.05835
2792.82,0.05945
2787.03,0.05999
2781.25,0.06052
2775.46,0.06122
2769.67,0.06215
2763.89,0.06244
2758.1,0.06252
2752.32,0.06284
2746.53,0.06338
2740.74,0.06382
2734.96,0.06459
2729.17,0.06501
2723.38,0.06564
2717.6,0.06654
2711.81,0.06781
2706.03,0.06894
2700.24,0.06944
2694.45,0.07073
2688.67,0.07168
2682.88,0.07250
2677.09,0.07293
2671.31,0.07421
2665.52,0.07480
2659.74,0.07503
2653.95,0.07569
2648.16,0.07606
2642.38,0.07678
2636.59,0.07787
2630.8,0.07881
2625.02,0.07920
2619.23,0.07995
2613.45,0.08038
2607.66,0.08088
2601.87,0.08124
2596.09,0.08159
2590.3,0.08270
2584.51,0.08298
2578.73,0.08374
2572.94,0.08397
2567.16,0.08429
2561.37,0.08480
2555.58,0.08532
2549.8,0.08576
2544.01,0.08636
2538.23,0.08647
2532.44,0.08727
2526.65,0.08823
2520.87,0.08871
2515.08,0.09037
2509.29,0.09093
2503.51,0.09169
2497.72,0.09272
2491.94,0.09380
2486.15,0.09408
2480.36,0.09558
2474.58,0.09618
2468.79,0.09701
2463,0.09773
2457.22,0.09866
2451.43,0.09965
2445.65,0.10029
2439.86,0.10124
2434.07,0.10114
2428.29,0.10214
2422.5,0.10326
2416.71,0.10419
2410.93,0.10523
2405.14,0.10655
2399.36,0.10704
2393.57,0.10741
2387.78,0.10811
2382,0.10836
2376.21,0.10882
2370.42,0.10950
2364.64,0.10981
2358.85,0.11071
2353.07,0.11120
2347.28,0.11213
2341.49,0.11241
2335.71,0.11276
2329.92,0.11360
2324.13,0.11373
2318.35,0.11444
2312.56,0.11460
2306.78,0.11506
2300.99,0.11525
2295.2,0.11581
2289.42,0.11669
2283.63,0.11711
2277.84,0.11755
2272.06,0.11732
2266.27,0.11761
2260.49,0.11749
2254.7,0.11722
2248.91,0.11681
2243.13,0.11687
2237.34,0.11640
2231.56,0.11626
2225.77,0.11681
2219.98,0.11667
2214.2,0.11669
2208.41,0.11632
2202.62,0.11612
2196.84,0.11533
2191.05,0.11436
2185.27,0.11284
2179.48,0.11141
2173.69,0.10982
2167.91,0.10804
2162.12,0.10659
2156.33,0.10545
2150.55,0.10434
2144.76,0.10319
2138.98,0.10222
2133.19,0.10163
2127.4,0.10064
2121.62,0.10070
2115.83,0.10000
2110.04,0.09964
2104.26,0.09945
2098.47,0.09925
2092.69,0.09926
2086.9,0.09921
2081.11,0.09910
2075.33,0.09890
2069.54,0.09865
2063.75,0.09845
2057.97,0.09896
2052.18,0.09944
2046.4,0.09957
2040.61,0.09957
2034.82,0.09974
2029.04,0.09968
2023.25,0.10033
2017.46,0.10077
2011.68,0.10141
2005.89,0.10164
2000.11,0.10248
1994.32,0.10299
1988.53,0.10350
1982.75,0.10389
1976.96,0.10356
1971.17,0.10349
1965.39,0.10314
1959.6,0.10297
1953.82,0.10304
1948.03,0.10346
1942.24,0.10388
1936.46,0.10509
1930.67,0.10604
1924.89,0.10669
1919.1,0.10709
1913.31,0.10740
1907.53,0.10731
1901.74,0.10713
1895.95,0.10665
1890.17,0.10604
1884.38,0.10522
1878.6,0.10473
1872.81,0.10378
1867.02,0.10223
1861.24,0.10021
1855.45,0.09794
1849.66,0.09534
1843.88,0.09267
1838.09,0.08924
1832.31,0.08552
1826.52,0.08130
1820.73,0.07718
1814.95,0.07311
1809.16,0.06858
1803.37,0.06430
1797.59,0.05915
1791.8,0.05464
1786.02,0.04978
1780.23,0.04473
1774.44,0.04004
1768.66,0.03604
1762.87,0.03300
1757.08,0.02977
1751.3,0.02870
1745.51,0.03225
1739.73,0.04072
1733.94,0.05087
1728.15,0.05970
1722.37,0.06448
1716.58,0.06510
1710.79,0.06351
1705.01,0.06138
1699.22,0.05927
1693.44,0.05718
1687.65,0.05634
1681.86,0.05506
1676.08,0.05420
1670.29,0.05341
1664.5,0.05279
1658.72,0.05240
1652.93,0.05225
1647.15,0.05159
1641.36,0.05096
1635.57,0.05077
1629.79,0.05065
1624,0.05068
1618.21,0.05035
1612.43,0.05006
1606.64,0.04982
1600.86,0.04958
1595.07,0.05022
1589.28,0.05076
1583.5,0.05019
1577.71,0.05040
1571.93,0.05153
1566.14,0.05128
1560.35,0.05086
1554.57,0.04965
1548.78,0.04883
1542.99,0.04834
1537.21,0.04770
1531.42,0.04753
1525.64,0.04742
1519.85,0.04626
1514.06,0.04556
1508.28,0.04602
1502.49,0.04646
1496.7,0.04658
1490.92,0.04567
1485.13,0.04441
1479.35,0.04256
1473.56,0.04175
1467.77,0.04227
1461.99,0.04228
1456.2,0.04245
1450.41,0.04334
1444.63,0.04429
1438.84,0.04477
1433.06,0.04497
1427.27,0.04413
1421.48,0.04253
1415.7,0.04216
1409.91,0.04307
1404.12,0.04363
1398.34,0.04333
1392.55,0.04251
1386.77,0.04270
1380.98,0.04312
1375.19,0.04373
1369.41,0.04337
1363.62,0.04341
1357.83,0.04287
1352.05,0.04210
1346.26,0.04148
1340.48,0.04145
1334.69,0.04086
1328.9,0.04076
1323.12,0.03961
1317.33,0.03952
1311.54,0.03886
1305.76,0.03857
1299.97,0.03826
1294.19,0.03907
1288.4,0.03829
1282.61,0.03814
1276.83,0.03861
1271.04,0.03983
1265.26,0.04043
1259.47,0.04127
1253.68,0.04161
1247.9,0.04306
1242.11,0.04276
1236.32,0.04313
1230.54,0.04328
1224.75,0.04331
1218.97,0.04343
1213.18,0.04398
1207.39,0.04398
1201.61,0.04495
1195.82,0.04581
1190.03,0.04664
1184.25,0.04728
1178.46,0.04853
1172.68,0.04928
1166.89,0.05071
1161.1,0.05290
1155.32,0.05510
1149.53,0.05686
1143.74,0.05695
1137.96,0.05651
1132.17,0.05638
1126.39,0.05597
1120.6,0.05626
1114.81,0.05750
1109.03,0.05821
1103.24,0.05909
1097.45,0.06031
1091.67,0.05999
1085.88,0.05971
1080.1,0.05920
1074.31,0.05975
1068.52,0.06217
1062.74,0.06379
1056.95,0.06432
1051.16,0.06581
1045.38,0.06671
1039.59,0.06757
1033.81,0.06775
1028.02,0.06794
1022.23,0.06855
1016.45,0.06987
1010.66,0.06940
1004.87,0.06896
999.089,0.06800
993.302,0.06850
987.516,0.06866
981.73,0.06916
975.944,0.06908
970.157,0.06906
964.371,0.06805
958.585,0.06865
952.799,0.06819
947.013,0.06736
941.226,0.06667
935.44,0.06566
929.654,0.06587
923.868,0.06563
918.081,0.06524
912.295,0.06506
906.509,0.06557
900.723,0.06506
894.937,0.06553
889.15,0.06625
883.364,0.06537
877.578,0.06541
871.792,0.06462
866.005,0.06448
860.219,0.06396
854.433,0.06259
848.647,0.06255
842.86,0.06210
837.074,0.06048
831.288,0.06011
825.502,0.06065
819.716,0.06237
813.929,0.06111
808.143,0.06245
802.357,0.06429
796.571,0.06382
790.784,0.06275
784.998,0.06188
779.212,0.06160
773.426,0.06072
767.64,0.06070
761.853,0.06108
756.067,0.06001
750.281,0.05970
744.495,0.05985
738.708,0.06073
732.922,0.06126
727.136,0.06280
721.35,0.06238
715.563,0.06236
709.777,0.06053
703.991,0.06147
698.205,0.06379
692.419,0.06549
686.632,0.06762
680.846,0.06931
675.06,0.07055
669.274,0.06726
663.487,0.06320
657.701,0.06129
651.915,0.05908
646.129,0.05981
640.343,0.05901
634.556,0.05657
628.77,0.05697
622.984,0.05773
617.198,0.05538
611.411,0.05668
605.625,0.05812
599.839,0.05739