File: 01_Data/Engineered_Flooring/FTIR/IS/Engineered_Flooring_IS_T_220909_R3.dpt
7497.02,0.02322
7491.24,0.02582
7485.45,0.02613
7479.66,0.02473
7473.88,0.02667
7468.09,0.02556
7462.3,0.02402
7456.52,0.03213
7450.73,0.02524
7444.95,0.02447
7439.16,0.03035
7433.37,0.03375
7427.59,0.02573
7421.8,0.01748
7416.01,0.02615
7410.23,0.01963
7404.44,0.01846
7398.66,0.02529
7392.87,0.01886
7387.08,0.01329
7381.3,0.02576
7375.51,0.02842
7369.73,0.02955
7363.94,0.02708
7358.15,0.02383
7352.37,0.01994
7346.58,0.02220
7340.79,0.02469
7335.01,0.02781
7329.22,0.02368
7323.44,0.02075
7317.65,0.02487
7311.86,0.02880
7306.08,0.02702
7300.29,0.01866
7294.5,0.02380
7288.72,0.03291
7282.93,0.02535
7277.15,0.02936
7271.36,0.02913
7265.57,0.02218
7259.79,0.02603
7254,0.02524
7248.21,0.03293
7242.43,0.02946
7236.64,0.02607
7230.86,0.02911
7225.07,0.02949
7219.28,0.02569
7213.5,0.02169
7207.71,0.03463
7201.92,0.02455
7196.14,0.02551
7190.35,0.02493
7184.57,0.02364
7178.78,0.01792
7172.99,0.02702
7167.21,0.02223
7161.42,0.02246
7155.63,0.02319
7149.85,0.02787
7144.06,0.02091
7138.28,0.02137
7132.49,0.02885
7126.7,0.02184
7120.92,0.03186
7115.13,0.02426
7109.34,0.02290
7103.56,0.02216
7097.77,0.01970
7091.99,0.02048
7086.2,0.02101
7080.41,0.02840
7074.63,0.02942
7068.84,0.02007
7063.06,0.02596
7057.27,0.02351
7051.48,0.02329
7045.7,0.02502
7039.91,0.02330
7034.12,0.02535
7028.34,0.01839
7022.55,0.02530
7016.77,0.02326
7010.98,0.02715
7005.19,0.02201
6999.41,0.02852
6993.62,0.02886
6987.83,0.02309
6982.05,0.02343
6976.26,0.02568
6970.48,0.02794
6964.69,0.02948
6958.9,0.02770
6953.12,0.02562
6947.33,0.02439
6941.54,0.02658
6935.76,0.02369
6929.97,0.01946
6924.19,0.02300
6918.4,0.02775
6912.61,0.02545
6906.83,0.02526
6901.04,0.02209
6895.25,0.02639
6889.47,0.02661
6883.68,0.02850
6877.9,0.02777
6872.11,0.01954
6866.32,0.01902
6860.54,0.02343
6854.75,0.02282
6848.96,0.02081
6843.18,0.02510
6837.39,0.02751
6831.61,0.02664
6825.82,0.02961
6820.03,0.03111
6814.25,0.03253
6808.46,0.02631
6802.67,0.02241
6796.89,0.02675
6791.1,0.02503
6785.32,0.02493
6779.53,0.02171
6773.74,0.02450
6767.96,0.02297
6762.17,0.02126
6756.38,0.02346
6750.6,0.02189
6744.81,0.02247
6739.03,0.02623
6733.24,0.02712
6727.45,0.02615
6721.67,0.02624
6715.88,0.02584
6710.1,0.02407
6704.31,0.02301
6698.52,0.02283
6692.74,0.02299
6686.95,0.02394
6681.16,0.02346
6675.38,0.02570
6669.59,0.02609
6663.81,0.02767
6658.02,0.02269
6652.23,0.02407
6646.45,0.02482
6640.66,0.02481
6634.87,0.02192
6629.09,0.02122
6623.3,0.02083
6617.52,0.02550
6611.73,0.02121
6605.94,0.02224
6600.16,0.02234
6594.37,0.02216
6588.58,0.02237
6582.8,0.02344
6577.01,0.02737
6571.23,0.02456
6565.44,0.02200
6559.65,0.02116
6553.87,0.02279
6548.08,0.02272
6542.29,0.02022
6536.51,0.02064
6530.72,0.02436
6524.94,0.02335
6519.15,0.02716
6513.36,0.01951
6507.58,0.02243
6501.79,0.02315
6496,0.02401
6490.22,0.02646
6484.43,0.02601
6478.65,0.02167
6472.86,0.02456
6467.07,0.02020
6461.29,0.01835
6455.5,0.02175
6449.71,0.01845
6443.93,0.02394
6438.14,0.02291
6432.36,0.02398
6426.57,0.02428
6420.78,0.02163
6415,0.02224
6409.21,0.02065
6403.43,0.02300
6397.64,0.02401
6391.85,0.02472
6386.07,0.02088
6380.28,0.01989
6374.49,0.02310
6368.71,0.02264
6362.92,0.02236
6357.14,0.02294
6351.35,0.02180
6345.56,0.02274
6339.78,0.02115
6333.99,0.02172
6328.2,0.01749
6322.42,0.02111
6316.63,0.02195
6310.85,0.02384
6305.06,0.02216
6299.27,0.02051
6293.49,0.02183
6287.7,0.02129
6281.91,0.02522
6276.13,0.02347
6270.34,0.02461
6264.56,0.02275
6258.77,0.02817
6252.98,0.02436
6247.2,0.02512
6241.41,0.02291
6235.62,0.02039
6229.84,0.02001
6224.05,0.02233
6218.27,0.02226
6212.48,0.01776
6206.69,0.02194
6200.91,0.02183
6195.12,0.02131
6189.33,0.01972
6183.55,0.02353
6177.76,0.02179
6171.98,0.02306
6166.19,0.02191
6160.4,0.02025
6154.62,0.02160
6148.83,0.02095
6143.04,0.02098
6137.26,0.02165
6131.47,0.02189
6125.69,0.02423
6119.9,0.02056
6114.11,0.02265
6108.33,0.02420
6102.54,0.02462
6096.76,0.02245
6090.97,0.02327
6085.18,0.02194
6079.4,0.02151
6073.61,0.02269
6067.82,0.02230
6062.04,0.02226
6056.25,0.02277
6050.47,0.02417
6044.68,0.02341
6038.89,0.01923
6033.11,0.02374
6027.32,0.02143
6021.53,0.02031
6015.75,0.01877
6009.96,0.02235
6004.18,0.02329
5998.39,0.02172
5992.6,0.02368
5986.82,0.02259
5981.03,0.02265
5975.24,0.02075
5969.46,0.02522
5963.67,0.02222
5957.89,0.02076
5952.1,0.02085
5946.31,0.02056
5940.53,0.02187
5934.74,0.02133
5928.95,0.02232
5923.17,0.02263
5917.38,0.02367
5911.6,0.02200
5905.81,0.02332
5900.02,0.02250
5894.24,0.02305
5888.45,0.02464
5882.66,0.02175
5876.88,0.02180
5871.09,0.02371
5865.31,0.02256
5859.52,0.01920
5853.73,0.02308
5847.95,0.02129
5842.16,0.02278
5836.37,0.02390
5830.59,0.01934
5824.8,0.02158
5819.02,0.02161
5813.23,0.02025
5807.44,0.02241
5801.66,0.02395
5795.87,0.02187
5790.08,0.02189
5784.3,0.02299
5778.51,0.02544
5772.73,0.02167
5766.94,0.02011
5761.15,0.02343
5755.37,0.02097
5749.58,0.02408
5743.8,0.02158
5738.01,0.02195
5732.22,0.02127
5726.44,0.02376
5720.65,0.02282
5714.86,0.02322
5709.08,0.02183
5703.29,0.02021
5697.51,0.02145
5691.72,0.02026
5685.93,0.02299
5680.15,0.02229
5674.36,0.02045
5668.57,0.02244
5662.79,0.02148
5657,0.02019
5651.22,0.02137
5645.43,0.02330
5639.64,0.02227
5633.86,0.02247
5628.07,0.02440
5622.28,0.02522
5616.5,0.02316
5610.71,0.02340
5604.93,0.02198
5599.14,0.02178
5593.35,0.02267
5587.57,0.02407
5581.78,0.02122
5575.99,0.02132
5570.21,0.02202
5564.42,0.02238
5558.64,0.02252
5552.85,0.02172
5547.06,0.02073
5541.28,0.02198
5535.49,0.02168
5529.7,0.02251
5523.92,0.02383
5518.13,0.02197
5512.35,0.02343
5506.56,0.02026
5500.77,0.02326
5494.99,0.02225
5489.2,0.02202
5483.41,0.02307
5477.63,0.02275
5471.84,0.02222
5466.06,0.02112
5460.27,0.02213
5454.48,0.02125
5448.7,0.02151
5442.91,0.02278
5437.13,0.02138
5431.34,0.02320
5425.55,0.02146
5419.77,0.02340
5413.98,0.02210
5408.19,0.02367
5402.41,0.02206
5396.62,0.02286
5390.84,0.02271
5385.05,0.02287
5379.26,0.02254
5373.48,0.02228
5367.69,0.02216
5361.9,0.02353
5356.12,0.02371
5350.33,0.02323
5344.55,0.02365
5338.76,0.02215
5332.97,0.02145
5327.19,0.02276
5321.4,0.02350
5315.61,0.02316
5309.83,0.02173
5304.04,0.02120
5298.26,0.02340
5292.47,0.02220
5286.68,0.02428
5280.9,0.02275
5275.11,0.02231
5269.32,0.02192
5263.54,0.02335
5257.75,0.02240
5251.97,0.02238
5246.18,0.02207
5240.39,0.02151
5234.61,0.02248
5228.82,0.02180
5223.03,0.02191
5217.25,0.02328
5211.46,0.02102
5205.68,0.02129
5199.89,0.02260
5194.1,0.02310
5188.32,0.02162
5182.53,0.02371
5176.74,0.02361
5170.96,0.02210
5165.17,0.02168
5159.39,0.02231
5153.6,0.02293
5147.81,0.02284
5142.03,0.02122
5136.24,0.02303
5130.46,0.02240
5124.67,0.02220
5118.88,0.02128
5113.1,0.02283
5107.31,0.02428
5101.52,0.02388
5095.74,0.02289
5089.95,0.02177
5084.17,0.02138
5078.38,0.02240
5072.59,0.02297
5066.81,0.02278
5061.02,0.02273
5055.23,0.02302
5049.45,0.02312
5043.66,0.02238
5037.88,0.02280
5032.09,0.02201
5026.3,0.02169
5020.52,0.02238
5014.73,0.02207
5008.94,0.02211
5003.16,0.02177
4997.37,0.02227
4991.59,0.02290
4985.8,0.02311
4980.01,0.02169
4974.23,0.02198
4968.44,0.02389
4962.65,0.02376
4956.87,0.02218
4951.08,0.02250
4945.3,0.02262
4939.51,0.02285
4933.72,0.02225
4927.94,0.02065
4922.15,0.02207
4916.36,0.02261
4910.58,0.02270
4904.79,0.02273
4899.01,0.02384
4893.22,0.02267
4887.43,0.02351
4881.65,0.02259
4875.86,0.02218
4870.07,0.02325
4864.29,0.02383
4858.5,0.02303
4852.72,0.02259
4846.93,0.02299
4841.14,0.02334
4835.36,0.02257
4829.57,0.02311
4823.78,0.02242
4818,0.02335
4812.21,0.02212
4806.43,0.02219
4800.64,0.02171
4794.85,0.02393
4789.07,0.02256
4783.28,0.02134
4777.5,0.02238
4771.71,0.02292
4765.92,0.02270
4760.14,0.02276
4754.35,0.02336
4748.56,0.02246
4742.78,0.02226
4736.99,0.02263
4731.21,0.02272
4725.42,0.02212
4719.63,0.02343
4713.85,0.02303
4708.06,0.02289
4702.27,0.02338
4696.49,0.02302
4690.7,0.02274
4684.92,0.02246
4679.13,0.02231
4673.34,0.02359
4667.56,0.02206
4661.77,0.02153
4655.98,0.02135
4650.2,0.02255
4644.41,0.02340
4638.63,0.02296
4632.84,0.02192
4627.05,0.02295
4621.27,0.02276
4615.48,0.02238
4609.69,0.02228
4603.91,0.02241
4598.12,0.02316
4592.34,0.02303
4586.55,0.02232
4580.76,0.02171
4574.98,0.02202
4569.19,0.02299
4563.4,0.02286
4557.62,0.02292
4551.83,0.02300
4546.05,0.02273
4540.26,0.02331
4534.47,0.02327
4528.69,0.02266
4522.9,0.02364
4517.11,0.02251
4511.33,0.02289
4505.54,0.02309
4499.76,0.02289
4493.97,0.02241
4488.18,0.02227
4482.4,0.02267
4476.61,0.02258
4470.83,0.02346
4465.04,0.02272
4459.25,0.02245
4453.47,0.02196
4447.68,0.02221
4441.89,0.02288
4436.11,0.02273
4430.32,0.02266
4424.54,0.02289
4418.75,0.02261
4412.96,0.02282
4407.18,0.02270
4401.39,0.02228
4395.6,0.02304
4389.82,0.02309
4384.03,0.02258
4378.25,0.02327
4372.46,0.02248
4366.67,0.02251
4360.89,0.02254
4355.1,0.02270
4349.31,0.02263
4343.53,0.02312
4337.74,0.02243
4331.96,0.02273
4326.17,0.02344
4320.38,0.02183
4314.6,0.02286
4308.81,0.02228
4303.02,0.02252
4297.24,0.02335
4291.45,0.02254
4285.67,0.02242
4279.88,0.02259
4274.09,0.02298
4268.31,0.02329
4262.52,0.02229
4256.73,0.02358
4250.95,0.02311
4245.16,0.02253
4239.38,0.02300
4233.59,0.02353
4227.8,0.02288
4222.02,0.02281
4216.23,0.02270
4210.44,0.02293
4204.66,0.02280
4198.87,0.02288
4193.09,0.02244
4187.3,0.02241
4181.51,0.02236
4175.73,0.02215
4169.94,0.02295
4164.16,0.02295
4158.37,0.02288
4152.58,0.02287
4146.8,0.02260
4141.01,0.02321
4135.22,0.02330
4129.44,0.02286
4123.65,0.02248
4117.87,0.02235
4112.08,0.02250
4106.29,0.02262
4100.51,0.02235
4094.72,0.02268
4088.93,0.02253
4083.15,0.02334
4077.36,0.02219
4071.58,0.02286
4065.79,0.02201
4060,0.02233
4054.22,0.02288
4048.43,0.02209
4042.64,0.02264
4036.86,0.02263
4031.07,0.02279
4025.29,0.02240
4019.5,0.02259
4013.71,0.02176
4007.93,0.02286
4002.14,0.02302
3996.35,0.02281
3990.57,0.02287
3984.78,0.02269
3979,0.02230
3973.21,0.02247
3967.42,0.02271
3961.64,0.02344
3955.85,0.02291
3950.06,0.02289
3944.28,0.02235
3938.49,0.02333
3932.71,0.02283
3926.92,0.02319
3921.13,0.02242
3915.35,0.02236
3909.56,0.02267
3903.77,0.02306
3897.99,0.02256
3892.2,0.02315
3886.42,0.02294
3880.63,0.02244
3874.84,0.02333
3869.06,0.02308
3863.27,0.02283
3857.48,0.02325
3851.7,0.02203
3845.91,0.02307
3840.13,0.02301
3834.34,0.02306
3828.55,0.02293
3822.77,0.02309
3816.98,0.02270
3811.2,0.02288
3805.41,0.02288
3799.62,0.02295
3793.84,0.02285
3788.05,0.02291
3782.26,0.02288
3776.48,0.02337
3770.69,0.02313
3764.91,0.02313
3759.12,0.02346
3753.33,0.02329
3747.55,0.02308
3741.76,0.02297
3735.97,0.02262
3730.19,0.02314
3724.4,0.02296
3718.62,0.02298
3712.83,0.02272
3707.04,0.02247
3701.26,0.02274
3695.47,0.02235
3689.68,0.02329
3683.9,0.02306
3678.11,0.02316
3672.33,0.02233
3666.54,0.02262
3660.75,0.02283
3654.97,0.02225
3649.18,0.02252
3643.39,0.02213
3637.61,0.02220
3631.82,0.02230
3626.04,0.02180
3620.25,0.02206
3614.46,0.02215
3608.68,0.02256
3602.89,0.02125
3597.1,0.02106
3591.32,0.02135
3585.53,0.02179
3579.75,0.02171
3573.96,0.02184
3568.17,0.02137
3562.39,0.02098
3556.6,0.02133
3550.81,0.02188
3545.03,0.02153
3539.24,0.02091
3533.46,0.02143
3527.67,0.02110
3521.88,0.02126
3516.1,0.02099
3510.31,0.02088
3504.53,0.02110
3498.74,0.02111
3492.95,0.02105
3487.17,0.02119
3481.38,0.02092
3475.59,0.02090
3469.81,0.02047
3464.02,0.02137
3458.24,0.02049
3452.45,0.02078
3446.66,0.02099
3440.88,0.02136
3435.09,0.02081
3429.3,0.02037
3423.52,0.02010
3417.73,0.02072
3411.95,0.02081
3406.16,0.02030
3400.37,0.02094
3394.59,0.02076
3388.8,0.02072
3383.01,0.02043
3377.23,0.02022
3371.44,0.02100
3365.66,0.02034
3359.87,0.02053
3354.08,0.02016
3348.3,0.02024
3342.51,0.02008
3336.72,0.02095
3330.94,0.02099
3325.15,0.02026
3319.37,0.01985
3313.58,0.02071
3307.79,0.02051
3302.01,0.02072
3296.22,0.02075
3290.43,0.02064
3284.65,0.02020
3278.86,0.02030
3273.08,0.01987
3267.29,0.02090
3261.5,0.01993
3255.72,0.02040
3249.93,0.02036
3244.14,0.02068
3238.36,0.01973
3232.57,0.02091
3226.79,0.02056
3221,0.02057
3215.21,0.02077
3209.43,0.02080
3203.64,0.02107
3197.86,0.02081
3192.07,0.02085
3186.28,0.02091
3180.5,0.02102
3174.71,0.02091
3168.92,0.02113
3163.14,0.02064
3157.35,0.02056
3151.57,0.02047
3145.78,0.02127
3139.99,0.02127
3134.21,0.02121
3128.42,0.02051
3122.63,0.02144
3116.85,0.02137
3111.06,0.02086
3105.28,0.02076
3099.49,0.02060
3093.7,0.02002
3087.92,0.02053
3082.13,0.02036
3076.34,0.02059
3070.56,0.02082
3064.77,0.02046
3058.99,0.02099
3053.2,0.02050
3047.41,0.02091
3041.63,0.02093
3035.84,0.02121
3030.05,0.02071
3024.27,0.02039
3018.48,0.02083
3012.7,0.02047
3006.91,0.02072
3001.12,0.02072
2995.34,0.02045
2989.55,0.02037
2983.76,0.02028
2977.98,0.01996
2972.19,0.01975
2966.41,0.01949
2960.62,0.01939
2954.83,0.02007
2949.05,0.01974
2943.26,0.01951
2937.47,0.01983
2931.69,0.01980
2925.9,0.01990
2920.12,0.01996
2914.33,0.02096
2908.54,0.02058
2902.76,0.02051
2896.97,0.02041
2891.18,0.02100
2885.4,0.02060
2879.61,0.02029
2873.83,0.02017
2868.04,0.02080
2862.25,0.02067
2856.47,0.02126
2850.68,0.02131
2844.9,0.02146
2839.11,0.02146
2833.32,0.02175
2827.54,0.02134
2821.75,0.02168
2815.96,0.02171
2810.18,0.02160
2804.39,0.02105
2798.61,0.02125
2792.82,0.02162
2787.03,0.02113
2781.25,0.02132
2775.46,0.02166
2769.67,0.02159
2763.89,0.02163
2758.1,0.02156
2752.32,0.02158
2746.53,0.02100
2740.74,0.02127
2734.96,0.02150
2729.17,0.02140
2723.38,0.02174
2717.6,0.02130
2711.81,0.02138
2706.03,0.02149
2700.24,0.02126
2694.45,0.02162
2688.67,0.02150
2682.88,0.02145
2677.09,0.02146
2671.31,0.02135
2665.52,0.02122
2659.74,0.02158
2653.95,0.02161
2648.16,0.02180
2642.38,0.02143
2636.59,0.02196
2630.8,0.02170
2625.02,0.02086
2619.23,0.02155
2613.45,0.02107
2607.66,0.02145
2601.87,0.02131
2596.09,0.02165
2590.3,0.02141
2584.51,0.02147
2578.73,0.02153
2572.94,0.02110
2567.16,0.02104
2561.37,0.02115
2555.58,0.02108
2549.8,0.02125
2544.01,0.02107
2538.23,0.02117
2532.44,0.02153
2526.65,0.02113
2520.87,0.02133
2515.08,0.02125
2509.29,0.02145
2503.51,0.02147
2497.72,0.02130
2491.94,0.02127
2486.15,0.02097
2480.36,0.02132
2474.58,0.02130
2468.79,0.02160
2463,0.02155
2457.22,0.02173
2451.43,0.02166
2445.65,0.02153
2439.86,0.02119
2434.07,0.02137
2428.29,0.02127
2422.5,0.02107
2416.71,0.02122
2410.93,0.02118
2405.14,0.02182
2399.36,0.02147
2393.57,0.02122
2387.78,0.02101
2382,0.02131
2376.21,0.02166
2370.42,0.02171
2364.64,0.02133
2358.85,0.02135
2353.07,0.02138
2347.28,0.02130
2341.49,0.02145
2335.71,0.02145
2329.92,0.02138
2324.13,0.02158
2318.35,0.02136
2312.56,0.02147
2306.78,0.02123
2300.99,0.02116
2295.2,0.02145
2289.42,0.02138
2283.63,0.02114
2277.84,0.02126
2272.06,0.02149
2266.27,0.02116
2260.49,0.02136
2254.7,0.02127
2248.91,0.02099
2243.13,0.02121
2237.34,0.02138
2231.56,0.02115
2225.77,0.02125
2219.98,0.02137
2214.2,0.02132
2208.41,0.02106
2202.62,0.02117
2196.84,0.02093
2191.05,0.02149
2185.27,0.02106
2179.48,0.02139
2173.69,0.02118
2167.91,0.02105
2162.12,0.02116
2156.33,0.02117
2150.55,0.02105
2144.76,0.02090
2138.98,0.02126
2133.19,0.02118
2127.4,0.02106
2121.62,0.02104
2115.83,0.02112
2110.04,0.02102
2104.26,0.02092
2098.47,0.02095
2092.69,0.02103
2086.9,0.02115
2081.11,0.02099
2075.33,0.02086
2069.54,0.02080
2063.75,0.02097
2057.97,0.02096
2052.18,0.02084
2046.4,0.02070
2040.61,0.02100
2034.82,0.02081
2029.04,0.02126
2023.25,0.02092
2017.46,0.02085
2011.68,0.02080
2005.89,0.02082
2000.11,0.02111
1994.32,0.02128
1988.53,0.02133
1982.75,0.02077
1976.96,0.02108
1971.17,0.02107
1965.39,0.02052
1959.6,0.02103
1953.82,0.02102
1948.03,0.02095
1942.24,0.02089
1936.46,0.02087
1930.67,0.02065
1924.89,0.02050
1919.1,0.02032
1913.31,0.02074
1907.53,0.02104
1901.74,0.02047
1895.95,0.02104
1890.17,0.02082
1884.38,0.02058
1878.6,0.02060
1872.81,0.02086
1867.02,0.02062
1861.24,0.02039
1855.45,0.02046
1849.66,0.02060
1843.88,0.02041
1838.09,0.02056
1832.31,0.02029
1826.52,0.02009
1820.73,0.02029
1814.95,0.01992
1809.16,0.01986
1803.37,0.01976
1797.59,0.01974
1791.8,0.01945
1786.02,0.01930
1780.23,0.01899
1774.44,0.01880
1768.66,0.01858
1762.87,0.01815
1757.08,0.01788
1751.3,0.01764
1745.51,0.01791
1739.73,0.01878
1733.94,0.01988
1728.15,0.02035
1722.37,0.02113
1716.58,0.02105
1710.79,0.02058
1705.01,0.02015
1699.22,0.01955
1693.44,0.01883
1687.65,0.01938
1681.86,0.01908
1676.08,0.01898
1670.29,0.01893
1664.5,0.01817
1658.72,0.01829
1652.93,0.01802
1647.15,0.01858
1641.36,0.01875
1635.57,0.01886
1629.79,0.01889
1624,0.01862
1618.21,0.01916
1612.43,0.01885
1606.64,0.01923
1600.86,0.01924
1595.07,0.01896
1589.28,0.01867
1583.5,0.01857
1577.71,0.01862
1571.93,0.01839
1566.14,0.01803
1560.35,0.01865
1554.57,0.01857
1548.78,0.01855
1542.99,0.01846
1537.21,0.01845
1531.42,0.01852
1525.64,0.01871
1519.85,0.01893
1514.06,0.01871
1508.28,0.01878
1502.49,0.01861
1496.7,0.01937
1490.92,0.01908
1485.13,0.01905
1479.35,0.01858
1473.56,0.01850
1467.77,0.01853
1461.99,0.01863
1456.2,0.01901
1450.41,0.01872
1444.63,0.01871
1438.84,0.01883
1433.06,0.01889
1427.27,0.01880
1421.48,0.01890
1415.7,0.01838
1409.91,0.01848
1404.12,0.01833
1398.34,0.01855
1392.55,0.01859
1386.77,0.01826
1380.98,0.01820
1375.19,0.01843
1369.41,0.01812
1363.62,0.01844
1357.83,0.01830
1352.05,0.01810
1346.26,0.01781
1340.48,0.01793
1334.69,0.01764
1328.9,0.01728
1323.12,0.01691
1317.33,0.01726
1311.54,0.01697
1305.76,0.01741
1299.97,0.01773
1294.19,0.01794
1288.4,0.01891
1282.61,0.01879
1276.83,0.01896
1271.04,0.01965
1265.26,0.01970
1259.47,0.01977
1253.68,0.02006
1247.9,0.02006
1242.11,0.02037
1236.32,0.02030
1230.54,0.01980
1224.75,0.01946
1218.97,0.01950
1213.18,0.01938
1207.39,0.01880
1201.61,0.01839
1195.82,0.01834
1190.03,0.01894
1184.25,0.01849
1178.46,0.01807
1172.68,0.01803
1166.89,0.01763
1161.1,0.01789
1155.32,0.01755
1149.53,0.01773
1143.74,0.01754
1137.96,0.01744
1132.17,0.01821
1126.39,0.01852
1120.6,0.01898
1114.81,0.01926
1109.03,0.01904
1103.24,0.01862
1097.45,0.01838
1091.67,0.01816
1085.88,0.01742
1080.1,0.01846
1074.31,0.01888
1068.52,0.01966
1062.74,0.01957
1056.95,0.02013
1051.16,0.01972
1045.38,0.01960
1039.59,0.01968
1033.81,0.01939
1028.02,0.01958
1022.23,0.01958
1016.45,0.01899
1010.66,0.01954
1004.87,0.02090
999.089,0.02081
993.302,0.02109
987.516,0.02110
981.73,0.02053
975.944,0.02047
970.157,0.02033
964.371,0.02032
958.585,0.02050
952.799,0.02048
947.013,0.02013
941.226,0.01957
935.44,0.01991
929.654,0.01973
923.868,0.01962
918.081,0.01890
912.295,0.01902
906.509,0.01884
900.723,0.01944
894.937,0.01934
889.15,0.02018
883.364,0.01919
877.578,0.01827
871.792,0.01932
866.005,0.01902
860.219,0.01931
854.433,0.01941
848.647,0.01863
842.86,0.01897
837.074,0.01864
831.288,0.01965
825.502,0.01925
819.716,0.01870
813.929,0.01922
808.143,0.01873
802.357,0.01846
796.571,0.01941
790.784,0.01926
784.998,0.01877
779.212,0.01875
773.426,0.01802
767.64,0.01790
761.853,0.01853
756.067,0.01809
750.281,0.01822
744.495,0.01797
738.708,0.01796
732.922,0.01815
727.136,0.01798
721.35,0.01725
715.563,0.01779
709.777,0.01792
703.991,0.01825
698.205,0.01873
692.419,0.01863
686.632,0.01752
680.846,0.01741
675.06,0.01655
669.274,0.01731
663.487,0.01845
657.701,0.01737
651.915,0.01518
646.129,0.01581
640.343,0.01599
634.556,0.01557
628.77,0.01552
622.984,0.01572
617.198,0.01555
611.411,0.01515
605.625,0.01606
599.839,0.01434