File: 01_Data/Engineered_Flooring/FTIR/IS/Engineered_Flooring_IS_T_220909_R7.dpt
7497.02,0.02021
7491.24,0.02962
7485.45,0.02655
7479.66,0.03201
7473.88,0.03005
7468.09,0.01684
7462.3,0.01902
7456.52,0.02096
7450.73,0.01952
7444.95,0.02964
7439.16,0.02438
7433.37,0.02787
7427.59,0.02472
7421.8,0.02261
7416.01,0.02917
7410.23,0.02075
7404.44,0.02034
7398.66,0.02749
7392.87,0.01883
7387.08,0.02879
7381.3,0.02280
7375.51,0.03043
7369.73,0.02889
7363.94,0.02676
7358.15,0.02220
7352.37,0.02275
7346.58,0.02480
7340.79,0.03512
7335.01,0.01803
7329.22,0.02133
7323.44,0.02190
7317.65,0.02426
7311.86,0.02793
7306.08,0.03122
7300.29,0.02270
7294.5,0.02129
7288.72,0.02987
7282.93,0.03052
7277.15,0.03532
7271.36,0.02303
7265.57,0.03307
7259.79,0.02404
7254,0.02370
7248.21,0.02701
7242.43,0.02956
7236.64,0.02452
7230.86,0.03032
7225.07,0.02799
7219.28,0.02599
7213.5,0.02478
7207.71,0.02373
7201.92,0.02268
7196.14,0.02808
7190.35,0.02856
7184.57,0.03141
7178.78,0.02178
7172.99,0.02703
7167.21,0.02424
7161.42,0.02806
7155.63,0.02745
7149.85,0.02171
7144.06,0.02295
7138.28,0.02722
7132.49,0.02548
7126.7,0.02637
7120.92,0.02210
7115.13,0.02303
7109.34,0.02847
7103.56,0.02195
7097.77,0.02983
7091.99,0.02379
7086.2,0.02278
7080.41,0.02188
7074.63,0.02446
7068.84,0.02520
7063.06,0.02384
7057.27,0.02381
7051.48,0.02902
7045.7,0.02897
7039.91,0.02815
7034.12,0.02599
7028.34,0.02556
7022.55,0.02556
7016.77,0.02720
7010.98,0.02392
7005.19,0.01979
6999.41,0.02189
6993.62,0.02512
6987.83,0.02621
6982.05,0.02175
6976.26,0.02434
6970.48,0.02221
6964.69,0.02128
6958.9,0.02724
6953.12,0.01952
6947.33,0.02336
6941.54,0.02866
6935.76,0.01786
6929.97,0.02231
6924.19,0.02580
6918.4,0.02118
6912.61,0.02889
6906.83,0.02789
6901.04,0.02672
6895.25,0.02294
6889.47,0.01996
6883.68,0.02203
6877.9,0.01973
6872.11,0.02280
6866.32,0.03137
6860.54,0.02523
6854.75,0.02649
6848.96,0.02462
6843.18,0.02284
6837.39,0.02781
6831.61,0.02342
6825.82,0.02344
6820.03,0.02240
6814.25,0.02779
6808.46,0.02042
6802.67,0.02908
6796.89,0.02298
6791.1,0.02524
6785.32,0.02427
6779.53,0.02523
6773.74,0.02403
6767.96,0.02317
6762.17,0.02727
6756.38,0.02332
6750.6,0.02222
6744.81,0.02638
6739.03,0.02539
6733.24,0.02039
6727.45,0.02642
6721.67,0.02279
6715.88,0.01862
6710.1,0.02260
6704.31,0.02098
6698.52,0.02108
6692.74,0.02528
6686.95,0.02400
6681.16,0.02524
6675.38,0.02370
6669.59,0.02434
6663.81,0.02373
6658.02,0.02352
6652.23,0.02892
6646.45,0.02690
6640.66,0.02401
6634.87,0.02426
6629.09,0.02708
6623.3,0.02287
6617.52,0.02461
6611.73,0.02076
6605.94,0.02584
6600.16,0.02446
6594.37,0.02418
6588.58,0.02272
6582.8,0.02288
6577.01,0.02460
6571.23,0.02244
6565.44,0.01821
6559.65,0.02066
6553.87,0.02485
6548.08,0.02228
6542.29,0.02234
6536.51,0.02434
6530.72,0.02022
6524.94,0.02580
6519.15,0.02272
6513.36,0.02203
6507.58,0.02213
6501.79,0.01752
6496,0.02280
6490.22,0.02619
6484.43,0.02393
6478.65,0.02202
6472.86,0.02000
6467.07,0.02084
6461.29,0.02440
6455.5,0.02568
6449.71,0.02562
6443.93,0.02182
6438.14,0.02321
6432.36,0.01987
6426.57,0.02444
6420.78,0.02300
6415,0.02323
6409.21,0.02475
6403.43,0.02394
6397.64,0.02017
6391.85,0.02091
6386.07,0.02139
6380.28,0.02107
6374.49,0.02385
6368.71,0.01983
6362.92,0.02092
6357.14,0.01895
6351.35,0.02424
6345.56,0.02065
6339.78,0.02205
6333.99,0.01904
6328.2,0.02502
6322.42,0.02104
6316.63,0.02172
6310.85,0.02575
6305.06,0.02357
6299.27,0.02067
6293.49,0.01767
6287.7,0.02366
6281.91,0.02190
6276.13,0.01910
6270.34,0.02183
6264.56,0.02345
6258.77,0.02165
6252.98,0.02272
6247.2,0.02218
6241.41,0.02301
6235.62,0.02348
6229.84,0.02276
6224.05,0.02086
6218.27,0.02180
6212.48,0.02221
6206.69,0.02228
6200.91,0.02206
6195.12,0.02214
6189.33,0.02445
6183.55,0.02095
6177.76,0.02347
6171.98,0.02416
6166.19,0.02376
6160.4,0.02283
6154.62,0.02256
6148.83,0.02250
6143.04,0.02036
6137.26,0.02348
6131.47,0.02178
6125.69,0.02320
6119.9,0.02229
6114.11,0.02176
6108.33,0.02329
6102.54,0.01965
6096.76,0.01990
6090.97,0.02218
6085.18,0.02134
6079.4,0.02217
6073.61,0.02248
6067.82,0.02031
6062.04,0.02175
6056.25,0.02072
6050.47,0.02058
6044.68,0.02088
6038.89,0.02063
6033.11,0.02507
6027.32,0.02409
6021.53,0.02122
6015.75,0.02240
6009.96,0.02483
6004.18,0.02129
5998.39,0.02388
5992.6,0.01755
5986.82,0.02293
5981.03,0.02333
5975.24,0.02093
5969.46,0.02024
5963.67,0.02187
5957.89,0.02218
5952.1,0.01954
5946.31,0.02296
5940.53,0.02490
5934.74,0.02359
5928.95,0.02479
5923.17,0.02305
5917.38,0.02237
5911.6,0.02210
5905.81,0.02333
5900.02,0.02291
5894.24,0.02122
5888.45,0.02416
5882.66,0.02559
5876.88,0.02275
5871.09,0.02074
5865.31,0.02186
5859.52,0.02083
5853.73,0.02529
5847.95,0.02247
5842.16,0.02105
5836.37,0.02188
5830.59,0.02141
5824.8,0.02148
5819.02,0.02396
5813.23,0.02110
5807.44,0.02075
5801.66,0.02122
5795.87,0.02044
5790.08,0.01912
5784.3,0.01974
5778.51,0.02244
5772.73,0.02095
5766.94,0.02114
5761.15,0.02144
5755.37,0.02310
5749.58,0.02296
5743.8,0.02137
5738.01,0.02223
5732.22,0.02294
5726.44,0.02093
5720.65,0.02339
5714.86,0.02074
5709.08,0.02190
5703.29,0.02108
5697.51,0.02143
5691.72,0.02288
5685.93,0.02286
5680.15,0.02175
5674.36,0.02271
5668.57,0.02118
5662.79,0.02159
5657,0.02264
5651.22,0.02226
5645.43,0.02346
5639.64,0.02252
5633.86,0.02302
5628.07,0.02323
5622.28,0.02302
5616.5,0.02110
5610.71,0.02013
5604.93,0.02391
5599.14,0.02401
5593.35,0.02298
5587.57,0.02264
5581.78,0.02282
5575.99,0.02258
5570.21,0.02363
5564.42,0.01989
5558.64,0.02030
5552.85,0.02078
5547.06,0.02214
5541.28,0.02076
5535.49,0.02184
5529.7,0.02150
5523.92,0.02374
5518.13,0.02274
5512.35,0.02140
5506.56,0.02122
5500.77,0.02259
5494.99,0.02514
5489.2,0.02306
5483.41,0.02209
5477.63,0.02167
5471.84,0.02289
5466.06,0.02438
5460.27,0.01940
5454.48,0.02158
5448.7,0.02233
5442.91,0.02077
5437.13,0.02201
5431.34,0.02304
5425.55,0.02315
5419.77,0.02306
5413.98,0.02157
5408.19,0.02242
5402.41,0.02208
5396.62,0.02121
5390.84,0.02084
5385.05,0.02335
5379.26,0.02264
5373.48,0.02126
5367.69,0.02090
5361.9,0.02200
5356.12,0.02227
5350.33,0.02409
5344.55,0.02284
5338.76,0.02293
5332.97,0.02198
5327.19,0.02291
5321.4,0.02160
5315.61,0.02263
5309.83,0.02330
5304.04,0.02234
5298.26,0.02284
5292.47,0.02379
5286.68,0.02224
5280.9,0.02463
5275.11,0.02256
5269.32,0.02328
5263.54,0.02335
5257.75,0.02101
5251.97,0.02248
5246.18,0.02335
5240.39,0.02138
5234.61,0.02333
5228.82,0.02325
5223.03,0.02092
5217.25,0.02211
5211.46,0.02235
5205.68,0.02246
5199.89,0.02166
5194.1,0.02232
5188.32,0.02113
5182.53,0.02224
5176.74,0.02418
5170.96,0.02272
5165.17,0.02235
5159.39,0.02124
5153.6,0.02183
5147.81,0.02159
5142.03,0.02309
5136.24,0.02261
5130.46,0.02245
5124.67,0.02208
5118.88,0.02214
5113.1,0.02331
5107.31,0.02215
5101.52,0.02239
5095.74,0.02242
5089.95,0.02241
5084.17,0.02191
5078.38,0.02190
5072.59,0.02361
5066.81,0.02084
5061.02,0.02226
5055.23,0.02234
5049.45,0.02188
5043.66,0.02212
5037.88,0.02261
5032.09,0.02309
5026.3,0.02437
5020.52,0.02259
5014.73,0.02294
5008.94,0.02178
5003.16,0.02276
4997.37,0.02269
4991.59,0.02255
4985.8,0.02219
4980.01,0.02334
4974.23,0.02381
4968.44,0.02184
4962.65,0.02300
4956.87,0.02188
4951.08,0.02264
4945.3,0.02280
4939.51,0.02234
4933.72,0.02275
4927.94,0.02316
4922.15,0.02289
4916.36,0.02358
4910.58,0.02263
4904.79,0.02235
4899.01,0.02211
4893.22,0.02207
4887.43,0.02271
4881.65,0.02200
4875.86,0.02328
4870.07,0.02322
4864.29,0.02256
4858.5,0.02219
4852.72,0.02208
4846.93,0.02284
4841.14,0.02268
4835.36,0.02235
4829.57,0.02336
4823.78,0.02265
4818,0.02192
4812.21,0.02257
4806.43,0.02355
4800.64,0.02138
4794.85,0.02276
4789.07,0.02300
4783.28,0.02320
4777.5,0.02259
4771.71,0.02306
4765.92,0.02279
4760.14,0.02333
4754.35,0.02270
4748.56,0.02205
4742.78,0.02311
4736.99,0.02150
4731.21,0.02304
4725.42,0.02206
4719.63,0.02228
4713.85,0.02208
4708.06,0.02162
4702.27,0.02208
4696.49,0.02248
4690.7,0.02147
4684.92,0.02314
4679.13,0.02328
4673.34,0.02246
4667.56,0.02234
4661.77,0.02240
4655.98,0.02168
4650.2,0.02327
4644.41,0.02264
4638.63,0.02317
4632.84,0.02254
4627.05,0.02260
4621.27,0.02257
4615.48,0.02287
4609.69,0.02320
4603.91,0.02309
4598.12,0.02284
4592.34,0.02168
4586.55,0.02266
4580.76,0.02255
4574.98,0.02314
4569.19,0.02221
4563.4,0.02221
4557.62,0.02251
4551.83,0.02180
4546.05,0.02259
4540.26,0.02295
4534.47,0.02205
4528.69,0.02247
4522.9,0.02343
4517.11,0.02325
4511.33,0.02275
4505.54,0.02371
4499.76,0.02300
4493.97,0.02165
4488.18,0.02212
4482.4,0.02241
4476.61,0.02223
4470.83,0.02244
4465.04,0.02260
4459.25,0.02283
4453.47,0.02270
4447.68,0.02228
4441.89,0.02342
4436.11,0.02234
4430.32,0.02206
4424.54,0.02290
4418.75,0.02283
4412.96,0.02289
4407.18,0.02205
4401.39,0.02257
4395.6,0.02187
4389.82,0.02246
4384.03,0.02342
4378.25,0.02287
4372.46,0.02238
4366.67,0.02308
4360.89,0.02241
4355.1,0.02258
4349.31,0.02196
4343.53,0.02238
4337.74,0.02296
4331.96,0.02259
4326.17,0.02254
4320.38,0.02250
4314.6,0.02203
4308.81,0.02262
4303.02,0.02323
4297.24,0.02327
4291.45,0.02258
4285.67,0.02315
4279.88,0.02250
4274.09,0.02239
4268.31,0.02207
4262.52,0.02315
4256.73,0.02292
4250.95,0.02330
4245.16,0.02285
4239.38,0.02264
4233.59,0.02288
4227.8,0.02244
4222.02,0.02282
4216.23,0.02254
4210.44,0.02217
4204.66,0.02231
4198.87,0.02292
4193.09,0.02267
4187.3,0.02170
4181.51,0.02285
4175.73,0.02347
4169.94,0.02231
4164.16,0.02264
4158.37,0.02261
4152.58,0.02210
4146.8,0.02203
4141.01,0.02300
4135.22,0.02337
4129.44,0.02284
4123.65,0.02294
4117.87,0.02288
4112.08,0.02272
4106.29,0.02342
4100.51,0.02290
4094.72,0.02318
4088.93,0.02275
4083.15,0.02333
4077.36,0.02386
4071.58,0.02321
4065.79,0.02285
4060,0.02305
4054.22,0.02338
4048.43,0.02282
4042.64,0.02320
4036.86,0.02262
4031.07,0.02210
4025.29,0.02276
4019.5,0.02288
4013.71,0.02352
4007.93,0.02289
4002.14,0.02264
3996.35,0.02230
3990.57,0.02265
3984.78,0.02264
3979,0.02346
3973.21,0.02307
3967.42,0.02332
3961.64,0.02354
3955.85,0.02253
3950.06,0.02346
3944.28,0.02340
3938.49,0.02298
3932.71,0.02333
3926.92,0.02275
3921.13,0.02262
3915.35,0.02285
3909.56,0.02320
3903.77,0.02315
3897.99,0.02307
3892.2,0.02327
3886.42,0.02314
3880.63,0.02319
3874.84,0.02275
3869.06,0.02265
3863.27,0.02234
3857.48,0.02318
3851.7,0.02307
3845.91,0.02276
3840.13,0.02277
3834.34,0.02336
3828.55,0.02309
3822.77,0.02354
3816.98,0.02269
3811.2,0.02359
3805.41,0.02340
3799.62,0.02261
3793.84,0.02317
3788.05,0.02267
3782.26,0.02260
3776.48,0.02333
3770.69,0.02259
3764.91,0.02286
3759.12,0.02241
3753.33,0.02288
3747.55,0.02317
3741.76,0.02313
3735.97,0.02314
3730.19,0.02254
3724.4,0.02254
3718.62,0.02252
3712.83,0.02246
3707.04,0.02249
3701.26,0.02214
3695.47,0.02270
3689.68,0.02293
3683.9,0.02239
3678.11,0.02264
3672.33,0.02283
3666.54,0.02283
3660.75,0.02237
3654.97,0.02233
3649.18,0.02212
3643.39,0.02209
3637.61,0.02255
3631.82,0.02270
3626.04,0.02243
3620.25,0.02214
3614.46,0.02237
3608.68,0.02202
3602.89,0.02247
3597.1,0.02200
3591.32,0.02179
3585.53,0.02198
3579.75,0.02176
3573.96,0.02182
3568.17,0.02141
3562.39,0.02159
3556.6,0.02139
3550.81,0.02155
3545.03,0.02126
3539.24,0.02094
3533.46,0.02098
3527.67,0.02131
3521.88,0.02127
3516.1,0.02087
3510.31,0.02018
3504.53,0.02089
3498.74,0.02087
3492.95,0.02054
3487.17,0.02170
3481.38,0.02109
3475.59,0.02168
3469.81,0.02090
3464.02,0.02104
3458.24,0.02096
3452.45,0.02127
3446.66,0.02087
3440.88,0.02122
3435.09,0.02115
3429.3,0.02152
3423.52,0.02086
3417.73,0.02087
3411.95,0.02102
3406.16,0.02085
3400.37,0.02009
3394.59,0.02058
3388.8,0.02075
3383.01,0.02042
3377.23,0.02029
3371.44,0.02064
3365.66,0.02116
3359.87,0.02072
3354.08,0.02013
3348.3,0.02008
3342.51,0.02013
3336.72,0.02019
3330.94,0.02041
3325.15,0.02041
3319.37,0.02109
3313.58,0.02045
3307.79,0.02045
3302.01,0.02018
3296.22,0.01999
3290.43,0.01979
3284.65,0.02034
3278.86,0.02134
3273.08,0.02012
3267.29,0.02074
3261.5,0.02015
3255.72,0.02066
3249.93,0.02073
3244.14,0.02109
3238.36,0.02114
3232.57,0.02085
3226.79,0.02118
3221,0.02066
3215.21,0.02095
3209.43,0.02185
3203.64,0.02143
3197.86,0.02093
3192.07,0.02129
3186.28,0.02035
3180.5,0.02118
3174.71,0.02136
3168.92,0.02125
3163.14,0.02105
3157.35,0.02113
3151.57,0.02164
3145.78,0.02095
3139.99,0.02145
3134.21,0.02100
3128.42,0.02157
3122.63,0.02178
3116.85,0.02069
3111.06,0.02075
3105.28,0.02133
3099.49,0.02119
3093.7,0.02118
3087.92,0.02049
3082.13,0.02029
3076.34,0.02130
3070.56,0.02098
3064.77,0.02104
3058.99,0.02128
3053.2,0.02108
3047.41,0.02124
3041.63,0.02080
3035.84,0.02072
3030.05,0.02111
3024.27,0.02128
3018.48,0.02071
3012.7,0.02088
3006.91,0.02087
3001.12,0.02067
2995.34,0.02074
2989.55,0.02042
2983.76,0.02056
2977.98,0.02009
2972.19,0.01927
2966.41,0.01962
2960.62,0.01976
2954.83,0.01965
2949.05,0.01960
2943.26,0.01992
2937.47,0.02005
2931.69,0.02001
2925.9,0.01948
2920.12,0.02020
2914.33,0.02035
2908.54,0.02038
2902.76,0.02114
2896.97,0.02100
2891.18,0.02082
2885.4,0.02027
2879.61,0.02020
2873.83,0.02029
2868.04,0.02031
2862.25,0.02071
2856.47,0.02117
2850.68,0.02082
2844.9,0.02098
2839.11,0.02153
2833.32,0.02123
2827.54,0.02108
2821.75,0.02138
2815.96,0.02123
2810.18,0.02188
2804.39,0.02198
2798.61,0.02185
2792.82,0.02202
2787.03,0.02111
2781.25,0.02201
2775.46,0.02166
2769.67,0.02123
2763.89,0.02136
2758.1,0.02124
2752.32,0.02126
2746.53,0.02116
2740.74,0.02114
2734.96,0.02119
2729.17,0.02114
2723.38,0.02189
2717.6,0.02131
2711.81,0.02113
2706.03,0.02187
2700.24,0.02143
2694.45,0.02130
2688.67,0.02152
2682.88,0.02108
2677.09,0.02141
2671.31,0.02157
2665.52,0.02136
2659.74,0.02152
2653.95,0.02102
2648.16,0.02139
2642.38,0.02152
2636.59,0.02145
2630.8,0.02142
2625.02,0.02142
2619.23,0.02104
2613.45,0.02144
2607.66,0.02155
2601.87,0.02141
2596.09,0.02105
2590.3,0.02172
2584.51,0.02128
2578.73,0.02097
2572.94,0.02147
2567.16,0.02157
2561.37,0.02161
2555.58,0.02128
2549.8,0.02117
2544.01,0.02138
2538.23,0.02171
2532.44,0.02145
2526.65,0.02148
2520.87,0.02163
2515.08,0.02151
2509.29,0.02118
2503.51,0.02129
2497.72,0.02138
2491.94,0.02152
2486.15,0.02150
2480.36,0.02158
2474.58,0.02159
2468.79,0.02144
2463,0.02118
2457.22,0.02090
2451.43,0.02158
2445.65,0.02144
2439.86,0.02129
2434.07,0.02152
2428.29,0.02110
2422.5,0.02104
2416.71,0.02147
2410.93,0.02174
2405.14,0.02178
2399.36,0.02146
2393.57,0.02135
2387.78,0.02132
2382,0.02118
2376.21,0.02179
2370.42,0.02160
2364.64,0.02147
2358.85,0.02170
2353.07,0.02113
2347.28,0.02124
2341.49,0.02133
2335.71,0.02136
2329.92,0.02160
2324.13,0.02161
2318.35,0.02124
2312.56,0.02101
2306.78,0.02116
2300.99,0.02155
2295.2,0.02149
2289.42,0.02147
2283.63,0.02140
2277.84,0.02144
2272.06,0.02136
2266.27,0.02128
2260.49,0.02138
2254.7,0.02147
2248.91,0.02133
2243.13,0.02129
2237.34,0.02093
2231.56,0.02124
2225.77,0.02117
2219.98,0.02092
2214.2,0.02121
2208.41,0.02135
2202.62,0.02123
2196.84,0.02111
2191.05,0.02120
2185.27,0.02127
2179.48,0.02113
2173.69,0.02120
2167.91,0.02142
2162.12,0.02110
2156.33,0.02132
2150.55,0.02144
2144.76,0.02109
2138.98,0.02125
2133.19,0.02107
2127.4,0.02126
2121.62,0.02124
2115.83,0.02102
2110.04,0.02101
2104.26,0.02125
2098.47,0.02100
2092.69,0.02089
2086.9,0.02075
2081.11,0.02113
2075.33,0.02122
2069.54,0.02091
2063.75,0.02122
2057.97,0.02082
2052.18,0.02093
2046.4,0.02119
2040.61,0.02125
2034.82,0.02094
2029.04,0.02083
2023.25,0.02141
2017.46,0.02113
2011.68,0.02108
2005.89,0.02111
2000.11,0.02109
1994.32,0.02115
1988.53,0.02092
1982.75,0.02108
1976.96,0.02086
1971.17,0.02111
1965.39,0.02119
1959.6,0.02098
1953.82,0.02115
1948.03,0.02088
1942.24,0.02082
1936.46,0.02066
1930.67,0.02064
1924.89,0.02099
1919.1,0.02105
1913.31,0.02094
1907.53,0.02061
1901.74,0.02096
1895.95,0.02085
1890.17,0.02051
1884.38,0.02040
1878.6,0.02062
1872.81,0.02059
1867.02,0.02073
1861.24,0.02043
1855.45,0.02032
1849.66,0.02071
1843.88,0.02029
1838.09,0.02038
1832.31,0.02010
1826.52,0.02047
1820.73,0.02032
1814.95,0.02046
1809.16,0.01983
1803.37,0.01982
1797.59,0.01957
1791.8,0.01947
1786.02,0.01937
1780.23,0.01919
1774.44,0.01927
1768.66,0.01852
1762.87,0.01844
1757.08,0.01796
1751.3,0.01715
1745.51,0.01780
1739.73,0.01861
1733.94,0.01949
1728.15,0.02086
1722.37,0.02074
1716.58,0.02071
1710.79,0.02087
1705.01,0.02033
1699.22,0.02001
1693.44,0.01942
1687.65,0.01921
1681.86,0.01917
1676.08,0.01861
1670.29,0.01862
1664.5,0.01868
1658.72,0.01851
1652.93,0.01856
1647.15,0.01836
1641.36,0.01872
1635.57,0.01887
1629.79,0.01881
1624,0.01868
1618.21,0.01881
1612.43,0.01903
1606.64,0.01869
1600.86,0.01910
1595.07,0.01903
1589.28,0.01860
1583.5,0.01854
1577.71,0.01836
1571.93,0.01865
1566.14,0.01820
1560.35,0.01873
1554.57,0.01863
1548.78,0.01849
1542.99,0.01814
1537.21,0.01808
1531.42,0.01885
1525.64,0.01872
1519.85,0.01917
1514.06,0.01849
1508.28,0.01879
1502.49,0.01879
1496.7,0.01868
1490.92,0.01882
1485.13,0.01882
1479.35,0.01849
1473.56,0.01833
1467.77,0.01842
1461.99,0.01821
1456.2,0.01860
1450.41,0.01876
1444.63,0.01879
1438.84,0.01885
1433.06,0.01851
1427.27,0.01857
1421.48,0.01863
1415.7,0.01862
1409.91,0.01839
1404.12,0.01836
1398.34,0.01846
1392.55,0.01838
1386.77,0.01808
1380.98,0.01797
1375.19,0.01842
1369.41,0.01869
1363.62,0.01833
1357.83,0.01835
1352.05,0.01830
1346.26,0.01794
1340.48,0.01814
1334.69,0.01801
1328.9,0.01740
1323.12,0.01772
1317.33,0.01722
1311.54,0.01716
1305.76,0.01702
1299.97,0.01772
1294.19,0.01800
1288.4,0.01842
1282.61,0.01906
1276.83,0.01901
1271.04,0.01931
1265.26,0.01926
1259.47,0.02027
1253.68,0.02035
1247.9,0.02008
1242.11,0.02024
1236.32,0.02002
1230.54,0.01962
1224.75,0.01954
1218.97,0.01931
1213.18,0.01946
1207.39,0.01897
1201.61,0.01906
1195.82,0.01889
1190.03,0.01837
1184.25,0.01850
1178.46,0.01793
1172.68,0.01773
1166.89,0.01794
1161.1,0.01812
1155.32,0.01802
1149.53,0.01782
1143.74,0.01737
1137.96,0.01820
1132.17,0.01861
1126.39,0.01871
1120.6,0.01922
1114.81,0.01918
1109.03,0.01871
1103.24,0.01827
1097.45,0.01829
1091.67,0.01763
1085.88,0.01868
1080.1,0.01843
1074.31,0.01902
1068.52,0.01985
1062.74,0.01998
1056.95,0.02016
1051.16,0.01980
1045.38,0.01990
1039.59,0.01928
1033.81,0.01965
1028.02,0.01917
1022.23,0.01925
1016.45,0.01948
1010.66,0.02069
1004.87,0.02102
999.089,0.02129
993.302,0.02099
987.516,0.02123
981.73,0.02076
975.944,0.02082
970.157,0.02062
964.371,0.02027
958.585,0.01999
952.799,0.02031
947.013,0.01979
941.226,0.01979
935.44,0.01992
929.654,0.01980
923.868,0.01931
918.081,0.01931
912.295,0.01965
906.509,0.02057
900.723,0.02019
894.937,0.01914
889.15,0.01853
883.364,0.01941
877.578,0.01892
871.792,0.01910
866.005,0.01880
860.219,0.01899
854.433,0.01910
848.647,0.01921
842.86,0.01915
837.074,0.01945
831.288,0.02011
825.502,0.01944
819.716,0.01881
813.929,0.01918
808.143,0.01932
802.357,0.01915
796.571,0.01892
790.784,0.01851
784.998,0.01893
779.212,0.01917
773.426,0.01860
767.64,0.01792
761.853,0.01832
756.067,0.01894
750.281,0.01714
744.495,0.01893
738.708,0.01806
732.922,0.01779
727.136,0.01815
721.35,0.01806
715.563,0.01764
709.777,0.01748
703.991,0.01807
698.205,0.01793
692.419,0.01779
686.632,0.01790
680.846,0.01733
675.06,0.01663
669.274,0.01637
663.487,0.01654
657.701,0.01756
651.915,0.01672
646.129,0.01683
640.343,0.01538
634.556,0.01476
628.77,0.01434
622.984,0.01505
617.198,0.01365
611.411,0.01285
605.625,0.01635
599.839,0.01510