File: 01_Data/Engineered_Flooring/FTIR/IS/Engineered_Flooring_IS_S_220909_R4.dpt
7497.02,0.36891
7491.24,0.38107
7485.45,0.37629
7479.66,0.38273
7473.88,0.36813
7468.09,0.38415
7462.3,0.37717
7456.52,0.37391
7450.73,0.38711
7444.95,0.37503
7439.16,0.37940
7433.37,0.36841
7427.59,0.37609
7421.8,0.37147
7416.01,0.36960
7410.23,0.36864
7404.44,0.36709
7398.66,0.36512
7392.87,0.37249
7387.08,0.36568
7381.3,0.36954
7375.51,0.36835
7369.73,0.36477
7363.94,0.36371
7358.15,0.36536
7352.37,0.36320
7346.58,0.36689
7340.79,0.36821
7335.01,0.36591
7329.22,0.36087
7323.44,0.36025
7317.65,0.36029
7311.86,0.36457
7306.08,0.35771
7300.29,0.36112
7294.5,0.36324
7288.72,0.35791
7282.93,0.36467
7277.15,0.35637
7271.36,0.36396
7265.57,0.35855
7259.79,0.35733
7254,0.36401
7248.21,0.35757
7242.43,0.35475
7236.64,0.35957
7230.86,0.36648
7225.07,0.35982
7219.28,0.35567
7213.5,0.35912
7207.71,0.35561
7201.92,0.35433
7196.14,0.36008
7190.35,0.35236
7184.57,0.35003
7178.78,0.35070
7172.99,0.35067
7167.21,0.35000
7161.42,0.35147
7155.63,0.35084
7149.85,0.35280
7144.06,0.34571
7138.28,0.34854
7132.49,0.34812
7126.7,0.34218
7120.92,0.34236
7115.13,0.34715
7109.34,0.33182
7103.56,0.33661
7097.77,0.33344
7091.99,0.33998
7086.2,0.33525
7080.41,0.33611
7074.63,0.32578
7068.84,0.32222
7063.06,0.32747
7057.27,0.32927
7051.48,0.32730
7045.7,0.32199
7039.91,0.31688
7034.12,0.31905
7028.34,0.31522
7022.55,0.31875
7016.77,0.31486
7010.98,0.31269
7005.19,0.31347
6999.41,0.30681
6993.62,0.31361
6987.83,0.30481
6982.05,0.30603
6976.26,0.31178
6970.48,0.30600
6964.69,0.30623
6958.9,0.30001
6953.12,0.30401
6947.33,0.30406
6941.54,0.30789
6935.76,0.30420
6929.97,0.30249
6924.19,0.30971
6918.4,0.30673
6912.61,0.31028
6906.83,0.29978
6901.04,0.29886
6895.25,0.30309
6889.47,0.30594
6883.68,0.30605
6877.9,0.30543
6872.11,0.30352
6866.32,0.30462
6860.54,0.30386
6854.75,0.30512
6848.96,0.30430
6843.18,0.30847
6837.39,0.30511
6831.61,0.30214
6825.82,0.30660
6820.03,0.30369
6814.25,0.30659
6808.46,0.30780
6802.67,0.30055
6796.89,0.30369
6791.1,0.30581
6785.32,0.30460
6779.53,0.30044
6773.74,0.30860
6767.96,0.30764
6762.17,0.30775
6756.38,0.30706
6750.6,0.30594
6744.81,0.30788
6739.03,0.30780
6733.24,0.30721
6727.45,0.30706
6721.67,0.31012
6715.88,0.30736
6710.1,0.31039
6704.31,0.30822
6698.52,0.31286
6692.74,0.30974
6686.95,0.30861
6681.16,0.30915
6675.38,0.31272
6669.59,0.30878
6663.81,0.31274
6658.02,0.31117
6652.23,0.31233
6646.45,0.31613
6640.66,0.31305
6634.87,0.31318
6629.09,0.31773
6623.3,0.31597
6617.52,0.31726
6611.73,0.31465
6605.94,0.31891
6600.16,0.32452
6594.37,0.32119
6588.58,0.31982
6582.8,0.32346
6577.01,0.32410
6571.23,0.32207
6565.44,0.32845
6559.65,0.32530
6553.87,0.32615
6548.08,0.32089
6542.29,0.32824
6536.51,0.32856
6530.72,0.32884
6524.94,0.32520
6519.15,0.32706
6513.36,0.32589
6507.58,0.33162
6501.79,0.33052
6496,0.33025
6490.22,0.32422
6484.43,0.32444
6478.65,0.32779
6472.86,0.32775
6467.07,0.32789
6461.29,0.32754
6455.5,0.33147
6449.71,0.33076
6443.93,0.33312
6438.14,0.32985
6432.36,0.33322
6426.57,0.33191
6420.78,0.33279
6415,0.33562
6409.21,0.33147
6403.43,0.33323
6397.64,0.33402
6391.85,0.33436
6386.07,0.33565
6380.28,0.33822
6374.49,0.33258
6368.71,0.33401
6362.92,0.33091
6357.14,0.33305
6351.35,0.33331
6345.56,0.33498
6339.78,0.33723
6333.99,0.33997
6328.2,0.33463
6322.42,0.33708
6316.63,0.33827
6310.85,0.33631
6305.06,0.33504
6299.27,0.33782
6293.49,0.34064
6287.7,0.34228
6281.91,0.34057
6276.13,0.34080
6270.34,0.34140
6264.56,0.33950
6258.77,0.34565
6252.98,0.34237
6247.2,0.34397
6241.41,0.34627
6235.62,0.34568
6229.84,0.34268
6224.05,0.34474
6218.27,0.34770
6212.48,0.34803
6206.69,0.34712
6200.91,0.34910
6195.12,0.34892
6189.33,0.34737
6183.55,0.34624
6177.76,0.34555
6171.98,0.34799
6166.19,0.35084
6160.4,0.34985
6154.62,0.35223
6148.83,0.35064
6143.04,0.35295
6137.26,0.35110
6131.47,0.35320
6125.69,0.35448
6119.9,0.35457
6114.11,0.35187
6108.33,0.34910
6102.54,0.35344
6096.76,0.35306
6090.97,0.35273
6085.18,0.35403
6079.4,0.35371
6073.61,0.35088
6067.82,0.35072
6062.04,0.35372
6056.25,0.35259
6050.47,0.35034
6044.68,0.35041
6038.89,0.34774
6033.11,0.34674
6027.32,0.34335
6021.53,0.34204
6015.75,0.34090
6009.96,0.33900
6004.18,0.33812
5998.39,0.33584
5992.6,0.33448
5986.82,0.33507
5981.03,0.33100
5975.24,0.33143
5969.46,0.32768
5963.67,0.32646
5957.89,0.32815
5952.1,0.32525
5946.31,0.32531
5940.53,0.32598
5934.74,0.32397
5928.95,0.32388
5923.17,0.32406
5917.38,0.32189
5911.6,0.32230
5905.81,0.32117
5900.02,0.32038
5894.24,0.32226
5888.45,0.32230
5882.66,0.32107
5876.88,0.31883
5871.09,0.32089
5865.31,0.32115
5859.52,0.31994
5853.73,0.32314
5847.95,0.32225
5842.16,0.31980
5836.37,0.32087
5830.59,0.31917
5824.8,0.31809
5819.02,0.31602
5813.23,0.31512
5807.44,0.31542
5801.66,0.31444
5795.87,0.31563
5790.08,0.31577
5784.3,0.31380
5778.51,0.31467
5772.73,0.31752
5766.94,0.31906
5761.15,0.32226
5755.37,0.31888
5749.58,0.32178
5743.8,0.32413
5738.01,0.32435
5732.22,0.32441
5726.44,0.32725
5720.65,0.32773
5714.86,0.32734
5709.08,0.32854
5703.29,0.32892
5697.51,0.33023
5691.72,0.32963
5685.93,0.32999
5680.15,0.33202
5674.36,0.33060
5668.57,0.33049
5662.79,0.33010
5657,0.33105
5651.22,0.33314
5645.43,0.33259
5639.64,0.33364
5633.86,0.33451
5628.07,0.33515
5622.28,0.33412
5616.5,0.33538
5610.71,0.33472
5604.93,0.33734
5599.14,0.33662
5593.35,0.33576
5587.57,0.33897
5581.78,0.33673
5575.99,0.33779
5570.21,0.33843
5564.42,0.34012
5558.64,0.33937
5552.85,0.33914
5547.06,0.34252
5541.28,0.34095
5535.49,0.34053
5529.7,0.34316
5523.92,0.34338
5518.13,0.34507
5512.35,0.34363
5506.56,0.34375
5500.77,0.34624
5494.99,0.34477
5489.2,0.34327
5483.41,0.34668
5477.63,0.34767
5471.84,0.34581
5466.06,0.34689
5460.27,0.34714
5454.48,0.34891
5448.7,0.34970
5442.91,0.35117
5437.13,0.35083
5431.34,0.35235
5425.55,0.35362
5419.77,0.35459
5413.98,0.35346
5408.19,0.35474
5402.41,0.35478
5396.62,0.35516
5390.84,0.35637
5385.05,0.35446
5379.26,0.35509
5373.48,0.35482
5367.69,0.35538
5361.9,0.35473
5356.12,0.35370
5350.33,0.35319
5344.55,0.35271
5338.76,0.35355
5332.97,0.35101
5327.19,0.34788
5321.4,0.34530
5315.61,0.34314
5309.83,0.34223
5304.04,0.33728
5298.26,0.33319
5292.47,0.32721
5286.68,0.32108
5280.9,0.31553
5275.11,0.30761
5269.32,0.29885
5263.54,0.29206
5257.75,0.28283
5251.97,0.27734
5246.18,0.27133
5240.39,0.26730
5234.61,0.26226
5228.82,0.25925
5223.03,0.25741
5217.25,0.25555
5211.46,0.25358
5205.68,0.25487
5199.89,0.25438
5194.1,0.25336
5188.32,0.25417
5182.53,0.25439
5176.74,0.25524
5170.96,0.25679
5165.17,0.25917
5159.39,0.26247
5153.6,0.26248
5147.81,0.26453
5142.03,0.26741
5136.24,0.26896
5130.46,0.27068
5124.67,0.27195
5118.88,0.27431
5113.1,0.27623
5107.31,0.27832
5101.52,0.28014
5095.74,0.28275
5089.95,0.28583
5084.17,0.28608
5078.38,0.28905
5072.59,0.28948
5066.81,0.29236
5061.02,0.29311
5055.23,0.29554
5049.45,0.29715
5043.66,0.29832
5037.88,0.29919
5032.09,0.30087
5026.3,0.30293
5020.52,0.30363
5014.73,0.30425
5008.94,0.30523
5003.16,0.30612
4997.37,0.30661
4991.59,0.30747
4985.8,0.30679
4980.01,0.30642
4974.23,0.30477
4968.44,0.30426
4962.65,0.30289
4956.87,0.30161
4951.08,0.30025
4945.3,0.29875
4939.51,0.29525
4933.72,0.29245
4927.94,0.28936
4922.15,0.28811
4916.36,0.28523
4910.58,0.28312
4904.79,0.28189
4899.01,0.27932
4893.22,0.27695
4887.43,0.27675
4881.65,0.27466
4875.86,0.27416
4870.07,0.27177
4864.29,0.27117
4858.5,0.26896
4852.72,0.26771
4846.93,0.26696
4841.14,0.26545
4835.36,0.26314
4829.57,0.26207
4823.78,0.26117
4818,0.25873
4812.21,0.25779
4806.43,0.25735
4800.64,0.25653
4794.85,0.25634
4789.07,0.25509
4783.28,0.25548
4777.5,0.25449
4771.71,0.25251
4765.92,0.25270
4760.14,0.25226
4754.35,0.25065
4748.56,0.25088
4742.78,0.24838
4736.99,0.24758
4731.21,0.24739
4725.42,0.24700
4719.63,0.24755
4713.85,0.24693
4708.06,0.24521
4702.27,0.24520
4696.49,0.24469
4690.7,0.24347
4684.92,0.24198
4679.13,0.24300
4673.34,0.24310
4667.56,0.24341
4661.77,0.24529
4655.98,0.24770
4650.2,0.24942
4644.41,0.25138
4638.63,0.25216
4632.84,0.25302
4627.05,0.25283
4621.27,0.25420
4615.48,0.25585
4609.69,0.25688
4603.91,0.26026
4598.12,0.26289
4592.34,0.26475
4586.55,0.26613
4580.76,0.26689
4574.98,0.26756
4569.19,0.26823
4563.4,0.26873
4557.62,0.27054
4551.83,0.27056
4546.05,0.27106
4540.26,0.27170
4534.47,0.27233
4528.69,0.27089
4522.9,0.27116
4517.11,0.26997
4511.33,0.26784
4505.54,0.26570
4499.76,0.26346
4493.97,0.26036
4488.18,0.25725
4482.4,0.25246
4476.61,0.24796
4470.83,0.24111
4465.04,0.23334
4459.25,0.22556
4453.47,0.21541
4447.68,0.20699
4441.89,0.19706
4436.11,0.19085
4430.32,0.18339
4424.54,0.17779
4418.75,0.17433
4412.96,0.17278
4407.18,0.17272
4401.39,0.17360
4395.6,0.17335
4389.82,0.17337
4384.03,0.17218
4378.25,0.17156
4372.46,0.17028
4366.67,0.16932
4360.89,0.16777
4355.1,0.16717
4349.31,0.16627
4343.53,0.16588
4337.74,0.16705
4331.96,0.16698
4326.17,0.16671
4320.38,0.16819
4314.6,0.16949
4308.81,0.17128
4303.02,0.17188
4297.24,0.17263
4291.45,0.17171
4285.67,0.17128
4279.88,0.17215
4274.09,0.17262
4268.31,0.17313
4262.52,0.17311
4256.73,0.17482
4250.95,0.17601
4245.16,0.17671
4239.38,0.17788
4233.59,0.17915
4227.8,0.18023
4222.02,0.18149
4216.23,0.18250
4210.44,0.18277
4204.66,0.18323
4198.87,0.18397
4193.09,0.18471
4187.3,0.18323
4181.51,0.18379
4175.73,0.18372
4169.94,0.18407
4164.16,0.18348
4158.37,0.18276
4152.58,0.18230
4146.8,0.18175
4141.01,0.18150
4135.22,0.18038
4129.44,0.17901
4123.65,0.17803
4117.87,0.17595
4112.08,0.17524
4106.29,0.17286
4100.51,0.17138
4094.72,0.16967
4088.93,0.16654
4083.15,0.16333
4077.36,0.16017
4071.58,0.15768
4065.79,0.15507
4060,0.15234
4054.22,0.15118
4048.43,0.15049
4042.64,0.14986
4036.86,0.14949
4031.07,0.14831
4025.29,0.14875
4019.5,0.14769
4013.71,0.14876
4007.93,0.14865
4002.14,0.14961
3996.35,0.15026
3990.57,0.15125
3984.78,0.15275
3979,0.15427
3973.21,0.15545
3967.42,0.15808
3961.64,0.15943
3955.85,0.16111
3950.06,0.16303
3944.28,0.16598
3938.49,0.16750
3932.71,0.16857
3926.92,0.17046
3921.13,0.17219
3915.35,0.17435
3909.56,0.17595
3903.77,0.17797
3897.99,0.17890
3892.2,0.18123
3886.42,0.18159
3880.63,0.18286
3874.84,0.18376
3869.06,0.18601
3863.27,0.18767
3857.48,0.18963
3851.7,0.19138
3845.91,0.19354
3840.13,0.19444
3834.34,0.19525
3828.55,0.19564
3822.77,0.19594
3816.98,0.19639
3811.2,0.19543
3805.41,0.19641
3799.62,0.19631
3793.84,0.19552
3788.05,0.19576
3782.26,0.19605
3776.48,0.19531
3770.69,0.19391
3764.91,0.19249
3759.12,0.19144
3753.33,0.18981
3747.55,0.18888
3741.76,0.18669
3735.97,0.18462
3730.19,0.18134
3724.4,0.17754
3718.62,0.17378
3712.83,0.16884
3707.04,0.16273
3701.26,0.15504
3695.47,0.14653
3689.68,0.13442
3683.9,0.12162
3678.11,0.10235
3672.33,0.09590
3666.54,0.08852
3660.75,0.08003
3654.97,0.07372
3649.18,0.06889
3643.39,0.06473
3637.61,0.06160
3631.82,0.05955
3626.04,0.05768
3620.25,0.05594
3614.46,0.05442
3608.68,0.05324
3602.89,0.05234
3597.1,0.05183
3591.32,0.05080
3585.53,0.04982
3579.75,0.04987
3573.96,0.04895
3568.17,0.04879
3562.39,0.04775
3556.6,0.04785
3550.81,0.04789
3545.03,0.04795
3539.24,0.04778
3533.46,0.04765
3527.67,0.04759
3521.88,0.04730
3516.1,0.04730
3510.31,0.04724
3504.53,0.04673
3498.74,0.04704
3492.95,0.04721
3487.17,0.04739
3481.38,0.04753
3475.59,0.04696
3469.81,0.04719
3464.02,0.04680
3458.24,0.04641
3452.45,0.04692
3446.66,0.04693
3440.88,0.04678
3435.09,0.04694
3429.3,0.04732
3423.52,0.04775
3417.73,0.04747
3411.95,0.04697
3406.16,0.04739
3400.37,0.04685
3394.59,0.04770
3388.8,0.04721
3383.01,0.04713
3377.23,0.04682
3371.44,0.04709
3365.66,0.04800
3359.87,0.04794
3354.08,0.04761
3348.3,0.04724
3342.51,0.04787
3336.72,0.04868
3330.94,0.04726
3325.15,0.04710
3319.37,0.04704
3313.58,0.04802
3307.79,0.04787
3302.01,0.04795
3296.22,0.04821
3290.43,0.04852
3284.65,0.04838
3278.86,0.04841
3273.08,0.04828
3267.29,0.04812
3261.5,0.04860
3255.72,0.04839
3249.93,0.04857
3244.14,0.04997
3238.36,0.04962
3232.57,0.04911
3226.79,0.04882
3221,0.04942
3215.21,0.04996
3209.43,0.04960
3203.64,0.05012
3197.86,0.05068
3192.07,0.05039
3186.28,0.05047
3180.5,0.05010
3174.71,0.05063
3168.92,0.05100
3163.14,0.05104
3157.35,0.05125
3151.57,0.05152
3145.78,0.05249
3139.99,0.05241
3134.21,0.05234
3128.42,0.05301
3122.63,0.05298
3116.85,0.05287
3111.06,0.05316
3105.28,0.05294
3099.49,0.05263
3093.7,0.05311
3087.92,0.05298
3082.13,0.05320
3076.34,0.05270
3070.56,0.05254
3064.77,0.05255
3058.99,0.05294
3053.2,0.05320
3047.41,0.05344
3041.63,0.05307
3035.84,0.05242
3030.05,0.05258
3024.27,0.05306
3018.48,0.05161
3012.7,0.04998
3006.91,0.04876
3001.12,0.04785
2995.34,0.04733
2989.55,0.04670
2983.76,0.04618
2977.98,0.04600
2972.19,0.04599
2966.41,0.04697
2960.62,0.04742
2954.83,0.04753
2949.05,0.04730
2943.26,0.04713
2937.47,0.04840
2931.69,0.04837
2925.9,0.04931
2920.12,0.05011
2914.33,0.05047
2908.54,0.04974
2902.76,0.04988
2896.97,0.04919
2891.18,0.04988
2885.4,0.04986
2879.61,0.04922
2873.83,0.04941
2868.04,0.04948
2862.25,0.05041
2856.47,0.05100
2850.68,0.05185
2844.9,0.05230
2839.11,0.05235
2833.32,0.05319
2827.54,0.05468
2821.75,0.05537
2815.96,0.05617
2810.18,0.05702
2804.39,0.05747
2798.61,0.05843
2792.82,0.05889
2787.03,0.06043
2781.25,0.06104
2775.46,0.06179
2769.67,0.06234
2763.89,0.06260
2758.1,0.06287
2752.32,0.06321
2746.53,0.06425
2740.74,0.06387
2734.96,0.06451
2729.17,0.06545
2723.38,0.06542
2717.6,0.06679
2711.81,0.06789
2706.03,0.06902
2700.24,0.07005
2694.45,0.07073
2688.67,0.07185
2682.88,0.07295
2677.09,0.07328
2671.31,0.07401
2665.52,0.07424
2659.74,0.07491
2653.95,0.07600
2648.16,0.07633
2642.38,0.07698
2636.59,0.07825
2630.8,0.07860
2625.02,0.07952
2619.23,0.08006
2613.45,0.08097
2607.66,0.08075
2601.87,0.08161
2596.09,0.08237
2590.3,0.08247
2584.51,0.08298
2578.73,0.08380
2572.94,0.08429
2567.16,0.08475
2561.37,0.08485
2555.58,0.08532
2549.8,0.08582
2544.01,0.08612
2538.23,0.08647
2532.44,0.08722
2526.65,0.08856
2520.87,0.08955
2515.08,0.09024
2509.29,0.09113
2503.51,0.09185
2497.72,0.09309
2491.94,0.09400
2486.15,0.09482
2480.36,0.09591
2474.58,0.09628
2468.79,0.09726
2463,0.09826
2457.22,0.09909
2451.43,0.09964
2445.65,0.10055
2439.86,0.10107
2434.07,0.10199
2428.29,0.10278
2422.5,0.10347
2416.71,0.10437
2410.93,0.10528
2405.14,0.10627
2399.36,0.10723
2393.57,0.10763
2387.78,0.10843
2382,0.10889
2376.21,0.10942
2370.42,0.11047
2364.64,0.11067
2358.85,0.11079
2353.07,0.11115
2347.28,0.11220
2341.49,0.11239
2335.71,0.11310
2329.92,0.11321
2324.13,0.11376
2318.35,0.11458
2312.56,0.11469
2306.78,0.11485
2300.99,0.11578
2295.2,0.11624
2289.42,0.11697
2283.63,0.11701
2277.84,0.11722
2272.06,0.11813
2266.27,0.11776
2260.49,0.11749
2254.7,0.11730
2248.91,0.11691
2243.13,0.11631
2237.34,0.11636
2231.56,0.11650
2225.77,0.11650
2219.98,0.11659
2214.2,0.11657
2208.41,0.11619
2202.62,0.11621
2196.84,0.11517
2191.05,0.11415
2185.27,0.11273
2179.48,0.11147
2173.69,0.10984
2167.91,0.10801
2162.12,0.10662
2156.33,0.10563
2150.55,0.10408
2144.76,0.10314
2138.98,0.10219
2133.19,0.10154
2127.4,0.10105
2121.62,0.10057
2115.83,0.09986
2110.04,0.09951
2104.26,0.09947
2098.47,0.09905
2092.69,0.09914
2086.9,0.09918
2081.11,0.09937
2075.33,0.09879
2069.54,0.09834
2063.75,0.09848
2057.97,0.09852
2052.18,0.09947
2046.4,0.09940
2040.61,0.09943
2034.82,0.09952
2029.04,0.09980
2023.25,0.10004
2017.46,0.10084
2011.68,0.10069
2005.89,0.10167
2000.11,0.10243
1994.32,0.10302
1988.53,0.10321
1982.75,0.10367
1976.96,0.10379
1971.17,0.10354
1965.39,0.10316
1959.6,0.10313
1953.82,0.10300
1948.03,0.10343
1942.24,0.10424
1936.46,0.10550
1930.67,0.10621
1924.89,0.10698
1919.1,0.10741
1913.31,0.10738
1907.53,0.10736
1901.74,0.10732
1895.95,0.10697
1890.17,0.10588
1884.38,0.10520
1878.6,0.10453
1872.81,0.10372
1867.02,0.10226
1861.24,0.10055
1855.45,0.09824
1849.66,0.09563
1843.88,0.09286
1838.09,0.08960
1832.31,0.08576
1826.52,0.08119
1820.73,0.07725
1814.95,0.07279
1809.16,0.06858
1803.37,0.06385
1797.59,0.05929
1791.8,0.05429
1786.02,0.04987
1780.23,0.04507
1774.44,0.04088
1768.66,0.03651
1762.87,0.03281
1757.08,0.03007
1751.3,0.02864
1745.51,0.03242
1739.73,0.04070
1733.94,0.05127
1728.15,0.05992
1722.37,0.06478
1716.58,0.06519
1710.79,0.06356
1705.01,0.06156
1699.22,0.05918
1693.44,0.05738
1687.65,0.05633
1681.86,0.05525
1676.08,0.05443
1670.29,0.05346
1664.5,0.05305
1658.72,0.05266
1652.93,0.05215
1647.15,0.05164
1641.36,0.05085
1635.57,0.05076
1629.79,0.05113
1624,0.05072
1618.21,0.05060
1612.43,0.05050
1606.64,0.05014
1600.86,0.05001
1595.07,0.05033
1589.28,0.05093
1583.5,0.05016
1577.71,0.05063
1571.93,0.05187
1566.14,0.05141
1560.35,0.05069
1554.57,0.04968
1548.78,0.04879
1542.99,0.04848
1537.21,0.04774
1531.42,0.04739
1525.64,0.04731
1519.85,0.04659
1514.06,0.04570
1508.28,0.04584
1502.49,0.04629
1496.7,0.04653
1490.92,0.04585
1485.13,0.04418
1479.35,0.04297
1473.56,0.04223
1467.77,0.04264
1461.99,0.04283
1456.2,0.04273
1450.41,0.04369
1444.63,0.04477
1438.84,0.04506
1433.06,0.04485
1427.27,0.04443
1421.48,0.04325
1415.7,0.04293
1409.91,0.04303
1404.12,0.04392
1398.34,0.04343
1392.55,0.04253
1386.77,0.04309
1380.98,0.04346
1375.19,0.04350
1369.41,0.04347
1363.62,0.04324
1357.83,0.04312
1352.05,0.04226
1346.26,0.04192
1340.48,0.04160
1334.69,0.04126
1328.9,0.04060
1323.12,0.03974
1317.33,0.03924
1311.54,0.03850
1305.76,0.03858
1299.97,0.03826
1294.19,0.03883
1288.4,0.03869
1282.61,0.03849
1276.83,0.03870
1271.04,0.03950
1265.26,0.04032
1259.47,0.04119
1253.68,0.04228
1247.9,0.04249
1242.11,0.04320
1236.32,0.04340
1230.54,0.04343
1224.75,0.04360
1218.97,0.04393
1213.18,0.04410
1207.39,0.04449
1201.61,0.04527
1195.82,0.04639
1190.03,0.04684
1184.25,0.04734
1178.46,0.04861
1172.68,0.04983
1166.89,0.05148
1161.1,0.05315
1155.32,0.05539
1149.53,0.05661
1143.74,0.05686
1137.96,0.05686
1132.17,0.05649
1126.39,0.05604
1120.6,0.05661
1114.81,0.05724
1109.03,0.05900
1103.24,0.05989
1097.45,0.06009
1091.67,0.06006
1085.88,0.06002
1080.1,0.05968
1074.31,0.06091
1068.52,0.06200
1062.74,0.06369
1056.95,0.06493
1051.16,0.06546
1045.38,0.06671
1039.59,0.06755
1033.81,0.06778
1028.02,0.06869
1022.23,0.06900
1016.45,0.06940
1010.66,0.07004
1004.87,0.06927
999.089,0.06845
993.302,0.06865
987.516,0.06884
981.73,0.06941
975.944,0.06900
970.157,0.06915
964.371,0.06919
958.585,0.06875
952.799,0.06801
947.013,0.06717
941.226,0.06679
935.44,0.06661
929.654,0.06629
923.868,0.06604
918.081,0.06565
912.295,0.06529
906.509,0.06479
900.723,0.06534
894.937,0.06503
889.15,0.06571
883.364,0.06574
877.578,0.06583
871.792,0.06495
866.005,0.06399
860.219,0.06352
854.433,0.06315
848.647,0.06241
842.86,0.06158
837.074,0.06061
831.288,0.05958
825.502,0.06077
819.716,0.06204
813.929,0.06112
808.143,0.06231
802.357,0.06429
796.571,0.06432
790.784,0.06282
784.998,0.06190
779.212,0.06122
773.426,0.05985
767.64,0.06009
761.853,0.06052
756.067,0.06029
750.281,0.05984
744.495,0.05937
738.708,0.06111
732.922,0.06161
727.136,0.06227
721.35,0.06233
715.563,0.06210
709.777,0.06158
703.991,0.06185
698.205,0.06242
692.419,0.06533
686.632,0.06862
680.846,0.06994
675.06,0.07057
669.274,0.06737
663.487,0.06327
657.701,0.05970
651.915,0.05865
646.129,0.06050
640.343,0.05677
634.556,0.05790
628.77,0.05447
622.984,0.05425
617.198,0.05680
611.411,0.05483
605.625,0.05630
599.839,0.05844