File: 01_Data/Engineered_Flooring/FTIR/IS/Engineered_Flooring_IS_T_220909_R5.dpt
7497.02,0.01480
7491.24,0.02397
7485.45,0.03506
7479.66,0.02583
7473.88,0.02386
7468.09,0.03152
7462.3,0.02442
7456.52,0.02454
7450.73,0.02488
7444.95,0.02503
7439.16,0.02634
7433.37,0.02766
7427.59,0.02929
7421.8,0.02808
7416.01,0.02910
7410.23,0.03100
7404.44,0.01475
7398.66,0.02673
7392.87,0.02422
7387.08,0.02131
7381.3,0.02209
7375.51,0.01733
7369.73,0.02317
7363.94,0.02302
7358.15,0.02438
7352.37,0.02601
7346.58,0.02798
7340.79,0.02255
7335.01,0.02542
7329.22,0.01992
7323.44,0.01875
7317.65,0.01589
7311.86,0.02181
7306.08,0.02274
7300.29,0.01513
7294.5,0.02915
7288.72,0.01520
7282.93,0.02839
7277.15,0.02907
7271.36,0.02616
7265.57,0.01382
7259.79,0.01621
7254,0.02319
7248.21,0.02346
7242.43,0.02900
7236.64,0.02647
7230.86,0.02846
7225.07,0.02225
7219.28,0.02150
7213.5,0.02588
7207.71,0.02385
7201.92,0.02489
7196.14,0.02452
7190.35,0.02180
7184.57,0.03066
7178.78,0.02392
7172.99,0.01948
7167.21,0.01938
7161.42,0.02636
7155.63,0.02618
7149.85,0.01923
7144.06,0.02743
7138.28,0.03237
7132.49,0.02650
7126.7,0.02270
7120.92,0.02694
7115.13,0.02756
7109.34,0.02624
7103.56,0.02264
7097.77,0.02149
7091.99,0.02144
7086.2,0.02312
7080.41,0.02340
7074.63,0.02581
7068.84,0.02232
7063.06,0.03140
7057.27,0.02987
7051.48,0.03301
7045.7,0.03111
7039.91,0.02548
7034.12,0.02715
7028.34,0.02469
7022.55,0.01847
7016.77,0.02690
7010.98,0.02320
7005.19,0.02446
6999.41,0.02509
6993.62,0.02978
6987.83,0.02056
6982.05,0.02438
6976.26,0.02576
6970.48,0.02575
6964.69,0.02017
6958.9,0.02390
6953.12,0.02312
6947.33,0.02678
6941.54,0.02819
6935.76,0.02608
6929.97,0.02736
6924.19,0.02697
6918.4,0.03051
6912.61,0.01764
6906.83,0.01992
6901.04,0.02436
6895.25,0.02384
6889.47,0.02792
6883.68,0.02449
6877.9,0.02383
6872.11,0.02460
6866.32,0.02858
6860.54,0.02429
6854.75,0.02380
6848.96,0.02347
6843.18,0.02292
6837.39,0.02193
6831.61,0.02048
6825.82,0.02139
6820.03,0.02486
6814.25,0.02283
6808.46,0.02032
6802.67,0.01937
6796.89,0.01897
6791.1,0.01945
6785.32,0.02156
6779.53,0.02124
6773.74,0.02423
6767.96,0.02504
6762.17,0.02461
6756.38,0.02743
6750.6,0.02736
6744.81,0.02297
6739.03,0.02107
6733.24,0.02362
6727.45,0.01974
6721.67,0.02129
6715.88,0.02388
6710.1,0.02390
6704.31,0.02534
6698.52,0.02607
6692.74,0.02759
6686.95,0.02206
6681.16,0.02420
6675.38,0.02228
6669.59,0.02685
6663.81,0.02093
6658.02,0.02344
6652.23,0.01990
6646.45,0.02233
6640.66,0.02235
6634.87,0.02524
6629.09,0.02210
6623.3,0.02043
6617.52,0.02236
6611.73,0.01940
6605.94,0.02374
6600.16,0.02229
6594.37,0.02522
6588.58,0.02659
6582.8,0.02132
6577.01,0.02182
6571.23,0.02533
6565.44,0.02214
6559.65,0.02548
6553.87,0.02776
6548.08,0.02040
6542.29,0.02415
6536.51,0.02238
6530.72,0.02449
6524.94,0.02784
6519.15,0.02229
6513.36,0.02182
6507.58,0.02340
6501.79,0.02064
6496,0.02288
6490.22,0.01790
6484.43,0.02241
6478.65,0.02556
6472.86,0.02405
6467.07,0.02124
6461.29,0.01970
6455.5,0.02486
6449.71,0.02310
6443.93,0.01992
6438.14,0.02721
6432.36,0.02348
6426.57,0.01923
6420.78,0.02095
6415,0.02610
6409.21,0.02299
6403.43,0.02069
6397.64,0.01976
6391.85,0.02020
6386.07,0.02241
6380.28,0.02032
6374.49,0.02289
6368.71,0.02416
6362.92,0.02085
6357.14,0.02328
6351.35,0.01916
6345.56,0.02004
6339.78,0.02152
6333.99,0.02156
6328.2,0.02364
6322.42,0.02492
6316.63,0.02355
6310.85,0.02274
6305.06,0.02233
6299.27,0.02225
6293.49,0.02435
6287.7,0.02123
6281.91,0.02278
6276.13,0.02586
6270.34,0.01794
6264.56,0.02162
6258.77,0.02338
6252.98,0.02254
6247.2,0.02094
6241.41,0.02173
6235.62,0.02536
6229.84,0.02009
6224.05,0.02314
6218.27,0.01805
6212.48,0.02199
6206.69,0.01974
6200.91,0.02431
6195.12,0.02104
6189.33,0.02292
6183.55,0.02322
6177.76,0.02012
6171.98,0.02352
6166.19,0.02048
6160.4,0.02416
6154.62,0.02242
6148.83,0.02094
6143.04,0.02203
6137.26,0.02207
6131.47,0.02494
6125.69,0.01894
6119.9,0.02391
6114.11,0.02268
6108.33,0.02275
6102.54,0.02396
6096.76,0.02290
6090.97,0.02187
6085.18,0.02159
6079.4,0.02318
6073.61,0.02522
6067.82,0.02629
6062.04,0.02131
6056.25,0.02349
6050.47,0.02026
6044.68,0.02235
6038.89,0.02235
6033.11,0.02331
6027.32,0.02098
6021.53,0.02024
6015.75,0.02180
6009.96,0.02412
6004.18,0.02273
5998.39,0.02081
5992.6,0.02094
5986.82,0.02176
5981.03,0.02076
5975.24,0.02103
5969.46,0.02314
5963.67,0.02317
5957.89,0.02413
5952.1,0.02466
5946.31,0.02396
5940.53,0.02112
5934.74,0.02142
5928.95,0.02231
5923.17,0.02275
5917.38,0.02168
5911.6,0.02159
5905.81,0.02043
5900.02,0.02189
5894.24,0.02173
5888.45,0.01963
5882.66,0.02267
5876.88,0.02143
5871.09,0.02206
5865.31,0.02332
5859.52,0.02365
5853.73,0.02355
5847.95,0.02060
5842.16,0.02124
5836.37,0.02190
5830.59,0.02299
5824.8,0.02205
5819.02,0.02058
5813.23,0.02255
5807.44,0.02178
5801.66,0.02253
5795.87,0.02185
5790.08,0.02255
5784.3,0.02303
5778.51,0.01995
5772.73,0.02239
5766.94,0.02003
5761.15,0.02254
5755.37,0.02268
5749.58,0.02131
5743.8,0.02115
5738.01,0.02346
5732.22,0.02221
5726.44,0.02082
5720.65,0.02193
5714.86,0.02331
5709.08,0.02080
5703.29,0.02326
5697.51,0.02115
5691.72,0.02051
5685.93,0.02232
5680.15,0.02460
5674.36,0.02128
5668.57,0.02129
5662.79,0.02133
5657,0.02309
5651.22,0.02147
5645.43,0.02192
5639.64,0.02271
5633.86,0.02291
5628.07,0.02258
5622.28,0.02353
5616.5,0.02243
5610.71,0.02094
5604.93,0.02307
5599.14,0.02492
5593.35,0.02404
5587.57,0.02157
5581.78,0.01921
5575.99,0.02160
5570.21,0.02379
5564.42,0.02382
5558.64,0.02169
5552.85,0.02291
5547.06,0.02345
5541.28,0.02273
5535.49,0.02089
5529.7,0.02482
5523.92,0.02195
5518.13,0.02188
5512.35,0.02393
5506.56,0.02126
5500.77,0.02176
5494.99,0.02334
5489.2,0.02269
5483.41,0.02245
5477.63,0.02189
5471.84,0.02085
5466.06,0.02214
5460.27,0.02407
5454.48,0.02094
5448.7,0.02089
5442.91,0.02231
5437.13,0.02305
5431.34,0.02220
5425.55,0.02136
5419.77,0.02291
5413.98,0.02437
5408.19,0.02104
5402.41,0.02122
5396.62,0.02177
5390.84,0.02223
5385.05,0.02263
5379.26,0.02331
5373.48,0.02075
5367.69,0.02213
5361.9,0.02325
5356.12,0.02196
5350.33,0.02149
5344.55,0.02368
5338.76,0.02251
5332.97,0.02174
5327.19,0.02239
5321.4,0.02113
5315.61,0.02048
5309.83,0.02274
5304.04,0.02286
5298.26,0.02140
5292.47,0.02190
5286.68,0.02123
5280.9,0.02226
5275.11,0.02268
5269.32,0.02194
5263.54,0.02200
5257.75,0.02257
5251.97,0.02154
5246.18,0.02343
5240.39,0.02424
5234.61,0.02316
5228.82,0.02221
5223.03,0.02290
5217.25,0.02190
5211.46,0.02392
5205.68,0.02281
5199.89,0.02172
5194.1,0.02166
5188.32,0.02173
5182.53,0.02193
5176.74,0.02266
5170.96,0.02250
5165.17,0.02317
5159.39,0.02211
5153.6,0.02156
5147.81,0.02142
5142.03,0.02309
5136.24,0.02387
5130.46,0.02369
5124.67,0.02124
5118.88,0.02062
5113.1,0.02233
5107.31,0.02184
5101.52,0.02260
5095.74,0.02131
5089.95,0.02139
5084.17,0.02195
5078.38,0.02103
5072.59,0.02170
5066.81,0.02235
5061.02,0.02241
5055.23,0.02363
5049.45,0.02317
5043.66,0.02265
5037.88,0.02226
5032.09,0.02263
5026.3,0.02309
5020.52,0.02224
5014.73,0.02341
5008.94,0.02318
5003.16,0.02350
4997.37,0.02265
4991.59,0.02200
4985.8,0.02159
4980.01,0.02221
4974.23,0.02152
4968.44,0.02135
4962.65,0.02220
4956.87,0.02230
4951.08,0.02227
4945.3,0.02297
4939.51,0.02289
4933.72,0.02270
4927.94,0.02281
4922.15,0.02329
4916.36,0.02342
4910.58,0.02284
4904.79,0.02209
4899.01,0.02317
4893.22,0.02268
4887.43,0.02278
4881.65,0.02240
4875.86,0.02304
4870.07,0.02226
4864.29,0.02253
4858.5,0.02201
4852.72,0.02240
4846.93,0.02257
4841.14,0.02180
4835.36,0.02317
4829.57,0.02313
4823.78,0.02277
4818,0.02140
4812.21,0.02199
4806.43,0.02178
4800.64,0.02327
4794.85,0.02387
4789.07,0.02382
4783.28,0.02242
4777.5,0.02302
4771.71,0.02274
4765.92,0.02235
4760.14,0.02313
4754.35,0.02337
4748.56,0.02354
4742.78,0.02313
4736.99,0.02265
4731.21,0.02215
4725.42,0.02242
4719.63,0.02289
4713.85,0.02353
4708.06,0.02318
4702.27,0.02311
4696.49,0.02201
4690.7,0.02239
4684.92,0.02386
4679.13,0.02229
4673.34,0.02322
4667.56,0.02228
4661.77,0.02224
4655.98,0.02253
4650.2,0.02270
4644.41,0.02250
4638.63,0.02167
4632.84,0.02211
4627.05,0.02300
4621.27,0.02296
4615.48,0.02246
4609.69,0.02265
4603.91,0.02271
4598.12,0.02230
4592.34,0.02268
4586.55,0.02208
4580.76,0.02282
4574.98,0.02259
4569.19,0.02294
4563.4,0.02306
4557.62,0.02278
4551.83,0.02388
4546.05,0.02319
4540.26,0.02189
4534.47,0.02299
4528.69,0.02322
4522.9,0.02347
4517.11,0.02245
4511.33,0.02138
4505.54,0.02254
4499.76,0.02249
4493.97,0.02168
4488.18,0.02245
4482.4,0.02176
4476.61,0.02290
4470.83,0.02265
4465.04,0.02241
4459.25,0.02249
4453.47,0.02306
4447.68,0.02344
4441.89,0.02221
4436.11,0.02249
4430.32,0.02231
4424.54,0.02251
4418.75,0.02215
4412.96,0.02251
4407.18,0.02283
4401.39,0.02281
4395.6,0.02237
4389.82,0.02254
4384.03,0.02320
4378.25,0.02246
4372.46,0.02289
4366.67,0.02309
4360.89,0.02327
4355.1,0.02301
4349.31,0.02320
4343.53,0.02308
4337.74,0.02263
4331.96,0.02343
4326.17,0.02309
4320.38,0.02219
4314.6,0.02244
4308.81,0.02272
4303.02,0.02277
4297.24,0.02274
4291.45,0.02289
4285.67,0.02311
4279.88,0.02266
4274.09,0.02257
4268.31,0.02311
4262.52,0.02186
4256.73,0.02210
4250.95,0.02238
4245.16,0.02193
4239.38,0.02282
4233.59,0.02327
4227.8,0.02245
4222.02,0.02305
4216.23,0.02288
4210.44,0.02281
4204.66,0.02269
4198.87,0.02196
4193.09,0.02265
4187.3,0.02250
4181.51,0.02300
4175.73,0.02288
4169.94,0.02290
4164.16,0.02236
4158.37,0.02305
4152.58,0.02302
4146.8,0.02300
4141.01,0.02280
4135.22,0.02298
4129.44,0.02242
4123.65,0.02266
4117.87,0.02338
4112.08,0.02345
4106.29,0.02294
4100.51,0.02250
4094.72,0.02258
4088.93,0.02234
4083.15,0.02218
4077.36,0.02275
4071.58,0.02276
4065.79,0.02316
4060,0.02324
4054.22,0.02294
4048.43,0.02249
4042.64,0.02283
4036.86,0.02279
4031.07,0.02283
4025.29,0.02252
4019.5,0.02269
4013.71,0.02281
4007.93,0.02310
4002.14,0.02312
3996.35,0.02305
3990.57,0.02320
3984.78,0.02344
3979,0.02217
3973.21,0.02277
3967.42,0.02230
3961.64,0.02275
3955.85,0.02323
3950.06,0.02319
3944.28,0.02284
3938.49,0.02248
3932.71,0.02266
3926.92,0.02298
3921.13,0.02288
3915.35,0.02263
3909.56,0.02268
3903.77,0.02229
3897.99,0.02283
3892.2,0.02341
3886.42,0.02265
3880.63,0.02285
3874.84,0.02348
3869.06,0.02279
3863.27,0.02308
3857.48,0.02316
3851.7,0.02277
3845.91,0.02234
3840.13,0.02241
3834.34,0.02243
3828.55,0.02298
3822.77,0.02274
3816.98,0.02232
3811.2,0.02286
3805.41,0.02343
3799.62,0.02239
3793.84,0.02258
3788.05,0.02324
3782.26,0.02281
3776.48,0.02330
3770.69,0.02275
3764.91,0.02270
3759.12,0.02300
3753.33,0.02377
3747.55,0.02302
3741.76,0.02344
3735.97,0.02296
3730.19,0.02297
3724.4,0.02289
3718.62,0.02281
3712.83,0.02192
3707.04,0.02251
3701.26,0.02245
3695.47,0.02266
3689.68,0.02269
3683.9,0.02263
3678.11,0.02300
3672.33,0.02198
3666.54,0.02189
3660.75,0.02271
3654.97,0.02276
3649.18,0.02242
3643.39,0.02216
3637.61,0.02304
3631.82,0.02241
3626.04,0.02183
3620.25,0.02190
3614.46,0.02255
3608.68,0.02196
3602.89,0.02206
3597.1,0.02181
3591.32,0.02253
3585.53,0.02201
3579.75,0.02177
3573.96,0.02137
3568.17,0.02221
3562.39,0.02149
3556.6,0.02152
3550.81,0.02151
3545.03,0.02161
3539.24,0.02139
3533.46,0.02118
3527.67,0.02111
3521.88,0.02139
3516.1,0.02141
3510.31,0.02176
3504.53,0.02143
3498.74,0.02119
3492.95,0.02094
3487.17,0.02090
3481.38,0.02095
3475.59,0.02031
3469.81,0.02073
3464.02,0.02074
3458.24,0.02036
3452.45,0.02037
3446.66,0.02081
3440.88,0.02106
3435.09,0.02063
3429.3,0.02117
3423.52,0.02003
3417.73,0.02081
3411.95,0.02080
3406.16,0.02027
3400.37,0.02042
3394.59,0.02020
3388.8,0.01945
3383.01,0.02022
3377.23,0.02045
3371.44,0.02094
3365.66,0.02036
3359.87,0.02009
3354.08,0.01994
3348.3,0.01999
3342.51,0.02049
3336.72,0.02097
3330.94,0.02132
3325.15,0.02074
3319.37,0.02073
3313.58,0.02003
3307.79,0.02054
3302.01,0.02040
3296.22,0.02056
3290.43,0.02004
3284.65,0.02040
3278.86,0.02086
3273.08,0.02080
3267.29,0.02040
3261.5,0.02017
3255.72,0.02058
3249.93,0.01992
3244.14,0.02080
3238.36,0.02069
3232.57,0.02038
3226.79,0.02088
3221,0.02042
3215.21,0.02043
3209.43,0.02037
3203.64,0.02038
3197.86,0.02099
3192.07,0.02084
3186.28,0.02072
3180.5,0.02064
3174.71,0.02112
3168.92,0.02091
3163.14,0.02052
3157.35,0.02058
3151.57,0.02083
3145.78,0.02061
3139.99,0.02121
3134.21,0.02088
3128.42,0.02113
3122.63,0.02138
3116.85,0.02073
3111.06,0.02125
3105.28,0.02063
3099.49,0.02129
3093.7,0.02099
3087.92,0.02072
3082.13,0.02088
3076.34,0.02079
3070.56,0.02092
3064.77,0.02034
3058.99,0.01997
3053.2,0.02049
3047.41,0.02060
3041.63,0.02052
3035.84,0.02053
3030.05,0.02059
3024.27,0.02023
3018.48,0.02085
3012.7,0.02097
3006.91,0.02062
3001.12,0.02009
2995.34,0.01968
2989.55,0.02020
2983.76,0.01981
2977.98,0.01999
2972.19,0.01951
2966.41,0.01966
2960.62,0.01946
2954.83,0.01885
2949.05,0.01963
2943.26,0.01996
2937.47,0.01971
2931.69,0.01974
2925.9,0.02007
2920.12,0.02046
2914.33,0.01997
2908.54,0.02028
2902.76,0.02053
2896.97,0.02075
2891.18,0.02049
2885.4,0.02070
2879.61,0.02002
2873.83,0.02046
2868.04,0.02072
2862.25,0.02027
2856.47,0.02065
2850.68,0.02154
2844.9,0.02099
2839.11,0.02097
2833.32,0.02139
2827.54,0.02131
2821.75,0.02121
2815.96,0.02097
2810.18,0.02130
2804.39,0.02172
2798.61,0.02155
2792.82,0.02181
2787.03,0.02180
2781.25,0.02156
2775.46,0.02136
2769.67,0.02128
2763.89,0.02160
2758.1,0.02133
2752.32,0.02159
2746.53,0.02164
2740.74,0.02157
2734.96,0.02119
2729.17,0.02143
2723.38,0.02172
2717.6,0.02130
2711.81,0.02155
2706.03,0.02125
2700.24,0.02166
2694.45,0.02143
2688.67,0.02179
2682.88,0.02185
2677.09,0.02140
2671.31,0.02185
2665.52,0.02142
2659.74,0.02129
2653.95,0.02149
2648.16,0.02146
2642.38,0.02176
2636.59,0.02175
2630.8,0.02168
2625.02,0.02122
2619.23,0.02165
2613.45,0.02150
2607.66,0.02149
2601.87,0.02109
2596.09,0.02153
2590.3,0.02139
2584.51,0.02151
2578.73,0.02120
2572.94,0.02160
2567.16,0.02170
2561.37,0.02154
2555.58,0.02134
2549.8,0.02151
2544.01,0.02153
2538.23,0.02114
2532.44,0.02137
2526.65,0.02108
2520.87,0.02130
2515.08,0.02150
2509.29,0.02179
2503.51,0.02168
2497.72,0.02132
2491.94,0.02142
2486.15,0.02136
2480.36,0.02118
2474.58,0.02149
2468.79,0.02101
2463,0.02137
2457.22,0.02124
2451.43,0.02108
2445.65,0.02128
2439.86,0.02174
2434.07,0.02141
2428.29,0.02123
2422.5,0.02118
2416.71,0.02144
2410.93,0.02135
2405.14,0.02141
2399.36,0.02159
2393.57,0.02140
2387.78,0.02126
2382,0.02154
2376.21,0.02150
2370.42,0.02186
2364.64,0.02137
2358.85,0.02130
2353.07,0.02152
2347.28,0.02127
2341.49,0.02155
2335.71,0.02171
2329.92,0.02170
2324.13,0.02157
2318.35,0.02127
2312.56,0.02101
2306.78,0.02149
2300.99,0.02124
2295.2,0.02117
2289.42,0.02146
2283.63,0.02122
2277.84,0.02116
2272.06,0.02106
2266.27,0.02089
2260.49,0.02133
2254.7,0.02108
2248.91,0.02117
2243.13,0.02110
2237.34,0.02119
2231.56,0.02113
2225.77,0.02150
2219.98,0.02103
2214.2,0.02096
2208.41,0.02133
2202.62,0.02103
2196.84,0.02127
2191.05,0.02112
2185.27,0.02137
2179.48,0.02114
2173.69,0.02090
2167.91,0.02124
2162.12,0.02144
2156.33,0.02124
2150.55,0.02142
2144.76,0.02111
2138.98,0.02123
2133.19,0.02122
2127.4,0.02103
2121.62,0.02128
2115.83,0.02122
2110.04,0.02094
2104.26,0.02124
2098.47,0.02126
2092.69,0.02113
2086.9,0.02119
2081.11,0.02110
2075.33,0.02093
2069.54,0.02125
2063.75,0.02119
2057.97,0.02119
2052.18,0.02143
2046.4,0.02085
2040.61,0.02096
2034.82,0.02099
2029.04,0.02124
2023.25,0.02142
2017.46,0.02086
2011.68,0.02072
2005.89,0.02083
2000.11,0.02096
1994.32,0.02125
1988.53,0.02111
1982.75,0.02114
1976.96,0.02108
1971.17,0.02097
1965.39,0.02085
1959.6,0.02103
1953.82,0.02111
1948.03,0.02081
1942.24,0.02103
1936.46,0.02092
1930.67,0.02075
1924.89,0.02100
1919.1,0.02108
1913.31,0.02122
1907.53,0.02077
1901.74,0.02049
1895.95,0.02087
1890.17,0.02110
1884.38,0.02071
1878.6,0.02062
1872.81,0.02080
1867.02,0.02088
1861.24,0.02053
1855.45,0.02060
1849.66,0.02063
1843.88,0.02051
1838.09,0.02059
1832.31,0.02056
1826.52,0.02028
1820.73,0.02023
1814.95,0.02018
1809.16,0.02023
1803.37,0.01986
1797.59,0.01952
1791.8,0.01961
1786.02,0.01963
1780.23,0.01926
1774.44,0.01881
1768.66,0.01853
1762.87,0.01836
1757.08,0.01795
1751.3,0.01780
1745.51,0.01786
1739.73,0.01878
1733.94,0.01981
1728.15,0.02083
1722.37,0.02044
1716.58,0.02088
1710.79,0.02058
1705.01,0.02045
1699.22,0.02008
1693.44,0.01943
1687.65,0.01920
1681.86,0.01906
1676.08,0.01878
1670.29,0.01846
1664.5,0.01853
1658.72,0.01872
1652.93,0.01912
1647.15,0.01870
1641.36,0.01838
1635.57,0.01910
1629.79,0.01918
1624,0.01861
1618.21,0.01884
1612.43,0.01923
1606.64,0.01889
1600.86,0.01892
1595.07,0.01920
1589.28,0.01872
1583.5,0.01857
1577.71,0.01880
1571.93,0.01897
1566.14,0.01801
1560.35,0.01806
1554.57,0.01813
1548.78,0.01845
1542.99,0.01872
1537.21,0.01838
1531.42,0.01849
1525.64,0.01861
1519.85,0.01881
1514.06,0.01875
1508.28,0.01916
1502.49,0.01892
1496.7,0.01887
1490.92,0.01899
1485.13,0.01864
1479.35,0.01887
1473.56,0.01827
1467.77,0.01844
1461.99,0.01858
1456.2,0.01884
1450.41,0.01853
1444.63,0.01875
1438.84,0.01897
1433.06,0.01901
1427.27,0.01891
1421.48,0.01896
1415.7,0.01872
1409.91,0.01837
1404.12,0.01841
1398.34,0.01824
1392.55,0.01817
1386.77,0.01817
1380.98,0.01813
1375.19,0.01847
1369.41,0.01852
1363.62,0.01807
1357.83,0.01817
1352.05,0.01835
1346.26,0.01818
1340.48,0.01800
1334.69,0.01793
1328.9,0.01777
1323.12,0.01735
1317.33,0.01743
1311.54,0.01763
1305.76,0.01781
1299.97,0.01741
1294.19,0.01786
1288.4,0.01847
1282.61,0.01908
1276.83,0.01923
1271.04,0.01967
1265.26,0.01964
1259.47,0.01986
1253.68,0.02063
1247.9,0.02075
1242.11,0.02063
1236.32,0.01968
1230.54,0.01964
1224.75,0.01914
1218.97,0.01904
1213.18,0.01880
1207.39,0.01886
1201.61,0.01876
1195.82,0.01882
1190.03,0.01804
1184.25,0.01767
1178.46,0.01764
1172.68,0.01762
1166.89,0.01824
1161.1,0.01805
1155.32,0.01773
1149.53,0.01766
1143.74,0.01797
1137.96,0.01839
1132.17,0.01890
1126.39,0.01885
1120.6,0.01882
1114.81,0.01930
1109.03,0.01868
1103.24,0.01846
1097.45,0.01859
1091.67,0.01800
1085.88,0.01824
1080.1,0.01841
1074.31,0.01939
1068.52,0.01970
1062.74,0.01956
1056.95,0.01961
1051.16,0.01933
1045.38,0.01993
1039.59,0.02006
1033.81,0.01993
1028.02,0.01990
1022.23,0.01939
1016.45,0.01957
1010.66,0.02025
1004.87,0.02073
999.089,0.02076
993.302,0.02109
987.516,0.02065
981.73,0.02063
975.944,0.02077
970.157,0.02048
964.371,0.02003
958.585,0.02031
952.799,0.02088
947.013,0.02040
941.226,0.01976
935.44,0.01943
929.654,0.01934
923.868,0.01898
918.081,0.01958
912.295,0.01952
906.509,0.01852
900.723,0.01866
894.937,0.01929
889.15,0.01926
883.364,0.01951
877.578,0.01879
871.792,0.01910
866.005,0.01893
860.219,0.01915
854.433,0.01883
848.647,0.01853
842.86,0.01864
837.074,0.01935
831.288,0.01873
825.502,0.01935
819.716,0.01919
813.929,0.01823
808.143,0.01868
802.357,0.01906
796.571,0.01884
790.784,0.01880
784.998,0.01836
779.212,0.01877
773.426,0.01812
767.64,0.01892
761.853,0.01815
756.067,0.01824
750.281,0.01841
744.495,0.01746
738.708,0.01818
732.922,0.01878
727.136,0.01924
721.35,0.01830
715.563,0.01717
709.777,0.01829
703.991,0.01839
698.205,0.01749
692.419,0.01745
686.632,0.01830
680.846,0.01805
675.06,0.01848
669.274,0.01675
663.487,0.01641
657.701,0.01700
651.915,0.01744
646.129,0.01706
640.343,0.01529
634.556,0.01651
628.77,0.01731
622.984,0.01772
617.198,0.01859
611.411,0.01575
605.625,0.01594
599.839,0.01604