File: 01_Data/Engineered_Flooring/FTIR/IS/Engineered_Flooring_IS_S_220909_R1.dpt
7497.02,0.36453
7491.24,0.37518
7485.45,0.38420
7479.66,0.38215
7473.88,0.36896
7468.09,0.38100
7462.3,0.37477
7456.52,0.38227
7450.73,0.37692
7444.95,0.36903
7439.16,0.36668
7433.37,0.36754
7427.59,0.37350
7421.8,0.37674
7416.01,0.37011
7410.23,0.36363
7404.44,0.37442
7398.66,0.36759
7392.87,0.36518
7387.08,0.36860
7381.3,0.36406
7375.51,0.36547
7369.73,0.36326
7363.94,0.36132
7358.15,0.36207
7352.37,0.36783
7346.58,0.36503
7340.79,0.36862
7335.01,0.36490
7329.22,0.35439
7323.44,0.35728
7317.65,0.36123
7311.86,0.36039
7306.08,0.36213
7300.29,0.36028
7294.5,0.36828
7288.72,0.36519
7282.93,0.35908
7277.15,0.34841
7271.36,0.35653
7265.57,0.36255
7259.79,0.36258
7254,0.35470
7248.21,0.35711
7242.43,0.35666
7236.64,0.35913
7230.86,0.36369
7225.07,0.36000
7219.28,0.36064
7213.5,0.35356
7207.71,0.35903
7201.92,0.35801
7196.14,0.35248
7190.35,0.34943
7184.57,0.34828
7178.78,0.34583
7172.99,0.35758
7167.21,0.34815
7161.42,0.34619
7155.63,0.35288
7149.85,0.34887
7144.06,0.33753
7138.28,0.34345
7132.49,0.34301
7126.7,0.33708
7120.92,0.33616
7115.13,0.33779
7109.34,0.33937
7103.56,0.33698
7097.77,0.33736
7091.99,0.33660
7086.2,0.33158
7080.41,0.32752
7074.63,0.32871
7068.84,0.32624
7063.06,0.32309
7057.27,0.32393
7051.48,0.32093
7045.7,0.32440
7039.91,0.31953
7034.12,0.31399
7028.34,0.31670
7022.55,0.31699
7016.77,0.31650
7010.98,0.31317
7005.19,0.31116
6999.41,0.30291
6993.62,0.31088
6987.83,0.30817
6982.05,0.30316
6976.26,0.30511
6970.48,0.30528
6964.69,0.30013
6958.9,0.29920
6953.12,0.30305
6947.33,0.30565
6941.54,0.30324
6935.76,0.30444
6929.97,0.29909
6924.19,0.29965
6918.4,0.30688
6912.61,0.30335
6906.83,0.30250
6901.04,0.29699
6895.25,0.30121
6889.47,0.30614
6883.68,0.30395
6877.9,0.30319
6872.11,0.30059
6866.32,0.30196
6860.54,0.30366
6854.75,0.30205
6848.96,0.30242
6843.18,0.30369
6837.39,0.30351
6831.61,0.30273
6825.82,0.30673
6820.03,0.30985
6814.25,0.30034
6808.46,0.30178
6802.67,0.30642
6796.89,0.30754
6791.1,0.30856
6785.32,0.30768
6779.53,0.29952
6773.74,0.30337
6767.96,0.30650
6762.17,0.30541
6756.38,0.30656
6750.6,0.30393
6744.81,0.30281
6739.03,0.30245
6733.24,0.30321
6727.45,0.30430
6721.67,0.31129
6715.88,0.31047
6710.1,0.31204
6704.31,0.31468
6698.52,0.31058
6692.74,0.31058
6686.95,0.30628
6681.16,0.31001
6675.38,0.30975
6669.59,0.31030
6663.81,0.31347
6658.02,0.31304
6652.23,0.31241
6646.45,0.31189
6640.66,0.31705
6634.87,0.31379
6629.09,0.30906
6623.3,0.31265
6617.52,0.31878
6611.73,0.31740
6605.94,0.31712
6600.16,0.32022
6594.37,0.31704
6588.58,0.31764
6582.8,0.32179
6577.01,0.31911
6571.23,0.32177
6565.44,0.32006
6559.65,0.31885
6553.87,0.32757
6548.08,0.32652
6542.29,0.32357
6536.51,0.32511
6530.72,0.32777
6524.94,0.32208
6519.15,0.32101
6513.36,0.32717
6507.58,0.32243
6501.79,0.32905
6496,0.32824
6490.22,0.32759
6484.43,0.32624
6478.65,0.32627
6472.86,0.32672
6467.07,0.32795
6461.29,0.33047
6455.5,0.33093
6449.71,0.32857
6443.93,0.33020
6438.14,0.33000
6432.36,0.33008
6426.57,0.33135
6420.78,0.33212
6415,0.32920
6409.21,0.33202
6403.43,0.33116
6397.64,0.33359
6391.85,0.32676
6386.07,0.33045
6380.28,0.33148
6374.49,0.33173
6368.71,0.33491
6362.92,0.33242
6357.14,0.33447
6351.35,0.33010
6345.56,0.33461
6339.78,0.33606
6333.99,0.33167
6328.2,0.33693
6322.42,0.33775
6316.63,0.33843
6310.85,0.33982
6305.06,0.33782
6299.27,0.33730
6293.49,0.33771
6287.7,0.33850
6281.91,0.33603
6276.13,0.34235
6270.34,0.34233
6264.56,0.33996
6258.77,0.34342
6252.98,0.34333
6247.2,0.34233
6241.41,0.34415
6235.62,0.34601
6229.84,0.34250
6224.05,0.34463
6218.27,0.34528
6212.48,0.34559
6206.69,0.34473
6200.91,0.34601
6195.12,0.34789
6189.33,0.34859
6183.55,0.34752
6177.76,0.34875
6171.98,0.34751
6166.19,0.34608
6160.4,0.34969
6154.62,0.34946
6148.83,0.34925
6143.04,0.34891
6137.26,0.35096
6131.47,0.35223
6125.69,0.35262
6119.9,0.35251
6114.11,0.34915
6108.33,0.35498
6102.54,0.35308
6096.76,0.35157
6090.97,0.35165
6085.18,0.35017
6079.4,0.35293
6073.61,0.35150
6067.82,0.34787
6062.04,0.34964
6056.25,0.34823
6050.47,0.34861
6044.68,0.34404
6038.89,0.34555
6033.11,0.34342
6027.32,0.34351
6021.53,0.34202
6015.75,0.34363
6009.96,0.33847
6004.18,0.33695
5998.39,0.33242
5992.6,0.33259
5986.82,0.33354
5981.03,0.33153
5975.24,0.33105
5969.46,0.32896
5963.67,0.32731
5957.89,0.32791
5952.1,0.32357
5946.31,0.32357
5940.53,0.32454
5934.74,0.32537
5928.95,0.32460
5923.17,0.32498
5917.38,0.32271
5911.6,0.32156
5905.81,0.31866
5900.02,0.32030
5894.24,0.32289
5888.45,0.32100
5882.66,0.32135
5876.88,0.32085
5871.09,0.32199
5865.31,0.32157
5859.52,0.32033
5853.73,0.31987
5847.95,0.31979
5842.16,0.31904
5836.37,0.31478
5830.59,0.31548
5824.8,0.31394
5819.02,0.31595
5813.23,0.31405
5807.44,0.31306
5801.66,0.31266
5795.87,0.31480
5790.08,0.31591
5784.3,0.31500
5778.51,0.31516
5772.73,0.31509
5766.94,0.31676
5761.15,0.31879
5755.37,0.31945
5749.58,0.32151
5743.8,0.31968
5738.01,0.32255
5732.22,0.32516
5726.44,0.32474
5720.65,0.32630
5714.86,0.32703
5709.08,0.32701
5703.29,0.32963
5697.51,0.33013
5691.72,0.32921
5685.93,0.32960
5680.15,0.32915
5674.36,0.32854
5668.57,0.33116
5662.79,0.33196
5657,0.33147
5651.22,0.33055
5645.43,0.33303
5639.64,0.33066
5633.86,0.33302
5628.07,0.33265
5622.28,0.33353
5616.5,0.33486
5610.71,0.33612
5604.93,0.33359
5599.14,0.33303
5593.35,0.33498
5587.57,0.33637
5581.78,0.33618
5575.99,0.33447
5570.21,0.33565
5564.42,0.33820
5558.64,0.33868
5552.85,0.33831
5547.06,0.33843
5541.28,0.33742
5535.49,0.34127
5529.7,0.34003
5523.92,0.33942
5518.13,0.34117
5512.35,0.34298
5506.56,0.34307
5500.77,0.34065
5494.99,0.34153
5489.2,0.34380
5483.41,0.34450
5477.63,0.34511
5471.84,0.34668
5466.06,0.34513
5460.27,0.34512
5454.48,0.34797
5448.7,0.34931
5442.91,0.34917
5437.13,0.34868
5431.34,0.35001
5425.55,0.35012
5419.77,0.35265
5413.98,0.35167
5408.19,0.35255
5402.41,0.35169
5396.62,0.35417
5390.84,0.35299
5385.05,0.35162
5379.26,0.35314
5373.48,0.35248
5367.69,0.35344
5361.9,0.35400
5356.12,0.35195
5350.33,0.35238
5344.55,0.35303
5338.76,0.35053
5332.97,0.34764
5327.19,0.34576
5321.4,0.34497
5315.61,0.33974
5309.83,0.33794
5304.04,0.33393
5298.26,0.32982
5292.47,0.32600
5286.68,0.31681
5280.9,0.31158
5275.11,0.30506
5269.32,0.29494
5263.54,0.28739
5257.75,0.28042
5251.97,0.27475
5246.18,0.26705
5240.39,0.26191
5234.61,0.25871
5228.82,0.25562
5223.03,0.25382
5217.25,0.25281
5211.46,0.25035
5205.68,0.24987
5199.89,0.24909
5194.1,0.24946
5188.32,0.24909
5182.53,0.25149
5176.74,0.25241
5170.96,0.25378
5165.17,0.25483
5159.39,0.25676
5153.6,0.25903
5147.81,0.26052
5142.03,0.26228
5136.24,0.26502
5130.46,0.26838
5124.67,0.26942
5118.88,0.27091
5113.1,0.27417
5107.31,0.27614
5101.52,0.27790
5095.74,0.27874
5089.95,0.28138
5084.17,0.28297
5078.38,0.28446
5072.59,0.28691
5066.81,0.28898
5061.02,0.29046
5055.23,0.29228
5049.45,0.29386
5043.66,0.29527
5037.88,0.29730
5032.09,0.29803
5026.3,0.30022
5020.52,0.30169
5014.73,0.30162
5008.94,0.30302
5003.16,0.30403
4997.37,0.30401
4991.59,0.30443
4985.8,0.30516
4980.01,0.30377
4974.23,0.30245
4968.44,0.30211
4962.65,0.30099
4956.87,0.29946
4951.08,0.29733
4945.3,0.29641
4939.51,0.29287
4933.72,0.29023
4927.94,0.28699
4922.15,0.28573
4916.36,0.28372
4910.58,0.28120
4904.79,0.27879
4899.01,0.27732
4893.22,0.27616
4887.43,0.27407
4881.65,0.27351
4875.86,0.27251
4870.07,0.27048
4864.29,0.26939
4858.5,0.26770
4852.72,0.26590
4846.93,0.26396
4841.14,0.26342
4835.36,0.26169
4829.57,0.25985
4823.78,0.25975
4818,0.25707
4812.21,0.25624
4806.43,0.25564
4800.64,0.25616
4794.85,0.25438
4789.07,0.25477
4783.28,0.25389
4777.5,0.25162
4771.71,0.25261
4765.92,0.25158
4760.14,0.25041
4754.35,0.24967
4748.56,0.24872
4742.78,0.24792
4736.99,0.24667
4731.21,0.24594
4725.42,0.24528
4719.63,0.24509
4713.85,0.24432
4708.06,0.24376
4702.27,0.24368
4696.49,0.24240
4690.7,0.24142
4684.92,0.24069
4679.13,0.24090
4673.34,0.24090
4667.56,0.24161
4661.77,0.24375
4655.98,0.24623
4650.2,0.24849
4644.41,0.25068
4638.63,0.25113
4632.84,0.25134
4627.05,0.25163
4621.27,0.25312
4615.48,0.25396
4609.69,0.25649
4603.91,0.25899
4598.12,0.26107
4592.34,0.26304
4586.55,0.26449
4580.76,0.26496
4574.98,0.26488
4569.19,0.26593
4563.4,0.26697
4557.62,0.26798
4551.83,0.26818
4546.05,0.26933
4540.26,0.27031
4534.47,0.27065
4528.69,0.27088
4522.9,0.26918
4517.11,0.26823
4511.33,0.26692
4505.54,0.26444
4499.76,0.26182
4493.97,0.25837
4488.18,0.25552
4482.4,0.25061
4476.61,0.24578
4470.83,0.23967
4465.04,0.23214
4459.25,0.22407
4453.47,0.21516
4447.68,0.20605
4441.89,0.19635
4436.11,0.18876
4430.32,0.18188
4424.54,0.17688
4418.75,0.17363
4412.96,0.17124
4407.18,0.17245
4401.39,0.17164
4395.6,0.17181
4389.82,0.17176
4384.03,0.17119
4378.25,0.17032
4372.46,0.16949
4366.67,0.16798
4360.89,0.16671
4355.1,0.16561
4349.31,0.16638
4343.53,0.16569
4337.74,0.16600
4331.96,0.16584
4326.17,0.16568
4320.38,0.16679
4314.6,0.16903
4308.81,0.17010
4303.02,0.17159
4297.24,0.17116
4291.45,0.17154
4285.67,0.17102
4279.88,0.17129
4274.09,0.17119
4268.31,0.17232
4262.52,0.17241
4256.73,0.17393
4250.95,0.17472
4245.16,0.17582
4239.38,0.17741
4233.59,0.17899
4227.8,0.17982
4222.02,0.18020
4216.23,0.18193
4210.44,0.18186
4204.66,0.18289
4198.87,0.18286
4193.09,0.18264
4187.3,0.18304
4181.51,0.18310
4175.73,0.18310
4169.94,0.18227
4164.16,0.18218
4158.37,0.18244
4152.58,0.18136
4146.8,0.18120
4141.01,0.18007
4135.22,0.17892
4129.44,0.17754
4123.65,0.17597
4117.87,0.17575
4112.08,0.17402
4106.29,0.17242
4100.51,0.16966
4094.72,0.16786
4088.93,0.16469
4083.15,0.16271
4077.36,0.15942
4071.58,0.15589
4065.79,0.15324
4060,0.15151
4054.22,0.15064
4048.43,0.14969
4042.64,0.14847
4036.86,0.14854
4031.07,0.14761
4025.29,0.14694
4019.5,0.14717
4013.71,0.14677
4007.93,0.14709
4002.14,0.14726
3996.35,0.14893
3990.57,0.15025
3984.78,0.15120
3979,0.15269
3973.21,0.15400
3967.42,0.15649
3961.64,0.15810
3955.85,0.16055
3950.06,0.16200
3944.28,0.16412
3938.49,0.16643
3932.71,0.16724
3926.92,0.16945
3921.13,0.17123
3915.35,0.17289
3909.56,0.17451
3903.77,0.17634
3897.99,0.17782
3892.2,0.17904
3886.42,0.17971
3880.63,0.18130
3874.84,0.18247
3869.06,0.18421
3863.27,0.18629
3857.48,0.18834
3851.7,0.19042
3845.91,0.19159
3840.13,0.19283
3834.34,0.19340
3828.55,0.19350
3822.77,0.19393
3816.98,0.19393
3811.2,0.19375
3805.41,0.19437
3799.62,0.19409
3793.84,0.19362
3788.05,0.19281
3782.26,0.19290
3776.48,0.19290
3770.69,0.19141
3764.91,0.19010
3759.12,0.18906
3753.33,0.18833
3747.55,0.18637
3741.76,0.18414
3735.97,0.18182
3730.19,0.17826
3724.4,0.17511
3718.62,0.17068
3712.83,0.16611
3707.04,0.15924
3701.26,0.15197
3695.47,0.14224
3689.68,0.13132
3683.9,0.11716
3678.11,0.09875
3672.33,0.09124
3666.54,0.08461
3660.75,0.07656
3654.97,0.07043
3649.18,0.06645
3643.39,0.06166
3637.61,0.05895
3631.82,0.05749
3626.04,0.05533
3620.25,0.05408
3614.46,0.05351
3608.68,0.05260
3602.89,0.05120
3597.1,0.05056
3591.32,0.05021
3585.53,0.04939
3579.75,0.04816
3573.96,0.04844
3568.17,0.04825
3562.39,0.04852
3556.6,0.04800
3550.81,0.04798
3545.03,0.04739
3539.24,0.04695
3533.46,0.04774
3527.67,0.04724
3521.88,0.04744
3516.1,0.04695
3510.31,0.04700
3504.53,0.04744
3498.74,0.04616
3492.95,0.04611
3487.17,0.04693
3481.38,0.04698
3475.59,0.04690
3469.81,0.04691
3464.02,0.04746
3458.24,0.04686
3452.45,0.04700
3446.66,0.04741
3440.88,0.04755
3435.09,0.04726
3429.3,0.04699
3423.52,0.04743
3417.73,0.04732
3411.95,0.04722
3406.16,0.04755
3400.37,0.04702
3394.59,0.04665
3388.8,0.04726
3383.01,0.04747
3377.23,0.04682
3371.44,0.04700
3365.66,0.04715
3359.87,0.04786
3354.08,0.04775
3348.3,0.04771
3342.51,0.04805
3336.72,0.04741
3330.94,0.04806
3325.15,0.04767
3319.37,0.04753
3313.58,0.04744
3307.79,0.04750
3302.01,0.04733
3296.22,0.04725
3290.43,0.04767
3284.65,0.04752
3278.86,0.04823
3273.08,0.04874
3267.29,0.04847
3261.5,0.04859
3255.72,0.04839
3249.93,0.04780
3244.14,0.04845
3238.36,0.04913
3232.57,0.04897
3226.79,0.04905
3221,0.04922
3215.21,0.04994
3209.43,0.04920
3203.64,0.04961
3197.86,0.04978
3192.07,0.05001
3186.28,0.05050
3180.5,0.04986
3174.71,0.05047
3168.92,0.05033
3163.14,0.05063
3157.35,0.05162
3151.57,0.05181
3145.78,0.05185
3139.99,0.05196
3134.21,0.05210
3128.42,0.05213
3122.63,0.05246
3116.85,0.05299
3111.06,0.05298
3105.28,0.05292
3099.49,0.05320
3093.7,0.05249
3087.92,0.05271
3082.13,0.05260
3076.34,0.05181
3070.56,0.05218
3064.77,0.05192
3058.99,0.05238
3053.2,0.05232
3047.41,0.05266
3041.63,0.05231
3035.84,0.05260
3030.05,0.05196
3024.27,0.05216
3018.48,0.05123
3012.7,0.05059
3006.91,0.04940
3001.12,0.04751
2995.34,0.04724
2989.55,0.04646
2983.76,0.04613
2977.98,0.04655
2972.19,0.04613
2966.41,0.04636
2960.62,0.04747
2954.83,0.04718
2949.05,0.04701
2943.26,0.04764
2937.47,0.04795
2931.69,0.04839
2925.9,0.04926
2920.12,0.05031
2914.33,0.05030
2908.54,0.04955
2902.76,0.05001
2896.97,0.04925
2891.18,0.04927
2885.4,0.04974
2879.61,0.04972
2873.83,0.04932
2868.04,0.04982
2862.25,0.05032
2856.47,0.05026
2850.68,0.05135
2844.9,0.05182
2839.11,0.05198
2833.32,0.05281
2827.54,0.05394
2821.75,0.05472
2815.96,0.05520
2810.18,0.05637
2804.39,0.05728
2798.61,0.05803
2792.82,0.05918
2787.03,0.05990
2781.25,0.06017
2775.46,0.06114
2769.67,0.06119
2763.89,0.06217
2758.1,0.06236
2752.32,0.06260
2746.53,0.06326
2740.74,0.06357
2734.96,0.06406
2729.17,0.06480
2723.38,0.06566
2717.6,0.06625
2711.81,0.06751
2706.03,0.06868
2700.24,0.06965
2694.45,0.07073
2688.67,0.07119
2682.88,0.07247
2677.09,0.07319
2671.31,0.07371
2665.52,0.07409
2659.74,0.07474
2653.95,0.07564
2648.16,0.07597
2642.38,0.07682
2636.59,0.07735
2630.8,0.07770
2625.02,0.07916
2619.23,0.07954
2613.45,0.08029
2607.66,0.08054
2601.87,0.08106
2596.09,0.08161
2590.3,0.08225
2584.51,0.08237
2578.73,0.08346
2572.94,0.08322
2567.16,0.08366
2561.37,0.08435
2555.58,0.08453
2549.8,0.08516
2544.01,0.08599
2538.23,0.08634
2532.44,0.08714
2526.65,0.08785
2520.87,0.08877
2515.08,0.08943
2509.29,0.09007
2503.51,0.09139
2497.72,0.09197
2491.94,0.09294
2486.15,0.09405
2480.36,0.09500
2474.58,0.09570
2468.79,0.09615
2463,0.09707
2457.22,0.09841
2451.43,0.09914
2445.65,0.09979
2439.86,0.10018
2434.07,0.10091
2428.29,0.10198
2422.5,0.10288
2416.71,0.10374
2410.93,0.10469
2405.14,0.10551
2399.36,0.10626
2393.57,0.10713
2387.78,0.10756
2382,0.10771
2376.21,0.10823
2370.42,0.10865
2364.64,0.10908
2358.85,0.10994
2353.07,0.11080
2347.28,0.11164
2341.49,0.11171
2335.71,0.11197
2329.92,0.11238
2324.13,0.11295
2318.35,0.11319
2312.56,0.11416
2306.78,0.11415
2300.99,0.11447
2295.2,0.11491
2289.42,0.11557
2283.63,0.11592
2277.84,0.11658
2272.06,0.11723
2266.27,0.11705
2260.49,0.11649
2254.7,0.11604
2248.91,0.11566
2243.13,0.11561
2237.34,0.11548
2231.56,0.11504
2225.77,0.11506
2219.98,0.11569
2214.2,0.11543
2208.41,0.11551
2202.62,0.11469
2196.84,0.11421
2191.05,0.11275
2185.27,0.11141
2179.48,0.10999
2173.69,0.10869
2167.91,0.10690
2162.12,0.10507
2156.33,0.10403
2150.55,0.10292
2144.76,0.10178
2138.98,0.10117
2133.19,0.10027
2127.4,0.09966
2121.62,0.09917
2115.83,0.09904
2110.04,0.09857
2104.26,0.09801
2098.47,0.09786
2092.69,0.09790
2086.9,0.09807
2081.11,0.09770
2075.33,0.09776
2069.54,0.09736
2063.75,0.09756
2057.97,0.09770
2052.18,0.09801
2046.4,0.09823
2040.61,0.09835
2034.82,0.09856
2029.04,0.09855
2023.25,0.09855
2017.46,0.09923
2011.68,0.10018
2005.89,0.10091
2000.11,0.10136
1994.32,0.10174
1988.53,0.10252
1982.75,0.10260
1976.96,0.10242
1971.17,0.10246
1965.39,0.10199
1959.6,0.10171
1953.82,0.10162
1948.03,0.10238
1942.24,0.10318
1936.46,0.10394
1930.67,0.10514
1924.89,0.10531
1919.1,0.10605
1913.31,0.10632
1907.53,0.10628
1901.74,0.10645
1895.95,0.10554
1890.17,0.10477
1884.38,0.10474
1878.6,0.10355
1872.81,0.10286
1867.02,0.10135
1861.24,0.09966
1855.45,0.09737
1849.66,0.09482
1843.88,0.09203
1838.09,0.08878
1832.31,0.08483
1826.52,0.08087
1820.73,0.07700
1814.95,0.07242
1809.16,0.06815
1803.37,0.06378
1797.59,0.05899
1791.8,0.05455
1786.02,0.04963
1780.23,0.04467
1774.44,0.04045
1768.66,0.03629
1762.87,0.03287
1757.08,0.02987
1751.3,0.02837
1745.51,0.03200
1739.73,0.04086
1733.94,0.05125
1728.15,0.05943
1722.37,0.06419
1716.58,0.06546
1710.79,0.06347
1705.01,0.06133
1699.22,0.05936
1693.44,0.05723
1687.65,0.05586
1681.86,0.05533
1676.08,0.05418
1670.29,0.05342
1664.5,0.05242
1658.72,0.05248
1652.93,0.05217
1647.15,0.05137
1641.36,0.05079
1635.57,0.05063
1629.79,0.05094
1624,0.05060
1618.21,0.05022
1612.43,0.05020
1606.64,0.05018
1600.86,0.04952
1595.07,0.05042
1589.28,0.05072
1583.5,0.05019
1577.71,0.05044
1571.93,0.05143
1566.14,0.05174
1560.35,0.05091
1554.57,0.04936
1548.78,0.04894
1542.99,0.04837
1537.21,0.04779
1531.42,0.04733
1525.64,0.04736
1519.85,0.04598
1514.06,0.04580
1508.28,0.04590
1502.49,0.04658
1496.7,0.04654
1490.92,0.04600
1485.13,0.04404
1479.35,0.04263
1473.56,0.04217
1467.77,0.04230
1461.99,0.04255
1456.2,0.04270
1450.41,0.04319
1444.63,0.04438
1438.84,0.04485
1433.06,0.04494
1427.27,0.04407
1421.48,0.04293
1415.7,0.04208
1409.91,0.04322
1404.12,0.04367
1398.34,0.04308
1392.55,0.04229
1386.77,0.04237
1380.98,0.04294
1375.19,0.04349
1369.41,0.04351
1363.62,0.04325
1357.83,0.04284
1352.05,0.04222
1346.26,0.04222
1340.48,0.04136
1334.69,0.04058
1328.9,0.04040
1323.12,0.03982
1317.33,0.03876
1311.54,0.03845
1305.76,0.03790
1299.97,0.03859
1294.19,0.03863
1288.4,0.03862
1282.61,0.03836
1276.83,0.03893
1271.04,0.03936
1265.26,0.04030
1259.47,0.04122
1253.68,0.04245
1247.9,0.04263
1242.11,0.04325
1236.32,0.04317
1230.54,0.04345
1224.75,0.04386
1218.97,0.04389
1213.18,0.04383
1207.39,0.04392
1201.61,0.04445
1195.82,0.04632
1190.03,0.04644
1184.25,0.04718
1178.46,0.04835
1172.68,0.04903
1166.89,0.05053
1161.1,0.05309
1155.32,0.05479
1149.53,0.05703
1143.74,0.05742
1137.96,0.05711
1132.17,0.05640
1126.39,0.05552
1120.6,0.05651
1114.81,0.05719
1109.03,0.05822
1103.24,0.05925
1097.45,0.06036
1091.67,0.06052
1085.88,0.05967
1080.1,0.05981
1074.31,0.06049
1068.52,0.06115
1062.74,0.06330
1056.95,0.06408
1051.16,0.06637
1045.38,0.06721
1039.59,0.06786
1033.81,0.06778
1028.02,0.06818
1022.23,0.06910
1016.45,0.06961
1010.66,0.06941
1004.87,0.06910
999.089,0.06895
993.302,0.06876
987.516,0.06874
981.73,0.06971
975.944,0.06913
970.157,0.06870
964.371,0.06869
958.585,0.06814
952.799,0.06797
947.013,0.06711
941.226,0.06687
935.44,0.06619
929.654,0.06585
923.868,0.06583
918.081,0.06497
912.295,0.06529
906.509,0.06489
900.723,0.06453
894.937,0.06549
889.15,0.06549
883.364,0.06593
877.578,0.06536
871.792,0.06454
866.005,0.06413
860.219,0.06367
854.433,0.06287
848.647,0.06313
842.86,0.06096
837.074,0.05998
831.288,0.05961
825.502,0.06057
819.716,0.06100
813.929,0.06071
808.143,0.06225
802.357,0.06361
796.571,0.06400
790.784,0.06325
784.998,0.06177
779.212,0.06091
773.426,0.05994
767.64,0.06061
761.853,0.05999
756.067,0.06035
750.281,0.05947
744.495,0.05925
738.708,0.06040
732.922,0.06107
727.136,0.06218
721.35,0.06166
715.563,0.06174
709.777,0.06145
703.991,0.06090
698.205,0.06364
692.419,0.06626
686.632,0.06739
680.846,0.06982
675.06,0.06855
669.274,0.06749
663.487,0.06388
657.701,0.06141
651.915,0.05767
646.129,0.05803
640.343,0.05905
634.556,0.05691
628.77,0.05509
622.984,0.05519
617.198,0.05741
611.411,0.05721
605.625,0.05570
599.839,0.05808