File: 01_Data/Engineered_Flooring/FTIR/IS/Engineered_Flooring_IS_S_220909_R5.dpt
7497.02,0.37535
7491.24,0.37240
7485.45,0.38333
7479.66,0.37079
7473.88,0.37963
7468.09,0.38270
7462.3,0.37416
7456.52,0.36989
7450.73,0.37860
7444.95,0.37639
7439.16,0.36910
7433.37,0.36725
7427.59,0.36782
7421.8,0.36900
7416.01,0.37636
7410.23,0.36953
7404.44,0.36790
7398.66,0.37500
7392.87,0.36567
7387.08,0.36549
7381.3,0.36694
7375.51,0.36480
7369.73,0.36320
7363.94,0.36294
7358.15,0.36794
7352.37,0.36898
7346.58,0.36643
7340.79,0.36629
7335.01,0.35515
7329.22,0.36161
7323.44,0.36034
7317.65,0.36287
7311.86,0.36738
7306.08,0.36511
7300.29,0.36022
7294.5,0.35730
7288.72,0.35823
7282.93,0.35553
7277.15,0.36065
7271.36,0.36217
7265.57,0.35785
7259.79,0.36595
7254,0.36245
7248.21,0.35901
7242.43,0.36009
7236.64,0.36065
7230.86,0.35734
7225.07,0.36034
7219.28,0.35712
7213.5,0.35497
7207.71,0.35732
7201.92,0.34922
7196.14,0.35647
7190.35,0.35606
7184.57,0.34283
7178.78,0.34857
7172.99,0.35041
7167.21,0.34820
7161.42,0.34715
7155.63,0.35090
7149.85,0.34530
7144.06,0.34949
7138.28,0.33994
7132.49,0.34431
7126.7,0.34046
7120.92,0.34692
7115.13,0.33697
7109.34,0.33759
7103.56,0.33602
7097.77,0.33577
7091.99,0.33389
7086.2,0.33688
7080.41,0.32894
7074.63,0.33375
7068.84,0.32848
7063.06,0.32464
7057.27,0.32747
7051.48,0.31907
7045.7,0.32403
7039.91,0.32259
7034.12,0.31727
7028.34,0.31202
7022.55,0.31298
7016.77,0.31252
7010.98,0.31283
7005.19,0.30787
6999.41,0.30918
6993.62,0.31288
6987.83,0.31278
6982.05,0.30967
6976.26,0.30542
6970.48,0.31409
6964.69,0.30836
6958.9,0.30677
6953.12,0.30706
6947.33,0.30551
6941.54,0.30472
6935.76,0.30680
6929.97,0.30677
6924.19,0.30260
6918.4,0.30547
6912.61,0.30309
6906.83,0.30232
6901.04,0.30077
6895.25,0.30152
6889.47,0.29936
6883.68,0.30293
6877.9,0.30083
6872.11,0.30299
6866.32,0.30049
6860.54,0.30416
6854.75,0.30582
6848.96,0.30721
6843.18,0.30578
6837.39,0.30380
6831.61,0.30541
6825.82,0.30606
6820.03,0.30544
6814.25,0.30259
6808.46,0.30539
6802.67,0.30792
6796.89,0.30546
6791.1,0.30207
6785.32,0.30245
6779.53,0.30170
6773.74,0.30483
6767.96,0.30906
6762.17,0.30433
6756.38,0.30889
6750.6,0.30412
6744.81,0.31010
6739.03,0.30856
6733.24,0.31312
6727.45,0.31162
6721.67,0.30832
6715.88,0.30758
6710.1,0.30527
6704.31,0.31171
6698.52,0.30838
6692.74,0.30843
6686.95,0.31064
6681.16,0.30756
6675.38,0.30913
6669.59,0.31078
6663.81,0.31346
6658.02,0.31689
6652.23,0.31753
6646.45,0.31440
6640.66,0.31643
6634.87,0.31868
6629.09,0.31407
6623.3,0.31407
6617.52,0.31991
6611.73,0.31899
6605.94,0.31932
6600.16,0.31981
6594.37,0.32181
6588.58,0.32023
6582.8,0.31905
6577.01,0.32338
6571.23,0.32375
6565.44,0.32689
6559.65,0.32276
6553.87,0.32170
6548.08,0.32563
6542.29,0.32250
6536.51,0.32571
6530.72,0.32434
6524.94,0.32601
6519.15,0.32545
6513.36,0.32799
6507.58,0.33014
6501.79,0.32779
6496,0.32890
6490.22,0.32754
6484.43,0.33298
6478.65,0.32779
6472.86,0.32517
6467.07,0.32871
6461.29,0.32913
6455.5,0.32913
6449.71,0.32792
6443.93,0.32914
6438.14,0.32768
6432.36,0.32951
6426.57,0.33001
6420.78,0.33310
6415,0.33363
6409.21,0.33210
6403.43,0.32958
6397.64,0.33142
6391.85,0.33614
6386.07,0.33536
6380.28,0.33246
6374.49,0.33100
6368.71,0.33082
6362.92,0.33357
6357.14,0.33267
6351.35,0.33283
6345.56,0.33297
6339.78,0.33725
6333.99,0.33567
6328.2,0.33467
6322.42,0.33317
6316.63,0.33565
6310.85,0.33946
6305.06,0.33821
6299.27,0.34046
6293.49,0.33619
6287.7,0.34001
6281.91,0.33974
6276.13,0.33793
6270.34,0.33850
6264.56,0.34091
6258.77,0.34029
6252.98,0.34219
6247.2,0.34233
6241.41,0.34435
6235.62,0.34212
6229.84,0.34415
6224.05,0.34841
6218.27,0.34487
6212.48,0.34518
6206.69,0.34738
6200.91,0.34668
6195.12,0.34608
6189.33,0.34857
6183.55,0.34616
6177.76,0.34851
6171.98,0.34768
6166.19,0.34676
6160.4,0.34787
6154.62,0.34859
6148.83,0.35236
6143.04,0.35501
6137.26,0.35292
6131.47,0.35449
6125.69,0.35090
6119.9,0.34983
6114.11,0.35395
6108.33,0.35334
6102.54,0.35129
6096.76,0.34975
6090.97,0.35315
6085.18,0.35398
6079.4,0.35236
6073.61,0.35001
6067.82,0.35198
6062.04,0.34984
6056.25,0.35020
6050.47,0.35076
6044.68,0.34833
6038.89,0.34800
6033.11,0.34427
6027.32,0.34375
6021.53,0.34248
6015.75,0.34135
6009.96,0.33857
6004.18,0.33686
5998.39,0.33461
5992.6,0.33468
5986.82,0.32981
5981.03,0.33122
5975.24,0.32924
5969.46,0.32821
5963.67,0.32511
5957.89,0.32650
5952.1,0.32703
5946.31,0.32878
5940.53,0.32394
5934.74,0.32613
5928.95,0.32259
5923.17,0.32485
5917.38,0.32216
5911.6,0.32118
5905.81,0.32095
5900.02,0.32058
5894.24,0.32020
5888.45,0.31967
5882.66,0.32307
5876.88,0.32087
5871.09,0.32213
5865.31,0.31869
5859.52,0.31818
5853.73,0.32193
5847.95,0.32173
5842.16,0.32117
5836.37,0.31739
5830.59,0.31780
5824.8,0.31720
5819.02,0.31490
5813.23,0.31365
5807.44,0.31277
5801.66,0.31237
5795.87,0.31384
5790.08,0.31448
5784.3,0.31500
5778.51,0.31385
5772.73,0.31716
5766.94,0.31648
5761.15,0.31915
5755.37,0.32208
5749.58,0.32207
5743.8,0.32372
5738.01,0.32350
5732.22,0.32355
5726.44,0.32495
5720.65,0.32713
5714.86,0.32786
5709.08,0.32796
5703.29,0.32888
5697.51,0.33126
5691.72,0.33107
5685.93,0.33232
5680.15,0.32926
5674.36,0.33004
5668.57,0.33035
5662.79,0.33010
5657,0.33207
5651.22,0.33216
5645.43,0.33187
5639.64,0.33209
5633.86,0.33416
5628.07,0.33376
5622.28,0.33390
5616.5,0.33294
5610.71,0.33613
5604.93,0.33666
5599.14,0.33699
5593.35,0.33608
5587.57,0.33647
5581.78,0.33610
5575.99,0.33500
5570.21,0.33804
5564.42,0.33754
5558.64,0.33885
5552.85,0.33851
5547.06,0.33918
5541.28,0.33859
5535.49,0.33963
5529.7,0.34132
5523.92,0.34183
5518.13,0.34145
5512.35,0.34190
5506.56,0.34293
5500.77,0.34274
5494.99,0.34506
5489.2,0.34504
5483.41,0.34347
5477.63,0.34455
5471.84,0.34487
5466.06,0.34645
5460.27,0.34774
5454.48,0.34678
5448.7,0.34892
5442.91,0.34839
5437.13,0.35027
5431.34,0.35007
5425.55,0.35230
5419.77,0.35117
5413.98,0.35262
5408.19,0.35272
5402.41,0.35385
5396.62,0.35413
5390.84,0.35501
5385.05,0.35425
5379.26,0.35362
5373.48,0.35429
5367.69,0.35193
5361.9,0.35273
5356.12,0.35175
5350.33,0.35330
5344.55,0.35155
5338.76,0.35103
5332.97,0.34748
5327.19,0.34860
5321.4,0.34614
5315.61,0.34276
5309.83,0.33946
5304.04,0.33426
5298.26,0.33194
5292.47,0.32700
5286.68,0.32028
5280.9,0.31257
5275.11,0.30568
5269.32,0.29872
5263.54,0.29186
5257.75,0.28393
5251.97,0.27845
5246.18,0.27186
5240.39,0.26579
5234.61,0.26336
5228.82,0.25846
5223.03,0.25795
5217.25,0.25489
5211.46,0.25431
5205.68,0.25421
5199.89,0.25498
5194.1,0.25317
5188.32,0.25569
5182.53,0.25583
5176.74,0.25547
5170.96,0.25729
5165.17,0.25824
5159.39,0.26020
5153.6,0.26116
5147.81,0.26321
5142.03,0.26683
5136.24,0.26706
5130.46,0.26962
5124.67,0.27224
5118.88,0.27445
5113.1,0.27635
5107.31,0.27827
5101.52,0.28122
5095.74,0.28141
5089.95,0.28381
5084.17,0.28624
5078.38,0.28688
5072.59,0.28889
5066.81,0.29033
5061.02,0.29324
5055.23,0.29474
5049.45,0.29654
5043.66,0.29676
5037.88,0.29799
5032.09,0.29965
5026.3,0.30144
5020.52,0.30359
5014.73,0.30450
5008.94,0.30508
5003.16,0.30488
4997.37,0.30621
4991.59,0.30563
4985.8,0.30512
4980.01,0.30502
4974.23,0.30443
4968.44,0.30281
4962.65,0.30224
4956.87,0.30136
4951.08,0.29880
4945.3,0.29639
4939.51,0.29361
4933.72,0.29178
4927.94,0.28821
4922.15,0.28605
4916.36,0.28389
4910.58,0.28279
4904.79,0.28007
4899.01,0.27825
4893.22,0.27727
4887.43,0.27486
4881.65,0.27308
4875.86,0.27332
4870.07,0.27016
4864.29,0.26776
4858.5,0.26855
4852.72,0.26728
4846.93,0.26473
4841.14,0.26460
4835.36,0.26174
4829.57,0.26011
4823.78,0.26030
4818,0.26022
4812.21,0.25826
4806.43,0.25748
4800.64,0.25564
4794.85,0.25541
4789.07,0.25460
4783.28,0.25415
4777.5,0.25343
4771.71,0.25271
4765.92,0.25220
4760.14,0.25163
4754.35,0.25065
4748.56,0.24946
4742.78,0.24796
4736.99,0.24685
4731.21,0.24696
4725.42,0.24656
4719.63,0.24594
4713.85,0.24509
4708.06,0.24524
4702.27,0.24421
4696.49,0.24308
4690.7,0.24183
4684.92,0.24176
4679.13,0.24126
4673.34,0.24118
4667.56,0.24287
4661.77,0.24509
4655.98,0.24618
4650.2,0.24751
4644.41,0.25005
4638.63,0.25094
4632.84,0.25184
4627.05,0.25253
4621.27,0.25233
4615.48,0.25444
4609.69,0.25702
4603.91,0.25967
4598.12,0.26150
4592.34,0.26491
4586.55,0.26529
4580.76,0.26587
4574.98,0.26640
4569.19,0.26662
4563.4,0.26691
4557.62,0.26799
4551.83,0.26973
4546.05,0.27004
4540.26,0.27070
4534.47,0.27080
4528.69,0.27090
4522.9,0.27035
4517.11,0.26880
4511.33,0.26700
4505.54,0.26529
4499.76,0.26239
4493.97,0.25964
4488.18,0.25607
4482.4,0.25208
4476.61,0.24631
4470.83,0.24007
4465.04,0.23276
4459.25,0.22456
4453.47,0.21589
4447.68,0.20622
4441.89,0.19741
4436.11,0.18934
4430.32,0.18239
4424.54,0.17706
4418.75,0.17436
4412.96,0.17282
4407.18,0.17200
4401.39,0.17264
4395.6,0.17296
4389.82,0.17249
4384.03,0.17181
4378.25,0.17142
4372.46,0.16973
4366.67,0.16796
4360.89,0.16670
4355.1,0.16661
4349.31,0.16618
4343.53,0.16618
4337.74,0.16634
4331.96,0.16625
4326.17,0.16585
4320.38,0.16707
4314.6,0.16953
4308.81,0.17118
4303.02,0.17177
4297.24,0.17167
4291.45,0.17163
4285.67,0.17182
4279.88,0.17154
4274.09,0.17145
4268.31,0.17262
4262.52,0.17283
4256.73,0.17474
4250.95,0.17585
4245.16,0.17613
4239.38,0.17753
4233.59,0.17877
4227.8,0.17990
4222.02,0.18101
4216.23,0.18290
4210.44,0.18293
4204.66,0.18276
4198.87,0.18345
4193.09,0.18394
4187.3,0.18330
4181.51,0.18268
4175.73,0.18378
4169.94,0.18377
4164.16,0.18324
4158.37,0.18266
4152.58,0.18235
4146.8,0.18177
4141.01,0.18110
4135.22,0.18024
4129.44,0.17834
4123.65,0.17772
4117.87,0.17534
4112.08,0.17413
4106.29,0.17280
4100.51,0.17168
4094.72,0.16900
4088.93,0.16601
4083.15,0.16405
4077.36,0.16028
4071.58,0.15676
4065.79,0.15421
4060,0.15233
4054.22,0.15069
4048.43,0.15013
4042.64,0.14944
4036.86,0.14894
4031.07,0.14809
4025.29,0.14744
4019.5,0.14757
4013.71,0.14787
4007.93,0.14858
4002.14,0.14905
3996.35,0.14941
3990.57,0.15101
3984.78,0.15220
3979,0.15406
3973.21,0.15548
3967.42,0.15704
3961.64,0.15900
3955.85,0.16109
3950.06,0.16365
3944.28,0.16504
3938.49,0.16683
3932.71,0.16862
3926.92,0.17026
3921.13,0.17239
3915.35,0.17386
3909.56,0.17573
3903.77,0.17745
3897.99,0.17961
3892.2,0.18067
3886.42,0.18143
3880.63,0.18203
3874.84,0.18336
3869.06,0.18561
3863.27,0.18747
3857.48,0.18899
3851.7,0.19213
3845.91,0.19268
3840.13,0.19444
3834.34,0.19484
3828.55,0.19533
3822.77,0.19608
3816.98,0.19602
3811.2,0.19534
3805.41,0.19543
3799.62,0.19620
3793.84,0.19511
3788.05,0.19563
3782.26,0.19490
3776.48,0.19364
3770.69,0.19317
3764.91,0.19243
3759.12,0.19103
3753.33,0.18998
3747.55,0.18816
3741.76,0.18621
3735.97,0.18342
3730.19,0.18158
3724.4,0.17774
3718.62,0.17313
3712.83,0.16917
3707.04,0.16286
3701.26,0.15550
3695.47,0.14607
3689.68,0.13500
3683.9,0.12149
3678.11,0.10327
3672.33,0.09688
3666.54,0.08935
3660.75,0.08045
3654.97,0.07470
3649.18,0.06910
3643.39,0.06533
3637.61,0.06185
3631.82,0.05943
3626.04,0.05699
3620.25,0.05555
3614.46,0.05478
3608.68,0.05267
3602.89,0.05193
3597.1,0.05113
3591.32,0.05072
3585.53,0.05048
3579.75,0.04969
3573.96,0.04897
3568.17,0.04932
3562.39,0.04825
3556.6,0.04808
3550.81,0.04758
3545.03,0.04756
3539.24,0.04722
3533.46,0.04739
3527.67,0.04683
3521.88,0.04692
3516.1,0.04715
3510.31,0.04667
3504.53,0.04646
3498.74,0.04696
3492.95,0.04647
3487.17,0.04661
3481.38,0.04726
3475.59,0.04739
3469.81,0.04672
3464.02,0.04642
3458.24,0.04695
3452.45,0.04693
3446.66,0.04718
3440.88,0.04743
3435.09,0.04725
3429.3,0.04663
3423.52,0.04684
3417.73,0.04665
3411.95,0.04718
3406.16,0.04724
3400.37,0.04757
3394.59,0.04725
3388.8,0.04737
3383.01,0.04717
3377.23,0.04714
3371.44,0.04732
3365.66,0.04704
3359.87,0.04761
3354.08,0.04740
3348.3,0.04726
3342.51,0.04738
3336.72,0.04765
3330.94,0.04729
3325.15,0.04703
3319.37,0.04728
3313.58,0.04748
3307.79,0.04767
3302.01,0.04761
3296.22,0.04821
3290.43,0.04777
3284.65,0.04827
3278.86,0.04711
3273.08,0.04862
3267.29,0.04842
3261.5,0.04858
3255.72,0.04886
3249.93,0.04855
3244.14,0.04858
3238.36,0.04899
3232.57,0.04884
3226.79,0.04914
3221,0.04936
3215.21,0.04945
3209.43,0.04999
3203.64,0.04955
3197.86,0.04949
3192.07,0.04984
3186.28,0.04982
3180.5,0.05018
3174.71,0.05094
3168.92,0.05052
3163.14,0.05099
3157.35,0.05113
3151.57,0.05177
3145.78,0.05204
3139.99,0.05171
3134.21,0.05213
3128.42,0.05243
3122.63,0.05277
3116.85,0.05274
3111.06,0.05313
3105.28,0.05337
3099.49,0.05294
3093.7,0.05233
3087.92,0.05280
3082.13,0.05262
3076.34,0.05261
3070.56,0.05253
3064.77,0.05230
3058.99,0.05268
3053.2,0.05267
3047.41,0.05321
3041.63,0.05281
3035.84,0.05291
3030.05,0.05273
3024.27,0.05214
3018.48,0.05121
3012.7,0.05014
3006.91,0.04888
3001.12,0.04785
2995.34,0.04719
2989.55,0.04682
2983.76,0.04608
2977.98,0.04645
2972.19,0.04619
2966.41,0.04677
2960.62,0.04718
2954.83,0.04709
2949.05,0.04721
2943.26,0.04739
2937.47,0.04791
2931.69,0.04886
2925.9,0.04899
2920.12,0.05001
2914.33,0.05042
2908.54,0.04940
2902.76,0.04942
2896.97,0.04924
2891.18,0.04909
2885.4,0.04922
2879.61,0.04934
2873.83,0.04898
2868.04,0.04955
2862.25,0.04983
2856.47,0.05106
2850.68,0.05139
2844.9,0.05203
2839.11,0.05236
2833.32,0.05284
2827.54,0.05406
2821.75,0.05494
2815.96,0.05515
2810.18,0.05637
2804.39,0.05760
2798.61,0.05856
2792.82,0.05868
2787.03,0.05988
2781.25,0.06053
2775.46,0.06146
2769.67,0.06172
2763.89,0.06190
2758.1,0.06273
2752.32,0.06278
2746.53,0.06357
2740.74,0.06376
2734.96,0.06411
2729.17,0.06459
2723.38,0.06558
2717.6,0.06663
2711.81,0.06748
2706.03,0.06872
2700.24,0.06928
2694.45,0.07076
2688.67,0.07158
2682.88,0.07260
2677.09,0.07376
2671.31,0.07379
2665.52,0.07402
2659.74,0.07502
2653.95,0.07583
2648.16,0.07647
2642.38,0.07697
2636.59,0.07811
2630.8,0.07889
2625.02,0.07908
2619.23,0.07988
2613.45,0.08019
2607.66,0.08058
2601.87,0.08120
2596.09,0.08198
2590.3,0.08242
2584.51,0.08300
2578.73,0.08348
2572.94,0.08420
2567.16,0.08411
2561.37,0.08479
2555.58,0.08509
2549.8,0.08570
2544.01,0.08604
2538.23,0.08674
2532.44,0.08737
2526.65,0.08797
2520.87,0.08895
2515.08,0.08997
2509.29,0.09081
2503.51,0.09166
2497.72,0.09267
2491.94,0.09300
2486.15,0.09407
2480.36,0.09519
2474.58,0.09599
2468.79,0.09697
2463,0.09763
2457.22,0.09866
2451.43,0.09958
2445.65,0.09992
2439.86,0.10069
2434.07,0.10164
2428.29,0.10223
2422.5,0.10277
2416.71,0.10421
2410.93,0.10516
2405.14,0.10599
2399.36,0.10695
2393.57,0.10740
2387.78,0.10784
2382,0.10830
2376.21,0.10914
2370.42,0.10933
2364.64,0.10975
2358.85,0.11084
2353.07,0.11111
2347.28,0.11188
2341.49,0.11225
2335.71,0.11261
2329.92,0.11276
2324.13,0.11337
2318.35,0.11385
2312.56,0.11456
2306.78,0.11482
2300.99,0.11515
2295.2,0.11591
2289.42,0.11621
2283.63,0.11705
2277.84,0.11725
2272.06,0.11765
2266.27,0.11732
2260.49,0.11702
2254.7,0.11672
2248.91,0.11617
2243.13,0.11642
2237.34,0.11639
2231.56,0.11635
2225.77,0.11641
2219.98,0.11642
2214.2,0.11631
2208.41,0.11624
2202.62,0.11593
2196.84,0.11523
2191.05,0.11370
2185.27,0.11260
2179.48,0.11086
2173.69,0.10943
2167.91,0.10763
2162.12,0.10623
2156.33,0.10511
2150.55,0.10380
2144.76,0.10291
2138.98,0.10188
2133.19,0.10144
2127.4,0.10106
2121.62,0.10020
2115.83,0.09986
2110.04,0.09954
2104.26,0.09937
2098.47,0.09909
2092.69,0.09893
2086.9,0.09914
2081.11,0.09874
2075.33,0.09886
2069.54,0.09828
2063.75,0.09843
2057.97,0.09841
2052.18,0.09885
2046.4,0.09932
2040.61,0.09944
2034.82,0.09950
2029.04,0.09978
2023.25,0.09989
2017.46,0.10016
2011.68,0.10093
2005.89,0.10141
2000.11,0.10257
1994.32,0.10278
1988.53,0.10336
1982.75,0.10344
1976.96,0.10344
1971.17,0.10356
1965.39,0.10283
1959.6,0.10306
1953.82,0.10297
1948.03,0.10303
1942.24,0.10453
1936.46,0.10509
1930.67,0.10624
1924.89,0.10689
1919.1,0.10695
1913.31,0.10718
1907.53,0.10740
1901.74,0.10718
1895.95,0.10651
1890.17,0.10603
1884.38,0.10521
1878.6,0.10446
1872.81,0.10348
1867.02,0.10205
1861.24,0.10027
1855.45,0.09812
1849.66,0.09532
1843.88,0.09225
1838.09,0.08899
1832.31,0.08544
1826.52,0.08121
1820.73,0.07698
1814.95,0.07250
1809.16,0.06856
1803.37,0.06401
1797.59,0.05885
1791.8,0.05426
1786.02,0.04975
1780.23,0.04505
1774.44,0.04038
1768.66,0.03608
1762.87,0.03307
1757.08,0.02975
1751.3,0.02827
1745.51,0.03240
1739.73,0.04059
1733.94,0.05112
1728.15,0.06011
1722.37,0.06452
1716.58,0.06527
1710.79,0.06349
1705.01,0.06117
1699.22,0.05901
1693.44,0.05700
1687.65,0.05629
1681.86,0.05476
1676.08,0.05431
1670.29,0.05324
1664.5,0.05309
1658.72,0.05217
1652.93,0.05160
1647.15,0.05154
1641.36,0.05087
1635.57,0.05064
1629.79,0.05073
1624,0.05081
1618.21,0.05066
1612.43,0.05019
1606.64,0.04989
1600.86,0.04975
1595.07,0.05021
1589.28,0.05129
1583.5,0.05025
1577.71,0.05059
1571.93,0.05191
1566.14,0.05168
1560.35,0.05064
1554.57,0.04923
1548.78,0.04914
1542.99,0.04856
1537.21,0.04755
1531.42,0.04754
1525.64,0.04735
1519.85,0.04617
1514.06,0.04559
1508.28,0.04635
1502.49,0.04687
1496.7,0.04648
1490.92,0.04555
1485.13,0.04419
1479.35,0.04231
1473.56,0.04208
1467.77,0.04236
1461.99,0.04188
1456.2,0.04229
1450.41,0.04333
1444.63,0.04470
1438.84,0.04523
1433.06,0.04475
1427.27,0.04400
1421.48,0.04303
1415.7,0.04221
1409.91,0.04281
1404.12,0.04399
1398.34,0.04352
1392.55,0.04259
1386.77,0.04234
1380.98,0.04272
1375.19,0.04335
1369.41,0.04370
1363.62,0.04308
1357.83,0.04298
1352.05,0.04227
1346.26,0.04168
1340.48,0.04109
1334.69,0.04084
1328.9,0.04049
1323.12,0.03971
1317.33,0.03924
1311.54,0.03879
1305.76,0.03822
1299.97,0.03827
1294.19,0.03871
1288.4,0.03852
1282.61,0.03866
1276.83,0.03839
1271.04,0.03977
1265.26,0.04037
1259.47,0.04102
1253.68,0.04229
1247.9,0.04284
1242.11,0.04273
1236.32,0.04338
1230.54,0.04363
1224.75,0.04396
1218.97,0.04404
1213.18,0.04377
1207.39,0.04459
1201.61,0.04498
1195.82,0.04609
1190.03,0.04617
1184.25,0.04717
1178.46,0.04816
1172.68,0.04895
1166.89,0.05124
1161.1,0.05318
1155.32,0.05520
1149.53,0.05704
1143.74,0.05737
1137.96,0.05652
1132.17,0.05635
1126.39,0.05527
1120.6,0.05529
1114.81,0.05709
1109.03,0.05761
1103.24,0.05952
1097.45,0.05966
1091.67,0.05942
1085.88,0.05971
1080.1,0.05902
1074.31,0.05992
1068.52,0.06197
1062.74,0.06361
1056.95,0.06463
1051.16,0.06554
1045.38,0.06651
1039.59,0.06670
1033.81,0.06760
1028.02,0.06857
1022.23,0.06893
1016.45,0.06922
1010.66,0.06960
1004.87,0.06909
999.089,0.06846
993.302,0.06808
987.516,0.06897
981.73,0.06903
975.944,0.06901
970.157,0.06880
964.371,0.06863
958.585,0.06846
952.799,0.06829
947.013,0.06770
941.226,0.06723
935.44,0.06604
929.654,0.06514
923.868,0.06560
918.081,0.06607
912.295,0.06549
906.509,0.06573
900.723,0.06518
894.937,0.06588
889.15,0.06612
883.364,0.06624
877.578,0.06591
871.792,0.06458
866.005,0.06392
860.219,0.06347
854.433,0.06281
848.647,0.06225
842.86,0.06164
837.074,0.06069
831.288,0.06048
825.502,0.06138
819.716,0.06181
813.929,0.06110
808.143,0.06304
802.357,0.06431
796.571,0.06386
790.784,0.06274
784.998,0.06226
779.212,0.06121
773.426,0.06020
767.64,0.06037
761.853,0.06028
756.067,0.06005
750.281,0.05953
744.495,0.05907
738.708,0.05995
732.922,0.06123
727.136,0.06267
721.35,0.06248
715.563,0.06254
709.777,0.06099
703.991,0.06169
698.205,0.06275
692.419,0.06548
686.632,0.06883
680.846,0.06992
675.06,0.07106
669.274,0.06684
663.487,0.06322
657.701,0.06132
651.915,0.05924
646.129,0.05839
640.343,0.05780
634.556,0.05670
628.77,0.05572
622.984,0.05611
617.198,0.05700
611.411,0.05842
605.625,0.05996
599.839,0.05826