File: 01_Data/PLA_3D_Printer_Filament/MCC/PLA_3D_Printer_Filament_MCC_30K_min_220216_R1.txt
Sample ID:	C:\MCC\MCC Cal\Test\PLA_3D_Printer_Filament_MCC_30K_min_220216_R1.txt
Sample Weight (mg):	4.6
Heating Rate (C/s):	0.5
Combustor Temp (C):	900
N2 Flow Rate (cc/min):	80
O2 Flow Rate (cc/min):	20
Calibration File:	C:\MCC\MCC Cal\Coeff1 JN10440_30_210304.txt.txt
T Correction Coefficients:	0	1.024463	0
Time Shift (s):	14
*
Time (s)	Temperature (C)	N2 flow rate (cc/min)	O2 flow rate (cc/min)	Flow Rate (cc/min)	Oxygen (%)	HRR (W/g)	Heating rate (C/s)
-0.001	115.024	80.014	19.993	103.667	20.087	-0.450	-0.025
1.499	115.004	80.009	19.996	103.666	20.086	-0.399	-0.019
2.999	115.016	79.999	19.994	103.668	20.086	-0.353	-0.002
4.499	115.011	80.007	19.993	103.666	20.086	-0.349	-0.021
5.999	115.041	80.005	19.995	103.662	20.088	-0.517	0.001
7.498	114.991	80.003	19.994	103.664	20.087	-0.433	-0.050
8.999	114.999	80.027	19.991	103.667	20.085	-0.293	-0.011
10.500	114.944	80.010	19.993	103.675	20.086	-0.382	-0.014
12.000	114.989	80.010	19.989	103.687	20.085	-0.325	0.020
13.499	114.953	79.998	19.995	103.681	20.086	-0.338	0.019
14.999	114.969	80.004	19.992	103.674	20.086	-0.350	-0.010
16.498	115.016	80.016	19.990	103.680	20.085	-0.302	0.022
18.000	114.977	80.009	19.992	103.693	20.083	-0.126	-0.019
19.500	114.942	80.003	19.993	103.700	20.081	-0.019	0.000
20.999	114.996	79.999	19.992	103.702	20.081	-0.029	0.010
22.500	114.947	79.993	19.994	103.709	20.082	-0.074	-0.017
24.000	115.000	80.007	19.993	103.712	20.075	0.403	0.003
25.499	115.029	80.003	19.992	103.755	20.073	0.548	0.026
27.000	115.121	80.011	19.993	103.784	20.069	0.820	0.060
28.499	115.126	80.010	19.994	103.806	20.066	1.041	0.027
29.998	115.184	80.001	19.992	103.843	20.061	1.370	0.046
31.499	115.312	79.995	19.995	103.851	20.060	1.502	0.079
32.999	115.418	79.991	19.999	103.858	20.057	1.675	0.073
34.500	115.546	80.021	19.989	103.860	20.054	1.866	0.100
35.998	115.689	79.997	19.995	103.882	20.053	1.980	0.084
37.499	115.886	79.999	19.994	103.889	20.048	2.338	0.140
38.999	116.077	80.011	19.994	103.899	20.046	2.441	0.118
40.499	116.261	80.008	19.994	103.898	20.045	2.535	0.154
41.998	116.541	80.006	19.993	103.898	20.043	2.645	0.175
43.498	116.786	80.000	19.990	103.906	20.044	2.580	0.159
44.998	117.061	80.007	19.994	103.909	20.042	2.716	0.192
46.499	117.374	80.009	19.989	103.913	20.042	2.757	0.216
47.999	117.647	80.012	19.995	103.927	20.039	2.978	0.173
49.499	117.974	80.007	19.994	103.931	20.039	2.948	0.195
50.999	118.347	79.998	19.998	103.935	20.036	3.169	0.266
52.500	118.737	80.009	19.989	103.940	20.040	2.890	0.261
53.998	119.110	80.011	19.993	103.943	20.036	3.166	0.242
55.499	119.482	80.011	19.991	103.949	20.036	3.175	0.236
56.999	119.920	80.010	19.995	103.943	20.036	3.131	0.308
58.499	120.354	80.002	19.996	103.944	20.034	3.280	0.263
59.999	120.824	80.010	19.992	103.949	20.034	3.289	0.310
61.499	121.304	80.018	19.993	103.953	20.036	3.179	0.328
62.999	121.802	80.022	19.991	103.973	20.031	3.512	0.331
64.499	122.289	80.013	19.993	103.988	20.032	3.463	0.343
65.998	122.786	80.023	19.991	103.980	20.029	3.652	0.353
67.499	123.333	80.003	19.997	103.967	20.032	3.414	0.346
68.998	123.885	80.012	19.994	103.962	20.031	3.543	0.371
70.500	124.417	80.000	19.995	103.961	20.031	3.516	0.354
72.000	124.994	80.015	19.990	103.960	20.030	3.606	0.382
73.499	125.563	80.015	19.993	103.964	20.030	3.583	0.396
74.999	126.131	80.002	19.993	103.967	20.031	3.530	0.377
76.499	126.701	80.019	19.992	103.974	20.033	3.391	0.375
77.999	127.297	80.021	19.993	103.976	20.031	3.507	0.397
79.499	127.941	80.024	19.990	103.976	20.029	3.667	0.445
80.999	128.628	80.006	19.993	103.976	20.032	3.455	0.460
82.500	129.229	80.013	19.993	103.966	20.029	3.629	0.426
83.999	129.840	80.005	19.994	103.970	20.029	3.672	0.415
85.499	130.529	79.997	19.993	103.972	20.031	3.534	0.455
86.999	131.201	80.006	19.993	103.975	20.034	3.276	0.462
88.499	131.880	80.005	19.993	103.970	20.033	3.396	0.454
89.999	132.606	80.014	19.994	103.970	20.032	3.409	0.473
91.499	133.259	80.009	19.999	103.969	20.033	3.341	0.446
92.998	133.973	80.002	19.996	103.971	20.033	3.404	0.473
94.499	134.641	80.006	19.995	103.972	20.031	3.503	0.432
95.999	135.363	80.003	19.995	103.978	20.032	3.419	0.465
97.498	136.103	80.004	19.995	103.982	20.029	3.636	0.486
98.999	136.830	80.002	19.995	103.971	20.033	3.396	0.456
100.499	137.584	80.006	19.994	103.967	20.032	3.456	0.501
102.000	138.302	80.010	19.990	103.975	20.029	3.679	0.493
103.500	139.064	80.004	19.993	103.982	20.033	3.352	0.523
104.999	139.815	80.002	19.994	103.972	20.033	3.390	0.512
106.498	140.597	80.016	19.992	103.956	20.034	3.296	0.516
107.998	141.341	80.018	19.994	103.967	20.032	3.428	0.489
109.500	142.069	79.996	19.996	103.966	20.034	3.306	0.493
110.999	142.880	80.010	19.993	103.948	20.035	3.251	0.536
112.500	143.673	80.002	19.994	103.957	20.036	3.131	0.516
113.999	144.452	80.027	19.990	103.950	20.035	3.211	0.542
115.498	145.229	80.011	19.993	103.948	20.035	3.237	0.525
116.999	146.022	80.008	19.992	103.947	20.035	3.224	0.524
118.498	146.781	80.005	19.993	103.950	20.038	3.047	0.515
119.999	147.606	80.013	19.992	103.941	20.036	3.157	0.548
121.499	148.392	80.009	19.994	103.944	20.038	3.053	0.549
122.999	149.218	80.012	19.985	103.945	20.035	3.199	0.551
124.499	149.984	80.005	19.994	103.940	20.037	3.083	0.520
125.998	150.805	79.994	19.995	103.937	20.039	2.959	0.534
127.498	151.600	80.011	19.991	103.942	20.036	3.142	0.538
128.999	152.352	80.005	19.994	103.944	20.038	3.048	0.495
130.499	153.186	80.003	19.997	103.937	20.041	2.782	0.529
131.999	153.979	80.010	19.992	103.943	20.043	2.677	0.517
133.499	154.782	80.015	19.992	103.947	20.044	2.622	0.534
134.999	155.517	80.014	19.993	103.942	20.044	2.595	0.476
136.499	156.290	80.001	19.995	103.941	20.043	2.690	0.505
137.999	157.061	80.009	19.994	103.944	20.040	2.869	0.479
139.499	157.825	79.999	19.995	103.931	20.042	2.759	0.537
141.000	158.618	80.018	19.993	103.924	20.042	2.745	0.525
142.499	159.421	80.011	19.993	103.929	20.045	2.500	0.511
144.000	160.246	80.013	19.994	103.925	20.047	2.404	0.557
145.499	160.990	80.006	19.993	103.915	20.046	2.463	0.512
147.000	161.811	80.018	19.992	103.916	20.047	2.357	0.549
148.499	162.578	80.011	19.988	103.929	20.050	2.199	0.528
150.000	163.305	80.009	19.993	103.922	20.046	2.465	0.485
151.499	164.084	80.015	19.989	103.908	20.045	2.516	0.506
152.999	164.870	79.996	19.994	103.911	20.046	2.465	0.544
154.499	165.666	79.998	19.992	103.906	20.047	2.377	0.527
155.999	166.432	79.998	19.994	103.905	20.052	2.037	0.500
157.499	167.190	80.007	19.992	103.903	20.048	2.332	0.525
158.999	167.920	80.004	19.997	103.907	20.049	2.223	0.473
160.499	168.721	80.014	19.992	103.903	20.053	1.981	0.545
161.999	169.502	80.006	19.994	103.900	20.049	2.217	0.520
163.499	170.266	80.001	19.993	103.900	20.049	2.208	0.507
165.000	170.994	80.002	19.996	103.895	20.050	2.170	0.493
166.499	171.781	80.010	19.992	103.892	20.052	2.019	0.501
168.000	172.480	80.003	19.993	103.900	20.052	2.027	0.487
169.500	173.250	80.006	19.993	103.900	20.051	2.136	0.542
170.999	174.021	80.011	19.993	103.888	20.053	1.989	0.513
172.500	174.736	80.007	19.992	103.887	20.053	1.936	0.495
174.000	175.507	80.013	19.991	103.888	20.055	1.795	0.497
175.500	176.237	80.004	19.992	103.884	20.055	1.821	0.479
177.000	176.985	80.009	19.994	103.892	20.055	1.797	0.509
178.500	177.703	80.005	19.992	103.891	20.052	2.040	0.503
179.999	178.453	79.999	19.994	103.890	20.056	1.715	0.466
181.499	179.171	80.007	19.995	103.892	20.056	1.719	0.485
182.999	179.900	80.009	19.994	103.901	20.058	1.637	0.487
184.499	180.604	80.008	19.996	103.894	20.057	1.644	0.472
185.999	181.353	80.006	19.995	103.889	20.059	1.564	0.520
187.499	182.131	80.006	19.994	103.889	20.056	1.766	0.535
188.999	182.868	79.989	19.995	103.892	20.058	1.610	0.483
190.500	183.559	79.985	19.998	103.892	20.057	1.658	0.470
192.000	184.314	80.007	19.994	103.889	20.056	1.781	0.497
193.500	185.093	80.020	19.991	103.891	20.056	1.770	0.518
194.998	185.768	80.017	19.993	103.890	20.056	1.721	0.446
196.499	186.518	80.014	19.992	103.876	20.055	1.840	0.496
197.999	187.264	80.005	19.994	103.887	20.059	1.528	0.502
199.499	188.000	80.004	19.994	103.891	20.056	1.728	0.512
200.999	188.741	80.001	19.993	103.881	20.060	1.460	0.493
202.500	189.468	80.006	19.993	103.875	20.056	1.736	0.476
203.999	190.200	80.013	19.990	103.887	20.055	1.836	0.485
205.500	190.946	80.006	19.995	103.898	20.054	1.896	0.491
206.999	191.632	80.000	19.994	103.883	20.055	1.797	0.451
208.498	192.379	80.002	19.994	103.873	20.055	1.833	0.501
209.998	193.063	80.018	19.990	103.879	20.058	1.621	0.444
211.498	193.825	80.003	19.994	103.877	20.058	1.608	0.508
212.999	194.533	80.010	19.994	103.885	20.055	1.795	0.475
214.499	195.289	80.011	19.993	103.882	20.059	1.530	0.483
215.999	196.025	80.001	19.990	103.880	20.057	1.656	0.498
217.500	196.705	80.019	19.992	103.885	20.058	1.625	0.446
219.000	197.448	80.010	19.991	103.879	20.058	1.614	0.514
220.498	198.133	80.007	19.988	103.878	20.059	1.549	0.451
222.000	198.905	80.012	19.993	103.877	20.057	1.688	0.492
223.499	199.612	80.007	19.992	103.883	20.055	1.791	0.471
224.999	200.360	80.013	19.991	103.887	20.058	1.640	0.499
226.500	201.102	80.012	19.991	103.886	20.054	1.890	0.519
228.000	201.826	80.012	19.994	103.873	20.060	1.475	0.490
229.499	202.562	80.021	19.990	103.865	20.057	1.705	0.483
230.998	203.252	80.008	19.992	103.867	20.058	1.625	0.488
232.500	204.027	80.018	19.990	103.864	20.059	1.509	0.509
233.998	204.704	80.005	19.993	103.872	20.057	1.682	0.465
235.499	205.485	80.008	19.993	103.874	20.060	1.480	0.514
236.999	206.226	80.013	19.992	103.870	20.058	1.587	0.504
238.500	206.992	80.013	19.993	103.863	20.060	1.478	0.489
240.000	207.636	79.994	19.995	103.880	20.062	1.321	0.460
241.500	208.394	79.988	19.995	103.869	20.058	1.637	0.511
242.999	209.195	80.004	19.994	103.866	20.060	1.446	0.544
244.500	209.883	80.009	19.993	103.877	20.060	1.496	0.497
245.999	210.630	80.011	19.993	103.869	20.060	1.437	0.481
247.499	211.421	80.012	19.993	103.864	20.060	1.456	0.501
248.999	212.164	80.008	19.994	103.866	20.062	1.361	0.514
250.499	212.871	80.018	19.992	103.860	20.062	1.359	0.492
251.998	213.618	79.994	19.995	103.874	20.061	1.404	0.494
253.499	214.355	80.012	19.993	103.866	20.060	1.473	0.499
254.999	215.082	80.009	19.995	103.861	20.066	1.064	0.474
256.498	215.854	80.009	19.993	103.856	20.062	1.319	0.518
257.998	216.610	80.003	19.996	103.867	20.063	1.222	0.496
259.499	217.350	80.019	19.994	103.876	20.060	1.446	0.490
260.999	218.109	79.993	19.995	103.874	20.063	1.226	0.498
262.499	218.846	80.019	19.990	103.857	20.063	1.279	0.502
264.000	219.526	80.002	19.996	103.879	20.065	1.115	0.461
265.499	220.266	80.015	19.997	103.883	20.061	1.427	0.511
266.998	221.043	80.003	19.992	103.867	20.064	1.212	0.504
268.499	221.774	80.009	19.992	103.862	20.065	1.149	0.480
270.000	222.581	80.018	19.993	103.867	20.064	1.189	0.518
271.499	223.308	80.008	19.994	103.872	20.064	1.157	0.464
272.999	224.043	80.002	19.996	103.868	20.065	1.117	0.510
274.498	224.823	80.007	19.992	103.863	20.064	1.180	0.530
276.000	225.537	80.016	19.991	103.869	20.065	1.145	0.507
277.499	226.297	80.003	19.992	103.871	20.065	1.115	0.508
278.999	227.057	80.014	19.995	103.865	20.060	1.433	0.497
280.500	227.777	80.002	19.992	103.865	20.063	1.254	0.502
281.999	228.563	80.012	19.994	103.864	20.062	1.351	0.529
283.500	229.370	80.005	19.993	103.861	20.064	1.199	0.524
285.000	230.116	80.007	19.995	103.859	20.066	1.022	0.500
286.499	230.873	79.998	19.994	103.862	20.064	1.206	0.511
288.000	231.628	80.010	19.992	103.864	20.062	1.328	0.498
289.498	232.325	80.007	19.993	103.863	20.062	1.324	0.482
290.999	233.073	80.002	19.994	103.865	20.059	1.556	0.506
292.499	233.856	80.014	19.992	103.860	20.062	1.326	0.504
293.999	234.595	80.011	19.993	103.864	20.061	1.414	0.498
295.498	235.303	80.007	19.994	103.867	20.062	1.299	0.479
297.000	236.105	80.018	19.992	103.863	20.060	1.446	0.536
298.500	236.812	80.002	19.993	103.863	20.063	1.233	0.488
299.999	237.614	80.009	19.992	103.862	20.061	1.416	0.524
301.498	238.329	80.012	19.994	103.861	20.062	1.326	0.491
302.998	239.078	79.989	19.995	103.861	20.059	1.555	0.497
304.498	239.826	80.010	19.994	103.858	20.063	1.246	0.500
305.998	240.590	80.017	19.993	103.852	20.062	1.294	0.502
307.498	241.327	80.010	19.992	103.853	20.059	1.564	0.491
308.998	242.098	80.036	19.989	103.856	20.059	1.509	0.515
310.498	242.845	80.006	19.993	103.866	20.061	1.410	0.481
311.999	243.562	80.010	19.993	103.858	20.063	1.282	0.477
313.498	244.358	80.012	19.993	103.856	20.061	1.374	0.534
314.999	245.138	80.007	19.993	103.860	20.061	1.389	0.521
316.499	245.837	80.020	19.993	103.860	20.065	1.119	0.460
317.999	246.611	80.015	19.991	103.855	20.063	1.231	0.509
319.500	247.341	80.024	19.992	103.851	20.065	1.117	0.501
320.999	248.099	80.008	19.994	103.852	20.065	1.086	0.517
322.498	248.896	79.999	19.994	103.855	20.066	1.060	0.515
323.999	249.630	80.010	19.993	103.856	20.063	1.290	0.486
325.499	250.417	80.003	19.996	103.855	20.060	1.490	0.533
326.999	251.172	80.011	19.992	103.852	20.064	1.182	0.491
328.499	251.950	80.016	19.992	103.856	20.062	1.345	0.508
329.999	252.697	80.009	19.993	103.859	20.064	1.185	0.512
331.499	253.434	80.017	19.992	103.858	20.060	1.486	0.495
332.999	254.211	80.013	19.992	103.857	20.058	1.627	0.517
334.498	254.982	80.009	19.991	103.862	20.061	1.368	0.527
335.998	255.744	80.012	19.993	103.859	20.062	1.358	0.514
337.500	256.494	80.003	19.995	103.861	20.062	1.345	0.471
338.999	257.220	80.003	19.994	103.860	20.060	1.467	0.479
340.499	257.992	80.008	19.992	103.858	20.062	1.301	0.499
341.999	258.690	80.001	19.994	103.857	20.063	1.265	0.489
343.499	259.493	80.005	19.992	103.856	20.060	1.446	0.544
344.998	260.259	80.000	19.994	103.860	20.059	1.531	0.516
346.500	261.001	80.005	19.997	103.850	20.060	1.492	0.492
347.999	261.736	80.005	19.995	103.847	20.056	1.754	0.505
349.499	262.442	79.997	19.997	103.853	20.063	1.252	0.501
350.999	263.251	80.021	19.992	103.851	20.058	1.608	0.543
352.500	263.993	80.012	19.993	103.855	20.059	1.549	0.493
353.998	264.722	79.995	19.994	103.841	20.056	1.762	0.468
355.499	265.480	80.011	19.994	103.841	20.057	1.674	0.518
356.999	266.204	79.992	19.995	103.850	20.057	1.644	0.472
358.500	266.988	80.009	19.992	103.837	20.055	1.808	0.519
359.999	267.726	80.001	19.995	103.848	20.056	1.741	0.506
361.499	268.468	80.006	19.996	103.852	20.058	1.615	0.494
362.998	269.206	80.007	19.994	103.856	20.057	1.707	0.497
364.499	269.951	80.006	19.992	103.855	20.057	1.655	0.495
365.999	270.714	80.006	19.995	103.844	20.057	1.672	0.495
367.499	271.488	80.011	19.993	103.842	20.059	1.520	0.506
369.000	272.255	80.003	19.994	103.855	20.058	1.589	0.526
370.498	272.982	80.009	19.995	103.857	20.054	1.910	0.473
371.999	273.717	80.002	19.997	103.854	20.057	1.701	0.494
373.499	274.480	80.004	19.997	103.848	20.057	1.649	0.505
375.000	275.249	80.005	19.995	103.852	20.053	1.950	0.479
376.499	275.968	80.004	19.995	103.856	20.052	1.998	0.472
377.999	276.726	80.007	19.995	103.854	20.050	2.154	0.493
379.500	277.473	80.010	19.993	103.852	20.051	2.102	0.494
381.000	278.235	80.005	19.995	103.852	20.049	2.247	0.522
382.499	278.939	79.999	19.995	103.837	20.050	2.173	0.499
383.998	279.728	79.998	19.992	103.832	20.048	2.308	0.539
385.499	280.521	80.007	19.993	103.839	20.046	2.469	0.537
386.999	281.203	80.010	19.992	103.848	20.045	2.508	0.452
388.499	281.973	80.005	19.995	103.854	20.044	2.566	0.498
389.999	282.698	80.011	19.994	103.853	20.045	2.521	0.508
391.499	283.444	80.007	19.994	103.849	20.044	2.620	0.500
393.000	284.208	80.009	19.993	103.849	20.039	2.953	0.494
394.498	284.973	80.010	19.992	103.839	20.043	2.662	0.488
396.000	285.688	80.010	19.991	103.842	20.044	2.627	0.447
397.499	286.440	80.009	19.994	103.858	20.042	2.749	0.491
399.000	287.208	80.014	19.990	103.851	20.039	2.974	0.503
400.500	287.948	80.011	19.993	103.845	20.044	2.614	0.483
401.999	288.692	80.002	19.992	103.848	20.041	2.831	0.485
403.498	289.466	80.011	19.994	103.848	20.038	3.012	0.523
404.998	290.233	80.019	19.990	103.841	20.038	3.004	0.513
406.499	290.965	80.010	19.993	103.841	20.036	3.156	0.506
408.000	291.770	80.015	19.991	103.834	20.035	3.237	0.546
409.500	292.513	80.006	19.993	103.847	20.033	3.377	0.503
410.999	293.269	80.012	19.992	103.859	20.029	3.625	0.505
412.500	294.028	80.006	19.991	103.858	20.029	3.659	0.504
413.999	294.781	80.011	19.992	103.851	20.026	3.893	0.541
415.499	295.528	80.006	19.992	103.854	20.028	3.735	0.497
416.999	296.259	80.008	19.994	103.852	20.025	3.939	0.489
418.499	297.022	80.018	19.991	103.854	20.023	4.057	0.508
419.998	297.792	80.009	19.993	103.855	20.020	4.257	0.511
421.498	298.512	80.009	19.991	103.858	20.015	4.630	0.479
422.999	299.257	80.009	19.993	103.860	20.011	4.909	0.470
424.498	299.991	80.006	19.994	103.858	20.011	4.898	0.490
425.999	300.762	80.008	19.993	103.860	20.008	5.160	0.510
427.499	301.509	80.005	19.993	103.861	20.003	5.495	0.508
428.998	302.287	80.005	19.994	103.860	19.998	5.851	0.510
430.498	303.012	80.007	19.990	103.862	19.996	5.952	0.484
431.998	303.750	80.005	19.994	103.864	19.990	6.369	0.496
433.498	304.495	80.003	19.995	103.861	19.988	6.562	0.495
434.998	305.223	80.008	19.994	103.861	19.981	7.007	0.451
436.499	305.969	80.004	19.992	103.860	19.975	7.448	0.483
437.999	306.781	80.008	19.989	103.858	19.972	7.661	0.533
439.498	307.554	80.005	19.996	103.864	19.969	7.873	0.531
440.999	308.303	80.007	19.992	103.863	19.958	8.648	0.505
442.500	309.018	80.007	19.994	103.869	19.953	9.038	0.483
443.999	309.778	80.003	19.994	103.885	19.946	9.508	0.515
445.498	310.546	80.008	19.993	103.879	19.940	9.918	0.519
446.999	311.307	80.006	19.993	103.865	19.940	9.900	0.510
448.499	312.076	80.009	19.994	103.862	19.936	10.231	0.528
449.998	312.851	80.003	19.995	103.873	19.928	10.742	0.502
451.499	313.626	80.010	19.991	103.879	19.925	10.986	0.516
452.999	314.360	80.001	19.995	103.871	19.919	11.370	0.496
454.499	315.103	80.006	19.995	103.890	19.917	11.579	0.486
456.000	315.876	80.006	19.994	103.891	19.913	11.802	0.528
457.499	316.634	80.004	19.994	103.877	19.908	12.198	0.504
458.998	317.379	80.005	19.994	103.893	19.902	12.633	0.492
460.499	318.156	80.009	19.994	103.901	19.893	13.226	0.512
461.999	318.925	80.009	19.994	103.907	19.884	13.852	0.519
463.499	319.616	80.008	19.994	103.906	19.873	14.636	0.465
464.999	320.402	80.009	19.993	103.902	19.868	14.968	0.499
466.499	321.147	80.007	19.994	103.902	19.856	15.840	0.498
467.999	321.890	80.009	19.993	103.915	19.842	16.830	0.475
469.499	322.700	80.008	19.992	103.928	19.832	17.518	0.519
470.999	323.401	80.009	19.994	103.921	19.822	18.272	0.473
472.500	324.161	80.003	19.994	103.916	19.814	18.815	0.503
473.998	324.898	80.009	19.995	103.910	19.800	19.795	0.494
475.499	325.675	80.007	19.993	103.913	19.790	20.495	0.499
476.999	326.473	80.007	19.994	103.926	19.773	21.698	0.531
478.499	327.235	80.010	19.992	103.948	19.757	22.847	0.514
479.999	327.966	80.006	19.993	103.957	19.748	23.457	0.486
481.499	328.776	80.009	19.994	103.948	19.736	24.327	0.546
482.999	329.566	80.008	19.994	103.944	19.725	25.131	0.538
484.499	330.303	80.008	19.994	103.956	19.708	26.311	0.514
486.000	331.088	80.009	19.993	103.972	19.690	27.547	0.540
487.499	331.854	80.009	19.993	103.981	19.674	28.715	0.499
489.000	332.604	80.013	19.994	103.978	19.660	29.722	0.494
490.500	333.429	80.011	19.992	103.977	19.636	31.370	0.544
491.998	334.144	80.005	19.993	103.988	19.615	32.858	0.492
493.500	334.957	80.009	19.992	103.987	19.596	34.249	0.550
494.999	335.706	80.012	19.992	104.004	19.569	36.119	0.496
496.498	336.471	80.006	19.992	104.026	19.544	37.926	0.504
498.000	337.260	80.004	19.992	104.034	19.517	39.841	0.514
499.499	338.050	80.010	19.994	104.021	19.494	41.467	0.516
500.999	338.787	80.004	19.994	104.022	19.473	42.903	0.493
502.499	339.571	80.006	19.994	104.031	19.450	44.562	0.527
503.998	340.323	80.007	19.992	104.043	19.424	46.408	0.507
505.499	341.109	80.009	19.992	104.074	19.391	48.773	0.504
506.999	341.809	80.001	19.993	104.115	19.360	50.984	0.493
508.498	342.623	80.009	19.994	104.126	19.326	53.366	0.523
509.999	343.348	80.007	19.994	104.110	19.291	55.837	0.482
511.500	344.110	80.014	19.993	104.128	19.256	58.308	0.504
512.999	344.826	80.010	19.993	104.142	19.220	60.900	0.492
514.500	345.621	80.006	19.993	104.149	19.174	64.148	0.508
515.999	346.357	80.008	19.993	104.196	19.130	67.311	0.477
517.500	347.124	80.004	19.993	104.227	19.085	70.517	0.517
518.999	347.877	80.006	19.993	104.221	19.039	73.756	0.486
520.498	348.647	80.002	19.997	104.227	18.985	77.613	0.541
521.999	349.427	80.015	19.993	104.253	18.933	81.335	0.517
523.498	350.123	80.003	19.998	104.276	18.876	85.365	0.468
524.999	350.889	80.006	19.992	104.310	18.821	89.317	0.502
526.500	351.617	80.005	19.992	104.342	18.759	93.719	0.477
527.999	352.378	80.009	19.993	104.357	18.694	98.356	0.540
529.498	353.138	80.003	19.998	104.389	18.626	103.212	0.502
530.999	353.905	80.006	19.994	104.409	18.556	108.147	0.501
532.499	354.592	80.005	19.994	104.441	18.482	113.440	0.460
533.998	355.357	80.006	19.994	104.467	18.402	119.136	0.489
535.498	356.071	80.005	19.993	104.488	18.329	124.401	0.499
536.999	356.788	80.011	19.994	104.501	18.250	129.986	0.473
538.499	357.567	80.006	19.996	104.525	18.171	135.652	0.499
540.000	358.304	80.005	19.993	104.556	18.098	140.866	0.480
541.498	359.031	80.006	19.995	104.580	18.019	146.489	0.486
542.998	359.727	80.004	19.997	104.597	17.941	152.106	0.496
544.499	360.470	80.016	19.992	104.624	17.857	158.043	0.506
546.000	361.205	80.021	19.990	104.675	17.776	163.893	0.485
547.500	361.927	80.011	19.994	104.686	17.693	169.776	0.479
548.999	362.630	79.996	19.995	104.712	17.615	175.284	0.461
550.499	363.348	80.012	19.994	104.742	17.534	181.060	0.483
551.999	364.044	80.009	19.993	104.736	17.460	186.349	0.454
553.499	364.760	80.010	19.993	104.765	17.384	191.699	0.461
554.999	365.504	80.011	19.994	104.801	17.303	197.484	0.505
556.499	366.202	80.004	19.994	104.822	17.230	202.750	0.436
558.000	366.970	80.009	19.994	104.823	17.161	207.657	0.528
559.498	367.712	80.008	19.993	104.810	17.104	211.670	0.484
560.998	368.411	80.021	19.997	104.811	17.055	215.083	0.476
562.499	369.157	80.007	19.994	104.816	17.004	218.593	0.501
563.998	369.881	80.003	19.995	104.801	16.963	221.503	0.485
565.498	370.629	80.011	19.992	104.802	16.924	224.231	0.491
566.999	371.362	79.999	19.996	104.844	16.895	226.292	0.479
568.499	372.172	80.012	19.994	104.855	16.875	227.684	0.544
569.999	372.861	80.010	19.992	104.830	16.866	228.257	0.459
571.498	373.654	80.012	19.992	104.796	16.863	228.376	0.535
572.999	374.408	80.012	19.992	104.764	16.869	227.883	0.516
574.499	375.162	80.006	19.994	104.754	16.880	227.046	0.491
576.000	375.937	80.009	19.993	104.738	16.912	224.701	0.512
577.498	376.748	80.006	19.992	104.724	16.948	222.044	0.531
578.999	377.538	80.007	19.993	104.713	16.994	218.672	0.514
580.500	378.263	80.006	19.993	104.685	17.052	214.492	0.504
581.999	379.074	79.994	19.995	104.654	17.123	209.407	0.554
583.500	379.845	79.988	19.995	104.630	17.204	203.547	0.494
585.000	380.669	80.003	19.993	104.590	17.296	196.900	0.541
586.498	381.453	80.005	19.993	104.547	17.397	189.647	0.498
587.999	382.240	80.004	19.994	104.504	17.507	181.741	0.521
589.500	383.021	80.009	19.993	104.468	17.626	173.247	0.534
590.999	383.816	80.006	19.992	104.427	17.753	164.215	0.553
592.499	384.646	80.016	19.991	104.383	17.886	154.780	0.542
594.000	385.435	80.004	19.996	104.335	18.031	144.496	0.513
595.499	386.279	80.007	19.991	104.270	18.181	133.981	0.580
596.999	387.114	80.012	19.991	104.205	18.341	122.677	0.572
598.499	387.912	80.007	19.993	104.144	18.508	110.936	0.537
599.999	388.790	80.005	19.993	104.073	18.682	98.653	0.557
601.499	389.620	80.008	19.994	104.013	18.852	86.646	0.551
602.999	390.446	80.008	19.993	103.970	19.011	75.415	0.539
604.499	391.285	80.008	19.994	103.947	19.165	64.550	0.566
606.000	392.111	80.007	19.993	103.952	19.290	55.684	0.556
607.499	392.984	80.008	19.994	103.973	19.402	47.845	0.573
609.000	393.854	80.007	19.994	103.982	19.497	41.085	0.572
610.499	394.705	80.015	19.993	103.978	19.582	35.123	0.565
611.999	395.553	80.006	19.993	103.955	19.647	30.551	0.578
613.500	396.378	80.009	19.994	103.931	19.703	26.575	0.527
614.999	397.201	80.007	19.992	103.898	19.748	23.415	0.530
616.498	398.019	80.023	19.992	103.866	19.790	20.482	0.553
617.998	398.824	80.001	19.996	103.854	19.822	18.194	0.548
619.500	399.662	80.011	19.993	103.830	19.845	16.570	0.548
620.999	400.485	80.003	19.992	103.821	19.867	15.070	0.542
622.498	401.306	80.009	19.994	103.820	19.887	13.661	0.543
623.998	402.132	80.009	19.989	103.808	19.905	12.389	0.545
625.499	402.923	80.008	19.991	103.799	19.917	11.497	0.540
626.998	403.730	80.020	19.991	103.789	19.928	10.752	0.532
628.499	404.540	80.006	19.992	103.782	19.935	10.282	0.547
629.999	405.306	80.015	19.995	103.779	19.946	9.498	0.507
631.499	406.114	80.006	19.998	103.783	19.950	9.230	0.550
632.998	406.879	80.003	19.996	103.781	19.958	8.647	0.515
634.498	407.673	80.009	19.996	103.776	19.966	8.079	0.560
635.999	408.462	80.004	19.991	103.779	19.966	8.073	0.523
637.499	409.240	80.004	19.997	103.772	19.972	7.674	0.515
638.999	410.004	80.007	19.993	103.760	19.972	7.653	0.505
640.499	410.787	80.004	19.994	103.770	19.976	7.356	0.515
641.999	411.570	80.011	19.992	103.774	19.981	7.054	0.485
643.498	412.306	80.007	19.991	103.777	19.984	6.836	0.487
644.999	413.061	80.008	19.992	103.783	19.982	6.923	0.498
646.498	413.803	80.008	19.993	103.784	19.984	6.845	0.504
647.999	414.560	80.011	19.994	103.785	19.983	6.868	0.529
649.499	415.284	80.006	19.996	103.783	19.985	6.737	0.497
650.999	416.024	80.003	19.995	103.781	19.986	6.667	0.485
652.499	416.794	80.014	19.994	103.785	19.985	6.726	0.520
654.000	417.565	80.007	19.994	103.784	19.988	6.539	0.524
655.499	418.296	80.007	19.995	103.787	19.987	6.619	0.474
656.998	419.031	80.005	19.995	103.784	19.989	6.474	0.495
658.500	419.796	80.008	19.994	103.786	19.991	6.290	0.517
660.000	420.535	79.999	19.992	103.786	19.988	6.514	0.495
661.498	421.298	80.015	19.995	103.795	19.987	6.638	0.513
663.000	422.012	80.001	19.995	103.795	19.987	6.636	0.464
664.499	422.752	80.009	19.992	103.784	19.985	6.769	0.492
665.999	423.503	80.006	19.991	103.787	19.985	6.753	0.511
667.499	424.221	80.005	19.993	103.786	19.984	6.822	0.488
668.999	425.011	80.008	19.993	103.788	19.985	6.758	0.533
670.499	425.738	80.003	19.994	103.787	19.985	6.763	0.513
671.999	426.469	80.006	19.994	103.781	19.981	7.042	0.497
673.500	427.234	80.008	19.992	103.791	19.980	7.094	0.486
675.000	427.988	80.009	19.992	103.791	19.980	7.088	0.506
676.499	428.694	79.996	19.994	103.782	19.981	7.003	0.492
677.999	429.432	80.008	19.993	103.780	19.980	7.131	0.494
679.500	430.166	80.008	19.994	103.787	19.979	7.198	0.470
680.998	430.932	80.006	19.995	103.787	19.976	7.364	0.485
682.499	431.676	79.999	19.995	103.782	19.978	7.241	0.500
683.999	432.450	80.003	19.994	103.781	19.977	7.332	0.517
685.498	433.213	80.011	19.994	103.779	19.975	7.421	0.510
686.998	433.973	80.008	19.992	103.782	19.975	7.427	0.506
688.498	434.752	80.000	19.992	103.788	19.978	7.247	0.503
689.999	435.430	80.012	19.994	103.784	19.972	7.651	0.451
691.498	436.243	80.010	19.992	103.780	19.973	7.622	0.504
692.998	436.978	80.009	19.993	103.791	19.972	7.636	0.491
694.500	437.705	80.007	19.994	103.786	19.970	7.782	0.486
695.999	438.483	79.993	19.998	103.784	19.968	7.934	0.499
697.499	439.275	80.005	19.997	103.789	19.969	7.885	0.517
698.999	439.975	80.006	19.996	103.793	19.967	7.997	0.477
700.500	440.737	80.006	19.998	103.789	19.966	8.069	0.527
701.999	441.491	80.000	19.994	103.778	19.966	8.113	0.486
703.500	442.256	80.004	19.996	103.778	19.964	8.212	0.498
704.999	443.005	80.011	19.992	103.779	19.966	8.085	0.503
706.499	443.717	80.014	19.995	103.783	19.961	8.412	0.478
708.000	444.503	80.003	19.994	103.783	19.960	8.536	0.520
709.499	445.280	80.009	19.993	103.783	19.956	8.769	0.523
711.000	446.019	80.004	19.994	103.784	19.953	8.967	0.471
712.498	446.769	79.995	19.996	103.785	19.952	9.090	0.529
713.999	447.556	80.007	19.994	103.782	19.956	8.794	0.508
715.499	448.280	80.010	19.995	103.784	19.949	9.305	0.498
717.000	449.089	80.021	19.992	103.791	19.948	9.323	0.541
718.499	449.799	80.014	19.994	103.795	19.949	9.260	0.489
719.999	450.580	80.031	19.992	103.787	19.950	9.226	0.515
721.499	451.337	80.004	19.996	103.786	19.947	9.393	0.494
722.999	452.094	80.007	19.995	103.782	19.946	9.460	0.495
724.499	452.850	80.007	19.995	103.784	19.944	9.661	0.482
725.999	453.612	80.010	19.994	103.785	19.944	9.607	0.504
727.500	454.369	80.014	19.993	103.786	19.941	9.814	0.491
728.999	455.116	80.010	19.993	103.786	19.942	9.784	0.490
730.498	455.910	80.011	19.993	103.787	19.940	9.893	0.524
731.999	456.673	80.012	19.994	103.786	19.942	9.763	0.527
733.499	457.419	80.011	19.994	103.784	19.934	10.321	0.509
734.998	458.169	80.006	19.994	103.786	19.937	10.117	0.500
736.498	458.932	80.011	19.994	103.782	19.935	10.261	0.520
737.999	459.693	80.018	19.992	103.773	19.933	10.433	0.497
739.499	460.482	80.008	19.995	103.775	19.932	10.490	0.532
740.999	461.235	79.987	19.996	103.781	19.933	10.404	0.508
742.499	461.978	80.006	19.996	103.781	19.933	10.440	0.512
743.998	462.754	79.999	19.994	103.780	19.933	10.374	0.498
745.498	463.487	80.005	19.998	103.781	19.928	10.750	0.493
746.998	464.212	80.005	19.996	103.779	19.928	10.742	0.484
748.500	464.948	80.003	19.997	103.783	19.927	10.837	0.489
749.999	465.721	80.017	19.993	103.781	19.923	11.130	0.530
751.499	466.495	80.010	19.992	103.779	19.923	11.116	0.522
753.000	467.255	80.005	19.996	103.783	19.923	11.108	0.512
754.499	468.029	80.006	19.995	103.783	19.923	11.134	0.537
756.000	468.787	80.006	19.995	103.784	19.918	11.456	0.520
757.500	469.570	80.007	19.992	103.778	19.923	11.076	0.536
759.000	470.289	80.005	19.994	103.776	19.923	11.077	0.469
760.499	471.040	79.999	19.994	103.776	19.925	10.987	0.494
761.998	471.788	79.995	19.996	103.778	19.923	11.081	0.504
763.499	472.582	80.006	19.994	103.771	19.926	10.863	0.506
764.999	473.387	80.008	19.994	103.768	19.929	10.710	0.538
766.498	474.129	80.008	19.994	103.770	19.928	10.725	0.511
767.999	474.895	80.008	19.995	103.767	19.928	10.757	0.523
769.499	475.678	80.005	19.993	103.774	19.932	10.472	0.500
770.999	476.433	80.007	19.994	103.782	19.933	10.386	0.494
772.499	477.217	80.013	19.993	103.779	19.938	10.055	0.545
773.999	477.964	80.005	19.993	103.781	19.938	10.064	0.498
775.499	478.759	80.009	19.995	103.767	19.941	9.812	0.514
776.999	479.526	80.009	19.993	103.772	19.947	9.431	0.500
778.498	480.292	80.008	19.993	103.780	19.948	9.357	0.517
780.000	481.024	80.008	19.994	103.778	19.949	9.248	0.511
781.499	481.795	80.010	19.995	103.775	19.952	9.052	0.515
783.000	482.630	80.014	19.995	103.771	19.960	8.519	0.553
784.498	483.352	79.995	19.994	103.780	19.963	8.280	0.490
785.999	484.099	80.011	19.992	103.779	19.969	7.843	0.509
787.500	484.889	80.008	19.993	103.766	19.976	7.352	0.528
789.000	485.640	80.009	19.994	103.764	19.975	7.415	0.513
790.499	486.384	80.005	19.994	103.764	19.982	6.929	0.517
791.999	487.151	80.002	19.994	103.765	19.986	6.653	0.510
793.499	487.896	80.008	19.993	103.768	19.993	6.151	0.488
794.999	488.685	80.006	19.993	103.774	19.999	5.793	0.523
796.499	489.454	80.008	19.993	103.779	20.003	5.459	0.504
797.999	490.226	80.005	19.994	103.784	20.006	5.284	0.511
799.499	490.971	80.009	19.994	103.781	20.010	4.983	0.504
800.999	491.753	80.013	19.992	103.783	20.020	4.297	0.524
802.499	492.497	80.008	19.993	103.786	20.021	4.234	0.472
803.999	493.288	80.005	19.994	103.782	20.023	4.050	0.534
805.499	494.059	80.009	19.994	103.773	20.029	3.622	0.515
806.999	494.836	80.008	19.993	103.776	20.032	3.459	0.515
808.499	495.629	80.010	19.993	103.781	20.037	3.059	0.530
809.999	496.374	80.019	19.993	103.781	20.037	3.088	0.506
811.499	497.175	80.009	19.994	103.780	20.040	2.850	0.530
812.999	497.960	80.009	19.994	103.780	20.043	2.637	0.535
814.498	498.676	80.005	19.997	103.775	20.049	2.272	0.485
815.998	499.497	80.011	19.993	103.779	20.047	2.369	0.538
817.498	500.235	80.009	19.993	103.782	20.051	2.088	0.481
819.000	501.025	80.014	19.993	103.782	20.055	1.791	0.527
820.498	501.772	80.005	19.995	103.780	20.056	1.738	0.494
822.000	502.575	80.007	19.993	103.779	20.058	1.601	0.534
823.500	503.325	80.012	19.994	103.776	20.059	1.550	0.504
824.999	504.072	80.008	19.994	103.778	20.062	1.321	0.507
826.499	504.845	80.006	19.994	103.778	20.063	1.228	0.537
828.000	505.628	80.004	19.995	103.774	20.062	1.316	0.503
829.500	506.437	80.007	19.994	103.779	20.063	1.253	0.515
830.998	507.176	80.005	19.995	103.782	20.064	1.204	0.488
832.499	507.907	80.008	19.995	103.782	20.064	1.181	0.477
833.999	508.752	80.008	19.994	103.783	20.064	1.186	0.568
835.499	509.492	80.007	19.993	103.784	20.070	0.759	0.497
837.000	510.311	80.005	19.994	103.783	20.065	1.105	0.514
838.498	511.050	80.008	19.995	103.784	20.069	0.850	0.513
839.999	511.833	80.006	19.996	103.785	20.069	0.808	0.496
841.499	512.563	80.006	19.996	103.785	20.070	0.753	0.507
842.999	513.325	80.006	19.995	103.785	20.072	0.605	0.518
844.499	514.123	80.006	19.996	103.781	20.073	0.542	0.527
845.999	514.921	80.008	19.995	103.780	20.074	0.445	0.538
847.500	515.666	80.005	19.995	103.783	20.073	0.563	0.495
848.998	516.451	80.006	19.993	103.785	20.073	0.582	0.525
850.499	517.225	80.008	19.992	103.777	20.073	0.551	0.527
851.999	518.006	80.008	19.993	103.777	20.073	0.559	0.492
853.500	518.779	80.005	19.994	103.784	20.073	0.565	0.526
854.999	519.544	80.005	19.993	103.785	20.074	0.489	0.490
856.499	520.329	80.008	19.994	103.784	20.076	0.337	0.527
857.999	521.114	80.007	19.990	103.784	20.072	0.635	0.505
859.498	521.830	80.007	19.993	103.785	20.072	0.595	0.470
860.998	522.631	80.006	19.994	103.788	20.070	0.772	0.504
862.499	523.401	80.006	19.994	103.787	20.071	0.717	0.521
863.998	524.153	80.010	19.994	103.786	20.071	0.665	0.488
865.499	524.937	80.007	19.994	103.783	20.073	0.529	0.532
866.998	525.722	80.007	19.994	103.783	20.072	0.633	0.518
868.499	526.466	80.009	19.992	103.784	20.073	0.580	0.509
869.999	527.231	80.009	19.993	103.780	20.074	0.492	0.515
871.500	528.028	80.008	19.992	103.778	20.075	0.441	0.516
872.998	528.798	80.010	19.993	103.780	20.076	0.365	0.520
874.498	529.559	80.007	19.993	103.779	20.073	0.544	0.483
875.999	530.245	80.009	19.994	103.777	20.073	0.559	0.484
877.499	531.038	80.008	19.993	103.774	20.077	0.268	0.537
878.998	531.854	80.009	19.993	103.777	20.076	0.331	0.537
880.498	532.585	80.007	19.994	103.778	20.075	0.409	0.498
881.999	533.406	80.007	19.994	103.777	20.075	0.420	0.551
883.498	534.178	80.009	19.994	103.784	20.073	0.515	0.519
884.999	534.982	80.008	19.994	103.784	20.069	0.816	0.516
886.498	535.752	80.009	19.992	103.780	20.068	0.873	0.505
887.999	536.493	80.010	19.995	103.765	20.076	0.367	0.495
889.498	537.275	80.011	19.994	103.759	20.074	0.458	0.527
890.999	538.054	80.010	19.994	103.772	20.074	0.481	0.526
892.499	538.861	80.008	19.995	103.768	20.072	0.608	0.518
894.000	539.604	80.008	19.994	103.767	20.074	0.513	0.501
895.499	540.357	80.010	19.995	103.765	20.072	0.626	0.512
896.999	541.136	80.010	19.996	103.772	20.072	0.637	0.509
898.500	541.884	80.006	19.994	103.782	20.071	0.675	0.499
900.000	542.674	80.003	19.993	103.783	20.071	0.683	0.522
901.500	543.469	80.008	19.996	103.785	20.071	0.664	0.519
902.999	544.217	80.008	19.998	103.785	20.071	0.669	0.495
904.500	544.989	80.005	20.000	103.783	20.071	0.690	0.499
905.999	545.757	80.010	19.994	103.783	20.069	0.842	0.501
907.500	546.557	80.012	19.984	103.775	20.071	0.682	0.526
908.999	547.326	80.006	19.994	103.775	20.070	0.732	0.522
910.499	548.127	80.006	19.996	103.784	20.072	0.593	0.530
912.000	548.844	80.007	19.994	103.778	20.068	0.937	0.471
913.498	549.650	80.005	19.994	103.769	20.071	0.692	0.541
915.000	550.459	80.009	19.993	103.771	20.073	0.534	0.547
916.499	551.229	80.007	19.996	103.775	20.072	0.595	0.528
917.998	551.968	80.004	19.995	103.773	20.072	0.597	0.513
919.498	552.750	80.010	19.991	103.770	20.073	0.553	0.518
920.999	553.524	80.007	19.992	103.780	20.072	0.616	0.508
922.499	554.355	80.006	19.997	103.772	20.072	0.643	0.536
923.998	555.150	80.008	19.994	103.779	20.073	0.584	0.526
925.500	555.905	80.003	19.994	103.787	20.073	0.536	0.514
927.000	556.700	80.013	19.991	103.787	20.070	0.747	0.547
928.499	557.484	80.007	19.993	103.786	20.073	0.582	0.499
929.999	558.296	80.005	19.995	103.773	20.071	0.721	0.572
931.500	559.058	80.005	19.996	103.764	20.068	0.922	0.521
932.999	559.862	80.006	19.996	103.774	20.072	0.620	0.539
934.500	560.647	80.006	19.994	103.778	20.071	0.721	0.515
935.998	561.437	80.008	19.993	103.774	20.069	0.804	0.541
937.498	562.219	80.004	19.993	103.780	20.068	0.918	0.521
939.000	563.009	80.012	19.992	103.780	20.069	0.837	0.532
940.499	563.788	80.009	19.995	103.778	20.070	0.762	0.521
941.998	564.574	80.008	19.992	103.778	20.069	0.846	0.523
943.499	565.362	80.008	19.992	103.782	20.070	0.776	0.516
945.000	566.110	80.010	19.992	103.779	20.070	0.738	0.491
946.499	566.963	80.009	19.992	103.777	20.069	0.819	0.556
947.999	567.748	80.010	19.993	103.780	20.067	0.945	0.531
949.500	568.538	80.008	19.993	103.779	20.068	0.934	0.555
951.000	569.288	80.008	19.994	103.782	20.071	0.719	0.514
952.499	570.065	80.010	19.992	103.780	20.070	0.768	0.513
953.999	570.876	80.011	19.992	103.777	20.071	0.664	0.531
955.499	571.655	80.011	19.992	103.782	20.070	0.774	0.523
956.999	572.450	80.010	19.993	103.779	20.070	0.766	0.545
958.499	573.278	80.008	19.994	103.772	20.070	0.778	0.548
960.000	574.014	80.009	19.994	103.775	20.070	0.776	0.491
961.500	574.873	80.007	19.993	103.782	20.069	0.831	0.545
962.999	575.694	80.007	19.994	103.784	20.071	0.707	0.552
964.499	576.459	80.006	19.993	103.777	20.073	0.551	0.522
965.999	577.259	80.009	19.992	103.771	20.073	0.582	0.531
967.499	578.047	80.009	19.994	103.761	20.072	0.641	0.515
968.998	578.819	80.012	19.992	103.761	20.074	0.508	0.520
970.499	579.595	80.010	19.993	103.769	20.070	0.770	0.529
971.999	580.358	80.008	19.993	103.769	20.072	0.644	0.503
973.499	581.135	80.012	19.993	103.766	20.072	0.624	0.525
974.999	581.930	80.008	19.992	103.764	20.070	0.797	0.538
976.500	582.693	80.009	19.992	103.779	20.071	0.686	0.492
978.000	583.469	80.009	19.992	103.786	20.071	0.705	0.535
979.499	584.219	80.006	19.991	103.780	20.071	0.675	0.503
980.999	584.998	80.009	19.992	103.771	20.071	0.707	0.521
982.498	585.779	80.008	19.993	103.765	20.069	0.819	0.521
984.000	586.540	80.009	19.991	103.770	20.071	0.686	0.503
985.499	587.344	80.009	19.992	103.770	20.071	0.663	0.528
986.999	588.088	80.008	19.993	103.757	20.072	0.587	0.500
988.499	588.829	80.009	19.993	103.760	20.072	0.652	0.487
989.998	589.586	80.010	19.992	103.763	20.068	0.886	0.489
991.498	590.319	80.007	19.993	103.755	20.066	1.023	0.476
992.999	591.070	80.009	19.993	103.767	20.067	0.989	0.487
994.500	591.836	80.005	19.994	103.773	20.067	0.949	0.506
995.999	592.640	80.008	19.996	103.769	20.069	0.804	0.548
997.499	593.350	80.002	19.998	103.772	20.069	0.800	0.478
999.000	594.144	80.007	19.997	103.774	20.067	0.943	0.512
1000.500	594.905	80.003	19.990	103.763	20.068	0.876	0.503
1002.000	595.685	80.006	19.992	103.768	20.070	0.745	0.511
1003.499	596.424	80.009	19.990	103.775	20.067	0.985	0.487
1004.998	597.162	80.007	19.992	103.775	20.072	0.639	0.498
1006.500	597.929	80.005	19.994	103.759	20.074	0.460	0.509
1007.998	598.681	80.008	20.000	103.770	20.071	0.719	0.512
1009.499	599.404	80.006	19.993	103.772	20.072	0.624	0.482
1011.000	600.192	80.007	19.994	103.766	20.069	0.804	0.537
1012.499	600.945	80.009	19.995	103.760	20.070	0.738	0.501
1013.998	601.678	80.003	19.994	103.764	20.071	0.696	0.499
1015.499	602.422	80.008	19.994	103.767	20.068	0.876	0.486
1016.999	603.188	80.004	19.995	103.764	20.068	0.918	0.502
1018.499	603.975	80.009	19.995	103.765	20.069	0.865	0.525
1019.999	604.712	80.007	19.994	103.761	20.071	0.660	0.477
1021.499	605.468	80.009	19.996	103.772	20.072	0.646	0.499
1022.999	606.245	80.004	19.995	103.781	20.069	0.823	0.528
1024.500	606.980	80.006	19.994	103.779	20.073	0.519	0.497
1026.000	607.723	80.008	19.994	103.773	20.071	0.675	0.486
1027.499	608.449	80.010	19.994	103.769	20.069	0.840	0.491
1028.998	609.211	80.008	19.994	103.775	20.067	0.996	0.511
1030.500	609.997	80.007	19.993	103.782	20.067	0.970	0.530
1031.998	610.783	80.007	19.992	103.774	20.070	0.743	0.492
1033.499	611.546	80.008	19.995	103.775	20.068	0.928	0.527
1034.999	612.326	80.007	19.993	103.777	20.070	0.791	0.488
1036.500	613.078	80.005	19.995	103.781	20.067	0.954	0.489
1037.998	613.875	80.009	19.992	103.774	20.067	0.939	0.550
1039.499	614.703	80.012	19.989	103.775	20.066	1.010	0.552
1041.000	615.512	80.011	19.988	103.781	20.067	0.949	0.514
1042.499	616.246	80.006	19.994	103.779	20.066	1.021	0.522
1044.000	617.057	80.008	19.993	103.776	20.064	1.158	0.516
1045.498	617.855	80.010	19.993	103.777	20.067	0.960	0.528
1046.999	618.636	80.009	19.993	103.775	20.066	1.049	0.516
1048.499	619.481	80.008	19.992	103.781	20.064	1.209	0.525
1049.999	620.218	80.008	19.993	103.780	20.066	1.030	0.496
1051.498	621.038	80.012	19.994	103.781	20.069	0.867	0.521
1052.998	621.831	80.008	19.995	103.773	20.066	1.044	0.514
1054.499	622.601	80.011	19.993	103.771	20.068	0.910	0.502
1055.999	623.396	80.008	19.993	103.774	20.066	1.061	0.533
1057.499	624.153	80.007	19.994	103.774	20.064	1.203	0.514
1058.998	624.970	80.012	19.994	103.780	20.068	0.901	0.524
1060.498	625.754	80.006	19.992	103.780	20.068	0.918	0.536
1062.000	626.517	80.007	19.993	103.778	20.066	1.030	0.527
1063.500	627.345	80.002	19.994	103.766	20.069	0.810	0.562
1064.999	628.090	80.012	19.994	103.746	20.070	0.779	0.510
1066.498	628.904	80.005	19.992	103.767	20.066	1.070	0.545
1067.999	629.643	80.003	19.991	103.771	20.065	1.114	0.532
1069.499	630.499	80.013	19.992	103.766	20.068	0.884	0.552
1071.000	631.255	80.010	19.991	103.781	20.066	1.066	0.543
1072.499	632.000	80.010	19.993	103.779	20.064	1.205	0.481
1074.000	632.832	80.006	19.994	103.769	20.063	1.260	0.551
1075.499	633.590	80.013	19.992	103.775	20.064	1.154	0.539
1076.998	634.366	80.005	19.994	103.772	20.061	1.374	0.521
1078.498	635.184	80.006	19.993	103.765	20.061	1.371	0.534
1080.000	636.022	80.006	19.992	103.758	20.061	1.416	0.542
1081.499	636.734	80.009	19.993	103.755	20.065	1.106	0.505
1083.000	637.483	80.006	19.995	103.761	20.064	1.217	0.495
1084.500	638.317	80.008	19.993	103.764	20.064	1.211	0.580
1085.999	639.121	80.004	19.995	103.769	20.060	1.460	0.474
1087.499	639.815	80.008	19.994	103.768	20.060	1.435	0.472
1089.000	640.689	80.008	19.994	103.762	20.065	1.080	0.559
1090.499	641.388	80.005	19.994	103.768	20.061	1.409	0.531
1092.000	642.249	80.007	19.993	103.770	20.067	0.985	0.537
1093.499	643.007	80.007	19.994	103.769	20.067	0.964	0.471
1094.999	643.786	80.005	19.994	103.770	20.064	1.160	0.506
1096.499	644.437	80.007	19.993	103.769	20.062	1.308	0.486
1097.998	645.259	80.008	19.995	103.763	20.064	1.194	0.607
1099.499	646.091	80.006	19.994	103.757	20.066	1.047	0.656
1101.000	646.800	80.007	19.993	103.765	20.064	1.165	0.516
1102.500	647.541	80.006	19.993	103.776	20.065	1.118	0.583
1103.999	648.414	80.009	19.993	103.774	20.062	1.333	0.404
1105.500	649.181	80.008	19.994	103.768	20.066	1.063	0.600
1107.000	649.900	80.008	19.994	103.767	20.062	1.294	0.396
1108.499	650.702	80.009	19.995	103.759	20.063	1.247	0.416
1110.000	651.447	80.010	19.992	103.753	20.063	1.274	0.499
1111.499	652.279	80.007	19.994	103.762	20.060	1.496	0.513
1112.999	652.965	80.008	19.993	103.764	20.061	1.401	0.515
1114.499	653.716	80.007	19.994	103.760	20.063	1.241	0.538
1116.000	654.544	80.007	19.994	103.752	20.059	1.538	0.561
1117.500	655.316	80.004	19.993	103.747	20.061	1.418	0.477
1118.999	656.049	80.002	19.996	103.754	20.062	1.333	0.482
1120.500	656.801	80.011	19.995	103.756	20.058	1.621	0.504
1121.999	657.567	80.008	19.995	103.750	20.060	1.437	0.517
1123.499	658.317	80.008	19.993	103.757	20.062	1.325	0.516
1125.000	659.056	80.012	19.993	103.768	20.061	1.372	0.497
1126.498	659.806	80.008	19.993	103.775	20.061	1.426	0.480
1127.999	660.572	80.009	19.993	103.775	20.061	1.395	0.528
1129.499	661.290	80.012	19.993	103.759	20.064	1.173	0.481
1130.999	662.022	80.011	19.993	103.756	20.059	1.553	0.500
1132.498	662.779	80.007	19.994	103.766	20.063	1.245	0.494
1134.000	663.545	80.011	19.991	103.771	20.061	1.416	0.520
1135.498	664.273	80.006	19.995	103.761	20.059	1.548	0.501
1136.999	665.041	80.010	19.994	103.750	20.062	1.344	0.515
1138.499	665.761	80.010	19.994	103.750	20.057	1.696	0.500
1139.999	666.552	80.011	19.992	103.765	20.061	1.374	0.524
1141.499	667.303	80.010	19.992	103.771	20.058	1.633	0.510
1142.999	668.052	80.006	19.995	103.776	20.059	1.563	0.494
1144.499	668.743	80.010	19.993	103.764	20.058	1.599	0.470
1145.999	669.529	80.008	19.994	103.773	20.059	1.563	0.509
1147.500	670.267	80.009	19.993	103.769	20.059	1.570	0.492
1148.999	670.981	80.007	19.993	103.765	20.060	1.433	0.478
1150.499	671.753	80.004	19.993	103.763	20.060	1.494	0.522
1151.999	672.476	80.009	19.990	103.762	20.060	1.487	0.491
1153.499	673.239	80.011	19.993	103.764	20.061	1.422	0.486
1154.999	673.946	80.009	19.994	103.758	20.061	1.416	0.515
1156.499	674.698	80.011	19.992	103.762	20.062	1.327	0.505
1158.000	675.500	80.009	19.992	103.772	20.058	1.605	0.537
1159.500	676.254	80.008	19.993	103.770	20.059	1.549	0.501
1160.999	676.990	80.008	19.994	103.779	20.060	1.490	0.482
1162.498	677.714	80.004	19.991	103.769	20.056	1.779	0.485
1163.998	678.477	80.007	19.992	103.760	20.061	1.365	0.503
1165.499	679.271	80.009	19.994	103.758	20.060	1.464	0.527
1166.998	679.974	80.006	19.993	103.760	20.058	1.593	0.462
1168.499	680.769	80.007	19.993	103.764	20.058	1.610	0.520
1169.999	681.502	80.004	19.995	103.769	20.059	1.536	0.502
1171.499	682.222	80.008	19.992	103.763	20.057	1.690	0.481
1173.000	683.017	80.005	19.994	103.768	20.057	1.648	0.526
1174.498	683.737	80.014	19.990	103.768	20.059	1.547	0.454
1175.998	684.436	80.006	19.994	103.763	20.058	1.621	0.460
1177.498	685.214	80.005	19.995	103.755	20.060	1.450	0.511
1179.000	685.968	80.005	19.995	103.761	20.059	1.562	0.517
1180.499	686.652	80.007	19.993	103.767	20.059	1.505	0.480
1181.999	687.495	80.009	19.993	103.765	20.056	1.766	0.538
1183.500	688.250	80.010	19.993	103.767	20.056	1.728	0.512
1185.000	689.073	80.007	19.993	103.764	20.056	1.734	0.538
1186.500	689.465	80.008	19.993	103.765	20.055	1.825	0.414
1187.999	690.570	80.008	19.994	103.756	20.054	1.874	0.638
1189.499	691.330	80.009	19.993	103.748	20.058	1.631	0.520
1190.999	692.160	80.008	19.995	103.747	20.058	1.637	0.553
1192.499	692.861	80.012	19.992	103.752	20.058	1.633	0.503
1194.000	693.680	80.008	19.994	103.748	20.055	1.819	0.538
1195.499	694.426	80.014	19.989	103.750	20.056	1.773	0.501
1197.000	695.254	80.005	19.995	103.758	20.054	1.922	0.521
1198.500	696.016	80.007	19.996	103.759	20.057	1.692	0.500
1199.999	696.781	80.010	19.994	103.750	20.054	1.899	0.514
1201.499	697.565	80.006	19.994	103.752	20.057	1.682	0.559
1202.999	698.323	80.007	19.995	103.766	20.055	1.798	0.519
1204.499	699.129	80.008	19.996	103.761	20.055	1.831	0.544
1206.000	699.900	80.006	19.995	103.754	20.054	1.914	0.444
1207.499	700.709	80.009	19.994	103.751	20.056	1.753	0.524
1209.000	701.494	80.009	19.994	103.747	20.052	2.053	0.513
1210.500	702.285	80.007	19.994	103.745	20.054	1.887	0.522
1212.000	703.026	80.009	19.994	103.744	20.054	1.861	0.491
1213.499	703.787	80.008	19.993	103.745	20.053	1.967	0.492
1215.000	704.575	80.015	19.993	103.751	20.056	1.764	0.526
1216.500	705.340	80.010	19.993	103.765	20.054	1.888	0.510
1217.999	706.144	80.011	19.991	103.772	20.054	1.865	0.541
1219.498	706.912	80.008	19.991	103.763	20.057	1.642	0.488
1220.999	707.675	80.008	19.993	103.755	20.056	1.751	0.503
1222.499	708.461	80.008	19.993	103.750	20.057	1.665	0.515
1224.000	709.218	80.007	19.993	103.757	20.058	1.605	0.500
1225.499	709.959	80.008	19.993	103.757	20.053	1.968	0.489
1226.999	710.741	80.008	19.994	103.757	20.055	1.833	0.499
1228.499	711.560	80.007	19.995	103.750	20.055	1.787	0.553
1230.000	712.293	80.004	19.993	103.749	20.057	1.696	0.475
1231.499	713.053	80.005	19.992	103.755	20.052	2.036	0.509
1233.000	713.834	80.008	19.993	103.762	20.056	1.760	0.526
1234.500	714.611	80.006	19.996	103.772	20.052	2.057	0.522
1235.998	715.414	80.006	19.994	103.779	20.053	1.954	0.532
1237.500	716.194	80.006	19.992	103.766	20.050	2.135	0.514
1239.000	716.982	80.008	19.994	103.764	20.054	1.893	0.527
1240.500	717.756	80.007	19.991	103.765	20.053	1.977	0.509
1242.000	718.520	80.006	19.994	103.759	20.054	1.855	0.509
1243.499	719.254	80.008	19.993	103.755	20.057	1.684	0.510
1244.999	720.018	80.009	19.994	103.754	20.055	1.813	0.484
1246.499	720.807	80.008	19.993	103.755	20.055	1.793	0.533
1247.999	721.544	80.002	19.993	103.755	20.052	2.021	0.508
1249.499	722.284	80.007	19.994	103.749	20.055	1.823	0.505
1250.999	723.096	80.009	19.991	103.745	20.052	2.026	0.541
1252.500	723.810	80.011	19.992	103.752	20.050	2.156	0.463
1254.000	724.574	80.008	19.995	103.750	20.048	2.296	0.502
1255.499	725.332	80.005	19.993	103.748	20.051	2.064	0.498
1257.000	726.086	80.006	19.993	103.756	20.050	2.139	0.502
1258.500	726.846	80.007	19.992	103.752	20.051	2.099	0.499
1260.000	727.582	80.005	19.995	103.749	20.049	2.268	0.486
1261.499	728.343	80.007	19.995	103.748	20.052	2.061	0.502
1263.000	729.072	80.007	19.993	103.752	20.052	2.000	0.492
1264.499	729.812	80.005	19.994	103.753	20.054	1.905	0.489
1266.000	730.542	80.007	19.993	103.751	20.052	2.036	0.494
1267.500	731.288	80.008	19.993	103.764	20.051	2.098	0.504
1268.999	732.050	80.008	19.992	103.757	20.052	2.028	0.510
1270.499	732.785	80.011	19.993	103.752	20.055	1.806	0.486
1271.999	733.560	80.010	19.993	103.756	20.049	2.239	0.490
1273.500	734.297	80.008	19.995	103.765	20.050	2.159	0.492
1275.000	735.070	80.009	19.993	103.755	20.049	2.205	0.516
1276.500	735.801	80.008	19.993	103.745	20.050	2.178	0.505
1278.000	736.554	80.009	19.992	103.745	20.051	2.129	0.496
1279.500	737.297	80.008	19.993	103.754	20.049	2.241	0.490
1280.998	738.084	80.009	19.992	103.757	20.051	2.118	0.513
1282.499	738.774	80.007	19.992	103.756	20.050	2.199	0.466
1284.000	739.512	80.008	19.993	103.753	20.049	2.231	0.498
1285.499	740.292	80.008	19.992	103.756	20.047	2.378	0.510
1287.000	741.062	80.008	19.992	103.754	20.050	2.163	0.509
1288.499	741.792	80.008	19.993	103.752	20.050	2.193	0.482
1289.998	742.550	80.006	19.993	103.752	20.050	2.176	0.531
1291.499	743.277	80.009	19.993	103.753	20.047	2.366	0.496
1291.999	743.552	80.009	19.993	103.754	20.047	2.395	0.480