File: 01_Data/PLA_3D_Printer_Filament/MCC/PLA_3D_Printer_Filament_MCC_30K_min_220217_R2.txt
Sample ID:	C:\MCC\MCC Cal\Test\PLA_3D_Printer_Filament_MCC_30K_min_220217_R2.txt
Sample Weight (mg):	4.39
Heating Rate (C/s):	0.5
Combustor Temp (C):	900
N2 Flow Rate (cc/min):	80
O2 Flow Rate (cc/min):	20
Calibration File:	C:\MCC\MCC Cal\Coeff1 JN10440_30_210304.txt.txt
T Correction Coefficients:	0	1.024463	0
Time Shift (s):	14
*
Time (s)	Temperature (C)	N2 flow rate (cc/min)	O2 flow rate (cc/min)	Flow Rate (cc/min)	Oxygen (%)	HRR (W/g)	Heating rate (C/s)
0.000	113.945	80.006	19.994	103.707	19.867	0.036	0.029
1.500	113.927	80.006	19.993	103.707	19.869	-0.162	-0.012
3.000	113.890	80.004	19.993	103.709	19.871	-0.288	-0.010
4.500	113.895	80.006	19.995	103.707	19.870	-0.190	0.015
6.000	113.909	80.002	19.993	103.697	19.867	0.020	0.000
7.500	113.893	80.005	19.997	103.702	19.868	-0.022	-0.002
9.001	113.874	80.003	19.995	103.709	19.867	0.012	-0.018
10.500	113.876	80.004	19.995	103.711	19.865	0.148	-0.008
12.000	113.875	80.004	19.995	103.709	19.871	-0.290	0.005
13.501	113.856	80.004	19.997	103.710	19.869	-0.152	-0.032
15.000	113.857	80.005	19.993	103.711	19.867	0.053	-0.020
16.500	113.871	80.004	19.995	103.712	19.864	0.239	-0.002
18.000	113.897	80.003	19.994	103.734	19.864	0.274	0.022
19.500	113.882	80.005	19.995	103.733	19.865	0.130	-0.019
21.000	113.911	80.005	19.993	103.719	19.862	0.416	0.001
22.500	113.893	80.003	19.995	103.724	19.853	1.040	-0.014
24.000	113.919	80.006	19.993	103.760	19.855	0.919	-0.003
25.500	113.950	80.003	19.994	103.790	19.853	1.057	0.038
27.000	113.976	80.005	19.994	103.806	19.849	1.315	0.023
28.500	114.031	80.002	19.995	103.806	19.848	1.394	0.030
30.000	114.123	80.005	19.994	103.811	19.844	1.709	0.062
31.500	114.150	80.004	19.995	103.820	19.842	1.847	0.024
33.000	114.236	80.004	19.994	103.837	19.840	2.016	0.060
34.501	114.338	80.003	19.996	103.870	19.838	2.169	0.062
36.000	114.415	80.002	19.995	103.896	19.837	2.258	0.058
37.500	114.575	80.001	19.995	103.908	19.835	2.372	0.119
39.000	114.704	80.004	19.994	103.925	19.829	2.835	0.100
40.500	114.871	80.004	19.996	103.948	19.826	3.040	0.118
42.000	115.077	80.004	19.995	103.961	19.821	3.411	0.150
43.501	115.313	80.003	19.994	103.983	19.818	3.653	0.147
45.000	115.569	80.004	19.993	103.990	19.817	3.728	0.191
46.501	115.857	80.003	19.994	103.990	19.818	3.659	0.192
48.000	116.157	80.006	19.994	103.989	19.812	4.098	0.199
49.500	116.494	80.005	19.993	103.992	19.813	4.000	0.199
51.000	116.861	80.005	19.993	103.991	19.815	3.893	0.247
52.500	117.234	80.005	19.993	103.992	19.816	3.775	0.255
54.001	117.625	80.008	19.993	103.991	19.815	3.842	0.289
55.500	118.013	80.005	19.993	103.991	19.812	4.091	0.268
57.000	118.459	80.005	19.994	103.992	19.815	3.894	0.325
58.500	118.866	80.006	19.993	103.992	19.812	4.063	0.281
60.001	119.327	80.004	19.992	103.992	19.814	3.935	0.310
61.501	119.757	80.007	19.993	103.991	19.812	4.110	0.240
63.000	120.249	80.006	19.993	103.990	19.811	4.140	0.317
64.500	120.714	80.005	19.994	103.989	19.813	3.978	0.312
66.000	121.233	80.005	19.994	103.981	19.811	4.132	0.361
67.500	121.751	80.005	19.994	103.987	19.812	4.051	0.354
69.000	122.312	80.006	19.995	103.988	19.819	3.560	0.369
70.501	122.853	80.011	19.994	103.989	19.812	4.094	0.361
72.000	123.406	80.000	19.995	103.993	19.814	3.951	0.371
73.500	123.964	79.997	19.995	103.988	19.812	4.096	0.370
75.000	124.540	80.003	19.992	103.986	19.808	4.370	0.384
76.500	125.124	79.996	19.995	103.988	19.807	4.467	0.383
78.001	125.702	80.007	19.994	103.988	19.807	4.451	0.362
79.500	126.357	80.008	19.992	103.989	19.811	4.161	0.417
81.000	126.954	80.008	19.994	103.993	19.808	4.384	0.394
82.500	127.537	80.006	19.995	103.989	19.815	3.858	0.394
84.000	128.191	80.008	19.994	103.989	19.809	4.276	0.430
85.500	128.831	80.010	19.993	103.989	19.811	4.189	0.413
87.001	129.460	80.005	19.993	103.989	19.812	4.078	0.405
88.500	130.086	80.007	19.993	103.990	19.808	4.347	0.401
90.000	130.726	80.006	19.993	103.991	19.808	4.345	0.426
91.500	131.415	80.006	19.995	103.990	19.808	4.374	0.453
93.000	132.108	80.007	19.994	103.993	19.806	4.532	0.462
94.501	132.749	80.003	19.994	103.991	19.811	4.177	0.427
96.001	133.452	80.004	19.995	103.994	19.808	4.352	0.465
97.500	134.178	80.002	19.994	103.995	19.807	4.480	0.475
99.000	134.843	80.003	19.994	103.989	19.807	4.429	0.470
100.500	135.549	80.005	19.995	103.991	19.807	4.419	0.478
102.000	136.239	80.003	19.994	103.992	19.804	4.658	0.466
103.501	136.969	80.004	19.995	103.990	19.806	4.557	0.459
105.000	137.682	80.005	19.994	103.991	19.808	4.368	0.475
106.501	138.419	80.004	19.994	103.992	19.808	4.400	0.487
108.000	139.150	80.007	19.993	103.995	19.807	4.474	0.509
109.500	139.907	80.006	19.995	103.992	19.809	4.281	0.496
111.000	140.598	80.006	19.995	103.991	19.807	4.420	0.446
112.500	141.354	80.007	19.994	103.991	19.805	4.609	0.510
114.000	142.107	80.006	19.993	103.991	19.808	4.410	0.498
115.500	142.886	80.002	19.994	103.989	19.806	4.510	0.536
117.000	143.656	80.006	19.993	103.991	19.809	4.315	0.560
118.500	144.406	80.002	19.994	103.996	19.809	4.316	0.510
120.001	145.183	80.002	19.995	103.995	19.810	4.223	0.501
121.501	145.964	79.999	19.994	103.979	19.810	4.223	0.510
123.000	146.749	80.003	19.995	103.978	19.812	4.089	0.509
124.500	147.444	80.003	19.994	103.987	19.810	4.253	0.464
126.000	148.251	80.003	19.996	103.979	19.810	4.214	0.515
127.500	149.016	80.004	19.993	103.984	19.811	4.190	0.531
129.000	149.786	80.001	19.995	103.979	19.810	4.255	0.527
130.500	150.589	80.004	19.995	103.982	19.811	4.121	0.519
132.000	151.355	80.004	19.994	103.983	19.809	4.341	0.494
133.500	152.158	80.004	19.995	103.985	19.814	3.907	0.560
135.000	152.937	80.005	19.995	103.972	19.812	4.090	0.510
136.500	153.776	80.007	19.994	103.961	19.812	4.109	0.565
138.000	154.490	80.012	19.995	103.967	19.816	3.818	0.483
139.500	155.284	80.016	19.993	103.972	19.813	3.997	0.511
141.000	156.044	80.007	19.998	103.979	19.817	3.749	0.531
142.500	156.805	80.007	19.995	103.975	19.814	3.943	0.502
144.000	157.566	79.999	19.995	103.956	19.809	4.293	0.494
145.500	158.318	80.006	19.995	103.954	19.814	3.936	0.514
147.000	159.056	79.997	19.995	103.964	19.815	3.887	0.457
148.500	159.837	80.015	19.993	103.954	19.813	3.989	0.520
150.000	160.644	80.004	19.991	103.956	19.812	4.052	0.513
151.500	161.441	80.024	19.994	103.953	19.814	3.952	0.511
153.000	162.204	80.007	19.992	103.967	19.816	3.771	0.488
154.500	162.913	79.990	19.999	103.963	19.815	3.864	0.466
156.000	163.699	80.009	19.991	103.947	19.815	3.834	0.515
157.500	164.469	80.005	19.991	103.953	19.816	3.765	0.498
159.000	165.252	80.010	19.994	103.958	19.820	3.487	0.526
160.500	166.021	80.007	19.993	103.957	19.818	3.631	0.516
162.000	166.791	80.004	19.996	103.950	19.816	3.789	0.496
163.500	167.558	80.007	19.993	103.945	19.815	3.887	0.518
165.000	168.301	80.007	19.993	103.942	19.817	3.726	0.489
166.501	169.019	80.007	19.993	103.947	19.820	3.527	0.479
168.001	169.803	80.007	19.993	103.946	19.819	3.592	0.513
169.500	170.531	80.011	19.993	103.939	19.822	3.375	0.466
171.000	171.326	80.010	19.989	103.935	19.821	3.416	0.521
172.500	172.048	80.002	19.994	103.947	19.816	3.801	0.496
174.000	172.806	80.012	19.991	103.946	19.816	3.811	0.492
175.500	173.566	80.007	19.995	103.945	19.815	3.874	0.490
177.000	174.289	80.004	19.995	103.931	19.814	3.941	0.490
178.500	175.061	80.005	19.992	103.926	19.819	3.594	0.517
180.000	175.772	80.004	19.994	103.946	19.815	3.870	0.477
181.500	176.526	80.006	19.992	103.940	19.817	3.683	0.505
183.000	177.295	80.001	19.994	103.932	19.822	3.375	0.517
184.500	178.028	80.009	19.992	103.925	19.818	3.616	0.510
186.000	178.759	80.010	19.995	103.924	19.821	3.433	0.479
187.500	179.479	79.995	19.993	103.927	19.819	3.543	0.497
189.000	180.170	80.005	19.998	103.919	19.818	3.608	0.445
190.500	180.972	80.016	19.991	103.913	19.818	3.636	0.514
192.000	181.706	80.003	19.995	103.921	19.816	3.756	0.509
193.500	182.426	80.005	19.994	103.930	19.822	3.356	0.492
195.000	183.130	80.003	19.995	103.932	19.820	3.453	0.461
196.500	183.875	80.001	19.995	103.923	19.821	3.431	0.509
198.000	184.578	80.002	19.993	103.916	19.824	3.206	0.473
199.500	185.324	80.005	19.996	103.916	19.821	3.389	0.491
201.000	186.062	80.002	19.992	103.912	19.826	3.040	0.486
202.500	186.788	80.005	19.998	103.912	19.820	3.519	0.498
204.000	187.513	80.001	20.000	103.911	19.826	3.060	0.465
205.500	188.223	80.002	19.994	103.910	19.821	3.389	0.465
207.000	189.007	80.003	19.995	103.914	19.823	3.303	0.522
208.500	189.666	80.005	19.995	103.919	19.823	3.251	0.444
210.000	190.446	80.004	19.992	103.922	19.823	3.265	0.500
211.500	191.156	80.012	19.995	103.927	19.824	3.224	0.485
213.000	191.920	80.003	19.994	103.926	19.822	3.330	0.509
214.500	192.638	80.004	19.995	103.926	19.819	3.598	0.470
216.001	193.387	80.005	19.994	103.927	19.825	3.129	0.457
217.500	194.114	80.002	19.995	103.918	19.820	3.461	0.498
219.000	194.848	80.019	19.992	103.915	19.823	3.292	0.500
220.500	195.557	80.011	19.996	103.915	19.824	3.186	0.474
222.000	196.321	80.012	19.991	103.915	19.821	3.408	0.524
223.500	196.969	80.007	19.997	103.920	19.819	3.541	0.433
225.000	197.756	80.003	19.995	103.927	19.822	3.313	0.492
226.500	198.461	79.999	19.996	103.921	19.822	3.328	0.498
228.000	199.158	79.993	19.993	103.937	19.822	3.320	0.487
229.500	199.897	80.004	19.991	103.947	19.822	3.328	0.495
231.000	200.646	79.998	19.995	103.928	19.820	3.515	0.506
232.500	201.393	80.010	19.997	103.935	19.819	3.553	0.494
234.000	202.129	80.008	19.993	103.936	19.819	3.589	0.478
235.500	202.849	79.997	19.998	103.915	19.822	3.340	0.487
237.000	203.595	80.008	19.996	103.911	19.821	3.423	0.498
238.500	204.306	80.004	19.993	103.923	19.822	3.336	0.480
240.000	205.040	79.999	19.995	103.930	19.823	3.252	0.499
241.500	205.813	79.999	19.991	103.935	19.822	3.362	0.503
243.000	206.563	79.995	19.993	103.920	19.818	3.622	0.496
244.500	207.302	80.005	19.995	103.918	19.822	3.315	0.479
246.000	208.013	79.992	20.004	103.921	19.819	3.582	0.473
247.500	208.773	80.002	19.996	103.913	19.821	3.427	0.505
249.000	209.510	80.013	19.996	103.910	19.815	3.835	0.528
250.501	210.288	80.010	19.995	103.909	19.817	3.695	0.531
252.000	211.044	80.009	19.992	103.912	19.816	3.758	0.499
253.500	211.743	80.004	19.993	103.914	19.823	3.269	0.458
255.000	212.514	80.014	19.995	103.912	19.818	3.670	0.501
256.500	213.238	80.003	19.993	103.919	19.820	3.498	0.474
258.000	214.001	80.004	19.994	103.923	19.821	3.402	0.521
259.500	214.783	80.005	19.995	103.921	19.820	3.459	0.515
261.001	215.527	80.005	19.993	103.913	19.823	3.295	0.473
262.500	216.253	80.014	19.990	103.913	19.820	3.478	0.499
264.000	216.949	80.010	19.992	103.913	19.819	3.575	0.461
265.500	217.736	80.005	19.996	103.909	19.820	3.490	0.495
267.000	218.474	80.005	19.994	103.910	19.820	3.501	0.496
268.500	219.199	79.999	19.994	103.906	19.823	3.287	0.495
270.000	220.000	80.017	19.986	103.890	19.822	3.362	0.515
271.500	220.745	79.999	19.993	103.901	19.823	3.273	0.496
273.000	221.492	80.000	19.994	103.914	19.821	3.425	0.499
274.500	222.287	80.007	19.990	103.914	19.821	3.403	0.517
276.000	223.043	80.013	19.994	103.909	19.824	3.194	0.506
277.500	223.768	80.008	19.991	103.919	19.824	3.188	0.485
279.000	224.525	80.011	19.987	103.933	19.824	3.204	0.515
280.500	225.272	80.010	19.996	103.908	19.821	3.386	0.497
282.000	226.046	80.011	19.994	103.894	19.820	3.506	0.520
283.500	226.801	80.024	19.991	103.907	19.823	3.246	0.506
285.000	227.566	80.004	19.991	103.906	19.821	3.449	0.499
286.500	228.340	80.022	19.988	103.911	19.828	2.926	0.518
288.000	229.064	79.997	19.991	103.917	19.826	3.051	0.492
289.500	229.894	80.017	19.994	103.913	19.824	3.218	0.512
291.000	230.639	80.011	19.992	103.910	19.824	3.169	0.499
292.500	231.385	79.991	19.995	103.912	19.827	3.005	0.477
294.000	232.117	80.004	19.994	103.909	19.823	3.287	0.497
295.500	232.907	79.990	20.003	103.909	19.826	3.052	0.510
297.000	233.649	80.007	19.995	103.905	19.824	3.177	0.501
298.500	234.353	80.014	19.995	103.904	19.822	3.337	0.475
300.000	235.146	80.010	19.993	103.904	19.823	3.246	0.538
301.500	235.945	80.000	19.993	103.894	19.819	3.541	0.515
303.000	236.648	80.005	19.991	103.897	19.823	3.250	0.480
304.500	237.399	80.007	19.994	103.904	19.820	3.485	0.509
306.000	238.149	80.027	19.991	103.905	19.823	3.261	0.513
307.500	238.859	80.015	19.993	103.897	19.823	3.277	0.476
309.000	239.600	80.003	19.995	103.884	19.821	3.407	0.483
310.500	240.357	80.001	19.995	103.906	19.820	3.481	0.509
312.000	241.078	80.015	19.994	103.909	19.820	3.500	0.485
313.500	241.814	80.010	19.994	103.906	19.821	3.414	0.487
315.000	242.561	80.008	19.996	103.925	19.822	3.333	0.487
316.500	243.347	80.016	19.994	103.933	19.820	3.479	0.551
318.000	244.088	79.993	19.996	103.915	19.823	3.236	0.496
319.500	244.820	80.011	19.993	103.915	19.824	3.185	0.491
321.000	245.574	80.006	19.994	103.901	19.823	3.243	0.503
322.500	246.329	80.009	19.994	103.892	19.823	3.241	0.529
324.000	247.076	79.992	19.996	103.897	19.823	3.261	0.503
325.500	247.828	80.014	19.993	103.888	19.823	3.302	0.492
327.001	248.567	79.998	19.996	103.893	19.823	3.243	0.506
328.500	249.342	80.006	19.993	103.892	19.821	3.410	0.504
330.000	250.090	79.999	19.994	103.882	19.822	3.331	0.515
331.500	250.863	80.013	19.996	103.876	19.821	3.428	0.501
333.000	251.612	80.026	19.993	103.879	19.820	3.477	0.523
334.500	252.343	80.010	19.993	103.876	19.820	3.465	0.480
336.000	253.099	80.009	19.993	103.873	19.823	3.282	0.489
337.500	253.849	80.013	19.993	103.871	19.819	3.552	0.491
339.000	254.577	80.009	19.993	103.872	19.821	3.451	0.497
340.500	255.307	79.995	19.997	103.877	19.820	3.513	0.494
342.000	256.053	80.002	19.995	103.874	19.822	3.310	0.480
343.500	256.826	80.003	19.996	103.887	19.821	3.392	0.487
345.001	257.566	80.002	19.995	103.898	19.823	3.268	0.496
346.500	258.296	80.005	19.994	103.882	19.824	3.207	0.476
348.000	259.041	80.012	19.995	103.876	19.826	3.043	0.490
349.500	259.825	80.004	19.995	103.883	19.824	3.195	0.496
351.000	260.516	80.005	19.994	103.889	19.822	3.337	0.470
352.500	261.226	80.008	19.991	103.879	19.824	3.199	0.442
354.000	262.009	80.013	19.990	103.890	19.823	3.254	0.506
355.500	262.754	80.009	19.993	103.899	19.826	3.019	0.495
357.000	263.498	79.991	19.994	103.891	19.824	3.163	0.509
358.500	264.229	80.002	19.995	103.882	19.824	3.162	0.490
360.000	265.023	80.001	19.993	103.889	19.822	3.367	0.515
361.500	265.688	79.991	19.994	103.891	19.823	3.268	0.435
363.000	266.447	80.002	19.995	103.882	19.819	3.556	0.500
364.500	267.228	80.009	19.992	103.878	19.822	3.361	0.526
366.000	267.928	80.017	19.994	103.883	19.820	3.502	0.455
367.500	268.698	79.999	19.993	103.899	19.818	3.633	0.521
369.000	269.429	80.001	19.995	103.891	19.823	3.274	0.485
370.500	270.184	80.015	19.993	103.874	19.818	3.603	0.491
372.000	270.950	80.002	19.995	103.876	19.823	3.294	0.498
373.500	271.708	80.000	19.995	103.891	19.819	3.544	0.492
375.000	272.434	80.003	19.993	103.891	19.819	3.536	0.480
376.500	273.213	80.004	19.994	103.898	19.816	3.799	0.517
378.000	273.976	80.004	19.995	103.899	19.820	3.513	0.494
379.500	274.676	80.016	19.994	103.886	19.815	3.834	0.473
381.000	275.476	80.005	20.001	103.886	19.815	3.844	0.530
382.500	276.196	79.999	19.994	103.878	19.816	3.765	0.489
384.000	276.925	80.007	19.993	103.878	19.816	3.800	0.496
385.500	277.656	80.002	19.995	103.883	19.817	3.731	0.510
387.000	278.452	80.012	19.994	103.880	19.812	4.052	0.541
388.500	279.231	80.008	19.993	103.873	19.814	3.938	0.491
390.000	279.968	80.011	19.995	103.887	19.812	4.104	0.500
391.500	280.708	80.006	19.995	103.895	19.812	4.094	0.481
393.000	281.439	80.001	19.995	103.900	19.813	4.015	0.485
394.500	282.213	80.006	19.995	103.901	19.810	4.220	0.490
396.000	282.952	80.004	19.997	103.907	19.813	4.011	0.512
397.500	283.735	80.016	19.992	103.904	19.815	3.852	0.514
399.000	284.456	80.018	19.993	103.897	19.813	4.026	0.490
400.500	285.177	80.008	19.996	103.898	19.810	4.213	0.497
402.000	285.906	80.011	19.994	103.894	19.807	4.417	0.514
403.500	286.687	80.004	19.995	103.898	19.805	4.583	0.490
405.000	287.471	80.012	19.992	103.909	19.807	4.440	0.529
406.500	288.181	80.005	19.994	103.901	19.807	4.442	0.469
408.000	288.980	80.004	19.993	103.889	19.810	4.199	0.520
409.500	289.739	80.002	19.995	103.879	19.804	4.691	0.530
411.000	290.500	80.008	19.995	103.875	19.809	4.301	0.537
412.500	291.250	80.008	19.995	103.890	19.801	4.860	0.496
414.000	292.024	80.019	19.994	103.898	19.802	4.786	0.519
415.500	292.737	80.002	19.995	103.888	19.801	4.873	0.494
417.000	293.461	79.994	19.994	103.886	19.804	4.678	0.490
418.501	294.283	80.002	19.993	103.891	19.800	4.956	0.535
420.000	295.060	80.014	19.993	103.897	19.802	4.840	0.518
421.500	295.837	80.005	19.995	103.895	19.799	5.045	0.525
423.000	296.570	80.004	19.994	103.878	19.798	5.139	0.489
424.500	297.278	80.005	19.994	103.887	19.798	5.083	0.468
426.000	298.063	79.986	20.002	103.896	19.796	5.267	0.520
427.500	298.839	80.003	19.996	103.897	19.791	5.638	0.533
429.000	299.605	80.002	19.996	103.906	19.792	5.558	0.506
430.500	300.351	80.005	19.994	103.895	19.788	5.866	0.500
432.000	301.103	80.005	19.995	103.888	19.787	5.926	0.472
433.500	301.864	80.016	19.992	103.891	19.783	6.194	0.503
435.000	302.615	80.004	19.994	103.912	19.781	6.345	0.485
436.500	303.389	80.006	19.995	103.910	19.780	6.438	0.517
438.000	304.125	80.005	19.993	103.906	19.776	6.761	0.502
439.500	304.888	80.003	19.995	103.909	19.769	7.238	0.517
441.000	305.643	80.003	19.994	103.914	19.768	7.358	0.479
442.500	306.415	80.007	19.995	103.908	19.765	7.578	0.526
444.001	307.171	80.005	19.993	103.908	19.757	8.176	0.515
445.500	307.957	80.007	19.994	103.913	19.754	8.392	0.522
447.000	308.689	80.001	19.996	103.915	19.750	8.650	0.496
448.500	309.490	80.006	19.994	103.912	19.740	9.384	0.519
450.000	310.232	80.005	19.994	103.916	19.734	9.841	0.494
451.500	310.973	80.003	19.995	103.916	19.732	9.997	0.487
453.000	311.776	80.003	19.994	103.912	19.729	10.229	0.530
454.500	312.529	80.004	19.995	103.904	19.722	10.722	0.523
456.000	313.314	80.001	19.995	103.902	19.717	11.066	0.522
457.500	314.064	80.004	19.994	103.909	19.710	11.648	0.499
459.000	314.795	80.003	19.994	103.910	19.703	12.154	0.486
460.500	315.618	80.003	19.994	103.912	19.700	12.359	0.528
462.000	316.319	80.006	19.995	103.913	19.695	12.742	0.461
463.500	317.127	80.004	19.993	103.914	19.686	13.376	0.547
465.000	317.848	80.000	19.994	103.923	19.682	13.723	0.490
466.500	318.650	80.007	19.994	103.930	19.676	14.107	0.523
468.000	319.441	80.006	19.994	103.936	19.672	14.443	0.534
469.500	320.180	80.007	19.993	103.944	19.668	14.704	0.492
471.000	320.944	80.006	19.995	103.949	19.660	15.306	0.506
472.500	321.729	80.007	19.995	103.942	19.647	16.287	0.516
474.001	322.477	80.007	19.995	103.947	19.639	16.876	0.505
475.500	323.250	80.008	19.994	103.962	19.623	18.049	0.515
477.000	323.977	80.005	19.995	103.958	19.614	18.722	0.496
478.500	324.764	79.998	19.995	103.943	19.601	19.651	0.525
480.000	325.539	80.001	19.995	103.939	19.592	20.366	0.520
481.500	326.283	80.005	19.994	103.938	19.577	21.492	0.498
483.000	327.059	80.002	19.996	103.959	19.564	22.437	0.516
484.500	327.826	80.007	19.994	103.973	19.552	23.293	0.489
486.000	328.592	80.001	19.995	103.978	19.539	24.238	0.525
487.500	329.365	80.006	19.995	103.977	19.520	25.654	0.515
489.000	330.154	80.006	19.994	103.992	19.507	26.611	0.524
490.500	330.892	80.008	19.993	104.004	19.484	28.352	0.482
492.000	331.644	80.004	19.994	104.020	19.465	29.748	0.486
493.500	332.421	80.007	19.995	104.035	19.446	31.166	0.519
495.000	333.217	80.005	19.993	104.031	19.426	32.653	0.535
496.500	333.984	80.009	19.992	104.030	19.399	34.646	0.488
498.000	334.776	80.008	19.993	104.052	19.378	36.198	0.538
499.500	335.528	80.008	19.995	104.064	19.351	38.247	0.528
501.000	336.247	80.007	19.994	104.058	19.317	40.717	0.473
502.500	337.033	80.010	19.993	104.080	19.286	43.053	0.541
504.000	337.788	80.006	19.994	104.113	19.257	45.179	0.510
505.500	338.571	80.004	19.994	104.114	19.229	47.258	0.496
507.000	339.311	80.007	19.994	104.111	19.198	49.596	0.497
508.500	340.098	80.006	19.996	104.116	19.157	52.623	0.530
510.000	340.876	80.005	19.995	104.134	19.120	55.381	0.518
511.500	341.636	80.004	19.996	104.154	19.085	57.966	0.495
513.000	342.372	80.004	19.995	104.172	19.052	60.455	0.490
514.500	343.094	80.004	19.995	104.188	19.012	63.421	0.465
516.000	343.862	80.005	19.994	104.198	18.966	66.854	0.500
517.500	344.618	80.004	19.995	104.206	18.921	70.211	0.527
519.000	345.386	80.002	19.995	104.245	18.876	73.539	0.520
520.500	346.152	80.004	19.996	104.278	18.828	77.149	0.532
522.000	346.941	80.006	19.995	104.298	18.776	80.994	0.491
523.500	347.686	80.005	19.995	104.291	18.717	85.400	0.506
525.000	348.393	80.004	19.995	104.325	18.662	89.529	0.483
526.500	349.142	80.007	19.995	104.352	18.595	94.530	0.504
528.000	349.930	80.002	19.994	104.388	18.532	99.226	0.516
529.500	350.614	80.004	19.994	104.399	18.467	104.036	0.461
531.000	351.394	80.005	19.994	104.414	18.401	109.036	0.497
532.500	352.112	80.014	19.992	104.433	18.330	114.355	0.488
534.000	352.913	79.999	19.995	104.479	18.256	119.832	0.528
535.500	353.623	80.010	19.996	104.501	18.185	125.179	0.469
537.000	354.354	80.007	19.993	104.512	18.116	130.322	0.482
538.500	355.088	80.005	19.994	104.532	18.047	135.501	0.480
540.000	355.792	80.004	19.994	104.556	17.959	142.074	0.488
541.500	356.522	80.002	19.993	104.576	17.883	147.749	0.487
543.000	357.269	80.003	19.994	104.628	17.808	153.405	0.501
544.500	358.036	80.004	19.993	104.651	17.731	159.118	0.508
546.000	358.749	80.006	19.995	104.676	17.650	165.112	0.506
547.500	359.460	80.006	19.994	104.704	17.565	171.533	0.481
549.000	360.193	80.004	19.994	104.715	17.487	177.415	0.488
550.500	360.906	80.003	19.994	104.753	17.410	183.143	0.487
552.000	361.646	80.005	19.995	104.778	17.328	189.321	0.498
553.500	362.360	80.006	19.995	104.795	17.245	195.524	0.474
555.000	363.094	80.008	19.994	104.815	17.171	200.998	0.521
556.500	363.830	80.007	19.995	104.802	17.105	205.910	0.486
558.000	364.527	80.004	19.995	104.819	17.042	210.600	0.446
559.500	365.275	80.007	19.994	104.853	16.977	215.391	0.521
561.000	365.971	80.007	19.994	104.862	16.907	220.603	0.474
562.500	366.686	80.013	19.991	104.880	16.845	225.312	0.496
564.000	367.429	80.005	19.994	104.922	16.799	228.650	0.497
565.500	368.187	80.005	19.994	104.894	16.759	231.563	0.479
567.000	368.898	80.007	19.994	104.875	16.716	234.670	0.486
568.500	369.683	80.005	19.993	104.872	16.693	236.317	0.512
570.000	370.372	80.007	19.994	104.853	16.668	238.046	0.457
571.500	371.140	80.007	19.995	104.856	16.652	239.134	0.511
573.000	371.883	80.005	19.994	104.884	16.649	239.529	0.474
574.500	372.622	80.006	19.995	104.859	16.659	238.731	0.496
576.000	373.393	80.008	19.994	104.823	16.677	237.185	0.498
577.500	374.181	80.010	19.990	104.783	16.710	234.639	0.516
579.000	374.900	80.005	19.992	104.761	16.756	231.164	0.480
580.500	375.632	80.008	19.993	104.737	16.806	227.311	0.472
582.000	376.382	80.008	19.995	104.664	16.871	222.369	0.486
583.501	377.203	80.007	19.994	104.673	16.953	216.101	0.558
585.000	377.990	80.007	19.993	104.716	17.040	209.519	0.543
586.500	378.783	80.008	19.994	104.639	17.136	202.173	0.522
588.000	379.569	80.007	19.994	104.590	17.246	193.850	0.543
589.500	380.343	80.006	19.994	104.545	17.369	184.684	0.513
591.000	381.127	80.003	19.995	104.494	17.498	175.091	0.511
592.500	381.964	80.005	19.994	104.448	17.646	164.142	0.544
594.000	382.747	80.004	19.993	104.372	17.810	152.077	0.521
595.500	383.543	80.007	19.996	104.286	17.985	139.171	0.540
597.000	384.379	80.005	19.995	104.199	18.179	124.817	0.558
598.500	385.196	80.004	19.995	104.104	18.374	110.326	0.534
600.000	386.018	80.003	19.993	104.029	18.573	95.540	0.557
601.500	386.856	80.005	19.995	103.974	18.760	81.828	0.557
603.000	387.651	80.006	19.995	103.966	18.925	69.633	0.543
604.500	388.564	80.006	19.994	103.991	19.067	59.071	0.592
606.000	389.378	80.002	19.996	104.011	19.189	50.079	0.535
607.500	390.186	80.003	19.996	104.015	19.285	42.953	0.554
609.000	390.986	80.003	19.996	103.978	19.366	37.005	0.539
610.500	391.831	80.009	19.994	103.914	19.439	31.586	0.540
612.000	392.614	80.005	19.997	103.963	19.495	27.495	0.533
613.500	393.456	80.006	19.996	103.966	19.537	24.373	0.559
615.000	394.294	80.006	19.996	103.892	19.576	21.517	0.568
616.500	395.126	80.007	19.994	103.871	19.606	19.289	0.552
618.000	395.939	80.003	19.995	103.871	19.628	17.622	0.545
619.500	396.767	80.006	19.995	103.854	19.647	16.254	0.556
621.000	397.548	80.004	19.995	103.834	19.665	14.902	0.526
622.500	398.341	80.006	19.991	103.833	19.681	13.742	0.520
624.000	399.146	80.001	19.996	103.834	19.692	12.929	0.544
625.500	399.954	80.006	19.994	103.825	19.700	12.332	0.503
627.000	400.715	80.004	19.995	103.803	19.706	11.875	0.486
628.500	401.505	80.003	19.995	103.801	19.717	11.099	0.514
630.000	402.287	80.004	19.994	103.802	19.720	10.841	0.505
631.500	403.122	80.005	19.996	103.801	19.724	10.537	0.556
633.000	403.850	80.004	19.994	103.801	19.731	10.050	0.509
634.500	404.646	80.006	19.993	103.795	19.734	9.840	0.506
636.000	405.399	80.006	19.994	103.799	19.737	9.613	0.486
637.500	406.204	80.007	19.995	103.811	19.737	9.603	0.536
639.000	406.980	80.006	19.994	103.820	19.741	9.315	0.514
640.500	407.737	80.005	19.995	103.829	19.739	9.473	0.514
642.000	408.466	80.006	19.994	103.830	19.740	9.392	0.477
643.500	409.255	80.007	19.993	103.832	19.744	9.128	0.518
645.000	410.015	80.005	19.994	103.836	19.742	9.261	0.499
646.500	410.758	80.006	19.994	103.837	19.746	8.936	0.497
648.000	411.508	80.005	19.994	103.844	19.744	9.128	0.505
649.500	412.285	80.005	19.994	103.847	19.747	8.838	0.516
651.000	413.031	80.008	19.993	103.844	19.746	8.979	0.488
652.500	413.775	80.006	19.994	103.845	19.747	8.893	0.504
654.000	414.466	80.006	19.993	103.840	19.750	8.677	0.457
655.500	415.220	80.006	19.994	103.846	19.751	8.587	0.497
657.000	415.933	80.007	19.994	103.846	19.750	8.657	0.484
658.500	416.688	80.007	19.993	103.838	19.747	8.873	0.492
660.000	417.449	80.008	19.993	103.836	19.747	8.867	0.510
661.500	418.184	80.007	19.993	103.830	19.745	9.026	0.474
663.000	418.919	80.008	19.993	103.831	19.748	8.799	0.495
664.500	419.632	80.008	19.993	103.846	19.746	8.919	0.460
666.000	420.435	80.009	19.994	103.841	19.748	8.835	0.516
667.500	421.147	80.010	19.993	103.830	19.749	8.752	0.487
669.000	421.924	80.008	19.993	103.823	19.750	8.669	0.493
670.500	422.660	80.008	19.994	103.821	19.747	8.866	0.489
672.000	423.364	80.004	19.994	103.832	19.749	8.720	0.470
673.500	424.074	80.005	19.995	103.832	19.750	8.639	0.487
675.000	424.837	80.007	19.994	103.832	19.747	8.840	0.484
676.500	425.615	80.005	19.994	103.825	19.750	8.670	0.499
678.000	426.353	80.006	19.994	103.821	19.747	8.840	0.474
679.500	427.057	80.005	19.994	103.824	19.746	8.968	0.487
681.000	427.793	80.006	19.994	103.831	19.746	8.977	0.504
682.500	428.530	80.006	19.994	103.832	19.746	8.928	0.492
684.000	429.267	80.006	19.994	103.835	19.746	8.931	0.513
685.500	429.998	80.006	19.994	103.832	19.746	8.936	0.489
687.000	430.795	80.007	19.994	103.832	19.744	9.102	0.516
688.500	431.551	80.005	19.994	103.833	19.743	9.155	0.497
690.000	432.258	80.005	19.994	103.835	19.743	9.145	0.487
691.500	433.049	80.006	19.996	103.848	19.744	9.070	0.520
693.000	433.794	80.005	19.995	103.846	19.745	9.047	0.500
694.500	434.555	80.005	19.994	103.834	19.744	9.069	0.505
696.000	435.311	80.006	19.994	103.841	19.743	9.179	0.497
697.500	436.099	80.006	19.994	103.839	19.737	9.616	0.535
699.000	436.820	80.005	19.995	103.837	19.739	9.478	0.468
700.500	437.596	80.005	19.994	103.839	19.739	9.444	0.507
702.000	438.341	80.005	19.994	103.843	19.739	9.478	0.513
703.500	439.116	80.006	19.995	103.840	19.739	9.462	0.502
705.000	439.859	80.006	19.995	103.833	19.735	9.727	0.507
706.500	440.624	80.003	19.995	103.834	19.736	9.669	0.516
708.000	441.396	80.005	19.994	103.833	19.735	9.756	0.525
709.500	442.126	80.004	19.995	103.832	19.733	9.883	0.471
711.000	442.865	80.004	19.994	103.830	19.732	9.977	0.509
712.500	443.660	80.006	19.995	103.830	19.727	10.348	0.511
714.000	444.437	80.006	19.993	103.827	19.729	10.220	0.523
715.500	445.183	80.006	19.994	103.827	19.726	10.423	0.489
717.000	445.906	80.007	19.993	103.833	19.725	10.528	0.487
718.500	446.661	80.008	19.993	103.844	19.725	10.490	0.500
720.000	447.454	80.007	19.994	103.862	19.724	10.539	0.526
721.501	448.229	80.008	19.993	103.854	19.726	10.427	0.506
723.000	449.015	80.008	19.993	103.839	19.722	10.731	0.519
724.500	449.741	80.006	19.993	103.832	19.718	11.003	0.498
726.000	450.510	80.008	19.994	103.828	19.716	11.147	0.506
727.500	451.237	80.006	19.994	103.823	19.717	11.089	0.484
729.000	452.044	80.007	19.995	103.829	19.714	11.300	0.533
730.500	452.773	80.007	19.994	103.831	19.714	11.297	0.490
732.000	453.601	80.006	19.993	103.832	19.714	11.334	0.524
733.500	454.353	80.006	19.994	103.831	19.712	11.460	0.518
735.000	455.135	80.007	19.993	103.818	19.712	11.440	0.488
736.500	455.866	80.008	19.994	103.810	19.709	11.661	0.471
738.000	456.629	80.009	19.994	103.820	19.710	11.639	0.510
739.500	457.397	80.006	19.993	103.822	19.707	11.805	0.488
741.000	458.153	80.006	19.994	103.816	19.705	11.999	0.497
742.500	458.943	80.008	19.993	103.813	19.705	11.939	0.519
744.000	459.692	80.008	19.993	103.823	19.708	11.732	0.494
745.500	460.460	80.008	19.994	103.822	19.706	11.912	0.506
747.000	461.249	80.009	19.994	103.824	19.699	12.413	0.517
748.500	462.036	80.009	19.993	103.825	19.703	12.136	0.540
750.000	462.781	80.010	19.994	103.829	19.702	12.206	0.521
751.500	463.562	80.008	19.995	103.815	19.700	12.347	0.511
753.000	464.336	80.009	19.993	103.825	19.699	12.420	0.494
754.500	465.078	80.007	19.993	103.826	19.699	12.429	0.495
756.000	465.851	80.008	19.994	103.822	19.698	12.476	0.526
757.500	466.654	80.008	19.993	103.822	19.697	12.534	0.531
759.000	467.419	80.007	19.993	103.820	19.695	12.719	0.525
760.500	468.184	80.007	19.994	103.817	19.692	12.952	0.484
762.000	468.952	80.005	19.993	103.830	19.697	12.577	0.521
763.500	469.738	80.007	19.994	103.832	19.693	12.890	0.530
765.000	470.535	80.006	19.994	103.823	19.691	13.002	0.492
766.500	471.288	80.005	19.993	103.820	19.693	12.871	0.502
768.000	472.060	80.006	19.993	103.833	19.695	12.719	0.523
769.500	472.822	80.006	19.994	103.827	19.699	12.415	0.518
771.000	473.676	80.005	19.995	103.823	19.692	12.950	0.563
772.500	474.435	80.007	19.994	103.812	19.695	12.684	0.496
774.000	475.211	80.006	19.995	103.810	19.700	12.371	0.530
775.500	475.963	80.005	19.994	103.817	19.697	12.528	0.510
777.000	476.719	80.005	19.994	103.805	19.701	12.303	0.489
778.500	477.522	80.006	19.994	103.815	19.701	12.279	0.530
780.000	478.276	80.007	19.993	103.826	19.705	11.976	0.486
781.500	479.083	80.007	19.994	103.831	19.704	12.065	0.513
783.000	479.844	80.005	19.993	103.832	19.709	11.677	0.502
784.500	480.643	80.006	19.993	103.829	19.711	11.517	0.534
786.000	481.408	80.006	19.994	103.820	19.714	11.323	0.505
787.500	482.200	80.006	19.994	103.819	19.719	10.926	0.515
789.000	482.948	80.006	19.994	103.819	19.724	10.595	0.512
790.500	483.730	80.006	19.995	103.813	19.729	10.218	0.512
792.000	484.491	80.005	19.993	103.810	19.732	9.982	0.518
793.500	485.259	80.007	19.994	103.820	19.736	9.687	0.517
795.000	486.024	80.005	19.994	103.823	19.743	9.181	0.489
796.500	486.816	80.006	19.994	103.823	19.749	8.729	0.513
798.000	487.547	80.006	19.995	103.830	19.752	8.512	0.490
799.500	488.337	80.004	19.994	103.826	19.757	8.158	0.538
801.000	489.124	80.006	19.994	103.828	19.761	7.831	0.532
802.500	489.917	80.006	19.994	103.820	19.768	7.321	0.521
804.000	490.743	80.007	19.995	103.812	19.770	7.183	0.527
805.500	491.510	80.006	19.995	103.814	19.774	6.853	0.526
807.000	492.230	80.007	19.994	103.810	19.778	6.579	0.486
808.500	493.032	80.006	19.994	103.815	19.783	6.189	0.510
810.000	493.810	80.007	19.994	103.804	19.786	5.992	0.536
811.501	494.594	80.005	19.995	103.811	19.788	5.825	0.533
813.000	495.364	80.007	19.994	103.826	19.793	5.497	0.540
814.500	496.143	80.006	19.994	103.822	19.794	5.432	0.516
816.000	496.928	80.007	19.993	103.822	19.800	4.963	0.526
817.500	497.729	80.007	19.994	103.828	19.797	5.158	0.545
819.000	498.461	80.006	19.993	103.817	19.802	4.785	0.497
820.500	499.262	80.007	19.994	103.814	19.806	4.538	0.541
822.000	500.007	80.008	19.994	103.822	19.804	4.651	0.507
823.500	500.803	80.006	19.994	103.833	19.808	4.363	0.518
825.000	501.545	80.007	19.993	103.834	19.814	3.941	0.477
826.500	502.350	80.006	19.993	103.833	19.812	4.047	0.535
828.000	503.074	80.009	19.994	103.834	19.815	3.856	0.487
829.500	503.842	80.009	19.994	103.833	19.815	3.887	0.498
831.000	504.605	80.008	19.993	103.835	19.815	3.840	0.499
832.500	505.379	80.008	19.993	103.832	19.817	3.680	0.484
834.000	506.144	80.009	19.994	103.827	19.819	3.576	0.532
835.500	506.991	80.007	19.994	103.831	19.824	3.193	0.560
837.000	507.721	80.006	19.994	103.833	19.825	3.114	0.475
838.500	508.507	80.006	19.994	103.832	19.824	3.222	0.517
840.000	509.219	80.007	19.993	103.833	19.813	3.999	0.481
841.500	510.012	80.005	19.995	103.820	19.824	3.164	0.540
843.000	510.792	80.006	19.992	103.826	19.816	3.750	0.463
844.500	511.518	80.005	19.994	103.820	19.830	2.742	0.471
846.000	512.228	80.005	19.994	103.812	19.826	3.024	0.463
847.500	512.926	80.005	19.994	103.819	19.826	3.041	0.469
849.000	513.765	80.005	19.993	103.832	19.828	2.899	0.431
850.501	514.574	80.007	19.993	103.820	19.825	3.120	0.435
852.000	515.299	80.006	19.994	103.801	19.823	3.272	0.255
853.500	516.167	80.006	19.993	103.809	19.820	3.514	0.616
855.000	517.149	80.007	19.993	103.804	19.823	3.285	0.960
856.500	517.759	80.005	19.993	103.807	19.826	3.037	0.499
858.000	518.907	80.006	19.993	103.810	19.825	3.141	0.781
859.500	519.077	80.005	19.995	103.824	19.826	3.021	-0.108
861.001	519.980	80.005	19.993	103.826	19.825	3.137	0.140
862.500	520.445	80.004	19.994	103.830	19.826	3.018	0.561
864.000	521.504	80.007	19.994	103.833	19.829	2.850	0.370
865.500	522.238	80.007	19.994	103.832	19.828	2.903	0.610
867.000	523.035	80.006	19.995	103.832	19.827	2.941	0.566
868.500	523.720	80.005	19.994	103.832	19.829	2.846	0.517
870.000	524.514	80.005	19.994	103.830	19.824	3.214	0.524
871.500	525.246	80.006	19.996	103.832	19.829	2.832	0.497
873.000	526.037	80.006	19.995	103.825	19.822	3.358	0.535
874.500	526.749	80.006	19.994	103.803	19.826	3.029	0.485
876.000	527.565	80.006	19.994	103.803	19.824	3.158	0.557
877.500	528.252	80.007	19.994	103.805	19.826	3.077	0.468
879.000	529.128	80.006	19.994	103.820	19.828	2.909	0.529
880.500	529.824	80.007	19.994	103.830	19.828	2.872	0.463
882.000	530.617	80.006	19.994	103.836	19.825	3.100	0.537
883.500	531.338	80.006	19.995	103.835	19.826	3.059	0.481
885.000	532.070	80.007	19.994	103.827	19.828	2.881	0.505
886.500	532.828	80.006	19.994	103.817	19.826	3.063	0.494
888.000	533.627	80.008	19.993	103.814	19.824	3.221	0.520
889.500	534.382	80.007	19.996	103.807	19.828	2.927	0.489
891.000	535.174	80.005	19.995	103.813	19.826	3.033	0.506
892.500	535.917	80.006	19.995	103.820	19.825	3.088	0.489
894.000	536.670	80.007	19.994	103.822	19.825	3.146	0.510
895.500	537.415	80.007	19.995	103.821	19.829	2.814	0.492
897.000	538.172	80.006	19.995	103.824	19.829	2.846	0.517
898.500	538.950	80.005	19.996	103.820	19.827	2.948	0.523
900.000	539.719	80.006	19.995	103.821	19.829	2.836	0.493
901.500	540.438	80.006	19.995	103.825	19.830	2.753	0.500
903.000	541.211	80.004	19.994	103.829	19.831	2.692	0.527
904.500	542.009	80.007	19.995	103.814	19.827	2.970	0.520
906.000	542.757	80.007	19.994	103.809	19.828	2.921	0.498
907.500	543.502	80.007	19.993	103.825	19.828	2.864	0.482
909.000	544.256	80.007	19.994	103.827	19.828	2.919	0.522
910.500	545.035	80.007	19.992	103.830	19.827	2.949	0.516
912.000	545.819	80.010	19.994	103.836	19.829	2.796	0.513
913.500	546.545	80.008	19.993	103.829	19.827	2.946	0.449
915.000	547.303	80.007	19.993	103.826	19.829	2.854	0.530
916.500	548.085	80.008	19.994	103.807	19.832	2.617	0.522
918.000	548.794	80.006	19.994	103.812	19.828	2.866	0.485
919.500	549.598	80.007	19.994	103.815	19.826	3.018	0.524
921.000	550.398	80.008	19.994	103.807	19.827	2.964	0.528
922.500	551.157	80.005	19.994	103.813	19.825	3.149	0.492
924.000	551.896	80.004	19.995	103.824	19.824	3.215	0.506
925.500	552.651	80.006	19.995	103.821	19.828	2.864	0.508
927.000	553.400	80.005	19.994	103.821	19.825	3.104	0.471
928.500	554.192	80.006	19.993	103.810	19.825	3.108	0.512
930.000	554.924	80.006	19.995	103.798	19.821	3.381	0.484
931.500	555.742	80.006	19.995	103.804	19.823	3.280	0.544
933.000	556.506	80.006	19.995	103.825	19.827	2.958	0.528
934.500	557.285	80.007	19.994	103.829	19.824	3.156	0.529
936.000	558.040	80.005	19.994	103.817	19.824	3.189	0.518
937.500	558.781	80.006	19.995	103.817	19.826	3.030	0.498
939.000	559.560	80.006	19.994	103.818	19.824	3.199	0.540
940.500	560.348	80.007	19.994	103.817	19.826	3.039	0.524
942.000	561.080	80.007	19.994	103.821	19.823	3.248	0.518
943.500	561.878	80.008	19.993	103.823	19.826	3.063	0.529
945.000	562.652	80.007	19.994	103.816	19.826	3.030	0.525
946.500	563.383	80.007	19.993	103.817	19.824	3.172	0.484
948.000	564.171	80.005	19.994	103.813	19.827	2.994	0.511
949.500	564.906	80.007	19.994	103.812	19.825	3.142	0.502
951.000	565.649	80.005	19.993	103.822	19.826	3.031	0.517
952.500	566.459	80.004	19.994	103.826	19.828	2.900	0.522
954.000	567.234	80.006	19.993	103.819	19.829	2.797	0.522
955.500	567.988	80.005	19.994	103.806	19.825	3.142	0.509
957.000	568.746	80.004	19.994	103.799	19.826	3.044	0.505
958.500	569.552	80.004	19.994	103.801	19.823	3.281	0.526
960.000	570.348	80.005	19.994	103.800	19.824	3.184	0.529
961.500	571.107	80.006	19.995	103.811	19.827	3.004	0.497
963.000	571.896	80.005	19.994	103.809	19.825	3.106	0.503
964.500	572.629	80.004	19.995	103.798	19.829	2.850	0.514
966.000	573.426	80.006	19.993	103.807	19.827	2.980	0.526
967.500	574.243	80.007	19.995	103.806	19.827	2.970	0.558
969.000	575.008	80.008	19.994	103.800	19.827	2.939	0.519
970.500	575.790	80.007	19.994	103.800	19.825	3.121	0.533
972.000	576.568	80.006	19.993	103.808	19.826	3.021	0.518
973.500	577.338	80.007	19.993	103.821	19.826	3.057	0.486
975.000	578.094	80.006	19.994	103.814	19.825	3.148	0.510
976.500	578.859	80.007	19.993	103.825	19.824	3.207	0.517
978.000	579.611	80.006	19.994	103.814	19.825	3.095	0.511
979.500	580.398	80.007	19.994	103.808	19.825	3.105	0.516
981.000	581.154	80.007	19.995	103.838	19.826	3.055	0.486
982.500	581.907	80.006	19.995	103.831	19.828	2.883	0.511
984.000	582.668	80.007	19.995	103.827	19.827	2.976	0.485
985.500	583.426	80.006	19.995	103.819	19.829	2.810	0.517
987.000	584.195	80.007	19.995	103.801	19.828	2.897	0.496
988.500	584.936	80.007	19.994	103.811	19.827	2.952	0.489
990.000	585.693	80.007	19.995	103.806	19.828	2.879	0.496
991.500	586.436	80.007	19.996	103.807	19.826	3.043	0.499
993.000	587.226	80.008	19.995	103.818	19.826	3.041	0.519
994.500	588.014	80.008	19.995	103.811	19.826	3.051	0.530
996.000	588.747	80.008	19.995	103.817	19.823	3.290	0.477
997.500	589.491	80.009	19.993	103.820	19.826	3.067	0.512
999.000	590.308	80.008	19.996	103.818	19.823	3.246	0.550
1000.500	591.066	80.007	19.995	103.829	19.825	3.105	0.510
1002.000	591.850	80.006	19.994	103.816	19.827	2.996	0.526
1003.500	592.622	80.006	19.994	103.804	19.824	3.223	0.539
1005.000	593.367	80.007	19.993	103.805	19.826	3.079	0.487
1006.500	594.141	80.006	19.994	103.800	19.827	2.956	0.521
1008.000	594.934	80.005	19.994	103.812	19.826	3.039	0.550
1009.500	595.678	80.005	19.994	103.823	19.826	3.048	0.500
1011.000	596.485	80.006	19.994	103.806	19.825	3.095	0.524
1012.500	597.186	80.006	19.993	103.813	19.826	3.022	0.485
1014.000	597.976	80.006	19.994	103.826	19.827	2.935	0.518
1015.500	598.797	80.006	19.994	103.817	19.824	3.160	0.535
1017.000	599.552	80.005	19.994	103.815	19.822	3.322	0.491
1018.500	600.298	80.005	19.993	103.822	19.826	3.018	0.508
1020.000	601.065	80.006	19.994	103.811	19.828	2.925	0.505
1021.500	601.818	80.005	19.994	103.803	19.823	3.263	0.517
1023.000	602.603	80.006	19.994	103.801	19.823	3.259	0.538
1024.501	603.370	80.006	19.993	103.816	19.823	3.269	0.508
1026.000	604.153	80.004	19.994	103.815	19.821	3.383	0.524
1027.501	604.908	80.007	19.993	103.803	19.824	3.191	0.501
1029.001	605.683	80.005	19.993	103.805	19.826	3.071	0.517
1030.500	606.398	80.005	19.995	103.809	19.822	3.305	0.479
1032.000	607.188	80.006	19.993	103.809	19.825	3.138	0.511
1033.500	607.979	80.006	19.994	103.802	19.820	3.462	0.515
1035.000	608.708	80.006	19.994	103.800	19.820	3.477	0.501
1036.500	609.459	80.006	19.993	103.809	19.820	3.483	0.498
1038.000	610.218	80.005	19.993	103.815	19.823	3.300	0.500
1039.500	611.034	80.005	19.994	103.824	19.822	3.309	0.544
1041.001	611.772	80.006	19.993	103.830	19.823	3.280	0.517
1042.500	612.501	80.005	19.993	103.814	19.822	3.321	0.467
1044.000	613.288	80.005	19.994	103.798	19.824	3.179	0.529
1045.500	614.092	80.007	19.994	103.810	19.825	3.097	0.539
1047.000	614.841	80.006	19.994	103.824	19.827	2.990	0.498
1048.500	615.555	80.007	19.994	103.821	19.822	3.351	0.479
1050.000	616.345	80.006	19.993	103.824	19.825	3.146	0.513
1051.500	617.129	80.007	19.995	103.832	19.829	2.822	0.536
1053.001	617.893	80.006	19.994	103.826	19.828	2.911	0.510
1054.500	618.638	80.005	19.995	103.824	19.828	2.877	0.513
1056.001	619.446	80.007	19.993	103.816	19.826	3.008	0.538
1057.500	620.194	80.008	19.993	103.795	19.826	3.051	0.488
1059.000	620.956	80.007	19.994	103.815	19.825	3.087	0.507
1060.500	621.763	80.007	19.995	103.830	19.827	2.958	0.520
1062.000	622.506	80.008	19.995	103.818	19.827	2.960	0.498
1063.500	623.290	80.006	19.996	103.821	19.825	3.100	0.524
1065.001	624.068	80.008	19.995	103.830	19.825	3.122	0.522
1066.500	624.877	80.007	19.995	103.821	19.823	3.239	0.531
1068.001	625.639	80.009	19.994	103.809	19.824	3.162	0.513
1069.500	626.378	80.007	19.995	103.813	19.824	3.223	0.509
1071.000	627.139	80.006	19.994	103.827	19.821	3.408	0.494
1072.501	627.912	80.009	19.994	103.815	19.822	3.319	0.500
1074.000	628.695	80.007	19.994	103.816	19.824	3.223	0.521
1075.500	629.443	80.009	19.995	103.821	19.824	3.189	0.497
1077.001	630.193	80.007	19.994	103.805	19.824	3.215	0.498
1078.500	630.999	80.008	19.994	103.810	19.824	3.170	0.518
1080.000	631.781	80.008	19.994	103.812	19.826	3.022	0.527
1081.501	632.556	80.007	19.994	103.806	19.827	2.962	0.520
1083.000	633.266	80.006	19.993	103.818	19.825	3.124	0.482
1084.500	634.057	80.006	19.994	103.818	19.821	3.401	0.525
1086.000	634.857	80.006	19.996	103.819	19.825	3.150	0.551
1087.500	635.660	80.005	19.994	103.812	19.823	3.247	0.536
1089.000	636.419	80.004	19.995	103.805	19.822	3.306	0.515
1090.501	637.177	80.005	19.994	103.800	19.825	3.108	0.501
1092.000	637.995	80.003	19.995	103.808	19.824	3.222	0.545
1093.501	638.766	80.004	19.994	103.815	19.820	3.450	0.516
1095.000	639.546	80.006	19.994	103.806	19.822	3.339	0.517
1096.501	640.288	80.005	19.994	103.808	19.825	3.093	0.511
1098.001	641.011	80.006	19.994	103.804	19.827	2.933	0.502
1099.500	641.806	80.005	19.992	103.803	19.823	3.261	0.543
1101.001	642.561	80.006	19.993	103.816	19.824	3.173	0.496
1102.500	643.304	80.006	19.995	103.833	19.825	3.118	0.500
1104.000	644.030	80.005	19.994	103.819	19.826	3.077	0.455
1105.500	644.807	80.006	19.993	103.815	19.822	3.343	0.530
1107.000	645.543	80.005	19.993	103.809	19.830	2.751	0.502
1108.500	646.305	80.005	19.993	103.805	19.825	3.112	0.494
1110.000	647.064	80.007	19.994	103.802	19.827	2.968	0.531
1111.500	647.821	80.006	19.996	103.820	19.826	3.053	0.500
1113.000	648.591	80.006	19.994	103.822	19.829	2.816	0.496
1114.500	649.312	80.007	19.994	103.815	19.827	3.000	0.499
1116.001	650.082	80.004	19.995	103.827	19.825	3.106	0.516
1117.500	650.801	80.004	19.995	103.830	19.827	3.002	0.463
1119.000	651.556	80.006	19.993	103.828	19.824	3.175	0.513
1120.501	652.337	80.004	19.994	103.825	19.825	3.094	0.530
1122.000	653.105	80.007	19.994	103.812	19.826	3.071	0.481
1123.500	653.848	80.005	19.995	103.818	19.828	2.866	0.510
1125.000	654.624	80.005	19.993	103.820	19.827	2.974	0.510
1126.501	655.373	80.005	19.993	103.821	19.824	3.197	0.508
1128.000	656.074	80.005	19.995	103.810	19.827	2.952	0.486
1129.501	656.817	80.006	19.993	103.814	19.824	3.176	0.501
1131.000	657.575	80.006	19.993	103.826	19.824	3.179	0.494
1132.500	658.304	80.006	19.994	103.818	19.825	3.087	0.506
1134.000	659.051	80.008	19.994	103.814	19.823	3.237	0.496
1135.500	659.808	80.007	19.994	103.815	19.829	2.823	0.501
1137.000	660.537	80.008	19.994	103.830	19.826	3.060	0.481
1138.500	661.319	80.007	19.993	103.824	19.826	3.069	0.519
1140.000	662.021	80.009	19.993	103.810	19.825	3.120	0.484
1141.500	662.767	80.008	19.993	103.824	19.825	3.115	0.495
1143.001	663.490	80.007	19.994	103.820	19.827	2.996	0.497
1144.501	664.207	80.007	19.994	103.805	19.825	3.098	0.486
1146.001	664.940	80.007	19.994	103.787	19.824	3.182	0.484
1147.500	665.660	80.006	19.994	103.786	19.826	3.061	0.473
1149.000	666.397	80.006	19.994	103.828	19.823	3.286	0.480
1150.501	667.155	80.007	19.993	103.815	19.826	3.015	0.525
1152.000	667.884	80.007	19.994	103.801	19.825	3.132	0.503
1153.500	668.606	80.005	19.994	103.815	19.825	3.081	0.480
1155.000	669.388	80.005	19.995	103.827	19.826	3.026	0.495
1156.500	670.118	80.007	19.995	103.811	19.825	3.119	0.496
1158.001	670.874	80.009	19.994	103.811	19.822	3.320	0.529
1159.500	671.638	80.009	19.994	103.827	19.825	3.148	0.493
1161.000	672.383	80.008	19.994	103.829	19.823	3.254	0.520
1162.500	673.175	80.009	19.994	103.829	19.824	3.183	0.522
1164.000	673.935	80.009	19.994	103.819	19.822	3.312	0.495
1165.500	674.695	80.007	19.994	103.804	19.826	3.037	0.507
1167.000	675.533	80.007	19.992	103.797	19.818	3.658	0.536
1168.500	676.288	80.007	19.994	103.805	19.823	3.283	0.495
1170.000	677.058	80.004	19.994	103.813	19.821	3.449	0.524
1171.501	677.832	80.005	19.995	103.826	19.823	3.274	0.494
1173.001	678.578	80.005	19.994	103.829	19.824	3.162	0.514
1174.500	679.366	80.006	19.994	103.824	19.823	3.284	0.506
1176.000	680.128	80.005	19.995	103.763	19.824	3.207	0.504
1177.501	680.912	80.005	19.994	103.755	19.825	3.132	0.513
1179.000	681.697	80.005	19.994	103.848	19.824	3.223	0.533
1180.500	682.482	80.003	19.996	103.853	19.825	3.124	0.505
1182.001	683.253	80.004	19.995	103.811	19.826	3.079	0.533
1183.501	684.061	80.005	19.995	103.802	19.823	3.273	0.556
1185.000	684.833	80.003	19.995	103.802	19.822	3.306	0.520
1186.500	685.617	80.004	19.995	103.808	19.823	3.274	0.526
1188.000	686.392	80.004	19.995	103.800	19.822	3.375	0.500
1189.500	687.231	80.005	19.996	103.802	19.824	3.201	0.580
1191.001	687.974	80.005	19.995	103.812	19.823	3.251	0.493
1192.500	688.838	80.006	19.994	103.814	19.823	3.251	0.548
1194.000	689.607	80.006	19.994	103.804	19.825	3.091	0.507
1195.500	690.436	80.006	19.994	103.803	19.824	3.168	0.542
1197.000	691.183	80.006	19.994	103.810	19.822	3.335	0.484
1198.500	691.992	80.007	19.994	103.805	19.832	2.601	0.539
1200.000	692.760	80.006	19.994	103.813	19.821	3.436	0.499
1201.500	693.559	80.005	19.994	103.808	19.820	3.482	0.543
1203.000	694.383	80.005	19.994	103.809	19.821	3.397	0.552
1204.500	695.185	80.005	19.994	103.807	19.821	3.416	0.519
1206.000	695.960	80.004	19.994	103.814	19.823	3.300	0.518
1207.500	696.750	80.004	19.994	103.816	19.826	3.047	0.552
1209.000	697.560	80.004	19.995	103.814	19.820	3.472	0.538
1210.500	698.327	80.006	19.994	103.820	19.822	3.355	0.548
1212.000	699.134	80.006	19.994	103.811	19.823	3.229	0.567
1213.500	699.921	80.006	19.994	103.817	19.819	3.561	0.514
1215.000	700.673	80.006	19.994	103.814	19.823	3.261	0.504
1216.500	701.461	80.006	19.994	103.809	19.823	3.253	0.521
1218.000	702.180	80.007	19.994	103.813	19.823	3.264	0.475
1219.501	703.004	80.008	19.994	103.800	19.821	3.448	0.556
1221.001	703.727	80.008	19.994	103.801	19.820	3.482	0.515
1222.501	704.511	80.008	19.994	103.809	19.818	3.599	0.535
1224.000	705.289	80.008	19.994	103.806	19.822	3.355	0.512
1225.500	706.050	80.007	19.993	103.806	19.823	3.288	0.503
1227.000	706.800	80.007	19.994	103.804	19.822	3.339	0.537
1228.500	707.576	80.008	19.993	103.819	19.822	3.361	0.486
1230.000	708.356	80.006	19.994	103.821	19.819	3.570	0.516
1231.500	709.100	80.007	19.994	103.812	19.822	3.367	0.499
1233.000	709.835	80.006	19.994	103.823	19.822	3.365	0.497
1234.500	710.581	80.006	19.993	103.822	19.824	3.183	0.471
1236.000	711.348	80.008	19.993	103.810	19.821	3.379	0.526
1237.500	712.098	80.007	19.993	103.815	19.821	3.388	0.507
1239.000	712.848	80.007	19.993	103.818	19.819	3.557	0.503
1240.500	713.585	80.007	19.993	103.831	19.820	3.462	0.501
1242.000	714.358	80.008	19.994	103.822	19.819	3.555	0.515
1243.501	715.129	80.008	19.994	103.818	19.814	3.898	0.511
1245.000	715.855	80.009	19.994	103.826	19.816	3.803	0.502
1246.500	716.624	80.008	19.994	103.826	19.817	3.710	0.514
1248.000	717.401	80.008	19.994	103.770	19.816	3.787	0.515
1249.500	718.112	80.007	19.994	103.780	19.815	3.842	0.472
1251.000	718.879	80.007	19.994	103.863	19.815	3.878	0.508
1252.500	719.634	80.006	19.995	103.870	19.817	3.740	0.509
1254.000	720.399	80.005	19.994	103.815	19.817	3.707	0.512
1255.500	721.147	80.006	19.994	103.811	19.820	3.502	0.492
1257.001	721.888	80.005	19.994	103.815	19.821	3.393	0.515
1258.500	722.619	80.006	19.995	103.814	19.818	3.643	0.464
1260.000	723.432	80.006	19.994	103.818	19.818	3.622	0.534
1261.500	724.121	80.005	19.995	103.827	19.818	3.636	0.462
1263.001	724.881	80.007	19.995	103.815	19.817	3.721	0.494
1264.500	725.643	80.005	19.994	103.798	19.815	3.886	0.494
1266.000	726.386	80.006	19.993	103.800	19.820	3.454	0.487
1267.500	727.181	80.008	19.994	103.805	19.820	3.493	0.543
1269.001	727.928	80.006	19.995	103.817	19.819	3.568	0.509
1270.500	728.718	80.006	19.995	103.810	19.818	3.651	0.513
1272.000	729.446	80.007	19.994	103.802	19.820	3.478	0.492
1273.500	730.214	80.005	19.995	103.804	19.818	3.666	0.508
1275.000	730.979	80.006	19.995	103.814	19.818	3.651	0.486
1276.500	731.704	80.006	19.996	103.820	19.815	3.829	0.492
1278.000	732.464	80.006	19.995	103.813	19.816	3.769	0.526
1279.500	733.209	80.005	19.995	103.826	19.818	3.623	0.519
1281.000	734.003	80.004	19.996	103.829	19.816	3.760	0.536
1282.500	734.781	80.003	19.996	103.814	19.814	3.963	0.530
1284.001	735.511	80.005	19.996	103.801	19.816	3.809	0.475
1285.501	736.263	80.004	19.996	103.752	19.818	3.630	0.509
1287.001	737.009	80.006	19.996	103.781	19.818	3.610	0.522
1288.501	737.723	80.005	19.994	103.868	19.820	3.503	0.462
1290.000	738.496	80.005	19.995	103.863	19.816	3.792	0.496
1291.500	739.273	80.005	19.996	103.814	19.816	3.780	0.503
1293.001	740.048	80.006	19.995	103.822	19.814	3.957	0.528
1294.500	740.792	80.005	19.994	103.812	19.814	3.924	0.513
1296.000	741.522	80.006	19.995	103.804	19.817	3.734	0.499
1297.500	742.298	80.007	19.995	103.802	19.816	3.784	0.511
1299.000	743.091	80.007	19.993	103.814	19.816	3.764	0.522
1300.000	743.595	80.006	19.994	103.812	19.816	3.766	0.501