File: 01_Data/PLA_3D_Printer_Filament/MCC/PLA_3D_Printer_Filament_MCC_30K_min_220217_R3.txt
Sample ID:	C:\MCC\MCC Cal\Test\PLA_3D_Printer_Filament_MCC_30K_min_220217_R3.txt
Sample Weight (mg):	4.45
Heating Rate (C/s):	0.5
Combustor Temp (C):	900
N2 Flow Rate (cc/min):	80
O2 Flow Rate (cc/min):	20
Calibration File:	C:\MCC\MCC Cal\Coeff1 JN10440_30_210304.txt.txt
T Correction Coefficients:	0	1.024463	0
Time Shift (s):	14
*
Time (s)	Temperature (C)	N2 flow rate (cc/min)	O2 flow rate (cc/min)	Flow Rate (cc/min)	Oxygen (%)	HRR (W/g)	Heating rate (C/s)
0.000	112.725	80.005	19.994	103.700	19.980	-0.109	0.031
1.500	112.676	80.005	19.995	103.703	19.980	-0.137	-0.013
3.000	112.743	80.003	19.994	103.694	19.981	-0.207	0.038
4.499	112.684	80.006	19.996	103.695	19.981	-0.177	-0.026
5.999	112.715	80.004	19.996	103.701	19.974	0.332	0.015
7.499	112.692	80.004	19.994	103.715	19.975	0.227	-0.020
8.999	112.755	80.005	19.995	103.742	19.974	0.348	0.035
10.499	112.757	80.006	19.994	103.751	19.973	0.356	0.028
11.999	112.799	80.006	19.995	103.772	19.968	0.773	0.008
13.499	112.845	80.005	19.993	103.794	19.967	0.809	0.025
14.999	112.895	80.006	19.994	103.836	19.960	1.326	0.038
16.499	112.926	80.008	19.994	103.850	19.954	1.743	-0.002
17.999	113.023	80.007	19.993	103.860	19.951	1.968	0.049
19.499	113.128	80.008	19.995	103.874	19.950	2.067	0.082
21.000	113.293	80.008	19.993	103.890	19.945	2.419	0.104
22.499	113.453	80.007	19.993	103.891	19.946	2.377	0.077
23.999	113.592	80.006	19.993	103.894	19.944	2.477	0.073
25.499	113.808	80.007	19.993	103.893	19.943	2.598	0.144
26.999	113.982	80.006	19.995	103.887	19.943	2.599	0.118
28.499	114.193	80.004	19.994	103.887	19.944	2.529	0.107
29.999	114.421	80.006	19.994	103.885	19.944	2.478	0.129
31.499	114.700	80.005	19.995	103.894	19.945	2.438	0.183
32.999	114.959	80.004	19.994	103.904	19.942	2.677	0.179
34.499	115.191	80.005	19.994	103.896	19.941	2.750	0.185
35.999	115.517	80.004	19.994	103.900	19.936	3.058	0.229
37.499	115.745	80.005	19.994	103.922	19.938	2.959	0.151
38.999	116.058	80.004	19.992	103.934	19.936	3.074	0.190
40.499	116.441	80.004	19.994	103.935	19.935	3.136	0.218
41.999	116.761	80.005	19.994	103.940	19.933	3.319	0.247
43.499	117.143	80.005	19.994	103.937	19.935	3.150	0.256
45.000	117.503	80.005	19.994	103.921	19.936	3.076	0.249
46.499	117.922	80.005	19.994	103.928	19.934	3.205	0.276
47.999	118.305	80.005	19.995	103.923	19.934	3.197	0.238
49.499	118.723	80.005	19.994	103.923	19.937	3.004	0.294
51.000	119.122	80.005	19.993	103.926	19.934	3.211	0.260
52.499	119.539	80.004	19.994	103.922	19.936	3.103	0.286
53.999	119.958	80.003	19.994	103.924	19.934	3.214	0.254
55.499	120.446	80.004	19.994	103.926	19.936	3.068	0.312
56.999	120.914	80.005	19.994	103.940	19.935	3.189	0.319
58.499	121.379	80.004	19.994	103.931	19.934	3.197	0.292
59.999	121.890	80.005	19.993	103.928	19.933	3.304	0.314
61.499	122.379	80.004	19.995	103.943	19.934	3.248	0.332
62.999	122.841	80.004	19.994	103.945	19.933	3.296	0.290
64.499	123.345	80.003	19.995	103.953	19.934	3.246	0.359
66.000	123.874	80.004	19.994	103.947	19.929	3.564	0.334
67.499	124.390	80.004	19.995	103.949	19.931	3.475	0.342
68.999	124.935	80.004	19.994	103.953	19.931	3.439	0.366
70.499	125.475	80.005	19.995	103.954	19.931	3.421	0.353
71.999	126.029	80.005	19.994	103.947	19.931	3.421	0.375
73.499	126.565	80.004	19.994	103.944	19.931	3.461	0.349
74.999	127.128	80.005	19.994	103.950	19.929	3.586	0.375
76.499	127.645	80.006	19.994	103.950	19.933	3.334	0.332
77.999	128.218	80.006	19.994	103.954	19.928	3.649	0.378
79.499	128.822	80.006	19.996	103.952	19.931	3.467	0.401
80.999	129.401	80.005	19.994	103.952	19.930	3.534	0.376
82.499	130.026	80.006	19.994	103.952	19.932	3.365	0.436
84.000	130.615	80.007	19.994	103.950	19.929	3.576	0.390
85.500	131.229	80.005	19.994	103.950	19.931	3.479	0.400
86.999	131.824	80.005	19.995	103.954	19.932	3.403	0.400
88.499	132.494	80.006	19.995	103.952	19.928	3.659	0.440
89.999	133.049	80.006	19.994	103.952	19.928	3.655	0.386
91.499	133.698	80.006	19.995	103.952	19.932	3.402	0.447
92.999	134.333	80.006	19.996	103.963	19.928	3.681	0.430
94.500	134.984	80.006	19.995	103.959	19.929	3.600	0.466
95.999	135.625	80.006	19.995	103.954	19.927	3.735	0.435
97.499	136.296	80.007	19.994	103.962	19.927	3.713	0.454
98.999	136.945	80.007	19.995	103.965	19.926	3.796	0.438
100.499	137.614	80.008	19.995	103.954	19.930	3.556	0.457
101.999	138.298	80.007	19.994	103.972	19.929	3.572	0.474
103.499	138.974	80.008	19.995	103.980	19.929	3.582	0.456
104.999	139.611	80.008	19.996	103.961	19.932	3.395	0.392
106.499	140.341	80.007	19.994	103.955	19.932	3.375	0.484
107.999	141.016	80.004	19.995	103.953	19.928	3.669	0.441
109.499	141.639	80.005	19.995	103.953	19.932	3.388	0.406
110.999	142.361	80.004	19.995	103.951	19.926	3.831	0.481
112.499	143.139	80.005	19.993	103.954	19.927	3.712	0.514
113.999	143.801	80.005	19.993	103.954	19.923	4.027	0.441
115.499	144.515	80.004	19.993	103.950	19.928	3.667	0.471
116.999	145.212	80.005	19.993	103.951	19.925	3.866	0.462
118.499	145.929	80.005	19.993	103.952	19.929	3.598	0.483
119.999	146.653	80.005	19.993	103.942	19.928	3.669	0.514
121.500	147.353	80.005	19.994	103.939	19.928	3.672	0.461
122.999	148.103	80.004	19.994	103.940	19.930	3.540	0.515
124.500	148.795	80.005	19.994	103.940	19.930	3.511	0.476
126.000	149.489	80.005	19.994	103.953	19.929	3.600	0.467
127.499	150.228	80.006	19.994	103.953	19.931	3.483	0.484
129.000	150.933	80.006	19.995	103.952	19.929	3.600	0.458
130.500	151.703	80.005	19.994	103.953	19.932	3.346	0.502
132.000	152.452	80.005	19.994	103.949	19.928	3.650	0.511
133.500	153.213	80.006	19.995	103.948	19.931	3.433	0.496
135.000	153.941	80.005	19.994	103.949	19.932	3.387	0.498
136.500	154.673	80.005	19.995	103.950	19.929	3.610	0.509
138.000	155.417	80.004	19.994	103.945	19.929	3.618	0.501
139.500	156.147	80.005	19.995	103.947	19.928	3.676	0.525
141.000	156.884	80.004	19.994	103.953	19.929	3.624	0.513
142.500	157.625	80.005	19.994	103.948	19.928	3.644	0.490
144.000	158.343	80.005	19.994	103.940	19.929	3.594	0.484
145.500	159.172	80.006	19.994	103.944	19.929	3.599	0.563
147.000	159.803	80.006	19.994	103.950	19.929	3.579	0.441
148.500	160.571	80.006	19.994	103.952	19.928	3.656	0.525
150.000	161.335	80.006	19.994	103.943	19.928	3.649	0.519
151.500	162.054	80.006	19.994	103.944	19.927	3.746	0.458
153.000	162.771	80.006	19.994	103.950	19.928	3.635	0.460
154.500	163.524	80.007	19.994	103.950	19.931	3.450	0.501
156.000	164.292	80.006	19.994	103.932	19.929	3.601	0.477
157.500	165.026	80.005	19.994	103.918	19.932	3.348	0.489
159.000	165.807	80.006	19.994	103.923	19.930	3.496	0.520
160.500	166.526	80.006	19.995	103.920	19.932	3.380	0.477
162.000	167.275	80.007	19.994	103.912	19.929	3.559	0.499
163.500	168.014	80.006	19.995	103.913	19.931	3.441	0.472
165.000	168.748	80.006	19.994	103.918	19.930	3.491	0.491
166.500	169.523	80.006	19.994	103.914	19.932	3.385	0.526
168.000	170.252	80.006	19.995	103.923	19.928	3.673	0.486
169.500	171.000	80.005	19.995	103.918	19.929	3.577	0.514
171.000	171.747	80.004	19.995	103.920	19.930	3.501	0.501
172.500	172.486	80.007	19.995	103.925	19.928	3.660	0.490
174.000	173.228	80.008	19.994	103.940	19.932	3.378	0.511
175.500	174.011	80.006	19.994	103.945	19.934	3.216	0.528
177.000	174.733	80.007	19.994	103.949	19.933	3.267	0.501
178.500	175.481	80.007	19.993	103.950	19.932	3.388	0.485
180.000	176.223	80.008	19.993	103.939	19.928	3.681	0.490
181.500	176.967	80.007	19.994	103.937	19.932	3.377	0.502
183.000	177.686	80.007	19.994	103.946	19.931	3.430	0.498
184.500	178.425	80.006	19.994	103.927	19.933	3.291	0.497
186.000	179.193	80.008	19.995	103.915	19.933	3.279	0.530
187.500	179.954	80.005	19.994	103.914	19.930	3.490	0.514
189.000	180.656	80.004	19.994	103.914	19.933	3.303	0.487
190.500	181.448	80.004	19.995	103.912	19.931	3.448	0.516
192.000	182.172	80.004	19.995	103.913	19.933	3.331	0.477
193.500	182.906	80.003	19.995	103.912	19.933	3.291	0.480
195.000	183.665	80.005	19.994	103.912	19.933	3.333	0.517
196.500	184.357	80.003	19.994	103.912	19.933	3.321	0.484
198.000	185.144	80.003	19.994	103.912	19.930	3.508	0.510
199.500	185.899	80.003	19.996	103.913	19.932	3.385	0.524
201.000	186.664	80.003	19.995	103.913	19.933	3.317	0.512
202.500	187.411	80.006	19.995	103.912	19.935	3.188	0.500
204.000	188.151	80.004	19.994	103.911	19.935	3.156	0.507
205.500	188.920	80.005	19.993	103.909	19.932	3.363	0.514
207.000	189.656	80.005	19.993	103.911	19.933	3.313	0.475
208.500	190.388	80.004	19.994	103.910	19.934	3.228	0.502
210.000	191.172	80.004	19.993	103.903	19.934	3.249	0.526
211.500	191.949	80.005	19.993	103.903	19.932	3.357	0.524
213.000	192.652	80.005	19.994	103.911	19.935	3.192	0.486
214.500	193.423	80.006	19.993	103.912	19.932	3.343	0.518
216.000	194.165	80.006	19.995	103.908	19.933	3.267	0.495
217.500	194.936	80.005	19.994	103.908	19.932	3.347	0.504
219.000	195.645	80.004	19.993	103.912	19.932	3.393	0.474
220.500	196.395	80.004	19.994	103.912	19.933	3.280	0.494
222.000	197.173	80.003	19.995	103.911	19.934	3.198	0.531
223.500	197.866	80.005	19.995	103.910	19.934	3.228	0.469
225.000	198.640	80.004	19.993	103.911	19.935	3.167	0.531
226.500	199.391	80.004	19.994	103.909	19.935	3.122	0.491
228.000	200.124	80.004	19.994	103.907	19.939	2.872	0.496
229.500	200.839	80.004	19.994	103.901	19.937	2.997	0.459
231.000	201.584	80.005	19.994	103.896	19.938	2.938	0.505
232.500	202.334	80.005	19.994	103.898	19.935	3.121	0.512
234.000	203.127	80.005	19.994	103.892	19.938	2.908	0.523
235.500	203.860	80.006	19.993	103.890	19.936	3.067	0.486
237.000	204.614	80.005	19.994	103.902	19.939	2.878	0.502
238.500	205.329	80.006	19.993	103.904	19.938	2.918	0.478
240.000	206.102	80.006	19.994	103.905	19.938	2.918	0.496
241.500	206.869	80.008	19.994	103.901	19.939	2.856	0.490
243.000	207.589	80.007	19.994	103.895	19.934	3.218	0.504
244.500	208.357	80.006	19.994	103.881	19.936	3.081	0.503
246.000	209.094	80.006	19.994	103.891	19.935	3.156	0.491
247.500	209.849	80.004	19.994	103.893	19.937	3.027	0.513
249.000	210.583	80.007	19.994	103.903	19.936	3.101	0.480
250.500	211.341	80.005	19.993	103.910	19.935	3.176	0.516
252.000	212.076	80.006	19.993	103.902	19.937	3.023	0.505
253.500	212.798	80.005	19.994	103.894	19.937	3.033	0.494
255.000	213.540	80.006	19.996	103.892	19.933	3.276	0.489
256.500	214.298	80.006	19.994	103.893	19.937	3.010	0.499
258.000	215.056	80.006	19.994	103.904	19.936	3.111	0.497
259.500	215.778	80.006	19.995	103.899	19.939	2.894	0.497
261.000	216.528	80.006	19.994	103.902	19.937	2.980	0.527
262.500	217.238	80.007	19.994	103.897	19.936	3.083	0.470
264.000	217.979	80.007	19.994	103.888	19.940	2.801	0.500
265.500	218.759	80.006	19.994	103.891	19.939	2.895	0.519
267.000	219.484	80.007	19.993	103.892	19.937	3.002	0.478
268.500	220.217	80.007	19.993	103.888	19.939	2.866	0.487
270.000	220.967	80.006	19.994	103.890	19.939	2.893	0.489
271.500	221.674	80.005	19.993	103.898	19.938	2.970	0.444
273.000	222.432	80.005	19.993	103.883	19.939	2.895	0.492
274.500	223.207	80.004	19.993	103.884	19.938	2.934	0.505
276.000	223.949	80.005	19.995	103.881	19.941	2.734	0.507
277.500	224.702	80.004	19.994	103.889	19.939	2.882	0.489
279.000	225.431	80.004	19.995	103.895	19.938	2.944	0.501
280.500	226.164	80.006	19.993	103.879	19.939	2.835	0.487
282.000	226.911	80.004	19.995	103.878	19.937	3.011	0.477
283.500	227.658	80.004	19.995	103.877	19.939	2.896	0.480
285.000	228.419	80.003	19.994	103.878	19.935	3.183	0.494
286.500	229.202	80.004	19.995	103.875	19.942	2.672	0.500
288.000	229.957	80.003	19.994	103.883	19.938	2.921	0.510
289.500	230.723	80.004	19.994	103.887	19.939	2.859	0.512
291.000	231.423	80.005	19.994	103.878	19.942	2.680	0.460
292.500	232.157	80.003	19.995	103.891	19.941	2.702	0.480
294.000	232.923	80.004	19.994	103.893	19.937	2.980	0.490
295.500	233.629	80.005	19.993	103.875	19.940	2.819	0.455
297.000	234.399	80.007	19.995	103.872	19.932	3.340	0.520
298.500	235.138	80.007	19.994	103.872	19.939	2.861	0.501
300.000	235.911	80.006	19.994	103.877	19.937	3.008	0.503
301.500	236.667	80.005	19.994	103.878	19.936	3.089	0.503
303.000	237.370	80.006	19.993	103.880	19.937	2.984	0.467
304.500	238.141	80.005	19.994	103.873	19.938	2.966	0.501
306.000	238.924	80.005	19.994	103.871	19.938	2.909	0.530
307.500	239.598	80.005	19.994	103.874	19.938	2.968	0.471
309.000	240.357	80.005	19.995	103.874	19.942	2.666	0.482
310.500	241.068	80.003	19.994	103.874	19.941	2.738	0.470
312.000	241.828	80.005	19.993	103.876	19.935	3.123	0.510
313.500	242.619	80.005	19.993	103.877	19.938	2.960	0.510
315.000	243.357	80.005	19.994	103.877	19.939	2.891	0.513
316.500	244.079	80.006	19.993	103.876	19.939	2.893	0.476
318.000	244.830	80.007	19.993	103.873	19.939	2.835	0.494
319.500	245.597	80.007	19.995	103.874	19.936	3.078	0.514
321.000	246.349	80.006	19.994	103.877	19.934	3.243	0.473
322.500	247.088	80.007	19.995	103.874	19.939	2.887	0.479
324.000	247.789	80.007	19.994	103.875	19.936	3.070	0.471
325.500	248.546	80.006	19.994	103.877	19.939	2.899	0.512
327.000	249.340	80.006	19.993	103.876	19.938	2.922	0.520
328.500	250.101	80.006	19.993	103.874	19.939	2.843	0.500
330.000	250.900	80.007	19.992	103.874	19.940	2.813	0.511
331.500	251.645	80.005	19.992	103.876	19.940	2.760	0.508
333.000	252.357	80.006	19.993	103.878	19.938	2.939	0.454
334.500	253.129	80.005	19.993	103.877	19.936	3.110	0.515
336.000	253.844	80.006	19.993	103.875	19.936	3.072	0.477
337.500	254.622	80.005	19.992	103.875	19.940	2.783	0.535
339.000	255.367	80.006	19.992	103.876	19.938	2.954	0.498
340.500	256.123	80.007	19.994	103.879	19.937	2.980	0.518
342.000	256.867	80.007	19.993	103.877	19.936	3.104	0.511
343.500	257.661	80.007	19.992	103.870	19.937	2.980	0.529
345.000	258.433	80.007	19.994	103.870	19.935	3.122	0.501
346.500	259.201	80.008	19.993	103.866	19.934	3.203	0.502
348.000	259.890	80.006	19.993	103.871	19.934	3.205	0.463
349.500	260.629	80.006	19.993	103.873	19.936	3.094	0.482
351.000	261.406	80.007	19.995	103.874	19.938	2.954	0.515
352.500	262.194	80.005	19.994	103.871	19.935	3.163	0.506
354.000	262.910	80.004	19.994	103.870	19.937	3.012	0.470
355.500	263.669	80.003	19.994	103.870	19.936	3.062	0.496
357.000	264.436	80.004	19.995	103.868	19.937	2.999	0.523
358.500	265.154	80.006	19.995	103.870	19.937	3.006	0.477
360.000	265.904	80.005	19.994	103.869	19.937	2.974	0.495
361.500	266.701	80.004	19.994	103.873	19.936	3.090	0.534
363.000	267.457	80.005	19.993	103.872	19.936	3.100	0.526
364.500	268.196	80.005	19.994	103.871	19.934	3.205	0.493
366.000	268.923	80.005	19.994	103.864	19.935	3.181	0.468
367.500	269.736	80.005	19.993	103.855	19.934	3.219	0.539
369.000	270.483	80.005	19.995	103.864	19.934	3.241	0.483
370.500	271.234	80.005	19.994	103.866	19.933	3.298	0.508
372.000	272.013	80.005	19.994	103.868	19.930	3.515	0.506
373.500	272.720	80.005	19.995	103.873	19.930	3.501	0.474
375.000	273.485	80.005	19.995	103.868	19.925	3.889	0.493
376.500	274.231	80.004	19.995	103.869	19.931	3.455	0.497
378.000	274.991	80.006	19.995	103.874	19.926	3.819	0.506
379.500	275.752	80.003	19.997	103.874	19.929	3.565	0.514
381.000	276.521	80.003	19.995	103.879	19.929	3.628	0.497
382.500	277.272	80.004	19.995	103.874	19.928	3.690	0.512
384.000	278.003	80.003	19.995	103.868	19.927	3.742	0.496
385.500	278.758	80.003	19.995	103.868	19.927	3.704	0.486
387.000	279.542	80.004	19.996	103.875	19.926	3.780	0.522
388.500	280.203	80.004	19.995	103.868	19.926	3.786	0.446
390.000	281.015	80.003	19.995	103.868	19.925	3.877	0.542
391.500	281.739	80.002	19.995	103.876	19.925	3.881	0.483
393.000	282.501	80.004	19.994	103.875	19.926	3.785	0.510
394.500	283.268	80.004	19.994	103.874	19.925	3.885	0.505
396.000	283.968	80.005	19.994	103.866	19.924	3.962	0.485
397.500	284.766	80.005	19.994	103.861	19.921	4.141	0.539
399.000	285.486	80.006	19.993	103.862	19.923	4.060	0.495
400.500	286.242	80.006	19.994	103.872	19.919	4.287	0.497
402.000	286.997	80.008	19.994	103.877	19.920	4.227	0.508
403.500	287.759	80.006	19.994	103.874	19.917	4.438	0.512
405.000	288.527	80.006	19.994	103.871	19.919	4.287	0.499
406.500	289.265	80.006	19.995	103.871	19.918	4.364	0.480
408.000	289.991	80.006	19.994	103.870	19.918	4.398	0.512
409.500	290.768	80.007	19.994	103.869	19.917	4.444	0.510
411.000	291.519	80.005	19.994	103.871	19.915	4.635	0.486
412.500	292.297	80.005	19.995	103.870	19.912	4.837	0.501
414.000	292.993	80.005	19.994	103.866	19.911	4.873	0.476
415.500	293.760	80.005	19.995	103.867	19.913	4.750	0.501
417.000	294.513	80.004	19.993	103.873	19.908	5.134	0.509
418.500	295.238	80.006	19.994	103.872	19.907	5.183	0.469
420.000	295.967	80.007	19.993	103.872	19.903	5.483	0.479
421.500	296.714	80.006	19.993	103.870	19.901	5.662	0.479
423.000	297.469	80.007	19.994	103.870	19.898	5.838	0.516
424.500	298.204	80.007	19.994	103.870	19.901	5.623	0.492
426.000	298.971	80.007	19.993	103.871	19.898	5.882	0.514
427.500	299.651	80.010	19.994	103.868	19.896	5.982	0.467
429.000	300.431	80.008	19.993	103.870	19.889	6.526	0.520
430.500	301.169	80.006	19.994	103.873	19.890	6.459	0.479
432.000	301.942	80.007	19.994	103.868	19.891	6.362	0.507
433.500	302.622	80.007	19.995	103.862	19.885	6.817	0.475
435.000	303.399	80.007	19.994	103.866	19.883	6.925	0.506
436.500	304.167	80.006	19.993	103.878	19.878	7.280	0.515
438.000	304.878	80.005	19.994	103.883	19.878	7.314	0.476
439.500	305.664	80.006	19.994	103.880	19.871	7.828	0.497
441.000	306.403	80.005	19.995	103.890	19.869	7.937	0.499
442.500	307.172	80.003	19.994	103.878	19.864	8.353	0.491
444.000	307.886	80.006	19.994	103.874	19.858	8.744	0.474
445.500	308.651	80.004	19.994	103.875	19.855	8.991	0.515
447.000	309.411	80.003	19.995	103.875	19.851	9.277	0.522
448.500	310.120	80.004	19.994	103.876	19.845	9.714	0.474
450.000	310.912	80.005	19.995	103.890	19.841	10.013	0.513
451.500	311.669	80.004	19.994	103.903	19.836	10.342	0.506
453.000	312.406	80.005	19.994	103.890	19.832	10.652	0.510
454.500	313.194	80.005	19.995	103.893	19.827	11.026	0.529
456.000	313.922	80.005	19.994	103.906	19.820	11.512	0.491
457.500	314.706	80.005	19.994	103.913	19.810	12.238	0.526
459.000	315.451	80.004	19.993	103.915	19.804	12.676	0.505
460.500	316.197	80.004	19.995	103.914	19.799	13.095	0.495
462.000	316.931	80.004	19.994	103.903	19.795	13.337	0.494
463.500	317.769	80.004	19.994	103.897	19.787	13.912	0.535
465.000	318.495	80.004	19.994	103.905	19.778	14.593	0.486
466.500	319.259	80.003	19.996	103.918	19.771	15.130	0.515
468.000	320.029	80.003	19.995	103.928	19.762	15.780	0.508
469.500	320.785	80.005	19.994	103.941	19.753	16.449	0.500
471.000	321.560	80.004	19.996	103.933	19.742	17.250	0.530
472.500	322.352	80.004	19.996	103.926	19.727	18.287	0.523
474.000	323.102	80.004	19.996	103.938	19.711	19.479	0.482
475.500	323.854	80.003	19.996	103.945	19.700	20.273	0.477
477.000	324.608	80.004	19.995	103.945	19.683	21.510	0.504
478.500	325.419	80.005	19.994	103.942	19.675	22.144	0.528
480.000	326.168	80.005	19.995	103.944	19.669	22.562	0.501
481.500	326.917	80.006	19.994	103.945	19.654	23.612	0.485
483.000	327.675	80.007	19.995	103.945	19.637	24.884	0.486
484.500	328.434	80.006	19.995	103.978	19.618	26.275	0.513
486.000	329.182	80.007	19.994	103.997	19.595	27.971	0.508
487.500	329.952	80.006	19.993	104.011	19.574	29.484	0.482
489.000	330.684	80.007	19.995	104.003	19.553	31.040	0.493
490.500	331.486	80.006	19.994	103.993	19.533	32.522	0.534
492.000	332.245	80.006	19.994	103.993	19.509	34.246	0.498
493.500	332.998	80.006	19.994	103.998	19.481	36.306	0.511
495.000	333.733	80.005	19.994	104.001	19.457	38.039	0.504
496.500	334.532	80.006	19.993	104.036	19.434	39.761	0.529
498.000	335.280	80.007	19.995	104.057	19.405	41.843	0.476
499.500	336.020	80.007	19.994	104.068	19.371	44.382	0.481
501.000	336.763	80.007	19.994	104.085	19.332	47.232	0.496
502.500	337.523	80.007	19.995	104.110	19.299	49.605	0.503
504.000	338.286	80.008	19.993	104.113	19.270	51.785	0.525
505.500	339.087	80.008	19.995	104.105	19.242	53.820	0.534
507.000	339.813	80.007	19.994	104.102	19.203	56.682	0.498
508.500	340.547	80.006	19.993	104.115	19.166	59.366	0.488
510.000	341.342	80.007	19.994	104.147	19.129	62.107	0.526
511.500	342.091	80.008	19.995	104.182	19.092	64.847	0.504
513.000	342.835	80.008	19.993	104.210	19.053	67.656	0.502
514.500	343.601	80.006	19.994	104.205	19.012	70.691	0.494
516.000	344.375	80.006	19.993	104.218	18.964	74.197	0.505
517.500	345.111	80.005	19.995	104.256	18.915	77.851	0.484
519.000	345.901	80.004	19.994	104.282	18.866	81.468	0.531
520.500	346.685	80.006	19.993	104.300	18.809	85.609	0.533
522.000	347.417	80.006	19.994	104.303	18.754	89.676	0.478
523.500	348.118	80.005	19.992	104.337	18.695	94.006	0.474
525.000	348.925	80.004	19.994	104.337	18.637	98.326	0.538
526.500	349.706	80.005	19.993	104.367	18.581	102.434	0.539
528.000	350.439	80.004	19.994	104.378	18.518	107.015	0.501
529.500	351.205	80.006	19.992	104.412	18.451	112.016	0.508
531.000	351.977	80.005	19.993	104.434	18.383	116.994	0.505
532.500	352.732	80.006	19.994	104.478	18.321	121.600	0.493
534.000	353.538	80.004	19.993	104.494	18.250	126.813	0.513
535.500	354.294	80.005	19.996	104.514	18.176	132.309	0.514
537.000	355.044	80.005	19.995	104.538	18.102	137.725	0.506
538.500	355.798	80.005	19.994	104.545	18.027	143.280	0.503
540.000	356.534	80.006	19.995	104.592	17.951	148.883	0.487
541.500	357.273	80.006	19.993	104.609	17.878	154.282	0.496
543.000	358.058	80.006	19.995	104.616	17.800	160.136	0.522
544.500	358.781	80.003	19.995	104.646	17.727	165.500	0.500
546.000	359.507	80.005	19.994	104.681	17.653	170.862	0.490
547.500	360.257	80.005	19.994	104.678	17.577	176.519	0.490
549.000	360.989	80.006	19.994	104.724	17.503	182.012	0.491
550.500	361.738	80.005	19.995	104.753	17.430	187.366	0.501
552.000	362.486	80.006	19.994	104.767	17.359	192.538	0.511
553.500	363.247	80.006	19.993	104.808	17.285	198.007	0.508
555.000	363.967	80.006	19.993	104.834	17.218	202.958	0.480
556.500	364.748	80.007	19.993	104.819	17.153	207.712	0.534
558.000	365.514	80.005	19.995	104.831	17.087	212.486	0.514
559.500	366.242	80.007	19.995	104.862	17.027	216.896	0.488
561.000	367.009	80.005	19.995	104.861	16.973	220.833	0.505
562.500	367.733	80.007	19.994	104.854	16.922	224.520	0.492
564.000	368.488	80.006	19.995	104.844	16.882	227.432	0.512
565.500	369.290	80.005	19.995	104.860	16.846	229.982	0.544
567.000	369.981	80.005	19.995	104.858	16.820	231.835	0.477
568.500	370.800	80.005	19.996	104.826	16.808	232.698	0.518
570.000	371.568	80.006	19.995	104.817	16.804	232.966	0.545
571.500	372.325	80.005	19.995	104.798	16.809	232.531	0.499
573.000	373.090	80.005	19.995	104.779	16.827	231.147	0.496
574.500	373.877	80.003	19.994	104.769	16.855	229.003	0.498
576.000	374.648	80.005	19.994	104.749	16.897	225.865	0.502
577.500	375.441	80.004	19.994	104.718	16.942	222.450	0.532
579.000	376.234	80.005	19.995	104.696	17.008	217.544	0.501
580.500	377.013	80.005	19.993	104.672	17.079	212.297	0.541
582.000	377.775	80.007	19.992	104.641	17.156	206.503	0.488
583.500	378.570	80.005	19.993	104.615	17.244	199.898	0.517
585.000	379.388	80.005	19.994	104.582	17.334	193.055	0.551
586.500	380.180	80.007	19.993	104.548	17.425	186.171	0.518
588.000	380.959	80.006	19.994	104.523	17.529	178.422	0.545
589.500	381.761	80.008	19.993	104.485	17.642	170.147	0.534
591.000	382.562	80.007	19.994	104.443	17.763	161.391	0.524
592.500	383.386	80.007	19.995	104.378	17.907	151.025	0.549
594.000	384.175	80.007	19.994	104.291	18.075	138.776	0.528
595.500	384.988	80.007	19.994	104.176	18.265	124.968	0.532
597.000	385.816	80.005	19.994	104.044	18.474	109.644	0.556
598.500	386.607	80.006	19.995	103.932	18.682	94.494	0.523
600.000	387.431	80.006	19.994	103.877	18.877	80.238	0.536
601.500	388.239	80.004	19.994	103.901	19.045	67.972	0.525
603.000	389.080	80.007	19.994	103.957	19.187	57.629	0.585
604.500	389.846	80.006	19.994	104.004	19.311	48.582	0.522
606.000	390.700	80.006	19.994	104.012	19.413	41.140	0.566
607.500	391.488	80.006	19.996	103.977	19.494	35.285	0.532
609.000	392.272	80.006	19.993	103.941	19.565	30.112	0.498
610.500	393.048	80.007	19.994	103.900	19.618	26.199	0.538
612.000	393.860	80.006	19.995	103.873	19.664	22.901	0.541
613.500	394.677	80.007	19.993	103.867	19.699	20.292	0.523
615.000	395.481	80.005	19.995	103.847	19.727	18.297	0.536
616.500	396.286	80.003	19.995	103.834	19.751	16.573	0.526
618.000	397.036	80.006	19.994	103.834	19.771	15.091	0.515
619.500	397.843	80.006	19.994	103.834	19.789	13.758	0.539
621.000	398.643	80.005	19.994	103.829	19.798	13.090	0.528
622.500	399.416	80.006	19.994	103.809	19.809	12.356	0.525
624.000	400.186	80.006	19.995	103.798	19.821	11.426	0.511
625.500	400.979	80.005	19.994	103.796	19.831	10.754	0.517
627.000	401.725	80.003	19.994	103.796	19.836	10.352	0.499
628.500	402.468	80.006	19.995	103.796	19.839	10.139	0.502
630.000	403.218	80.004	19.995	103.796	19.845	9.724	0.527
631.500	403.988	80.005	19.994	103.795	19.848	9.480	0.487
633.000	404.768	80.005	19.993	103.794	19.852	9.220	0.516
634.500	405.432	80.004	19.995	103.796	19.856	8.888	0.458
636.000	406.195	80.005	19.994	103.797	19.856	8.884	0.504
637.500	406.950	80.004	19.994	103.794	19.858	8.772	0.515
639.000	407.663	80.005	19.993	103.798	19.860	8.632	0.475
640.500	408.430	80.004	19.995	103.804	19.862	8.467	0.534
642.000	409.145	80.005	19.994	103.800	19.863	8.358	0.469
643.500	409.883	80.007	19.992	103.808	19.865	8.276	0.477
645.000	410.624	80.006	19.994	103.814	19.863	8.421	0.505
646.500	411.359	80.007	19.994	103.809	19.864	8.319	0.486
648.000	412.063	80.008	19.995	103.817	19.863	8.392	0.472
649.500	412.816	80.006	19.994	103.829	19.864	8.338	0.506
651.000	413.546	80.008	19.994	103.815	19.866	8.207	0.497
652.500	414.248	80.006	19.994	103.807	19.865	8.251	0.453
654.000	414.930	80.006	19.994	103.802	19.863	8.406	0.447
655.500	415.686	80.005	19.994	103.801	19.861	8.555	0.512
657.000	416.434	80.006	19.995	103.812	19.864	8.332	0.483
658.500	417.172	80.005	19.994	103.817	19.861	8.518	0.496
660.000	417.907	80.005	19.995	103.825	19.861	8.515	0.496
661.500	418.610	80.005	19.994	103.823	19.865	8.233	0.469
663.000	419.357	80.006	19.995	103.818	19.863	8.426	0.495
664.500	420.104	80.005	19.994	103.818	19.866	8.161	0.495
666.000	420.809	80.006	19.996	103.820	19.865	8.260	0.483
667.500	421.544	80.006	19.995	103.831	19.862	8.443	0.476
669.000	422.316	80.006	19.994	103.833	19.865	8.238	0.509
670.500	423.039	80.007	19.994	103.829	19.863	8.408	0.505
672.000	423.808	80.007	19.994	103.826	19.867	8.124	0.511
673.500	424.581	80.007	19.994	103.829	19.866	8.184	0.518
675.000	425.318	80.007	19.994	103.825	19.867	8.105	0.496
676.500	426.068	80.008	19.993	103.828	19.862	8.448	0.493
678.000	426.850	80.007	19.993	103.817	19.861	8.524	0.506
679.500	427.569	80.006	19.995	103.806	19.865	8.238	0.494
681.000	428.354	80.005	19.994	103.818	19.859	8.685	0.520
682.500	429.123	80.005	19.994	103.819	19.860	8.583	0.502
684.000	429.884	80.005	19.993	103.820	19.861	8.543	0.491
685.500	430.650	80.006	19.993	103.808	19.861	8.538	0.500
687.000	431.463	80.005	19.994	103.812	19.860	8.599	0.527
688.500	432.201	80.006	19.994	103.817	19.858	8.761	0.496
690.000	432.974	80.005	19.994	103.809	19.855	8.981	0.519
691.500	433.827	80.005	19.995	103.815	19.858	8.790	0.546
693.000	434.595	80.005	19.994	103.826	19.858	8.777	0.509
694.500	435.349	80.005	19.994	103.810	19.853	9.130	0.509
696.000	436.099	80.005	19.993	103.805	19.853	9.158	0.513
697.500	436.892	80.005	19.995	103.820	19.854	9.070	0.524
699.000	437.666	80.006	19.994	103.815	19.854	9.073	0.505
700.500	438.463	80.005	19.994	103.812	19.848	9.480	0.540
702.000	439.231	80.006	19.993	103.824	19.850	9.327	0.512
703.500	440.017	80.006	19.994	103.815	19.846	9.601	0.516
705.000	440.790	80.006	19.993	103.819	19.848	9.519	0.519
706.500	441.567	80.006	19.994	103.824	19.846	9.619	0.528
708.000	442.306	80.005	19.992	103.823	19.846	9.607	0.496
709.500	443.071	80.006	19.993	103.818	19.847	9.564	0.532
711.000	443.874	80.005	19.993	103.809	19.840	10.046	0.546
712.500	444.669	80.007	19.993	103.802	19.841	10.023	0.527
714.000	445.425	80.005	19.995	103.801	19.841	10.004	0.520
715.500	446.202	80.006	19.995	103.810	19.837	10.300	0.508
717.000	446.967	80.006	19.993	103.805	19.837	10.271	0.518
718.500	447.749	80.005	19.994	103.806	19.838	10.194	0.502
720.000	448.532	80.006	19.994	103.802	19.835	10.464	0.516
721.500	449.310	80.007	19.995	103.803	19.833	10.578	0.514
723.000	450.080	80.007	19.995	103.823	19.831	10.749	0.522
724.500	450.880	80.004	19.994	103.816	19.828	10.949	0.539
726.000	451.648	80.006	19.995	103.819	19.829	10.895	0.510
727.500	452.412	80.008	19.994	103.821	19.827	11.016	0.513
729.000	453.212	80.008	19.994	103.802	19.820	11.534	0.520
730.500	453.987	80.008	19.995	103.804	19.822	11.367	0.531
732.000	454.707	80.008	19.995	103.806	19.818	11.641	0.483
733.500	455.519	80.007	19.993	103.804	19.815	11.921	0.528
735.000	456.292	80.006	19.994	103.798	19.816	11.788	0.512
736.500	457.055	80.005	19.993	103.796	19.815	11.906	0.518
738.000	457.848	80.007	19.994	103.795	19.813	12.016	0.529
739.500	458.554	80.004	19.996	103.803	19.810	12.223	0.473
741.000	459.365	80.005	19.995	103.810	19.811	12.208	0.535
742.500	460.097	80.006	19.995	103.798	19.809	12.312	0.484
744.000	460.873	80.006	19.994	103.797	19.809	12.308	0.513
745.500	461.619	80.008	19.994	103.801	19.810	12.262	0.493
747.000	462.386	80.006	19.993	103.811	19.807	12.484	0.521
748.500	463.141	80.007	19.994	103.808	19.804	12.656	0.515
750.000	463.903	80.007	19.995	103.799	19.807	12.454	0.508
751.500	464.638	80.008	19.995	103.800	19.803	12.761	0.484
753.000	465.397	80.008	19.994	103.795	19.803	12.741	0.512
754.500	466.173	80.009	19.994	103.794	19.801	12.889	0.530
756.000	466.909	80.008	19.995	103.795	19.801	12.894	0.491
757.500	467.695	80.007	19.995	103.789	19.802	12.809	0.528
759.000	468.438	80.007	19.996	103.790	19.798	13.135	0.499
760.500	469.254	80.006	19.994	103.798	19.797	13.176	0.514
762.000	469.981	80.005	19.994	103.799	19.799	13.059	0.502
763.500	470.736	80.005	19.994	103.797	19.798	13.134	0.513
765.000	471.526	80.006	19.994	103.796	19.797	13.180	0.519
766.500	472.305	80.006	19.993	103.797	19.803	12.729	0.496
768.000	473.054	80.008	19.993	103.798	19.801	12.886	0.485
769.500	473.819	80.004	19.992	103.800	19.802	12.830	0.512
771.000	474.585	80.004	19.993	103.788	19.802	12.864	0.520
772.500	475.311	80.005	19.993	103.734	19.804	12.713	0.500
774.000	476.053	80.006	19.994	103.788	19.809	12.327	0.507
775.500	476.854	80.006	19.994	103.857	19.809	12.287	0.529
777.000	477.629	80.004	19.994	103.811	19.814	11.943	0.526
778.500	478.372	80.005	19.993	103.802	19.816	11.814	0.512
780.000	479.179	80.004	19.994	103.803	19.818	11.681	0.536
781.500	479.901	80.004	19.993	103.802	19.823	11.335	0.469
783.000	480.632	80.005	19.993	103.798	19.819	11.567	0.471
784.500	481.381	80.005	19.993	103.799	19.825	11.179	0.502
786.000	482.168	80.006	19.993	103.801	19.831	10.716	0.512
787.500	482.954	80.005	19.994	103.802	19.834	10.489	0.536
789.000	483.647	80.004	19.994	103.799	19.840	10.085	0.470
790.500	484.435	80.005	19.993	103.800	19.847	9.542	0.523
792.000	485.201	80.004	19.994	103.799	19.853	9.120	0.515
793.500	485.970	80.005	19.993	103.798	19.857	8.848	0.499
795.000	486.722	80.004	19.994	103.797	19.861	8.527	0.486
796.500	487.463	80.005	19.993	103.796	19.869	7.924	0.492
798.000	488.243	80.005	19.993	103.798	19.873	7.683	0.525
799.500	489.005	80.004	19.995	103.797	19.874	7.574	0.499
801.000	489.804	80.003	19.995	103.796	19.882	7.021	0.548
802.500	490.540	80.006	19.994	103.803	19.884	6.832	0.491
804.000	491.318	80.005	19.994	103.801	19.888	6.605	0.520
805.500	492.105	80.007	19.994	103.799	19.892	6.263	0.514
807.000	492.882	80.006	19.994	103.806	19.897	5.885	0.535
808.500	493.668	80.007	19.994	103.807	19.899	5.762	0.518
810.000	494.492	80.006	19.993	103.806	19.903	5.467	0.531
811.500	495.238	80.008	19.993	103.796	19.906	5.288	0.512
813.000	495.990	80.006	19.993	103.796	19.910	4.942	0.513
814.500	496.726	80.006	19.994	103.796	19.913	4.753	0.488
816.000	497.524	80.005	19.994	103.797	19.919	4.333	0.508
817.500	498.301	80.006	19.993	103.800	19.921	4.200	0.506
819.000	499.077	80.005	19.994	103.797	19.922	4.090	0.515
820.500	499.826	80.006	19.994	103.796	19.921	4.198	0.505
822.000	500.607	80.006	19.995	103.797	19.922	4.063	0.526
823.500	501.362	80.006	19.994	103.794	19.926	3.780	0.483
825.000	502.142	80.006	19.994	103.804	19.927	3.758	0.512
826.500	502.878	80.006	19.995	103.804	19.928	3.651	0.476
828.000	503.651	80.006	19.994	103.803	19.927	3.713	0.492
829.500	504.424	80.007	19.994	103.802	19.930	3.504	0.515
831.000	505.176	80.007	19.995	103.798	19.932	3.400	0.506
832.500	505.926	80.007	19.993	103.798	19.933	3.305	0.484
834.000	506.717	80.007	19.994	103.804	19.931	3.472	0.528
835.500	507.450	80.006	19.994	103.802	19.930	3.526	0.483
837.000	508.241	80.007	19.995	103.798	19.936	3.050	0.520
838.500	508.986	80.006	19.993	103.797	19.932	3.376	0.493
840.000	509.753	80.007	19.994	103.799	19.932	3.354	0.508
841.500	510.517	80.006	19.993	103.799	19.933	3.322	0.518
843.000	511.289	80.005	19.993	103.797	19.938	2.933	0.524
844.500	512.077	80.004	19.995	103.799	19.934	3.191	0.522
846.000	512.764	80.004	19.994	103.797	19.935	3.163	0.444
847.500	513.565	80.005	19.995	103.803	19.933	3.281	0.506
849.000	514.348	80.004	19.995	103.806	19.936	3.056	0.521
850.500	515.140	80.004	19.995	103.801	19.939	2.839	0.525
852.000	515.849	80.004	19.994	103.802	19.939	2.859	0.480
853.500	516.636	80.004	19.994	103.799	19.937	3.030	0.525
855.000	517.424	80.004	19.994	103.798	19.939	2.856	0.534
856.500	518.203	80.004	19.995	103.798	19.939	2.851	0.521
858.000	518.965	80.005	19.995	103.798	19.938	2.905	0.509
859.500	519.721	80.005	19.994	103.798	19.939	2.845	0.519
861.000	520.506	80.004	19.995	103.797	19.939	2.897	0.521
862.500	521.306	80.006	19.993	103.797	19.940	2.805	0.521
864.000	522.047	80.006	19.994	103.803	19.939	2.833	0.505
865.500	522.847	80.006	19.994	103.818	19.939	2.843	0.508
867.000	523.613	80.005	19.994	103.807	19.941	2.700	0.493
868.500	524.380	80.006	19.993	103.795	19.941	2.734	0.491
870.000	525.151	80.005	19.994	103.796	19.941	2.696	0.534
871.500	525.896	80.005	19.994	103.797	19.941	2.694	0.497
873.000	526.694	80.004	19.994	103.799	19.943	2.580	0.517
874.500	527.476	80.005	19.994	103.798	19.943	2.556	0.524
876.000	528.233	80.005	19.995	103.797	19.942	2.608	0.530
877.500	529.016	80.005	19.996	103.799	19.945	2.457	0.521
879.000	529.795	80.006	19.994	103.796	19.943	2.596	0.499
880.500	530.568	80.006	19.994	103.795	19.941	2.708	0.499
882.000	531.336	80.005	19.993	103.801	19.942	2.648	0.508
883.500	532.095	80.006	19.994	103.800	19.945	2.449	0.486
885.000	532.883	80.006	19.994	103.799	19.943	2.569	0.521
886.500	533.687	80.005	19.994	103.806	19.945	2.405	0.521
888.000	534.449	80.008	19.994	103.799	19.946	2.358	0.505
889.500	535.183	80.007	19.994	103.796	19.946	2.370	0.484
891.000	535.999	80.007	19.994	103.801	19.945	2.433	0.537
892.500	536.735	80.008	19.994	103.802	19.946	2.328	0.490
894.000	537.491	80.007	19.994	103.797	19.946	2.373	0.507
895.500	538.251	80.007	19.994	103.795	19.942	2.624	0.510
897.000	539.035	80.006	19.994	103.800	19.943	2.604	0.521
898.500	539.799	80.007	19.994	103.802	19.944	2.487	0.485
900.000	540.586	80.006	19.995	103.798	19.942	2.652	0.524
901.500	541.322	80.006	19.994	103.803	19.944	2.515	0.502
903.000	542.045	80.007	19.993	103.807	19.943	2.580	0.476
904.500	542.859	80.006	19.994	103.803	19.944	2.534	0.534
906.000	543.601	80.006	19.993	103.801	19.943	2.602	0.502
907.500	544.343	80.005	19.994	103.806	19.943	2.537	0.510
909.000	545.100	80.005	19.994	103.810	19.946	2.370	0.512
910.500	545.860	80.007	19.995	103.813	19.942	2.678	0.522
912.000	546.622	80.007	19.994	103.807	19.944	2.497	0.515
913.500	547.393	80.008	19.994	103.796	19.947	2.246	0.498
915.000	548.167	80.008	19.994	103.808	19.943	2.587	0.511
916.500	548.957	80.007	19.994	103.805	19.941	2.730	0.493
918.000	549.697	80.006	19.994	103.800	19.944	2.501	0.527
919.500	550.479	80.008	19.996	103.799	19.945	2.445	0.527
921.000	551.244	80.008	19.994	103.802	19.944	2.477	0.524
922.500	552.038	80.007	19.994	103.802	19.943	2.602	0.524
924.000	552.755	80.007	19.994	103.797	19.941	2.720	0.489
925.500	553.537	80.006	19.994	103.795	19.940	2.795	0.506
927.000	554.351	80.005	19.994	103.792	19.942	2.652	0.548
928.500	555.159	80.006	19.994	103.795	19.940	2.768	0.532
930.000	555.896	80.004	19.995	103.796	19.942	2.620	0.496
931.500	556.647	80.005	19.995	103.796	19.941	2.686	0.514
933.000	557.446	80.005	19.994	103.794	19.940	2.821	0.500
934.500	558.219	80.005	19.994	103.798	19.940	2.752	0.509
936.000	558.987	80.004	19.995	103.798	19.941	2.732	0.517
937.500	559.696	80.005	19.994	103.801	19.938	2.947	0.501
939.000	560.463	80.006	19.995	103.799	19.937	2.974	0.507
940.500	561.233	80.005	19.995	103.797	19.943	2.565	0.510
942.000	562.050	80.005	19.994	103.797	19.937	2.984	0.517
943.500	562.803	80.006	19.995	103.795	19.943	2.551	0.522
945.000	563.578	80.004	19.995	103.794	19.930	3.490	0.483
946.500	564.244	80.005	19.996	103.794	19.951	1.978	0.484
948.000	565.022	80.004	19.995	103.793	19.933	3.281	0.472
949.500	565.871	80.005	19.995	103.799	19.941	2.722	0.432
951.000	566.560	80.006	19.995	103.800	19.945	2.449	0.430
952.500	567.266	80.004	19.995	103.797	19.943	2.582	0.443
954.000	567.894	80.005	19.996	103.801	19.942	2.626	0.280
955.500	568.739	80.005	19.995	103.794	19.942	2.664	0.762
957.000	569.751	80.006	19.995	103.795	19.943	2.606	0.507
958.500	570.371	80.004	19.993	103.799	19.939	2.875	0.705
960.000	570.702	80.003	19.995	103.800	19.943	2.604	0.236
961.500	571.970	80.005	19.994	103.800	19.939	2.885	0.732
963.000	572.794	80.004	19.994	103.807	19.943	2.586	0.737
964.500	573.396	80.002	19.993	103.800	19.939	2.867	0.569
966.000	574.343	80.005	19.994	103.798	19.943	2.594	0.513
967.500	575.173	80.006	19.994	103.798	19.940	2.772	0.508
969.000	575.894	80.005	19.994	103.798	19.941	2.728	0.451
970.500	576.695	80.005	19.994	103.798	19.941	2.688	0.463
972.000	577.421	80.006	19.993	103.798	19.940	2.813	0.493
973.500	578.195	80.006	19.994	103.796	19.940	2.785	0.548
975.000	579.037	80.006	19.994	103.797	19.942	2.642	0.584
976.500	579.706	80.007	19.994	103.795	19.940	2.789	0.452
978.000	580.505	80.006	19.993	103.794	19.941	2.690	0.495
979.500	581.306	80.007	19.994	103.798	19.940	2.752	0.536
981.000	582.031	80.006	19.994	103.798	19.940	2.815	0.483
982.500	582.826	80.006	19.994	103.797	19.940	2.823	0.530
984.000	583.544	80.006	19.995	103.797	19.941	2.716	0.525
985.500	584.304	80.006	19.994	103.799	19.939	2.865	0.491
987.000	585.066	80.007	19.993	103.796	19.939	2.845	0.510
988.500	585.965	80.007	19.993	103.797	19.939	2.827	0.554
990.000	586.663	80.006	19.995	103.793	19.937	3.022	0.480
991.500	587.462	80.008	19.994	103.793	19.936	3.072	0.522
993.000	588.187	80.007	19.993	103.795	19.936	3.100	0.492
994.500	589.046	80.008	19.993	103.793	19.940	2.813	0.527
996.000	589.745	80.008	19.993	103.785	19.936	3.112	0.472
997.500	590.530	80.009	19.993	103.783	19.938	2.913	0.510
999.000	591.304	80.008	19.994	103.794	19.940	2.805	0.522
1000.500	592.050	80.009	19.993	103.793	19.937	3.020	0.484
1002.000	592.797	80.008	19.994	103.793	19.937	3.022	0.498
1003.500	593.619	80.007	19.993	103.794	19.935	3.142	0.528
1005.000	594.376	80.007	19.993	103.794	19.936	3.106	0.518
1006.500	595.143	80.005	19.994	103.794	19.936	3.096	0.504
1008.000	595.911	80.006	19.993	103.795	19.937	3.010	0.508
1009.500	596.658	80.006	19.994	103.796	19.937	3.016	0.506
1011.000	597.475	80.004	19.995	103.795	19.938	2.939	0.534
1012.500	598.252	80.006	19.994	103.794	19.937	2.984	0.511
1014.000	599.028	80.006	19.993	103.788	19.937	2.990	0.517
1015.500	599.760	80.005	19.994	103.787	19.937	3.016	0.509
1017.000	600.517	80.005	19.994	103.792	19.938	2.959	0.510
1018.500	601.343	80.006	19.994	103.795	19.938	2.919	0.550
1020.000	602.071	80.006	19.993	103.799	19.936	3.044	0.493
1021.500	602.858	80.005	19.994	103.799	19.942	2.668	0.516
1023.000	603.606	80.005	19.995	103.796	19.938	2.915	0.483
1024.499	604.357	80.006	19.995	103.799	19.940	2.770	0.523
1025.999	605.136	80.005	19.994	103.799	19.938	2.925	0.495
1027.499	605.841	80.007	19.994	103.797	19.936	3.060	0.493
1028.999	606.669	80.006	19.993	103.797	19.936	3.086	0.566
1030.499	607.402	80.005	19.995	103.797	19.938	2.953	0.498
1031.999	608.174	80.005	19.995	103.796	19.936	3.086	0.510
1033.500	608.941	80.004	19.994	103.796	19.936	3.104	0.522
1034.999	609.729	80.004	19.996	103.796	19.938	2.899	0.525
1036.499	610.503	80.004	19.994	103.796	19.935	3.175	0.522
1037.999	611.238	80.005	19.995	103.797	19.935	3.159	0.458
1039.499	612.015	80.004	19.998	103.798	19.937	3.012	0.512
1040.999	612.814	80.004	19.996	103.798	19.937	2.993	0.527
1042.499	613.505	80.003	19.996	103.791	19.940	2.821	0.478
1043.999	614.259	80.004	19.995	103.791	19.936	3.052	0.495
1045.499	615.035	80.003	19.994	103.798	19.938	2.899	0.502
1046.999	615.780	80.004	19.994	103.798	19.938	2.935	0.501
1048.499	616.503	80.005	19.994	103.800	19.938	2.935	0.492
1049.999	617.266	80.006	19.993	103.801	19.938	2.913	0.502
1051.499	618.031	80.007	19.993	103.789	19.936	3.066	0.501
1053.000	618.742	80.007	19.995	103.788	19.933	3.303	0.504
1054.499	619.532	80.007	19.995	103.798	19.936	3.092	0.528
1055.999	620.285	80.008	19.995	103.799	19.935	3.132	0.496
1057.499	621.066	80.007	19.993	103.793	19.937	3.018	0.534
1058.999	621.790	80.007	19.995	103.791	19.937	2.984	0.489
1060.499	622.590	80.006	19.993	103.794	19.936	3.112	0.529
1061.999	623.336	80.008	19.994	103.796	19.933	3.287	0.496
1063.499	624.158	80.005	19.994	103.796	19.935	3.134	0.538
1064.999	624.869	80.006	19.994	103.794	19.935	3.164	0.496
1066.499	625.602	80.005	19.994	103.793	19.937	3.024	0.515
1067.999	626.392	80.006	19.994	103.795	19.936	3.110	0.504
1069.499	627.170	80.005	19.993	103.795	19.934	3.215	0.507
1070.999	627.934	80.007	19.993	103.794	19.934	3.255	0.506
1072.499	628.693	80.007	19.994	103.795	19.936	3.074	0.498
1073.999	629.507	80.007	19.995	103.798	19.938	2.943	0.555
1075.499	630.257	80.008	19.993	103.787	19.936	3.070	0.506
1076.999	631.014	80.008	19.993	103.787	19.936	3.054	0.528
1078.500	631.840	80.009	19.994	103.794	19.935	3.162	0.544
1079.999	632.575	80.009	19.994	103.794	19.937	2.997	0.498
1081.499	633.320	80.008	19.994	103.795	19.936	3.072	0.496
1082.999	634.127	80.009	19.993	103.794	19.934	3.235	0.545
1084.499	634.871	80.007	19.993	103.788	19.931	3.466	0.510
1085.999	635.698	80.007	19.992	103.787	19.933	3.297	0.549
1087.500	636.477	80.006	19.994	103.794	19.937	3.034	0.533
1088.999	637.246	80.006	19.993	103.794	19.939	2.885	0.512
1090.499	638.004	80.007	19.993	103.790	19.935	3.144	0.512
1091.999	638.746	80.005	19.993	103.788	19.936	3.080	0.502
1093.499	639.510	80.005	19.993	103.784	19.937	3.010	0.509
1094.999	640.257	80.006	19.994	103.782	19.934	3.203	0.505
1096.499	640.992	80.007	19.994	103.790	19.935	3.128	0.469
1097.999	641.740	80.006	19.994	103.790	19.936	3.070	0.504
1099.499	642.503	80.005	19.995	103.793	19.937	3.036	0.531
1101.000	643.221	80.004	19.994	103.788	19.936	3.098	0.478
1102.499	643.980	80.004	19.994	103.775	19.934	3.199	0.492
1103.999	644.743	80.004	19.995	103.786	19.933	3.269	0.495
1105.499	645.502	80.006	19.995	103.793	19.936	3.064	0.510
1106.999	646.292	80.004	19.996	103.790	19.938	2.939	0.524
1108.499	647.015	80.004	19.993	103.785	19.938	2.943	0.491
1109.999	647.799	80.006	19.994	103.796	19.936	3.068	0.527
1111.499	648.528	80.005	19.995	103.795	19.934	3.210	0.481
1112.999	649.331	80.005	19.994	103.793	19.939	2.869	0.513
1114.500	650.109	80.005	19.993	103.795	19.934	3.219	0.505
1115.999	650.821	80.006	19.993	103.794	19.933	3.299	0.482
1117.499	651.644	80.005	19.994	103.796	19.933	3.265	0.537
1118.999	652.370	80.006	19.995	103.794	19.932	3.357	0.502
1120.499	653.126	80.005	19.993	103.791	19.934	3.227	0.484
1121.999	653.934	80.004	19.995	103.787	19.935	3.176	0.532
1123.499	654.686	80.005	19.994	103.787	19.934	3.197	0.530
1125.000	655.481	80.005	19.995	103.793	19.932	3.353	0.526
1126.499	656.297	80.005	19.996	103.794	19.934	3.243	0.554
1127.999	657.030	80.004	19.995	103.795	19.935	3.156	0.513
1129.499	657.770	80.005	19.994	103.794	19.932	3.335	0.511
1130.999	658.502	80.006	19.994	103.792	19.933	3.333	0.497
1132.499	659.274	80.007	19.994	103.792	19.927	3.764	0.517
1133.999	660.022	80.006	19.995	103.793	19.935	3.138	0.507
1135.499	660.791	80.006	19.995	103.794	19.933	3.279	0.508
1136.999	661.572	80.008	19.994	103.793	19.932	3.369	0.506
1138.499	662.361	80.008	19.994	103.791	19.932	3.341	0.526
1139.999	663.146	80.007	19.994	103.792	19.935	3.120	0.545
1141.499	663.906	80.006	19.993	103.791	19.937	3.010	0.494
1142.999	664.659	80.007	19.993	103.791	19.937	2.998	0.494
1144.499	665.486	80.007	19.995	103.793	19.934	3.199	0.511
1145.999	665.779	80.008	19.993	103.790	19.934	3.213	0.271
1147.499	667.012	80.006	19.994	103.789	19.934	3.253	1.052
1148.999	667.757	80.006	19.994	103.791	19.936	3.060	0.491
1150.499	668.522	80.007	19.994	103.792	19.936	3.078	0.506
1152.000	669.325	80.007	19.993	103.795	19.932	3.341	0.513
1153.499	670.107	80.007	19.993	103.797	19.936	3.110	0.541
1154.999	670.845	80.006	19.994	103.798	19.934	3.229	0.506
1156.499	671.647	80.007	19.993	103.797	19.935	3.122	0.521
1157.999	672.426	80.007	19.993	103.796	19.934	3.208	0.528
1159.499	673.217	80.008	19.994	103.795	19.932	3.386	0.535
1160.999	674.006	80.009	19.993	103.796	19.938	2.911	0.527
1162.500	674.814	80.009	19.995	103.796	19.936	3.064	0.531
1163.999	675.606	80.009	19.994	103.794	19.935	3.150	0.517
1165.500	676.425	80.008	19.995	103.794	19.938	2.945	0.518
1166.999	677.166	80.008	19.993	103.793	19.937	3.036	0.516
1168.500	677.982	80.006	19.994	103.785	19.934	3.243	0.545
1169.999	678.755	80.005	19.994	103.789	19.934	3.221	0.522
1171.499	679.598	80.007	19.994	103.797	19.934	3.243	0.490
1173.000	680.398	80.006	19.994	103.799	19.934	3.249	0.617
1174.499	681.095	80.006	19.994	103.796	19.934	3.233	0.408
1176.000	681.836	80.005	19.994	103.798	19.934	3.225	0.477
1177.499	682.574	80.004	19.993	103.799	19.935	3.177	0.523
1178.999	683.412	80.006	19.995	103.799	19.936	3.054	0.547
1180.499	684.232	80.006	19.993	103.799	19.935	3.116	0.523
1181.999	684.968	80.005	19.994	103.799	19.935	3.156	0.507
1183.499	685.778	80.006	19.992	103.794	19.936	3.072	0.534
1184.999	686.508	80.006	19.994	103.793	19.937	2.994	0.502
1186.499	687.330	80.005	19.993	103.796	19.933	3.281	0.543
1187.999	688.063	80.006	19.994	103.794	19.938	2.945	0.479
1189.499	688.831	80.005	19.994	103.793	19.937	2.991	0.509
1190.999	689.603	80.007	19.994	103.791	19.937	3.008	0.533
1192.499	690.394	80.006	19.995	103.783	19.936	3.068	0.519
1193.999	691.046	80.005	19.993	103.777	19.935	3.140	0.451
1195.499	691.947	80.005	19.995	103.789	19.937	3.008	0.586
1196.999	692.709	80.005	19.994	103.786	19.937	2.973	0.496
1198.500	693.417	80.005	19.995	103.776	19.935	3.138	0.501
1199.999	694.194	80.005	19.995	103.778	19.936	3.062	0.522
1201.499	694.967	80.004	19.996	103.791	19.937	3.008	0.505
1202.999	695.726	80.006	19.995	103.795	19.935	3.138	0.534
1204.499	696.520	80.005	19.995	103.789	19.936	3.088	0.530
1205.999	697.237	80.005	19.995	103.788	19.935	3.128	0.482
1207.499	698.001	80.005	19.995	103.789	19.936	3.076	0.501
1208.999	698.781	80.006	19.995	103.789	19.936	3.114	0.509
1210.499	699.512	80.007	19.994	103.792	19.938	2.953	0.518
1211.999	700.242	80.006	19.994	103.794	19.936	3.084	0.465
1213.499	701.049	80.006	19.995	103.794	19.933	3.317	0.534
1215.000	701.815	80.005	19.994	103.795	19.934	3.193	0.502
1216.499	702.561	80.007	19.995	103.792	19.936	3.090	0.503
1217.999	703.301	80.007	19.994	103.790	19.938	2.927	0.505
1219.499	704.099	80.006	19.995	103.791	19.936	3.048	0.520
1220.999	704.852	80.007	19.995	103.797	19.935	3.124	0.512
1222.499	705.638	80.005	19.995	103.795	19.934	3.217	0.499
1223.999	706.380	80.005	19.994	103.792	19.936	3.082	0.498
1225.499	707.163	80.005	19.995	103.793	19.934	3.201	0.520
1226.999	707.896	80.006	19.995	103.798	19.934	3.193	0.491
1228.499	708.649	80.004	19.994	103.796	19.933	3.269	0.498
1229.999	709.421	80.005	19.994	103.796	19.933	3.293	0.521
1231.499	710.227	80.004	19.994	103.797	19.933	3.311	0.528
1232.999	710.965	80.006	19.995	103.796	19.933	3.299	0.510
1234.499	711.727	80.007	19.994	103.796	19.934	3.239	0.521
1235.999	712.494	80.006	19.994	103.797	19.933	3.328	0.533
1237.499	713.240	80.007	19.992	103.803	19.930	3.504	0.512
1239.001	713.986	80.007	19.994	103.800	19.932	3.368	0.502
1240.499	714.757	80.008	19.994	103.799	19.934	3.209	0.518
1241.999	715.577	80.008	19.993	103.800	19.938	2.967	0.538
1243.499	716.314	80.008	19.993	103.798	19.934	3.261	0.483
1244.999	717.039	80.007	19.992	103.800	19.935	3.180	0.500
1246.499	717.816	80.007	19.994	103.801	19.933	3.329	0.507
1247.999	718.584	80.007	19.993	103.797	19.933	3.325	0.488
1249.499	719.337	80.006	19.994	103.795	19.933	3.309	0.473
1250.999	720.083	80.005	19.994	103.794	19.935	3.122	0.478
1252.499	720.865	80.005	19.994	103.793	19.929	3.565	0.515
1253.999	721.642	80.006	19.994	103.795	19.929	3.575	0.491
1255.499	722.409	80.006	19.994	103.785	19.930	3.540	0.501
1256.999	723.192	80.005	19.994	103.788	19.930	3.512	0.505
1258.499	723.932	80.006	19.994	103.798	19.934	3.253	0.484
1259.999	724.700	80.005	19.995	103.793	19.929	3.564	0.495
1261.499	725.478	80.006	19.995	103.794	19.929	3.624	0.504
1262.999	726.275	80.006	19.995	103.798	19.931	3.440	0.523
1264.499	727.013	80.006	19.994	103.799	19.929	3.579	0.500
1265.999	727.773	80.006	19.993	103.795	19.930	3.502	0.498
1267.499	728.550	80.007	19.993	103.794	19.929	3.611	0.496
1268.999	729.285	80.006	19.994	103.792	19.924	3.967	0.492
1270.499	730.044	80.004	19.993	103.790	19.927	3.723	0.497
1271.999	730.836	80.006	19.994	103.776	19.926	3.802	0.504
1273.499	731.581	80.005	19.994	103.780	19.925	3.858	0.484
1274.999	732.327	80.006	19.994	103.796	19.927	3.770	0.487
1276.499	733.116	80.005	19.994	103.794	19.929	3.621	0.509
1277.999	733.841	80.005	19.994	103.787	19.925	3.894	0.483
1279.499	734.617	80.006	19.995	103.790	19.923	4.023	0.533
1280.999	735.394	80.004	19.994	103.791	19.923	4.059	0.510
1282.499	736.098	80.004	19.995	103.793	19.924	3.965	0.459
1283.999	736.883	80.005	19.995	103.798	19.927	3.719	0.516
1285.499	737.655	80.004	19.995	103.794	19.926	3.808	0.512
1287.000	738.462	80.004	19.994	103.793	19.927	3.758	0.526
1288.499	739.220	80.005	19.995	103.795	19.927	3.728	0.506
1289.999	739.987	80.004	19.994	103.796	19.929	3.619	0.512
1291.499	740.797	80.004	19.995	103.800	19.927	3.705	0.522
1293.000	741.508	80.005	19.994	103.799	19.929	3.564	0.484
1294.499	742.305	80.006	19.994	103.788	19.930	3.484	0.522
1295.999	743.084	80.007	19.996	103.793	19.925	3.862	0.539
1297.499	743.858	80.008	19.995	103.798	19.927	3.734	0.504
1298.999	744.622	80.009	19.994	103.798	19.926	3.812	0.493
1299.999	745.125	80.007	19.995	103.798	19.926	3.772	0.513