File: 01_Data/Rayon_Bamboo_Pillowcase/STA/N2/30K_min/Rayon_Bamboo_Pillowcase_STA_N2_30KData_220523_R1.csv
##Temp./Â°C,Time/min,Mass loss(subtr.2)/mg,DSC(subtr.2)/(mW/mg),Sensit./(uV/mW)
48.695,10.00917,-0.00352,0.01357258,1.05398
49.295,10.536,-0.00345101,0.03793266,1.05386
49.895,10.6546,-0.003136802,0.06253715,1.05373
50.495,10.7387,-0.002612263,0.08680791,1.05361
51.095,10.80754,-0.001500772,0.10991,1.05349
51.695,10.86777,-0.002122596,0.1323,1.05336
52.295,10.92095,-0.00289924,0.1526,1.05324
52.895,10.96902,-0.003505612,0.17182,1.05311
53.495,11.01317,-0.0008668152,0.19195,1.05298
54.095,11.0557,-0.00141647,0.20847,1.05286
54.695,11.0962,-0.00232898,0.22455,1.05273
55.295,11.13379,-0.00189727,0.24307,1.0526
55.895,11.16962,-0.00220628,0.25899,1.05247
56.495,11.2044,-0.002107893,0.27379,1.05234
57.095,11.238,-0.00229064,0.28984,1.05221
57.695,11.27037,-0.001040296,0.30287,1.05208
58.295,11.30176,-0.0007177524,0.31583,1.05195
58.895,11.33243,-0.0004326412,0.32906,1.05182
59.495,11.36239,-0.001080658,0.34143,1.05169
60.095,11.39171,-0.001712795,0.35542,1.05155
60.695,11.42022,-0.000836377,0.36635,1.05142
61.295,11.44813,-0.00128359,0.37906,1.05128
61.895,11.4754,-0.001876115,0.39009,1.05115
62.495,11.50228,-0.002496149,0.40371,1.05101
63.095,11.5289,-0.00240948,0.41353,1.05088
63.695,11.55505,-0.002440363,0.42494,1.05074
64.295,11.5807,-0.002579821,0.43564,1.0506
64.895,11.6063,-0.003692209,0.4468,1.05046
65.495,11.63166,-0.0034735,0.45748,1.05032
66.095,11.6568,-0.001247436,0.46705,1.05018
66.695,11.68168,-0.0006975178,0.47792,1.05004
67.295,11.70611,-0.002233053,0.48834,1.0499
67.895,11.7303,-0.00275209,0.49773,1.04976
68.495,11.7544,-0.003551495,0.50798,1.04962
69.095,11.77827,-0.003481701,0.51536,1.04947
69.695,11.8019,-0.00430381,0.52604,1.04933
70.295,11.82531,-0.004702403,0.53622,1.04918
70.895,11.84865,-0.004176321,0.54472,1.04904
71.495,11.8718,-0.0039179,0.55454,1.04889
72.095,11.89493,-0.004620627,0.56079,1.04875
72.695,11.91779,-0.00430771,0.57157,1.0486
73.295,11.94045,-0.004563573,0.57947,1.04845
73.895,11.96306,-0.005126818,0.58898,1.0483
74.495,11.98557,-0.00449514,0.59768,1.04815
75.095,12.00801,-0.003764252,0.60616,1.048
75.695,12.03037,-0.00401334,0.6109,1.04785
76.295,12.05257,-0.00407161,0.62184,1.0477
76.895,12.0746,-0.00418919,0.63023,1.04755
77.495,12.0967,-0.004165979,0.63924,1.0474
78.095,12.1187,-0.003982207,0.64665,1.04725
78.695,12.14048,-0.004235083,0.65343,1.04709
79.295,12.16232,-0.00310439,0.66197,1.04694
79.895,12.18401,-0.002871061,0.67246,1.04678
80.495,12.20555,-0.00315516,0.68122,1.04663
81.095,12.227,-0.003541578,0.69081,1.04647
81.695,12.24842,-0.004478403,0.70025,1.04632
82.295,12.26984,-0.007209057,0.70558,1.04616
82.895,12.29112,-0.007651926,0.7165,1.046
83.495,12.31246,-0.009074027,0.72387,1.04584
84.095,12.3337,-0.009035975,0.73186,1.04568
84.695,12.35488,-0.009533082,0.74202,1.04552
85.295,12.37599,-0.00992862,0.74911,1.04536
85.895,12.3969,-0.008766345,0.75497,1.0452
86.495,12.41789,-0.009644467,0.7645,1.04504
87.095,12.43873,-0.008863183,0.77564,1.04488
87.695,12.4596,-0.01020962,0.78044,1.04471
88.295,12.4805,-0.008818132,0.78862,1.04455
88.895,12.50131,-0.00971312,0.7958,1.04439
89.495,12.52197,-0.01003709,0.80336,1.04422
90.095,12.54256,-0.00977565,0.81573,1.04406
90.695,12.56322,-0.0101939,0.82369,1.04389
91.295,12.58381,-0.01026493,0.82937,1.04372
91.895,12.60467,-0.01161557,0.83892,1.04356
92.495,12.62527,-0.01152789,0.84582,1.04339
93.095,12.64591,-0.01257885,0.85193,1.04322
93.695,12.6664,-0.01283527,0.85994,1.04305
94.295,12.6868,-0.01284802,0.86976,1.04288
94.895,12.70727,-0.01283662,0.87809,1.04271
95.495,12.72772,-0.01376622,0.88513,1.04254
96.095,12.74811,-0.01382332,0.89189,1.04237
96.695,12.76838,-0.01378989,0.90085,1.04219
97.295,12.78867,-0.01514786,0.90768,1.04202
97.895,12.8089,-0.01515022,0.91511,1.04185
98.495,12.82925,-0.01548732,0.92269,1.04167
99.095,12.84958,-0.01646416,0.9297,1.0415
99.695,12.86992,-0.01646926,0.93722,1.04132
100.295,12.89005,-0.01646986,0.9444,1.04115
100.895,12.91029,-0.01646845,0.95313,1.04097
101.495,12.9304,-0.01644521,0.95784,1.04079
102.095,12.95064,-0.01803688,0.96404,1.04062
102.695,12.9709,-0.01909436,0.96962,1.04044
103.295,12.99105,-0.01918417,0.97408,1.04026
103.895,13.01122,-0.0204625,0.98157,1.04008
104.495,13.0314,-0.02043419,0.98494,1.0399
105.095,13.05153,-0.02060062,0.99033,1.03972
105.695,13.07163,-0.02173637,0.99518,1.03953
106.295,13.09183,-0.021731,1.001,1.03935
106.895,13.11179,-0.02173734,1.00497,1.03917
107.495,13.1318,-0.02184399,1.0081,1.03899
108.095,13.15194,-0.02306991,1.01204,1.0388
108.695,13.172,-0.02395023,1.01479,1.03862
109.295,13.1922,-0.02435701,1.01902,1.03843
109.895,13.2124,-0.02436903,1.02201,1.03825
110.495,13.2325,-0.02436993,1.02313,1.03806
111.095,13.25252,-0.02436997,1.02656,1.03787
111.695,13.2726,-0.02436967,1.03013,1.03768
112.295,13.2926,-0.02436526,1.03437,1.0375
112.895,13.3126,-0.02504675,1.03234,1.03731
113.495,13.33257,-0.02566295,1.03346,1.03712
114.095,13.35255,-0.02567079,1.03621,1.03693
114.695,13.37241,-0.02688345,1.0342,1.03674
115.295,13.39241,-0.02831341,1.03678,1.03655
115.895,13.41239,-0.02831961,1.03942,1.03635
116.495,13.43225,-0.0283211,1.03819,1.03616
117.095,13.452,-0.02834245,1.03819,1.03597
117.695,13.47192,-0.02973213,1.0387,1.03577
118.295,13.49174,-0.02965981,1.03842,1.03558
118.895,13.51154,-0.02982469,1.03873,1.03538
119.495,13.5314,-0.03096557,1.03654,1.03519
120.095,13.55137,-0.03095743,1.03659,1.03499
120.695,13.57122,-0.03148752,1.03581,1.0348
121.295,13.5911,-0.032257,1.03277,1.0346
121.895,13.61101,-0.03278434,1.03222,1.0344
122.495,13.63088,-0.03358932,1.03005,1.0342
123.095,13.6507,-0.03370579,1.02794,1.034
123.695,13.67043,-0.03491422,1.02442,1.0338
124.295,13.69012,-0.03491022,1.02066,1.0336
124.895,13.70979,-0.03490981,1.01773,1.0334
125.495,13.7294,-0.03490905,1.01784,1.0332
126.095,13.74901,-0.03554836,1.0115,1.033
126.695,13.76859,-0.03754225,1.00622,1.03279
127.295,13.78825,-0.03753715,1.00658,1.03259
127.895,13.8079,-0.03748302,1.00232,1.03239
128.495,13.8275,-0.03885,1.00052,1.03218
129.095,13.84704,-0.03885919,0.99567,1.03198
129.695,13.8666,-0.03885994,0.99266,1.03177
130.295,13.8861,-0.03886013,0.9886,1.03156
130.895,13.9055,-0.03886201,0.98456,1.03136
131.495,13.92485,-0.03888744,0.98208,1.03115
132.095,13.9445,-0.03942754,0.97713,1.03094
132.695,13.9639,-0.04160036,0.97378,1.03073
133.295,13.98342,-0.04150746,0.96795,1.03052
133.895,14.00293,-0.04150063,0.9665,1.03031
134.495,14.02242,-0.04150129,0.96115,1.0301
135.095,14.04178,-0.04151986,0.95621,1.02989
135.695,14.06115,-0.04288767,0.95509,1.02968
136.295,14.08044,-0.04281413,0.95017,1.02947
136.895,14.09971,-0.04281015,0.94627,1.02926
137.495,14.119,-0.04281,0.94257,1.02904
138.095,14.13831,-0.04281,0.93749,1.02883
138.695,14.15768,-0.04281,0.93589,1.02861
139.295,14.17699,-0.04281,0.93154,1.0284
139.895,14.1963,-0.04280997,0.92709,1.02818
140.495,14.21546,-0.04280958,0.92604,1.02797
141.095,14.23456,-0.04280429,0.92075,1.02775
141.695,14.25366,-0.04276851,0.91803,1.02753
142.295,14.2728,-0.04532605,0.91605,1.02731
142.895,14.2919,-0.04511536,0.91526,1.0271
143.495,14.311,-0.04548762,0.9127,1.02688
144.095,14.3301,-0.04551171,0.91036,1.02666
144.695,14.34915,-0.04676989,0.90867,1.02644
145.295,14.36837,-0.04674921,0.90662,1.02621
145.895,14.3874,-0.04802052,0.90151,1.02599
146.495,14.40647,-0.04808872,0.90171,1.02577
147.095,14.4255,-0.04708168,0.89866,1.02555
147.695,14.44459,-0.04679274,0.89799,1.02533
148.295,14.46355,-0.0467675,0.89417,1.0251
148.895,14.4825,-0.04672279,0.89484,1.02488
149.495,14.5015,-0.04749148,0.89474,1.02465
150.095,14.52048,-0.04743312,0.89444,1.02443
150.695,14.5394,-0.04743006,0.89184,1.0242
151.295,14.5585,-0.04742988,0.89079,1.02397
151.895,14.57749,-0.04742681,0.89043,1.02375
152.495,14.59648,-0.04737294,0.89189,1.02352
153.095,14.6154,-0.04835737,0.88737,1.02329
153.695,14.6343,-0.04841602,0.88722,1.02306
154.295,14.65316,-0.04841969,0.88797,1.02283
154.895,14.67206,-0.04841998,0.88691,1.0226
155.495,14.69095,-0.04842,0.88803,1.02237
156.095,14.70991,-0.04842,0.88641,1.02214
156.695,14.72874,-0.04842,0.88473,1.02191
157.295,14.7476,-0.04841991,0.88519,1.02168
157.895,14.7664,-0.04841818,0.88706,1.02144
158.495,14.78522,-0.04832003,0.88536,1.02121
159.095,14.80405,-0.04700798,0.88797,1.02097
159.695,14.8229,-0.04708775,0.88853,1.02074
160.295,14.8418,-0.04704283,0.88763,1.0205
160.895,14.8606,-0.04642355,0.88626,1.02027
161.495,14.87935,-0.0464396,0.88314,1.02003
162.095,14.89809,-0.04645378,0.88569,1.0198
162.695,14.9169,-0.04720768,0.88679,1.01956
163.295,14.93564,-0.04776482,0.88568,1.01932
163.895,14.9544,-0.04776045,0.88619,1.01908
164.495,14.97315,-0.04776009,0.88817,1.01884
165.095,14.99189,-0.04776056,0.88843,1.0186
165.695,15.0105,-0.04776358,0.8869,1.01836
166.295,15.02931,-0.04776451,0.8893,1.01812
166.895,15.0481,-0.04903106,0.89073,1.01788
167.495,15.0669,-0.04906469,0.89038,1.01764
168.095,15.08567,-0.04908296,0.88906,1.0174
168.695,15.1044,-0.04935177,0.89114,1.01715
169.295,15.12314,-0.05044207,0.88988,1.01691
169.895,15.1419,-0.05039342,0.89048,1.01666
170.495,15.1606,-0.05038966,0.89085,1.01642
171.095,15.17919,-0.0503899,0.89175,1.01617
171.695,15.19786,-0.05045223,0.88983,1.01593
172.295,15.2165,-0.04887728,0.89267,1.01568
172.895,15.23511,-0.04830855,0.89182,1.01544
173.495,15.25371,-0.04743648,0.89154,1.01519
174.095,15.27239,-0.04770996,0.89057,1.01494
174.695,15.291,-0.04887835,0.8901,1.01469
175.295,15.30969,-0.05017074,0.8928,1.01444
175.895,15.3283,-0.05075665,0.89383,1.01419
176.495,15.3469,-0.05150309,0.89602,1.01394
177.095,15.36545,-0.05148284,0.89626,1.01369
177.695,15.384,-0.05148191,0.8946,1.01344
178.295,15.40257,-0.05151032,0.89599,1.01319
178.895,15.42106,-0.05287534,0.89545,1.01294
179.495,15.43963,-0.05280177,0.89501,1.01268
180.095,15.4581,-0.05279964,0.89443,1.01243
180.695,15.47665,-0.05279993,0.89589,1.01218
181.295,15.49513,-0.0528,0.89497,1.01192
181.895,15.51361,-0.05280004,0.89753,1.01167
182.495,15.53205,-0.05280039,0.89723,1.01141
183.095,15.55055,-0.05280247,0.89598,1.01115
183.695,15.56891,-0.05279477,0.89805,1.0109
184.295,15.58738,-0.05314228,0.89907,1.01064
184.895,15.6058,-0.05313173,0.89972,1.01038
185.495,15.6242,-0.05313017,0.90165,1.01012
186.095,15.6425,-0.05313001,0.89921,1.00987
186.695,15.6609,-0.05313,0.89924,1.00961
187.295,15.6792,-0.05313,0.90384,1.00935
187.895,15.6975,-0.05313,0.90452,1.00909
188.495,15.71582,-0.05313,0.90387,1.00882
189.095,15.7342,-0.05313,0.90476,1.00856
189.695,15.75259,-0.05312999,0.90595,1.0083
190.295,15.7709,-0.05312995,0.90864,1.00804
190.895,15.78933,-0.05312995,0.90998,1.00778
191.495,15.80775,-0.05313464,0.91212,1.00751
192.095,15.8261,-0.05206762,0.90996,1.00725
192.695,15.84446,-0.05184322,0.91277,1.00698
193.295,15.8628,-0.05182185,0.91266,1.00672
193.895,15.8811,-0.05182012,0.91286,1.00645
194.495,15.89944,-0.05182002,0.91346,1.00619
195.095,15.9178,-0.05181879,0.91396,1.00592
195.695,15.936,-0.05168746,0.9168,1.00565
196.295,15.9543,-0.05041084,0.91829,1.00538
196.895,15.9726,-0.05049307,0.91892,1.00511
197.495,15.99081,-0.05049964,0.91965,1.00485
198.095,16.009,-0.05050001,0.92198,1.00458
198.695,16.02719,-0.05050001,0.92139,1.00431
199.295,16.04544,-0.0505,0.92443,1.00404
199.895,16.06356,-0.0505,0.92538,1.00376
200.495,16.08182,-0.0505,0.92684,1.00349
201.095,16.1001,-0.05050002,0.92778,1.00322
201.695,16.11836,-0.05049987,0.92901,1.00295
202.295,16.13665,-0.05049613,0.93072,1.00267
202.895,16.15501,-0.05037442,0.9318,1.0024
203.495,16.17324,-0.04946423,0.93164,1.00213
204.095,16.19148,-0.04963573,0.93215,1.00185
204.695,16.20968,-0.05016471,0.93412,1.00158
205.295,16.22786,-0.05017125,0.93647,1.0013
205.895,16.24611,-0.05017023,0.93879,1.00103
206.495,16.26434,-0.05016999,0.93998,1.00075
207.095,16.2826,-0.05016966,0.94314,1.00047
207.695,16.30088,-0.05016772,0.94337,1.00019
208.295,16.31912,-0.05017066,0.94536,0.99991
208.895,16.33728,-0.05098059,0.94766,0.99964
209.495,16.3555,-0.05149523,0.94965,0.99936
210.095,16.37371,-0.0514905,0.95179,0.99908
210.695,16.39196,-0.05149004,0.95454,0.9988
211.295,16.41021,-0.05149,0.95467,0.99852
211.895,16.4285,-0.05149,0.95414,0.99823
212.495,16.44673,-0.05149001,0.95691,0.99795
213.095,16.46496,-0.05149014,0.95749,0.99767
213.695,16.48312,-0.05149146,0.95923,0.99739
214.295,16.50133,-0.05150113,0.96134,0.9971
214.895,16.51952,-0.05151169,0.96251,0.99682
215.495,16.5377,-0.05280189,0.96273,0.99654
216.095,16.55588,-0.05280869,0.96636,0.99625
216.695,16.57412,-0.05280814,0.96883,0.99596
217.295,16.59228,-0.05279371,0.9721,0.99568
217.895,16.61044,-0.05319315,0.9729,0.99539
218.495,16.62865,-0.05347227,0.97294,0.99511
219.095,16.6468,-0.05347044,0.97382,0.99482
219.695,16.66487,-0.05346317,0.97475,0.99453
220.295,16.68303,-0.05339511,0.97743,0.99424
220.895,16.7012,-0.0546027,0.97897,0.99395
221.495,16.71937,-0.05479001,0.98143,0.99366
222.095,16.73744,-0.05458483,0.98063,0.99337
222.695,16.75558,-0.05340029,0.98275,0.99308
223.295,16.7737,-0.05346319,0.98032,0.99279
223.895,16.79179,-0.05346954,0.98225,0.9925
224.495,16.8099,-0.05346999,0.98323,0.99221
225.095,16.8281,-0.05347,0.98615,0.99192
225.695,16.8463,-0.05346997,0.98541,0.99162
226.295,16.86446,-0.05346953,0.98739,0.99133
226.895,16.88263,-0.05346529,0.98688,0.99104
227.495,16.90074,-0.05394803,0.98874,0.99074
228.095,16.91889,-0.05479442,0.98868,0.99045
228.695,16.937,-0.05479298,0.9905,0.99015
229.295,16.9551,-0.0547904,0.99247,0.98985
229.895,16.97318,-0.05479005,0.99243,0.98956
230.495,16.99128,-0.05479006,0.99364,0.98926
231.095,17.0093,-0.05479005,0.99382,0.98896
231.695,17.02746,-0.0547845,0.99271,0.98867
232.295,17.04554,-0.05579404,0.99267,0.98837
232.895,17.06364,-0.05607483,0.99494,0.98807
233.495,17.0817,-0.05609811,0.99547,0.98777
234.095,17.09986,-0.0560991,0.99769,0.98747
234.695,17.1179,-0.05611541,0.99748,0.98717
235.295,17.13605,-0.05677504,0.9984,0.98687
235.895,17.1541,-0.05742577,0.99967,0.98657
236.495,17.17229,-0.05741607,1.00008,0.98627
237.095,17.19037,-0.05739851,0.99899,0.98596
237.695,17.2085,-0.05835072,0.99965,0.98566
238.295,17.2266,-0.05874351,1.00328,0.98536
238.895,17.24468,-0.05874043,1.0018,0.98505
239.495,17.26275,-0.05874004,1.00145,0.98475
240.095,17.2808,-0.05874005,1.00316,0.98444
240.695,17.2989,-0.05873993,1.00356,0.98414
241.295,17.31703,-0.0587343,1.00434,0.98383
241.895,17.3351,-0.05970241,1.00605,0.98353
242.495,17.35315,-0.06003456,1.00299,0.98322
243.095,17.37119,-0.06006391,1.00497,0.98291
243.695,17.3892,-0.06006121,1.00783,0.98261
244.295,17.40727,-0.06129547,1.00755,0.9823
244.895,17.42538,-0.06138556,1.01076,0.98199
245.495,17.44344,-0.06174914,1.01448,0.98168
246.095,17.46154,-0.06269036,1.02264,0.98137
246.695,17.4796,-0.06267806,1.02711,0.98106
247.295,17.49766,-0.06264062,1.02779,0.98075
247.895,17.5157,-0.06267735,1.02997,0.98044
248.495,17.53377,-0.06263742,1.02934,0.98013
249.095,17.5518,-0.06415785,1.02756,0.97982
249.695,17.5699,-0.0653143,1.02677,0.9795
250.295,17.58791,-0.06534062,1.02506,0.97919
250.895,17.60596,-0.06572065,1.02405,0.97888
251.495,17.62398,-0.06668942,1.02412,0.97856
252.095,17.64205,-0.06663944,1.01964,0.97825
252.695,17.6601,-0.06705591,1.01849,0.97794
253.295,17.6782,-0.06797723,1.01772,0.97762
253.895,17.6963,-0.06796524,1.01444,0.9773
254.495,17.7144,-0.06802366,1.01271,0.97699
255.095,17.73241,-0.0695152,1.0136,0.97667
255.695,17.7504,-0.06948821,1.01152,0.97636
256.295,17.7685,-0.07092318,1.0096,0.97604
256.895,17.78653,-0.07172077,1.00556,0.97572
257.495,17.8046,-0.07251804,1.0036,0.9754
258.095,17.82265,-0.07403325,1.00274,0.97508
258.695,17.8407,-0.07531419,1.00082,0.97476
259.295,17.8587,-0.07613185,1.00027,0.97444
259.895,17.87673,-0.077545,0.99866,0.97412
260.495,17.89475,-0.07939001,0.99829,0.9738
261.095,17.9128,-0.08109169,0.99652,0.97348
261.695,17.93082,-0.08292066,0.9969,0.97316
262.295,17.94887,-0.08473081,0.99699,0.97284
262.895,17.96689,-0.08672356,0.99896,0.97252
263.495,17.9848,-0.08872928,0.99767,0.97219
264.095,18.00283,-0.091529,1.00313,0.97187
264.695,18.02085,-0.09337037,1.00357,0.97155
265.295,18.0388,-0.09494404,1.00743,0.97122
265.895,18.05685,-0.09652363,1.01326,0.9709
266.495,18.07499,-0.09632677,1.02284,0.97057
267.095,18.09306,-0.09789198,1.03083,0.97025
267.695,18.11114,-0.09964383,1.03987,0.96992
268.295,18.1292,-0.10233,1.05345,0.96959
268.895,18.14722,-0.10529,1.07078,0.96927
269.495,18.1653,-0.10868,1.08839,0.96894
270.095,18.18334,-0.11185,1.10839,0.96861
270.695,18.20135,-0.11457,1.1334,0.96828
271.295,18.21943,-0.11727,1.16201,0.96795
271.895,18.23757,-0.12012,1.19288,0.96762
272.495,18.2556,-0.12267,1.22402,0.96729
273.095,18.27361,-0.12647,1.25973,0.96696
273.695,18.2917,-0.13076,1.2984,0.96663
274.295,18.30977,-0.13396,1.34204,0.9663
274.895,18.32785,-0.1376,1.38501,0.96597
275.495,18.34597,-0.14224,1.43125,0.96564
276.095,18.3641,-0.14652,1.48155,0.96531
276.695,18.38215,-0.15208,1.53256,0.96497
277.295,18.40028,-0.15774,1.58489,0.96464
277.895,18.4183,-0.164,1.63516,0.96431
278.495,18.4364,-0.1707,1.68779,0.96397
279.095,18.45439,-0.17671,1.73872,0.96364
279.695,18.47234,-0.18463,1.78623,0.9633
280.295,18.49038,-0.19132,1.8335,0.96297
280.895,18.5085,-0.20058,1.87618,0.96263
281.495,18.52669,-0.20789,1.91528,0.9623
282.095,18.54498,-0.21781,1.95285,0.96196
282.695,18.56333,-0.22617,1.98646,0.96162
283.295,18.58158,-0.23565,2.01507,0.96128
283.895,18.59979,-0.24499,2.04203,0.96095
284.495,18.61795,-0.2551,2.06358,0.96061
285.095,18.63615,-0.26616,2.07601,0.96027
285.695,18.6543,-0.27598,2.09148,0.95993
286.295,18.67246,-0.28817,2.10012,0.95959
286.895,18.69065,-0.29745,2.10592,0.95925
287.495,18.70884,-0.30821,2.11081,0.95891
288.095,18.727,-0.31651,2.10825,0.95857
288.695,18.745,-0.32871,2.10815,0.95823
289.295,18.76308,-0.34071,2.10545,0.95788
289.895,18.78108,-0.35501,2.09913,0.95754
290.495,18.79916,-0.36778,2.09087,0.9572
291.095,18.81731,-0.37967,2.08099,0.95686
291.695,18.83556,-0.39254,2.07229,0.95651
292.295,18.85377,-0.40362,2.06232,0.95617
292.895,18.87204,-0.41738,2.05031,0.95582
293.495,18.8902,-0.42855,2.04174,0.95548
294.095,18.9084,-0.44335,2.02923,0.95513
294.695,18.92654,-0.45448,2.01789,0.95479
295.295,18.94466,-0.4677,2.00536,0.95444
295.895,18.96285,-0.47922,1.99429,0.95409
296.495,18.981,-0.49291,1.98556,0.95375
297.095,18.99915,-0.50631,1.97238,0.9534
297.695,19.0173,-0.51966,1.96157,0.95305
298.295,19.0354,-0.53424,1.95198,0.9527
298.895,19.0535,-0.54696,1.94122,0.95235
299.495,19.0716,-0.56264,1.93149,0.95201
300.095,19.08961,-0.57473,1.9221,0.95166
300.695,19.10758,-0.59042,1.90897,0.95131
301.295,19.12567,-0.60279,1.90638,0.95096
301.895,19.14376,-0.61838,1.90323,0.9506
302.495,19.1619,-0.63223,1.89751,0.95025
303.095,19.18011,-0.6478,1.89234,0.9499
303.695,19.19831,-0.6635,1.88654,0.94955
304.295,19.2164,-0.67841,1.88402,0.9492
304.895,19.23444,-0.696,1.87806,0.94884
305.495,19.25256,-0.71068,1.87247,0.94849
306.095,19.2707,-0.72859,1.87245,0.94814
306.695,19.2888,-0.74226,1.87016,0.94778
307.295,19.30702,-0.76026,1.86759,0.94743
307.895,19.32519,-0.77483,1.86517,0.94707
308.495,19.34328,-0.79275,1.86536,0.94672
309.095,19.36133,-0.80901,1.86437,0.94636
309.695,19.3795,-0.8267,1.86376,0.94601
310.295,19.39761,-0.84469,1.86467,0.94565
310.895,19.41568,-0.86093,1.86448,0.94529
311.495,19.4338,-0.87861,1.86557,0.94494
312.095,19.45192,-0.89425,1.86661,0.94458
312.695,19.4699,-0.91435,1.86773,0.94422
313.295,19.48798,-0.93002,1.86857,0.94386
313.895,19.50614,-0.95057,1.86871,0.9435
314.495,19.52423,-0.96736,1.87076,0.94314
315.095,19.54243,-0.98767,1.87271,0.94278
315.695,19.56063,-1.00615,1.87802,0.94242
316.295,19.5788,-1.02511,1.88042,0.94206
316.895,19.59693,-1.04485,1.88459,0.9417
317.495,19.61514,-1.06354,1.88481,0.94134
318.095,19.63318,-1.08571,1.89064,0.94098
318.695,19.65137,-1.10437,1.89211,0.94062
319.295,19.6695,-1.12744,1.89704,0.94025
319.895,19.68771,-1.14488,1.9023,0.93989
320.495,19.70587,-1.16784,1.90722,0.93953
321.095,19.72416,-1.18745,1.91204,0.93916
321.695,19.74224,-1.21035,1.91725,0.9388
322.295,19.76035,-1.23094,1.92196,0.93844
322.895,19.77848,-1.2516,1.92324,0.93807
323.495,19.79662,-1.27375,1.92784,0.93771
324.095,19.8148,-1.29388,1.93337,0.93734
324.695,19.83305,-1.31871,1.93568,0.93697
325.295,19.8513,-1.33905,1.94008,0.93661
325.895,19.86952,-1.36506,1.94239,0.93624
326.495,19.8877,-1.3847,1.94797,0.93587
327.095,19.90589,-1.40985,1.94938,0.93551
327.695,19.92408,-1.43072,1.95356,0.93514
328.295,19.9422,-1.45497,1.95601,0.93477
328.895,19.9604,-1.47725,1.95544,0.9344
329.495,19.9786,-1.5004,1.96083,0.93403
330.095,19.9968,-1.52465,1.96051,0.93366
330.695,20.015,-1.54642,1.96095,0.93329
331.295,20.0332,-1.57301,1.9612,0.93292
331.895,20.05144,-1.59491,1.96356,0.93255
332.495,20.06962,-1.62314,1.96363,0.93218
333.095,20.08774,-1.64562,1.963,0.93181
333.695,20.10589,-1.67304,1.96197,0.93144
334.295,20.12399,-1.69551,1.9579,0.93106
334.895,20.14205,-1.72226,1.95544,0.93069
335.495,20.1601,-1.74667,1.9536,0.93032
336.095,20.1783,-1.77152,1.94878,0.92995
336.695,20.19649,-1.79734,1.94193,0.92957
337.295,20.2147,-1.82036,1.93385,0.9292
337.895,20.23303,-1.848,1.9243,0.92882
338.495,20.25145,-1.86988,1.91746,0.92845
339.095,20.26975,-1.89897,1.91046,0.92807
339.695,20.28796,-1.92109,1.89655,0.9277
340.295,20.30633,-1.94907,1.88537,0.92732
340.895,20.3246,-1.97157,1.87443,0.92695
341.495,20.34281,-1.99852,1.86043,0.92657
342.095,20.36114,-2.02306,1.83986,0.92619
342.695,20.3795,-2.04884,1.8242,0.92581
343.295,20.39771,-2.07452,1.8077,0.92544
343.895,20.41599,-2.0981,1.78823,0.92506
344.495,20.43419,-2.12464,1.76496,0.92468
345.095,20.4524,-2.14669,1.74069,0.9243
345.695,20.47055,-2.1743,1.71502,0.92392
346.295,20.48874,-2.19565,1.68735,0.92354
346.895,20.5069,-2.22221,1.66087,0.92316
347.495,20.52505,-2.24264,1.62988,0.92278
348.095,20.54331,-2.267,1.59697,0.9224
348.695,20.56157,-2.28837,1.56047,0.92202
349.295,20.5798,-2.31121,1.5222,0.92164
349.895,20.59809,-2.33392,1.48314,0.92126
350.495,20.61638,-2.35462,1.44369,0.92087
351.095,20.63464,-2.37731,1.4028,0.92049
351.695,20.65288,-2.39587,1.35775,0.92011
352.295,20.67115,-2.41871,1.31134,0.91972
352.895,20.68936,-2.43552,1.26418,0.91934
353.495,20.70751,-2.45579,1.21314,0.91896
354.095,20.72571,-2.47104,1.16807,0.91857
354.695,20.7439,-2.48934,1.11823,0.91819
355.295,20.76214,-2.50484,1.06942,0.9178
355.895,20.78041,-2.52111,1.01979,0.91742
356.495,20.79871,-2.53635,0.97089,0.91703
357.095,20.817,-2.55063,0.92627,0.91665
357.695,20.83517,-2.56524,0.88108,0.91626
358.295,20.85331,-2.57671,0.83654,0.91587
358.895,20.8716,-2.59028,0.79272,0.91548
359.495,20.88978,-2.60071,0.75061,0.9151
360.095,20.90804,-2.61335,0.71162,0.91471
360.695,20.92642,-2.62259,0.67337,0.91432
361.295,20.94475,-2.63273,0.63718,0.91393
361.895,20.96301,-2.64089,0.603,0.91354
362.495,20.98126,-2.64997,0.57048,0.91315
363.095,20.99952,-2.65831,0.5419,0.91276
363.695,21.01774,-2.66566,0.5152,0.91237
364.295,21.036,-2.67334,0.48688,0.91198
364.895,21.05426,-2.67995,0.46393,0.91159
365.495,21.07256,-2.68722,0.4418,0.9112
366.095,21.09076,-2.69237,0.41874,0.91081
366.695,21.10902,-2.69843,0.40156,0.91042
367.295,21.12732,-2.70298,0.37982,0.91003
367.895,21.14548,-2.70888,0.36236,0.90963
368.495,21.1637,-2.71237,0.34776,0.90924
369.095,21.18208,-2.71714,0.33266,0.90885
369.695,21.20039,-2.72133,0.31843,0.90845
370.295,21.21867,-2.72546,0.30579,0.90806
370.895,21.23708,-2.72992,0.29158,0.90767
371.495,21.25535,-2.73402,0.2824,0.90727
372.095,21.27345,-2.73853,0.27286,0.90688
372.695,21.29168,-2.74177,0.26112,0.90648
373.295,21.30987,-2.7451,0.25307,0.90609
373.895,21.32825,-2.7484,0.24463,0.90569
374.495,21.34665,-2.75182,0.23719,0.9053
375.095,21.36522,-2.75412,0.22897,0.9049
375.695,21.38366,-2.7573,0.22331,0.9045
376.295,21.40209,-2.76065,0.21852,0.9041
376.895,21.4203,-2.76277,0.21163,0.90371
377.495,21.43865,-2.76514,0.20558,0.90331
378.095,21.457,-2.76778,0.20322,0.90291
378.695,21.47531,-2.77041,0.19535,0.90251
379.295,21.49373,-2.77294,0.19265,0.90211
379.895,21.51231,-2.77509,0.1881,0.90171
380.495,21.53068,-2.77839,0.18375,0.90131
381.095,21.54905,-2.78113,0.1804,0.90092
381.695,21.56747,-2.78332,0.17579,0.90051
382.295,21.58586,-2.78537,0.17318,0.90011
382.895,21.6042,-2.78803,0.16841,0.89971
383.495,21.62262,-2.78997,0.16586,0.89931
384.095,21.64111,-2.79205,0.16455,0.89891
384.695,21.6596,-2.79402,0.15999,0.89851
385.295,21.67803,-2.79594,0.15832,0.89811
385.895,21.69649,-2.79809,0.15595,0.8977
386.495,21.71495,-2.80014,0.15314,0.8973
387.095,21.7334,-2.80209,0.14973,0.8969
387.695,21.75189,-2.80313,0.1489,0.8965
388.295,21.77037,-2.80528,0.14767,0.89609
388.895,21.78886,-2.80767,0.14407,0.89569
389.495,21.80729,-2.80951,0.14019,0.89528
390.095,21.8257,-2.81092,0.14022,0.89488
390.695,21.84421,-2.81301,0.13728,0.89447
391.295,21.86272,-2.81476,0.13628,0.89407
391.895,21.88119,-2.81631,0.13403,0.89366
392.495,21.89976,-2.81807,0.13232,0.89326
393.095,21.91829,-2.8197,0.13059,0.89285
393.695,21.93675,-2.82172,0.12869,0.89244
394.295,21.95522,-2.82375,0.12801,0.89204
394.895,21.97374,-2.82564,0.12593,0.89163
395.495,21.99227,-2.8274,0.12317,0.89122
396.095,22.01074,-2.82902,0.12372,0.89081
396.695,22.02925,-2.83077,0.1223,0.89041
397.295,22.04779,-2.8324,0.12044,0.89
397.895,22.06629,-2.83416,0.11666,0.88959
398.495,22.08478,-2.83593,0.11746,0.88918
399.095,22.10335,-2.83755,0.11722,0.88877
399.695,22.12187,-2.83903,0.11482,0.88836
400.295,22.1403,-2.84064,0.11329,0.88795
400.895,22.15875,-2.84236,0.11159,0.88754
401.495,22.1773,-2.84421,0.10853,0.88713
402.095,22.19578,-2.84596,0.10807,0.88672
402.695,22.21428,-2.84784,0.10871,0.88631
403.295,22.23295,-2.84972,0.10765,0.8859
403.895,22.25153,-2.85161,0.10634,0.88548
404.495,22.27011,-2.85319,0.10631,0.88507
405.095,22.28869,-2.85498,0.10445,0.88466
405.695,22.3073,-2.85609,0.1035,0.88425
406.295,22.32585,-2.85734,0.10443,0.88383
406.895,22.3444,-2.85864,0.10333,0.88342
407.495,22.36295,-2.8601,0.10152,0.88301
408.095,22.38155,-2.86163,0.10034,0.88259
408.695,22.4001,-2.86292,0.09964833,0.88218
409.295,22.4188,-2.86464,0.10099,0.88176
409.895,22.43743,-2.86586,0.09748808,0.88135
410.495,22.4561,-2.86741,0.09771197,0.88093
411.095,22.47476,-2.86901,0.09874434,0.88052
411.695,22.49343,-2.87005,0.09832169,0.8801
412.295,22.51194,-2.87108,0.09704783,0.87969
412.895,22.53059,-2.87275,0.09483972,0.87927
413.495,22.5491,-2.87336,0.09570876,0.87885
414.095,22.56781,-2.87506,0.0947686,0.87844
414.695,22.58642,-2.87592,0.0932911,0.87802
415.295,22.60515,-2.87758,0.09431026,0.8776
415.895,22.62379,-2.87941,0.09407544,0.87718
416.495,22.64248,-2.88151,0.0943095,0.87677
417.095,22.6611,-2.8829,0.09155967,0.87635
417.695,22.67982,-2.88396,0.09251104,0.87593
418.295,22.69849,-2.88434,0.0902143,0.87551
418.895,22.71714,-2.88686,0.09092832,0.87509
419.495,22.7358,-2.88756,0.09003628,0.87467
420.095,22.75445,-2.88914,0.08932369,0.87425
420.695,22.77309,-2.89097,0.09047801,0.87383
421.295,22.79177,-2.89258,0.09047641,0.87341
421.895,22.81051,-2.89443,0.09033651,0.87299
422.495,22.82925,-2.89598,0.09070909,0.87257
423.095,22.84798,-2.89761,0.08946554,0.87215
423.695,22.86665,-2.89928,0.08989414,0.87173
424.295,22.88533,-2.90054,0.09049149,0.8713
424.895,22.90405,-2.90194,0.09088147,0.87088
425.495,22.92277,-2.90293,0.09081289,0.87046
426.095,22.94145,-2.9034,0.09008154,0.87004
426.695,22.96024,-2.90419,0.09064293,0.86961
427.295,22.97901,-2.90486,0.08975601,0.86919
427.895,22.9977,-2.90653,0.09029158,0.86877
428.495,23.0163,-2.90797,0.09012338,0.86834
429.095,23.03496,-2.90897,0.09065915,0.86792
429.695,23.0537,-2.91039,0.08989104,0.86749
430.295,23.07246,-2.91211,0.08884931,0.86707
430.895,23.09129,-2.91366,0.08855998,0.86664
431.495,23.1102,-2.91361,0.08964541,0.86622
432.095,23.12905,-2.91496,0.08988769,0.86579
432.695,23.14781,-2.91558,0.08924379,0.86537
433.295,23.1665,-2.91686,0.08832417,0.86494
433.895,23.1853,-2.9186,0.08815164,0.86452
434.495,23.2041,-2.92022,0.08860188,0.86409
435.095,23.22285,-2.92071,0.09044111,0.86366
435.695,23.2416,-2.92211,0.09124264,0.86323
436.295,23.2604,-2.92393,0.09088836,0.86281
436.895,23.27916,-2.92462,0.09112431,0.86238
437.495,23.29796,-2.92557,0.09106167,0.86195
438.095,23.3168,-2.92701,0.09319049,0.86152
438.695,23.33561,-2.92832,0.09154612,0.86109
439.295,23.3545,-2.92944,0.09078462,0.86067
439.895,23.37325,-2.93138,0.09320727,0.86024
440.495,23.39207,-2.93289,0.09527317,0.85981
441.095,23.41092,-2.93432,0.0944595,0.85938
441.695,23.4298,-2.93512,0.09465546,0.85895
442.295,23.4486,-2.93602,0.09511644,0.85852
442.895,23.46733,-2.93745,0.09591368,0.85809
443.495,23.48614,-2.93786,0.09464981,0.85766
444.095,23.5049,-2.93909,0.09604577,0.85723
444.695,23.5238,-2.93924,0.09664765,0.8568
445.295,23.54263,-2.94049,0.09829776,0.85636
445.895,23.5616,-2.94106,0.09915183,0.85593
446.495,23.5805,-2.94199,0.09785203,0.8555
447.095,23.5993,-2.94351,0.10039,0.85507
447.695,23.61815,-2.9445,0.09952014,0.85464
448.295,23.637,-2.94558,0.10032,0.8542
448.895,23.65573,-2.94695,0.09956805,0.85377
449.495,23.67463,-2.9484,0.09964504,0.85334
450.095,23.69344,-2.94958,0.10214,0.8529
450.695,23.71229,-2.95012,0.10302,0.85247
451.295,23.73122,-2.95169,0.1011,0.85204
451.895,23.75016,-2.95207,0.1039,0.8516
452.495,23.76904,-2.95317,0.10533,0.85117
453.095,23.7881,-2.95462,0.10511,0.85073
453.695,23.80697,-2.95522,0.10566,0.8503
454.295,23.82585,-2.95661,0.10669,0.84986
454.895,23.84473,-2.95806,0.10728,0.84943
455.495,23.86366,-2.95909,0.10754,0.84899
456.095,23.88254,-2.95956,0.10712,0.84855
456.695,23.90148,-2.9609,0.10747,0.84812
457.295,23.9205,-2.96132,0.10689,0.84768
457.895,23.93936,-2.96228,0.10851,0.84725
458.495,23.95824,-2.96388,0.10964,0.84681
459.095,23.97717,-2.96527,0.10877,0.84637
459.695,23.99605,-2.96554,0.10996,0.84593
460.295,24.01489,-2.96722,0.11179,0.8455
460.895,24.0338,-2.96804,0.11261,0.84506
461.495,24.05275,-2.96862,0.11228,0.84462
462.095,24.0717,-2.96865,0.1083,0.84418
462.695,24.09066,-2.96865,0.1126,0.84374
463.295,24.10959,-2.96865,0.11188,0.8433
463.895,24.1285,-2.97036,0.11243,0.84286
464.495,24.14743,-2.9711,0.11307,0.84242
465.095,24.1664,-2.97281,0.11536,0.84199
465.695,24.18536,-2.97392,0.1132,0.84155
466.295,24.20436,-2.97533,0.11446,0.84111
466.895,24.22331,-2.97678,0.11472,0.84066
467.495,24.24224,-2.97813,0.11647,0.84022
468.095,24.2611,-2.97838,0.11489,0.83978
468.695,24.28013,-2.97988,0.11545,0.83934
469.295,24.29916,-2.98051,0.11573,0.8389
469.895,24.31813,-2.98168,0.11606,0.83846
470.495,24.33718,-2.98327,0.11594,0.83802
471.095,24.3562,-2.98375,0.11676,0.83758
471.695,24.37514,-2.9848,0.11556,0.83713
472.295,24.39409,-2.98598,0.11535,0.83669
472.895,24.4131,-2.98668,0.11785,0.83625
473.495,24.43205,-2.98782,0.11635,0.8358
474.095,24.45103,-2.98914,0.11824,0.83536
474.695,24.47004,-2.98946,0.12058,0.83492
475.295,24.4891,-2.99094,0.12115,0.83447
475.895,24.50806,-2.9924,0.11997,0.83403
476.495,24.527,-2.99333,0.11985,0.83359
477.095,24.54585,-2.99412,0.11908,0.83314
477.695,24.5647,-2.99555,0.12072,0.8327
478.295,24.58374,-2.99472,0.12165,0.83225
478.895,24.60276,-2.99619,0.12388,0.83181
479.495,24.62183,-2.99634,0.1218,0.83136
480.095,24.64104,-2.99765,0.12388,0.83092
480.695,24.66016,-2.99764,0.12269,0.83047
481.295,24.67916,-2.99906,0.12225,0.83002
481.895,24.6982,-2.99929,0.12289,0.82958
482.495,24.71726,-3.00076,0.12417,0.82913
483.095,24.7363,-3.00196,0.12709,0.82869
483.695,24.7553,-3.00217,0.12672,0.82824
484.295,24.7744,-3.00432,0.12575,0.82779
484.895,24.79342,-3.00523,0.12554,0.82734
485.495,24.81241,-3.00662,0.12416,0.8269
486.095,24.83144,-3.00804,0.12588,0.82645
486.695,24.8505,-3.00875,0.12599,0.826
487.295,24.8695,-3.0098,0.12526,0.82555
487.895,24.88867,-3.01086,0.12666,0.8251
488.495,24.90774,-3.01137,0.127,0.82466
489.095,24.92683,-3.0121,0.12858,0.82421
489.695,24.9459,-3.01267,0.12855,0.82376
490.295,24.96499,-3.01434,0.12889,0.82331
490.895,24.98408,-3.01597,0.12852,0.82286
491.495,25.00321,-3.01729,0.12957,0.82241
492.095,25.0223,-3.01742,0.13001,0.82196
492.695,25.0413,-3.01865,0.13087,0.82151
493.295,25.0604,-3.01817,0.1309,0.82106
493.895,25.07956,-3.01863,0.1308,0.82061
494.495,25.09866,-3.0186,0.12951,0.82016
495.095,25.1178,-3.01915,0.13122,0.81971
495.695,25.13695,-3.01993,0.12957,0.81926
496.295,25.15606,-3.02113,0.13192,0.8188
496.895,25.17514,-3.02133,0.13079,0.81835
497.495,25.1942,-3.02276,0.13137,0.8179
498.095,25.21333,-3.02283,0.13261,0.81745
498.695,25.23248,-3.02381,0.13139,0.817
499.295,25.2516,-3.02417,0.1317,0.81654
499.895,25.27071,-3.025,0.1323,0.81609
500.495,25.28985,-3.02572,0.13206,0.81564
501.095,25.3089,-3.02725,0.13056,0.81519
501.695,25.328,-3.02781,0.13264,0.81473
502.295,25.34712,-3.02876,0.13352,0.81428
502.895,25.36628,-3.0302,0.13278,0.81382
503.495,25.38545,-3.03059,0.13308,0.81337
504.095,25.40461,-3.03161,0.13594,0.81292
504.695,25.42372,-3.03177,0.1358,0.81246
505.295,25.44286,-3.03318,0.13462,0.81201
505.895,25.46205,-3.03322,0.13559,0.81155
506.495,25.4813,-3.03445,0.13514,0.8111
507.095,25.50045,-3.03442,0.13506,0.81064
507.695,25.51962,-3.03586,0.13516,0.81019
508.295,25.5388,-3.03583,0.13523,0.80973
508.895,25.5579,-3.0367,0.13638,0.80928
509.495,25.5769,-3.03718,0.13714,0.80882
510.095,25.59611,-3.03783,0.13769,0.80837
510.695,25.6153,-3.03847,0.13912,0.80791
511.295,25.63445,-3.03947,0.14017,0.80745
511.895,25.65381,-3.03993,0.14022,0.807
512.495,25.67299,-3.041,0.14182,0.80654
513.095,25.69217,-3.04138,0.14071,0.80608
513.695,25.71133,-3.04227,0.13909,0.80562
514.295,25.73051,-3.04274,0.1405,0.80517
514.895,25.74964,-3.04277,0.14185,0.80471
515.495,25.76891,-3.04406,0.1444,0.80425
516.095,25.78818,-3.04407,0.14577,0.80379
516.695,25.80745,-3.04407,0.1469,0.80334
517.295,25.8267,-3.04423,0.14711,0.80288
517.895,25.846,-3.04557,0.14734,0.80242
518.495,25.86524,-3.04581,0.14741,0.80196
519.095,25.88445,-3.04709,0.14846,0.8015
519.695,25.9036,-3.04783,0.14946,0.80104
520.295,25.92282,-3.04834,0.15129,0.80058
520.895,25.94203,-3.04858,0.1519,0.80012
521.495,25.96131,-3.04968,0.1506,0.79966
522.095,25.98049,-3.04972,0.15299,0.7992
522.695,25.9998,-3.05111,0.15309,0.79874
523.295,26.01902,-3.05109,0.15483,0.79828
523.895,26.03811,-3.05166,0.15547,0.79782
524.495,26.05736,-3.05243,0.15671,0.79736
525.095,26.07668,-3.05241,0.15651,0.7969
525.695,26.09593,-3.05353,0.15854,0.79644
526.295,26.11525,-3.05372,0.15967,0.79598
526.895,26.1347,-3.05511,0.15858,0.79552
527.495,26.154,-3.0552,0.16013,0.79506
528.095,26.17324,-3.05669,0.16168,0.79459
528.695,26.1925,-3.05662,0.1625,0.79413
529.295,26.21171,-3.05799,0.16237,0.79367
529.895,26.23087,-3.05791,0.16484,0.79321
530.495,26.25,-3.0579,0.16557,0.79275
531.095,26.2694,-3.0579,0.16684,0.79228
531.695,26.28877,-3.0579,0.16504,0.79182
532.295,26.30807,-3.05865,0.1648,0.79136
532.895,26.3276,-3.05867,0.16587,0.7909
533.495,26.3469,-3.0599,0.16666,0.79043
534.095,26.36611,-3.05999,0.16705,0.78997
534.695,26.38539,-3.06149,0.16878,0.7895
535.295,26.40472,-3.06127,0.16922,0.78904
535.895,26.42403,-3.06238,0.16928,0.78858
536.495,26.44339,-3.06252,0.17199,0.78811
537.095,26.4628,-3.06367,0.1726,0.78765
537.695,26.48201,-3.06364,0.17347,0.78718
538.295,26.50135,-3.06379,0.17251,0.78672
538.895,26.5207,-3.06494,0.17287,0.78625
539.495,26.54007,-3.06537,0.17351,0.78579
540.095,26.5594,-3.06768,0.17346,0.78532
540.695,26.57876,-3.06766,0.17349,0.78486
541.295,26.59805,-3.06895,0.17415,0.78439
541.895,26.61732,-3.06898,0.17415,0.78393
542.495,26.63666,-3.06898,0.17573,0.78346
543.095,26.656,-3.07004,0.17708,0.783
543.695,26.6753,-3.07029,0.1758,0.78253
544.295,26.69472,-3.07039,0.17644,0.78206
544.895,26.7141,-3.07171,0.17653,0.7816
545.495,26.7335,-3.07163,0.18098,0.78113
546.095,26.75282,-3.07162,0.17668,0.78066
546.695,26.7722,-3.07162,0.17807,0.7802
547.295,26.79148,-3.07218,0.17963,0.77973
547.895,26.81082,-3.07292,0.17837,0.77926
548.495,26.83015,-3.07294,0.17901,0.7788
549.095,26.84955,-3.07428,0.17889,0.77833
549.695,26.869,-3.07426,0.17826,0.77786
550.295,26.8882,-3.07427,0.17861,0.77739
550.895,26.9076,-3.07425,0.17748,0.77692
551.495,26.9269,-3.07418,0.17888,0.77646
552.095,26.9462,-3.07555,0.17857,0.77599
552.695,26.9656,-3.07552,0.1763,0.77552
553.295,26.98505,-3.07765,0.17638,0.77505
553.895,27.0044,-3.07818,0.17712,0.77458
554.495,27.0239,-3.07827,0.17388,0.77411
555.095,27.0433,-3.07963,0.17259,0.77364
555.695,27.0627,-3.07954,0.1719,0.77317
556.295,27.08202,-3.07953,0.17092,0.77271
556.895,27.10143,-3.07948,0.16992,0.77224
557.495,27.12077,-3.07928,0.16871,0.77177
558.095,27.1401,-3.08054,0.16617,0.7713
558.695,27.15943,-3.08052,0.16601,0.77083
559.295,27.17882,-3.08052,0.16535,0.77036
559.895,27.1982,-3.08053,0.16547,0.76989
560.495,27.21766,-3.08105,0.1689,0.76942
561.095,27.2372,-3.08197,0.16603,0.76894
561.695,27.25661,-3.08186,0.16359,0.76847
562.295,27.27598,-3.08324,0.16362,0.768
562.895,27.2954,-3.08327,0.16336,0.76753
563.495,27.31482,-3.08327,0.16492,0.76706
564.095,27.3342,-3.08334,0.16628,0.76659
564.695,27.3537,-3.08468,0.16651,0.76612
565.295,27.3732,-3.08456,0.16798,0.76565
565.895,27.39255,-3.08552,0.1653,0.76517
566.495,27.412,-3.08589,0.16502,0.7647
567.095,27.4314,-3.0859,0.1665,0.76423
567.695,27.4508,-3.08591,0.16752,0.76376
568.295,27.4702,-3.08597,0.16777,0.76329
568.895,27.4897,-3.08722,0.16601,0.76281
569.495,27.50907,-3.08721,0.16614,0.76234
570.095,27.52846,-3.08854,0.16567,0.76187
570.695,27.54785,-3.08854,0.16391,0.7614
571.295,27.56731,-3.08855,0.16533,0.76092
571.895,27.5868,-3.089,0.16676,0.76045
572.495,27.6064,-3.08989,0.16589,0.75998
573.095,27.6259,-3.08986,0.16733,0.7595
573.695,27.64542,-3.08986,0.16663,0.75903
574.295,27.66488,-3.08995,0.16513,0.75856
574.895,27.6844,-3.09126,0.16584,0.75808
575.495,27.7038,-3.09117,0.16779,0.75761
576.095,27.72327,-3.09111,0.16852,0.75713
576.695,27.7428,-3.0919,0.16764,0.75666
577.295,27.7624,-3.09184,0.16635,0.75618
577.895,27.78189,-3.09184,0.16705,0.75571
578.495,27.80143,-3.09192,0.16866,0.75524
579.095,27.821,-3.09319,0.16906,0.75476
579.695,27.84048,-3.09315,0.16866,0.75429
580.295,27.86,-3.09315,0.17052,0.75381
580.895,27.8795,-3.0935,0.16959,0.75334
581.495,27.89902,-3.09414,0.16644,0.75286
582.095,27.9185,-3.09414,0.16857,0.75239
582.695,27.93798,-3.09437,0.16883,0.75191
583.295,27.9575,-3.09548,0.16761,0.75143
583.895,27.977,-3.09545,0.1701,0.75096
584.495,27.99646,-3.09546,0.1679,0.75048
585.095,28.01605,-3.09585,0.17145,0.75001
585.695,28.0356,-3.09681,0.17162,0.74953
586.295,28.0552,-3.09677,0.17193,0.74905
586.895,28.0748,-3.09672,0.17057,0.74858
587.495,28.09416,-3.09783,0.17199,0.7481
588.095,28.11365,-3.09807,0.17341,0.74762
588.695,28.13312,-3.09801,0.17182,0.74715
589.295,28.15263,-3.09932,0.17064,0.74667
589.895,28.1722,-3.09951,0.17166,0.74619
590.495,28.1919,-3.09952,0.1746,0.74572
591.095,28.21138,-3.0996,0.1746,0.74524
591.695,28.23092,-3.10087,0.17361,0.74476
592.295,28.25048,-3.10083,0.17423,0.74428
592.895,28.27005,-3.10083,0.17311,0.74381
593.495,28.28957,-3.1012,0.1725,0.74333
594.095,28.3091,-3.10215,0.17435,0.74285
594.695,28.32868,-3.10215,0.17597,0.74237
595.295,28.3482,-3.1021,0.17545,0.7419
595.895,28.36778,-3.10346,0.17627,0.74142
596.495,28.3872,-3.10347,0.17491,0.74094
597.095,28.4068,-3.10348,0.17656,0.74046
597.695,28.42639,-3.1039,0.17513,0.73998
598.295,28.446,-3.10481,0.17632,0.7395
598.895,28.4657,-3.10478,0.17762,0.73903
599.495,28.4854,-3.10479,0.17861,0.73855
600.095,28.505,-3.1051,0.17693,0.73807
600.695,28.5245,-3.10615,0.17681,0.73759
601.295,28.5441,-3.10614,0.17676,0.73711
601.895,28.56363,-3.10574,0.17906,0.73663
602.495,28.58326,-3.10577,0.17897,0.73615
603.095,28.6028,-3.10577,0.18049,0.73567
603.695,28.6224,-3.10577,0.17914,0.73519
604.295,28.64198,-3.10578,0.18029,0.73471
604.895,28.6616,-3.10591,0.18127,0.73423
605.495,28.6812,-3.10641,0.17975,0.73375
606.095,28.7008,-3.10643,0.18302,0.73327
606.695,28.72042,-3.10687,0.18323,0.73279
607.295,28.7401,-3.10774,0.18313,0.73231
607.895,28.7596,-3.10775,0.18512,0.73183
608.495,28.7792,-3.10775,0.18543,0.73135
609.095,28.7988,-3.10775,0.18791,0.73087
609.695,28.8184,-3.10775,0.18661,0.73039
610.295,28.83812,-3.10775,0.18936,0.72991
610.895,28.85775,-3.10769,0.19145,0.72943
611.495,28.8774,-3.10905,0.19168,0.72895
612.095,28.89698,-3.10906,0.19461,0.72847
612.695,28.91658,-3.10906,0.19458,0.72798
613.295,28.93617,-3.10906,0.1925,0.7275
613.895,28.9557,-3.10906,0.19229,0.72702
614.495,28.9752,-3.10909,0.1917,0.72654
615.095,28.9947,-3.10959,0.19294,0.72606
615.695,29.01424,-3.11041,0.19554,0.72558
616.295,29.0339,-3.11081,0.19816,0.7251
616.895,29.0537,-3.11171,0.19719,0.72461
617.495,29.0735,-3.1117,0.19522,0.72413
618.095,29.09331,-3.1117,0.19734,0.72365
618.695,29.1129,-3.1117,0.19996,0.72317
619.295,29.13257,-3.1117,0.20054,0.72269
619.895,29.15225,-3.11167,0.19937,0.7222
620.495,29.17192,-3.11259,0.20303,0.72172
621.095,29.1917,-3.11301,0.20388,0.72124
621.695,29.21143,-3.11302,0.20526,0.72076
622.295,29.23106,-3.11302,0.20726,0.72027
622.895,29.2507,-3.11302,0.20938,0.71979
623.495,29.2704,-3.113,0.21016,0.71931
624.095,29.29,-3.11407,0.2085,0.71883
624.695,29.30971,-3.11433,0.21054,0.71834
625.295,29.3294,-3.11433,0.21284,0.71786
625.895,29.3491,-3.11531,0.21431,0.71738
626.495,29.36879,-3.11565,0.21126,0.71689
627.095,29.38843,-3.11565,0.21256,0.71641
627.695,29.40812,-3.1159,0.21305,0.71593
628.295,29.42776,-3.117,0.21609,0.71544
628.895,29.44742,-3.11697,0.2161,0.71496
629.495,29.4671,-3.11696,0.21792,0.71447
630.095,29.48684,-3.11811,0.21346,0.71399
630.695,29.5065,-3.11828,0.21989,0.71351
631.295,29.52625,-3.11828,0.21827,0.71302
631.895,29.54595,-3.11933,0.21895,0.71254
632.495,29.5656,-3.11958,0.21872,0.71206
633.095,29.5852,-3.1196,0.22036,0.71157
633.695,29.60495,-3.11964,0.21944,0.71109
634.295,29.6246,-3.11924,0.22103,0.7106
634.895,29.64433,-3.11927,0.22019,0.71012
635.495,29.6641,-3.11927,0.22185,0.70963
636.095,29.6838,-3.11927,0.2212,0.70915
636.695,29.7035,-3.11927,0.22124,0.70866
637.295,29.7232,-3.11927,0.22,0.70818
637.895,29.7429,-3.11923,0.2214,0.70769
638.495,29.7626,-3.12021,0.21907,0.70721
639.095,29.7823,-3.12058,0.22064,0.70672
639.695,29.8021,-3.12059,0.22295,0.70624
640.295,29.8219,-3.12059,0.22357,0.70575
640.895,29.8415,-3.12059,0.22318,0.70527
641.495,29.86123,-3.12059,0.22305,0.70478
642.095,29.88095,-3.12059,0.22085,0.7043
642.695,29.90063,-3.12059,0.22122,0.70381
643.295,29.92036,-3.12059,0.22168,0.70333
643.895,29.94022,-3.1206,0.22226,0.70284
644.495,29.95993,-3.12195,0.22131,0.70236
645.095,29.9796,-3.12191,0.22142,0.70187
645.695,29.9994,-3.12191,0.22163,0.70139
646.295,30.0192,-3.12191,0.21879,0.7009
646.895,30.0389,-3.12191,0.21864,0.70041
647.495,30.0586,-3.12256,0.22074,0.69993
648.095,30.0784,-3.12257,0.21774,0.69944
648.695,30.0981,-3.12257,0.21745,0.69896
649.295,30.11788,-3.12257,0.21709,0.69847
649.895,30.1377,-3.12257,0.21922,0.69798
650.495,30.15738,-3.12276,0.21812,0.6975
651.095,30.17711,-3.12388,0.21631,0.69701
651.695,30.19683,-3.1251,0.21507,0.69652
652.295,30.2165,-3.12519,0.21483,0.69604
652.895,30.23622,-3.1252,0.21327,0.69555
653.495,30.256,-3.12533,0.21556,0.69506
654.095,30.2758,-3.12658,0.21346,0.69458
654.695,30.29556,-3.12651,0.21409,0.69409
655.295,30.31527,-3.12618,0.21578,0.6936
655.895,30.33499,-3.12516,0.21414,0.69312
656.495,30.35475,-3.12521,0.21395,0.69263
657.095,30.37448,-3.12549,0.21215,0.69214
657.695,30.3943,-3.12657,0.20985,0.69166
658.295,30.414,-3.12652,0.21014,0.69117
658.895,30.43382,-3.12643,0.20987,0.69068
659.495,30.4535,-3.12776,0.21027,0.69019
660.095,30.4733,-3.12784,0.20888,0.68971
660.695,30.49307,-3.12784,0.20709,0.68922
661.295,30.51285,-3.12784,0.20914,0.68873
661.895,30.5327,-3.12784,0.20761,0.68825
662.495,30.55245,-3.12784,0.20808,0.68776
663.095,30.5723,-3.12784,0.20663,0.68727
663.695,30.592,-3.1279,0.20617,0.68678
664.295,30.6117,-3.12668,0.20631,0.68629
664.895,30.6314,-3.12653,0.20591,0.68581
665.495,30.65113,-3.1266,0.20725,0.68532
666.095,30.67077,-3.12787,0.20448,0.68483
666.695,30.6905,-3.12783,0.20383,0.68434
667.295,30.7103,-3.12783,0.20308,0.68386
667.895,30.7301,-3.12783,0.20172,0.68337
668.495,30.74972,-3.12783,0.2005,0.68288
669.095,30.76963,-3.12783,0.19987,0.68239
669.695,30.78942,-3.12783,0.20075,0.6819
670.295,30.8092,-3.12783,0.19706,0.68142
670.895,30.82909,-3.12783,0.19664,0.68093
671.495,30.8489,-3.12914,0.19849,0.68044
672.095,30.8686,-3.12912,0.19832,0.67995
672.695,30.88843,-3.13068,0.19731,0.67946
673.295,30.9082,-3.13069,0.19452,0.67897
673.895,30.928,-3.13069,0.19412,0.67849
674.495,30.9478,-3.13069,0.19798,0.678
675.095,30.96762,-3.13069,0.19433,0.67751
675.695,30.98742,-3.13067,0.19387,0.67702
676.295,31.00716,-3.1299,0.19266,0.67653
676.895,31.02689,-3.12938,0.19224,0.67604
677.495,31.04662,-3.12938,0.19268,0.67555
678.095,31.0664,-3.12938,0.19177,0.67506
678.695,31.08615,-3.12938,0.18894,0.67458
679.295,31.1059,-3.12938,0.19216,0.67409
679.895,31.1257,-3.12932,0.19153,0.6736
680.495,31.1455,-3.13045,0.18868,0.67311
681.095,31.16515,-3.13139,0.19103,0.67262
681.695,31.1848,-3.13128,0.18805,0.67213
682.295,31.20453,-3.13206,0.18904,0.67164
682.895,31.22428,-3.132,0.18695,0.67115
683.495,31.24407,-3.132,0.18504,0.67066
684.095,31.26398,-3.132,0.18558,0.67018
684.695,31.28388,-3.13195,0.18428,0.66969
685.295,31.3037,-3.13302,0.18406,0.6692
685.895,31.3235,-3.13331,0.18484,0.66871
686.495,31.3433,-3.13332,0.18359,0.66822
687.095,31.36314,-3.13328,0.18381,0.66773
687.695,31.38294,-3.13191,0.18247,0.66724
688.295,31.4027,-3.132,0.18227,0.66675
688.895,31.42251,-3.13201,0.18232,0.66626
689.495,31.44228,-3.13198,0.18099,0.66577
690.095,31.46213,-3.13291,0.18117,0.66528
690.695,31.48198,-3.13332,0.17913,0.66479
691.295,31.5018,-3.13333,0.17947,0.6643
691.895,31.5217,-3.13334,0.17995,0.66381
692.495,31.54144,-3.13353,0.17879,0.66332
693.095,31.56118,-3.13383,0.17805,0.66283
693.695,31.58097,-3.13334,0.17889,0.66234
694.295,31.60077,-3.13333,0.18071,0.66185
694.895,31.62057,-3.13333,0.1792,0.66136
695.495,31.64082,-3.13333,0.18163,0.66088
696.095,31.661,-3.13333,0.18062,0.66039
696.195,31.6638,-3.13333,0.18027,0.6603