File: 01_Data/Rayon_Bamboo_Pillowcase/STA/N2/30K_min/Rayon_Bamboo_Pillowcase_STA_N2_30KData_220523_R3.csv
##Temp./Â°C,Time/min,Mass loss(subtr.2)/mg,DSC(subtr.2)/(mW/mg),Sensit./(uV/mW)
48.595,10.01,-0.01439,0.02650482,1.054
49.195,10.536,-0.01796615,0.06495699,1.05388
49.795,10.6549,-0.01748255,0.09583001,1.05375
50.395,10.7402,-0.01613062,0.12422,1.05363
50.995,10.80955,-0.01741785,0.15111,1.05351
51.595,10.86899,-0.01590117,0.17894,1.05338
52.195,10.9223,-0.01528529,0.20218,1.05326
52.795,10.97059,-0.0178611,0.22298,1.05313
53.395,11.01496,-0.01728434,0.24693,1.05301
53.995,11.05681,-0.01723444,0.26647,1.05288
54.595,11.0967,-0.0179847,0.28609,1.05275
55.195,11.13422,-0.01785277,0.30576,1.05262
55.795,11.17032,-0.01766024,0.32544,1.05249
56.395,11.20502,-0.01735704,0.34383,1.05237
56.995,11.2384,-0.01783343,0.35921,1.05224
57.595,11.27084,-0.01871965,0.37623,1.0521
58.195,11.30208,-0.01687395,0.39098,1.05197
58.795,11.33268,-0.01601535,0.40518,1.05184
59.395,11.36255,-0.01665287,0.42403,1.05171
59.995,11.3916,-0.01764343,0.43449,1.05157
60.595,11.42009,-0.0180083,0.45156,1.05144
61.195,11.448,-0.01704453,0.46441,1.05131
61.795,11.4755,-0.01755199,0.47869,1.05117
62.395,11.50245,-0.0188304,0.49165,1.05103
62.995,11.529,-0.01846911,0.5042,1.0509
63.595,11.5551,-0.01764018,0.51641,1.05076
64.195,11.58094,-0.01755587,0.5308,1.05062
64.795,11.6064,-0.01850763,0.54249,1.05048
65.395,11.63141,-0.01905801,0.55501,1.05034
65.995,11.6564,-0.01924954,0.56591,1.0502
66.595,11.681,-0.0200861,0.57771,1.05006
67.195,11.7058,-0.02116946,0.59055,1.04992
67.795,11.73016,-0.0204312,0.60169,1.04978
68.395,11.75428,-0.02058251,0.61296,1.04964
68.995,11.7781,-0.02086609,0.62386,1.0495
69.595,11.8017,-0.02074263,0.63264,1.04935
70.195,11.82516,-0.02090367,0.64554,1.04921
70.795,11.8485,-0.02086717,0.65661,1.04906
71.395,11.87163,-0.02072065,0.66551,1.04892
71.995,11.8946,-0.02107501,0.67549,1.04877
72.595,11.91741,-0.02083071,0.68718,1.04862
73.195,11.94009,-0.02097138,0.69737,1.04848
73.795,11.96275,-0.02101864,0.70844,1.04833
74.395,11.9853,-0.02001328,0.71827,1.04818
74.995,12.0078,-0.02019685,0.72905,1.04803
75.595,12.03012,-0.02163357,0.73787,1.04788
76.195,12.05224,-0.02173228,0.7475,1.04773
76.795,12.07434,-0.0224946,0.75718,1.04758
77.395,12.09634,-0.02302395,0.76638,1.04742
77.995,12.1182,-0.02173877,0.77759,1.04727
78.595,12.14007,-0.02327981,0.78936,1.04712
79.195,12.16178,-0.02403434,0.79876,1.04696
79.795,12.18344,-0.02383911,0.8078,1.04681
80.395,12.205,-0.02505509,0.81672,1.04665
80.995,12.22645,-0.02502916,0.82789,1.0465
81.595,12.24789,-0.02515595,0.83755,1.04634
82.195,12.26905,-0.02515784,0.8464,1.04618
82.795,12.2904,-0.02501958,0.85538,1.04603
83.395,12.3118,-0.02362337,0.8665,1.04587
83.995,12.33314,-0.02494848,0.876,1.04571
84.595,12.35454,-0.02375123,0.88528,1.04555
85.195,12.3757,-0.02496742,0.8945,1.04539
85.795,12.39665,-0.0261205,0.90431,1.04523
86.395,12.41757,-0.02641664,0.91255,1.04507
86.995,12.43849,-0.02660431,0.92468,1.0449
87.595,12.45935,-0.02655429,0.9375,1.04474
88.195,12.4803,-0.02800949,0.94594,1.04458
88.795,12.50109,-0.02798312,0.95634,1.04441
89.395,12.52181,-0.02911788,0.96593,1.04425
89.995,12.5426,-0.02929171,0.97689,1.04408
90.595,12.5633,-0.03025047,0.98456,1.04392
91.195,12.58398,-0.03062029,0.99502,1.04375
91.795,12.6046,-0.03144485,1.00278,1.04358
92.395,12.6252,-0.03188031,1.01499,1.04342
92.995,12.64565,-0.03311261,1.02296,1.04325
93.595,12.6661,-0.03336286,1.0335,1.04308
94.195,12.68661,-0.03332779,1.04124,1.04291
94.795,12.7071,-0.03457071,1.05008,1.04274
95.395,12.72755,-0.03469269,1.05819,1.04257
95.995,12.74795,-0.03469392,1.06746,1.0424
96.595,12.76832,-0.03462997,1.07664,1.04222
97.195,12.78866,-0.03601281,1.08284,1.04205
97.795,12.8089,-0.03601968,1.09165,1.04188
98.395,12.82912,-0.0360208,1.09714,1.0417
98.995,12.84942,-0.03602796,1.10495,1.04153
99.595,12.8697,-0.03697574,1.112,1.04135
100.195,12.89002,-0.03732969,1.11729,1.04118
100.795,12.91046,-0.03835842,1.1245,1.041
101.395,12.9308,-0.03867528,1.13191,1.04082
101.995,12.95097,-0.0399948,1.13648,1.04064
102.595,12.9712,-0.03997061,1.14457,1.04047
103.195,12.99136,-0.03994576,1.14967,1.04029
103.795,13.01155,-0.04106675,1.15336,1.04011
104.395,13.03171,-0.0413454,1.15783,1.03993
104.995,13.0518,-0.04263989,1.16451,1.03975
105.595,13.07197,-0.0426057,1.16858,1.03956
106.195,13.09207,-0.0432141,1.17458,1.03938
106.795,13.1123,-0.04525263,1.1784,1.0392
107.395,13.13233,-0.04523251,1.18011,1.03902
107.995,13.1524,-0.04524749,1.18296,1.03883
108.595,13.17256,-0.04663803,1.18742,1.03865
109.195,13.19255,-0.04655692,1.19053,1.03846
109.795,13.21265,-0.04655831,1.19389,1.03828
110.395,13.23269,-0.04667523,1.19505,1.03809
110.995,13.25275,-0.04803915,1.19745,1.0379
111.595,13.27278,-0.04923807,1.19862,1.03772
112.195,13.2927,-0.04979209,1.19935,1.03753
112.795,13.3126,-0.05047529,1.2025,1.03734
113.395,13.33269,-0.05047013,1.20191,1.03715
113.995,13.3527,-0.05138552,1.19933,1.03696
114.595,13.3728,-0.05180808,1.20244,1.03677
115.195,13.39303,-0.05184357,1.20003,1.03658
115.795,13.413,-0.05323344,1.20314,1.03639
116.395,13.4329,-0.05314453,1.19931,1.03619
116.995,13.45285,-0.05311064,1.19934,1.036
117.595,13.47269,-0.05402254,1.19858,1.03581
118.195,13.4926,-0.05445448,1.19749,1.03561
118.795,13.5124,-0.05456133,1.19443,1.03542
119.395,13.53236,-0.05580118,1.19234,1.03522
119.995,13.5522,-0.05662807,1.19103,1.03502
120.595,13.57206,-0.05710293,1.18887,1.03483
121.195,13.59191,-0.05848412,1.18575,1.03463
121.795,13.61171,-0.05841557,1.18254,1.03443
122.395,13.6316,-0.05841809,1.17936,1.03423
122.995,13.6515,-0.05851781,1.17532,1.03404
123.595,13.67123,-0.05972956,1.17196,1.03384
124.195,13.69098,-0.06108715,1.16864,1.03364
124.795,13.7107,-0.06104267,1.16578,1.03343
125.395,13.7303,-0.06104007,1.16028,1.03323
125.995,13.75,-0.06104,1.15817,1.03303
126.595,13.7697,-0.06104237,1.15156,1.03283
127.195,13.78926,-0.06163809,1.14705,1.03262
127.795,13.8089,-0.06237032,1.14306,1.03242
128.395,13.8285,-0.06236083,1.13941,1.03222
128.995,13.84806,-0.06235607,1.13329,1.03201
129.595,13.8676,-0.06229731,1.12742,1.03181
130.195,13.8871,-0.06305762,1.12209,1.0316
130.795,13.9065,-0.06296692,1.11835,1.03139
131.395,13.92601,-0.06407366,1.11362,1.03118
131.995,13.94551,-0.06504916,1.10969,1.03098
132.595,13.965,-0.06499835,1.10592,1.03077
133.195,13.98448,-0.06492998,1.10095,1.03056
133.795,14.00394,-0.06640226,1.09531,1.03035
134.395,14.0233,-0.06767904,1.08935,1.03014
134.995,14.0426,-0.06763343,1.08521,1.02993
135.595,14.0619,-0.06763158,1.08395,1.02972
136.195,14.08123,-0.06764191,1.07746,1.0295
136.795,14.10053,-0.06692562,1.07234,1.02929
137.395,14.11984,-0.06630805,1.06719,1.02908
137.995,14.13911,-0.06626582,1.06516,1.02886
138.595,14.15846,-0.06762126,1.06058,1.02865
139.195,14.1778,-0.06762919,1.0554,1.02843
139.795,14.19711,-0.06762992,1.05261,1.02822
140.395,14.2164,-0.06762999,1.04868,1.028
140.995,14.2356,-0.06762996,1.04485,1.02779
141.595,14.25475,-0.06762955,1.04428,1.02757
142.195,14.27386,-0.06762462,1.03972,1.02735
142.795,14.2929,-0.0675724,1.03669,1.02713
143.395,14.31202,-0.06876123,1.03294,1.02691
143.995,14.33104,-0.06894774,1.03156,1.02669
144.595,14.35007,-0.0689489,1.02874,1.02647
145.195,14.36912,-0.06986142,1.0276,1.02625
145.795,14.3882,-0.07027245,1.0244,1.02603
146.395,14.40719,-0.07027027,1.02358,1.02581
146.995,14.42625,-0.07026976,1.02137,1.02559
147.595,14.44532,-0.07026643,1.01965,1.02536
148.195,14.4644,-0.07022593,1.01813,1.02514
148.795,14.4834,-0.07120638,1.01535,1.02491
149.395,14.5024,-0.07157764,1.01544,1.02469
149.995,14.5214,-0.07158931,1.01341,1.02446
150.595,14.54036,-0.07158984,1.01319,1.02424
151.195,14.5593,-0.07159303,1.01116,1.02401
151.795,14.5784,-0.0718705,1.01183,1.02378
152.395,14.59736,-0.07166114,1.01104,1.02356
152.995,14.61626,-0.07159663,1.01136,1.02333
153.595,14.6352,-0.07159059,1.00928,1.0231
154.195,14.6541,-0.07159006,1.00984,1.02287
154.795,14.67293,-0.07159014,1.00994,1.02264
155.395,14.69181,-0.07159111,1.01165,1.02241
155.995,14.71076,-0.07159604,1.01125,1.02218
156.595,14.72964,-0.07287401,1.01072,1.02195
157.195,14.7485,-0.07358269,1.00955,1.02171
157.795,14.76738,-0.07357004,1.01207,1.02148
158.395,14.7862,-0.07354511,1.0125,1.02125
158.995,14.80497,-0.07408596,1.01131,1.02101
159.595,14.8238,-0.07421292,1.01125,1.02078
160.195,14.84261,-0.07421953,1.01224,1.02054
160.795,14.8614,-0.07421998,1.01331,1.02031
161.395,14.88023,-0.07422,1.01213,1.02007
161.995,14.899,-0.07422,1.01155,1.01984
162.595,14.9179,-0.07422001,1.01017,1.0196
163.195,14.9367,-0.07422014,1.01363,1.01936
163.795,14.95555,-0.07422198,1.01498,1.01912
164.395,14.97434,-0.07424359,1.01375,1.01888
164.995,14.9931,-0.07449907,1.01537,1.01864
165.595,15.01185,-0.07517821,1.01486,1.0184
166.195,15.0305,-0.07519943,1.01419,1.01816
166.795,15.0492,-0.07520007,1.01294,1.01792
167.395,15.0679,-0.07520001,1.01369,1.01768
167.995,15.08663,-0.0752,1.01494,1.01744
168.595,15.10539,-0.0752,1.01713,1.01719
169.195,15.12415,-0.0752,1.0142,1.01695
169.795,15.14285,-0.0752,1.01541,1.01671
170.395,15.16148,-0.0752,1.01571,1.01646
170.995,15.18009,-0.0752,1.01751,1.01622
171.595,15.1987,-0.0752004,1.01531,1.01597
172.195,15.21737,-0.07520872,1.01491,1.01572
172.795,15.2359,-0.07540092,1.01586,1.01548
173.395,15.25448,-0.07552025,1.01622,1.01523
173.995,15.2731,-0.07552497,1.01646,1.01498
174.595,15.29171,-0.07549782,1.01626,1.01473
175.195,15.31035,-0.07654865,1.01539,1.01448
175.795,15.32908,-0.07685116,1.0149,1.01423
176.395,15.3478,-0.07685021,1.01493,1.01398
176.995,15.36636,-0.07685002,1.01463,1.01373
177.595,15.3849,-0.07685,1.01529,1.01348
178.195,15.40342,-0.07685,1.01557,1.01323
178.795,15.422,-0.07685,1.01597,1.01298
179.395,15.4405,-0.07685,1.01723,1.01273
179.995,15.459,-0.07685,1.01818,1.01247
180.595,15.47737,-0.07685,1.01648,1.01222
181.195,15.49574,-0.07685,1.01685,1.01196
181.795,15.51419,-0.07685003,1.01766,1.01171
182.395,15.5326,-0.07685026,1.01964,1.01145
182.995,15.5511,-0.07685135,1.01814,1.0112
183.595,15.56965,-0.076845,1.0169,1.01094
184.195,15.58818,-0.07747374,1.019,1.01068
184.795,15.60656,-0.07750519,1.02109,1.01043
185.395,15.625,-0.07750953,1.01958,1.01017
185.995,15.6435,-0.07750996,1.01872,1.00991
186.595,15.66179,-0.07751,1.01864,1.00965
187.195,15.68017,-0.07751,1.01983,1.00939
187.795,15.69854,-0.07751,1.02121,1.00913
188.395,15.71694,-0.07751,1.02234,1.00887
188.995,15.73528,-0.07751,1.0226,1.00861
189.595,15.7537,-0.07751,1.0226,1.00834
190.195,15.7721,-0.07751,1.02348,1.00808
190.795,15.79045,-0.07751,1.02059,1.00782
191.395,15.80877,-0.07751,1.0236,1.00756
191.995,15.8271,-0.07751,1.02597,1.00729
192.595,15.8454,-0.07751,1.02521,1.00703
193.195,15.8638,-0.07751,1.0281,1.00676
193.795,15.8821,-0.07751,1.02869,1.0065
194.395,15.90034,-0.07751,1.03071,1.00623
194.995,15.91862,-0.07751008,1.0304,1.00596
195.595,15.9369,-0.0775118,1.03103,1.0057
196.195,15.9551,-0.07757896,1.0334,1.00543
196.795,15.9734,-0.07892542,1.03158,1.00516
197.395,15.9917,-0.07883521,1.0324,1.00489
197.995,16.01,-0.07883,1.03559,1.00462
198.595,16.0283,-0.07882,1.03709,1.00435
199.195,16.0466,-0.07845012,1.03803,1.00408
199.795,16.06488,-0.07749316,1.03852,1.00381
200.395,16.08312,-0.07714193,1.03906,1.00354
200.995,16.10143,-0.07717819,1.04013,1.00327
201.595,16.11961,-0.07718005,1.04224,1.00299
202.195,16.13781,-0.07718002,1.04273,1.00272
202.795,16.156,-0.07717996,1.04353,1.00245
203.395,16.1742,-0.07717956,1.04723,1.00217
203.995,16.1924,-0.0771764,1.04478,1.0019
204.595,16.21069,-0.07757095,1.04747,1.00162
205.195,16.2289,-0.07851918,1.05011,1.00135
205.795,16.24709,-0.0785023,1.05189,1.00107
206.395,16.26513,-0.07847542,1.05155,1.00079
206.995,16.28322,-0.0782321,1.0529,1.00052
207.595,16.3014,-0.07717614,1.05597,1.00024
208.195,16.31962,-0.07717863,1.05526,0.99996
208.795,16.33788,-0.07709861,1.05765,0.99968
209.395,16.35621,-0.07846247,1.05928,0.9994
209.995,16.3744,-0.07849224,1.05885,0.99912
210.595,16.3925,-0.07845153,1.06584,0.99884
211.195,16.41065,-0.07954133,1.06278,0.99856
211.795,16.42887,-0.07982143,1.06484,0.99828
212.395,16.44715,-0.07982028,1.06847,0.998
212.995,16.46547,-0.07982003,1.06962,0.99772
213.595,16.48377,-0.07982,1.06736,0.99743
214.195,16.502,-0.07982,1.06954,0.99715
214.795,16.52027,-0.07982,1.07052,0.99687
215.395,16.53841,-0.07982001,1.0721,0.99658
215.995,16.55661,-0.07982013,1.07574,0.9963
216.595,16.57477,-0.07982172,1.07552,0.99601
217.195,16.59291,-0.0798356,1.07402,0.99573
217.795,16.61092,-0.07988226,1.07594,0.99544
218.395,16.62906,-0.08112193,1.07705,0.99515
218.995,16.6472,-0.08039384,1.079,0.99487
219.595,16.6654,-0.08017526,1.08076,0.99458
220.195,16.68354,-0.08015202,1.08197,0.99429
220.795,16.70174,-0.08015011,1.08428,0.994
221.395,16.7199,-0.08015,1.08593,0.99371
221.995,16.7381,-0.08015,1.08507,0.99342
222.595,16.75624,-0.08015,1.08624,0.99313
223.195,16.77437,-0.08015,1.08992,0.99284
223.795,16.79251,-0.08015,1.08761,0.99255
224.395,16.8107,-0.08015,1.08885,0.99226
224.995,16.82873,-0.08015,1.09075,0.99196
225.595,16.84692,-0.08015,1.08954,0.99167
226.195,16.8651,-0.08015003,1.09106,0.99138
226.795,16.8832,-0.0801503,1.09382,0.99108
227.395,16.90134,-0.08015163,1.09462,0.99079
227.995,16.9195,-0.08014383,1.09248,0.99049
228.595,16.93758,-0.08077697,1.0944,0.9902
229.195,16.9557,-0.08120745,1.09535,0.9899
229.795,16.97387,-0.08168791,1.09743,0.98961
230.395,16.9919,-0.08210427,1.0959,0.98931
230.995,17.00995,-0.08212005,1.09692,0.98901
231.595,17.02809,-0.08212092,1.09607,0.98872
232.195,17.0461,-0.08213391,1.09745,0.98842
232.795,17.06416,-0.08232622,1.09932,0.98812
233.395,17.08235,-0.08348634,1.09954,0.98782
233.995,17.10047,-0.08344097,1.09916,0.98752
234.595,17.11855,-0.08343972,1.10028,0.98722
235.195,17.13668,-0.08343995,1.10021,0.98692
235.795,17.15483,-0.08343996,1.10087,0.98662
236.395,17.17292,-0.08343971,1.10083,0.98632
236.995,17.19105,-0.08343867,1.10151,0.98601
237.595,17.20916,-0.08370454,1.10204,0.98571
238.195,17.22727,-0.0848133,1.10198,0.98541
238.795,17.24533,-0.08476623,1.10124,0.9851
239.395,17.2634,-0.08476032,1.10308,0.9848
239.995,17.2815,-0.08475899,1.10262,0.98449
240.595,17.29954,-0.08476349,1.10122,0.98419
241.195,17.31767,-0.08522723,1.10106,0.98388
241.795,17.33579,-0.08612292,1.10256,0.98358
242.395,17.3539,-0.08608385,1.10258,0.98327
242.995,17.372,-0.08608091,1.10294,0.98296
243.595,17.39011,-0.08608045,1.10246,0.98266
244.195,17.40814,-0.08600857,1.1048,0.98235
244.795,17.42618,-0.08742078,1.10669,0.98204
245.395,17.44424,-0.08748922,1.11441,0.98173
245.995,17.46229,-0.08805215,1.12265,0.98142
246.595,17.48033,-0.08881538,1.12939,0.98111
247.195,17.49837,-0.08881951,1.12961,0.9808
247.795,17.5164,-0.08876797,1.12987,0.98049
248.395,17.53445,-0.08983402,1.12887,0.98018
248.995,17.55256,-0.09010082,1.13003,0.97987
249.595,17.57066,-0.0908545,1.12721,0.97956
250.195,17.58876,-0.09147291,1.12398,0.97924
250.795,17.60686,-0.09158783,1.12197,0.97893
251.395,17.6249,-0.09286499,1.12013,0.97862
251.995,17.643,-0.09280988,1.11805,0.9783
252.595,17.661,-0.09388523,1.11635,0.97799
253.195,17.67907,-0.09349921,1.11525,0.97767
253.795,17.6971,-0.09471006,1.1123,0.97736
254.395,17.71511,-0.09526522,1.10924,0.97704
254.995,17.73317,-0.09630561,1.10836,0.97673
255.595,17.75123,-0.09789151,1.10422,0.97641
256.195,17.7693,-0.09807375,1.10072,0.97609
256.795,17.78734,-0.09949599,1.09903,0.97577
257.395,17.80545,-0.10068,1.09991,0.97545
257.995,17.82355,-0.10101,1.09501,0.97514
258.595,17.84163,-0.10239,1.09251,0.97482
259.195,17.85967,-0.10232,1.09152,0.9745
259.795,17.87777,-0.10317,1.09073,0.97418
260.395,17.8959,-0.10393,1.08973,0.97386
260.995,17.91386,-0.10543,1.08822,0.97354
261.595,17.93188,-0.10677,1.08708,0.97321
262.195,17.94995,-0.10791,1.0862,0.97289
262.795,17.96796,-0.10972,1.086,0.97257
263.395,17.98594,-0.11166,1.08648,0.97225
263.995,18.00395,-0.11392,1.08938,0.97192
264.595,18.02199,-0.11613,1.09328,0.9716
265.195,18.04,-0.11769,1.09832,0.97128
265.795,18.05791,-0.11865,1.10134,0.97095
266.395,18.07584,-0.11965,1.10936,0.97063
266.995,18.09376,-0.12128,1.11625,0.9703
267.595,18.11182,-0.12323,1.12435,0.96997
268.195,18.12983,-0.12546,1.13759,0.96965
268.795,18.14795,-0.12816,1.15339,0.96932
269.395,18.1661,-0.13088,1.17229,0.96899
269.995,18.18427,-0.13372,1.19102,0.96867
270.595,18.20231,-0.13643,1.21547,0.96834
271.195,18.22039,-0.13982,1.24234,0.96801
271.795,18.2385,-0.14329,1.26931,0.96768
272.395,18.25662,-0.14576,1.30214,0.96735
272.995,18.2747,-0.14902,1.33677,0.96702
273.595,18.29276,-0.15295,1.37679,0.96669
274.195,18.31085,-0.15623,1.42017,0.96636
274.795,18.3289,-0.16058,1.4627,0.96603
275.395,18.34692,-0.16598,1.51203,0.96569
275.995,18.36501,-0.17088,1.56012,0.96536
276.595,18.38309,-0.17625,1.61001,0.96503
277.195,18.40109,-0.18088,1.66057,0.9647
277.795,18.41921,-0.18624,1.71405,0.96436
278.395,18.43735,-0.19256,1.76557,0.96403
278.995,18.45542,-0.19879,1.8184,0.96369
279.595,18.47351,-0.20629,1.86685,0.96336
280.195,18.4917,-0.21242,1.91563,0.96302
280.795,18.5098,-0.22048,1.96377,0.96269
281.395,18.52789,-0.22721,2.00729,0.96235
281.995,18.54608,-0.23652,2.04766,0.96201
282.595,18.56429,-0.24475,2.08487,0.96168
283.195,18.5824,-0.25444,2.11924,0.96134
283.795,18.60063,-0.26353,2.14993,0.961
284.395,18.61884,-0.27286,2.1742,0.96066
284.995,18.63695,-0.28341,2.19511,0.96032
285.595,18.65511,-0.29299,2.21286,0.95999
286.195,18.6733,-0.30464,2.22745,0.95965
286.795,18.69138,-0.31389,2.23936,0.95931
287.395,18.70949,-0.32565,2.24446,0.95897
287.995,18.72767,-0.33483,2.2458,0.95862
288.595,18.74576,-0.34679,2.24758,0.95828
289.195,18.7639,-0.35712,2.24679,0.95794
289.795,18.78209,-0.36917,2.24386,0.9576
290.395,18.80023,-0.3812,2.23877,0.95726
290.995,18.81843,-0.39271,2.2326,0.95691
291.595,18.83661,-0.40607,2.22154,0.95657
292.195,18.85474,-0.41764,2.21334,0.95622
292.795,18.87293,-0.43141,2.20324,0.95588
293.395,18.89108,-0.44213,2.19382,0.95554
293.995,18.90917,-0.45483,2.18179,0.95519
294.595,18.92732,-0.46595,2.17133,0.95484
295.195,18.9455,-0.4799,2.16182,0.9545
295.795,18.96361,-0.491,2.15018,0.95415
296.395,18.9817,-0.50361,2.13922,0.9538
296.995,18.99981,-0.51652,2.1317,0.95346
297.595,19.0179,-0.52934,2.11898,0.95311
298.195,19.03592,-0.54412,2.10993,0.95276
298.795,19.05404,-0.55686,2.10026,0.95241
299.395,19.07217,-0.57256,2.09102,0.95206
299.995,19.09028,-0.58459,2.08147,0.95171
300.595,19.1084,-0.60035,2.07401,0.95136
301.195,19.1266,-0.6123,2.067,0.95101
301.795,19.14469,-0.62784,2.06073,0.95066
302.395,19.1628,-0.64091,2.05745,0.95031
302.995,19.18092,-0.65563,2.05065,0.94996
303.595,19.199,-0.67054,2.04479,0.94961
304.195,19.21707,-0.68525,2.04081,0.94926
304.795,19.2352,-0.7022,2.03584,0.9489
305.395,19.2533,-0.71599,2.03219,0.94855
305.995,19.27144,-0.73334,2.03133,0.9482
306.595,19.28944,-0.74714,2.0295,0.94784
307.195,19.30746,-0.76507,2.02802,0.94749
307.795,19.32555,-0.78075,2.0253,0.94713
308.395,19.34364,-0.79839,2.02461,0.94678
308.995,19.3617,-0.81405,2.024,0.94642
309.595,19.37999,-0.83051,2.02545,0.94607
310.195,19.39815,-0.84758,2.02508,0.94571
310.795,19.41621,-0.86369,2.02538,0.94535
311.395,19.43427,-0.88249,2.02644,0.945
311.995,19.45239,-0.89696,2.02923,0.94464
312.595,19.4705,-0.91647,2.03095,0.94428
313.195,19.48855,-0.93157,2.03166,0.94392
313.795,19.50675,-0.95172,2.03565,0.94356
314.395,19.52492,-0.96951,2.03795,0.9432
314.995,19.54305,-0.98912,2.03916,0.94284
315.595,19.56127,-1.00728,2.04276,0.94248
316.195,19.57945,-1.02602,2.04515,0.94212
316.795,19.59756,-1.04596,2.04942,0.94176
317.395,19.61574,-1.06399,2.05449,0.9414
317.995,19.6339,-1.08525,2.05818,0.94104
318.595,19.652,-1.10259,2.06225,0.94068
319.195,19.67009,-1.12472,2.06594,0.94032
319.795,19.68824,-1.14205,2.07108,0.93995
320.395,19.70635,-1.16396,2.0731,0.93959
320.995,19.7245,-1.1822,2.07962,0.93923
321.595,19.74263,-1.20313,2.08399,0.93886
322.195,19.76081,-1.22268,2.08863,0.9385
322.795,19.77894,-1.24361,2.09387,0.93813
323.395,19.79711,-1.26646,2.10002,0.93777
323.995,19.81523,-1.28671,2.10241,0.9374
324.595,19.83344,-1.31125,2.10611,0.93704
325.195,19.85163,-1.33088,2.11183,0.93667
325.795,19.86981,-1.35604,2.11506,0.9363
326.395,19.88789,-1.37527,2.11867,0.93593
326.995,19.90611,-1.39966,2.12401,0.93557
327.595,19.92428,-1.41989,2.12688,0.9352
328.195,19.9425,-1.44361,2.12986,0.93483
328.795,19.9606,-1.46608,2.13208,0.93446
329.395,19.9789,-1.48935,2.13241,0.93409
329.995,19.99703,-1.5142,2.1374,0.93372
330.595,20.0152,-1.53575,2.14083,0.93335
331.195,20.0334,-1.56161,2.14178,0.93298
331.795,20.05157,-1.58304,2.14067,0.93261
332.395,20.06975,-1.61072,2.14042,0.93224
332.995,20.088,-1.63255,2.14067,0.93187
333.595,20.1062,-1.65959,2.13986,0.9315
334.195,20.12442,-1.68186,2.13841,0.93113
334.795,20.14252,-1.70755,2.13645,0.93075
335.395,20.16056,-1.73183,2.13128,0.93038
335.995,20.1787,-1.75627,2.1296,0.93001
336.595,20.19687,-1.7825,2.12474,0.92963
337.195,20.21508,-1.80559,2.11892,0.92926
337.795,20.23343,-1.83391,2.11217,0.92889
338.395,20.25179,-1.85658,2.1026,0.92851
338.995,20.27003,-1.88513,2.09487,0.92814
339.595,20.28826,-1.9073,2.08618,0.92776
340.195,20.30649,-1.93536,2.07605,0.92738
340.795,20.3247,-1.95766,2.06572,0.92701
341.395,20.34297,-1.98389,2.05015,0.92663
341.995,20.36122,-2.00782,2.03567,0.92625
342.595,20.3794,-2.03268,2.02005,0.92588
343.195,20.39764,-2.05892,2.00078,0.9255
343.795,20.41587,-2.08258,1.97978,0.92512
344.395,20.4341,-2.10973,1.95904,0.92474
344.995,20.45233,-2.13194,1.93655,0.92436
345.595,20.4706,-2.16003,1.91289,0.92398
346.195,20.4888,-2.18142,1.88668,0.9236
346.795,20.507,-2.20785,1.85908,0.92322
347.395,20.52521,-2.22877,1.82687,0.92284
347.995,20.5434,-2.25351,1.79691,0.92246
348.595,20.5617,-2.27543,1.76211,0.92208
349.195,20.57999,-2.29852,1.72639,0.9217
349.795,20.59827,-2.32167,1.68743,0.92132
350.395,20.61649,-2.34246,1.64547,0.92094
350.995,20.63477,-2.36632,1.60554,0.92055
351.595,20.65292,-2.38517,1.55956,0.92017
352.195,20.6711,-2.40858,1.51355,0.91979
352.795,20.68935,-2.42638,1.46488,0.9194
353.395,20.70757,-2.44805,1.41524,0.91902
353.995,20.72579,-2.46443,1.3637,0.91864
354.595,20.7441,-2.48366,1.30989,0.91825
355.195,20.76238,-2.50026,1.25722,0.91787
355.795,20.78064,-2.51737,1.20422,0.91748
356.395,20.79885,-2.53421,1.1493,0.9171
356.995,20.81706,-2.5492,1.09767,0.91671
357.595,20.83519,-2.56561,1.04584,0.91632
358.195,20.8534,-2.57823,0.9962,0.91594
358.795,20.8716,-2.59293,0.94486,0.91555
359.395,20.88985,-2.60374,0.90057,0.91516
359.995,20.90811,-2.61676,0.85185,0.91477
360.595,20.92635,-2.62626,0.80978,0.91439
361.195,20.94465,-2.63729,0.76814,0.914
361.795,20.9629,-2.6479,0.7277,0.91361
362.395,20.98106,-2.65767,0.69081,0.91322
362.995,20.9993,-2.66789,0.65586,0.91283
363.595,21.0176,-2.67516,0.62247,0.91244
364.195,21.03577,-2.68268,0.59112,0.91205
364.795,21.05406,-2.68775,0.56112,0.91166
365.395,21.07235,-2.69566,0.53461,0.91127
365.995,21.09057,-2.70119,0.50824,0.91088
366.595,21.10878,-2.70794,0.48602,0.91048
367.195,21.127,-2.7129,0.46504,0.91009
367.795,21.14528,-2.71853,0.44331,0.9097
368.395,21.1635,-2.72348,0.42437,0.90931
368.995,21.1818,-2.72844,0.40608,0.90891
369.595,21.2001,-2.73275,0.3886,0.90852
370.195,21.21839,-2.73729,0.37547,0.90813
370.795,21.23668,-2.74247,0.36048,0.90773
371.395,21.25496,-2.74649,0.34832,0.90734
371.995,21.2733,-2.75025,0.33665,0.90694
372.595,21.29164,-2.75372,0.32569,0.90655
373.195,21.31,-2.75645,0.31529,0.90615
373.795,21.32835,-2.75985,0.30671,0.90576
374.395,21.3467,-2.7635,0.29813,0.90536
374.995,21.36496,-2.76645,0.29001,0.90496
375.595,21.3833,-2.76944,0.28536,0.90457
376.195,21.40169,-2.77245,0.27847,0.90417
376.795,21.42001,-2.77576,0.27627,0.90377
377.395,21.43844,-2.77888,0.26881,0.90338
377.995,21.45681,-2.78095,0.26265,0.90298
378.595,21.47515,-2.78325,0.25717,0.90258
379.195,21.4935,-2.78649,0.25359,0.90218
379.795,21.51194,-2.78889,0.25063,0.90178
380.395,21.53024,-2.7916,0.24811,0.90138
380.995,21.54853,-2.79397,0.24498,0.90098
381.595,21.567,-2.7964,0.24437,0.90058
382.195,21.58534,-2.79898,0.24004,0.90018
382.795,21.6037,-2.80132,0.23766,0.89978
383.395,21.62216,-2.80403,0.23427,0.89938
383.995,21.64068,-2.80614,0.22835,0.89898
384.595,21.65904,-2.80683,0.22762,0.89858
385.195,21.67752,-2.80879,0.22402,0.89817
385.795,21.69593,-2.81112,0.22163,0.89777
386.395,21.71435,-2.8137,0.22002,0.89737
386.995,21.73275,-2.81533,0.21716,0.89697
387.595,21.75122,-2.8164,0.21514,0.89656
388.195,21.76961,-2.81576,0.21269,0.89616
388.795,21.78802,-2.81525,0.20968,0.89575
389.395,21.80645,-2.81851,0.20947,0.89535
389.995,21.82488,-2.82316,0.20719,0.89495
390.595,21.84326,-2.8257,0.20289,0.89454
391.195,21.8617,-2.82927,0.20253,0.89414
391.795,21.88022,-2.83144,0.19915,0.89373
392.395,21.89874,-2.83305,0.19806,0.89332
392.995,21.91726,-2.83485,0.19839,0.89292
393.595,21.93577,-2.83688,0.19424,0.89251
394.195,21.95429,-2.83865,0.1924,0.8921
394.795,21.97278,-2.83975,0.1908,0.8917
395.395,21.99126,-2.84108,0.18822,0.89129
395.995,22.00969,-2.84281,0.18691,0.89088
396.595,22.02819,-2.84517,0.18454,0.89047
397.195,22.04666,-2.84645,0.18417,0.89007
397.795,22.06515,-2.84834,0.18372,0.88966
398.395,22.08363,-2.84973,0.18311,0.88925
398.995,22.10221,-2.85177,0.18136,0.88884
399.595,22.1207,-2.85355,0.18065,0.88843
400.195,22.13926,-2.85539,0.18036,0.88802
400.795,22.15782,-2.85707,0.17691,0.88761
401.395,22.1764,-2.85806,0.17516,0.8872
401.995,22.19499,-2.85949,0.17384,0.88679
402.595,22.21354,-2.86156,0.17287,0.88638
403.195,22.23205,-2.86344,0.16955,0.88596
403.795,22.25061,-2.8653,0.16905,0.88555
404.395,22.2692,-2.86622,0.16887,0.88514
404.995,22.2878,-2.86757,0.16836,0.88473
405.595,22.30639,-2.86847,0.16747,0.88432
406.195,22.325,-2.86923,0.16551,0.8839
406.795,22.34355,-2.87081,0.16386,0.88349
407.395,22.36212,-2.87243,0.16489,0.88308
407.995,22.3807,-2.87377,0.16352,0.88266
408.595,22.39929,-2.87483,0.16342,0.88225
409.195,22.41793,-2.87607,0.16211,0.88183
409.795,22.43652,-2.8777,0.15988,0.88142
410.395,22.45516,-2.8791,0.15971,0.881
410.995,22.47374,-2.87988,0.15818,0.88059
411.595,22.49233,-2.88234,0.15757,0.88017
412.195,22.5109,-2.88463,0.15782,0.87976
412.795,22.52957,-2.88768,0.15606,0.87934
413.395,22.54821,-2.88946,0.157,0.87892
413.995,22.5669,-2.8907,0.15372,0.87851
414.595,22.5855,-2.88954,0.1539,0.87809
415.195,22.60418,-2.89109,0.15253,0.87767
415.795,22.62284,-2.89215,0.15128,0.87725
416.395,22.64145,-2.8933,0.14906,0.87683
416.995,22.66009,-2.895,0.14662,0.87642
417.595,22.6787,-2.89561,0.14638,0.876
418.195,22.69731,-2.89705,0.14589,0.87558
418.795,22.71596,-2.89869,0.14106,0.87516
419.395,22.73461,-2.89917,0.13983,0.87474
419.995,22.75317,-2.90028,0.13687,0.87432
420.595,22.77179,-2.90184,0.13539,0.8739
421.195,22.7905,-2.90294,0.1327,0.87348
421.795,22.8092,-2.90357,0.13154,0.87306
422.395,22.8278,-2.90511,0.13202,0.87264
422.995,22.8466,-2.90661,0.13012,0.87222
423.595,22.8653,-2.90804,0.12563,0.8718
424.195,22.88393,-2.90911,0.123,0.87137
424.795,22.90257,-2.9106,0.12295,0.87095
425.395,22.92126,-2.91245,0.11984,0.87053
425.995,22.93992,-2.91441,0.11913,0.87011
426.595,22.95864,-2.91535,0.11723,0.86968
427.195,22.9774,-2.91707,0.11779,0.86926
427.795,22.99615,-2.91843,0.11703,0.86884
428.395,23.01489,-2.91965,0.11542,0.86841
428.995,23.03361,-2.92039,0.11377,0.86799
429.595,23.0523,-2.92209,0.11312,0.86756
430.195,23.07104,-2.92496,0.11228,0.86714
430.795,23.08983,-2.92549,0.11094,0.86671
431.395,23.10855,-2.92534,0.10818,0.86629
431.995,23.12726,-2.92626,0.1085,0.86586
432.595,23.146,-2.92594,0.1078,0.86544
433.195,23.16467,-2.9269,0.10554,0.86501
433.795,23.18338,-2.92846,0.10571,0.86459
434.395,23.2022,-2.92941,0.10474,0.86416
434.995,23.221,-2.9302,0.10454,0.86373
435.595,23.23977,-2.93188,0.10264,0.86331
436.195,23.2586,-2.93349,0.10351,0.86288
436.795,23.27734,-2.93375,0.10313,0.86245
437.395,23.2961,-2.93528,0.1036,0.86202
437.995,23.31491,-2.93538,0.10316,0.86159
438.595,23.33365,-2.93773,0.10174,0.86117
439.195,23.35239,-2.93985,0.10189,0.86074
439.795,23.37118,-2.94055,0.10236,0.86031
440.395,23.39,-2.94023,0.10105,0.85988
440.995,23.4087,-2.9417,0.10082,0.85945
441.595,23.42754,-2.94256,0.10173,0.85902
442.195,23.44637,-2.9418,0.10168,0.85859
442.795,23.46515,-2.94345,0.10017,0.85816
443.395,23.48399,-2.94471,0.09989663,0.85773
443.995,23.5028,-2.94539,0.10091,0.8573
444.595,23.52161,-2.94667,0.10066,0.85687
445.195,23.5404,-2.94796,0.10033,0.85644
445.795,23.55924,-2.94831,0.10072,0.856
446.395,23.57803,-2.95009,0.10364,0.85557
446.995,23.59686,-2.95084,0.10147,0.85514
447.595,23.6157,-2.95159,0.10208,0.85471
448.195,23.6345,-2.95344,0.10168,0.85428
448.795,23.6534,-2.95445,0.10204,0.85384
449.395,23.67223,-2.95581,0.10305,0.85341
449.995,23.6911,-2.95762,0.10267,0.85298
450.595,23.70996,-2.95911,0.10305,0.85254
451.195,23.72873,-2.95973,0.10256,0.85211
451.795,23.74748,-2.96105,0.10471,0.85167
452.395,23.76634,-2.96245,0.10362,0.85124
452.995,23.7852,-2.9636,0.10402,0.8508
453.595,23.8041,-2.96394,0.10408,0.85037
454.195,23.82305,-2.96418,0.10405,0.84993
454.795,23.84205,-2.96539,0.10381,0.8495
455.395,23.86094,-2.96696,0.10294,0.84906
455.995,23.87983,-2.96721,0.10372,0.84863
456.595,23.89869,-2.96847,0.10441,0.84819
457.195,23.91761,-2.96996,0.10708,0.84775
457.795,23.93648,-2.97092,0.1046,0.84732
458.395,23.9554,-2.97187,0.10567,0.84688
458.995,23.97427,-2.97335,0.10365,0.84644
459.595,23.99314,-2.97348,0.10522,0.84601
460.195,24.01206,-2.97534,0.10413,0.84557
460.795,24.03104,-2.97613,0.10444,0.84513
461.395,24.05,-2.97689,0.10583,0.84469
461.995,24.06891,-2.97834,0.10496,0.84425
462.595,24.0879,-2.97833,0.10523,0.84382
463.195,24.10684,-2.97994,0.10582,0.84338
463.795,24.12574,-2.9805,0.10624,0.84294
464.395,24.14472,-2.98145,0.10604,0.8425
464.995,24.1637,-2.98302,0.1059,0.84206
465.595,24.18269,-2.98389,0.10515,0.84162
466.195,24.2016,-2.98458,0.10598,0.84118
466.795,24.2206,-2.98601,0.10531,0.84074
467.395,24.23955,-2.98695,0.10938,0.8403
467.995,24.25849,-2.9874,0.109,0.83986
468.595,24.27747,-2.98864,0.10998,0.83942
469.195,24.2965,-2.98883,0.11001,0.83897
469.795,24.31551,-2.99034,0.11212,0.83853
470.395,24.33448,-2.99161,0.11159,0.83809
470.995,24.35349,-2.99236,0.11177,0.83765
471.595,24.37244,-2.99377,0.11232,0.83721
472.195,24.3914,-2.99489,0.11294,0.83676
472.795,24.4103,-2.99512,0.11404,0.83632
473.395,24.42933,-2.9966,0.11524,0.83588
473.995,24.44828,-2.99657,0.11464,0.83544
474.595,24.46714,-2.99817,0.11716,0.83499
475.195,24.48604,-2.99882,0.11726,0.83455
475.795,24.50509,-2.99965,0.11588,0.8341
476.395,24.5241,-3.00113,0.11758,0.83366
476.995,24.5431,-3.00139,0.11963,0.83322
477.595,24.56227,-3.00282,0.1199,0.83277
478.195,24.58141,-3.00392,0.12212,0.83233
478.795,24.60044,-3.00426,0.12587,0.83188
479.395,24.61946,-3.00577,0.12998,0.83144
479.995,24.6386,-3.00629,0.13089,0.83099
480.595,24.65765,-3.00728,0.1341,0.83054
481.195,24.6767,-3.00874,0.13655,0.8301
481.795,24.69576,-3.009,0.13906,0.82965
482.395,24.71481,-3.0106,0.13944,0.82921
482.995,24.7338,-3.01131,0.14142,0.82876
483.595,24.7529,-3.01211,0.14236,0.82831
484.195,24.7719,-3.0136,0.14269,0.82787
484.795,24.79092,-3.01431,0.14347,0.82742
485.395,24.81,-3.0151,0.14468,0.82697
485.995,24.8291,-3.01601,0.14271,0.82652
486.595,24.84814,-3.0167,0.1402,0.82608
487.195,24.86726,-3.01784,0.13846,0.82563
487.795,24.8863,-3.01807,0.14196,0.82518
488.395,24.90536,-3.01861,0.14082,0.82473
488.995,24.9244,-3.01965,0.14049,0.82428
489.595,24.9435,-3.02128,0.14057,0.82383
490.195,24.96251,-3.02134,0.14055,0.82338
490.795,24.98169,-3.02257,0.14071,0.82293
491.395,25.00078,-3.0233,0.13885,0.82248
491.995,25.01994,-3.0241,0.13733,0.82203
492.595,25.0391,-3.02571,0.14047,0.82158
493.195,25.0582,-3.02595,0.13849,0.82113
493.795,25.0773,-3.02712,0.13908,0.82068
494.395,25.09635,-3.0271,0.13926,0.82023
494.995,25.11542,-3.02757,0.13968,0.81978
495.595,25.13456,-3.02834,0.13961,0.81933
496.195,25.15363,-3.02933,0.13947,0.81888
496.795,25.17285,-3.02963,0.13699,0.81843
497.395,25.19196,-3.03083,0.13603,0.81798
497.995,25.21112,-3.03102,0.1352,0.81752
498.595,25.23026,-3.03258,0.13629,0.81707
499.195,25.24941,-3.03252,0.13635,0.81662
499.795,25.26855,-3.03377,0.13615,0.81617
500.395,25.2877,-3.03368,0.13666,0.81571
500.995,25.3068,-3.03505,0.13705,0.81526
501.595,25.32592,-3.0351,0.13594,0.81481
502.195,25.3451,-3.03542,0.13491,0.81435
502.795,25.36422,-3.03572,0.13595,0.8139
503.395,25.3834,-3.03577,0.13386,0.81345
503.995,25.40255,-3.03715,0.13557,0.81299
504.595,25.4217,-3.03719,0.1357,0.81254
505.195,25.44088,-3.03859,0.13475,0.81208
505.795,25.46004,-3.03925,0.13649,0.81163
506.395,25.47925,-3.04003,0.13753,0.81117
506.995,25.49845,-3.04022,0.1361,0.81072
507.595,25.51768,-3.04164,0.13546,0.81026
508.195,25.53681,-3.04229,0.1349,0.80981
508.795,25.55596,-3.04305,0.13818,0.80935
509.395,25.57518,-3.04416,0.13909,0.8089
509.995,25.59431,-3.04435,0.13983,0.80844
510.595,25.6136,-3.04535,0.13924,0.80798
511.195,25.63278,-3.04566,0.13796,0.80753
511.795,25.652,-3.04685,0.13851,0.80707
512.395,25.67115,-3.04702,0.13915,0.80661
512.995,25.69035,-3.04806,0.1403,0.80616
513.595,25.70954,-3.04837,0.14036,0.8057
514.195,25.72879,-3.04924,0.14202,0.80524
514.795,25.74802,-3.04968,0.14063,0.80479
515.395,25.76729,-3.0497,0.14253,0.80433
515.995,25.78647,-3.05031,0.14519,0.80387
516.595,25.8058,-3.05095,0.14569,0.80341
517.195,25.825,-3.05205,0.14483,0.80295
517.795,25.84421,-3.05222,0.14488,0.8025
518.395,25.86332,-3.05351,0.14758,0.80204
518.995,25.88254,-3.05363,0.1475,0.80158
519.595,25.90173,-3.05369,0.14936,0.80112
520.195,25.92087,-3.0552,0.14724,0.80066
520.795,25.9401,-3.05551,0.14904,0.8002
521.395,25.95951,-3.05627,0.15025,0.79974
521.995,25.9788,-3.0576,0.15298,0.79928
522.595,25.9981,-3.05768,0.15293,0.79882
523.195,26.01732,-3.0577,0.15255,0.79836
523.795,26.03653,-3.05807,0.15505,0.7979
524.395,26.05569,-3.05905,0.15338,0.79744
524.995,26.0749,-3.05997,0.15422,0.79698
525.595,26.09406,-3.06053,0.15468,0.79652
526.195,26.11326,-3.0607,0.15507,0.79606
526.795,26.13263,-3.06191,0.15365,0.79559
527.395,26.152,-3.06186,0.15325,0.79513
527.995,26.17128,-3.06186,0.15335,0.79467
528.595,26.1907,-3.06226,0.15448,0.79421
529.195,26.21009,-3.06329,0.15657,0.79375
529.795,26.22932,-3.06359,0.15596,0.79329
530.395,26.2486,-3.06408,0.15582,0.79282
530.995,26.26786,-3.06454,0.15277,0.79236
531.595,26.2871,-3.06541,0.1522,0.7919
532.195,26.3064,-3.06538,0.15137,0.79144
532.795,26.32562,-3.06538,0.15145,0.79097
533.395,26.34495,-3.06544,0.1523,0.79051
533.995,26.36423,-3.06677,0.1521,0.79005
534.595,26.3835,-3.06732,0.15117,0.78958
535.195,26.4029,-3.06916,0.15439,0.78912
535.795,26.4222,-3.06932,0.15377,0.78865
536.395,26.4415,-3.06931,0.1541,0.78819
536.995,26.4608,-3.07,0.1525,0.78773
537.595,26.4801,-3.06933,0.15245,0.78726
538.195,26.4995,-3.06995,0.15035,0.7868
538.795,26.51877,-3.07077,0.14981,0.78633
539.395,26.53813,-3.07072,0.14897,0.78587
539.995,26.55746,-3.07196,0.15068,0.7854
540.595,26.5768,-3.07206,0.14995,0.78494
541.195,26.59608,-3.07206,0.15043,0.78447
541.795,26.6154,-3.07298,0.15126,0.78401
542.395,26.63477,-3.07336,0.15123,0.78354
542.995,26.65403,-3.07335,0.15282,0.78307
543.595,26.67329,-3.07432,0.15313,0.78261
544.195,26.69264,-3.07471,0.1542,0.78214
544.795,26.71197,-3.07486,0.1528,0.78168
545.395,26.73126,-3.07605,0.15342,0.78121
545.995,26.7507,-3.07743,0.15271,0.78074
546.595,26.77007,-3.07866,0.15234,0.78028
547.195,26.7894,-3.07866,0.15027,0.77981
547.795,26.8088,-3.07966,0.15136,0.77934
548.395,26.82815,-3.07861,0.15182,0.77887
548.995,26.84753,-3.07857,0.15227,0.77841
549.595,26.86689,-3.07995,0.15083,0.77794
550.195,26.8863,-3.07988,0.15204,0.77747
550.795,26.9057,-3.08125,0.15105,0.777
551.395,26.92512,-3.08132,0.15253,0.77653
551.995,26.9445,-3.08171,0.153,0.77607
552.595,26.9639,-3.08274,0.15061,0.7756
553.195,26.98328,-3.08293,0.15187,0.77513
553.795,27.0027,-3.08294,0.14882,0.77466
554.395,27.022,-3.08295,0.15099,0.77419
554.995,27.04148,-3.08432,0.15063,0.77372
555.595,27.06087,-3.08426,0.14939,0.77325
556.195,27.0803,-3.08426,0.14807,0.77278
556.795,27.0997,-3.08426,0.1467,0.77231
557.395,27.11913,-3.08426,0.14624,0.77184
557.995,27.13856,-3.08448,0.14572,0.77137
558.595,27.1579,-3.08562,0.14428,0.7709
559.195,27.17734,-3.08561,0.14356,0.77043
559.795,27.1967,-3.08624,0.14432,0.76996
560.395,27.21617,-3.08691,0.14239,0.76949
560.995,27.2356,-3.08726,0.13881,0.76902
561.595,27.25508,-3.0884,0.13952,0.76855
562.195,27.2745,-3.08884,0.13694,0.76808
562.795,27.294,-3.08891,0.13488,0.76761
563.395,27.3134,-3.09028,0.13392,0.76714
563.995,27.33284,-3.09017,0.132,0.76667
564.595,27.3523,-3.09104,0.13201,0.7662
565.195,27.3717,-3.09154,0.13268,0.76572
565.795,27.3912,-3.09046,0.132,0.76525
566.395,27.41068,-3.09056,0.13015,0.76478
566.995,27.4302,-3.09183,0.12727,0.76431
567.595,27.44967,-3.09183,0.12863,0.76384
568.195,27.46916,-3.09183,0.12672,0.76336
568.795,27.4886,-3.09185,0.12545,0.76289
569.395,27.508,-3.09266,0.12414,0.76242
569.995,27.52743,-3.0928,0.12202,0.76195
570.595,27.5469,-3.09281,0.1239,0.76147
571.195,27.5663,-3.09383,0.12074,0.761
571.795,27.58581,-3.09412,0.12115,0.76053
572.395,27.60528,-3.09415,0.11984,0.76005
572.995,27.6247,-3.09439,0.11578,0.75958
573.595,27.6442,-3.09551,0.11579,0.75911
574.195,27.66368,-3.09548,0.11536,0.75863
574.795,27.6832,-3.09572,0.1134,0.75816
575.395,27.70267,-3.09678,0.11383,0.75769
575.995,27.7222,-3.09677,0.1105,0.75721
576.595,27.7417,-3.09677,0.11271,0.75674
577.195,27.7611,-3.09676,0.11181,0.75626
577.795,27.78057,-3.09748,0.11139,0.75579
578.395,27.8001,-3.09809,0.11196,0.75531
578.995,27.81959,-3.09809,0.10873,0.75484
579.595,27.8391,-3.09809,0.10933,0.75437
580.195,27.8587,-3.09932,0.10625,0.75389
580.795,27.87817,-3.09941,0.10653,0.75342
581.395,27.8976,-3.09987,0.10659,0.75294
581.995,27.91712,-3.10076,0.10376,0.75246
582.595,27.9366,-3.10073,0.1029,0.75199
583.195,27.9561,-3.10068,0.10097,0.75151
583.795,27.9757,-3.10183,0.1009,0.75104
584.395,27.99529,-3.10202,0.10045,0.75056
584.995,28.0149,-3.10195,0.09981513,0.75009
585.595,28.0345,-3.10329,0.09976917,0.74961
586.195,28.054,-3.10344,0.0999125,0.74913
586.795,28.0736,-3.10228,0.10108,0.74866
587.395,28.09305,-3.10261,0.09849253,0.74818
587.995,28.11259,-3.1037,0.09735455,0.7477
588.595,28.1321,-3.10369,0.09819763,0.74723
589.195,28.15168,-3.10369,0.09772391,0.74675
589.795,28.17127,-3.10369,0.09806242,0.74627
590.395,28.19095,-3.10372,0.09660612,0.7458
590.995,28.2105,-3.10502,0.09753155,0.74532
591.595,28.23005,-3.10501,0.09906766,0.74484
592.195,28.2496,-3.10499,0.09667355,0.74436
592.795,28.2691,-3.10632,0.09725582,0.74389
593.395,28.28864,-3.10632,0.09719948,0.74341
593.995,28.30823,-3.10632,0.09740585,0.74293
594.595,28.32787,-3.10634,0.09614775,0.74245
595.195,28.3475,-3.10707,0.09739521,0.74198
595.795,28.36717,-3.10764,0.09704924,0.7415
596.395,28.3868,-3.10764,0.09626118,0.74102
596.995,28.4063,-3.10764,0.09463658,0.74054
597.595,28.42597,-3.10764,0.09726224,0.74006
598.195,28.44551,-3.10759,0.09737796,0.73958
598.795,28.465,-3.1087,0.09711072,0.7391
599.395,28.4846,-3.10894,0.09842966,0.73863
599.995,28.50419,-3.10888,0.09966532,0.73815
600.595,28.52379,-3.11017,0.09841417,0.73767
601.195,28.5435,-3.11028,0.098175,0.73719
601.795,28.56314,-3.11028,0.09790088,0.73671
602.395,28.5828,-3.11029,0.09779768,0.73623
602.995,28.60237,-3.11038,0.09759211,0.73575
603.595,28.62197,-3.11163,0.09692698,0.73527
604.195,28.64157,-3.11158,0.09802171,0.73479
604.795,28.66122,-3.11235,0.09827089,0.73431
605.395,28.6809,-3.1129,0.09609373,0.73383
605.995,28.7006,-3.11291,0.0977823,0.73335
606.595,28.7202,-3.11291,0.09829791,0.73287
607.195,28.73985,-3.11291,0.09652181,0.73239
607.795,28.75947,-3.11292,0.10085,0.73191
608.395,28.7791,-3.11316,0.09986723,0.73143
608.995,28.79869,-3.11391,0.09822204,0.73095
609.595,28.81835,-3.1139,0.10183,0.73047
610.195,28.8381,-3.1139,0.10118,0.72999
610.795,28.85782,-3.1139,0.10041,0.72951
611.395,28.87752,-3.1139,0.10125,0.72903
611.995,28.8972,-3.1139,0.10201,0.72855
612.595,28.91688,-3.11391,0.10241,0.72807
613.195,28.93651,-3.11403,0.103,0.72758
613.795,28.9561,-3.1134,0.10614,0.7271
614.395,28.9758,-3.11434,0.10375,0.72662
614.995,28.9954,-3.11436,0.10442,0.72614
615.595,29.015,-3.11479,0.10726,0.72566
616.195,29.0347,-3.11566,0.10779,0.72518
616.795,29.0544,-3.11565,0.11041,0.72469
617.395,29.07405,-3.11567,0.11006,0.72421
617.995,29.09375,-3.11597,0.11072,0.72373
618.595,29.11345,-3.11766,0.10955,0.72325
619.195,29.1332,-3.11825,0.10964,0.72277
619.795,29.1529,-3.11806,0.11024,0.72228
620.395,29.17257,-3.11696,0.112,0.7218
620.995,29.1923,-3.11696,0.11417,0.72132
621.595,29.2119,-3.11691,0.11535,0.72084
622.195,29.2317,-3.11879,0.11409,0.72035
622.795,29.2514,-3.11895,0.11793,0.71987
623.395,29.27115,-3.11895,0.11783,0.71939
623.995,29.29093,-3.11895,0.11785,0.71891
624.595,29.31066,-3.11895,0.11933,0.71842
625.195,29.3303,-3.11895,0.11812,0.71794
625.795,29.35003,-3.11862,0.12138,0.71746
626.395,29.36965,-3.11892,0.11939,0.71697
626.995,29.3893,-3.11895,0.12199,0.71649
627.595,29.409,-3.11895,0.12253,0.71601
628.195,29.42871,-3.11918,0.12301,0.71552
628.795,29.4484,-3.1203,0.12529,0.71504
629.395,29.4682,-3.12027,0.12538,0.71456
629.995,29.48788,-3.12023,0.12617,0.71407
630.595,29.5076,-3.12149,0.12796,0.71359
631.195,29.52726,-3.12158,0.12648,0.7131
631.795,29.54696,-3.12159,0.12762,0.71262
632.395,29.56662,-3.12159,0.12749,0.71214
632.995,29.58633,-3.12159,0.13042,0.71165
633.595,29.60603,-3.12159,0.13047,0.71117
634.195,29.62562,-3.12159,0.13173,0.71068
634.795,29.64532,-3.12166,0.13378,0.7102
635.395,29.66507,-3.123,0.13137,0.70971
635.995,29.68481,-3.1229,0.13091,0.70923
636.595,29.7046,-3.12267,0.13233,0.70874
637.195,29.72438,-3.12232,0.13211,0.70826
637.795,29.7441,-3.12287,0.13453,0.70778
638.395,29.7638,-3.1229,0.13559,0.70729
638.995,29.78347,-3.1229,0.13607,0.70681
639.595,29.80316,-3.1229,0.13468,0.70632
640.195,29.82286,-3.12286,0.13647,0.70584
640.795,29.84256,-3.12421,0.1356,0.70535
641.395,29.86226,-3.12486,0.13701,0.70487
641.995,29.882,-3.12487,0.13517,0.70438
642.595,29.90173,-3.1253,0.13544,0.70389
643.195,29.92142,-3.12476,0.13705,0.70341
643.795,29.94111,-3.12423,0.13576,0.70292
644.395,29.9608,-3.12422,0.13659,0.70244
644.995,29.9806,-3.12422,0.13672,0.70195
645.595,30.00027,-3.12422,0.13838,0.70147
646.195,30.02001,-3.12422,0.13632,0.70098
646.795,30.0397,-3.12422,0.13613,0.70049
647.395,30.05947,-3.12422,0.13682,0.70001
647.995,30.07923,-3.12549,0.13692,0.69952
648.595,30.09899,-3.12554,0.13691,0.69904
649.195,30.1188,-3.12554,0.13775,0.69855
649.795,30.13859,-3.12554,0.13505,0.69806
650.395,30.15829,-3.12554,0.1333,0.69758
650.995,30.17805,-3.12554,0.13353,0.69709
651.595,30.19776,-3.12556,0.13495,0.69661
652.195,30.2175,-3.12628,0.13481,0.69612
652.795,30.23726,-3.12686,0.1375,0.69563
653.395,30.25698,-3.12686,0.13374,0.69515
653.995,30.2767,-3.12686,0.13178,0.69466
654.595,30.2965,-3.12686,0.13269,0.69417
655.195,30.31625,-3.12686,0.13229,0.69369
655.795,30.336,-3.12685,0.13224,0.6932
656.395,30.3558,-3.12677,0.13153,0.69271
656.995,30.37554,-3.12818,0.13417,0.69222
657.595,30.39532,-3.12828,0.13349,0.69174
658.195,30.41508,-3.12828,0.13097,0.69125
658.795,30.4349,-3.12828,0.12799,0.69076
659.395,30.4547,-3.12828,0.13007,0.69028
659.995,30.4745,-3.12834,0.13066,0.68979
660.595,30.4943,-3.12744,0.12974,0.6893
661.195,30.51407,-3.12765,0.13087,0.68881
661.795,30.5339,-3.12862,0.12841,0.68833
662.395,30.5536,-3.12861,0.12779,0.68784
662.995,30.5734,-3.12861,0.12907,0.68735
663.595,30.5931,-3.12861,0.1276,0.68686
664.195,30.61287,-3.12858,0.12647,0.68638
664.795,30.6326,-3.12949,0.12452,0.68589
665.395,30.6524,-3.12992,0.12703,0.6854
665.995,30.6722,-3.1299,0.12502,0.68491
666.595,30.69202,-3.13073,0.12512,0.68443
667.195,30.7117,-3.13195,0.12551,0.68394
667.795,30.73145,-3.13191,0.12586,0.68345
668.395,30.75122,-3.13191,0.12629,0.68296
668.995,30.77093,-3.13191,0.12501,0.68247
669.595,30.7907,-3.13191,0.1223,0.68198
670.195,30.81053,-3.13191,0.12385,0.6815
670.795,30.8304,-3.13192,0.12449,0.68101
671.395,30.8502,-3.13323,0.12172,0.68052
671.995,30.87,-3.13223,0.12409,0.68003
672.595,30.88978,-3.1319,0.12554,0.67954
673.195,30.90956,-3.13219,0.12797,0.67906
673.795,30.9293,-3.13323,0.12637,0.67857
674.395,30.9491,-3.13322,0.1263,0.67808
674.995,30.96886,-3.13322,0.12543,0.67759
675.595,30.98862,-3.13322,0.12444,0.6771
676.195,31.0084,-3.13322,0.12265,0.67661
676.795,31.02822,-3.13322,0.12374,0.67612
677.395,31.0481,-3.13322,0.12398,0.67564
677.995,31.06785,-3.13322,0.12292,0.67515
678.595,31.0877,-3.13322,0.12166,0.67466
679.195,31.1076,-3.13322,0.12469,0.67417
679.795,31.1274,-3.13322,0.1226,0.67368
680.395,31.14722,-3.13322,0.12439,0.67319
680.995,31.167,-3.13336,0.12456,0.6727
681.595,31.1868,-3.1346,0.12338,0.67221
682.195,31.2065,-3.13454,0.12096,0.67172
682.795,31.22635,-3.13454,0.12046,0.67123
683.395,31.24618,-3.13454,0.11906,0.67075
683.995,31.266,-3.13454,0.12239,0.67026
684.595,31.28588,-3.13454,0.12416,0.66977
685.195,31.3057,-3.13454,0.12486,0.66928
685.795,31.32548,-3.13455,0.12268,0.66879
686.395,31.34525,-3.13482,0.11993,0.6683
686.995,31.365,-3.13591,0.12113,0.66781
687.595,31.38482,-3.13586,0.12034,0.66732
688.195,31.40467,-3.13586,0.12117,0.66683
688.795,31.42447,-3.13585,0.11813,0.66634
689.395,31.4443,-3.13572,0.12041,0.66585
689.995,31.4641,-3.13558,0.1208,0.66536
690.595,31.4839,-3.13699,0.1228,0.66487
691.195,31.5037,-3.136,0.12035,0.66438
691.795,31.52347,-3.13585,0.12061,0.66389
692.395,31.54328,-3.13585,0.12317,0.66341
692.995,31.56312,-3.13582,0.12268,0.66292
693.595,31.58292,-3.13675,0.12278,0.66243
694.195,31.6028,-3.13716,0.12229,0.66194
694.795,31.6227,-3.13717,0.12015,0.66145
695.395,31.64299,-3.13717,0.12116,0.66096
695.995,31.6632,-3.13717,0.12256,0.66047
696.095,31.6659,-3.13717,0.12233,0.66039