File: 01_Data/Rayon_Bamboo_Pillowcase/STA/N2/30K_min/Rayon_Bamboo_Pillowcase_STA_N2_30KData_220523_R2.csv
##Temp./Â°C,Time/min,Mass loss(subtr.2)/mg,DSC(subtr.2)/(mW/mg),Sensit./(uV/mW)
48.586,10.01,-0.03305,0.0337559,1.054
49.186,10.5366,-0.03316941,0.07794948,1.05388
49.786,10.65323,-0.03341227,0.11262,1.05375
50.386,10.7401,-0.03348238,0.14558,1.05363
50.986,10.8097,-0.03282276,0.17628,1.05351
51.586,10.86965,-0.03249612,0.20645,1.05338
52.186,10.92292,-0.03318675,0.231,1.05326
52.786,10.971,-0.03267583,0.25694,1.05313
53.386,11.01571,-0.03225868,0.27823,1.05301
53.986,11.0577,-0.03386946,0.30214,1.05288
54.586,11.0974,-0.03327804,0.32313,1.05275
55.186,11.1355,-0.0329563,0.34409,1.05263
55.786,11.17136,-0.03434893,0.36348,1.0525
56.386,11.20609,-0.03317447,0.38273,1.05237
56.986,11.2395,-0.03357647,0.39954,1.05224
57.586,11.27188,-0.03491403,0.41623,1.05211
58.186,11.30296,-0.03533061,0.43275,1.05197
58.786,11.33358,-0.03496894,0.45072,1.05184
59.386,11.36363,-0.03513187,0.46808,1.05171
59.986,11.39312,-0.0350684,0.48041,1.05158
60.586,11.4217,-0.03592029,0.49691,1.05144
61.186,11.4498,-0.03590426,0.5111,1.05131
61.786,11.477,-0.03589482,0.52666,1.05117
62.386,11.50375,-0.03573216,0.54002,1.05104
62.986,11.53035,-0.03568472,0.55415,1.0509
63.586,11.55658,-0.03600855,0.56674,1.05076
64.186,11.58267,-0.0355195,0.58184,1.05062
64.786,11.60807,-0.03516762,0.59521,1.05049
65.386,11.63327,-0.03532608,0.60503,1.05035
65.986,11.65829,-0.03572462,0.61965,1.05021
66.586,11.6831,-0.0362831,0.63191,1.05007
67.186,11.7075,-0.03683167,0.64468,1.04993
67.786,11.73174,-0.0357604,0.65837,1.04978
68.386,11.75572,-0.03511923,0.66707,1.04964
68.986,11.77957,-0.0350023,0.67793,1.0495
69.586,11.80325,-0.03502285,0.69111,1.04935
70.186,11.82673,-0.03572376,0.70201,1.04921
70.786,11.8501,-0.03689129,0.71626,1.04906
71.386,11.87331,-0.03782685,0.72594,1.04892
71.986,11.89631,-0.03756596,0.73637,1.04877
72.586,11.91927,-0.03838309,0.74886,1.04863
73.186,11.94197,-0.0383021,0.7583,1.04848
73.786,11.96458,-0.03822437,0.76976,1.04833
74.386,11.9871,-0.03828345,0.77892,1.04818
74.986,12.00951,-0.03955167,0.79256,1.04803
75.586,12.03177,-0.04033988,0.8024,1.04788
76.186,12.0541,-0.041017,0.81195,1.04773
76.786,12.07622,-0.04091141,0.82364,1.04758
77.386,12.09828,-0.04028184,0.83646,1.04743
77.986,12.1203,-0.04070105,0.84509,1.04727
78.586,12.1419,-0.04171098,0.85537,1.04712
79.186,12.16353,-0.04088121,0.86561,1.04697
79.786,12.18516,-0.0421944,0.87509,1.04681
80.386,12.20679,-0.04244545,0.88851,1.04666
80.986,12.2285,-0.04290845,0.8998,1.0465
81.586,12.2501,-0.04369027,0.90851,1.04634
82.186,12.27165,-0.04295823,0.92067,1.04619
82.786,12.29308,-0.04376379,0.93074,1.04603
83.386,12.31441,-0.04370481,0.94085,1.04587
83.986,12.33565,-0.04370223,0.95157,1.04571
84.586,12.35684,-0.0437269,0.95878,1.04555
85.186,12.37795,-0.04456339,0.97147,1.04539
85.786,12.39897,-0.04520819,0.98131,1.04523
86.386,12.42004,-0.04666144,0.99404,1.04507
86.986,12.44094,-0.04666032,1.00311,1.04491
87.586,12.4617,-0.04678307,1.01358,1.04474
88.186,12.48255,-0.04686929,1.02384,1.04458
88.786,12.50333,-0.04839285,1.0335,1.04442
89.386,12.52396,-0.04849587,1.04296,1.04425
89.986,12.54443,-0.04979233,1.05535,1.04409
90.586,12.56507,-0.04973377,1.0659,1.04392
91.186,12.5858,-0.04972398,1.07714,1.04375
91.786,12.6064,-0.0507448,1.08542,1.04359
92.386,12.6272,-0.05104598,1.09579,1.04342
92.986,12.64788,-0.05150266,1.10594,1.04325
93.586,12.66841,-0.05166918,1.11524,1.04308
94.186,12.68887,-0.05172544,1.12726,1.04291
94.786,12.70938,-0.0524754,1.13574,1.04274
95.386,12.72985,-0.05247005,1.14344,1.04257
95.986,12.7502,-0.05247058,1.15232,1.0424
96.586,12.77051,-0.05249751,1.16034,1.04223
97.186,12.79092,-0.05452994,1.1704,1.04205
97.786,12.8112,-0.05510284,1.17834,1.04188
98.386,12.83151,-0.05511228,1.1873,1.04171
98.986,12.85178,-0.05516262,1.19198,1.04153
99.586,12.8721,-0.05730448,1.20217,1.04136
100.186,12.8923,-0.05774875,1.21104,1.04118
100.786,12.91258,-0.05787903,1.21789,1.041
101.386,12.9328,-0.05875581,1.22445,1.04083
101.986,12.95306,-0.05874256,1.23257,1.04065
102.586,12.9733,-0.05950348,1.23653,1.04047
103.186,12.99344,-0.06036439,1.24395,1.04029
103.786,13.01361,-0.06055956,1.25046,1.04011
104.386,13.03381,-0.06175277,1.25716,1.03993
104.986,13.05402,-0.06175295,1.26186,1.03975
105.586,13.07419,-0.0633156,1.26809,1.03957
106.186,13.09431,-0.06438755,1.27506,1.03939
106.786,13.11445,-0.06433052,1.27716,1.0392
107.386,13.13434,-0.06428021,1.28021,1.03902
107.986,13.15441,-0.06526076,1.28619,1.03884
108.586,13.1745,-0.06687776,1.2871,1.03865
109.186,13.19462,-0.06697982,1.29214,1.03847
109.786,13.2149,-0.06722724,1.29642,1.03828
110.386,13.23502,-0.06833925,1.29926,1.03809
110.986,13.2551,-0.0683067,1.30258,1.03791
111.586,13.2751,-0.06856259,1.3052,1.03772
112.186,13.29505,-0.06967032,1.30686,1.03753
112.786,13.315,-0.07005164,1.30824,1.03734
113.386,13.33506,-0.07191284,1.30983,1.03715
113.986,13.35505,-0.07232884,1.30937,1.03696
114.586,13.375,-0.07241369,1.31188,1.03677
115.186,13.39497,-0.07375408,1.31352,1.03658
115.786,13.41489,-0.07451443,1.31267,1.03639
116.386,13.4349,-0.07490847,1.31376,1.0362
116.986,13.4549,-0.07602212,1.31212,1.036
117.586,13.4749,-0.0762398,1.31339,1.03581
118.186,13.49485,-0.07735721,1.31266,1.03561
118.786,13.51475,-0.077854,1.31195,1.03542
119.386,13.5345,-0.07897785,1.31035,1.03522
119.986,13.5543,-0.07892727,1.30924,1.03503
120.586,13.57407,-0.0788474,1.30665,1.03483
121.186,13.5938,-0.08086841,1.306,1.03463
121.786,13.6136,-0.08155292,1.30403,1.03444
122.386,13.6334,-0.08173643,1.30084,1.03424
122.986,13.6531,-0.08308218,1.29868,1.03404
123.586,13.67286,-0.08426283,1.29533,1.03384
124.186,13.69261,-0.08421467,1.28954,1.03364
124.786,13.71222,-0.08422493,1.28673,1.03344
125.386,13.73189,-0.08560579,1.28235,1.03324
125.986,13.7515,-0.08553468,1.27863,1.03303
126.586,13.77116,-0.08552948,1.27735,1.03283
127.186,13.79074,-0.08552318,1.2724,1.03263
127.786,13.8102,-0.086207,1.26802,1.03242
128.386,13.82964,-0.08684298,1.26433,1.03222
128.986,13.84915,-0.08684054,1.26016,1.03201
129.586,13.86868,-0.08684014,1.25553,1.03181
130.186,13.8884,-0.0868413,1.2499,1.0316
130.786,13.90816,-0.08703857,1.24523,1.0314
131.386,13.92765,-0.08814883,1.24128,1.03119
131.986,13.9471,-0.08934616,1.23802,1.03098
132.586,13.9666,-0.0894608,1.23358,1.03077
133.186,13.98599,-0.08946924,1.22866,1.03056
133.786,14.00547,-0.08947007,1.22512,1.03035
134.386,14.0249,-0.0894717,1.21969,1.03014
134.986,14.04425,-0.08951699,1.21606,1.02993
135.586,14.06359,-0.09088691,1.21117,1.02972
136.186,14.0829,-0.09079667,1.20971,1.02951
136.786,14.10222,-0.09079041,1.20424,1.02929
137.386,14.1215,-0.09078986,1.19907,1.02908
137.986,14.1408,-0.09078879,1.1951,1.02887
138.586,14.16009,-0.09078845,1.19186,1.02865
139.186,14.17935,-0.09174334,1.18758,1.02844
139.786,14.1985,-0.09262582,1.18349,1.02822
140.386,14.2178,-0.09310224,1.18001,1.02801
140.986,14.2371,-0.0931002,1.17583,1.02779
141.586,14.25625,-0.09309982,1.17472,1.02757
142.186,14.27545,-0.09309726,1.1724,1.02735
142.786,14.2946,-0.09306524,1.16802,1.02714
143.386,14.31374,-0.09342759,1.16561,1.02692
143.986,14.3329,-0.09431694,1.16397,1.0267
144.586,14.352,-0.09472899,1.16105,1.02648
145.186,14.3711,-0.09473948,1.15964,1.02626
145.786,14.3902,-0.09474,1.15723,1.02603
146.386,14.40926,-0.09473981,1.15368,1.02581
146.986,14.4283,-0.09473491,1.15407,1.02559
147.586,14.44731,-0.0946495,1.15058,1.02537
148.186,14.46635,-0.0960248,1.1497,1.02514
148.786,14.48533,-0.09605833,1.14963,1.02492
149.386,14.5042,-0.09605987,1.14877,1.02469
149.986,14.52319,-0.09605999,1.14836,1.02447
150.586,14.54205,-0.09606,1.14644,1.02424
151.186,14.561,-0.09606,1.14726,1.02401
151.786,14.5799,-0.09606,1.14459,1.02379
152.386,14.599,-0.09605998,1.14519,1.02356
152.986,14.6179,-0.09605959,1.14583,1.02333
153.586,14.63689,-0.09605318,1.1445,1.0231
154.186,14.6558,-0.09596307,1.14617,1.02287
154.786,14.67472,-0.09729981,1.14301,1.02264
155.386,14.6937,-0.09808474,1.14513,1.02241
155.986,14.71253,-0.09867629,1.14763,1.02218
156.586,14.73143,-0.09869878,1.14664,1.02195
157.186,14.75029,-0.09869998,1.14653,1.02172
157.786,14.7691,-0.09870001,1.14607,1.02148
158.386,14.788,-0.09869997,1.14681,1.02125
158.986,14.80684,-0.09869952,1.14782,1.02102
159.586,14.8257,-0.09869316,1.14812,1.02078
160.186,14.84454,-0.0986156,1.14865,1.02055
160.786,14.86338,-0.09988911,1.14965,1.02031
161.386,14.88219,-0.10002,1.15048,1.02008
161.986,14.901,-0.10008,1.15061,1.01984
162.586,14.91976,-0.10133,1.15186,1.0196
163.186,14.93856,-0.10133,1.15351,1.01936
163.786,14.9574,-0.10133,1.14946,1.01912
164.386,14.9761,-0.10133,1.15379,1.01889
164.986,14.99487,-0.10133,1.15168,1.01865
165.586,15.0135,-0.10133,1.153,1.01841
166.186,15.0323,-0.10133,1.15448,1.01817
166.786,15.05101,-0.10133,1.15585,1.01792
167.386,15.06976,-0.10133,1.1552,1.01768
167.986,15.08854,-0.10133,1.15497,1.01744
168.586,15.10741,-0.10132,1.15642,1.0172
169.186,15.1261,-0.10122,1.15577,1.01695
169.786,15.1448,-0.10242,1.15767,1.01671
170.386,15.16351,-0.10233,1.1554,1.01646
170.986,15.1821,-0.10232,1.15711,1.01622
171.586,15.2008,-0.10232,1.15731,1.01597
172.186,15.2195,-0.10232,1.15739,1.01573
172.786,15.23816,-0.10232,1.15789,1.01548
173.386,15.25681,-0.10233,1.15942,1.01523
173.986,15.2755,-0.10141,1.15889,1.01499
174.586,15.2941,-0.10103,1.15859,1.01474
175.186,15.3127,-0.101,1.1579,1.01449
175.786,15.3313,-0.101,1.15893,1.01424
176.386,15.34985,-0.101,1.15994,1.01399
176.986,15.36842,-0.10102,1.15976,1.01374
177.586,15.387,-0.10169,1.1611,1.01349
178.186,15.4056,-0.10233,1.16068,1.01323
178.786,15.4242,-0.10232,1.16225,1.01298
179.386,15.4427,-0.10232,1.1589,1.01273
179.986,15.46125,-0.10232,1.15892,1.01248
180.586,15.47976,-0.10233,1.16308,1.01222
181.186,15.4983,-0.10107,1.16234,1.01197
181.786,15.51671,-0.101,1.16333,1.01171
182.386,15.5352,-0.10072,1.1641,1.01146
182.986,15.55365,-0.09962791,1.1642,1.0112
183.586,15.57215,-0.09967688,1.16654,1.01094
184.186,15.5906,-0.09967992,1.16488,1.01069
184.786,15.6091,-0.09967997,1.16678,1.01043
185.386,15.62756,-0.09967893,1.16885,1.01017
185.986,15.64604,-0.09966328,1.16779,1.00991
186.586,15.66445,-0.10033,1.16681,1.00965
187.186,15.68285,-0.1006,1.17033,1.00939
187.786,15.70125,-0.10175,1.17129,1.00913
188.386,15.7197,-0.10199,1.17166,1.00887
188.986,15.73809,-0.10199,1.17241,1.00861
189.586,15.75644,-0.10199,1.17335,1.00835
190.186,15.7748,-0.10199,1.17456,1.00809
190.786,15.79311,-0.10199,1.17657,1.00782
191.386,15.8114,-0.10199,1.17543,1.00756
191.986,15.8297,-0.10199,1.17783,1.0073
192.586,15.8479,-0.10199,1.17971,1.00703
193.186,15.86621,-0.10199,1.1816,1.00677
193.786,15.88459,-0.10199,1.18205,1.0065
194.386,15.90293,-0.10199,1.1835,1.00623
194.986,15.9212,-0.10199,1.18497,1.00597
195.586,15.93966,-0.10199,1.18692,1.0057
196.186,15.9579,-0.10226,1.18721,1.00543
196.786,15.97626,-0.10232,1.1895,1.00516
197.386,15.9945,-0.10243,1.18934,1.00489
197.986,16.01281,-0.103,1.18977,1.00463
198.586,16.03114,-0.10298,1.19364,1.00436
199.186,16.0494,-0.10298,1.19444,1.00408
199.786,16.06765,-0.10298,1.19811,1.00381
200.386,16.08596,-0.10298,1.19769,1.00354
200.986,16.1042,-0.10298,1.19773,1.00327
201.586,16.1224,-0.103,1.20028,1.003
202.186,16.14068,-0.10433,1.20306,1.00272
202.786,16.1589,-0.10429,1.20415,1.00245
203.386,16.17716,-0.1043,1.20412,1.00218
203.986,16.1954,-0.10432,1.20696,1.0019
204.586,16.2136,-0.10453,1.20759,1.00163
205.186,16.23191,-0.10495,1.20932,1.00135
205.786,16.25018,-0.10496,1.21104,1.00108
206.386,16.2684,-0.10497,1.21109,1.0008
206.986,16.28665,-0.10538,1.21688,1.00052
207.586,16.30493,-0.10595,1.21874,1.00024
208.186,16.32316,-0.10594,1.21686,0.99997
208.786,16.34134,-0.10594,1.21985,0.99969
209.386,16.3596,-0.10594,1.2194,0.99941
209.986,16.37772,-0.10594,1.22186,0.99913
210.586,16.3959,-0.10594,1.22526,0.99885
211.186,16.41408,-0.10594,1.225,0.99857
211.786,16.43231,-0.10593,1.2284,0.99829
212.386,16.45051,-0.10592,1.23046,0.998
212.986,16.46876,-0.10468,1.23356,0.99772
213.586,16.48698,-0.10464,1.23188,0.99744
214.186,16.50516,-0.10463,1.2322,0.99716
214.786,16.52336,-0.10463,1.23363,0.99687
215.386,16.5415,-0.10464,1.23845,0.99659
215.986,16.55975,-0.10462,1.24047,0.9963
216.586,16.57791,-0.10594,1.23908,0.99602
217.186,16.59614,-0.10595,1.23982,0.99573
217.786,16.61434,-0.10595,1.2423,0.99544
218.386,16.6325,-0.10595,1.24458,0.99516
218.986,16.65059,-0.10595,1.24538,0.99487
219.586,16.6688,-0.10595,1.24622,0.99458
220.186,16.68692,-0.10595,1.24949,0.99429
220.786,16.70499,-0.10596,1.24979,0.99401
221.386,16.72316,-0.10609,1.25171,0.99372
221.986,16.7413,-0.10729,1.25332,0.99343
222.586,16.7595,-0.10726,1.25518,0.99314
223.186,16.7777,-0.10726,1.25552,0.99284
223.786,16.79589,-0.10726,1.25738,0.99255
224.386,16.81406,-0.10726,1.25993,0.99226
224.986,16.83219,-0.10726,1.25767,0.99197
225.586,16.8503,-0.10726,1.2586,0.99168
226.186,16.8683,-0.10725,1.2588,0.99138
226.786,16.8864,-0.10827,1.26107,0.99109
227.386,16.9045,-0.10855,1.26497,0.99079
227.986,16.92261,-0.10858,1.26513,0.9905
228.586,16.9407,-0.10858,1.2645,0.9902
229.186,16.95885,-0.10853,1.26546,0.98991
229.786,16.97699,-0.10987,1.26614,0.98961
230.386,16.99503,-0.1099,1.26821,0.98932
230.986,17.01315,-0.1099,1.26618,0.98902
231.586,17.03122,-0.1099,1.26957,0.98872
232.186,17.04925,-0.11017,1.26858,0.98842
232.786,17.06729,-0.11127,1.27006,0.98812
233.386,17.0853,-0.11123,1.26995,0.98782
233.986,17.1033,-0.11122,1.27267,0.98752
234.586,17.12144,-0.11122,1.27253,0.98722
235.186,17.1396,-0.11122,1.27349,0.98692
235.786,17.15779,-0.11122,1.2727,0.98662
236.386,17.17599,-0.11122,1.27319,0.98632
236.986,17.19418,-0.11122,1.27451,0.98602
237.586,17.21225,-0.11122,1.27331,0.98571
238.186,17.23035,-0.11122,1.27687,0.98541
238.786,17.2484,-0.11122,1.27489,0.98511
239.386,17.26647,-0.11122,1.27537,0.9848
239.986,17.28453,-0.11121,1.27618,0.9845
240.586,17.3027,-0.11181,1.27683,0.98419
241.186,17.32078,-0.11252,1.27688,0.98389
241.786,17.33887,-0.11253,1.27713,0.98358
242.386,17.357,-0.11253,1.27934,0.98328
242.986,17.37511,-0.11252,1.27763,0.98297
243.586,17.3931,-0.11247,1.2783,0.98266
244.186,17.4111,-0.1136,1.28096,0.98235
244.786,17.42912,-0.11385,1.28198,0.98205
245.386,17.44712,-0.1138,1.28441,0.98174
245.986,17.46511,-0.11491,1.29004,0.98143
246.586,17.48315,-0.11512,1.29604,0.98112
247.186,17.50121,-0.11593,1.30024,0.98081
247.786,17.51932,-0.1165,1.29769,0.9805
248.386,17.5374,-0.11652,1.29751,0.98018
248.986,17.55547,-0.117,1.29626,0.97987
249.586,17.57358,-0.11782,1.29286,0.97956
250.186,17.59159,-0.11786,1.29,0.97925
250.786,17.60959,-0.11911,1.28915,0.97894
251.386,17.62762,-0.11911,1.28759,0.97862
251.986,17.6457,-0.12005,1.2853,0.97831
252.586,17.66374,-0.12042,1.28387,0.97799
253.186,17.6818,-0.12051,1.28135,0.97768
253.786,17.6999,-0.12176,1.27954,0.97736
254.386,17.71801,-0.12167,1.27905,0.97705
254.986,17.7361,-0.12323,1.27602,0.97673
255.586,17.75413,-0.12351,1.27429,0.97641
256.186,17.77218,-0.12495,1.27168,0.9761
256.786,17.7902,-0.12617,1.2685,0.97578
257.386,17.80825,-0.12689,1.26675,0.97546
257.986,17.82628,-0.12828,1.26418,0.97514
258.586,17.84436,-0.12937,1.26186,0.97482
259.186,17.8624,-0.13,1.26042,0.9745
259.786,17.88041,-0.13166,1.2575,0.97418
260.386,17.89847,-0.13319,1.25544,0.97386
260.986,17.91646,-0.13461,1.2549,0.97354
261.586,17.93441,-0.13544,1.25607,0.97322
262.186,17.95247,-0.13668,1.25502,0.9729
262.786,17.97042,-0.13861,1.25452,0.97257
263.386,17.98842,-0.14118,1.25695,0.97225
263.986,18.00639,-0.14284,1.25979,0.97193
264.586,18.02443,-0.14485,1.26365,0.9716
265.186,18.04241,-0.14659,1.26724,0.97128
265.786,18.06045,-0.14783,1.27167,0.97096
266.386,18.0785,-0.14965,1.27986,0.97063
266.986,18.09657,-0.15132,1.28853,0.9703
267.586,18.11461,-0.15271,1.29797,0.96998
268.186,18.13267,-0.15555,1.31224,0.96965
268.786,18.15072,-0.15862,1.32873,0.96933
269.386,18.16872,-0.16149,1.3467,0.969
269.986,18.1868,-0.16382,1.36751,0.96867
270.586,18.2047,-0.16565,1.39166,0.96834
271.186,18.2226,-0.16807,1.41887,0.96801
271.786,18.24062,-0.17193,1.45063,0.96768
272.386,18.25868,-0.17642,1.48714,0.96735
272.986,18.27672,-0.17927,1.52495,0.96702
273.586,18.29494,-0.18262,1.56502,0.96669
274.186,18.31314,-0.18684,1.6098,0.96636
274.786,18.33124,-0.19085,1.65841,0.96603
275.386,18.34931,-0.19536,1.70792,0.9657
275.986,18.36741,-0.20064,1.75925,0.96537
276.586,18.3855,-0.20676,1.81022,0.96503
277.186,18.4036,-0.21175,1.86565,0.9647
277.786,18.4217,-0.21823,1.92158,0.96437
278.386,18.43978,-0.22451,1.97648,0.96403
278.986,18.45786,-0.23314,2.02735,0.9637
279.586,18.47598,-0.24011,2.07993,0.96336
280.186,18.4941,-0.24881,2.13096,0.96303
280.786,18.51231,-0.25681,2.17731,0.96269
281.386,18.53047,-0.26528,2.22308,0.96236
281.986,18.54866,-0.2737,2.26291,0.96202
282.586,18.56683,-0.28121,2.29879,0.96168
283.186,18.58496,-0.29198,2.33145,0.96135
283.786,18.60305,-0.30075,2.3581,0.96101
284.386,18.62121,-0.31179,2.38282,0.96067
284.986,18.6393,-0.32086,2.40048,0.96033
285.586,18.65749,-0.3335,2.41485,0.95999
286.186,18.6756,-0.34335,2.42673,0.95965
286.786,18.69381,-0.35495,2.43326,0.95931
287.386,18.7118,-0.36555,2.43648,0.95897
287.986,18.7298,-0.37726,2.43661,0.95863
288.586,18.7479,-0.38945,2.43547,0.95829
289.186,18.76611,-0.40018,2.4306,0.95795
289.786,18.78424,-0.41292,2.42378,0.9576
290.386,18.8026,-0.42355,2.41715,0.95726
290.986,18.82088,-0.43754,2.40749,0.95692
291.586,18.839,-0.44824,2.39494,0.95657
292.186,18.8571,-0.46162,2.38297,0.95623
292.786,18.8752,-0.47252,2.37353,0.95589
293.386,18.8933,-0.48563,2.36245,0.95554
293.986,18.91141,-0.49809,2.34881,0.9552
294.586,18.92954,-0.51069,2.33506,0.95485
295.186,18.94764,-0.5238,2.32495,0.9545
295.786,18.96572,-0.53617,2.31487,0.95416
296.386,18.9838,-0.5508,2.30152,0.95381
296.986,19.00196,-0.56289,2.28773,0.95346
297.586,19.0201,-0.57852,2.27858,0.95312
298.186,19.0382,-0.59143,2.2656,0.95277
298.786,19.05639,-0.60697,2.25486,0.95242
299.386,19.07453,-0.61946,2.24577,0.95207
299.986,19.0925,-0.63473,2.23585,0.95172
300.586,19.11058,-0.64945,2.22734,0.95137
301.186,19.12864,-0.66432,2.2202,0.95102
301.786,19.14669,-0.68007,2.21468,0.95067
302.386,19.16476,-0.69362,2.20712,0.95032
302.986,19.18299,-0.71066,2.19894,0.94997
303.586,19.2011,-0.72403,2.19672,0.94961
304.186,19.2192,-0.74149,2.19097,0.94926
304.786,19.23728,-0.75528,2.18493,0.94891
305.386,19.25531,-0.77262,2.18038,0.94856
305.986,19.27338,-0.78751,2.17881,0.9482
306.586,19.29147,-0.80432,2.17363,0.94785
307.186,19.30956,-0.82126,2.17497,0.94749
307.786,19.32764,-0.8371,2.172,0.94714
308.386,19.34584,-0.85601,2.17094,0.94678
308.986,19.36393,-0.87178,2.1701,0.94643
309.586,19.38199,-0.89048,2.1703,0.94607
310.186,19.40009,-0.9067,2.16892,0.94572
310.786,19.4181,-0.92632,2.16884,0.94536
311.386,19.43615,-0.9415,2.16953,0.945
311.986,19.45424,-0.95837,2.17068,0.94464
312.586,19.4724,-0.97855,2.17323,0.94429
313.186,19.49051,-0.99482,2.17448,0.94393
313.786,19.5087,-1.01534,2.17704,0.94357
314.386,19.5268,-1.03232,2.1798,0.94321
314.986,19.54488,-1.05043,2.18168,0.94285
315.586,19.56295,-1.07394,2.18453,0.94249
316.186,19.58105,-1.09004,2.18816,0.94213
316.786,19.59915,-1.10917,2.19285,0.94177
317.386,19.61729,-1.13001,2.19709,0.94141
317.986,19.6354,-1.14878,2.19955,0.94105
318.586,19.6535,-1.17122,2.20458,0.94068
319.186,19.67164,-1.18937,2.20906,0.94032
319.786,19.68972,-1.21277,2.21331,0.93996
320.386,19.7078,-1.23088,2.21905,0.93959
320.986,19.72595,-1.25362,2.22097,0.93923
321.586,19.74404,-1.27324,2.22502,0.93887
322.186,19.7622,-1.2958,2.22906,0.9385
322.786,19.78035,-1.31741,2.23376,0.93814
323.386,19.79853,-1.33894,2.23664,0.93777
323.986,19.8167,-1.36236,2.24134,0.93741
324.586,19.83485,-1.38282,2.24609,0.93704
325.186,19.85296,-1.40801,2.25217,0.93667
325.786,19.87111,-1.42824,2.25634,0.93631
326.386,19.8892,-1.45404,2.26097,0.93594
326.986,19.90736,-1.47398,2.26246,0.93557
327.586,19.9255,-1.49901,2.26579,0.9352
328.186,19.9437,-1.52041,2.26875,0.93484
328.786,19.96187,-1.54514,2.27059,0.93447
329.386,19.98006,-1.5693,2.27412,0.9341
329.986,19.99827,-1.59297,2.27361,0.93373
330.586,20.0164,-1.61848,2.27307,0.93336
331.186,20.0346,-1.64079,2.27372,0.93299
331.786,20.0528,-1.66862,2.27217,0.93262
332.386,20.07101,-1.6908,2.27101,0.93225
332.986,20.08914,-1.71885,2.27165,0.93188
333.586,20.10734,-1.74085,2.26946,0.9315
334.186,20.12556,-1.76854,2.26474,0.93113
334.786,20.14377,-1.79179,2.26034,0.93076
335.386,20.16197,-1.81839,2.25794,0.93039
335.986,20.18018,-1.84369,2.25191,0.93001
336.586,20.19835,-1.86881,2.24483,0.92964
337.186,20.2165,-1.89618,2.2375,0.92927
337.786,20.2346,-1.9198,2.23095,0.92889
338.386,20.25269,-1.94848,2.21917,0.92852
338.986,20.27082,-1.97121,2.20944,0.92814
339.586,20.28904,-2.00025,2.19609,0.92777
340.186,20.30723,-2.02306,2.18287,0.92739
340.786,20.3255,-2.05107,2.17225,0.92701
341.386,20.3438,-2.07445,2.15283,0.92664
341.986,20.36204,-2.10038,2.1376,0.92626
342.586,20.38025,-2.12491,2.1177,0.92588
343.186,20.39844,-2.14924,2.09813,0.9255
343.786,20.41667,-2.17627,2.07688,0.92513
344.386,20.43489,-2.1995,2.05165,0.92475
344.986,20.4531,-2.22712,2.02671,0.92437
345.586,20.47137,-2.25008,1.99795,0.92399
346.186,20.4896,-2.27752,1.97364,0.92361
346.786,20.5079,-2.29839,1.93874,0.92323
347.386,20.52615,-2.32451,1.90501,0.92285
347.986,20.54435,-2.34568,1.871,0.92247
348.586,20.56244,-2.3698,1.83347,0.92209
349.186,20.58061,-2.39193,1.79485,0.92171
349.786,20.59883,-2.41382,1.75452,0.92133
350.386,20.61703,-2.43658,1.7087,0.92094
350.986,20.63532,-2.45615,1.66407,0.92056
351.586,20.65371,-2.47925,1.61769,0.92018
352.186,20.672,-2.49772,1.56631,0.91979
352.786,20.69023,-2.52022,1.51829,0.91941
353.386,20.70849,-2.53648,1.46837,0.91903
353.986,20.7267,-2.5563,1.41804,0.91864
354.586,20.74488,-2.5719,1.36527,0.91826
355.186,20.76312,-2.58959,1.31232,0.91787
355.786,20.78135,-2.60467,1.26035,0.91749
356.386,20.79959,-2.61959,1.21042,0.9171
356.986,20.81779,-2.63446,1.1605,0.91672
357.586,20.83602,-2.64744,1.11515,0.91633
358.186,20.85425,-2.66184,1.06821,0.91594
358.786,20.87244,-2.67299,1.02259,0.91556
359.386,20.8906,-2.686,0.97767,0.91517
359.986,20.90885,-2.69508,0.93742,0.91478
360.586,20.927,-2.70682,0.89905,0.91439
361.186,20.9452,-2.71567,0.86251,0.914
361.786,20.9634,-2.72565,0.82664,0.91361
362.386,20.98167,-2.73416,0.7942,0.91322
362.986,20.99991,-2.74267,0.76196,0.91284
363.586,21.01823,-2.75233,0.73263,0.91245
364.186,21.03651,-2.76003,0.70467,0.91205
364.786,21.05486,-2.76705,0.67911,0.91166
365.386,21.07313,-2.7722,0.65431,0.91127
365.986,21.09139,-2.77872,0.63182,0.91088
366.586,21.1097,-2.78379,0.60928,0.91049
367.186,21.12793,-2.79013,0.59058,0.9101
367.786,21.1462,-2.79496,0.57257,0.90971
368.386,21.16442,-2.80015,0.55518,0.90931
368.986,21.18272,-2.80395,0.54073,0.90892
369.586,21.20099,-2.80888,0.52402,0.90853
370.186,21.2193,-2.81318,0.51119,0.90813
370.786,21.23754,-2.8171,0.4987,0.90774
371.386,21.2559,-2.82137,0.48886,0.90734
371.986,21.27415,-2.82477,0.47749,0.90695
372.586,21.29242,-2.82791,0.4659,0.90655
373.186,21.31061,-2.83151,0.45423,0.90616
373.786,21.32897,-2.83547,0.44744,0.90576
374.386,21.34732,-2.8382,0.43889,0.90537
374.986,21.36569,-2.84148,0.43223,0.90497
375.586,21.3841,-2.84515,0.42691,0.90457
376.186,21.40258,-2.84788,0.41844,0.90418
376.786,21.42095,-2.85064,0.41067,0.90378
377.386,21.4393,-2.85432,0.40765,0.90338
377.986,21.4577,-2.85681,0.40316,0.90298
378.586,21.47605,-2.85938,0.39559,0.90258
379.186,21.49442,-2.86149,0.39095,0.90219
379.786,21.51278,-2.8642,0.38751,0.90179
380.386,21.53114,-2.86715,0.38385,0.90139
380.986,21.54955,-2.86879,0.38092,0.90099
381.586,21.56798,-2.87055,0.37358,0.90059
382.186,21.5864,-2.87284,0.37129,0.90019
382.786,21.6048,-2.87531,0.36909,0.89979
383.386,21.62325,-2.87811,0.36317,0.89939
383.986,21.64162,-2.88032,0.35999,0.89898
384.586,21.66004,-2.88204,0.35845,0.89858
385.186,21.67846,-2.88386,0.35391,0.89818
385.786,21.6969,-2.88596,0.3492,0.89778
386.386,21.71529,-2.88825,0.34714,0.89738
386.986,21.73379,-2.89057,0.34601,0.89697
387.586,21.75225,-2.89241,0.34252,0.89657
388.186,21.77072,-2.89417,0.33985,0.89616
388.786,21.78916,-2.8962,0.33625,0.89576
389.386,21.80764,-2.89837,0.33586,0.89536
389.986,21.82609,-2.90051,0.33223,0.89495
390.586,21.84458,-2.90252,0.32907,0.89455
391.186,21.86305,-2.90414,0.3258,0.89414
391.786,21.8815,-2.90581,0.32254,0.89374
392.386,21.90004,-2.90762,0.32266,0.89333
392.986,21.9185,-2.90982,0.32114,0.89292
393.586,21.93701,-2.91144,0.31786,0.89252
394.186,21.95552,-2.91302,0.31544,0.89211
394.786,21.97411,-2.91457,0.31495,0.8917
395.386,21.99265,-2.91575,0.3137,0.8913
395.986,22.01119,-2.91757,0.30902,0.89089
396.586,22.02972,-2.91955,0.30898,0.89048
397.186,22.04823,-2.92118,0.3074,0.89007
397.786,22.06672,-2.92294,0.30701,0.88966
398.386,22.08524,-2.92472,0.30611,0.88925
398.986,22.10378,-2.92647,0.30311,0.88884
399.586,22.1223,-2.92772,0.30225,0.88843
400.186,22.14092,-2.929,0.30072,0.88802
400.786,22.15953,-2.93195,0.29844,0.88761
401.386,22.1781,-2.93367,0.29798,0.8872
401.986,22.19669,-2.93553,0.29727,0.88679
402.586,22.21526,-2.93782,0.29537,0.88638
403.186,22.23374,-2.94014,0.29414,0.88597
403.786,22.25235,-2.94197,0.29321,0.88556
404.386,22.271,-2.94279,0.29236,0.88515
404.986,22.28953,-2.94325,0.29134,0.88473
405.586,22.3081,-2.94445,0.28992,0.88432
406.186,22.32684,-2.94612,0.288,0.88391
406.786,22.3454,-2.94779,0.28624,0.88349
407.386,22.36392,-2.94945,0.28528,0.88308
407.986,22.38253,-2.95129,0.28514,0.88267
408.586,22.40115,-2.95319,0.284,0.88225
409.186,22.4197,-2.95446,0.28437,0.88184
409.786,22.4384,-2.95581,0.28291,0.88142
410.386,22.457,-2.9571,0.28099,0.88101
410.986,22.47561,-2.95855,0.28058,0.88059
411.586,22.49425,-2.95975,0.27944,0.88018
412.186,22.5128,-2.96086,0.27833,0.87976
412.786,22.53145,-2.96183,0.27874,0.87935
413.386,22.55011,-2.96328,0.27966,0.87893
413.986,22.56874,-2.96496,0.27695,0.87851
414.586,22.5874,-2.96645,0.27551,0.87809
415.186,22.60608,-2.96852,0.27508,0.87768
415.786,22.62465,-2.96964,0.27491,0.87726
416.386,22.64335,-2.97162,0.27391,0.87684
416.986,22.66209,-2.97254,0.2737,0.87642
417.586,22.68076,-2.97433,0.27307,0.876
418.186,22.69955,-2.97628,0.27276,0.87559
418.786,22.71835,-2.97828,0.27206,0.87517
419.386,22.73706,-2.98063,0.27192,0.87475
419.986,22.75579,-2.98265,0.27273,0.87433
420.586,22.77447,-2.98391,0.2704,0.87391
421.186,22.7931,-2.98461,0.27031,0.87349
421.786,22.81185,-2.98586,0.26987,0.87307
422.386,22.8306,-2.98704,0.26947,0.87264
422.986,22.8493,-2.98769,0.27094,0.87222
423.586,22.86811,-2.98892,0.26836,0.8718
424.186,22.88692,-2.99042,0.26686,0.87138
424.786,22.90564,-2.9918,0.26791,0.87096
425.386,22.92437,-2.99152,0.2667,0.87054
425.986,22.94308,-2.99276,0.26742,0.87011
426.586,22.9619,-2.9944,0.26669,0.86969
427.186,22.9806,-2.99601,0.26724,0.86927
427.786,22.99934,-2.99711,0.2676,0.86884
428.386,23.01802,-2.99831,0.26714,0.86842
428.986,23.0367,-2.99963,0.2651,0.868
429.586,23.05539,-3.00128,0.26635,0.86757
430.186,23.07411,-3.0033,0.26872,0.86715
430.786,23.09286,-3.00568,0.26615,0.86672
431.386,23.11168,-3.00692,0.26435,0.8663
431.986,23.1305,-3.00794,0.26281,0.86587
432.586,23.14933,-3.00933,0.26407,0.86544
433.186,23.16819,-3.00955,0.26457,0.86502
433.786,23.18703,-3.01099,0.26502,0.86459
434.386,23.2058,-3.012,0.26411,0.86417
434.986,23.2246,-3.01242,0.26376,0.86374
435.586,23.24344,-3.01419,0.26367,0.86331
436.186,23.26224,-3.01489,0.26243,0.86288
436.786,23.281,-3.01552,0.26366,0.86246
437.386,23.29981,-3.01639,0.26421,0.86203
437.986,23.31866,-3.01793,0.26252,0.8616
438.586,23.3375,-3.01926,0.26404,0.86117
439.186,23.35631,-3.02014,0.26482,0.86074
439.786,23.37514,-3.02235,0.26408,0.86032
440.386,23.394,-3.02411,0.26433,0.85989
440.986,23.41283,-3.0254,0.26395,0.85946
441.586,23.4316,-3.02646,0.26375,0.85903
442.186,23.45049,-3.0272,0.26323,0.8586
442.786,23.4694,-3.02891,0.26421,0.85817
443.386,23.4882,-3.03039,0.2666,0.85774
443.986,23.50703,-3.03065,0.26804,0.8573
444.586,23.52595,-3.03233,0.26627,0.85687
445.186,23.54485,-3.03316,0.26545,0.85644
445.786,23.56371,-3.03372,0.26544,0.85601
446.386,23.58258,-3.03377,0.26666,0.85558
446.986,23.6015,-3.03514,0.2668,0.85515
447.586,23.62034,-3.03509,0.26673,0.85471
448.186,23.63918,-3.03658,0.26777,0.85428
448.786,23.65813,-3.03814,0.26846,0.85385
449.386,23.6771,-3.03984,0.26925,0.85342
449.986,23.69604,-3.04088,0.26947,0.85298
450.586,23.71496,-3.04192,0.26932,0.85255
451.186,23.73386,-3.04325,0.2682,0.85211
451.786,23.75272,-3.04351,0.27057,0.85168
452.386,23.7716,-3.04496,0.27064,0.85125
452.986,23.79048,-3.04633,0.27015,0.85081
453.586,23.80939,-3.04709,0.27054,0.85038
454.186,23.8283,-3.04847,0.26959,0.84994
454.786,23.84724,-3.04986,0.26986,0.84951
455.386,23.86616,-3.05063,0.27082,0.84907
455.986,23.88513,-3.05144,0.2704,0.84863
456.586,23.90408,-3.05306,0.27089,0.8482
457.186,23.92304,-3.05334,0.27153,0.84776
457.786,23.94192,-3.05344,0.26896,0.84732
458.386,23.96085,-3.05469,0.27112,0.84689
458.986,23.97975,-3.05536,0.27151,0.84645
459.586,23.99869,-3.05658,0.27309,0.84601
460.186,24.01761,-3.05799,0.27377,0.84558
460.786,24.03655,-3.05857,0.27428,0.84514
461.386,24.05548,-3.06103,0.27388,0.8447
461.986,24.07451,-3.0624,0.27547,0.84426
462.586,24.0935,-3.06326,0.27385,0.84382
463.186,24.11261,-3.064,0.27397,0.84338
463.786,24.13166,-3.06491,0.27407,0.84294
464.386,24.1507,-3.0667,0.27494,0.8425
464.986,24.1696,-3.06842,0.27454,0.84207
465.586,24.18861,-3.06938,0.27667,0.84163
466.186,24.2076,-3.0706,0.27432,0.84118
466.786,24.22663,-3.07225,0.27681,0.84074
467.386,24.2456,-3.07375,0.27693,0.8403
467.986,24.26465,-3.07403,0.27868,0.83986
468.586,24.2836,-3.07489,0.27885,0.83942
469.186,24.3026,-3.07583,0.2784,0.83898
469.786,24.32161,-3.07646,0.27865,0.83854
470.386,24.3406,-3.07789,0.27883,0.8381
470.986,24.35966,-3.07961,0.2794,0.83766
471.586,24.3787,-3.08017,0.28049,0.83721
472.186,24.3978,-3.08117,0.28255,0.83677
472.786,24.4168,-3.08243,0.28138,0.83633
473.386,24.4358,-3.08259,0.27927,0.83589
473.986,24.45477,-3.08349,0.27929,0.83544
474.586,24.4738,-3.08393,0.28081,0.835
475.186,24.49265,-3.08534,0.28355,0.83455
475.786,24.51171,-3.08612,0.28241,0.83411
476.386,24.53077,-3.08734,0.28276,0.83367
476.986,24.54982,-3.08886,0.28359,0.83322
477.586,24.56896,-3.08881,0.28491,0.83278
478.186,24.58804,-3.0904,0.28429,0.83233
478.786,24.6071,-3.09116,0.28621,0.83189
479.386,24.6262,-3.09186,0.28667,0.83144
479.986,24.64515,-3.09328,0.28843,0.831
480.586,24.6642,-3.09376,0.28757,0.83055
481.186,24.68329,-3.09485,0.28763,0.83011
481.786,24.7024,-3.09619,0.28942,0.82966
482.386,24.72145,-3.0964,0.2884,0.82921
482.986,24.74051,-3.09613,0.2888,0.82877
483.586,24.75959,-3.09653,0.28827,0.82832
484.186,24.77861,-3.09685,0.28789,0.82787
484.786,24.7976,-3.09724,0.28958,0.82743
485.386,24.8167,-3.09814,0.28961,0.82698
485.986,24.83577,-3.09861,0.28817,0.82653
486.586,24.85483,-3.09943,0.28859,0.82608
487.186,24.87386,-3.10085,0.29045,0.82563
487.786,24.8929,-3.10262,0.29264,0.82519
488.386,24.91196,-3.10391,0.29198,0.82474
488.986,24.931,-3.10675,0.29074,0.82429
489.586,24.95,-3.10797,0.29145,0.82384
490.186,24.96913,-3.10841,0.29364,0.82339
490.786,24.9882,-3.10959,0.2924,0.82294
491.386,25.00729,-3.1097,0.29259,0.82249
491.986,25.0264,-3.11091,0.2923,0.82204
492.586,25.04554,-3.11248,0.29548,0.82159
493.186,25.0646,-3.11355,0.29672,0.82114
493.786,25.08367,-3.1139,0.29619,0.82069
494.386,25.10275,-3.11556,0.29751,0.82024
494.986,25.1219,-3.11552,0.29771,0.81979
495.586,25.14102,-3.11678,0.29897,0.81934
496.186,25.16019,-3.11676,0.29623,0.81889
496.786,25.17931,-3.11818,0.29725,0.81843
497.386,25.1984,-3.1187,0.29973,0.81798
497.986,25.21756,-3.11965,0.30124,0.81753
498.586,25.2366,-3.11999,0.30116,0.81708
499.186,25.25574,-3.12111,0.2984,0.81663
499.786,25.2748,-3.12148,0.30056,0.81617
500.386,25.29392,-3.12237,0.30244,0.81572
500.986,25.31298,-3.12249,0.30263,0.81527
501.586,25.332,-3.12372,0.30198,0.81481
502.186,25.35108,-3.12374,0.30344,0.81436
502.786,25.3703,-3.1251,0.30527,0.81391
503.386,25.38938,-3.1257,0.30429,0.81345
503.986,25.40856,-3.12653,0.30495,0.813
504.586,25.42781,-3.12767,0.30488,0.81255
505.186,25.44693,-3.12772,0.30643,0.81209
505.786,25.4661,-3.12933,0.30615,0.81164
506.386,25.48527,-3.12987,0.30703,0.81118
506.986,25.50445,-3.13073,0.30717,0.81073
507.586,25.5236,-3.131,0.30798,0.81027
508.186,25.54275,-3.13211,0.30734,0.80982
508.786,25.56186,-3.13293,0.30687,0.80936
509.386,25.58095,-3.13342,0.30869,0.8089
509.986,25.60006,-3.13444,0.30948,0.80845
510.586,25.6192,-3.13632,0.31072,0.80799
511.186,25.63845,-3.13713,0.31389,0.80754
511.786,25.65771,-3.13772,0.31501,0.80708
512.386,25.67688,-3.13885,0.31451,0.80662
512.986,25.6961,-3.13911,0.31513,0.80616
513.586,25.71529,-3.14003,0.31534,0.80571
514.186,25.7345,-3.14042,0.31781,0.80525
514.786,25.7537,-3.1403,0.31833,0.80479
515.386,25.77291,-3.14096,0.31787,0.80433
515.986,25.7921,-3.14114,0.31862,0.80388
516.586,25.81129,-3.14124,0.32228,0.80342
517.186,25.83055,-3.14176,0.321,0.80296
517.786,25.8498,-3.14178,0.32123,0.8025
518.386,25.869,-3.14327,0.32163,0.80204
518.986,25.88826,-3.14324,0.32257,0.80158
519.586,25.90739,-3.14461,0.32388,0.80113
520.186,25.92653,-3.14454,0.32259,0.80067
520.786,25.94574,-3.14598,0.32623,0.80021
521.386,25.96484,-3.14611,0.32718,0.79975
521.986,25.98394,-3.14735,0.32689,0.79929
522.586,26.00326,-3.14703,0.32832,0.79883
523.186,26.0225,-3.14793,0.33052,0.79837
523.786,26.04178,-3.14794,0.33268,0.79791
524.386,26.06119,-3.14847,0.33282,0.79745
524.986,26.08051,-3.14903,0.33396,0.79699
525.586,26.09976,-3.14902,0.33345,0.79652
526.186,26.11901,-3.15034,0.33409,0.79606
526.786,26.13821,-3.15033,0.33476,0.7956
527.386,26.15746,-3.15025,0.33491,0.79514
527.986,26.17671,-3.1517,0.33605,0.79468
528.586,26.19605,-3.15171,0.33722,0.79422
529.186,26.21534,-3.15285,0.33638,0.79375
529.786,26.23467,-3.15307,0.33611,0.79329
530.386,26.254,-3.15306,0.33561,0.79283
530.986,26.2733,-3.1557,0.33822,0.79237
531.586,26.2926,-3.15573,0.34009,0.79191
532.186,26.31198,-3.15626,0.34073,0.79144
532.786,26.33128,-3.15711,0.33927,0.79098
533.386,26.35047,-3.15818,0.34202,0.79052
533.986,26.3698,-3.15858,0.33934,0.79005
534.586,26.3891,-3.15854,0.3424,0.78959
535.186,26.4084,-3.15989,0.34179,0.78913
535.786,26.42778,-3.1599,0.33897,0.78866
536.386,26.4471,-3.16004,0.34197,0.7882
536.986,26.46642,-3.16128,0.34285,0.78773
537.586,26.4858,-3.16113,0.34368,0.78727
538.186,26.50511,-3.16247,0.34443,0.7868
538.786,26.52447,-3.16251,0.34231,0.78634
539.386,26.54383,-3.16307,0.34135,0.78587
539.986,26.5632,-3.16245,0.34171,0.78541
540.586,26.58255,-3.16253,0.3437,0.78494
541.186,26.60186,-3.16254,0.34522,0.78448
541.786,26.6212,-3.16261,0.34607,0.78401
542.386,26.6405,-3.16385,0.34595,0.78355
542.986,26.6597,-3.16385,0.34569,0.78308
543.586,26.67898,-3.16386,0.34581,0.78262
544.186,26.69834,-3.16458,0.34626,0.78215
544.786,26.7177,-3.16655,0.34813,0.78168
545.386,26.7371,-3.1664,0.34862,0.78122
545.986,26.7565,-3.16777,0.34948,0.78075
546.586,26.7759,-3.1678,0.3484,0.78028
547.186,26.79515,-3.16787,0.34926,0.77982
547.786,26.8145,-3.16922,0.35104,0.77935
548.386,26.83385,-3.16915,0.35195,0.77888
548.986,26.85323,-3.16939,0.35261,0.77841
549.586,26.87252,-3.17045,0.35219,0.77795
550.186,26.8919,-3.17045,0.35089,0.77748
550.786,26.91125,-3.17182,0.35338,0.77701
551.386,26.9306,-3.17176,0.35311,0.77654
551.986,26.95,-3.17176,0.35376,0.77607
552.586,26.96932,-3.17176,0.35459,0.7756
553.186,26.98868,-3.17308,0.35432,0.77514
553.786,27.00801,-3.17317,0.35329,0.77467
554.386,27.0274,-3.17318,0.35391,0.7742
554.986,27.04682,-3.17318,0.35463,0.77373
555.586,27.06625,-3.17318,0.35378,0.77326
556.186,27.0857,-3.17309,0.35346,0.77279
556.786,27.1051,-3.1718,0.35195,0.77232
557.386,27.1245,-3.17232,0.35037,0.77185
557.986,27.14394,-3.17391,0.35098,0.77138
558.586,27.16328,-3.17532,0.35188,0.77091
559.186,27.18266,-3.17678,0.35113,0.77044
559.786,27.202,-3.17685,0.34973,0.76997
560.386,27.2214,-3.17801,0.34697,0.7695
560.986,27.2408,-3.178,0.34656,0.76903
561.586,27.26025,-3.17869,0.3471,0.76856
562.186,27.2797,-3.17933,0.34314,0.76809
562.786,27.2992,-3.17934,0.3454,0.76762
563.386,27.3186,-3.18041,0.34629,0.76715
563.986,27.338,-3.18202,0.34557,0.76668
564.586,27.3575,-3.18242,0.34495,0.7662
565.186,27.3769,-3.18331,0.34336,0.76573
565.786,27.3963,-3.18328,0.34363,0.76526
566.386,27.41572,-3.18327,0.34262,0.76479
566.986,27.43518,-3.18417,0.34009,0.76432
567.586,27.45461,-3.18466,0.34037,0.76384
568.186,27.47402,-3.18338,0.34247,0.76337
568.786,27.49349,-3.1833,0.33812,0.7629
569.386,27.513,-3.18352,0.3393,0.76243
569.986,27.53241,-3.18461,0.33843,0.76195
570.586,27.55185,-3.18461,0.33844,0.76148
571.186,27.5713,-3.18597,0.33742,0.76101
571.786,27.5907,-3.18727,0.3382,0.76054
572.386,27.6101,-3.18723,0.33793,0.76006
572.986,27.62952,-3.18723,0.33661,0.75959
573.586,27.6488,-3.18847,0.3352,0.75912
574.186,27.6683,-3.18876,0.33676,0.75864
574.786,27.68778,-3.19038,0.33594,0.75817
575.386,27.70725,-3.19121,0.33544,0.75769
575.986,27.72675,-3.19118,0.33445,0.75722
576.586,27.7463,-3.19119,0.33452,0.75675
577.186,27.76571,-3.1915,0.33518,0.75627
577.786,27.78513,-3.19255,0.33417,0.7558
578.386,27.80465,-3.1925,0.33443,0.75532
578.986,27.8241,-3.1925,0.33518,0.75485
579.586,27.8436,-3.19249,0.33457,0.75437
580.186,27.863,-3.1931,0.33647,0.7539
580.786,27.88246,-3.1924,0.33586,0.75342
581.386,27.9019,-3.19263,0.33626,0.75295
581.986,27.92145,-3.19394,0.33584,0.75247
582.586,27.94091,-3.19391,0.3367,0.752
583.186,27.9605,-3.19496,0.33648,0.75152
583.786,27.97996,-3.19525,0.33718,0.75104
584.386,27.99946,-3.19586,0.33994,0.75057
584.986,28.01895,-3.19658,0.34029,0.75009
585.586,28.03851,-3.19651,0.34083,0.74962
586.186,28.05798,-3.19787,0.34161,0.74914
586.786,28.07742,-3.19788,0.33994,0.74866
587.386,28.09693,-3.19788,0.34077,0.74819
587.986,28.11644,-3.19789,0.34087,0.74771
588.586,28.1359,-3.19821,0.34023,0.74723
589.186,28.15542,-3.19925,0.33866,0.74676
589.786,28.17503,-3.1992,0.33822,0.74628
590.386,28.1945,-3.1992,0.33932,0.7458
590.986,28.214,-3.1992,0.33865,0.74533
591.586,28.2336,-3.19918,0.33774,0.74485
592.186,28.2532,-3.19966,0.33795,0.74437
592.786,28.27266,-3.19985,0.33906,0.74389
593.386,28.2922,-3.19986,0.33973,0.74342
593.986,28.3117,-3.19986,0.34053,0.74294
594.586,28.3312,-3.19988,0.34077,0.74246
595.186,28.3506,-3.20054,0.34081,0.74198
595.786,28.3702,-3.20107,0.341,0.7415
596.386,28.3897,-3.20074,0.3422,0.74103
596.986,28.40925,-3.2007,0.34354,0.74055
597.586,28.4289,-3.20204,0.34351,0.74007
598.186,28.44845,-3.20205,0.34315,0.73959
598.786,28.46797,-3.20205,0.34271,0.73911
599.386,28.4875,-3.20205,0.34128,0.73863
599.986,28.5071,-3.20205,0.34236,0.73815
600.586,28.5267,-3.20205,0.3393,0.73768
601.186,28.54618,-3.20204,0.34086,0.7372
601.786,28.56574,-3.20299,0.34022,0.73672
602.386,28.58522,-3.20342,0.33723,0.73624
602.986,28.6048,-3.20478,0.33702,0.73576
603.586,28.6244,-3.2047,0.33701,0.73528
604.186,28.64395,-3.20469,0.33891,0.7348
604.786,28.66358,-3.20469,0.33774,0.73432
605.386,28.68323,-3.20472,0.33612,0.73384
605.986,28.70283,-3.2038,0.3388,0.73336
606.586,28.7224,-3.2034,0.33706,0.73288
607.186,28.742,-3.20477,0.34141,0.7324
607.786,28.7616,-3.20469,0.33926,0.73192
608.386,28.7811,-3.20469,0.34055,0.73144
608.986,28.80074,-3.20469,0.33891,0.73096
609.586,28.82047,-3.20472,0.34015,0.73048
610.186,28.84,-3.20568,0.34248,0.73
610.786,28.85967,-3.20601,0.34477,0.72952
611.386,28.8793,-3.20602,0.34384,0.72903
611.986,28.89886,-3.20657,0.34218,0.72855
612.586,28.91845,-3.20734,0.34416,0.72807
613.186,28.9381,-3.20732,0.34601,0.72759
613.786,28.95765,-3.2075,0.34479,0.72711
614.386,28.9773,-3.20878,0.34684,0.72663
614.986,28.9969,-3.20735,0.34827,0.72615
615.586,29.01655,-3.20732,0.34987,0.72567
616.186,29.0362,-3.20732,0.34793,0.72518
616.786,29.05588,-3.20732,0.34852,0.7247
617.386,29.07553,-3.2073,0.34889,0.72422
617.986,29.09514,-3.20787,0.35375,0.72374
618.586,29.1147,-3.20828,0.35602,0.72326
619.186,29.13435,-3.20854,0.35434,0.72277
619.786,29.15397,-3.20986,0.35655,0.72229
620.386,29.17362,-3.20997,0.35688,0.72181
620.986,29.19325,-3.21011,0.35878,0.72133
621.586,29.21292,-3.21132,0.35947,0.72084
622.186,29.2326,-3.21127,0.36221,0.72036
622.786,29.2523,-3.21125,0.3619,0.71988
623.386,29.2719,-3.20988,0.3645,0.7194
623.986,29.29158,-3.20995,0.36382,0.71891
624.586,29.31128,-3.21004,0.36514,0.71843
625.186,29.3309,-3.21127,0.36614,0.71795
625.786,29.3506,-3.21127,0.3671,0.71746
626.386,29.37029,-3.21127,0.37183,0.71698
626.986,29.3899,-3.21258,0.36991,0.7165
627.586,29.40949,-3.21258,0.37305,0.71601
628.186,29.4291,-3.21323,0.37226,0.71553
628.786,29.44875,-3.21322,0.37376,0.71505
629.386,29.46847,-3.21451,0.3718,0.71456
629.986,29.4881,-3.21456,0.37379,0.71408
630.586,29.50778,-3.21457,0.37652,0.7136
631.186,29.5275,-3.21457,0.37623,0.71311
631.786,29.5472,-3.21457,0.3781,0.71263
632.386,29.5669,-3.21457,0.37909,0.71214
632.986,29.58669,-3.21452,0.37865,0.71166
633.586,29.60636,-3.21571,0.37861,0.71117
634.186,29.626,-3.21587,0.37947,0.71069
634.786,29.64576,-3.21588,0.38179,0.71021
635.386,29.6655,-3.2159,0.3827,0.70972
635.986,29.68515,-3.21622,0.38253,0.70924
636.586,29.7049,-3.21652,0.38391,0.70875
637.186,29.72454,-3.21654,0.38476,0.70827
637.786,29.74418,-3.21654,0.3847,0.70778
638.386,29.7639,-3.21652,0.38481,0.7073
638.986,29.78358,-3.21702,0.38623,0.70681
639.586,29.8033,-3.21719,0.38569,0.70633
640.186,29.82305,-3.2172,0.38722,0.70584
640.786,29.8428,-3.2172,0.38705,0.70536
641.386,29.8625,-3.2172,0.38826,0.70487
641.986,29.8822,-3.2172,0.38778,0.70439
642.586,29.90186,-3.21721,0.38624,0.7039
643.186,29.9215,-3.21726,0.38862,0.70342
643.786,29.9412,-3.21855,0.3917,0.70293
644.386,29.96095,-3.21852,0.39207,0.70245
644.986,29.98068,-3.21851,0.39027,0.70196
645.586,30.00041,-3.21954,0.39084,0.70147
646.186,30.02015,-3.21984,0.38976,0.70099
646.786,30.03981,-3.21984,0.39057,0.7005
647.386,30.05953,-3.21984,0.38929,0.70002
647.986,30.0793,-3.21985,0.38942,0.69953
648.586,30.099,-3.22074,0.38817,0.69904
649.186,30.11875,-3.22118,0.38818,0.69856
649.786,30.1384,-3.21989,0.38786,0.69807
650.386,30.15819,-3.21983,0.38894,0.69759
650.986,30.1778,-3.21983,0.38874,0.6971
651.586,30.1975,-3.21983,0.38808,0.69661
652.186,30.2172,-3.21985,0.38852,0.69613
652.786,30.23694,-3.22051,0.38953,0.69564
653.386,30.25665,-3.22115,0.38856,0.69515
653.986,30.2765,-3.22115,0.38844,0.69467
654.586,30.29624,-3.22115,0.3886,0.69418
655.186,30.31597,-3.22116,0.39049,0.69369
655.786,30.33567,-3.22146,0.38712,0.69321
656.386,30.35537,-3.22252,0.3849,0.69272
656.986,30.3751,-3.2225,0.38819,0.69223
657.586,30.3948,-3.22291,0.38672,0.69174
658.186,30.41455,-3.2238,0.38839,0.69126
658.786,30.4343,-3.22384,0.38879,0.69077
659.386,30.45405,-3.22296,0.39071,0.69028
659.986,30.47376,-3.22244,0.38963,0.6898
660.586,30.49352,-3.22247,0.38999,0.68931
661.186,30.5132,-3.22247,0.38791,0.68882
661.786,30.53295,-3.22244,0.38835,0.68833
662.386,30.5527,-3.22335,0.38783,0.68785
662.986,30.5724,-3.22378,0.38755,0.68736
663.586,30.59217,-3.2238,0.38718,0.68687
664.186,30.6119,-3.22394,0.38773,0.68638
664.786,30.63164,-3.22474,0.39077,0.6859
665.386,30.65131,-3.2234,0.38898,0.68541
665.986,30.6711,-3.22346,0.38761,0.68492
666.586,30.69084,-3.22348,0.38647,0.68443
667.186,30.71053,-3.22379,0.38584,0.68394
667.786,30.73023,-3.22379,0.38524,0.68346
668.386,30.75,-3.22511,0.38722,0.68297
668.986,30.76975,-3.22511,0.38636,0.68248
669.586,30.78952,-3.22511,0.38612,0.68199
670.186,30.8093,-3.22511,0.38641,0.6815
670.786,30.82903,-3.22511,0.38474,0.68102
671.386,30.84875,-3.22511,0.38329,0.68053
671.986,30.8685,-3.22507,0.38384,0.68004
672.586,30.88819,-3.22608,0.38001,0.67955
673.186,30.90792,-3.2261,0.38096,0.67906
673.786,30.92765,-3.2261,0.38463,0.67857
674.386,30.9475,-3.22611,0.38537,0.67809
674.986,30.9672,-3.22635,0.38441,0.6776
675.586,30.9871,-3.22642,0.38336,0.67711
676.186,31.0069,-3.22643,0.38528,0.67662
676.786,31.0267,-3.22642,0.38437,0.67613
677.386,31.0464,-3.22745,0.38475,0.67564
677.986,31.0662,-3.22773,0.3843,0.67515
678.586,31.0859,-3.22775,0.38672,0.67466
679.186,31.1058,-3.22778,0.38086,0.67418
679.786,31.12554,-3.22827,0.38234,0.67369
680.386,31.14525,-3.22907,0.38255,0.6732
680.986,31.165,-3.22906,0.38049,0.67271
681.586,31.18477,-3.22911,0.37728,0.67222
682.186,31.2046,-3.23046,0.37909,0.67173
682.786,31.22434,-3.23038,0.37874,0.67124
683.386,31.24417,-3.23036,0.38005,0.67075
683.986,31.26393,-3.23017,0.3824,0.67026
684.586,31.28371,-3.22894,0.38132,0.66977
685.186,31.3034,-3.23026,0.38078,0.66929
685.786,31.32323,-3.23038,0.37803,0.6688
686.386,31.34303,-3.23038,0.37955,0.66831
686.986,31.36287,-3.23038,0.37987,0.66782
687.586,31.3827,-3.23039,0.38026,0.66733
688.186,31.4025,-3.23058,0.37941,0.66684
688.786,31.42225,-3.23171,0.37899,0.66635
689.386,31.442,-3.2317,0.38028,0.66586
689.986,31.4618,-3.2317,0.37994,0.66537
690.586,31.48157,-3.2317,0.37751,0.66488
691.186,31.5014,-3.2317,0.37677,0.66439
691.786,31.52119,-3.2317,0.37522,0.6639
692.386,31.54102,-3.2317,0.37543,0.66341
692.986,31.5608,-3.2317,0.37675,0.66292
693.586,31.5805,-3.23301,0.3803,0.66243
694.186,31.60032,-3.2317,0.3787,0.66194
694.786,31.6202,-3.2317,0.37596,0.66145
695.386,31.6405,-3.2317,0.37621,0.66096
695.986,31.66109,-3.2317,0.37472,0.66047
696.186,31.66661,-3.2317,0.37458,0.66031