File: 01_Data/Cotton_Raw/STA/N2/3K_min/Cotton_Raw_STA_N2_3KData_210709_R1.csv
##Temp./Â°C,Time/min,Mass loss(subtr.2)/mg,DSC(subtr.2)/(mW/mg),Sensit./(uV/mW)
48.844,10.00667,-0.03104,0.01384991,0.58406
49.444,12.05021,-0.03466106,0.03131129,0.58435
50.044,12.66469,-0.03598,0.03888226,0.58463
50.644,13.1325,-0.03598,0.0452698,0.58492
51.244,13.5436,-0.03668196,0.05091162,0.5852
51.844,13.9154,-0.03872494,0.05390073,0.58548
52.444,14.26234,-0.03982556,0.06074044,0.58576
53.044,14.58944,-0.0391319,0.05919193,0.58604
53.644,14.9,-0.04003,0.06194567,0.58631
54.244,15.1996,-0.03372467,0.06265013,0.58659
54.844,15.4907,-0.04300021,0.06590821,0.58687
55.444,15.77307,-0.04401155,0.06958988,0.58714
56.044,16.04796,-0.0429201,0.07679277,0.58742
56.644,16.3168,-0.04299044,0.07834928,0.58769
57.244,16.57826,-0.04497,0.08365133,0.58796
57.844,16.8335,-0.04629,0.08282469,0.58823
58.444,17.08405,-0.04640256,0.08507309,0.5885
59.044,17.33071,-0.04627594,0.08729368,0.58877
59.644,17.5742,-0.04761034,0.0890647,0.58904
60.244,17.81573,-0.04914,0.08796466,0.58931
60.844,18.05319,-0.0504601,0.09219302,0.58958
61.444,18.28814,-0.04998328,0.09542405,0.58984
62.044,18.5208,-0.05189,0.09301727,0.59011
62.644,18.75091,-0.05188506,0.09758422,0.59037
63.244,18.97859,-0.05560981,0.10117,0.59063
63.844,19.20427,-0.05385001,0.09888029,0.59089
64.444,19.42889,-0.05418363,0.1044,0.59116
65.044,19.65175,-0.05540043,0.10279,0.59142
65.644,19.87312,-0.05748272,0.10506,0.59167
66.244,20.09277,-0.06433452,0.10583,0.59193
66.844,20.31136,-0.05405548,0.10823,0.59219
67.444,20.5285,-0.05901021,0.10768,0.59245
68.044,20.74481,-0.06033,0.10716,0.5927
68.644,20.96037,-0.06163991,0.1108,0.59296
69.244,21.17524,-0.06310935,0.11141,0.59321
69.844,21.38895,-0.06163415,0.11164,0.59346
70.444,21.60138,-0.06482,0.11344,0.59371
71.044,21.81257,-0.06515409,0.11784,0.59396
71.644,22.02329,-0.06514971,0.11676,0.59421
72.244,22.23345,-0.06746,0.11439,0.59446
72.844,22.44344,-0.06839074,0.11547,0.59471
73.444,22.6528,-0.06943,0.11839,0.59496
74.044,22.86232,-0.06943,0.11777,0.5952
74.644,23.0708,-0.07158749,0.11789,0.59545
75.244,23.2789,-0.07464932,0.11994,0.59569
75.844,23.48625,-0.07096,0.11471,0.59593
76.444,23.69374,-0.07469495,0.11629,0.59618
77.044,23.9,-0.07370053,0.11782,0.59642
77.644,24.10633,-0.07534872,0.11648,0.59666
78.244,24.312,-0.07644355,0.11735,0.5969
78.844,24.51754,-0.07634699,0.11866,0.59713
79.444,24.7234,-0.07765993,0.1175,0.59737
80.044,24.92892,-0.07765902,0.11509,0.59761
80.644,25.13413,-0.08161022,0.11586,0.59784
81.244,25.33914,-0.08062125,0.12111,0.59808
81.844,25.5434,-0.08062002,0.11672,0.59831
82.444,25.74742,-0.08194,0.11345,0.59854
83.044,25.95113,-0.08062,0.114,0.59878
83.644,26.15401,-0.08202512,0.113,0.59901
84.244,26.35572,-0.08325,0.1138,0.59924
84.844,26.5572,-0.08589307,0.11618,0.59946
85.444,26.75783,-0.08589091,0.11342,0.59969
86.044,26.95911,-0.08687111,0.11294,0.59992
86.644,27.1596,-0.08818987,0.11431,0.60014
87.244,27.36085,-0.08686993,0.11409,0.60037
87.844,27.5616,-0.0886409,0.11429,0.60059
88.444,27.76231,-0.08830101,0.10923,0.60082
89.044,27.96165,-0.08896,0.1102,0.60104
89.644,28.16085,-0.08995,0.10842,0.60126
90.244,28.3597,-0.08894018,0.11001,0.60148
90.844,28.5588,-0.09158987,0.10636,0.6017
91.444,28.75706,-0.08750797,0.10613,0.60192
92.044,28.95495,-0.09393266,0.10851,0.60213
92.644,29.15292,-0.09345,0.10255,0.60235
93.244,29.3509,-0.09218299,0.10398,0.60257
93.844,29.5489,-0.0936812,0.10559,0.60278
94.444,29.74607,-0.09356225,0.09954258,0.60299
95.044,29.9426,-0.09323,0.10076,0.60321
95.644,30.1388,-0.09323,0.10126,0.60342
96.244,30.3357,-0.09455,0.09941853,0.60363
96.844,30.53225,-0.09356515,0.10034,0.60384
97.444,30.7279,-0.09619448,0.10001,0.60405
98.044,30.92377,-0.0962,0.09947112,0.60425
98.644,31.11951,-0.09488012,0.10186,0.60446
99.244,31.31553,-0.09454631,0.09999551,0.60467
99.844,31.5114,-0.09717978,0.10017,0.60487
100.444,31.7062,-0.10408,0.10328,0.60508
101.044,31.9013,-0.09521529,0.10114,0.60528
101.644,32.0953,-0.09476984,0.09881393,0.60548
102.244,32.28952,-0.09746194,0.1028,0.60568
102.844,32.48375,-0.09642,0.09725998,0.60588
103.444,32.678,-0.09773,0.09764894,0.60608
104.044,32.87277,-0.09773002,0.0969161,0.60628
104.644,33.06673,-0.09773,0.09287294,0.60648
105.244,33.26144,-0.09995161,0.09738375,0.60667
105.844,33.45497,-0.09743967,0.09501637,0.60687
106.444,33.649,-0.09609191,0.09428459,0.60706
107.044,33.84318,-0.09882872,0.09194675,0.60726
107.644,34.0372,-0.09751,0.09210936,0.60745
108.244,34.2316,-0.09893,0.09036754,0.60764
108.844,34.42566,-0.09805999,0.0948606,0.60783
109.444,34.61931,-0.09806,0.0932446,0.60802
110.044,34.81255,-0.09938,0.09229922,0.60821
110.644,35.0057,-0.09816998,0.09194423,0.6084
111.244,35.19954,-0.09949063,0.09229776,0.60858
111.844,35.3936,-0.09949,0.09390986,0.60877
112.444,35.58767,-0.09949,0.09154068,0.60895
113.044,35.782,-0.09470248,0.09206439,0.60914
113.644,35.97586,-0.09894,0.09308981,0.60932
114.244,36.16937,-0.09894,0.09165448,0.6095
114.844,36.36288,-0.09895228,0.09326715,0.60968
115.444,36.55657,-0.09762881,0.09199467,0.60986
116.044,36.74973,-0.10029,0.09193672,0.61004
116.644,36.94339,-0.09676616,0.09274013,0.61022
117.244,37.1363,-0.10101,0.09364833,0.6104
117.844,37.32895,-0.09992016,0.09497943,0.61057
118.444,37.52197,-0.09710629,0.09073062,0.61075
119.044,37.71499,-0.09992,0.09112679,0.61092
119.644,37.90802,-0.09958797,0.08982666,0.6111
120.244,38.10071,-0.09838018,0.09078923,0.61127
120.844,38.29368,-0.09937,0.08925187,0.61144
121.444,38.48669,-0.09805885,0.09155986,0.61161
122.044,38.67957,-0.09937,0.09363071,0.61178
122.644,38.87247,-0.09838892,0.09034456,0.61195
123.244,39.06445,-0.09909803,0.0899036,0.61212
123.844,39.25693,-0.09869153,0.09012847,0.61228
124.444,39.4495,-0.09806416,0.09070718,0.61245
125.044,39.6419,-0.09806007,0.08721456,0.61261
125.644,39.83392,-0.09806563,0.08954652,0.61278
126.244,40.0253,-0.09904791,0.09041242,0.61294
126.844,40.21718,-0.10005,0.09070271,0.6131
127.444,40.40984,-0.09905002,0.09399129,0.61326
128.044,40.6027,-0.09839,0.09254259,0.61342
128.644,40.7956,-0.0983773,0.09207088,0.61358
129.244,40.98834,-0.09904,0.09416224,0.61374
129.844,41.1807,-0.09904094,0.09296412,0.61389
130.444,41.37397,-0.09838762,0.09356744,0.61405
131.044,41.56649,-0.09839,0.08985073,0.61421
131.644,41.75845,-0.09773328,0.09143903,0.61436
132.244,41.9504,-0.09641888,0.09215953,0.61451
132.844,42.1419,-0.09773,0.09264415,0.61467
133.444,42.33363,-0.09641,0.09498417,0.61482
134.044,42.5249,-0.09804481,0.09312553,0.61497
134.644,42.71575,-0.09782696,0.09276275,0.61512
135.244,42.90704,-0.09545294,0.0941323,0.61526
135.844,43.09858,-0.09915,0.09571344,0.61541
136.444,43.29006,-0.09641871,0.09615767,0.61556
137.044,43.48239,-0.09772902,0.09662868,0.6157
137.644,43.67301,-0.0980552,0.09738474,0.61585
138.244,43.8643,-0.09805002,0.09831478,0.61599
138.844,44.055,-0.09674,0.09490664,0.61613
139.444,44.24539,-0.09805192,0.09783681,0.61628
140.044,44.43652,-0.09773,0.09717091,0.61642
140.644,44.62643,-0.09773,0.09777185,0.61656
141.244,44.81668,-0.09773,0.09942614,0.6167
141.844,45.0068,-0.09839463,0.10004,0.61683
142.444,45.19654,-0.09839756,0.09784295,0.61697
143.044,45.3857,-0.09665565,0.09692846,0.61711
143.644,45.57543,-0.0981075,0.09672205,0.61724
144.244,45.76449,-0.09894008,0.0993582,0.61737
144.844,45.9541,-0.0963,0.09724883,0.61751
145.444,46.14317,-0.0986094,0.09576219,0.61764
146.044,46.3324,-0.09639498,0.0980129,0.61777
146.644,46.5225,-0.09700205,0.09804989,0.6179
147.244,46.7123,-0.09763749,0.09633388,0.61803
147.844,46.90282,-0.09816999,0.09865832,0.61816
148.444,47.09279,-0.09750999,0.09864292,0.61829
149.044,47.28281,-0.09883,0.0960896,0.61841
149.644,47.4721,-0.09652583,0.09574704,0.61854
150.244,47.6614,-0.09883001,0.09573259,0.61866
150.844,47.85074,-0.0961753,0.09621005,0.61879
151.444,48.03988,-0.10015,0.10048,0.61891
152.044,48.2295,-0.09750974,0.09779356,0.61903
152.644,48.41838,-0.09980743,0.10033,0.61915
153.244,48.6077,-0.09789887,0.10433,0.61927
153.844,48.79688,-0.09784,0.10338,0.61939
154.444,48.98592,-0.09783606,0.0986427,0.61951
155.044,49.17471,-0.10047,0.09899247,0.61962
155.644,49.3637,-0.09771159,0.09755303,0.61974
156.244,49.55233,-0.09982585,0.09615504,0.61986
156.844,49.7418,-0.09904,0.09813754,0.61997
157.444,49.93031,-0.10024,0.09689729,0.62008
158.044,50.119,-0.09904,0.09385295,0.62019
158.644,50.30795,-0.10135,0.09368832,0.62031
159.244,50.4971,-0.09870999,0.09455705,0.62042
159.844,50.68565,-0.0997,0.09461668,0.62052
160.444,50.87372,-0.10135,0.09327334,0.62063
161.044,51.06207,-0.09850136,0.09482853,0.62074
161.644,51.25035,-0.09818903,0.09617835,0.62085
162.244,51.439,-0.09817146,0.09810463,0.62095
162.844,51.62722,-0.09953755,0.09409593,0.62106
163.444,51.81478,-0.10027,0.09937073,0.62116
164.044,52.00346,-0.09876104,0.09680612,0.62126
164.644,52.1911,-0.10014,0.09650588,0.62136
165.244,52.37947,-0.10147,0.09578976,0.62147
165.844,52.5679,-0.10113,0.09692385,0.62157
166.444,52.756,-0.1008,0.09746642,0.62166
167.044,52.9447,-0.1008,0.0984316,0.62176
167.644,53.13293,-0.1008,0.09517957,0.62186
168.244,53.321,-0.10213,0.09557842,0.62195
168.844,53.50968,-0.1008,0.09850937,0.62205
169.444,53.69771,-0.1008,0.09484577,0.62214
170.044,53.88664,-0.10124,0.09941371,0.62224
170.644,54.07456,-0.11188,0.10143,0.62233
171.244,54.2637,-0.10047,0.09863114,0.62242
171.844,54.452,-0.10212,0.10045,0.62251
172.444,54.64075,-0.10343,0.10128,0.6226
173.044,54.82906,-0.09742235,0.09991908,0.62269
173.644,55.01693,-0.10288,0.0977345,0.62278
174.244,55.2057,-0.10355,0.1013,0.62286
174.844,55.39411,-0.10382,0.1002,0.62295
175.444,55.5835,-0.10356,0.10333,0.62303
176.044,55.7717,-0.1049,0.09903204,0.62312
176.644,55.96,-0.10858,0.10206,0.6232
177.244,56.14829,-0.10223,0.09948858,0.62328
177.844,56.33641,-0.10442,0.10007,0.62336
178.444,56.52445,-0.10442,0.10225,0.62344
179.044,56.7123,-0.10475,0.10093,0.62352
179.644,56.90031,-0.10606,0.10167,0.6236
180.244,57.0883,-0.10835,0.10131,0.62368
180.844,57.2765,-0.10672,0.10432,0.62375
181.444,57.46496,-0.10771,0.10343,0.62383
182.044,57.6532,-0.10639,0.10167,0.6239
182.644,57.84121,-0.10901,0.10216,0.62397
183.244,58.02936,-0.10923,0.10154,0.62405
183.844,58.21671,-0.10782,0.10145,0.62412
184.444,58.4037,-0.10914,0.10115,0.62419
185.044,58.59154,-0.11027,0.0996809,0.62426
185.644,58.7792,-0.10914,0.10088,0.62433
186.244,58.96719,-0.11045,0.10256,0.6244
186.844,59.15501,-0.11094,0.10351,0.62446
187.444,59.3423,-0.11046,0.10108,0.62453
188.044,59.52994,-0.11045,0.10634,0.62459
188.644,59.7175,-0.11458,0.10203,0.62466
189.244,59.9052,-0.1132,0.10259,0.62472
189.844,60.0926,-0.11353,0.10274,0.62478
190.444,60.28017,-0.11418,0.10582,0.62484
191.044,60.4679,-0.11418,0.09833124,0.6249
191.644,60.65509,-0.11452,0.1014,0.62496
192.244,60.8425,-0.11565,0.10127,0.62502
192.844,61.0296,-0.11681,0.10537,0.62508
193.444,61.217,-0.11625,0.10577,0.62513
194.044,61.4045,-0.11747,0.10185,0.62519
194.644,61.5915,-0.11681,0.10316,0.62525
195.244,61.7785,-0.11766,0.10361,0.6253
195.844,61.9657,-0.11812,0.10563,0.62535
196.444,62.15291,-0.11944,0.10203,0.6254
197.044,62.33976,-0.12076,0.10047,0.62545
197.644,62.5266,-0.12076,0.09762303,0.6255
198.244,62.71304,-0.12241,0.10373,0.62555
198.844,62.90015,-0.12784,0.10269,0.6256
199.444,63.08733,-0.12131,0.09856833,0.62565
200.044,63.2743,-0.12296,0.09841736,0.62569
200.644,63.4617,-0.12329,0.09859334,0.62574
201.244,63.64911,-0.11702,0.10173,0.62578
201.844,63.83644,-0.12349,0.09807708,0.62583
202.444,64.02369,-0.12473,0.09720239,0.62587
203.044,64.21138,-0.1274,0.09931622,0.62591
203.644,64.39887,-0.12759,0.10105,0.62595
204.244,64.5865,-0.12845,0.10336,0.62599
204.844,64.77449,-0.11697,0.10175,0.62603
205.444,64.96158,-0.13052,0.10163,0.62607
206.044,65.14931,-0.13073,0.09772543,0.62611
206.644,65.33702,-0.13184,0.10026,0.62614
207.244,65.5244,-0.13184,0.09797229,0.62618
207.844,65.71189,-0.13546,0.10226,0.62621
208.444,65.8989,-0.13449,0.1037,0.62625
209.044,66.08525,-0.1359,0.10378,0.62628
209.644,66.2723,-0.13761,0.10615,0.62631
210.244,66.45952,-0.13832,0.10495,0.62634
210.844,66.64701,-0.14106,0.10603,0.62637
211.444,66.83534,-0.14236,0.10543,0.6264
212.044,67.02226,-0.14368,0.10642,0.62643
212.644,67.20919,-0.14475,0.11197,0.62645
213.244,67.39689,-0.14588,0.11098,0.62648
213.844,67.58458,-0.14752,0.11476,0.6265
214.444,67.77289,-0.15017,0.11529,0.62653
215.044,67.95992,-0.15115,0.11417,0.62655
215.644,68.147,-0.1528,0.11476,0.62657
216.244,68.33332,-0.15806,0.11543,0.6266
216.844,68.52029,-0.15751,0.11925,0.62662
217.444,68.7076,-0.16026,0.1178,0.62664
218.044,68.89539,-0.16157,0.1169,0.62665
218.644,69.08256,-0.16415,0.12027,0.62667
219.244,69.2697,-0.16563,0.11911,0.62669
219.844,69.45692,-0.16957,0.11711,0.62671
220.444,69.64457,-0.17221,0.12117,0.62672
221.044,69.83219,-0.17561,0.12075,0.62673
221.644,70.01988,-0.17572,0.12198,0.62675
222.244,70.2071,-0.17977,0.12253,0.62676
222.844,70.39447,-0.1824,0.1234,0.62677
223.444,70.58204,-0.18424,0.12356,0.62678
224.044,70.76905,-0.18635,0.1204,0.62679
224.644,70.95658,-0.19019,0.11918,0.6268
225.244,71.14381,-0.19414,0.12053,0.62681
225.844,71.3314,-0.19589,0.12012,0.62681
226.444,71.51871,-0.19941,0.11982,0.62682
227.044,71.70569,-0.20411,0.12337,0.62683
227.644,71.8922,-0.2072,0.12146,0.62683
228.244,72.07868,-0.20773,0.12725,0.62683
228.844,72.26573,-0.21296,0.12206,0.62684
229.444,72.45267,-0.21594,0.12097,0.62684
230.044,72.63987,-0.2209,0.12319,0.62684
230.644,72.82706,-0.22288,0.12023,0.62684
231.244,73.01426,-0.2276,0.12147,0.62684
231.844,73.20159,-0.23221,0.12134,0.62683
232.444,73.38842,-0.23484,0.12208,0.62683
233.044,73.5754,-0.23992,0.12321,0.62683
233.644,73.7629,-0.24296,0.12479,0.62682
234.244,73.95044,-0.24668,0.12678,0.62682
234.844,74.13848,-0.25261,0.12612,0.62681
235.444,74.3261,-0.25573,0.12506,0.6268
236.044,74.51285,-0.2595,0.1261,0.62679
236.644,74.69949,-0.26653,0.13032,0.62678
237.244,74.88589,-0.27127,0.1255,0.62677
237.844,75.0723,-0.2763,0.12773,0.62676
238.444,75.25838,-0.28035,0.12836,0.62675
239.044,75.44556,-0.2879,0.12899,0.62674
239.644,75.63302,-0.28891,0.13196,0.62672
240.244,75.82013,-0.29638,0.12882,0.62671
240.844,76.00756,-0.30164,0.12743,0.62669
241.444,76.1947,-0.30719,0.13048,0.62668
242.044,76.38121,-0.31088,0.13221,0.62666
242.644,76.5694,-0.31576,0.13067,0.62664
243.244,76.75735,-0.32125,0.12969,0.62662
243.844,76.94564,-0.32972,0.13177,0.6266
244.444,77.1332,-0.33409,0.13211,0.62658
245.044,77.3207,-0.34078,0.13467,0.62656
245.644,77.5086,-0.34725,0.1313,0.62654
246.244,77.6966,-0.35144,0.13381,0.62651
246.844,77.88421,-0.35901,0.13756,0.62649
247.444,78.07195,-0.36452,0.13349,0.62646
248.044,78.25947,-0.37086,0.13508,0.62644
248.644,78.4475,-0.3782,0.13854,0.62641
249.244,78.63507,-0.38376,0.1372,0.62638
249.844,78.82303,-0.39086,0.13769,0.62635
250.444,79.0108,-0.3975,0.14091,0.62632
251.044,79.19872,-0.40585,0.14073,0.62629
251.644,79.3862,-0.4133,0.14375,0.62626
252.244,79.5732,-0.42208,0.1423,0.62623
252.844,79.75972,-0.42821,0.14568,0.6262
253.444,79.94651,-0.4337,0.14642,0.62616
254.044,80.13367,-0.44229,0.15176,0.62613
254.644,80.32166,-0.45075,0.15571,0.62609
255.244,80.51006,-0.4488,0.15681,0.62606
255.844,80.69811,-0.46612,0.16089,0.62602
256.444,80.88622,-0.47461,0.16058,0.62598
257.044,81.0742,-0.48337,0.16033,0.62594
257.644,81.2619,-0.49117,0.15956,0.6259
258.244,81.44971,-0.49831,0.16115,0.62586
258.844,81.63719,-0.50509,0.15419,0.62582
259.444,81.8252,-0.52051,0.1599,0.62577
260.044,82.01299,-0.52723,0.15794,0.62573
260.644,82.20119,-0.53567,0.15757,0.62569
261.244,82.38942,-0.54556,0.15629,0.62564
261.844,82.5772,-0.55965,0.15631,0.62559
262.444,82.7655,-0.56543,0.15695,0.62555
263.044,82.95362,-0.5751,0.15873,0.6255
263.644,83.14086,-0.58507,0.15459,0.62545
264.244,83.32889,-0.59457,0.15521,0.6254
264.844,83.51657,-0.60435,0.15697,0.62535
265.444,83.704,-0.61508,0.15271,0.6253
266.044,83.89229,-0.62642,0.15167,0.62525
266.644,84.0806,-0.63916,0.1523,0.62519
267.244,84.26895,-0.65214,0.14847,0.62514
267.844,84.4575,-0.66034,0.15046,0.62508
268.444,84.6457,-0.67239,0.1484,0.62503
269.044,84.83357,-0.6827,0.15255,0.62497
269.644,85.02115,-0.69531,0.15689,0.62491
270.244,85.2085,-0.70859,0.15333,0.62486
270.844,85.39522,-0.72006,0.15333,0.6248
271.444,85.58219,-0.73509,0.15335,0.62474
272.044,85.76925,-0.74734,0.15573,0.62468
272.644,85.95648,-0.76031,0.15562,0.62461
273.244,86.14398,-0.77364,0.15487,0.62455
273.844,86.33134,-0.78902,0.15771,0.62449
274.444,86.51889,-0.80007,0.15675,0.62442
275.044,86.70634,-0.81605,0.1572,0.62436
275.644,86.89365,-0.83114,0.15585,0.62429
276.244,87.0808,-0.84491,0.15818,0.62423
276.844,87.26823,-0.86064,0.15761,0.62416
277.444,87.45642,-0.87376,0.15952,0.62409
278.044,87.64446,-0.89066,0.16062,0.62402
278.644,87.83277,-0.90403,0.16039,0.62395
279.244,88.02087,-0.92202,0.16294,0.62388
279.844,88.20944,-0.93538,0.16047,0.62381
280.444,88.39828,-0.95454,0.16481,0.62373
281.044,88.58721,-0.97154,0.16407,0.62366
281.644,88.7757,-0.98655,0.1657,0.62359
282.244,88.96412,-1.00505,0.16651,0.62351
282.844,89.1523,-1.0214,0.16598,0.62344
283.444,89.34046,-1.03905,0.16928,0.62336
284.044,89.52906,-1.0578,0.16736,0.62328
284.644,89.71786,-1.07163,0.17167,0.6232
285.244,89.9064,-1.08988,0.17022,0.62312
285.844,90.09472,-1.10871,0.1736,0.62304
286.444,90.2833,-1.12959,0.16897,0.62296
287.044,90.47156,-1.14725,0.17279,0.62288
287.644,90.66056,-1.16831,0.17275,0.6228
288.244,90.8492,-1.18866,0.17076,0.62271
288.844,91.03788,-1.2075,0.17052,0.62263
289.444,91.22633,-1.22623,0.1725,0.62254
290.044,91.4144,-1.24715,0.17548,0.62246
290.644,91.60257,-1.26826,0.17558,0.62237
291.244,91.79109,-1.28737,0.17329,0.62228
291.844,91.97926,-1.30955,0.17633,0.62219
292.444,92.16715,-1.3278,0.17208,0.62211
293.044,92.3548,-1.35131,0.1731,0.62202
293.644,92.5425,-1.37236,0.17384,0.62192
294.244,92.73017,-1.39341,0.17763,0.62183
294.844,92.9183,-1.40855,0.17762,0.62174
295.444,93.10584,-1.43874,0.17611,0.62165
296.044,93.29335,-1.46288,0.17761,0.62155
296.644,93.48143,-1.48592,0.17654,0.62146
297.244,93.67002,-1.50931,0.17729,0.62136
297.844,93.85889,-1.53232,0.18074,0.62126
298.444,94.04743,-1.55707,0.18281,0.62117
299.044,94.236,-1.58134,0.18161,0.62107
299.644,94.42486,-1.60515,0.18119,0.62097
300.244,94.61417,-1.63125,0.18049,0.62087
300.844,94.8031,-1.65848,0.18053,0.62077
301.444,94.99209,-1.68392,0.18256,0.62067
302.044,95.18082,-1.71121,0.17936,0.62056
302.644,95.36927,-1.73859,0.18204,0.62046
303.244,95.55749,-1.76615,0.18253,0.62036
303.844,95.74554,-1.79477,0.18611,0.62025
304.444,95.9337,-1.82448,0.1871,0.62015
305.044,96.12159,-1.85297,0.18373,0.62004
305.644,96.3099,-1.88399,0.18683,0.61993
306.244,96.49863,-1.91428,0.18477,0.61983
306.844,96.68759,-1.94762,0.18801,0.61972
307.444,96.8769,-1.98019,0.18541,0.61961
308.044,97.06546,-2.01101,0.18842,0.6195
308.644,97.2546,-2.047,0.18789,0.61938
309.244,97.44381,-2.08146,0.18795,0.61927
309.844,97.63308,-2.11513,0.18318,0.61916
310.444,97.8228,-2.15436,0.18601,0.61905
311.044,98.01253,-2.19134,0.18607,0.61893
311.644,98.2019,-2.22658,0.18484,0.61882
312.244,98.39107,-2.26461,0.18725,0.6187
312.844,98.58033,-2.30448,0.18304,0.61858
313.444,98.76921,-2.34223,0.18046,0.61847
314.044,98.95784,-2.38172,0.17994,0.61835
314.644,99.14705,-2.42018,0.17224,0.61823
315.244,99.3364,-2.45914,0.16979,0.61811
315.844,99.52622,-2.49965,0.16628,0.61799
316.444,99.71598,-2.53522,0.16297,0.61787
317.044,99.90559,-2.57161,0.15784,0.61774
317.644,100.095,-2.60965,0.14921,0.61762
318.244,100.285,-2.64439,0.142,0.6175
318.844,100.474,-2.67508,0.13889,0.61737
319.444,100.663,-2.7071,0.13089,0.61725
320.044,100.853,-2.73311,0.12842,0.61712
320.644,101.042,-2.76142,0.12018,0.61699
321.244,101.232,-2.78747,0.11601,0.61687
321.844,101.421,-2.81007,0.10956,0.61674
322.444,101.61,-2.8289,0.10292,0.61661
323.044,101.799,-2.85143,0.09674728,0.61648
323.644,101.988,-2.86927,0.09193693,0.61635
324.244,102.177,-2.88702,0.08508933,0.61621
324.844,102.366,-2.90274,0.0826626,0.61608
325.444,102.555,-2.91589,0.07940586,0.61595
326.044,102.744,-2.93134,0.0785936,0.61581
326.644,102.933,-2.95148,0.07548887,0.61568
327.244,103.122,-2.95502,0.07431383,0.61554
327.844,103.311,-2.96595,0.07062198,0.61541
328.444,103.501,-2.97292,0.06904652,0.61527
329.044,103.69,-2.97982,0.06432747,0.61513
329.644,103.88,-2.98903,0.06806168,0.61499
330.244,104.069,-2.99947,0.06165983,0.61486
330.844,104.259,-3.00238,0.06171739,0.61472
331.444,104.449,-3.00935,0.0620618,0.61457
332.044,104.6395,-3.0141,0.06079307,0.61443
332.644,104.8295,-3.0223,0.06239001,0.61429
333.244,105.02,-3.02742,0.05602619,0.61415
333.844,105.209,-3.03337,0.05704652,0.614
334.444,105.399,-3.03743,0.05292136,0.61386
335.044,105.589,-3.04178,0.058257,0.61371
335.644,105.78,-3.0484,0.05374613,0.61357
336.244,105.971,-3.05151,0.05476849,0.61342
336.844,106.162,-3.05542,0.05363375,0.61327
337.444,106.351,-3.06126,0.05297931,0.61312
338.044,106.541,-3.06638,0.0574888,0.61297
338.644,106.7315,-3.0693,0.05296725,0.61282
339.244,106.922,-3.07352,0.05206982,0.61267
339.844,107.114,-3.07625,0.05338635,0.61252
340.444,107.304,-3.0836,0.05400114,0.61237
341.044,107.494,-3.08557,0.04876052,0.61222
341.644,107.684,-3.08975,0.05123422,0.61206
342.244,107.874,-3.10308,0.05624939,0.61191
342.844,108.064,-3.09688,0.05345258,0.61175
343.444,108.255,-3.10083,0.05187994,0.6116
344.044,108.4448,-3.10521,0.05234038,0.61144
344.644,108.635,-3.11137,0.05092823,0.61128
345.244,108.826,-3.11396,0.05136113,0.61112
345.844,109.017,-3.11608,0.05174011,0.61097
346.444,109.209,-3.11948,0.05151185,0.61081
347.044,109.401,-3.12507,0.04913998,0.61065
347.644,109.591,-3.12902,0.05198731,0.61048
348.244,109.782,-3.13198,0.04630239,0.61032
348.844,109.973,-3.13604,0.05076588,0.61016
349.444,110.164,-3.13895,0.05003304,0.61
350.044,110.3541,-3.14404,0.04841825,0.60983
350.644,110.545,-3.14812,0.0499229,0.60967
351.244,110.7349,-3.14935,0.04735301,0.6095
351.844,110.925,-3.15356,0.0510023,0.60934
352.444,111.116,-3.15913,0.05033386,0.60917
353.044,111.3064,-3.1617,0.04846391,0.609
353.644,111.497,-3.16734,0.05078878,0.60883
354.244,111.688,-3.16894,0.05002758,0.60866
354.844,111.879,-3.17443,0.04982858,0.60849
355.444,112.07,-3.17859,0.05054963,0.60832
356.044,112.261,-3.18264,0.05241731,0.60815
356.644,112.452,-3.18365,0.05278085,0.60798
357.244,112.643,-3.18928,0.04975048,0.60781
357.844,112.834,-3.19328,0.04917821,0.60763
358.444,113.026,-3.19777,0.04943756,0.60746
359.044,113.217,-3.20042,0.05176925,0.60729
359.644,113.409,-3.20318,0.05354032,0.60711
360.244,113.601,-3.20865,0.05366433,0.60693
360.844,113.793,-3.21028,0.05336401,0.60676
361.444,113.985,-3.21403,0.05506187,0.60658
362.044,114.1769,-3.21797,0.05338704,0.6064
362.644,114.369,-3.22165,0.05304367,0.60622
363.244,114.561,-3.22338,0.05143601,0.60604
363.844,114.753,-3.22795,0.05681112,0.60586
364.444,114.946,-3.2313,0.05695254,0.60568
365.044,115.139,-3.23549,0.05839538,0.6055
365.644,115.332,-3.23786,0.05766124,0.60531
366.244,115.524,-3.23997,0.05618643,0.60513
366.844,115.717,-3.2446,0.05528489,0.60495
367.444,115.909,-3.24667,0.0540891,0.60476
368.044,116.101,-3.25164,0.0526052,0.60458
368.644,116.293,-3.25522,0.05556564,0.60439
369.244,116.484,-3.25948,0.04915854,0.6042
369.844,116.676,-3.26101,0.05234608,0.60402
370.444,116.868,-3.26513,0.05498976,0.60383
371.044,117.06,-3.26766,0.05148066,0.60364
371.644,117.252,-3.26945,0.05189942,0.60345
372.244,117.443,-3.27282,0.05438542,0.60326
372.844,117.635,-3.27952,0.05293398,0.60307
373.444,117.827,-3.28105,0.05279662,0.60288
374.044,118.019,-3.28368,0.05059614,0.60268
374.644,118.212,-3.28654,0.0526642,0.60249
375.244,118.404,-3.28908,0.05396356,0.6023
375.844,118.596,-3.2918,0.05269793,0.6021
376.444,118.788,-3.29589,0.05256503,0.60191
377.044,118.98,-3.29848,0.05298036,0.60171
377.644,119.172,-3.30178,0.05721505,0.60152
378.244,119.364,-3.30598,0.05232073,0.60132
378.844,119.557,-3.30853,0.05396472,0.60112
379.444,119.75,-3.31317,0.05186303,0.60092
380.044,119.943,-3.31449,0.05194732,0.60072
380.644,120.137,-3.31844,0.05257353,0.60052
381.244,120.331,-3.32107,0.05507732,0.60032
381.844,120.524,-3.32338,0.04924991,0.60012
382.444,120.717,-3.32601,0.05089171,0.59992
383.044,120.909,-3.32964,0.05279395,0.59972
383.644,121.101,-3.33352,0.05450064,0.59951
384.244,121.292,-3.33775,0.05324083,0.59931
384.844,121.484,-3.34049,0.05226365,0.59911
385.444,121.676,-3.34182,0.05370602,0.5989
386.044,121.869,-3.34574,0.05371229,0.59869
386.644,122.0611,-3.34717,0.05562648,0.59849
387.244,122.254,-3.35291,0.05231786,0.59828
387.844,122.447,-3.35826,0.0540948,0.59807
388.444,122.64,-3.358,0.05772275,0.59786
389.044,122.833,-3.36101,0.05576808,0.59766
389.644,123.026,-3.36527,0.05412369,0.59745
390.244,123.22,-3.36671,0.05312596,0.59723
390.844,123.414,-3.37088,0.05850733,0.59702
391.444,123.607,-3.37219,0.05832367,0.59681
392.044,123.802,-3.37205,0.05606115,0.5966
392.644,123.997,-3.37679,0.05555241,0.59639
393.244,124.191,-3.37877,0.05195286,0.59617
393.844,124.385,-3.38451,0.0500106,0.59596
394.444,124.579,-3.38579,0.05468968,0.59574
395.044,124.773,-3.38711,0.05435289,0.59553
395.644,124.967,-3.38842,0.05706824,0.59531
396.244,125.16,-3.39371,0.05379562,0.59509
396.844,125.353,-3.39632,0.0538069,0.59488
397.444,125.5455,-3.40026,0.0507711,0.59466
398.044,125.738,-3.4006,0.05547992,0.59444
398.644,125.931,-3.40257,0.05328874,0.59422
399.244,126.123,-3.4052,0.054204,0.594
399.844,126.315,-3.40806,0.05435547,0.59378
400.444,126.507,-3.412,0.05371173,0.59356
401.044,126.699,-3.41357,0.05448159,0.59334
401.644,126.891,-3.41869,0.05617781,0.59311
402.244,127.084,-3.41777,0.05846056,0.59289
402.844,127.278,-3.42144,0.05650285,0.59267
403.444,127.471,-3.42429,0.05392177,0.59244
404.044,127.665,-3.42692,0.05327603,0.59222
404.644,127.859,-3.42966,0.05562745,0.59199
405.244,128.052,-3.43149,0.05686717,0.59176
405.844,128.246,-3.43373,0.05410022,0.59154
406.444,128.44,-3.4391,0.05738993,0.59131
407.044,128.634,-3.4391,0.05375564,0.59108
407.644,128.828,-3.44109,0.05454173,0.59085
408.244,129.022,-3.44506,0.05448675,0.59062
408.844,129.216,-3.44767,0.05537275,0.59039
409.444,129.41,-3.44897,0.05443056,0.59016
410.044,129.605,-3.451,0.05288846,0.58993
410.644,129.799,-3.45424,0.05197229,0.5897
411.244,129.9935,-3.45763,0.05538753,0.58946
411.844,130.188,-3.45784,0.05517417,0.58923
412.444,130.382,-3.4619,0.05258176,0.589
413.044,130.576,-3.46318,0.05641401,0.58876
413.644,130.77,-3.46586,0.0532835,0.58853
414.244,130.964,-3.46846,0.05207569,0.58829
414.844,131.158,-3.46994,0.05341666,0.58806
415.444,131.3519,-3.47343,0.05354901,0.58782
416.044,131.546,-3.47607,0.05459061,0.58758
416.644,131.741,-3.47738,0.05303674,0.58734
417.244,131.936,-3.48007,0.05382018,0.5871
417.844,132.13,-3.48133,0.05293345,0.58687
418.444,132.324,-3.48426,0.05427843,0.58663
419.044,132.519,-3.4866,0.05111692,0.58638
419.644,132.713,-3.48758,0.04867198,0.58614
420.244,132.906,-3.49056,0.05229148,0.5859
420.844,133.1,-3.49186,0.04795203,0.58566
421.444,133.294,-3.49318,0.04891658,0.58542
422.044,133.487,-3.49679,0.05140072,0.58517
422.644,133.682,-3.49811,0.05319777,0.58493
423.244,133.877,-3.49844,0.05409704,0.58468
423.844,134.074,-3.50305,0.05258488,0.58444
424.444,134.269,-3.50305,0.05153473,0.58419
425.044,134.465,-3.5052,0.05150069,0.58395
425.644,134.66,-3.5071,0.04918979,0.5837
426.244,134.855,-3.50974,0.051892,0.58345
426.844,135.05,-3.51237,0.04713322,0.5832
427.444,135.245,-3.51512,0.04855841,0.58295
428.044,135.44,-3.51574,0.05182203,0.58271
428.644,135.634,-3.51544,0.04952753,0.58246
429.244,135.828,-3.51961,0.04966985,0.5822
429.844,136.023,-3.51961,0.05102805,0.58195
430.444,136.2193,-3.52199,0.05394414,0.5817
431.044,136.416,-3.5253,0.05386745,0.58145
431.644,136.612,-3.52663,0.0550419,0.5812
432.244,136.809,-3.53213,0.05191487,0.58094
432.844,137.006,-3.53069,0.05576069,0.58069
433.444,137.203,-3.53172,0.0548374,0.58044
434.044,137.399,-3.53297,0.05765033,0.58018
434.644,137.595,-3.53299,0.05428302,0.57992
435.244,137.79,-3.53573,0.05481656,0.57967
435.844,137.9842,-3.53837,0.05523762,0.57941
436.444,138.178,-3.53836,0.05294483,0.57915
437.044,138.373,-3.53978,0.05507075,0.5789
437.644,138.568,-3.54111,0.05195631,0.57864
438.244,138.764,-3.54341,0.05433519,0.57838
438.844,138.96,-3.54637,0.05295554,0.57812
439.444,139.156,-3.54505,0.05491676,0.57786
440.044,139.352,-3.54706,0.05402949,0.5776
440.644,139.548,-3.55164,0.05417994,0.57734
441.244,139.744,-3.5522,0.05530553,0.57708
441.844,139.94,-3.55426,0.05362865,0.57681
442.444,140.136,-3.55426,0.05492786,0.57655
443.044,140.33,-3.55663,0.05526026,0.57629
443.644,140.526,-3.55899,0.05618248,0.57602
444.244,140.723,-3.5586,0.055795,0.57576
444.844,140.92,-3.56162,0.05886932,0.57549
445.444,141.117,-3.5528,0.06185777,0.57523
446.044,141.313,-3.56458,0.05788682,0.57496
446.644,141.509,-3.56475,0.06210842,0.57469
447.244,141.705,-3.5659,0.0651783,0.57443
447.844,141.901,-3.56952,0.06105815,0.57416
448.444,142.096,-3.57018,0.06235465,0.57389
449.044,142.291,-3.5663,0.06437902,0.57362
449.644,142.487,-3.5738,0.06279055,0.57335
450.244,142.682,-3.57248,0.06662791,0.57308
450.844,142.878,-3.57522,0.06742199,0.57281
451.444,143.074,-3.57753,0.06814936,0.57254
452.044,143.269,-3.57873,0.06544914,0.57227
452.644,143.466,-3.57851,0.06915293,0.572
453.244,143.661,-3.58292,0.06705875,0.57172
453.844,143.857,-3.58411,0.06956463,0.57145
454.444,144.054,-3.58543,0.0703279,0.57118
455.044,144.251,-3.58663,0.06940722,0.5709
455.644,144.448,-3.58926,0.07212003,0.57063
456.244,144.645,-3.58783,0.07478346,0.57035
456.844,144.842,-3.5896,0.07659016,0.57008
457.444,145.038,-3.59178,0.0755289,0.5698
458.044,145.235,-3.59531,0.07520235,0.56953
458.644,145.432,-3.59453,0.07664377,0.56925
459.244,145.63,-3.59443,0.07475105,0.56897
459.844,145.828,-3.59948,0.07368564,0.56869
460.444,146.026,-3.60037,0.08210615,0.56841
461.044,146.223,-3.5999,0.07941677,0.56813
461.644,146.421,-3.60387,0.07699118,0.56785
462.244,146.618,-3.60335,0.07915303,0.56757
462.844,146.815,-3.60515,0.08072321,0.56729
463.444,147.01,-3.60582,0.0813972,0.56701
464.044,147.205,-3.61177,0.07845528,0.56673
464.644,147.4,-3.61111,0.07587485,0.56645
465.244,147.596,-3.61025,0.08177726,0.56616
465.844,147.792,-3.60117,0.08240774,0.56588
466.444,147.989,-3.60996,0.0791927,0.5656
467.044,148.187,-3.61581,0.08165425,0.56531
467.644,148.384,-3.61613,0.07909408,0.56503
468.244,148.581,-3.62199,0.0780729,0.56474
468.844,148.777,-3.62236,0.07796696,0.56446
469.444,148.975,-3.61947,0.08126261,0.56417
470.044,149.174,-3.61032,0.08041242,0.56388
470.644,149.373,-3.60228,0.08371958,0.5636
471.244,149.571,-3.62147,0.08224714,0.56331
471.844,149.768,-3.62282,0.07905043,0.56302
472.444,149.965,-3.62512,0.08055436,0.56273
473.044,150.163,-3.62644,0.08093123,0.56244
473.644,150.361,-3.62684,0.07787301,0.56215
474.244,150.558,-3.62842,0.0779397,0.56186
474.844,150.756,-3.62974,0.081434,0.56157
475.444,150.954,-3.63039,0.07850266,0.56128
476.044,151.153,-3.63078,0.07652365,0.56099
476.644,151.351,-3.6317,0.07550021,0.5607
477.244,151.551,-3.63302,0.07666321,0.5604
477.844,151.749,-3.63436,0.07797371,0.56011
478.444,151.948,-3.63565,0.07635343,0.55982
479.044,152.146,-3.63696,0.07322861,0.55952
479.644,152.345,-3.63434,0.07603878,0.55923
480.244,152.544,-3.63829,0.07281666,0.55893
480.844,152.742,-3.63862,0.07450434,0.55864
481.444,152.94,-3.63992,0.07550056,0.55834
482.044,153.138,-3.64126,0.07586195,0.55804
482.644,153.336,-3.6414,0.07459324,0.55775
483.244,153.534,-3.64125,0.07531357,0.55745
483.844,153.734,-3.64454,0.07467642,0.55715
484.444,153.933,-3.64582,0.07513092,0.55685
485.044,154.133,-3.64907,0.06855162,0.55656
485.644,154.333,-3.64718,0.07018726,0.55626
486.244,154.532,-3.64884,0.07334574,0.55596
486.844,154.732,-3.64947,0.06982174,0.55566
487.444,154.931,-3.65014,0.07249204,0.55536
488.044,155.1294,-3.6508,0.0706989,0.55506
488.644,155.328,-3.65179,0.07279629,0.55475
489.244,155.527,-3.65211,0.07498048,0.55445
489.844,155.725,-3.65344,0.07610602,0.55415
490.444,155.923,-3.65474,0.07750211,0.55385
491.044,156.121,-3.6554,0.07254286,0.55354
491.644,156.32,-3.65605,0.07443818,0.55324
492.244,156.52,-3.65584,0.07799888,0.55294
492.844,156.72,-3.65727,0.07799592,0.55263
493.444,156.919,-3.65694,0.07905726,0.55233
494.044,157.117,-3.65988,0.07913033,0.55202
494.644,157.315,-3.661,0.07581826,0.55171
495.244,157.513,-3.66231,0.07680293,0.55141
495.844,157.711,-3.66292,0.07914809,0.5511
496.444,157.909,-3.6633,0.0807175,0.55079
497.044,158.108,-3.66198,0.08118669,0.55049
497.644,158.307,-3.66592,0.07727369,0.55018
498.244,158.5053,-3.66593,0.08231552,0.54987
498.844,158.704,-3.66656,0.07938072,0.54956
499.444,158.902,-3.66915,0.08001093,0.54925
500.044,159.101,-3.66889,0.07974947,0.54894
500.644,159.3,-3.67121,0.08355153,0.54863
501.244,159.5,-3.67153,0.08362382,0.54832
501.844,159.6994,-3.67349,0.09068134,0.54801
502.444,159.898,-3.67482,0.08445717,0.5477
503.044,160.098,-3.67646,0.08766616,0.54739
503.644,160.298,-3.67514,0.09129537,0.54707
504.244,160.498,-3.67909,0.09028154,0.54676
504.844,160.699,-3.67827,0.09238312,0.54645
505.444,160.899,-3.67831,0.09272769,0.54613
506.044,161.099,-3.68019,0.0906192,0.54582
506.644,161.299,-3.68018,0.09011063,0.54551
507.244,161.497,-3.68275,0.09321119,0.54519
507.844,161.696,-3.68286,0.09529813,0.54488
508.444,161.8952,-3.68151,0.09430053,0.54456
509.044,162.096,-3.68151,0.09445131,0.54424
509.644,162.297,-3.68525,0.09334204,0.54393
510.244,162.497,-3.68545,0.09338532,0.54361
510.844,162.697,-3.683,0.09491756,0.54329
511.444,162.897,-3.6883,0.09234039,0.54297
512.044,163.097,-3.68835,0.0962153,0.54266
512.644,163.298,-3.68699,0.0975393,0.54234
513.244,163.498,-3.69061,0.10198,0.54202
513.844,163.698,-3.68699,0.10262,0.5417
514.444,163.8978,-3.69094,0.09932016,0.54138
515.044,164.097,-3.68962,0.10075,0.54106
515.644,164.296,-3.69093,0.09780395,0.54074
516.244,164.496,-3.69237,0.1027,0.54042
516.844,164.696,-3.69138,0.10615,0.5401
517.444,164.8962,-3.69401,0.1039,0.53978
518.044,165.096,-3.69267,0.10242,0.53945
518.644,165.295,-3.69404,0.10117,0.53913
519.244,165.494,-3.69665,0.10193,0.53881
519.844,165.693,-3.69763,0.09953889,0.53848
520.444,165.893,-3.69763,0.10255,0.53816
521.044,166.093,-3.69806,0.10308,0.53784
521.644,166.292,-3.7007,0.10488,0.53751
522.244,166.493,-3.70072,0.10466,0.53719
522.844,166.693,-3.69938,0.10158,0.53686
523.444,166.894,-3.70201,0.10335,0.53654
524.044,167.094,-3.70234,0.11079,0.53621
524.644,167.295,-3.70202,0.10489,0.53589
525.244,167.496,-3.70432,0.10625,0.53556
525.844,167.698,-3.70432,0.1068,0.53523
526.444,167.9,-3.71662,0.11013,0.5349
527.044,168.102,-3.70322,0.10863,0.53458
527.644,168.303,-3.70422,0.11218,0.53425
528.244,168.503,-3.71001,0.1127,0.53392
528.844,168.703,-3.70881,0.11724,0.53359
529.444,168.903,-3.7074,0.11382,0.53326
530.044,169.104,-3.70871,0.11609,0.53293
530.644,169.305,-3.70936,0.11365,0.5326
531.244,169.507,-3.71199,0.11854,0.53227
531.844,169.708,-3.71157,0.11742,0.53194
532.444,169.91,-3.71222,0.12179,0.53161
533.044,170.111,-3.7051,0.11969,0.53128
533.644,170.312,-3.7227,0.12085,0.53095
534.244,170.5128,-3.71528,0.12347,0.53061
534.844,170.714,-3.71638,0.12271,0.53028
535.444,170.914,-3.71638,0.12432,0.52995
536.044,171.114,-3.71638,0.12742,0.52962
536.644,171.314,-3.71462,0.12909,0.52928
537.244,171.516,-3.71605,0.13051,0.52895
537.844,171.716,-3.72,0.13097,0.52861
538.444,171.917,-3.72132,0.13504,0.52828
539.044,172.1184,-3.72055,0.13191,0.52794
539.644,172.319,-3.71854,0.13608,0.52761
540.244,172.519,-3.72083,0.13237,0.52727
540.844,172.721,-3.72253,0.13205,0.52694
541.444,172.922,-3.72078,0.13232,0.5266
542.044,173.123,-3.72472,0.13012,0.52627
542.644,173.324,-3.72477,0.13611,0.52593
543.244,173.525,-3.72472,0.13481,0.52559
543.844,173.727,-3.72948,0.13316,0.52525
544.444,173.929,-3.7257,0.13643,0.52492
545.044,174.13,-3.72445,0.13046,0.52458
545.644,174.331,-3.72571,0.1333,0.52424
546.244,174.531,-3.72807,0.13408,0.5239
546.844,174.732,-3.72967,0.13096,0.52356
547.444,174.9334,-3.72703,0.12763,0.52322
548.044,175.135,-3.72829,0.13061,0.52288
548.644,175.337,-3.72834,0.12751,0.52254
549.244,175.539,-3.72755,0.12952,0.5222
549.844,175.741,-3.72989,0.13099,0.52186
550.444,175.943,-3.73141,0.12952,0.52152
551.044,176.145,-3.73042,0.13197,0.52118
551.644,176.347,-3.73294,0.13303,0.52083
552.244,176.548,-3.73295,0.13611,0.52049
552.844,176.749,-3.73394,0.12999,0.52015
553.444,176.949,-3.73151,0.13585,0.51981
554.044,177.151,-3.73306,0.13753,0.51946
554.644,177.351,-3.73754,0.13479,0.51912
555.244,177.553,-3.7358,0.13372,0.51878
555.844,177.755,-3.73843,0.13563,0.51843
556.444,177.956,-3.73711,0.14121,0.51809
557.044,178.158,-3.73736,0.13928,0.51774
557.644,178.361,-3.73865,0.14044,0.5174
558.244,178.564,-3.73735,0.14297,0.51705
558.844,178.768,-3.74733,0.14542,0.51671
559.444,178.97,-3.73735,0.14373,0.51636
560.044,179.1722,-3.74172,0.15007,0.51601
560.644,179.374,-3.74208,0.14489,0.51567
561.244,179.575,-3.74304,0.14951,0.51532
561.844,179.777,-3.73927,0.14712,0.51497
562.444,179.98,-3.74304,0.14701,0.51463
563.044,180.182,-3.74304,0.15169,0.51428
563.644,180.383,-3.74337,0.1511,0.51393
564.244,180.5838,-3.74567,0.15035,0.51358
564.844,180.784,-3.74501,0.15267,0.51323
565.444,180.985,-3.74529,0.15111,0.51289
566.044,181.186,-3.74732,0.15532,0.51254
566.644,181.389,-3.74699,0.15579,0.51219
567.244,181.594,-3.74754,0.15736,0.51184
567.844,181.798,-3.74885,0.16168,0.51149
568.444,182.003,-3.75017,0.16502,0.51114
569.044,182.207,-3.75148,0.16081,0.51079
569.644,182.411,-3.75953,0.1602,0.51044
570.244,182.614,-3.74914,0.16014,0.51008
570.844,182.817,-3.75133,0.15775,0.50973
571.444,183.021,-3.74054,0.15862,0.50938
572.044,183.223,-3.75401,0.16033,0.50903
572.644,183.425,-3.75334,0.15919,0.50868
573.244,183.627,-3.75598,0.15707,0.50832
573.844,183.83,-3.75352,0.15594,0.50797
574.444,184.032,-3.756,0.15672,0.50762
575.044,184.2336,-3.75466,0.15731,0.50727
575.644,184.437,-3.75562,0.15718,0.50691
576.244,184.6392,-3.75357,0.15963,0.50656
576.844,184.843,-3.75587,0.15668,0.5062
577.444,185.047,-3.75523,0.15392,0.50585
578.044,185.25,-3.75501,0.15237,0.50549
578.644,185.452,-3.75347,0.1543,0.50514
579.244,185.655,-3.75499,0.15826,0.50478
579.844,185.858,-3.7575,0.15622,0.50443
580.444,186.061,-3.75762,0.15454,0.50407
581.044,186.264,-3.7576,0.15303,0.50372
581.644,186.467,-3.75796,0.15819,0.50336
582.244,186.67,-3.75631,0.15556,0.503
582.844,186.874,-3.75499,0.15488,0.50265
583.444,187.076,-3.75893,0.15775,0.50229
584.044,187.279,-3.75731,0.15506,0.50193
584.644,187.482,-3.75818,0.15498,0.50158
585.244,187.685,-3.76124,0.15918,0.50122
585.844,187.888,-3.76112,0.1607,0.50086
586.444,188.091,-3.7584,0.15995,0.5005
587.044,188.293,-3.75829,0.16015,0.50014
587.644,188.495,-3.7596,0.15968,0.49978
588.244,188.697,-3.7596,0.16343,0.49943
588.844,188.899,-3.7608,0.16375,0.49907
589.444,189.104,-3.76081,0.16166,0.49871
590.044,189.309,-3.7595,0.16468,0.49835
590.644,189.514,-3.75948,0.16633,0.49799
591.244,189.7177,-3.75927,0.16849,0.49763
591.844,189.9197,-3.7607,0.17157,0.49727
592.444,190.123,-3.76222,0.16783,0.49691
593.044,190.326,-3.76333,0.16802,0.49655
593.644,190.529,-3.76167,0.17305,0.49618
594.244,190.733,-3.76169,0.17448,0.49582
594.844,190.937,-3.76237,0.17475,0.49546
595.444,191.1407,-3.76168,0.18133,0.4951
596.044,191.3451,-3.76215,0.17891,0.49474
596.644,191.549,-3.76399,0.18514,0.49438
597.244,191.753,-3.76168,0.19662,0.49401
597.844,191.957,-3.76432,0.20341,0.49365
598.444,192.161,-3.76289,0.20478,0.49329
599.044,192.364,-3.76421,0.20457,0.49292
599.644,192.568,-3.76387,0.20341,0.49256
600.244,192.772,-3.7628,0.20654,0.4922
600.844,192.976,-3.7642,0.20157,0.49183
601.444,193.18,-3.76289,0.20686,0.49147
602.044,193.383,-3.76291,0.20934,0.49111
602.644,193.586,-3.7699,0.20898,0.49074
603.244,193.789,-3.7641,0.21359,0.49038
603.844,193.993,-3.76377,0.21031,0.49001
604.444,194.195,-3.76771,0.21139,0.48965
605.044,194.398,-3.76508,0.21293,0.48928
605.644,194.601,-3.76661,0.20978,0.48892
606.244,194.806,-3.76658,0.21413,0.48855
606.844,195.011,-3.7653,0.21167,0.48818
607.444,195.2169,-3.7653,0.21192,0.48782
608.044,195.422,-3.76662,0.21372,0.48745
608.644,195.626,-3.7663,0.21562,0.48709
609.244,195.831,-3.7676,0.21661,0.48672
609.844,196.035,-3.76827,0.21873,0.48635
610.444,196.239,-3.76827,0.21332,0.48598
611.044,196.4426,-3.76695,0.21742,0.48562
611.644,196.647,-3.76761,0.21803,0.48525
612.244,196.851,-3.76761,0.21873,0.48488
612.844,197.055,-3.7663,0.21552,0.48451
613.444,197.258,-3.76761,0.21219,0.48415
614.044,197.462,-3.76827,0.21529,0.48378
614.644,197.667,-3.76761,0.21492,0.48341
615.244,197.872,-3.76892,0.21941,0.48304
615.844,198.078,-3.77023,0.2178,0.48267
616.444,198.283,-3.76892,0.22233,0.4823
617.044,198.488,-3.76925,0.2223,0.48193
617.644,198.693,-3.76794,0.22845,0.48156
618.244,198.898,-3.77006,0.22524,0.48119
618.844,199.103,-3.76831,0.23106,0.48082
619.444,199.3072,-3.76848,0.23062,0.48045
620.044,199.511,-3.76896,0.23141,0.48008
620.644,199.715,-3.77942,0.23206,0.47971
621.244,199.919,-3.77111,0.23463,0.47934
621.844,200.124,-3.77177,0.23706,0.47897
622.444,200.3284,-3.77189,0.23962,0.4786
623.044,200.532,-3.76947,0.23744,0.47823
623.644,200.737,-3.76947,0.23944,0.47786
624.244,200.94,-3.77079,0.2375,0.47749
624.844,201.144,-3.77211,0.24146,0.47712
625.444,201.348,-3.77046,0.23949,0.47675
626.044,201.554,-3.77045,0.23834,0.47637
626.644,201.759,-3.77178,0.24403,0.476
627.244,201.965,-3.77043,0.24427,0.47563
627.844,202.169,-3.77046,0.24999,0.47526
628.444,202.373,-3.77178,0.25117,0.47488
629.044,202.577,-3.77202,0.2513,0.47451
629.644,202.781,-3.7731,0.25129,0.47414
630.244,202.986,-3.77178,0.25139,0.47377
630.844,203.192,-3.77178,0.2491,0.47339
631.444,203.396,-3.77309,0.24981,0.47302
632.044,203.6,-3.77308,0.25167,0.47265
632.644,203.804,-3.77243,0.24982,0.47227
633.244,204.01,-3.77309,0.24721,0.4719
633.844,204.215,-3.77309,0.24989,0.47153
634.444,204.42,-3.77309,0.2514,0.47115
635.044,204.624,-3.77309,0.25661,0.47078
635.644,204.827,-3.77295,0.25376,0.4704
636.244,205.031,-3.77407,0.2565,0.47003
636.844,205.235,-3.77309,0.25142,0.46965
637.444,205.439,-3.7744,0.25055,0.46928
638.044,205.6444,-3.77441,0.2514,0.4689
638.644,205.85,-3.77441,0.25148,0.46853
639.244,206.056,-3.77556,0.24943,0.46815
639.844,206.261,-3.77539,0.25152,0.46778
640.444,206.466,-3.77309,0.25277,0.4674
641.044,206.672,-3.77504,0.25455,0.46703
641.644,206.8765,-3.77413,0.25186,0.46665
642.244,207.082,-3.77276,0.25306,0.46627
642.844,207.287,-3.77419,0.26051,0.4659
643.444,207.493,-3.77518,0.25861,0.46552
644.044,207.6995,-3.77646,0.26175,0.46515
644.644,207.905,-3.77518,0.26043,0.46477
645.244,208.109,-3.77506,0.25997,0.46439
645.844,208.3133,-3.77507,0.26252,0.46402
646.444,208.518,-3.77245,0.26202,0.46364
647.044,208.724,-3.7766,0.26214,0.46326
647.644,208.93,-3.7766,0.2599,0.46289
648.244,209.136,-3.77657,0.26311,0.46251
648.844,209.341,-3.77627,0.26739,0.46213
649.444,209.547,-3.77686,0.26876,0.46175
650.044,209.753,-3.77891,0.27407,0.46138
650.644,209.958,-3.77454,0.27593,0.461
650.744,209.9901,-3.7732,0.27991,0.46093