File: 01_Data/Polyester_Batting/FTIR/IS/Polyester_Batting_IS_REFLECT_REF_210623_R1.dpt
5996.41,0.99924
5992.55,1.00441
5988.69,1.00553
5984.84,1.00875
5980.98,1.00194
5977.12,1.00273
5973.27,0.99938
5969.41,1.00510
5965.55,1.01155
5961.69,1.00950
5957.84,1.00781
5953.98,1.01564
5950.12,1.01336
5946.26,1.00826
5942.41,1.00932
5938.55,1.01128
5934.69,1.00548
5930.83,1.00827
5926.98,1.00913
5923.12,1.00797
5919.26,1.01055
5915.4,1.00754
5911.55,1.00888
5907.69,1.00722
5903.83,1.00825
5899.97,1.00672
5896.12,1.00395
5892.26,1.01212
5888.4,1.00680
5884.54,1.00625
5880.69,1.00608
5876.83,1.01709
5872.97,1.01217
5869.11,1.00810
5865.26,1.00797
5861.4,1.00877
5857.54,1.00935
5853.68,1.01079
5849.83,1.01001
5845.97,1.01017
5842.11,1.00313
5838.25,1.00648
5834.4,1.01310
5830.54,1.00579
5826.68,1.01393
5822.82,1.01459
5818.97,1.00773
5815.11,1.00737
5811.25,1.00379
5807.39,1.00583
5803.54,1.00858
5799.68,1.00653
5795.82,1.00596
5791.96,1.00819
5788.11,1.00886
5784.25,1.00935
5780.39,1.00615
5776.53,1.00725
5772.68,1.00756
5768.82,1.00271
5764.96,1.00551
5761.11,1.00050
5757.25,1.00527
5753.39,1.00512
5749.53,1.00433
5745.68,1.00904
5741.82,1.01460
5737.96,1.00761
5734.1,1.00452
5730.25,1.00564
5726.39,1.01250
5722.53,1.01389
5718.67,1.01236
5714.82,1.00920
5710.96,1.00738
5707.1,1.00312
5703.24,1.00352
5699.39,1.00843
5695.53,1.01188
5691.67,1.01289
5687.81,1.00811
5683.96,1.01020
5680.1,1.00909
5676.24,1.00898
5672.38,1.01016
5668.53,1.00393
5664.67,1.00513
5660.81,1.00796
5656.95,1.00811
5653.1,1.01107
5649.24,1.00281
5645.38,1.00141
5641.52,1.00410
5637.67,1.00444
5633.81,1.00701
5629.95,1.01001
5626.09,1.01151
5622.24,1.01106
5618.38,1.00899
5614.52,1.00787
5610.66,1.00797
5606.81,1.00669
5602.95,1.00775
5599.09,1.00430
5595.23,1.00359
5591.38,1.00853
5587.52,1.00618
5583.66,1.00640
5579.8,1.00765
5575.95,1.00254
5572.09,1.00630
5568.23,1.00618
5564.38,1.00874
5560.52,1.00555
5556.66,1.01060
5552.8,1.00313
5548.95,0.99896
5545.09,1.00250
5541.23,1.00366
5537.37,1.00856
5533.52,1.00809
5529.66,1.00330
5525.8,1.00149
5521.94,1.00298
5518.09,1.00230
5514.23,1.00410
5510.37,1.00361
5506.51,1.00437
5502.66,1.00967
5498.8,1.00547
5494.94,1.00242
5491.08,1.00538
5487.23,1.00591
5483.37,1.00403
5479.51,1.00357
5475.65,1.00292
5471.8,1.00577
5467.94,1.00841
5464.08,0.99880
5460.22,1.00052
5456.37,1.00743
5452.51,1.00699
5448.65,1.00510
5444.79,1.00030
5440.94,1.00105
5437.08,1.00309
5433.22,1.00618
5429.36,1.00858
5425.51,1.00961
5421.65,1.01030
5417.79,1.00905
5413.93,1.00392
5410.08,1.00406
5406.22,1.00764
5402.36,1.00580
5398.5,1.00808
5394.65,1.01070
5390.79,1.00724
5386.93,1.00552
5383.07,1.00438
5379.22,1.00754
5375.36,1.00990
5371.5,1.00822
5367.65,1.00577
5363.79,1.00414
5359.93,1.00158
5356.07,1.00312
5352.22,1.00470
5348.36,1.00268
5344.5,1.00388
5340.64,1.00723
5336.79,1.00787
5332.93,1.00996
5329.07,1.00737
5325.21,1.00625
5321.36,1.00109
5317.5,1.00457
5313.64,1.00456
5309.78,1.00444
5305.93,1.00959
5302.07,1.00685
5298.21,1.00337
5294.35,0.99890
5290.5,0.99884
5286.64,1.00549
5282.78,1.01174
5278.92,1.01190
5275.07,1.00716
5271.21,1.00338
5267.35,1.00262
5263.49,1.00601
5259.64,1.00420
5255.78,1.00721
5251.92,1.00854
5248.06,1.00100
5244.21,1.00411
5240.35,1.00636
5236.49,1.00692
5232.63,1.00326
5228.78,1.00134
5224.92,1.00011
5221.06,1.00135
5217.2,1.00172
5213.35,1.00328
5209.49,1.00839
5205.63,1.00774
5201.77,1.00747
5197.92,1.00690
5194.06,1.00732
5190.2,1.00743
5186.34,1.00678
5182.49,1.00157
5178.63,1.00201
5174.77,1.00536
5170.91,1.00923
5167.06,1.00650
5163.2,1.00389
5159.34,1.00275
5155.49,1.00157
5151.63,1.00491
5147.77,1.00647
5143.91,1.00623
5140.06,1.00464
5136.2,1.00794
5132.34,1.00713
5128.48,1.00328
5124.63,1.00476
5120.77,1.00413
5116.91,1.00592
5113.05,1.00526
5109.2,1.00295
5105.34,1.00570
5101.48,1.00977
5097.62,1.00543
5093.77,1.00493
5089.91,1.00599
5086.05,1.00563
5082.19,1.00552
5078.34,1.00823
5074.48,1.00860
5070.62,1.00488
5066.76,1.00568
5062.91,1.00617
5059.05,1.00440
5055.19,1.00578
5051.33,1.00726
5047.48,1.00680
5043.62,1.00798
5039.76,1.00304
5035.9,1.00549
5032.05,1.00490
5028.19,1.00448
5024.33,1.00767
5020.47,1.00496
5016.62,1.00473
5012.76,1.00408
5008.9,1.00440
5005.04,1.00776
5001.19,1.00507
4997.33,1.00366
4993.47,1.00561
4989.61,1.00538
4985.76,1.00625
4981.9,1.00669
4978.04,1.00675
4974.18,1.00604
4970.33,1.00526
4966.47,1.00501
4962.61,1.00411
4958.76,1.00191
4954.9,1.00494
4951.04,1.00409
4947.18,1.00523
4943.33,1.00496
4939.47,1.00308
4935.61,1.00143
4931.75,1.00585
4927.9,1.00500
4924.04,1.00522
4920.18,1.00482
4916.32,1.00455
4912.47,1.00629
4908.61,1.00518
4904.75,1.00536
4900.89,1.00436
4897.04,1.00441
4893.18,1.00458
4889.32,1.00797
4885.46,1.00687
4881.61,1.00484
4877.75,1.00401
4873.89,1.00505
4870.03,1.00394
4866.18,1.00322
4862.32,1.00634
4858.46,1.00612
4854.6,1.00370
4850.75,1.00505
4846.89,1.00783
4843.03,1.00520
4839.17,1.00481
4835.32,1.00426
4831.46,1.00261
4827.6,1.00430
4823.74,1.00509
4819.89,1.00672
4816.03,1.00490
4812.17,1.00508
4808.31,1.00259
4804.46,1.00374
4800.6,1.00496
4796.74,1.00466
4792.88,1.00670
4789.03,1.00471
4785.17,1.00461
4781.31,1.00540
4777.45,1.00295
4773.6,1.00280
4769.74,1.00378
4765.88,1.00384
4762.02,1.00416
4758.17,1.00488
4754.31,1.00453
4750.45,1.00585
4746.6,1.00707
4742.74,1.00392
4738.88,1.00562
4735.02,1.00539
4731.17,1.00241
4727.31,1.00325
4723.45,1.00280
4719.59,1.00478
4715.74,1.00610
4711.88,1.00814
4708.02,1.00419
4704.16,1.00418
4700.31,1.00479
4696.45,1.00462
4692.59,1.00529
4688.73,1.00394
4684.88,1.00457
4681.02,1.00648
4677.16,1.00689
4673.3,1.00557
4669.45,1.00457
4665.59,1.00440
4661.73,1.00363
4657.87,1.00486
4654.02,1.00632
4650.16,1.00434
4646.3,1.00578
4642.44,1.00431
4638.59,1.00744
4634.73,1.00494
4630.87,1.00619
4627.01,1.00557
4623.16,1.00393
4619.3,1.00583
4615.44,1.00526
4611.58,1.00305
4607.73,1.00434
4603.87,1.00480
4600.01,1.00407
4596.15,1.00438
4592.3,1.00445
4588.44,1.00485
4584.58,1.00430
4580.72,1.00440
4576.87,1.00509
4573.01,1.00473
4569.15,1.00647
4565.29,1.00601
4561.44,1.00593
4557.58,1.00548
4553.72,1.00461
4549.87,1.00647
4546.01,1.00517
4542.15,1.00266
4538.29,1.00227
4534.44,1.00656
4530.58,1.00538
4526.72,1.00442
4522.86,1.00251
4519.01,1.00322
4515.15,1.00260
4511.29,1.00049
4507.43,1.00213
4503.58,1.00274
4499.72,1.00534
4495.86,1.00311
4492,1.00343
4488.15,1.00440
4484.29,1.00311
4480.43,1.00164
4476.57,1.00376
4472.72,1.00451
4468.86,1.00530
4465,1.00485
4461.14,1.00297
4457.29,1.00488
4453.43,1.00323
4449.57,1.00346
4445.71,1.00357
4441.86,1.00481
4438,1.00621
4434.14,1.00315
4430.28,1.00388
4426.43,1.00414
4422.57,1.00330
4418.71,1.00335
4414.85,1.00348
4411,1.00444
4407.14,1.00525
4403.28,1.00518
4399.42,1.00610
4395.57,1.00472
4391.71,1.00267
4387.85,1.00341
4383.99,1.00471
4380.14,1.00487
4376.28,1.00425
4372.42,1.00299
4368.56,1.00149
4364.71,1.00255
4360.85,1.00303
4356.99,1.00373
4353.14,1.00562
4349.28,1.00512
4345.42,1.00326
4341.56,1.00226
4337.71,1.00317
4333.85,1.00285
4329.99,1.00364
4326.13,1.00304
4322.28,1.00321
4318.42,1.00333
4314.56,1.00381
4310.7,1.00284
4306.85,1.00383
4302.99,1.00564
4299.13,1.00533
4295.27,1.00473
4291.42,1.00458
4287.56,1.00414
4283.7,1.00286
4279.84,1.00383
4275.99,1.00331
4272.13,1.00392
4268.27,1.00397
4264.41,1.00201
4260.56,1.00336
4256.7,1.00379
4252.84,1.00264
4248.98,1.00293
4245.13,1.00274
4241.27,1.00343
4237.41,1.00380
4233.55,1.00476
4229.7,1.00452
4225.84,1.00288
4221.98,1.00222
4218.12,1.00260
4214.27,1.00248
4210.41,1.00356
4206.55,1.00357
4202.69,1.00263
4198.84,1.00316
4194.98,1.00228
4191.12,1.00196
4187.26,1.00325
4183.41,1.00290
4179.55,1.00339
4175.69,1.00392
4171.83,1.00403
4167.98,1.00305
4164.12,1.00256
4160.26,1.00283
4156.4,1.00365
4152.55,1.00317
4148.69,1.00254
4144.83,1.00262
4140.98,1.00167
4137.12,1.00256
4133.26,1.00307
4129.4,1.00379
4125.55,1.00375
4121.69,1.00342
4117.83,1.00442
4113.97,1.00271
4110.12,1.00211
4106.26,1.00167
4102.4,1.00271
4098.54,1.00368
4094.69,1.00382
4090.83,1.00202
4086.97,1.00210
4083.11,1.00270
4079.26,1.00415
4075.4,1.00364
4071.54,1.00296
4067.68,1.00329
4063.83,1.00371
4059.97,1.00410
4056.11,1.00317
4052.25,1.00348
4048.4,1.00258
4044.54,1.00209
4040.68,1.00300
4036.82,1.00219
4032.97,1.00217
4029.11,1.00318
4025.25,1.00251
4021.39,1.00168
4017.54,1.00283
4013.68,1.00303
4009.82,1.00279
4005.96,1.00207
4002.11,1.00142
3998.25,1.00270
3994.39,1.00324
3990.53,1.00285
3986.68,1.00248
3982.82,1.00142
3978.96,1.00386
3975.1,1.00415
3971.25,1.00349
3967.39,1.00426
3963.53,1.00314
3959.67,1.00238
3955.82,1.00238
3951.96,1.00265
3948.1,1.00150
3944.25,1.00151
3940.39,1.00198
3936.53,1.00156
3932.67,1.00303
3928.82,1.00303
3924.96,1.00240
3921.1,1.00179
3917.24,1.00108
3913.39,1.00265
3909.53,1.00310
3905.67,1.00357
3901.81,1.00324
3897.96,1.00161
3894.1,1.00228
3890.24,1.00308
3886.38,1.00182
3882.53,1.00201
3878.67,1.00142
3874.81,1.00153
3870.95,1.00223
3867.1,1.00183
3863.24,1.00088
3859.38,1.00032
3855.52,1.00048
3851.67,1.00036
3847.81,1.00072
3843.95,0.99946
3840.09,1.00031
3836.24,1.00146
3832.38,1.00092
3828.52,1.00091
3824.66,1.00109
3820.81,1.00093
3816.95,1.00127
3813.09,1.00182
3809.23,1.00116
3805.38,1.00310
3801.52,1.00302
3797.66,1.00171
3793.8,1.00119
3789.95,1.00208
3786.09,1.00219
3782.23,1.00201
3778.37,1.00338
3774.52,1.00198
3770.66,1.00011
3766.8,1.00059
3762.94,1.00098
3759.09,1.00232
3755.23,1.00291
3751.37,1.00217
3747.51,0.99982
3743.66,1.00015
3739.8,1.00014
3735.94,1.00099
3732.09,0.99987
3728.23,0.99905
3724.37,0.99831
3720.51,1.00021
3716.66,1.00262
3712.8,1.00306
3708.94,0.99981
3705.08,0.99999
3701.23,1.00038
3697.37,1.00128
3693.51,0.99982
3689.65,0.99910
3685.8,0.99961
3681.94,1.00002
3678.08,1.00009
3674.22,1.00026
3670.37,1.00023
3666.51,1.00051
3662.65,1.00089
3658.79,1.00060
3654.94,1.00116
3651.08,1.00277
3647.22,1.00131
3643.36,1.00024
3639.51,1.00070
3635.65,1.00120
3631.79,1.00302
3627.93,1.00195
3624.08,1.00045
3620.22,1.00095
3616.36,1.00057
3612.5,0.99985
3608.65,1.00103
3604.79,1.00241
3600.93,1.00258
3597.07,1.00059
3593.22,0.99994
3589.36,1.00158
3585.5,1.00176
3581.64,1.00066
3577.79,1.00151
3573.93,1.00178
3570.07,1.00158
3566.21,1.00176
3562.36,1.00117
3558.5,1.00010
3554.64,0.99951
3550.78,1.00060
3546.93,1.00099
3543.07,1.00202
3539.21,1.00109
3535.36,1.00058
3531.5,1.00153
3527.64,1.00114
3523.78,1.00090
3519.93,1.00177
3516.07,1.00089
3512.21,0.99931
3508.35,0.99956
3504.5,1.00069
3500.64,1.00108
3496.78,1.00001
3492.92,1.00029
3489.07,1.00075
3485.21,1.00078
3481.35,1.00108
3477.49,1.00119
3473.64,1.00101
3469.78,1.00068
3465.92,1.00081
3462.06,1.00112
3458.21,1.00214
3454.35,1.00147
3450.49,1.00144
3446.63,1.00215
3442.78,1.00191
3438.92,1.00062
3435.06,1.00069
3431.2,1.00037
3427.35,1.00046
3423.49,1.00152
3419.63,1.00067
3415.77,0.99906
3411.92,0.99964
3408.06,1.00102
3404.2,1.00128
3400.34,1.00041
3396.49,0.99975
3392.63,1.00103
3388.77,1.00156
3384.91,1.00115
3381.06,1.00231
3377.2,1.00217
3373.34,1.00223
3369.48,1.00121
3365.63,1.00070
3361.77,1.00107
3357.91,1.00106
3354.05,1.00053
3350.2,1.00022
3346.34,0.99973
3342.48,1.00116
3338.63,1.00114
3334.77,1.00048
3330.91,1.00163
3327.05,1.00120
3323.2,1.00071
3319.34,1.00276
3315.48,1.00193
3311.62,1.00042
3307.77,1.00116
3303.91,1.00143
3300.05,1.00101
3296.19,1.00138
3292.34,1.00040
3288.48,1.00085
3284.62,1.00124
3280.76,1.00008
3276.91,0.99965
3273.05,0.99978
3269.19,1.00043
3265.33,1.00049
3261.48,1.00020
3257.62,1.00116
3253.76,1.00144
3249.9,1.00178
3246.05,1.00140
3242.19,1.00225
3238.33,1.00130
3234.47,1.00180
3230.62,1.00013
3226.76,0.99948
3222.9,1.00091
3219.04,1.00018
3215.19,1.00057
3211.33,1.00152
3207.47,1.00131
3203.61,1.00129
3199.76,1.00138
3195.9,1.00141
3192.04,1.00148
3188.18,1.00137
3184.33,1.00058
3180.47,1.00043
3176.61,1.00119
3172.75,1.00192
3168.9,1.00140
3165.04,1.00079
3161.18,1.00138
3157.32,1.00159
3153.47,1.00154
3149.61,1.00205
3145.75,1.00102
3141.89,1.00117
3138.04,1.00177
3134.18,1.00093
3130.32,1.00054
3126.47,1.00060
3122.61,1.00115
3118.75,1.00073
3114.89,1.00131
3111.04,1.00193
3107.18,1.00148
3103.32,1.00121
3099.46,1.00160
3095.61,1.00207
3091.75,1.00143
3087.89,0.99995
3084.03,1.00098
3080.18,1.00241
3076.32,1.00148
3072.46,1.00129
3068.6,1.00079
3064.75,1.00118
3060.89,1.00163
3057.03,1.00162
3053.17,1.00153
3049.32,1.00107
3045.46,1.00110
3041.6,1.00078
3037.74,1.00137
3033.89,1.00043
3030.03,1.00059
3026.17,1.00171
3022.31,1.00230
3018.46,1.00250
3014.6,1.00177
3010.74,1.00201
3006.88,1.00128
3003.03,1.00100
2999.17,1.00080
2995.31,1.00107
2991.45,1.00186
2987.6,1.00167
2983.74,1.00150
2979.88,1.00205
2976.02,1.00158
2972.17,1.00152
2968.31,1.00136
2964.45,1.00122
2960.59,1.00164
2956.74,1.00055
2952.88,1.00108
2949.02,1.00236
2945.16,1.00107
2941.31,1.00165
2937.45,1.00198
2933.59,1.00112
2929.74,1.00155
2925.88,1.00131
2922.02,1.00138
2918.16,1.00201
2914.31,1.00186
2910.45,1.00109
2906.59,1.00131
2902.73,1.00208
2898.88,1.00201
2895.02,1.00007
2891.16,1.00112
2887.3,1.00215
2883.45,1.00137
2879.59,1.00122
2875.73,1.00075
2871.87,1.00078
2868.02,1.00068
2864.16,1.00066
2860.3,1.00163
2856.44,1.00141
2852.59,1.00138
2848.73,1.00143
2844.87,1.00115
2841.01,1.00119
2837.16,1.00259
2833.3,1.00176
2829.44,1.00088
2825.58,1.00138
2821.73,1.00091
2817.87,1.00031
2814.01,1.00140
2810.15,1.00145
2806.3,1.00158
2802.44,1.00177
2798.58,1.00167
2794.72,1.00164
2790.87,1.00079
2787.01,1.00077
2783.15,1.00131
2779.29,1.00172
2775.44,1.00178
2771.58,1.00195
2767.72,1.00141
2763.86,1.00111
2760.01,1.00230
2756.15,1.00206
2752.29,1.00137
2748.43,1.00050
2744.58,1.00084
2740.72,1.00130
2736.86,1.00131
2733.01,1.00032
2729.15,1.00076
2725.29,1.00066
2721.43,1.00127
2717.58,1.00128
2713.72,1.00204
2709.86,1.00177
2706,1.00115
2702.15,1.00185
2698.29,1.00151
2694.43,1.00123
2690.57,1.00083
2686.72,1.00104
2682.86,1.00135
2679,1.00105
2675.14,1.00112
2671.29,1.00103
2667.43,1.00159
2663.57,1.00160
2659.71,1.00125
2655.86,1.00124
2652,1.00117
2648.14,1.00096
2644.28,1.00089
2640.43,1.00134
2636.57,1.00130
2632.71,1.00046
2628.85,1.00066
2625,1.00144
2621.14,1.00152
2617.28,1.00167
2613.42,1.00116
2609.57,1.00073
2605.71,1.00120
2601.85,1.00091
2597.99,1.00071
2594.14,1.00104
2590.28,1.00060
2586.42,1.00097
2582.56,1.00148
2578.71,1.00167
2574.85,1.00122
2570.99,1.00156
2567.13,1.00134
2563.28,1.00075
2559.42,1.00081
2555.56,1.00084
2551.7,1.00089
2547.85,1.00166
2543.99,1.00172
2540.13,1.00135
2536.27,1.00076
2532.42,1.00057
2528.56,1.00104
2524.7,1.00079
2520.85,1.00090
2516.99,1.00062
2513.13,1.00068
2509.27,1.00119
2505.42,1.00128
2501.56,1.00093
2497.7,1.00073
2493.84,1.00068
2489.99,1.00118
2486.13,1.00155
2482.27,1.00147
2478.41,1.00144
2474.56,1.00099
2470.7,1.00097
2466.84,1.00085
2462.98,1.00123
2459.13,1.00159
2455.27,1.00060
2451.41,1.00103
2447.55,1.00102
2443.7,1.00105
2439.84,1.00088
2435.98,1.00124
2432.12,1.00144
2428.27,1.00131
2424.41,1.00092
2420.55,1.00069
2416.69,1.00046
2412.84,1.00110
2408.98,1.00077
2405.12,1.00126
2401.26,1.00084
2397.41,1.00158
2393.55,1.00131
2389.69,1.00080
2385.83,1.00073
2381.98,1.00031
2378.12,1.00009
2374.26,1.00085
2370.4,0.99996
2366.55,1.00181
2362.69,1.00212
2358.83,1.00287
2354.97,1.00326
2351.12,0.99922
2347.26,0.99889
2343.4,1.00128
2339.54,1.00260
2335.69,1.00227
2331.83,1.00194
2327.97,1.00107
2324.12,1.00032
2320.26,0.99953
2316.4,1.00116
2312.54,1.00201
2308.69,1.00126
2304.83,1.00046
2300.97,1.00064
2297.11,1.00051
2293.26,0.99999
2289.4,1.00081
2285.54,1.00125
2281.68,1.00116
2277.83,1.00106
2273.97,1.00112
2270.11,1.00095
2266.25,1.00078
2262.4,1.00060
2258.54,1.00063
2254.68,1.00101
2250.82,1.00047
2246.97,1.00059
2243.11,1.00092
2239.25,1.00099
2235.39,1.00065
2231.54,1.00060
2227.68,1.00088
2223.82,1.00126
2219.96,1.00062
2216.11,1.00074
2212.25,1.00074
2208.39,1.00067
2204.53,1.00105
2200.68,1.00073
2196.82,1.00063
2192.96,1.00081
2189.1,1.00058
2185.25,1.00073
2181.39,1.00069
2177.53,1.00040
2173.67,1.00143
2169.82,1.00160
2165.96,0.99987
2162.1,1.00009
2158.24,1.00046
2154.39,1.00041
2150.53,1.00075
2146.67,1.00158
2142.81,1.00122
2138.96,1.00096
2135.1,1.00078
2131.24,1.00045
2127.38,1.00046
2123.53,1.00022
2119.67,1.00021
2115.81,1.00022
2111.96,1.00105
2108.1,1.00110
2104.24,1.00070
2100.38,1.00014
2096.53,1.00039
2092.67,1.00045
2088.81,1.00019
2084.95,1.00067
2081.1,1.00095
2077.24,1.00032
2073.38,1.00044
2069.52,1.00077
2065.67,1.00024
2061.81,1.00051
2057.95,1.00056
2054.09,1.00048
2050.24,1.00061
2046.38,1.00109
2042.52,1.00143
2038.66,1.00041
2034.81,1.00062
2030.95,1.00130
2027.09,1.00074
2023.23,1.00054
2019.38,0.99977
2015.52,1.00044
2011.66,1.00017
2007.8,0.99984
2003.95,0.99994
2000.09,1.00059
1996.23,1.00052
1992.37,1.00068
1988.52,1.00117
1984.66,1.00120
1980.8,1.00046
1976.94,1.00081
1973.09,1.00123
1969.23,1.00064
1965.37,1.00026
1961.51,1.00076
1957.66,1.00028
1953.8,1.00027
1949.94,1.00070
1946.08,1.00044
1942.23,1.00069
1938.37,1.00054
1934.51,1.00094
1930.65,1.00103
1926.8,1.00040
1922.94,1.00062
1919.08,1.00051
1915.23,1.00043
1911.37,1.00118
1907.51,1.00066
1903.65,0.99962
1899.8,1.00005
1895.94,1.00059
1892.08,1.00068
1888.22,1.00057
1884.37,1.00001
1880.51,1.00022
1876.65,1.00081
1872.79,1.00106
1868.94,1.00133
1865.08,1.00053
1861.22,1.00005
1857.36,1.00018
1853.51,1.00085
1849.65,1.00063
1845.79,1.00013
1841.93,1.00053
1838.08,1.00082
1834.22,0.99990
1830.36,1.00030
1826.5,1.00018
1822.65,1.00030
1818.79,1.00003
1814.93,1.00000
1811.07,1.00044
1807.22,1.00039
1803.36,1.00042
1799.5,1.00058
1795.64,1.00042
1791.79,1.00046
1787.93,0.99950
1784.07,0.99847
1780.21,1.00005
1776.36,1.00003
1772.5,1.00006
1768.64,0.99988
1764.78,0.99943
1760.93,0.99885
1757.07,0.99850
1753.21,0.99891
1749.35,0.99955
1745.5,0.99908
1741.64,0.99845
1737.78,0.99908
1733.92,0.99944
1730.07,0.99953
1726.21,0.99878
1722.35,0.99846
1718.5,1.00035
1714.64,0.99986
1710.78,0.99839
1706.92,0.99873
1703.07,0.99791
1699.21,0.99876
1695.35,0.99818
1691.49,0.99879
1687.64,0.99959
1683.78,1.00029
1679.92,0.99918
1676.06,0.99896
1672.21,0.99943
1668.35,0.99813
1664.49,0.99804
1660.63,0.99826
1656.78,0.99894
1652.92,0.99900
1649.06,0.99845
1645.2,0.99832
1641.35,0.99852
1637.49,0.99966
1633.63,0.99751
1629.77,0.99765
1625.92,0.99907
1622.06,0.99882
1618.2,1.00006
1614.34,0.99921
1610.49,0.99910
1606.63,0.99966
1602.77,0.99936
1598.91,0.99980
1595.06,1.00004
1591.2,1.00013
1587.34,0.99982
1583.48,0.99950
1579.63,0.99918
1575.77,0.99914
1571.91,0.99882
1568.05,0.99873
1564.2,0.99712
1560.34,0.99837
1556.48,0.99997
1552.62,0.99725
1548.77,0.99637
1544.91,0.99832
1541.05,1.00154
1537.19,0.99718
1533.34,0.99760
1529.48,0.99898
1525.62,0.99794
1521.76,0.99856
1517.91,0.99780
1514.05,0.99684
1510.19,0.99722
1506.34,0.99794
1502.48,0.99823
1498.62,0.99845
1494.76,0.99858
1490.91,0.99905
1487.05,0.99852
1483.19,0.99792
1479.33,0.99877
1475.48,0.99948
1471.62,0.99866
1467.76,0.99786
1463.9,0.99819
1460.05,0.99966
1456.19,0.99981
1452.33,0.99860
1448.47,0.99849
1444.62,0.99868
1440.76,0.99888
1436.9,0.99920
1433.04,0.99924
1429.19,0.99905
1425.33,0.99932
1421.47,0.99883
1417.61,0.99902
1413.76,0.99986
1409.9,1.00005
1406.04,0.99931
1402.18,0.99996
1398.33,1.00030
1394.47,0.99972
1390.61,0.99927
1386.75,0.99887
1382.9,0.99935
1379.04,0.99951
1375.18,1.00082
1371.32,1.00012
1367.47,0.99886
1363.61,0.99955
1359.75,0.99969
1355.89,0.99914
1352.04,0.99996
1348.18,1.00058
1344.32,1.00066
1340.46,1.00071
1336.61,1.00096
1332.75,1.00074
1328.89,1.00017
1325.03,1.00015
1321.18,1.00011
1317.32,0.99955
1313.46,0.99959
1309.61,0.99971
1305.75,0.99885
1301.89,0.99966
1298.03,1.00108
1294.18,1.00055
1290.32,1.00031
1286.46,1.00063
1282.6,1.00059
1278.75,0.99957
1274.89,0.99958
1271.03,0.99988
1267.17,0.99931
1263.32,0.99958
1259.46,0.99930
1255.6,0.99887
1251.74,0.99945
1247.89,1.00041
1244.03,0.99961
1240.17,0.99961
1236.31,0.99952
1232.46,1.00011
1228.6,0.99999
1224.74,1.00120
1220.88,1.00007
1217.03,0.99977
1213.17,1.00071
1209.31,1.00087
1205.45,1.00053
1201.6,0.99993
1197.74,1.00034
1193.88,1.00104
1190.02,0.99954
1186.17,0.99868
1182.31,0.99849
1178.45,0.99968
1174.59,1.00071
1170.74,0.99993
1166.88,1.00010
1163.02,0.99995
1159.16,1.00059
1155.31,1.00066
1151.45,1.00017
1147.59,1.00044
1143.73,1.00165
1139.88,1.00172
1136.02,1.00096
1132.16,0.99936
1128.3,0.99962
1124.45,0.99988
1120.59,0.99906
1116.73,0.99889
1112.88,0.99878
1109.02,1.00006
1105.16,1.00056
1101.3,1.00127
1097.45,1.00067
1093.59,1.00045
1089.73,1.00097
1085.87,1.00000
1082.02,0.99913
1078.16,0.99886
1074.3,0.99856
1070.44,1.00038
1066.59,1.00114
1062.73,1.00045
1058.87,1.00140
1055.01,1.00165
1051.16,0.99921
1047.3,0.99829
1043.44,0.99972
1039.58,0.99989
1035.73,0.99989
1031.87,0.99995
1028.01,0.99939
1024.15,0.99979
1020.3,1.00047
1016.44,0.99960
1012.58,0.99842
1008.72,0.99897
1004.87,0.99945
1001.01,1.00021
997.151,0.99953
993.294,0.99934
989.437,1.00012
985.579,1.00091
981.722,1.00038
977.864,0.99977
974.007,1.00041
970.149,1.00130
966.292,1.00082
962.434,1.00081
958.577,1.00087
954.719,1.00246
950.862,0.99976
947.005,0.99831
943.147,0.99830
939.29,1.00008
935.432,1.00100
931.575,1.00162
927.717,1.00011
923.86,0.99966
920.002,1.00059
916.145,0.99926
912.287,1.00047
908.43,1.00058
904.573,1.00002
900.715,1.00009
896.858,1.00048
893,0.99886
889.143,0.99932
885.285,1.00103
881.428,1.00168
877.57,1.00190
873.713,1.00138
869.856,0.99831
865.998,0.99995
862.141,1.00130
858.283,1.00160
854.426,0.99997
850.568,0.99903
846.711,0.99859
842.853,1.00002
838.996,0.99990
835.138,0.99934
831.281,0.99911
827.424,1.00072
823.566,0.99819
819.709,0.99915
815.851,1.00128
811.994,0.99950
808.136,0.99959
804.279,0.99917
800.421,0.99826
796.564,0.99764
792.706,0.99849
788.849,0.99938
784.992,1.00026
781.134,0.99893
777.277,0.99890
773.419,0.99990
769.562,0.99855
765.704,0.99840
761.847,0.99756
757.989,1.00273
754.132,1.00050
750.274,1.00012
746.417,1.00177
742.56,0.99983
738.702,1.00133
734.845,1.00059
730.987,0.99880
727.13,0.99860
723.272,1.00050
719.415,1.00056
715.557,0.99897
711.7,0.99742
707.843,0.99704
703.985,0.99858
700.128,1.00014
696.27,0.99901
692.413,0.99965
688.555,0.99719
684.698,0.99809
680.84,0.99954
676.983,0.99795
673.125,0.99869
669.268,1.00111
665.411,1.00326
661.553,1.00086
657.696,0.99841
653.838,1.00021
649.981,1.00021
646.123,0.99795
642.266,0.99891
638.408,0.99850
634.551,0.99777
630.693,0.99629
626.836,0.99668
622.979,0.99927
619.121,1.00064
615.264,0.99952
611.406,1.00028
607.549,0.99757
603.691,0.99609
599.834,0.99715
595.976,1.00079
592.119,1.00207
588.261,1.00033
584.404,0.99815
580.547,1.00082
576.689,0.99824
572.832,0.99640
568.974,1.00101
565.117,1.00154
561.259,1.00397
557.402,0.99940
553.544,0.99736
549.687,0.99616
545.83,0.99763
541.972,0.99704
538.115,0.99732
534.257,1.00234
530.4,1.00172
526.542,1.00084
522.685,1.00486
518.827,1.00263
514.97,0.99663
511.112,1.00022
507.255,1.00603
503.398,0.99931
499.54,0.99927
495.683,0.99658
491.825,0.99642
487.968,0.99827
484.11,0.99984
480.253,1.00012
476.395,1.00051
472.538,0.99934
468.68,0.99370
464.823,0.99706
460.966,0.99575
457.108,1.00373
453.251,1.00668
449.393,1.00281
445.536,1.00399
441.678,1.00067
437.821,0.98695
433.963,0.98650
430.106,0.99666
426.248,1.00153
422.391,1.00242
418.534,1.01017
414.676,0.99910
410.819,0.98697
406.961,0.99229
403.104,1.00750
399.246,0.99575