File: 01_Data/PlasticC/Cone/PlasticC_Cone_HF50Scan_220218_R2.csv
Names,Time,Stack TC,Smoke TC,Exh Press,Smoke Comp,Smoke Meas,CO Meter,CO2 Meter,O2 Meter,Sample Mass,Ext Coeff,Start Test,Flame Verif
Chan Gain,,500,500,1,1,1,1,1,1,1,1,1.0,1.0
Offset,,0,0,0.132436,0,0,0,0,0,0,0,0.0,0.0
Gain,,1,1,25.011,15.4219,15.1528,1,1,1,1.00089,1.02113,1.0,1.0
Units,sec,C,C,Pa,%,%,%,%,%,g,/m,,
Baseline,,30.6186,31.6822,160.8,114.324,111.939,-0.00597232,0.0455582,21.001,-477.133,0.188947,,
3,0.5,28.5855,29.6554,164.627,114.276,113.047,-0.00610072,0.0481173,21.0013,37.3331,0.0968206,0.0,0.0
6,1.25,28.6386,29.6513,160.899,114.263,112.221,-0.00610919,0.0481143,21.0019,37.283,0.161468,0.0,0.0
9,2,28.0793,29.3343,159.945,114.255,111.945,-0.00611891,0.0480567,21.0023,37.293,0.182902,0.0,0.0
12,2.75,28.3751,29.7906,162.302,114.265,111.967,-0.00612534,0.0479911,21.0027,37.233,0.181939,0.0,0.0
15,3.5,27.5329,28.4797,163.872,114.274,113.134,-0.0061289,0.0479294,21.0029,37.3331,0.0897871,0.0,0.0
18,4.25,28.4137,29.2758,162.02,114.268,112.264,-0.00612619,0.0478092,21.0031,37.243,0.158478,0.0,0.0
21,5,28.7581,29.3207,164.133,114.267,112.793,-0.00612422,0.047692,21.0032,37.233,0.116296,0.0,0.0
24,5.75,28.0618,29.5107,160.466,114.289,112.737,-0.00612809,0.0475869,21.0033,37.1629,0.122436,0.0,0.0
27,6.5,28.5419,29.4355,162.155,114.282,111.785,-0.00612843,0.0474825,21.0034,37.1629,0.197928,0.0,0.0
30,7.25,28.0082,29.0012,163.58,114.284,112.496,-0.0061237,0.0473946,21.0034,37.223,0.141229,0.0,0.0
33,8,28.0116,29.811,161.849,114.278,112.772,-0.00611354,0.0472713,21.0034,37.1929,0.118832,0.0,0.0
36,8.75,28.1936,29.6469,163.68,114.289,112.954,-0.00609375,0.0471595,21.0035,37.213,0.105296,0.0,0.0
39,9.5,28.3281,29.7362,158.003,114.278,111.842,-0.00608055,0.0470406,21.0035,37.1729,0.192965,0.0,0.0
42,10.25,28.4366,29.3408,162.582,114.28,112.306,-0.00607147,0.0469144,21.0029,37.213,0.156081,0.0,0.0
45,11,28.726,29.866,161.469,114.279,112.401,-0.00608296,0.0467808,21.0028,37.213,0.148375,0.0,0.0
48,11.75,28.4562,29.4221,161.071,114.287,112.13,-0.00609624,0.0466512,21.003,37.303,0.170623,0.0,0.0
51,12.5,28.3467,29.4284,160.548,114.296,111.761,-0.00616436,0.0465317,21.0031,37.303,0.200887,0.0,0.0
54,13.25,28.3936,29.1971,160.649,114.286,112.256,-0.00623513,0.0464308,21.0032,37.1629,0.160508,0.0,0.0
57,14,28.4626,29.3924,160.499,114.284,112.292,-0.0062918,0.0463751,21.0033,37.1229,0.157482,0.0,0.0
60,14.75,28.3071,29.5017,159.445,114.285,111.798,-0.0063264,0.046291,21.0034,37.263,0.197038,0.0,0.0
63,15.5,28.5638,29.9069,158.367,114.292,111.976,-0.00632307,0.0462078,21.0034,37.1529,0.183339,0.0,0.0
66,16.25,28.438,29.4956,162.658,114.303,112.147,-0.00629606,0.0461097,21.0035,37.1829,0.170584,0.0,0.0
69,17,28.0221,29.432,157.128,114.277,111.411,-0.00625513,0.0460106,21.0035,37.213,0.227512,0.0,0.0
72,17.75,28.183,29.5431,159.281,114.284,112.182,-0.00619342,0.0459192,21.0035,37.263,0.166303,0.0,0.0
75,18.5,27.9499,29.4396,161.595,114.302,111.674,-0.00614451,0.0458401,21.0035,37.283,0.208337,0.0,0.0
78,19.25,28.336,29.535,160.662,114.293,111.656,-0.00610215,0.0457627,21.0035,37.1729,0.209083,0.0,0.0
81,20,28.4883,29.657,157.048,114.276,112.092,-0.0060943,0.0456924,21.0035,37.213,0.172915,0.0,0.0
84,20.75,28.5725,29.5337,162.015,114.293,111.626,-0.00610687,0.0456353,21.0035,37.1629,0.211494,0.0,0.0
87,21.5,28.5485,29.3142,163.084,114.294,111.41,-0.00614732,0.0455936,21.0035,37.1629,0.228877,0.0,0.0
90,22.25,28.6123,29.6922,161.567,114.282,112.23,-0.00618464,0.0455771,21.0035,37.1929,0.162279,0.0,0.0
93,23,28.3351,29.7025,164.621,114.276,111.642,-0.00622527,0.045571,21.0041,37.0929,0.208942,0.0,0.0
96,23.75,28.6809,29.7848,161.22,114.276,111.219,-0.00623874,0.0455468,21.0044,37.1329,0.242845,0.0,0.0
99,24.5,27.8844,29.5682,158.768,114.282,111.884,-0.00623449,0.0455291,21.0047,37.1729,0.189928,0.0,0.0
102,25.25,28.1749,29.2146,161.324,114.271,111.43,-0.00621911,0.0455301,21.0049,37.1729,0.225507,0.0,0.0
105,26,28.5398,29.686,158.376,114.269,110.701,-0.00620789,0.0455221,21.0051,37.233,0.284136,0.0,0.0
108,26.75,28.6664,29.877,162.581,114.274,110.541,-0.00618377,0.0454914,21.0052,37.243,0.29746,0.0,0.0
111,27.5,28.6087,29.6676,160.265,114.272,110.057,-0.00614881,0.0454295,21.0053,37.213,0.336594,0.0,0.0
114,28.25,28.8857,29.9188,162.749,114.263,110.303,-0.00610742,0.0453844,21.0053,37.1929,0.315893,0.0,0.0
117,29,28.5218,30.0467,158.749,114.251,109.859,-0.00606272,0.0453317,21.0054,37.273,0.351093,0.0,0.0
120,29.75,28.7646,29.7812,158.339,114.25,110.995,-0.00601596,0.0453007,21.0054,37.1729,0.258896,0.0,0.0
123,30.5,28.788,29.9926,162.762,114.255,111.089,-0.00596574,0.0452904,21.0054,37.1629,0.251729,0.0,0.0
126,31.25,28.2553,29.4975,156.613,114.253,110.734,-0.00592225,0.045362,21.0054,37.1629,0.280226,0.0,0.0
129,32,28.5563,29.976,161.58,114.252,110.36,-0.00584981,0.0453865,21.0054,37.233,0.310427,0.0,0.0
132,32.75,28.8589,29.9582,158.996,114.244,110.279,-0.00578067,0.0453925,21.0055,37.0228,0.316407,0.0,0.0
135,33.5,28.6643,29.9742,161.38,114.248,110.175,-0.00570232,0.0453969,21.0055,37.1329,0.32512,0.0,0.0
138,34.25,28.7872,30.0534,166.126,114.247,110.667,-0.00558146,0.0453804,21.005,37.0428,0.285172,0.0,0.0
141,35,28.7769,29.9122,165.062,114.226,110.142,-0.00539776,0.0453683,21.0045,37.1129,0.326055,0.0,0.0
144,35.75,29.0245,29.7644,165.286,114.223,110.878,-0.00522308,0.046308,21.0011,37.1829,0.266275,0.0,0.0
147,36.5,28.7281,29.9611,162.637,114.222,108.835,-0.00472562,0.0488453,20.9867,37.0929,0.432785,0.0,0.0
150,37.25,28.6511,29.9445,156.468,114.212,110.43,-0.00415714,0.0538624,20.9713,37.0228,0.301699,0.0,1.0
153,38,28.0687,29.8282,157.521,114.216,99.612,-0.00339074,0.0673929,20.9363,37.0328,1.22541,0.0,1.0
156,38.75,28.5838,29.7671,149.868,114.198,88.5438,-0.0020833,0.0847524,20.8834,36.9027,2.27904,0.0,1.0
159,39.5,28.6785,30.331,149.552,114.195,77.0483,-0.00113017,0.110225,20.833,36.8727,3.52445,0.0,1.0
162,40.25,29.4429,30.4154,147.779,114.189,71.7415,0.000806172,0.150756,20.7667,36.8526,4.16323,0.0,1.0
165,41,29.789,31.4998,139.183,114.169,65.2601,0.00287846,0.1974,20.6914,36.8126,5.00975,0.0,1.0
168,41.75,30.9367,31.7533,146.426,114.171,65.4039,0.00467082,0.238693,20.6121,36.7425,4.99022,0.0,1.0
171,42.5,30.2901,31.5488,132.864,114.168,62.1665,0.006913,0.290439,20.5282,36.6725,5.44468,0.0,1.0
174,43.25,31.6276,33.1011,131.318,114.157,52.7001,0.00924774,0.345385,20.437,36.5524,6.92359,0.0,1.0
177,44,32.8391,34.3977,142.628,114.158,58.1845,0.0114059,0.399112,20.3626,36.3822,6.03685,0.0,1.0
180,44.75,33.5197,35.4226,132.618,114.137,53.5547,0.0131737,0.45068,20.3019,36.2721,6.77792,0.0,1.0
183,45.5,34.3641,36.6763,137.318,114.128,51.3124,0.0148481,0.492944,20.2466,36.2721,7.1603,0.0,1.0
186,46.25,35.4224,37.9695,132.403,114.139,52.1369,0.0167283,0.531742,20.1968,36.082,7.0184,0.0,1.0
189,47,36.386,39.0501,132.456,114.154,47.6421,0.018099,0.570501,20.1564,36.0219,7.82713,0.0,1.0
192,47.75,37.5237,39.6567,133.941,114.133,45.459,0.0200019,0.598756,20.1107,35.9518,8.24566,0.0,1.0
195,48.5,38.1682,40.9175,130.809,114.141,51.6055,0.0219193,0.63691,20.0635,35.8818,7.11034,0.0,1.0
198,49.25,39.4454,42.2288,129.893,114.127,48.9711,0.0235077,0.664725,20.0122,35.7316,7.57854,0.0,1.0
201,50,40.4926,43.5868,128.337,114.127,50.8375,0.0251753,0.700747,19.9564,35.7016,7.24355,0.0,1.0
204,50.75,41.4501,44.9572,125.211,114.117,46.1452,0.0267053,0.7323,19.8933,35.4514,8.11016,0.0,1.0
207,51.5,42.5125,46.113,122.789,114.099,45.5274,0.0283805,0.764355,19.8394,35.3513,8.22945,0.0,1.0
210,52.25,43.8137,47.6474,126.215,114.093,41.415,0.0299,0.797261,19.7967,35.1211,9.07699,0.0,1.0
213,53,44.7698,48.4279,131.345,114.104,45.7438,0.0315176,0.827527,19.7488,35.041,8.18742,0.0,1.0
216,53.75,46.4506,49.9315,122.823,114.069,42.0587,0.0330879,0.85987,19.7139,34.9309,8.937,0.0,1.0
219,54.5,47.0653,51.4558,122.633,114.061,38.9036,0.0349013,0.891968,19.6642,34.8308,9.63486,0.0,1.0
222,55.25,48.4863,53.1043,125.024,114.089,38.3806,0.0369822,0.924397,19.613,34.6307,9.75824,0.0,0.0
225,56,49.3437,54.4648,125.784,114.069,40.7445,0.0389828,0.954625,19.562,34.4405,9.22135,0.0,0.0
228,56.75,50.4469,55.7782,119.724,114.067,37.3896,0.0408504,0.987929,19.5123,34.4005,9.99081,0.0,0.0
231,57.5,52.2795,57.2172,120.278,114.052,31.6046,0.0425593,1.02276,19.4524,34.2103,11.4953,0.0,0.0
234,58.25,53.728,58.5709,118.007,114.066,35.2513,0.0440169,1.05729,19.3947,34.1102,10.5182,0.0,0.0
237,59,54.5365,60.5375,115.095,114.05,35.5847,0.0452501,1.09039,19.3407,34.0301,10.4326,0.0,0.0
240,59.75,55.8278,62.1252,126.428,114.038,39.0576,0.0462865,1.12457,19.2911,33.7799,9.59763,0.0,0.0
243,60.5,57.0081,63.2293,119.054,114.036,42.3644,0.0473129,1.15721,19.252,33.7099,8.86951,0.0,0.0
246,61.25,57.7056,64.5831,119.63,114.027,35.8969,0.0479184,1.18688,19.2284,33.4396,10.3527,0.0,0.0
249,62,60.2149,66.6849,113.899,114.037,31.8039,0.0490869,1.21304,19.2007,33.1694,11.4378,0.0,0.0
252,62.75,61.5353,68.5092,120.477,114.017,43.2046,0.0502294,1.23427,19.1803,33.0493,8.69212,0.0,0.0
255,63.5,62.7191,69.9817,122.151,114.001,36.9581,0.0515591,1.25346,19.1524,32.8891,10.0896,0.0,0.0
258,64.25,64.1373,72.0168,109.613,114.005,30.3269,0.0531449,1.26816,19.1117,32.769,11.8612,0.0,0.0
261,65,64.7975,72.4808,116.482,114.01,32.7427,0.0546261,1.29463,19.0712,32.6689,11.1751,0.0,0.0
264,65.75,65.8552,73.7605,106.346,113.995,28.4902,0.0559861,1.31939,19.0382,32.3687,12.4201,0.0,0.0
267,66.5,67.4892,75.4292,120.652,113.984,32.6946,0.0572198,1.34228,19.0029,32.2786,11.1862,0.0,0.0
270,67.25,68.6774,77.579,109.379,113.973,32.4398,0.0582941,1.36365,18.9771,32.2185,11.2555,0.0,0.0
273,68,70.0998,79.2126,114.818,113.979,35.6023,0.0593764,1.38371,18.9538,31.9483,10.4227,0.0,0.0
276,68.75,71.779,80.8852,113.96,113.974,29.7318,0.0601654,1.40582,18.9289,31.7781,12.0363,0.0,0.0
279,69.5,72.8724,82.3218,122.336,113.971,31.2592,0.0612227,1.4246,18.9056,31.638,11.5874,0.0,0.0
282,70.25,74.3328,83.7583,112.673,113.957,29.6351,0.0621872,1.44284,18.8844,31.5079,12.0641,0.0,0.0
285,71,75.3685,85.6517,116.303,113.945,28.523,0.0630779,1.45614,18.8653,31.1876,12.4058,0.0,0.0
288,71.75,77.0526,86.9612,114.811,113.952,27.6606,0.0639067,1.47654,18.8265,31.1276,12.6814,0.0,0.0
291,72.5,77.9926,88.4028,113.662,113.945,31.7554,0.0647942,1.49944,18.7855,30.8974,11.4443,0.0,0.0
294,73.25,79.1724,90.1091,106.682,113.947,32.824,0.0657957,1.52206,18.7503,30.6672,11.148,0.0,0.0
297,74,80.3678,91.4963,106.419,113.942,29.2268,0.0669253,1.54494,18.7146,30.467,12.1872,0.0,0.0
300,74.75,82.0958,93.2534,108.737,113.927,27.421,0.0681112,1.56758,18.6885,30.2368,12.7573,0.0,0.0
303,75.5,82.8991,94.8867,112.274,113.922,27.416,0.0695955,1.58965,18.6507,30.1167,12.7586,0.0,0.0
306,76.25,84.7217,96.7442,109.683,113.906,29.3198,0.0714456,1.61662,18.6121,29.8665,12.1559,0.0,0.0
309,77,85.3586,97.744,113.263,113.909,25.0312,0.0730599,1.64035,18.5793,29.7363,13.5727,0.0,0.0
312,77.75,87.1883,99.4318,108.862,113.903,27.7212,0.0746906,1.6646,18.5423,29.5261,12.658,0.0,0.0
315,78.5,88.5628,101.483,102.639,113.883,24.4282,0.0765813,1.68902,18.504,29.316,13.7891,0.0,0.0
318,79.25,89.5309,102.477,104.885,113.875,22.1267,0.0783186,1.7097,18.4678,29.1358,14.6748,0.0,0.0
321,80,91.043,104.236,112.381,113.851,24.8439,0.0799434,1.73185,18.4354,28.8756,13.6354,0.0,0.0
324,80.75,92.6991,106.298,101.614,113.859,27.2495,0.0814789,1.75037,18.4044,28.6954,12.8082,0.0,0.0
327,81.5,93.3171,107.74,100.97,113.856,25.8247,0.0828799,1.76795,18.3817,28.4652,13.289,0.0,0.0
330,82.25,94.6562,108.713,104.764,113.848,23.428,0.0843826,1.78761,18.3478,28.3051,14.1608,0.0,0.0
333,83,95.3458,110.36,108.92,113.835,21.7674,0.0861172,1.81255,18.3099,28.0048,14.8183,0.0,0.0
336,83.75,96.6811,111.961,106.338,113.844,24.7519,0.0878226,1.83685,18.2684,27.9047,13.6681,0.0,0.0
339,84.5,98.202,113.722,107.148,113.847,26.006,0.0892539,1.86501,18.224,27.6645,13.2256,0.0,0.0
342,85.25,99.8451,115.808,90.8819,113.84,23.4576,0.0907398,1.89905,18.1711,27.3843,14.1489,0.0,0.0
345,86,101.016,117.135,97.6659,113.816,27.3216,0.0919413,1.93402,18.1172,27.084,12.7811,0.0,0.0
348,86.75,102.423,118.813,98.8932,113.812,22.6701,0.0925593,1.96703,18.0877,26.9238,14.4525,0.0,0.0
351,87.5,104,120.823,105.481,113.803,24.3084,0.0932782,1.99662,18.0498,26.7537,13.8268,0.0,0.0
354,88.25,105.421,123.125,98.9192,113.79,22.862,0.0939054,2.02197,18.0222,26.4434,14.3753,0.0,0.0
357,89,106.483,124.532,104.543,113.773,26.4074,0.0945389,2.04531,17.9953,26.3333,13.0826,0.0,0.0
360,89.75,108.516,126.148,108.619,113.769,23.7373,0.0955255,2.06014,17.9655,26.0731,14.037,0.0,0.0
363,90.5,109.244,127.825,100.53,113.78,24.4892,0.0966998,2.08043,17.9396,25.8829,13.7586,0.0,0.0
366,91.25,110.928,129.581,98.391,113.762,23.7618,0.0977499,2.10063,17.915,25.6727,14.0273,0.0,0.0
369,92,111.477,130.457,103.557,113.768,22.8573,0.0992427,2.12183,17.8902,25.4525,14.3754,0.0,0.0
372,92.75,112.879,131.989,105.954,113.76,24.6608,0.100641,2.14005,17.8644,25.2223,13.6945,0.0,0.0
375,93.5,114.509,133.78,98.4269,113.769,23.1538,0.102237,2.16487,17.82,24.9821,14.26,0.0,0.0
378,94.25,116.186,135.63,96.5546,113.752,20.3413,0.103668,2.18297,17.7796,24.792,15.4187,0.0,0.0
381,95,117.452,137.206,104.745,113.775,22.3348,0.104825,2.21899,17.7363,24.5417,14.5831,0.0,0.0
384,95.75,118.339,139.257,88.3173,113.741,23.7595,0.106169,2.25307,17.6981,24.2114,14.0265,0.0,0.0
387,96.5,119.126,140.322,103.795,113.742,24.5207,0.107543,2.28425,17.6589,23.9912,13.7442,0.0,0.0
390,97.25,121.194,142.585,95.4608,113.737,21.1191,0.108853,2.31209,17.6241,23.761,15.0814,0.0,0.0
393,98,122.255,144.419,100.05,113.723,22.1512,0.11012,2.33522,17.5896,23.6109,14.6529,0.0,0.0
396,98.75,123.735,146.002,101.372,113.718,21.5561,0.111291,2.35691,17.5616,23.4207,14.8965,0.0,0.0
399,99.5,124.901,147.284,91.4765,113.717,21.6116,0.112339,2.3787,17.525,23.1905,14.8733,0.0,0.0
402,100.25,125.731,148.041,106.431,113.708,22.0805,0.113334,2.40104,17.4856,22.8302,14.6804,0.0,0.0
405,101,128.365,151.145,101.095,113.714,24.0758,0.114305,2.42403,17.449,22.4899,13.9059,0.0,0.0
408,101.75,129.123,152.547,91.7475,113.707,23.7031,0.115118,2.44806,17.4179,22.3298,14.0452,0.0,0.0
411,102.5,130.483,153.852,96.2447,113.711,20.449,0.116336,2.47042,17.3937,22.0695,15.3681,0.0,0.0
414,103.25,131.78,156.221,101.584,113.706,21.6125,0.117762,2.48973,17.3732,21.8393,14.8721,0.0,0.0
417,104,132.344,157.076,89.5981,113.69,20.3667,0.119263,2.50645,17.3533,21.5491,15.4026,0.0,0.0
420,104.75,133.711,158.913,93.3725,113.675,19.9963,0.120956,2.52013,17.3379,21.2688,15.5659,0.0,0.0
423,105.5,135.284,161.048,95.4654,113.684,23.0502,0.122377,2.53073,17.3251,21.0787,14.2935,0.0,0.0
426,106.25,136.972,162.612,83.1393,113.674,21.4215,0.123731,2.54118,17.312,20.8284,14.9491,0.0,0.0
429,107,137.294,163.354,94.0358,113.682,21.0224,0.125082,2.5488,17.3011,20.6683,15.1182,0.0,0.0
432,107.75,138.293,165.287,101.198,113.653,19.4312,0.126202,2.55436,17.289,20.358,15.8209,0.0,0.0
435,108.5,139.987,166.93,104.922,113.647,19.7526,0.127249,2.56149,17.2738,20.1078,15.6735,0.0,0.0
438,109.25,141.366,168.442,94.5052,113.66,19.1061,0.128218,2.5704,17.2628,19.8876,15.9726,0.0,0.0
441,110,142.366,169.538,97.8911,113.655,22.0287,0.129276,2.58326,17.2303,19.7075,14.6972,0.0,0.0
444,110.75,142.96,171.245,89.9973,113.659,18.6492,0.130312,2.60734,17.1993,19.4372,16.1893,0.0,0.0
447,111.5,144.108,172.691,102.078,113.641,21.6171,0.131198,2.62889,17.1725,19.0569,14.865,0.0,0.0
450,112.25,145.198,174.382,87.3266,113.641,20.5651,0.132164,2.65145,17.1433,18.8567,15.312,0.0,0.0
453,113,146.782,176.242,88.6135,113.639,18.1091,0.132616,2.66588,17.1292,18.6065,16.4509,0.0,0.0
456,113.75,148.025,177.866,97.2568,113.655,19.2717,0.133508,2.67554,17.113,18.3563,15.8949,0.0,0.0
459,114.5,148.524,179.309,90.1072,113.632,16.6738,0.134158,2.67984,17.0981,18.116,17.1901,0.0,0.0
462,115.25,149.643,179.723,89.4844,113.629,18.0217,0.135437,2.68717,17.0866,17.7958,16.4935,0.0,0.0
465,116,150.952,181.013,95.5554,113.634,18.8055,0.136369,2.69386,17.077,17.5055,16.1126,0.0,0.0
468,116.75,151.488,182.762,83.6911,113.626,18.781,0.137585,2.70612,17.0643,17.2052,16.1236,0.0,0.0
471,117.5,152.621,183.639,97.9796,113.605,19.4918,0.138838,2.71876,17.0451,17.0851,15.7893,0.0,0.0
474,118.25,154.372,185.461,87.5846,113.613,19.5704,0.139988,2.73429,17.027,16.7348,15.7538,0.0,0.0
477,119,154.578,186.428,93.3084,113.608,17.9329,0.140976,2.74739,17.0138,16.5747,16.5361,0.0,0.0
480,119.75,155.486,187.398,91.3658,113.6,17.6634,0.141644,2.75768,17.0042,16.2344,16.6712,0.0,0.0
483,120.5,157.043,189.376,89.7301,113.57,19.0391,0.142043,2.76587,16.9972,15.9641,15.997,0.0,0.0
486,121.25,157.673,190.053,92.2612,113.561,20.369,0.141984,2.76918,16.9986,15.7339,15.3914,0.0,0.0
489,122,158.251,192.093,95.5417,113.569,16.8934,0.141734,2.76788,17.0025,15.4437,17.0679,0.0,0.0
492,122.75,159.71,193.256,93.3946,113.558,18.1729,0.141465,2.76251,17.0053,15.1734,16.4131,0.0,0.0
495,123.5,160.213,193.666,87.5472,113.542,18.4976,0.141032,2.75713,17.0074,14.9132,16.2532,0.0,0.0
498,124.25,160.741,194.963,89.8065,113.536,20.3366,0.140671,2.75429,17.0089,14.6029,15.4037,0.0,0.0
501,125,161.833,195.953,93.5373,113.539,18.5817,0.140388,2.75514,17.005,14.4628,16.2124,0.0,0.0
504,125.75,162.038,196.373,86.5381,113.519,18.6682,0.140102,2.75828,17.0021,14.1826,16.1691,0.0,0.0
507,126.5,163.152,197.881,85.5924,113.513,20.0476,0.139802,2.76164,17,13.9724,15.5301,0.0,0.0
510,127.25,164.291,198.711,96.0401,113.511,16.5415,0.139426,2.76329,16.9985,13.562,17.2519,0.0,0.0
513,128,164.591,199.489,94.7922,113.5,18.0671,0.138746,2.76284,17.0016,13.3418,16.4609,0.0,0.0
516,128.75,165.319,200.366,90.846,113.475,20.5323,0.137931,2.76181,17.0099,13.0516,15.3132,0.0,0.0
519,129.5,166.16,201.593,85.1238,113.463,19.1348,0.1372,2.75621,17.023,12.8314,15.9436,0.0,0.0
522,130.25,167.028,202.705,94.4556,113.452,20.3917,0.136375,2.7499,17.0348,12.6412,15.3729,0.0,0.0
525,131,167.316,203.357,94.0777,113.458,20.3329,0.135032,2.74151,17.0474,12.451,15.3992,0.0,0.0
528,131.75,168.002,204.096,94.2083,113.456,19.4169,0.133644,2.72957,17.0666,12.1508,15.8119,0.0,0.0
531,132.5,168.333,204.494,96.2897,113.44,18.7057,0.132014,2.71168,17.0977,11.9005,16.1449,0.0,0.0
534,133.25,169.104,205.161,98.7444,113.423,18.8832,0.130261,2.69473,17.1426,11.6904,16.059,0.0,0.0
537,134,169.592,206.114,105.282,113.429,21.1723,0.128161,2.66529,17.2009,11.4401,15.0346,0.0,0.0
540,134.75,169.496,206.457,93.3557,113.424,18.9669,0.126103,2.63143,17.2535,11.1999,16.0195,0.0,0.0
543,135.5,170.279,207.162,101.472,113.419,22.6372,0.123947,2.59797,17.3032,11.0198,14.4346,0.0,0.0
546,136.25,170.06,206.818,93.7137,113.413,20.769,0.122649,2.56314,17.332,10.7896,15.2056,0.0,0.0
549,137,170.082,207.318,83.5255,113.436,19.557,0.119074,2.52797,17.3742,10.5093,15.746,0.0,0.0
552,137.75,170.452,207.318,97.7079,113.442,22.2326,0.116871,2.49098,17.4267,10.2891,14.5979,0.0,0.0
555,138.5,170.895,207.649,92.4985,113.442,23.4895,0.11427,2.45172,17.4666,10.0189,14.1053,0.0,0.0
558,139.25,170.856,208.22,104.934,113.437,23.9884,0.111265,2.41173,17.5294,10.0389,13.9167,0.0,0.0
561,140,170.564,207.515,101.056,113.46,24.5568,0.107409,2.35311,17.6108,9.64855,13.7088,0.0,0.0
564,140.75,170.599,206.898,108.253,113.459,27.0104,0.103298,2.30468,17.6951,9.40833,12.8556,0.0,0.0
567,141.5,170.56,206.983,102.423,113.468,28.5729,0.0991399,2.25821,17.7991,9.31825,12.3526,0.0,0.0
570,142.25,170.549,207.327,109.873,113.46,28.898,0.0950711,2.18449,17.9293,9.09806,12.2506,0.0,0.0
573,143,170.589,206.804,106.376,113.479,29.2925,0.0904654,2.11216,18.051,8.98796,12.1307,0.0,0.0
576,143.75,170.227,206.2,104.224,113.481,31.2966,0.0871078,2.04224,18.1511,8.75776,11.538,0.0,0.0
579,144.5,168.862,204.621,114.093,113.487,28.4018,0.0825743,1.96733,18.26,8.68769,12.4079,0.0,0.0
582,145.25,168.566,204.256,114.756,113.465,35.1052,0.0783428,1.89099,18.3729,8.4675,10.5082,0.0,0.0
585,146,168.296,203.877,111.683,113.485,33.2643,0.0744016,1.81562,18.4864,8.22729,10.9922,0.0,0.0
588,146.75,167.622,202.386,112.976,113.491,35.6615,0.0707392,1.73676,18.6098,8.09717,10.3694,0.0,0.0
591,147.5,166.597,200.983,112.589,113.49,29.8719,0.0670922,1.66908,18.717,8.05714,11.9561,0.0,0.0
594,148.25,165.305,199.958,118.045,113.496,31.8261,0.0635482,1.5868,18.8247,7.97706,11.389,0.0,0.0
597,149,164.675,198.174,120.081,113.516,33.8483,0.0601629,1.5096,18.9424,7.80691,10.8388,0.0,0.0
600,149.75,163.609,196.588,131.24,113.527,36.7746,0.0562721,1.4374,19.0563,7.74686,10.0969,0.0,0.0
603,150.5,162.418,195.817,113.958,113.542,41.7484,0.0534357,1.37007,19.1513,7.46661,8.9618,0.0,0.0
606,151.25,161.496,194.09,129.091,113.552,42.0879,0.0495295,1.28935,19.2373,7.53667,8.89009,0.0,0.0
609,152,160.502,192.824,127.207,113.56,44.2525,0.0455885,1.21176,19.3429,7.40656,8.44149,0.0,0.0
612,152.75,158.909,190.489,132.476,113.582,47.0442,0.0422494,1.14722,19.444,7.39655,7.89524,0.0,0.0
615,153.5,157.554,188.973,134.169,113.584,47.8317,0.0396692,1.07141,19.5197,7.2264,7.74669,0.0,0.0
618,154.25,155.943,187.46,135.463,113.59,51.3836,0.0358578,1.01615,19.6273,7.04624,7.10556,0.0,0.0
621,155,154.375,185.588,132.664,113.606,53.9232,0.0323549,0.942734,19.74,7.04624,6.67469,0.0,0.0
624,155.75,153.377,183.551,135.577,113.628,60.5424,0.0291677,0.873914,19.8641,7.01621,5.63934,0.0,0.0
627,156.5,151.432,181.096,137.876,113.639,63.1588,0.0260025,0.834167,19.9839,6.94615,5.26127,0.0,0.0
630,157.25,150.024,179.023,140.99,113.64,72.8698,0.0236951,0.763806,20.0838,6.95616,3.98026,0.0,0.0
633,158,148.417,177.689,149.089,113.65,86.886,0.0212248,0.687373,20.1846,6.94615,2.40526,0.0,0.0
636,158.75,146.719,174.7,151.378,113.655,94.5988,0.0193099,0.612685,20.2701,6.97618,1.64387,0.0,0.0
639,159.5,144.932,172.722,152.565,113.657,101.838,0.0177189,0.55015,20.3655,6.98619,0.983556,0.0,0.0
642,160.25,143.008,170.574,146.854,113.664,106.411,0.0164307,0.47964,20.4351,7.00621,0.590587,0.0,0.0
645,161,140.522,167.605,154.068,113.665,105.364,0.0154916,0.428239,20.5139,7.02622,0.6793,0.0,0.0
648,161.75,138.929,165.692,151.075,113.673,106.959,0.0147241,0.369534,20.5797,6.95616,0.545322,0.0,0.0
651,162.5,137.008,163.328,152.24,113.675,106.542,0.0141548,0.32008,20.6419,6.96617,0.580506,0.0,0.0
654,163.25,135.289,161.037,152.922,113.691,106.53,0.0137232,0.28119,20.6985,6.89611,0.582777,0.0,0.0
657,164,133.602,158.542,153.886,113.695,106.242,0.0134029,0.246256,20.7454,6.90612,0.607254,0.0,0.0
660,164.75,131.962,156.538,153.102,113.71,105.954,0.0131694,0.217982,20.7821,6.84606,0.632801,0.0,0.0
663,165.5,129.548,154.365,153.793,113.72,105.763,0.0130085,0.192301,20.8136,6.89611,0.649701,0.0,0.0
666,166.25,128.086,152.193,155.308,113.727,106.929,0.0128992,0.171366,20.84,7.04624,0.552026,0.0,0.0
669,167,126.464,150.19,154.043,113.744,106.707,0.0128146,0.155161,20.8616,6.89611,0.572088,0.0,0.0
672,167.75,124.953,148.192,154.591,113.754,106.775,0.0127386,0.140633,20.8805,6.80603,0.567125,0.0,0.0
675,168.5,123.673,146.913,154.697,113.769,106.783,0.0126249,0.129238,20.8952,6.87609,0.567574,0.0,0.0
678,169.25,120.735,143.409,153.015,113.781,107.745,0.0125004,0.119556,20.9075,6.84606,0.488254,0.0,0.0
681,170,120.336,142.469,152.074,113.799,107.441,0.0123385,0.11107,20.9184,6.81604,0.514955,0.0,0.0
684,170.75,119.191,140.964,153.069,113.813,106.795,0.0120967,0.10404,20.9267,6.82605,0.570086,0.0,0.0
687,171.5,116.316,137.775,153.734,113.852,106.227,0.0119205,0.0985548,20.9336,6.81604,0.620916,0.0,0.0
690,172.25,115.919,137.307,151.89,113.861,105.76,0.0115994,0.0934543,20.9395,6.90612,0.661089,0.0,0.0
693,173,114.15,135.892,153.651,113.877,107.091,0.0113144,0.0894188,20.9442,6.89611,0.550296,0.0,0.0
696,173.75,112.795,133.777,154.949,113.884,107.504,0.0110195,0.0859341,20.9488,6.84606,0.516379,0.0,0.0
699,174.5,111.625,131.769,152.55,113.909,108.036,0.0106725,0.0828477,20.9531,6.78601,0.474215,0.0,0.0
702,175.25,109.867,130.022,150.962,113.941,107.095,0.0103115,0.0803648,20.9568,6.81604,0.55502,0.0,0.0
705,176,109.12,129.282,150.641,113.944,105.767,0.00993956,0.0778963,20.9599,6.92613,0.666977,0.0,0.0
708,176.75,108.102,127.64,151.197,113.968,107.067,0.00956096,0.0759496,20.9634,6.95616,0.559525,0.0,0.0
711,177.5,106.53,125.74,154.518,113.987,107.547,0.00915693,0.0741245,20.966,6.82605,0.520974,0.0,0.0
714,178.25,105.497,124.291,156.637,114.02,107.405,0.00880782,0.0725299,20.9678,6.84606,0.535357,0.0,0.0
717,179,103.279,121.951,154.757,114.034,107.709,0.00830157,0.0710882,20.9701,6.86608,0.51109,0.0,0.0
720,179.75,102.689,120.809,154.757,114.08,107.669,0.00785352,0.0697934,20.9721,6.78601,0.51802,0.0,0.0
723,180.5,102.834,119.994,151.915,114.1,106.605,0.0073918,0.0686359,20.9742,6.85607,0.608569,0.0,0.0
726,181.25,101.047,118.928,156.611,114.129,107.692,0.00685285,0.0674341,20.9757,6.74597,0.520015,0.0,0.0
729,182,100.442,117.01,149.02,114.139,106.731,0.00633385,0.0665579,20.9768,6.75598,0.601074,0.0,0.0
732,182.75,98.8207,116.346,153.682,114.156,107.598,0.00590175,0.0655216,20.9776,6.78601,0.529968,0.0,0.0
735,183.5,97.8619,114.681,155.855,114.204,108.235,0.00539121,0.0645711,20.9782,6.91613,0.480842,0.0,0.0
738,184.25,96.5507,113.553,155.315,114.212,107.239,0.00501903,0.063707,20.9799,6.86608,0.564248,0.0,0.0
741,185,96.1667,111.848,151.95,114.219,106.887,0.00454928,0.0629267,20.9801,6.81604,0.594204,0.0,0.0
744,185.75,94.7594,110.202,152.732,114.234,107.211,0.00420682,0.0621791,20.9798,6.86608,0.568339,0.0,0.0
747,186.5,94.3281,109.8,151.541,114.264,107.661,0.00378099,0.0616342,20.9801,6.86608,0.533111,0.0,0.0
750,187.25,92.9913,108.429,149.066,114.267,107.068,0.0033625,0.0610698,20.9805,6.89611,0.582868,0.0,0.0
753,188,92.086,107.717,154.173,114.277,107.063,0.00293621,0.0605872,20.9807,6.86608,0.584104,0.0,0.0
756,188.75,91.5,105.991,155.4,114.278,106.947,0.00249695,0.0600171,20.9816,6.8861,0.593856,0.0,0.0
759,189.5,90.6412,105.064,154.326,114.299,107.98,0.00199163,0.0594771,20.9824,6.69593,0.509409,0.0,0.0
762,190.25,89.6155,104.051,150.327,114.299,106.765,0.00154474,0.0588706,20.9834,6.83605,0.610752,0.0,0.0
765,191,88.9159,102.808,154.32,114.299,107.257,0.00108469,0.0583033,20.9847,6.776,0.569568,0.0,0.0
768,191.75,87.4476,102.28,153.823,114.295,107.81,0.000607644,0.0577113,20.9857,6.82605,0.523165,0.0,0.0
771,192.5,86.9674,100.789,154.503,114.317,108.056,0.000259878,0.0572264,20.9865,6.79602,0.504558,0.0,0.0
774,193.25,86.0392,100.053,155.762,114.332,107.289,-0.000161876,0.0567738,20.987,6.84606,0.569484,0.0,0.0
777,194,84.6936,98.0573,155.229,114.319,107.258,-0.000509194,0.0563605,20.9874,6.83605,0.571077,0.0,0.0
780,194.75,83.6292,97.1116,155.219,114.316,107.815,-0.000830551,0.0560236,20.9883,6.75598,0.524403,0.0,0.0
783,195.5,83.7941,97.1704,155.698,114.32,107.408,-0.00116045,0.0556252,20.9889,6.82605,0.558608,0.0,0.0
786,196.25,83.3487,95.8233,156.125,114.324,108.099,-0.00146799,0.0552697,20.9894,6.79602,0.501471,0.0,0.0
789,197,82.8294,94.4999,154.977,114.308,107.499,-0.00174755,0.0548322,20.9897,6.6659,0.550094,0.0,0.0
792,197.75,81.6208,93.7109,153.016,114.298,107.777,-0.00199717,0.0544694,20.9913,6.70594,0.52619,0.0,0.0
795,198.5,80.855,93.0645,150.153,114.298,107.373,-0.0022226,0.0540788,20.9923,6.75598,0.559805,0.0,0.0
798,199.25,80.2448,92.2504,157.556,114.286,107.355,-0.00240546,0.0537066,20.9931,6.79602,0.560389,0.0,0.0
801,200,79.7124,91.1789,154.543,114.275,108.277,-0.00259544,0.0533381,20.9937,6.76599,0.482859,0.0,0.0
804,200.75,79.1591,90.5386,156.492,114.273,108.286,-0.00275027,0.0529842,20.9942,6.73597,0.481985,0.0,0.0
807,201.5,78.2345,89.6993,151.853,114.237,107.964,-0.00289107,0.0526512,20.9945,6.83605,0.505843,0.0,0.0
810,202.25,77.9653,88.7428,158.298,114.222,107.099,-0.0030309,0.0523392,20.9947,6.82605,0.576769,0.0,0.0
813,203,77.5415,88.0737,156.443,114.214,107.697,-0.00315147,0.0520821,20.9951,6.84606,0.526238,0.0,0.0
816,203.75,76.8275,87.5112,152.345,114.184,107.781,-0.0032473,0.0517561,20.9958,6.84606,0.516914,0.0,0.0
819,204.5,76.0286,86.1185,156.39,114.143,107.679,-0.00335435,0.0514893,20.9963,6.74597,0.522199,0.0,0.0
822,205.25,75.5607,85.8906,153.176,114.136,108.047,-0.00346218,0.0512011,20.9966,6.75598,0.491079,0.0,0.0
825,206,74.653,84.5447,153.575,114.115,107.939,-0.0035535,0.0509161,20.9969,6.75598,0.498354,0.0,0.0
828,206.75,73.6991,83.7787,151.745,114.077,108.283,-0.00367594,0.0506292,20.9971,6.81604,0.466892,0.0,0.0
831,207.5,73.5756,83.7305,153.964,114.053,107.869,-0.00378901,0.0504346,20.9972,6.76599,0.499345,0.0,0.0
834,208.25,73.4656,83.1725,157.975,114.033,107.365,-0.00395463,0.0503177,20.9973,6.6659,0.53971,0.0,0.0
837,209,72.6875,81.9488,152.532,114.014,107.598,-0.00413958,0.0501909,20.9973,6.72596,0.518808,0.0,0.0
840,209.75,72.6679,81.4346,157.901,113.979,108.29,-0.00432357,0.0500807,20.9973,6.86608,0.458593,0.0,0.0
843,210.5,72.0255,80.7037,148.06,113.939,107.997,-0.00451792,0.0499347,20.9973,6.80603,0.479768,0.0,0.0
846,211.25,71.3384,80.4108,152.878,113.914,107.843,-0.00467595,0.049716,20.9973,6.83605,0.490587,0.0,0.0
849,212,70.8658,79.6886,156.794,113.903,108.132,-0.00481914,0.0494872,20.9979,6.776,0.465726,0.0,0.0
852,212.75,70.3007,79.3565,156.644,113.875,107.882,-0.00494478,0.0492836,20.9985,6.90612,0.484327,0.0,0.0
855,213.5,69.7592,78.1827,154.618,113.83,107.097,-0.00503767,0.0491227,20.9994,6.79602,0.546091,0.0,0.0
858,214.25,69.619,77.6625,159.657,113.821,108.144,-0.00510763,0.0489868,21.0001,6.73597,0.458288,0.0,0.0
861,215,69.3361,77.3034,156.709,113.806,107.327,-0.00515862,0.0488877,21.0008,6.6659,0.525037,0.0,0.0
864,215.75,68.5329,76.4958,156.689,113.879,105.208,-0.00519449,0.0488154,21.0013,6.62587,0.709419,0.0,0.0
867,216.5,67.9373,76.0455,153.493,113.974,108.745,-0.00521841,0.048743,21.0017,6.69593,0.420701,0.0,0.0
870,217.25,67.7839,74.8598,157.923,114.06,108.789,-0.00522876,0.0486683,21.002,6.83605,0.423774,0.0,0.0
873,218,66.9598,75.0288,153.806,114.146,108.002,-0.00522568,0.0485765,21.0022,6.76599,0.495535,0.0,0.0
876,218.75,66.4976,74.0697,153.081,114.228,108.96,-0.00521971,0.0484107,21.0021,6.776,0.422882,0.0,0.0
879,219.5,65.806,73.6205,155.747,114.27,107.828,-0.00521377,0.0482344,21.0017,6.79602,0.519749,0.0,0.0
882,220.25,65.7169,73.2984,156.732,114.317,108.086,-0.00522185,0.0480895,21.0016,6.75598,0.502066,0.0,0.0
885,221,65.5886,72.9855,153.053,114.372,107.206,-0.00523304,0.0480182,21.0019,6.81604,0.579493,0.0,0.0
888,221.75,65.5855,72.0175,154.391,114.438,109.15,-0.00525529,0.0480037,21.0021,6.71595,0.423791,0.0,0.0
891,222.5,64.8224,71.5101,153.573,114.469,108.987,-0.00526779,0.0479515,21.0022,6.63588,0.439628,0.0,0.0
894,223.25,65.0875,71.0682,154.365,114.495,108.154,-0.00526943,0.0478958,21.0021,6.79602,0.510288,0.0,0.0
897,224,64.3024,70.5096,155.028,114.523,108.453,-0.00526057,0.0478156,21.0021,6.776,0.487754,0.0,0.0
900,224.75,63.7043,69.5118,155.22,114.547,109.21,-0.00524703,0.0477713,21.002,6.65589,0.427364,0.0,0.0
903,225.5,63.3686,69.6999,154.235,114.553,107.68,-0.00523585,0.0477633,21.002,6.79602,0.554235,0.0,0.0
906,226.25,62.7906,69.0024,154.75,114.543,108.899,-0.00522547,0.0477376,21.002,6.79602,0.452594,0.0,0.0
909,227,62.6048,68.6496,151.616,114.563,108.763,-0.00523031,0.0476358,21.002,6.73597,0.465405,0.0,0.0
912,227.75,62.1749,67.6056,154.351,114.528,107.512,-0.00525155,0.0475115,21.0019,6.69593,0.566296,0.0,0.0
915,228.5,62.2751,67.603,154.045,114.493,108.096,-0.00528827,0.047396,21.0019,6.75598,0.515005,0.0,0.0
918,229.25,61.8344,67.1657,154.086,114.447,108.423,-0.00534235,0.0473118,21.0019,6.76599,0.484384,0.0,0.0
921,230,61.2526,66.9236,152.713,114.397,108.736,-0.00539342,0.0472504,21.0019,6.73597,0.454616,0.0,0.0
924,230.75,61.1244,66.7706,154.913,114.354,109.392,-0.00543326,0.0472195,21.0016,6.84606,0.397369,0.0,0.0
927,231.5,60.9043,66.0711,153.581,114.271,108.121,-0.00546677,0.0471883,21.0009,6.67591,0.495539,0.0,0.0
930,232.25,60.3354,65.8639,152.606,114.165,108.46,-0.00548944,0.0471406,21.0004,6.68592,0.459198,0.0,0.0
933,233,59.5313,64.0752,155.362,114.068,108.049,-0.00550352,0.0471059,21.0001,6.74597,0.485566,0.0,0.0
936,233.75,59.0143,63.8774,151.081,113.965,107.815,-0.00551276,0.047041,21,6.75598,0.496849,0.0,0.0
939,234.5,59.6919,64.561,152.842,113.853,107.979,-0.00552073,0.0469799,20.9999,6.75598,0.474489,0.0,0.0
942,235.25,59.1046,63.6237,154.68,113.705,106.756,-0.00552707,0.0469225,20.9999,6.72596,0.564861,0.0,0.0
945,236,58.959,64.1345,157.467,113.674,107.807,-0.00556003,0.046869,20.9999,6.70594,0.474652,0.0,0.0
948,236.75,58.8124,63.2174,153.978,113.684,107.347,-0.00560366,0.0468372,20.9999,6.73597,0.513743,0.0,0.0
951,237.5,57.9745,62.2006,154.121,113.703,106.907,-0.00567813,0.0468266,20.9998,6.79602,0.552032,0.0,0.0
954,238.25,58.0239,62.2596,152.7,113.748,107.494,-0.00574807,0.0468188,20.9998,6.82605,0.506522,0.0,0.0
957,239,57.7827,62.3039,155.627,113.763,107.24,-0.0058026,0.0468131,20.9998,6.67591,0.52885,0.0,0.0
960,239.75,57.9083,61.99,151.742,113.812,107.118,-0.00582993,0.0468485,20.9998,6.64589,0.542982,0.0,0.0
963,240.5,57.3437,61.8641,152.26,113.852,107.578,-0.00584457,0.046902,20.9998,6.6659,0.507774,0.0,0.0
966,241.25,56.5845,60.8788,155.959,113.904,107.799,-0.00583413,0.0469164,21,6.67591,0.493423,0.0,0.0
969,242,57.0273,61.0678,155.332,113.96,108.929,-0.00581752,0.0468645,21.0006,6.74597,0.404368,0.0,0.0
972,242.75,56.4168,60.4935,157.124,114.02,107.855,-0.00579117,0.0467674,21.001,6.6659,0.497911,0.0,0.0
975,243.5,56.4236,60.653,157.281,114.114,108.137,-0.00577569,0.0467243,21.0012,6.79602,0.481869,0.0,0.0
978,244.25,55.776,60.5387,157.534,114.123,107.993,-0.00577318,0.0467047,21.0012,6.67591,0.49453,0.0,0.0
981,245,56.3766,59.9288,156.956,114.172,108.406,-0.00578364,0.0466509,21.0012,6.70594,0.464185,0.0,0.0
984,245.75,56.1815,59.9382,158.365,114.229,108.907,-0.00582491,0.0466113,21.0012,6.70594,0.427404,0.0,0.0
987,246.5,55.8739,59.715,158.163,114.276,108.568,-0.00586872,0.0465817,21.0012,6.71595,0.458942,0.0,0.0
990,247.25,55.1789,59.1872,155.882,114.31,108.52,-0.00592412,0.0465601,21.0012,6.81604,0.465565,0.0,0.0
993,248,54.558,58.9363,158.073,114.349,108.332,-0.00597105,0.0465582,21.0012,6.776,0.484211,0.0,0.0
996,248.75,54.8469,58.3206,155.323,114.38,107.977,-0.00601643,0.0465627,21.0012,6.67591,0.516055,0.0,0.0
999,249.5,55.0257,57.8093,159.297,114.424,108.634,-0.00604951,0.0465858,21.0012,6.79602,0.465175,0.0,0.0
1002,250.25,55.0262,57.8097,157.233,114.441,109.006,-0.00606618,0.0465734,21.0012,6.68592,0.435822,0.0,0.0
1005,251,54.4906,57.7457,156.595,114.428,109.538,-0.00606731,0.0465146,21.0012,6.73597,0.391236,0.0,0.0
1008,251.75,53.4807,57.248,151.667,114.451,109.14,-0.00605473,0.0464578,21.0012,6.86608,0.425545,0.0,0.0
1011,252.5,53.7903,57.4908,155.005,114.46,107.482,-0.00602431,0.0464032,21.0012,6.6659,0.563424,0.0,0.0
1014,253.25,53.3326,56.8117,154.842,114.452,109.431,-0.00600213,0.046351,21.0012,6.76599,0.401817,0.0,0.0
1017,254,53.5875,56.3406,158.52,114.425,108.712,-0.00594996,0.0463524,21.0012,6.70594,0.458733,0.0,0.0
1020,254.75,53.0141,56.2833,154.903,114.42,108.875,-0.00589657,0.0463396,21.0012,6.71595,0.444963,0.0,0.0
1023,255.5,52.8379,55.6465,153.4,114.396,108.927,-0.00583286,0.0463243,21.0012,6.59584,0.438823,0.0,0.0
1026,256.25,53.4803,55.786,152.721,114.36,108.462,-0.00577773,0.0463059,21.0012,6.70594,0.474358,0.0,0.0
1029,257,52.8215,55.2281,151.451,114.312,109.633,-0.00573383,0.0462801,21.0012,6.76599,0.374383,0.0,0.0
1032,257.75,52.3093,55.2675,157.677,114.298,109.007,-0.00568766,0.0462612,21.0012,6.63588,0.424541,0.0,0.0
1035,258.5,52.5183,55.2066,152.577,114.199,107.716,-0.00564655,0.0462474,21.0012,6.65589,0.523554,0.0,0.0
1038,259.25,52.0629,54.4321,157.666,114.144,108.081,-0.00561472,0.0461781,21.0012,6.71595,0.48887,0.0,0.0
1041,260,51.8278,54.7926,158.062,114.067,108.402,-0.00559375,0.0461276,21.0012,6.73597,0.456254,0.0,0.0
1044,260.75,51.3955,54.5275,153.519,113.978,108.574,-0.00558377,0.0460835,21.0012,6.76599,0.435101,0.0,0.0
1047,261.5,51.8373,54.3085,155.106,113.891,108.287,-0.0055765,0.0460389,21.0012,6.776,0.45194,0.0,0.0
1050,262.25,51.4769,53.6273,156.337,113.793,107.211,-0.00557828,0.0460064,21.0012,6.76599,0.533731,0.0,0.0
1053,263,51.383,53.4494,158.013,113.709,107.954,-0.00557958,0.0459827,21.0012,6.58583,0.465225,0.0,0.0
1056,263.75,51.3381,53.5727,156.746,113.594,108.86,-0.00558052,0.0459654,21.0012,6.60585,0.381248,0.0,0.0
1059,264.5,50.823,53.1511,155.006,113.49,108.497,-0.00558306,0.0459528,21.0012,6.78601,0.403035,0.0,0.0
1062,265.25,51.1326,53.5428,154.703,113.39,108.332,-0.0055998,0.0459436,21.0013,6.81604,0.408685,0.0,0.0
1065,266,50.1478,52.7555,154.247,113.274,106.806,-0.00562882,0.0459171,21.0015,6.67591,0.526721,0.0,0.0
1068,266.75,50.6619,52.5345,156.402,113.141,106.899,-0.00566785,0.0459394,21.0017,6.63588,0.508352,0.0,0.0
1071,267.5,50.575,52.7339,157.336,113.048,108.283,-0.00570747,0.0459665,21.0018,6.69593,0.385707,0.0,0.0
1074,268.25,50.3703,52.5368,155.368,112.928,105.604,-0.00574113,0.0459745,21.0019,6.63588,0.600653,0.0,0.0
1077,269,49.5009,51.1114,155.528,112.803,106.639,-0.00574828,0.0459606,21.002,6.68592,0.503364,0.0,0.0
1080,269.75,49.3958,51.3443,155.945,112.695,106.222,,0.0459796,,6.75598,0.529829,0.0,0.0
1083,270.5,49.6207,51.4739,155.757,112.57,107.441,,0.0460433,,6.76599,0.417743,0.0,0.0
1086,271.25,49.8978,51.6429,157.374,112.476,107.44,,0.0460678,,6.80603,0.410329,0.0,0.0
1089,272,49.9668,51.275,155.134,112.371,107.245,,0.0460484,,6.68592,0.418174,0.0,0.0
1092,272.75,49.5513,50.5837,158.768,112.265,106.974,,,,6.56581,0.432429,0.0,0.0
1095,273.5,48.9074,50.5511,158.394,112.183,106.678,,,,6.6659,0.450671,0.0,0.0
1098,274.25,49.5109,50.7013,156.116,112.128,107.039,,,,6.63588,0.416076,0.0,0.0
1101,275,49.424,50.8404,154.147,112.052,106.991,,,,6.67591,0.413969,0.0,0.0
1104,275.75,49.1512,50.6062,150.049,111.983,106.863,,,,6.84606,0.419167,0.0,0.0
1107,276.5,49.1582,50.5143,157.743,111.94,106.636,,,,6.62587,0.434793,0.0,0.0
1110,277.25,47.8837,49.1546,157.211,111.911,106.413,,,,6.86608,0.451276,0.0,0.0
1113,278,48.5748,50.2077,157.062,111.89,107.01,,,,6.72596,0.399431,0.0,0.0
1116,278.75,48.2242,49.8559,156.057,111.877,105.444,,,,6.60585,0.530446,0.0,0.0
1119,279.5,48.6863,49.5139,157.136,111.873,106.707,,,,6.64589,0.423503,0.0,0.0
1121,280,47.5453,49.3395,157.728,111.912,106.849,,,,6.73597,0.414759,0.0,0.0