File: 01_Data/PlasticC/Cone/PlasticC_Cone_HF75Scan_220218_R3.csv
Names,Time,Stack TC,Smoke TC,Exh Press,Smoke Comp,Smoke Meas,CO Meter,CO2 Meter,O2 Meter,Sample Mass,Ext Coeff,Start Test,Flame Verif
Chan Gain,,500,500,1,1,1,1,1,1,1,1,1.0,1.0
Offset,,0,0,0.132436,0,0,0,0,0,0,0,0.0,0.0
Gain,,1,1,25.011,15.4219,15.1528,1,1,1,1.00089,1.02113,1.0,1.0
Units,sec,C,C,Pa,%,%,%,%,%,g,/m,,
Baseline,,43.5019,43.469,155.927,113.597,109.736,-0.00631315,0.0412945,21.0065,-483.47,0.309911,,
2,0.25,40.2918,39.9905,157.471,115.518,112.079,-0.00639539,0.0470986,21.0001,25.5226,0.270667,0.0,0.0
4,0.75,38.8472,39.0486,158.326,115.544,112.293,-0.00639002,0.0467922,21.0003,25.6827,0.255615,0.0,0.0
6,1.25,38.6677,39.1571,156.588,115.546,111.393,-0.00639567,0.0464163,21.0005,24.812,0.327868,0.0,0.0
8,1.75,38.8248,39.4363,152.609,115.57,111.486,-0.00640613,0.0463014,21.001,25.8129,0.322221,0.0,0.0
10,2.25,38.7535,39.1935,154.225,115.599,111.164,-0.0064199,0.0461049,21.0014,25.0422,0.350452,0.0,0.0
12,2.75,39.1365,39.211,159.817,115.588,112.12,-0.00643105,0.0459385,21.0017,25.4125,0.272851,0.0,0.0
14,3.25,38.8965,38.9457,159.416,115.613,112.494,-0.00644008,0.0457971,21.002,25.6727,0.244946,0.0,0.0
16,3.75,38.6707,38.7558,160.158,115.635,112.647,-0.00644864,0.0456826,21.0022,25.5226,0.234516,0.0,0.0
18,4.25,38.8006,38.9945,160.098,115.649,112.738,-0.00645557,0.0455534,21.0024,25.6928,0.228333,0.0,0.0
20,4.75,38.9156,39.0752,156.752,115.658,112.131,-0.00644872,0.0454159,21.0024,25.3625,0.277433,0.0,0.0
22,5.25,38.8065,38.9706,155.363,115.662,112.455,-0.00643701,0.0453046,21.0028,25.6327,0.251831,0.0,0.0
24,5.75,38.6125,39.424,150.52,115.669,111.542,-0.00641773,0.0451489,21.0033,25.6527,0.325456,0.0,0.0
26,6.25,38.5905,38.9561,160.387,115.689,110.796,-0.00639329,0.0449637,21.0039,25.3024,0.387123,0.0,0.0
28,6.75,38.994,39.4057,150.532,115.689,110.717,-0.00635859,0.0448137,21.0046,24.9421,0.393481,0.0,0.0
30,7.25,38.5448,38.7492,159.448,115.702,111.984,-0.00633048,0.0446508,21.0052,25.1423,0.292577,0.0,0.0
32,7.75,38.9041,38.8981,154.619,115.713,111.73,-0.00630027,0.0445813,21.0057,26.0431,0.313707,0.0,0.0
34,8.25,38.8028,39.0788,158.903,115.711,112.057,-0.00627579,0.044426,21.0061,25.1222,0.287426,0.0,0.0
36,8.75,38.4777,38.9208,160.289,115.728,111.705,-0.00624355,0.0442675,21.0064,25.4025,0.316949,0.0,0.0
38,9.25,38.7092,38.8166,155.68,115.742,112.433,-0.00621744,0.0440284,21.0067,26.0431,0.259829,0.0,0.0
40,9.75,38.5378,39.4343,155.938,115.75,111.844,-0.00619628,0.0438348,21.0069,25.5026,0.307543,0.0,0.0
42,10.25,38.709,38.8045,154.877,115.758,110.863,-0.00617719,0.0435811,21.007,24.6719,0.387022,0.0,0.0
44,10.75,38.7757,39.3814,156.063,115.768,110.681,-0.00615996,0.0433756,21.0072,25.7328,0.402519,0.0,0.0
46,11.25,38.8846,39.0159,158.865,115.77,112.055,-0.0061447,0.0431677,21.0073,25.8129,0.292164,0.0,0.0
48,11.75,39.3697,39.0699,154.102,115.786,111.493,-0.00613116,0.0429992,21.0074,25.6127,0.338428,0.0,0.0
50,12.25,39.055,39.3756,162.177,115.785,110.786,-0.00611169,0.0429065,21.0074,25.7228,0.395376,0.0,0.0
52,12.75,38.9976,39.0111,152.5,115.79,109.59,-0.00608828,0.0428707,21.0066,25.7128,0.492952,0.0,0.0
54,13.25,39.2105,39.1255,159.075,115.8,111.587,-0.00604907,0.0428416,21.0059,24.7619,0.332018,0.0,0.0
56,13.75,38.8069,39.2768,150.688,115.796,109.908,-0.00602275,0.0430075,21.005,25.2424,0.467497,0.0,0.0
58,14.25,38.5489,38.9025,153.047,115.812,112.005,-0.00597775,0.0433122,21.0033,25.3324,0.299397,0.0,0.0
60,14.75,38.6719,39.0941,159.99,115.821,111.847,-0.00582211,0.0439528,21.0019,25.7528,0.312746,0.0,0.0
62,15.25,39.3992,39.2292,158.855,115.823,112.386,-0.00569604,0.0448259,20.9991,25.3525,0.269851,0.0,0.0
64,15.75,39.2596,39.3103,158.8,115.823,110.964,-0.00531705,0.0455331,20.9933,25.3224,0.383906,0.0,0.0
66,16.25,38.9661,39.8326,157.427,115.836,111.47,-0.00501006,0.0484399,20.9855,25.2724,0.344143,0.0,1.0
68,16.75,39.0683,39.3457,153.89,115.832,111.334,-0.00476141,0.0496792,20.9792,25.6027,0.354784,0.0,1.0
70,17.25,38.8889,39.4363,157.643,115.853,110.74,-0.0038349,0.059281,20.9649,25.5726,0.404319,0.0,1.0
72,17.75,39.318,39.4597,158.474,115.842,101.765,-0.00308444,0.0670585,20.9449,25.0622,1.16048,0.0,1.0
74,18.25,38.9183,39.3584,150.318,115.864,83.446,-0.00179579,0.0820222,20.9101,25.0522,2.93995,0.0,1.0
76,18.75,39.5675,38.8366,144.246,115.882,69.5945,-0.000751988,0.10194,20.865,25.6928,4.56721,0.0,1.0
78,19.25,38.925,39.6647,138.632,115.877,61.6384,0.000520084,0.13023,20.8285,25.2323,5.65418,0.0,1.0
80,19.75,39.3693,39.5899,128.762,115.885,56.5757,0.00193439,0.164084,20.7643,25.2323,6.42251,0.0,1.0
82,20.25,39.5839,39.8672,131.765,115.878,57.1838,0.00307999,0.191506,20.7122,25.2323,6.32617,0.0,1.0
84,20.75,39.818,40.2412,136.011,115.886,58.7357,0.00578727,0.226741,20.6148,24.892,6.08694,0.0,1.0
86,21.25,40.1463,40.5723,139.154,115.897,52.7528,0.00752557,0.267002,20.5539,25.1823,7.05013,0.0,1.0
88,21.75,40.3906,41.4476,130.264,115.892,51.6874,0.0084346,0.307416,20.5189,25.3324,7.23245,0.0,1.0
90,22.25,41.1599,41.8756,136.452,115.9,53.0701,0.00998904,0.347173,20.4591,25.1122,6.99661,0.0,1.0
92,22.75,41.7051,42.5186,135.386,115.884,54.0638,0.0120122,0.379376,20.4107,24.1114,6.8292,0.0,1.0
94,23.25,42.5597,43.3504,135.485,115.907,53.3059,0.013651,0.418282,20.3601,24.2715,6.95744,0.0,1.0
96,23.75,42.75,44.0247,136.512,115.904,50.455,0.0149784,0.46323,20.309,24.5017,7.44959,0.0,1.0
98,24.25,43.1872,44.4051,126.742,115.921,44.0939,0.0160536,0.502084,20.2675,24.4617,8.65795,0.0,1.0
100,24.75,43.6536,44.7641,126.445,115.906,40.7431,0.0183954,0.518648,20.2216,24.5117,9.36475,0.0,0.0
102,25.25,44.4026,46.1042,134.35,115.94,43.8326,0.0202922,0.555365,20.1733,24.3916,8.71264,0.0,0.0
104,25.75,45.0416,46.7779,128.401,115.913,41.2055,0.0225137,0.592657,20.1198,24.5317,9.2642,0.0,0.0
106,26.25,45.8688,47.6766,123.421,115.935,37.9477,0.0243132,0.622864,20.0636,24.4416,10.0036,0.0,0.0
108,26.75,46.4881,48.1959,118.97,115.924,39.1348,0.0265133,0.660869,20.0054,24.2815,9.72685,0.0,0.0
110,27.25,47.223,49.3766,119.837,115.931,40.1688,0.0282955,0.703838,19.9468,23.1005,9.49381,0.0,0.0
112,27.75,47.7748,50.1582,122.872,115.926,40.099,0.0302013,0.738642,19.8993,23.0704,9.50903,0.0,0.0
114,28.25,48.9473,51.3288,126.608,115.94,41.4312,0.0321612,0.779959,19.834,22.2297,9.21732,0.0,0.0
116,28.75,49.5808,52.1163,122.861,115.924,37.3688,0.034272,0.813426,19.7812,23.0704,10.1405,0.0,0.0
118,29.25,50.4336,52.9633,125.542,115.936,38.2664,0.0364529,0.854906,19.7045,24.0113,9.9288,0.0,0.0
120,29.75,51.3856,53.7664,119.393,115.943,30.7043,0.0382194,0.888505,19.6424,24.0113,11.9015,0.0,0.0
122,30.25,51.7753,55.22,118.635,115.94,29.2143,0.0405219,0.928646,19.573,23.8111,12.3468,0.0,0.0
124,30.75,52.5335,56.04,112.595,115.932,32.935,0.0423868,0.972792,19.4994,23.2005,11.2724,0.0,0.0
126,31.25,53.3234,57.4233,112.162,115.939,32.2807,0.0438975,1.01939,19.4398,23.0304,11.4527,0.0,0.0
128,31.75,54.4998,58.1602,109.974,115.929,32.4412,0.0460582,1.06688,19.3789,23.2005,11.4075,0.0,0.0
130,32.25,55.5074,59.669,113.834,115.941,30.4708,0.0478083,1.11159,19.318,22.9403,11.9697,0.0,0.0
132,32.75,56.8124,61.1672,109.991,115.924,29.502,0.0497622,1.15342,19.2625,23.2206,12.2578,0.0,0.0
134,33.25,58.0896,62.3936,116.259,115.943,28.6913,0.0513449,1.18731,19.2119,22.8202,12.5088,0.0,0.0
136,33.75,58.6033,63.3736,123.638,115.925,24.6423,0.0529431,1.21977,19.171,22.7201,13.8701,0.0,0.0
138,34.25,59.9031,65.1749,111.023,115.94,28.4462,0.0545221,1.25059,19.1263,22.58,12.5854,0.0,0.0
140,34.75,60.8487,66.6281,120.815,115.916,25.6786,0.0563422,1.27555,19.0902,22.3298,13.5004,0.0,0.0
142,35.25,62.1285,67.5024,115.936,115.937,25.3554,0.0578164,1.30527,19.0407,22.0495,13.6155,0.0,0.0
144,35.75,62.7596,68.9116,112.989,115.921,24.0023,0.0593404,1.32934,19.0007,21.7893,14.1055,0.0,0.0
146,36.25,63.5978,69.69,115.494,115.93,23.0613,0.0608718,1.35333,18.9563,22.0395,14.4645,0.0,0.0
148,36.75,64.0284,71.5325,110.555,115.905,27.0909,0.06248,1.37681,18.9204,21.9294,13.02,0.0,0.0
150,37.25,65.8135,72.1173,112.237,115.912,24.8675,0.0641137,1.40036,18.8747,21.2889,13.7876,0.0,0.0
152,37.75,67.0434,74.2056,122.447,115.908,23.4534,0.0654369,1.4235,18.8376,21.7393,14.3117,0.0,0.0
154,38.25,67.1227,74.5236,111.57,115.902,20.4143,0.066881,1.44815,18.8076,21.2989,15.5543,0.0,0.0
156,38.75,68.2602,76.2397,108.744,115.899,21.7822,0.0683858,1.47341,18.7652,21.0987,14.9732,0.0,0.0
158,39.25,69.5375,77.59,102.383,115.903,24.671,0.0698231,1.49938,18.7309,20.8385,13.858,0.0,0.0
160,39.75,70.724,78.5153,111.699,115.898,22.9253,0.0711839,1.52536,18.6917,20.9486,14.5149,0.0,0.0
162,40.25,71.7509,80.0616,109.97,115.898,22.2997,0.0722862,1.54641,18.66,20.7684,14.7628,0.0,0.0
164,40.75,72.5485,81.2512,113.211,115.882,26.3066,0.0736412,1.57211,18.6268,20.8284,13.2814,0.0,0.0
166,41.25,73.5579,82.496,108.975,115.879,27.5464,0.0748836,1.59294,18.5999,21.1587,12.8687,0.0,0.0
168,41.75,74.7713,83.9026,104.743,115.888,22.2543,0.0760205,1.61452,18.5686,20.5382,14.7803,0.0,0.0
170,42.25,75.7551,85.0097,103.468,115.862,20.1138,0.0769414,1.63624,18.5348,20.5182,15.6841,0.0,0.0
172,42.75,76.3123,86.0038,110.943,115.857,25.1843,0.0779853,1.65685,18.5072,20.318,13.67,0.0,0.0
174,43.25,77.8039,88.0752,110.905,115.843,22.271,0.078831,1.67625,18.4845,20.0978,14.77,0.0,0.0
176,43.75,78.6649,88.7307,114.043,115.844,23.219,0.079938,1.69196,18.4639,20.4881,14.3968,0.0,0.0
178,44.25,79.7977,90.0131,103.845,115.833,24.3043,0.0808347,1.70588,18.4451,19.5773,13.9867,0.0,0.0
180,44.75,80.9679,91.7835,111.397,115.839,29.5926,0.081561,1.71716,18.4299,18.8167,12.2238,0.0,0.0
182,45.25,81.3776,92.6623,106.531,115.823,28.0328,0.0831234,1.72834,18.4118,19.6474,12.7075,0.0,0.0
184,45.75,82.8243,93.9928,110.914,115.839,23.2671,0.0843889,1.73923,18.392,18.9568,14.3778,0.0,0.0
186,46.25,83.4177,94.9323,110.818,115.808,23.1454,0.08628,1.75651,18.3759,19.8176,14.4224,0.0,0.0
188,46.75,84.1269,95.8092,100.927,115.819,23.76,0.0878117,1.7781,18.3441,18.9868,14.1885,0.0,0.0
190,47.25,85.045,97.2697,88.8432,115.795,18.0985,0.0890525,1.80896,18.3015,18.9468,16.6246,0.0,0.0
192,47.75,85.7102,98.4173,106.881,115.792,18.2446,0.0914702,1.84599,18.2509,18.8067,16.5523,0.0,0.0
194,48.25,87.2628,99.8267,95.0456,115.783,18.6867,0.0934285,1.87599,18.1954,18.6866,16.3372,0.0,0.0
196,48.75,88.5473,101.265,93.1069,115.78,20.0069,0.0958565,1.9253,18.1504,18.7166,15.7255,0.0,0.0
198,49.25,89.3696,102.438,105.052,115.767,21.6166,0.0978232,1.96524,18.0801,18.1961,15.0313,0.0,0.0
200,49.75,91.1011,104.511,98.9772,115.772,20.5202,0.0997251,1.99759,18.0232,17.4455,15.4979,0.0,0.0
202,50.25,92.2885,105.919,94.3083,115.75,17.4044,0.101544,2.04154,17.9612,17.8158,16.9713,0.0,0.0
204,50.75,93.3857,107.423,98.0681,115.776,18.4444,0.103017,2.07714,17.911,17.6556,16.4535,0.0,0.0
206,51.25,94.6314,108.828,98.5849,115.73,18.5743,0.10467,2.10825,17.8672,17.9259,16.3871,0.0,0.0
208,51.75,95.6525,110.43,101.314,115.728,17.6814,0.106009,2.13549,17.8287,17.6857,16.8282,0.0,0.0
210,52.25,96.6366,112.785,96.2897,115.716,16.9794,0.107093,2.15999,17.7975,17.3754,17.1902,0.0,0.0
212,52.75,98.0664,113.839,96.9858,115.724,18.0092,0.108135,2.18204,17.7665,16.965,16.6634,0.0,0.0
214,53.25,99.0412,115.151,98.9474,115.698,17.0895,0.108978,2.20351,17.7362,16.8749,17.1309,0.0,0.0
216,53.75,100.106,116.38,99.7405,115.7,16.769,0.109589,2.22414,17.7063,16.7248,17.3006,0.0,0.0
218,54.25,100.898,117.486,96.6698,115.692,17.9279,0.110083,2.24085,17.6773,16.1043,16.7015,0.0,0.0
220,54.75,101.688,118.955,98.8337,115.68,21.9431,0.110476,2.25775,17.6524,15.3436,14.8903,0.0,0.0
222,55.25,103.005,120.509,105.876,115.657,22.9452,0.110786,2.27448,17.631,15.6839,14.4885,0.0,0.0
224,55.75,104.198,121.91,97.2201,115.662,20.6062,0.111204,2.28803,17.6095,15.3136,15.4519,0.0,0.0
226,56.25,105.246,123.212,101.517,115.631,18.7112,0.111543,2.30167,17.5883,16.0042,16.3137,0.0,0.0
228,56.75,105.86,124.775,99.007,115.653,19.1302,0.112284,2.31513,17.5633,15.5838,16.117,0.0,0.0
230,57.25,107.281,125.775,103.385,115.607,19.5311,0.112884,2.32933,17.536,14.3227,15.9277,0.0,0.0
232,57.75,108.091,126.883,103.797,115.626,21.8086,0.11412,2.3438,17.5045,14.5429,14.9412,0.0,0.0
234,58.25,108.753,128.133,89.0119,115.59,17.1954,0.115122,2.36096,17.4708,14.3127,17.0672,0.0,0.0
236,58.75,109.803,129.461,96.1134,115.598,19.0973,0.115934,2.37977,17.4434,15.3836,16.1281,0.0,0.0
238,59.25,111.096,130.491,98.9612,115.578,18.5147,0.117838,2.40119,17.4132,14.0625,16.4041,0.0,0.0
240,59.75,112.047,131.761,96.2745,115.579,19.6994,0.11865,2.42412,17.3964,13.602,15.8486,0.0,0.0
242,60.25,112.429,132.917,99.9878,115.554,15.286,0.120496,2.44818,17.3678,14.5129,18.1187,0.0,0.0
244,60.75,113.534,134.689,91.2574,115.563,14.0166,0.122405,2.47262,17.3305,13.1516,18.8959,0.0,0.0
246,61.25,114.534,135.253,100.259,115.539,15.895,0.124495,2.49784,17.3004,13.502,17.7676,0.0,0.0
248,61.75,115.526,136.173,102.116,115.551,17.126,0.126679,2.52314,17.2636,13.1817,17.1004,0.0,0.0
250,62.25,116.32,137.55,98.1742,115.534,21.581,0.128971,2.54363,17.2338,12.391,15.028,0.0,0.0
252,62.75,116.955,138.299,97.2224,115.534,17.2042,0.131298,2.55763,17.1939,12.5912,17.0583,0.0,0.0
254,63.25,117.672,139.967,102.533,115.519,18.7718,0.133183,2.58157,17.1615,12.1107,16.2761,0.0,0.0
256,63.75,118.818,141.171,95.3196,115.518,16.2368,0.136267,2.61091,17.1112,12.9315,17.5754,0.0,0.0
258,64.25,119.604,141.651,95.7333,115.508,12.4518,0.138766,2.64362,17.0489,12.5011,19.952,0.0,0.0
260,64.75,120.29,143.032,95.4005,115.497,14.8791,0.142307,2.68998,16.9675,12.6612,18.356,0.0,0.0
262,65.25,121.717,144.271,83.9384,115.479,13.4386,0.145176,2.74542,16.874,12.0507,19.2666,0.0,0.0
264,65.75,122.402,145.371,82.463,115.472,12.7334,0.148422,2.79033,16.7982,12.1808,19.7489,0.0,0.0
266,66.25,123.306,146.554,93.1763,115.468,17.2879,0.151882,2.86387,16.6919,12.0006,17.0097,0.0,0.0
268,66.75,124.37,148.446,97.7735,115.456,12.9207,0.154684,2.92344,16.6058,12.2108,19.6169,0.0,0.0
270,67.25,125.999,150.376,80.8708,115.44,13.4183,0.158181,2.9994,16.5195,11.6203,19.2772,0.0,0.0
272,67.75,127.138,151.947,86.6038,115.441,11.8997,0.161013,3.06093,16.4345,10.7595,20.3531,0.0,0.0
274,68.25,128.381,153.548,84.3239,115.433,13.0923,0.162653,3.11854,16.3937,10.8896,19.4969,0.0,0.0
276,68.75,129.922,156.06,88.0318,115.429,12.5138,0.165457,3.1722,16.3238,10.0089,19.9014,0.0,0.0
278,69.25,131.512,158.166,86.6946,115.406,13.6338,0.168233,3.21566,16.2672,10.7295,19.1318,0.0,0.0
280,69.75,132.732,159.465,94.7006,115.398,13.9709,0.170483,3.26127,16.2214,10.0789,18.9125,0.0,0.0
282,70.25,133.983,161.744,86.3748,115.388,13.108,0.172305,3.29821,16.1649,10.3792,19.4827,0.0,0.0
284,70.75,135.148,163.102,85.1719,115.385,14.4906,0.174128,3.33278,16.1192,10.0289,18.5843,0.0,0.0
286,71.25,136.297,164.589,85.3978,115.374,14.9087,0.175917,3.34751,16.0853,9.24819,18.3286,0.0,0.0
288,71.75,137.573,166.765,97.295,115.388,15.0451,0.177742,3.37487,16.0579,9.39832,18.2481,0.0,0.0
290,72.25,138.252,167.916,94.6998,115.355,12.3464,0.179559,3.39897,16.0229,9.29823,20.0163,0.0,0.0
292,72.75,139.705,169.982,89.3187,115.354,12.6798,0.181031,3.41849,15.9945,8.81781,19.7776,0.0,0.0
294,73.25,140.514,171.104,84.6559,115.34,11.36,0.183133,3.44401,15.9716,9.51843,20.7609,0.0,0.0
296,73.75,141.855,172.606,84.0636,115.339,13.0936,0.185655,3.47342,15.9288,8.73774,19.4887,0.0,0.0
298,74.25,142.613,174.142,92.0887,115.319,14.7325,0.188552,3.50389,15.8941,8.36741,18.4309,0.0,0.0
300,74.75,143.533,176.1,93.9625,115.321,12.3792,0.191666,3.53456,15.8387,8.68769,19.9899,0.0,0.0
302,75.25,145.278,177.743,88.1692,115.314,10.4051,0.194986,3.55941,15.7938,8.2473,21.5454,0.0,0.0
304,75.75,146.43,179.33,81.805,115.303,11.754,0.198391,3.60193,15.7288,8.03712,20.4527,0.0,0.0
306,76.25,147.25,180.792,94.6998,115.301,11.4118,0.203227,3.63637,15.6429,7.15634,20.7172,0.0,0.0
308,76.75,148.753,182.785,79.432,115.295,13.6629,0.204669,3.67413,15.6129,7.84695,19.1041,0.0,0.0
310,77.25,149.53,184.249,82.7103,115.29,11.0599,0.207297,3.7136,15.5616,6.4357,20.9969,0.0,0.0
312,77.75,151.013,186.14,91.6147,115.279,14.8273,0.209571,3.74556,15.5201,7.09628,18.3703,0.0,0.0
314,78.25,151.786,188.002,80.1823,115.269,12.7547,0.211313,3.77955,15.4864,6.84606,19.7182,0.0,0.0
316,78.75,153.383,190.153,80.4243,115.249,10.1304,0.212634,3.80708,15.4592,6.98619,21.78,0.0,0.0
318,79.25,154.753,191.848,87.7013,115.253,12.1438,0.213703,3.83607,15.4371,5.92525,20.1566,0.0,0.0
320,79.75,156.532,194.112,94.5945,115.232,15.2083,0.2143,3.84387,15.4252,5.80514,18.1394,0.0,0.0
322,80.25,157.616,195.808,79.0977,115.243,12.4943,0.21454,3.84928,15.421,6.22551,19.9009,0.0,0.0
324,80.75,158.213,196.94,86.561,115.231,13.7919,0.21458,3.84894,15.4177,5.49487,19.015,0.0,0.0
326,81.25,159.429,198.191,85.4283,115.242,14.8166,0.214474,3.8444,15.4149,5.4248,18.3738,0.0,0.0
328,81.75,160.191,199.982,90.8392,115.221,11.9288,0.214207,3.84072,15.4127,3.89345,20.3141,0.0,0.0
330,82.25,160.719,200.991,86.0847,115.229,13.2601,0.213827,3.83866,15.414,4.50399,19.367,0.0,0.0
332,82.75,162.188,202.226,88.0234,115.206,11.1792,0.213205,3.83699,15.415,4.70417,20.8943,0.0,0.0
334,83.25,163.314,203.81,84.046,115.206,11.4964,0.21242,3.83809,15.4207,4.31382,20.6437,0.0,0.0
336,83.75,163.962,205.136,84.6139,115.188,11.2231,0.211784,3.84118,15.4297,4.34385,20.8577,0.0,0.0
338,84.25,164.834,205.908,96.1966,115.198,14.2636,0.210561,3.83931,15.4403,3.43304,18.7112,0.0,0.0
340,84.75,166.136,207.542,87.7685,115.193,12.7602,0.20957,3.83385,15.4517,3.45306,19.7084,0.0,0.0
342,85.25,166.401,208.531,83.6407,115.198,12.1618,0.208216,3.82943,15.4814,3.17281,20.139,0.0,0.0
344,85.75,167.47,209.61,92.4405,115.188,13.9884,0.20712,3.80456,15.5238,2.97263,18.8848,0.0,0.0
346,86.25,168.57,211.046,86.2381,115.189,15.2324,0.206232,3.78441,15.5581,2.97263,18.1218,0.0,0.0
348,86.75,169.334,212.311,96.3187,115.169,14.2594,0.204596,3.74847,15.5996,2.75244,18.7115,0.0,0.0
350,87.25,169.967,212.95,95.8966,115.197,15.0113,0.20327,3.71936,15.6332,2.75244,18.2534,0.0,0.0
352,87.75,170.788,213.96,86.1916,115.16,13.2139,0.201181,3.68893,15.6635,2.18193,19.3929,0.0,0.0
354,88.25,171.147,214.615,89.5805,115.159,11.3679,0.20029,3.66428,15.6764,2.0318,20.7407,0.0,0.0
356,88.75,171.691,215.16,92.252,115.162,12.6664,0.197527,3.63851,15.7103,2.10186,19.7721,0.0,0.0
358,89.25,172.38,216.103,92.6764,115.168,17.9894,0.195288,3.61242,15.7484,2.24199,16.6301,0.0,0.0
360,89.75,173.06,216.916,87.6639,115.146,16.3852,0.192241,3.59128,15.7999,1.70151,17.465,0.0,0.0
362,90.25,173.894,218.088,90.2713,115.142,13.4608,0.189773,3.55263,15.8601,0.300266,19.2257,0.0,0.0
364,90.75,174.172,218.701,92.5749,115.149,12.7071,0.186648,3.52133,15.9224,0.840745,19.7424,0.0,0.0
366,91.25,174.469,219.041,98.1307,115.143,18.025,0.184117,3.49784,15.9849,0.430381,16.6105,0.0,0.0
368,91.75,174.919,219.723,93.9869,115.127,14.7034,0.181226,3.45769,16.0356,-1.07095,18.4337,0.0,0.0
370,92.25,175.683,220.052,98.5666,115.153,15.5857,0.178884,3.40987,16.0766,-0.0600532,17.9137,0.0,0.0
372,92.75,175.684,220.211,98.8734,115.132,19.1593,0.176986,3.37114,16.1098,0.420372,16.0629,0.0,0.0
374,93.25,176.623,220.715,97.8056,115.133,16.3704,0.17545,3.334,16.1367,0.390346,17.4721,0.0,0.0
376,93.75,176.575,221.347,95.7631,115.116,13.871,0.173722,3.30391,16.1617,0.390346,18.9548,0.0,0.0
378,94.25,176.074,220.851,91.2857,115.135,13.9195,0.171889,3.28656,16.1847,-0.300266,18.925,0.0,0.0
380,94.75,176.772,221.124,91.8772,115.115,14.0657,0.170099,3.2725,16.2033,-0.950842,18.8298,0.0,0.0
382,95.25,176.849,222.031,93.9686,115.124,12.0398,0.168375,3.26112,16.2277,-0.580514,20.2236,0.0,0.0
384,95.75,177.123,222.133,91.7001,115.12,11.0506,0.166978,3.25152,16.2474,-0.35031,20.9912,0.0,0.0
386,96.25,177.882,222.832,93.3771,115.122,12.3713,0.165025,3.2434,16.2634,-0.97086,19.9801,0.0,0.0
388,96.75,178.136,222.979,92.7054,115.109,16.1202,0.16291,3.23682,16.2763,-1.42126,17.6082,0.0,0.0
390,97.25,178.861,223.928,100.266,115.141,22.4231,0.160716,3.21564,16.3339,-1.00089,14.6547,0.0,0.0
392,97.75,179.323,224.312,97.5835,115.118,16.5859,0.15822,3.18421,16.3806,-1.43127,17.3538,0.0,0.0
394,98.25,179.796,224.851,97.1186,115.136,13.3267,0.155551,3.15875,16.4598,-1.50133,19.3149,0.0,0.0
396,98.75,179.36,224.553,99.139,115.117,13.8585,0.152582,3.1156,16.524,-1.8016,18.963,0.0,0.0
398,99.25,180.119,224.998,101.367,115.126,15.1949,0.149451,3.08064,16.6266,-2.13189,18.139,0.0,0.0
400,99.75,180.086,225.487,94.5914,115.108,18.0236,0.146914,3.02223,16.7098,-2.77246,16.6084,0.0,0.0
402,100.25,180.32,225.612,95.254,115.115,19.8308,0.143545,2.97492,16.7771,-2.50222,15.7531,0.0,0.0
404,100.75,180.293,225.529,106.256,115.107,19.9917,0.139632,2.9032,16.8713,-2.81249,15.68,0.0,0.0
406,101.25,180.229,225.288,106.65,115.115,14.5017,0.135442,2.8451,16.9476,-3.02268,18.5564,0.0,0.0
408,101.75,179.669,225.017,109.308,115.109,22.3186,0.131131,2.77253,17.046,-2.62232,14.694,0.0,0.0
410,102.25,179.751,224.853,99.1299,115.111,22.0504,0.126624,2.71374,17.1257,-3.10275,14.8025,0.0,0.0
412,102.75,179.732,224.27,103.152,115.107,23.9154,0.12206,2.64794,17.2387,-3.98353,14.0749,0.0,0.0
414,103.25,179.337,223.865,114.687,115.119,26.8647,0.11739,2.57828,17.3302,-3.70328,13.0341,0.0,0.0
416,103.75,179.481,223.92,110.732,115.102,19.2791,0.112732,2.49814,17.4466,-3.57316,16.0048,0.0,0.0
418,104.25,179.23,223.393,109.243,115.115,27.2717,0.10896,2.41187,17.5788,-3.10275,12.8991,0.0,0.0
420,104.75,178.427,222.114,119.766,115.112,28.2247,0.104751,2.34199,17.7154,-3.86342,12.5912,0.0,0.0
422,105.25,178.036,222.101,117.925,115.112,28.6303,0.100306,2.24438,17.8525,-3.32294,12.4635,0.0,0.0
424,105.75,177.293,221.029,118.296,115.109,27.692,0.0959469,2.16532,17.9858,-3.79336,12.7617,0.0,0.0
426,106.25,177.034,219.716,116.665,115.115,26.8092,0.091733,2.06738,18.1138,-4.12365,13.0523,0.0,0.0
428,106.75,175.69,218.702,121.139,115.11,30.0906,0.0883198,1.98805,18.2175,-3.51311,12.0177,0.0,0.0
430,107.25,175.106,217.541,117.394,115.134,26.9304,0.0837282,1.89282,18.3212,-3.51311,13.0134,0.0,0.0
432,107.75,174.937,216.687,120.693,115.113,26.4865,0.0800089,1.81569,18.423,-3.89345,13.1607,0.0,0.0
434,108.25,173.411,214.925,113.642,115.121,29.194,0.0755686,1.74118,18.5239,-4.03357,12.2895,0.0,0.0
436,108.75,173.368,214.163,118.08,115.125,31.6712,0.071972,1.66999,18.6224,-4.18371,11.5603,0.0,0.0
438,109.25,171.819,213.169,117.924,115.147,29.5602,0.067546,1.61234,18.7223,-4.21373,12.1798,0.0,0.0
440,109.75,171.755,212.293,117.48,115.121,38.5114,0.063961,1.53965,18.8214,-4.44394,9.80842,0.0,0.0
442,110.25,170.805,210.633,120.32,115.133,37.3655,0.0601392,1.48078,18.9017,-4.25377,10.0799,0.0,0.0
444,110.75,169.95,209.673,124.392,115.122,43.4529,0.0562175,1.41621,19.0266,-4.10363,8.72714,0.0,0.0
446,111.25,169.71,208.941,128.995,115.144,50.9581,0.0521469,1.34872,19.1278,-4.43393,7.30174,0.0,0.0
448,111.75,168.873,207.775,127.42,115.125,49.8007,0.048045,1.279,19.2592,-4.75421,7.50611,0.0,0.0
450,112.25,167.363,206.317,133.33,115.137,61.1505,0.0440052,1.20899,19.3655,-4.25377,5.66802,0.0,0.0
452,112.75,166.627,204.531,132.449,115.126,66.738,0.0400875,1.13519,19.5015,-4.38388,4.88399,0.0,0.0
454,113.25,165.74,204.02,133.73,115.136,79.8821,0.0369142,1.06005,19.6116,-4.05359,3.27446,0.0,0.0
456,113.75,164.904,202.631,139.89,115.122,87.779,0.0335961,0.999177,19.7008,-4.48397,2.42892,0.0,0.0
458,114.25,163.083,200.91,140.276,115.142,93.1579,0.0302356,0.918938,19.8184,-5.32472,1.8978,0.0,0.0
460,114.75,161.879,198.89,145.76,115.145,98.4624,0.0275136,0.853945,19.9137,-5.0845,1.40194,0.0,0.0
462,115.25,161.585,198.309,142.823,115.157,102.117,0.0244884,0.777002,19.9909,-4.55403,1.07642,0.0,0.0
464,115.75,160.068,195.609,147.833,115.143,104.337,0.022038,0.714679,20.0534,-4.27379,0.882784,0.0,0.0
466,116.25,159.008,193.788,145.652,115.159,105.505,0.0200532,0.652803,20.1384,-4.58406,0.784267,0.0,0.0
468,116.75,157.244,192.22,147.821,115.186,105.121,0.018146,0.592427,20.2072,-4.4039,0.818962,0.0,0.0
470,117.25,155.398,189.958,146.17,115.172,105.948,0.0163317,0.543522,20.2822,-4.37387,0.747762,0.0,0.0
472,117.75,153.968,188.114,146.486,115.155,106.463,0.014714,0.488128,20.3428,-4.28379,0.702997,0.0,0.0
474,118.25,152.568,186.017,143.763,115.177,106.412,0.0132703,0.443259,20.4131,-4.11364,0.709038,0.0,0.0
476,118.75,151.785,184.918,148.008,115.175,106.639,0.0121009,0.406915,20.4701,-4.54402,0.689724,0.0,0.0
478,119.25,150.26,183.32,146.887,115.179,106.999,0.010951,0.371347,20.5321,-5.07449,0.659885,0.0,0.0
480,119.75,148.783,181.088,147.176,115.21,106.151,0.0100196,0.337021,20.5822,-4.49398,0.733504,0.0,0.0
482,120.25,147.712,179.749,148.477,115.192,106.533,0.0091271,0.306623,20.6326,-4.43393,0.69998,0.0,0.0
484,120.75,146.725,177.886,148.442,115.189,106.203,0.00840421,0.279668,20.6734,-4.71418,0.727564,0.0,0.0
486,121.25,145.385,176.29,146.965,115.195,106.362,0.00773294,0.256032,20.7064,-4.27379,0.714595,0.0,0.0
488,121.75,144.232,175.029,146.213,115.185,106.522,0.00711205,0.235265,20.738,-4.94438,0.700401,0.0,0.0
490,122.25,143.411,173.293,149.504,115.201,106.72,0.00655239,0.218443,20.7636,-4.97441,0.684904,0.0,0.0
492,122.75,141.938,171.766,149.805,115.199,107.486,0.00604801,0.202031,20.7878,-4.73419,0.620752,0.0,0.0
494,123.25,140.932,170.468,152.097,115.209,106.627,0.00560018,0.188737,20.8075,-4.49398,0.693405,0.0,0.0
496,123.75,139.517,168.588,146.89,115.216,106.035,0.00520208,0.176768,20.826,-4.24376,0.743818,0.0,0.0
498,124.25,138.614,167.782,145.012,115.219,107.244,0.00485236,0.165994,20.8411,-4.92436,0.642463,0.0,0.0
500,124.75,138.235,166.562,145.857,115.222,106.813,0.00454456,0.156148,20.8551,-5.16457,0.678828,0.0,0.0
502,125.25,136.298,165.062,149.383,115.22,106.24,0.00429524,0.147167,20.8681,-4.67414,0.726745,0.0,0.0
504,125.75,135.585,163.264,149.021,115.224,107.348,0.00407736,0.13922,20.8787,-5.36475,0.634183,0.0,0.0
506,126.25,134.219,162.325,147.66,115.219,106.64,0.00388653,0.132177,20.889,-5.4148,0.693087,0.0,0.0
508,126.75,133.446,161.126,150.319,115.214,107.482,0.00373395,0.125892,20.8973,-4.58406,0.622231,0.0,0.0
510,127.25,132.363,159.028,145.292,115.21,106.463,0.00361215,0.120277,20.9054,-5.11453,0.707241,0.0,0.0
512,127.75,131.554,158.058,151.297,115.213,107.816,0.00351349,0.11573,20.912,-4.57405,0.594302,0.0,0.0
514,128.25,131.151,156.379,153.102,115.221,107.993,0.00341593,0.110917,20.918,-4.82427,0.580297,0.0,0.0
516,128.75,129.441,155.594,150.479,115.223,106.964,0.0033369,0.107019,20.9234,-4.30381,0.666193,0.0,0.0
518,129.25,128.892,154.234,147.723,115.221,107.408,0.00324769,0.103357,20.9279,-4.55403,0.628912,0.0,0.0
520,129.75,127.169,152.729,147.292,115.229,107.226,0.00315275,0.0999371,20.9328,-4.35386,0.644775,0.0,0.0
522,130.25,126.732,151.773,147.465,115.224,107.108,0.00302687,0.0971672,20.9368,-4.70417,0.654191,0.0,0.0
524,130.75,125.685,150.957,149.069,115.225,106.964,0.00288083,0.0939962,20.9409,-4.75421,0.666338,0.0,0.0
526,131.25,125.135,149.685,148.138,115.221,107.409,0.00270774,0.0914277,20.9442,-4.44394,0.628872,0.0,0.0
528,131.75,124.279,147.883,150.695,115.213,107.582,0.00251823,0.0889559,20.9482,-5.07449,0.613801,0.0,0.0
530,132.25,123.337,147.251,146.786,115.244,106.945,0.00231009,0.0866017,20.9515,-5.06449,0.669427,0.0,0.0
532,132.75,122.13,145.895,151.54,115.235,107.277,0.00209232,0.0843189,20.955,-4.75421,0.640968,0.0,0.0
534,133.25,121.643,144.628,148.122,115.213,107.786,0.00195221,0.0821316,20.9565,-4.2938,0.596837,0.0,0.0
536,133.75,120.845,144.096,147.294,115.219,107.604,0.00171261,0.0801022,20.9608,-5.16457,0.612467,0.0,0.0
538,134.25,120.272,142.45,148.769,115.199,108.067,0.00151854,0.0782266,20.9619,-5.0845,0.572517,0.0,0.0
540,134.75,119.234,141.259,147.845,115.213,107.184,0.00130829,0.0764941,20.9639,-4.69416,0.647086,0.0,0.0
542,135.25,118.55,140.9,151.273,115.209,107.224,0.00109025,0.0748989,20.966,-6.05536,0.643433,0.0,0.0
544,135.75,117.779,139.824,153.898,115.228,107.855,0.00091364,0.073423,20.9676,-4.44394,0.592321,0.0,0.0
546,136.25,116.202,137.887,150.059,115.212,108.302,0.000713426,0.0727069,20.9692,-5.27467,0.553943,0.0,0.0
548,136.75,115.233,136.66,149.799,115.213,107.197,0.000551253,0.0714822,20.9706,-4.35386,0.645967,0.0,0.0
550,137.25,115.583,135.77,151.844,115.216,108.229,0.000388853,0.0700578,20.9722,-4.27379,0.560354,0.0,0.0
552,137.75,114.664,135.217,149.408,115.231,106.901,0.000257309,0.0689041,20.9737,-4.44394,0.672157,0.0,0.0
554,138.25,113.961,134.541,147.109,115.233,107.611,0.000117235,0.0679696,20.9749,-4.49398,0.612987,0.0,0.0
556,138.75,112.389,133.213,148.143,115.244,107.979,3.77476e-06,0.0667814,20.9764,-4.27379,0.583241,0.0,0.0
558,139.25,112.242,132.083,147.554,115.236,108.352,-8.8128e-05,0.0658191,20.978,-4.514,0.551753,0.0,0.0
560,139.75,112.067,131.45,151.169,115.25,106.532,-0.000239549,0.0646636,20.9792,-4.46395,0.70452,0.0,0.0
562,140.25,110.241,129.861,148.656,115.236,106.828,-0.0003622,0.0637276,20.9797,-4.66413,0.678611,0.0,0.0
564,140.75,109.843,128.939,147.415,115.26,108.036,-0.00051742,0.0628157,20.9801,-4.15368,0.57973,0.0,0.0
566,141.25,109.047,128.325,147.623,115.248,106.48,-0.000643148,0.0619387,20.9804,-4.38388,0.708768,0.0,0.0
568,141.75,108.582,127.764,147.996,115.275,107.963,-0.000744988,0.0612282,20.9806,-4.50399,0.586959,0.0,0.0
570,142.25,108.293,126.617,151.348,115.233,107.52,-0.000901975,0.0604405,20.9813,-4.47396,0.62061,0.0,0.0
572,142.75,107.216,125.791,151.494,115.25,107.629,-0.00102914,0.0596115,20.9822,-5.39478,0.612804,0.0,0.0
574,143.25,106.993,124.952,147.638,115.238,106.518,-0.00118056,0.0587937,20.983,-4.50399,0.70477,0.0,0.0
576,143.75,106.429,124.735,148.41,115.261,107.755,-0.00130321,0.0579996,20.9836,-4.70417,0.603218,0.0,0.0
578,144.25,105.223,123.485,148.151,115.248,107.169,-0.00142608,0.0572322,20.9846,-4.66413,0.650991,0.0,0.0
580,144.75,104.343,122.244,151.042,115.265,106.956,-0.00154678,0.0564987,20.9858,-4.39389,0.670143,0.0,0.0
582,145.25,104.29,121.982,148.401,115.262,107.63,-0.00166023,0.0559045,20.9867,-5.20461,0.613638,0.0,0.0
584,145.75,103.505,120.98,150.781,115.264,107.648,-0.00176624,0.0552012,20.9875,-4.76422,0.612359,0.0,0.0
586,146.25,103.084,120.308,147.051,115.258,108.483,-0.00185211,0.0546315,20.9882,-4.68415,0.542661,0.0,0.0
588,146.75,102.581,118.928,152.279,115.262,109.01,-0.00194646,0.0540312,20.9889,-5.00443,0.499567,0.0,0.0
590,147.25,102.091,118.791,151.097,115.269,108.278,-0.00202288,0.053545,20.9897,-4.92436,0.560396,0.0,0.0
592,147.75,101.331,117.754,152.542,115.253,108.533,-0.00211458,0.0530489,20.9903,-4.67414,0.538172,0.0,0.0
594,148.25,100.704,116.536,149.195,115.253,108.08,-0.00218885,0.0525551,20.9907,-4.66413,0.575579,0.0,0.0
596,148.75,99.7127,116.072,150.16,115.265,107.676,-0.00224902,0.0521551,20.991,-4.71418,0.610011,0.0,0.0
598,149.25,100.161,115.188,150.221,115.261,106.749,-0.00235362,0.051637,20.9913,-4.99442,0.687217,0.0,0.0
600,149.75,99.0977,114.753,150.751,115.278,108.14,-0.00243835,0.0512173,20.9915,-5.11453,0.572571,0.0,0.0
602,150.25,98.7919,114.238,149.292,115.258,106.583,-0.00254671,0.0507821,20.9916,-4.56404,0.700865,0.0,0.0
604,150.75,97.8888,113.082,153.214,115.255,107.52,-0.00263448,0.0503438,20.9922,-5.24464,0.622293,0.0,0.0
606,151.25,97.6683,112.52,150.094,115.253,107.135,-0.00273433,0.0499304,20.9927,-4.39389,0.654255,0.0,0.0
608,151.75,96.8394,111.878,151.523,115.256,108.062,-0.00284109,0.049543,20.9931,-4.91435,0.577366,0.0,0.0
610,152.25,96.5881,111.598,149.327,115.25,107.624,-0.00295108,0.0492293,20.9934,-4.38388,0.613227,0.0,0.0
612,152.75,95.5946,110.251,151.209,115.267,107.898,-0.00306135,0.0489241,20.9936,-5.02445,0.591748,0.0,0.0
614,153.25,95.4488,109.804,147.763,115.253,107.745,-0.00317354,0.0486309,20.9938,-4.78424,0.603404,0.0,0.0
616,153.75,94.9677,109.16,146.174,115.253,107.514,-0.003285,0.0483279,20.9944,-4.33384,0.622645,0.0,0.0
618,154.25,94.1328,108.451,151.707,115.267,106.638,-0.00339881,0.0480233,20.9949,-4.71418,0.697011,0.0,0.0
620,154.75,93.508,107.676,151.555,115.281,106.551,-0.00351216,0.047711,20.9953,-4.64411,0.705415,0.0,0.0
622,155.25,93.0955,106.812,150.372,115.269,107.991,-0.00360398,0.047399,20.9956,-6.06537,0.584256,0.0,0.0
624,155.75,93.0141,106.054,150.047,115.268,107.316,-0.00374291,0.0470953,20.9961,-5.35474,0.640247,0.0,0.0
626,156.25,92.8052,105.764,149.888,115.267,107.048,-0.00385545,0.0468033,20.9967,-4.83428,0.662588,0.0,0.0
628,156.75,92.6231,105.482,152.484,115.284,107.684,-0.00397078,0.0465668,20.9972,-4.65412,0.610856,0.0,0.0
630,157.25,91.5907,104.411,155.028,115.274,108.623,-0.00408596,0.0463753,20.9976,-4.54402,0.532304,0.0,0.0
632,157.75,91.118,104.027,149.225,115.264,108.135,-0.00417926,0.0462201,20.9979,-5.29469,0.571933,0.0,0.0
634,158.25,90.8134,103.116,152.859,115.256,109.397,-0.00427842,0.0460391,20.9982,-5.13455,0.467344,0.0,0.0
636,158.75,89.9108,101.961,148.04,115.27,107.548,-0.00435874,0.0458924,20.9984,-5.24464,0.621113,0.0,0.0
638,159.25,90.03125,101.736,152.077,115.271,106.732,-0.00444863,0.0457299,20.9986,-4.98441,0.68942,0.0,0.0
640,159.75,89.1188,101.629,152.005,115.261,108.892,-0.00453582,0.0455589,20.9987,-4.65412,0.509115,0.0,0.0
642,160.25,88.7535,100.333,154.518,115.265,108.246,-0.00461938,0.0454204,20.9993,-5.15457,0.562819,0.0,0.0
644,160.75,88.5765,100.099,156.282,115.271,107.96,-0.00470797,0.0452391,20.9997,-4.31382,0.586974,0.0,0.0
646,161.25,87.7005,99.2409,154.427,115.251,107.748,-0.00479855,0.0450921,21.0001,-4.41391,0.602951,0.0,0.0
648,161.75,87.4753,98.1218,152.287,115.256,108.081,-0.00487193,0.0449039,21.0004,-4.50399,0.575718,0.0,0.0
650,162.25,86.6075,98.3968,152.195,115.261,107.76,-0.00493136,0.0447515,21.0006,-4.50399,0.602833,0.0,0.0
652,162.75,86.0002,97.9845,148.385,115.268,108.672,-0.00501609,0.0445865,21.0008,-4.48397,0.527787,0.0,0.0
654,163.25,86.028,96.8251,150.246,115.263,107.078,-0.00511766,0.0444528,21.0007,-4.49398,0.659742,0.0,0.0
656,163.75,85.582,97.0865,152.193,115.262,107.097,-0.00520777,0.0442892,21.0007,-4.19371,0.658158,0.0,0.0
658,164.25,85.5068,95.9009,150.727,115.269,107.467,-0.00528782,0.0441567,21.0007,-5.34473,0.627783,0.0,0.0
660,164.75,85.2249,95.6092,148.658,115.27,106.628,-0.00535266,0.0440493,21.0006,-5.59496,0.698046,0.0,0.0
662,165.25,84.6071,94.8257,148.889,115.279,107.742,-0.00541759,0.0439624,21.0006,-5.18459,0.605645,0.0,0.0
664,165.75,83.5646,94.7651,148.002,115.272,107.446,-0.00547019,0.043892,21.0006,-5.52489,0.629698,0.0,0.0
666,166.25,83.9448,94.4454,152.901,115.272,109.068,-0.00552521,0.0438349,21.0008,-5.95527,0.495551,0.0,0.0
668,166.75,83.0747,93.5151,155.255,115.268,107.526,-0.00556978,0.0437472,21.0012,-5.43481,0.622702,0.0,0.0
670,167.25,83.2078,93.1524,151.541,115.285,107.707,-0.00561953,0.0436762,21.0015,-4.80426,0.609008,0.0,0.0
672,167.75,82.631,92.0779,150.158,115.28,108.784,-0.00565984,0.0436186,21.0018,-4.64411,0.519519,0.0,0.0
674,168.25,82.1922,92.2457,154.029,115.294,108.524,-0.00569248,0.043572,21.002,-4.75421,0.542004,0.0,0.0
676,168.75,81.8668,91.391,153.679,115.284,108.276,-0.00571892,0.0435342,21.0021,-4.26378,0.561758,0.0,0.0
678,169.25,81.1043,91.343,154.935,115.303,108.492,-0.00574034,0.0435036,21.0023,-4.65412,0.545332,0.0,0.0
680,169.75,81.2388,90.2408,149.341,115.271,106.967,-0.00575246,0.043465,21.0024,-4.46395,0.669728,0.0,0.0
682,170.25,80.6193,90.1036,149.454,115.302,107.747,-0.00575757,0.0434338,21.0025,-4.36386,0.607091,0.0,0.0
684,170.75,80.496,89.6551,147.416,115.285,107.452,-0.00576433,0.0434084,21.0025,-4.47396,0.630257,0.0,0.0
686,171.25,80.0084,89.1252,149.117,115.294,106.739,-0.00577215,0.0433326,21.0026,-4.12365,0.690557,0.0,0.0
688,171.75,79.8636,89.1889,147.69,115.289,107.089,-0.00578503,0.0432711,21.0026,-4.21373,0.660864,0.0,0.0
690,172.25,79.7579,89.0049,149.025,115.284,107.856,-0.00580133,0.0432075,21.0027,-4.09363,0.596597,0.0,0.0
692,172.75,79.254,87.6888,147.364,115.288,106.517,-0.00581912,0.043156,21.0027,-4.13366,0.70884,0.0,0.0
694,173.25,78.993,87.8976,147.382,115.303,106.914,-0.00583764,0.0430924,21.0027,-4.08362,0.676668,0.0,0.0
696,173.75,78.6488,87.372,149.423,115.3,107.192,-0.00585264,0.0430213,21.0027,-4.10363,0.653121,0.0,0.0
698,174.25,78.678,87.4659,146.916,115.322,107.18,-0.005871,0.0429491,21.0028,-4.07361,0.655843,0.0,0.0
700,174.75,78.3178,86.2237,149.363,115.317,107.01,-0.00588587,0.0428775,21.0028,-4.02356,0.669674,0.0,0.0
702,175.25,77.559,86.1487,147.461,115.334,107.727,-0.00590165,0.0428195,21.0028,-4.35386,0.611155,0.0,0.0
704,175.75,77.4684,86.0461,145.07,115.326,108.166,-0.00591442,0.0428002,21.0028,-4.64411,0.574082,0.0,0.0
706,176.25,77.2665,85.9243,147.876,115.367,107.726,-0.00592346,0.0427846,21.0028,-5.04447,0.613865,0.0,0.0
708,176.75,77.4218,85.1149,150.285,115.326,107.345,-0.00592961,0.0427443,21.0028,-5.06449,0.642388,0.0,0.0
710,177.25,76.7325,85.203,151.355,115.36,107.085,-0.00593459,0.0427116,21.0028,-4.83428,0.666731,0.0,0.0
712,177.75,77.1516,84.7799,149.946,115.323,107.257,-0.00592496,0.0426575,21.003,-4.39389,0.649428,0.0,0.0
714,178.25,76.584,84.0868,150.462,115.338,108.291,-0.00591717,0.0426136,21.0034,-5.38477,0.5647,0.0,0.0
716,178.75,76.4402,83.9105,151.441,115.34,108.812,-0.0059017,0.0425563,21.0038,-4.54402,0.521879,0.0,0.0
718,179.25,75.4625,83.3974,151.687,115.338,108.46,-0.00588094,0.0424902,21.0036,-4.79425,0.550786,0.0,0.0
720,179.75,75.6283,82.6387,151.319,115.317,108.084,-0.00586413,0.0424367,21.0034,-4.98441,0.580207,0.0,0.0
722,180.25,75.4551,83.2312,152.25,115.33,107.477,-0.00585051,0.0424209,21.0038,-4.67414,0.631649,0.0,0.0
724,180.75,75.4758,82.9613,149.464,115.345,108.383,-0.00584928,0.0424082,21.004,-5.46484,0.557676,0.0,0.0
726,181.25,75.0999,82.3958,149.634,115.346,108.531,-0.0058571,0.0423833,21.0042,-4.69416,0.545453,0.0,0.0
728,181.75,74.9209,81.8542,154.505,115.323,107.598,-0.00589448,0.0423501,21.0044,-5.66502,0.621049,0.0,0.0
730,182.25,74.3817,81.3161,153.678,115.347,107.841,-0.00592476,0.0423086,21.0045,-4.88433,0.602687,0.0,0.0
732,182.75,74.5371,81.2514,153.296,115.332,108.193,-0.00594928,0.0422619,21.0047,-4.68415,0.572337,0.0,0.0
734,183.25,73.4899,80.3286,149.208,115.337,108.332,-0.00600391,0.042195,21.0048,-4.75421,0.561185,0.0,0.0
736,183.75,73.4952,80.1226,148.701,115.321,108.718,-0.00604816,0.0421145,21.0048,-4.71418,0.528186,0.0,0.0
738,184.25,73.1077,80.2512,150.407,115.345,107.98,-0.00609766,0.0420421,21.0049,-4.49398,0.591026,0.0,0.0
740,184.75,72.9719,79.8587,154.405,115.343,108.376,-0.00613775,0.0419769,21.0049,-4.58406,0.558066,0.0,0.0
742,185.25,73.1781,79.3198,153.461,115.359,108.084,-0.00617023,0.0419241,21.005,-4.86431,0.583497,0.0,0.0
744,185.75,72.6717,79.3896,151.867,115.337,108.856,-0.00619196,0.0418536,21.005,-4.33384,0.517968,0.0,0.0
746,186.25,72.6005,79.2187,153.667,115.363,107.828,-0.00620545,0.0417966,21.0052,-4.28379,0.605004,0.0,0.0
748,186.75,72.0009,78.2553,153.048,115.356,106.891,-0.00620657,0.0417504,21.0054,-4.92436,0.6827,0.0,0.0
750,187.25,71.9464,78.4911,150.978,115.377,107.011,-0.00619866,0.0417129,21.0051,-4.70417,0.674236,0.0,0.0
752,187.75,71.8548,77.5445,147.782,115.365,107.091,-0.00619225,0.0416826,21.0049,-4.72418,0.666556,0.0,0.0
754,188.25,71.5734,77.6297,150.836,115.374,107.787,-0.00616471,0.0416435,21.0047,-4.67414,0.609264,0.0,0.0
756,188.75,71.3473,77.6837,147.235,115.378,108.153,-0.0061424,0.0415987,21.0045,-5.68503,0.579212,0.0,0.0
758,189.25,70.8394,76.403,150.737,115.377,107.842,-0.00611812,0.0415333,21.0046,-4.9644,0.604949,0.0,0.0
760,189.75,71.075,76.4494,158.02,115.372,108.862,-0.00609846,0.0414542,21.0049,-4.95439,0.520255,0.0,0.0
762,190.25,70.7668,76.436,153.928,115.374,108.472,-0.00608253,0.0413973,21.0051,-5.0845,0.552533,0.0,0.0
764,190.75,70.4541,76.138,153.628,115.371,108.391,-0.00610066,0.0413578,21.0051,-4.64411,0.559036,0.0,0.0
766,191.25,70.176,75.8145,154.048,115.386,108.588,-0.00611536,0.0413259,21.0049,-5.05448,0.543866,0.0,0.0
768,191.75,69.7813,75.6046,151.006,115.375,107.796,-0.00615333,0.0413,21.0047,-4.4039,0.608644,0.0,0.0
770,192.25,69.5435,74.7686,151.059,115.394,108.128,-0.00618409,0.041279,21.0045,-5.47485,0.582522,0.0,0.0
772,192.75,69.5351,74.8541,152.883,115.39,109.404,-0.00622018,0.041262,21.0044,-5.54491,0.477122,0.0,0.0
774,193.25,68.8265,74.5915,150.55,115.407,109.38,-0.00624941,0.0412344,21.0043,-5.01444,0.480442,0.0,0.0
776,193.75,69.2711,74.3086,150.765,115.402,108.014,-0.00626721,0.041212,21.0042,-6.01533,0.592607,0.0,0.0
778,194.25,68.9222,73.8234,156.305,115.418,109.578,-0.00627633,0.0411939,21.0041,-5.13455,0.465052,0.0,0.0
780,194.75,68.6975,73.6106,156.119,115.409,109.145,-0.00626137,0.0411792,21.0041,-4.95439,0.499922,0.0,0.0
782,195.25,68.3214,73.5309,156.243,115.414,108.87,-0.00624925,0.0411746,21.004,-4.7442,0.522894,0.0,0.0
784,195.75,68.29,73.432,154.189,115.406,109.01,-0.00621585,0.0411775,21.004,-4.05359,0.510752,0.0,0.0
786,196.25,67.5871,72.8101,151.836,115.416,108.841,-0.00618879,0.041187,21.004,-5.81515,0.525401,0.0,0.0
788,196.75,67.9762,72.2444,148.72,115.447,109.202,-0.00616687,0.0412013,21.0039,-5.45483,0.498138,0.0,0.0
790,197.25,66.8701,72.0818,148.827,115.425,109.972,-0.00613919,0.0412056,21.0039,-5.29469,0.433489,0.0,0.0
792,197.75,66.9827,71.7867,151.996,115.424,108.482,-0.00611676,0.0412026,21.0039,-5.72507,0.555601,0.0,0.0
794,198.25,67.0733,71.647,154.95,115.428,110.627,-0.00611225,0.0411928,21.0039,-5.35474,0.380533,0.0,0.0
796,198.75,66.5974,71.274,159.046,115.434,109.789,-0.0061086,0.0411783,21.0039,-5.24464,0.449148,0.0,0.0
798,199.25,66.7283,71.2259,157.575,115.446,109.65,-0.00611871,0.0411739,21.0039,-4.57405,0.46135,0.0,0.0
800,199.75,66.7074,70.9953,157.521,115.446,110.272,-0.00613867,0.0411769,21.0039,-5.02445,0.410685,0.0,0.0
802,200.25,66.147,70.6069,155.402,115.452,108.493,-0.0061594,0.0411793,21.0039,-4.42392,0.556839,0.0,0.0
804,200.75,65.7493,70.1772,150.415,115.45,108.874,-0.00618032,0.0412365,21.0039,-5.14456,0.525289,0.0,0.0
806,201.25,65.3748,70.023,150.983,115.454,108.16,-0.00619726,0.0412829,21.0039,-5.06449,0.584592,0.0,0.0
808,201.75,65.1811,69.6622,153.848,115.464,108.8,-0.00621098,0.0413204,21.0038,-4.47396,0.532512,0.0,0.0
810,202.25,64.9721,68.8784,150.717,115.468,108.937,-0.00621687,0.0413509,21.0038,-4.46395,0.521506,0.0,0.0
812,202.75,64.7377,68.7512,149.897,115.473,108.647,-0.00621693,0.0413755,21.0038,-4.22374,0.545816,0.0,0.0
814,203.25,65.1825,68.738,152.94,115.484,108.068,-0.00621698,0.041354,21.0038,-4.2938,0.594516,0.0,0.0
816,203.75,64.7603,68.4746,150.477,115.493,108.446,-0.00620591,0.0413366,21.0038,-4.1737,0.563912,0.0,0.0
818,204.25,64.8646,68.3353,149.336,115.491,107.852,-0.00618695,0.0413501,21.0038,-4.67414,0.612943,0.0,0.0
820,204.75,64.3241,68.6592,150.726,115.513,108.82,-0.00616244,0.0413611,21.0038,-4.6241,0.534671,0.0,0.0
822,205.25,64.3961,68.115,150.074,115.504,108.306,-0.00613435,0.0413976,21.0038,-4.41391,0.576369,0.0,0.0
824,205.75,64.159,67.6963,151.712,115.525,107.612,-0.0061018,0.0414272,21.0038,-4.53402,0.635561,0.0,0.0
826,206.25,64.0678,67.9014,150.088,115.517,108.56,-0.00606662,0.0414439,21.0043,-4.45394,0.556343,0.0,0.0
828,206.75,63.9717,67.5957,151.973,115.528,109.035,-0.00603289,0.0414508,21.0046,-4.68415,0.518157,0.0,0.0
830,207.25,63.9814,66.9845,152.414,115.541,108.626,-0.00600086,0.0414565,21.0049,-4.90434,0.552825,0.0,0.0
832,207.75,63.2763,66.7494,151.185,115.552,108.511,-0.00597492,0.0414749,21.0052,-4.36386,0.563163,0.0,0.0
834,208.25,63.4085,67.2135,151.064,115.558,108.422,-0.00595391,0.0414898,21.0053,-4.71418,0.57097,0.0,0.0
836,208.75,63.386,67.1924,150.804,115.573,108.129,-0.00593937,0.0414466,21.0055,-5.77511,0.596353,0.0,0.0
838,209.25,63.2925,66.8334,151.455,115.574,108.54,-0.00592759,0.0414115,21.0056,-6.11542,0.562399,0.0,0.0
840,209.75,63.4586,66.7469,152.063,115.592,108.974,-0.00592459,0.0413279,21.0057,-5.1946,0.528097,0.0,0.0
842,210.25,62.9761,66.4615,154.68,115.574,109.482,-0.00592804,0.0412601,21.0058,-5.29469,0.485074,0.0,0.0
844,210.75,62.9979,66.4701,157.007,115.594,109.532,-0.00593083,0.0412052,21.0059,-5.06449,0.482445,0.0,0.0
846,211.25,62.46,66.0865,152.184,115.578,108.248,-0.00594551,0.0412022,21.0059,-5.36475,0.586877,0.0,0.0
848,211.75,62.2099,65.4227,153.009,115.595,108.103,-0.00596857,0.0411998,21.006,-4.83428,0.600213,0.0,0.0
850,212.25,62.6083,65.871,155.361,115.603,109.146,-0.0059964,0.041184,21.006,-4.6241,0.514844,0.0,0.0
852,212.75,62.2603,65.5878,150.314,115.606,108.629,-0.00602718,0.0411712,21.006,-5.01444,0.557516,0.0,0.0
854,213.25,62.3257,65.5519,151.258,115.621,109.039,-0.0060606,0.0411609,21.0061,-4.52401,0.524964,0.0,0.0
856,213.75,61.8776,65.3038,151.85,115.624,109.021,-0.00609532,0.0410834,21.0061,-4.47396,0.526775,0.0,0.0
858,214.25,61.8797,65.2899,153.946,115.62,108.539,-0.00612998,0.0410206,21.0061,-4.2938,0.56605,0.0,0.0
860,214.75,62.02,64.4244,147.929,115.641,107.796,-0.00616393,0.0409916,21.0061,-4.70417,0.629266,0.0,0.0
862,215.25,61.6127,64.1595,148.685,115.637,107.716,-0.00619732,0.0409877,21.0061,-4.52401,0.635586,0.0,0.0
864,215.75,61.3706,63.7942,151.486,115.654,109.334,-0.00622965,0.0410064,21.0061,-4.59407,0.503386,0.0,0.0
866,216.25,61.5836,64.16,150.884,115.639,108.342,-0.0062578,0.0410412,21.0061,-4.46395,0.583853,0.0,0.0
868,216.75,61.0825,64.2966,154.089,115.663,107.176,-0.00628237,0.0410694,21.0061,-4.54402,0.682616,0.0,0.0
870,217.25,61.3075,63.9693,150.696,115.638,108.564,-0.00630227,0.0410507,21.0061,-4.6241,0.565449,0.0,0.0
872,217.75,61.2006,63.7421,150.333,115.659,108.966,-0.00630924,0.0410283,21.0061,-5.36475,0.533958,0.0,0.0
874,218.25,61.1644,63.96,151.105,115.656,108.507,-0.00630665,0.0410036,21.0061,-5.36475,0.571527,0.0,0.0
876,218.75,60.823,63.5514,151.042,115.669,110.115,-0.00629475,0.0409837,21.0061,-4.67414,0.44072,0.0,0.0
878,219.25,60.2773,63.2114,154.644,115.652,109.957,-0.00627629,0.0409813,21.0061,-4.6241,0.452281,0.0,0.0
880,219.75,60.7063,62.6649,151.286,115.671,108.641,-0.00626134,0.0409794,21.0061,-5.07449,0.561631,0.0,0.0
882,220.25,60.745,63.3501,152.731,115.679,108.745,-0.00624054,0.0408811,21.0061,-4.99442,0.553676,0.0,0.0
884,220.75,60.2395,63.1623,151.878,115.698,108.488,-0.00622369,0.0408014,21.0061,-4.90434,0.576374,0.0,0.0
886,221.25,60.2283,63.1526,153.26,115.701,109.142,-0.00619886,0.0407224,21.0061,-4.02356,0.522767,0.0,0.0
888,221.75,60.4647,63.1787,152.463,115.701,109.501,-0.00617876,0.0406452,21.0061,-4.90434,0.493328,0.0,0.0
890,222.25,59.4996,62.3364,152.904,115.695,110.069,-0.00616247,0.0405973,21.0061,-4.7442,0.44656,0.0,0.0
892,222.75,59.8083,62.3628,149.651,115.7,109.012,-0.00614928,0.0405716,21.0061,-4.99442,0.533327,0.0,0.0
894,223.25,59.5065,62.1582,151.996,115.702,109.394,-0.00614356,0.0405508,21.0061,-4.69416,0.502181,0.0,0.0
896,223.75,59.9265,62.5015,157.149,115.714,109.217,-0.00613893,0.0405201,21.0061,-4.73419,0.517604,0.0,0.0
898,224.25,59.7145,61.9914,152.034,115.705,109.497,-0.00613517,0.0404952,21.0061,-5.07449,0.493959,0.0,0.0
900,224.75,59.3982,62.0369,151.901,115.717,109.83,,0.0404678,,-4.84429,0.467637,0.0,0.0
902,225.25,59.8074,61.5567,152.672,115.713,109.77,,0.040439,,-4.2938,0.472288,0.0,0.0
904,225.75,59.4059,61.5199,156.302,115.723,109.211,,0.0404303,,-4.92436,0.518791,0.0,0.0
906,226.25,59.0572,61.3993,153.545,115.714,108.911,,0.0404363,,-5.95527,0.542747,0.0,0.0
908,226.75,58.7896,61.1937,154.483,115.728,108.882,,0.0404412,,-5.93526,0.546198,0.0,0.0
910,227.25,58.9867,61.1951,150.614,115.718,109.172,,0.0404451,,-4.8543,0.521611,0.0,0.0
912,227.75,58.3809,60.1488,151.843,115.734,110.165,,,,-4.46395,0.441686,0.0,0.0
914,228.25,58.7847,60.5906,157.922,115.72,108.805,,,,-5.55492,0.551934,0.0,0.0
916,228.75,58.5126,60.4172,156.159,115.73,110.285,,,,-4.25377,0.431624,0.0,0.0
918,229.25,57.8978,60.4321,152.91,115.731,109.258,,,,-4.35386,0.515504,0.0,0.0
920,229.75,58.1318,59.8558,152.519,115.745,109.404,,,,-5.33472,0.504699,0.0,0.0
922,230.25,57.8063,60.007,151.112,115.733,107.755,,,,-4.52401,0.63979,0.0,0.0
924,230.75,57.5314,59.8809,149.379,115.75,108.733,,,,-4.57405,0.560168,0.0,0.0
926,231.25,57.8957,59.9213,149.26,115.744,108.404,,,,-4.70417,0.586859,0.0,0.0
928,231.75,57.5126,59.3062,151.088,115.744,109.354,,,,-4.22374,0.508679,0.0,0.0
930,232.25,57.7003,59.5482,147.998,115.759,108.967,,,,-4.69416,0.541605,0.0,0.0
932,232.75,57.8272,59.0763,148.756,115.765,108.623,,,,-4.4039,0.570368,0.0,0.0
934,233.25,56.9907,58.7038,151.618,115.766,108.68,,,,-4.53402,0.565824,0.0,0.0
936,233.75,57.6097,58.8708,151.451,115.778,109.423,,,,-4.33384,0.505623,0.0,0.0
938,234.25,56.7269,58.8771,149.505,115.779,109.585,,,,-4.70417,0.492494,0.0,0.0
940,234.75,57.2642,58.9197,148.444,115.784,108.918,,,,-4.21373,0.547566,0.0,0.0
942,235.25,56.9728,58.8389,149.859,115.796,109.102,,,,-4.39389,0.533315,0.0,0.0
943,235.5,56.8352,58.3865,150.079,115.798,109.343,,,,-4.50399,0.513775,0.0,0.0