File: 01_Data/PlasticC/Cone/PlasticC_Cone_HF75Scan_220218_R1.csv
Names,Time,Stack TC,Smoke TC,Exh Press,Smoke Comp,Smoke Meas,CO Meter,CO2 Meter,O2 Meter,Sample Mass,Ext Coeff,Start Test,Flame Verif
Chan Gain,,500,500,1,1,1,1,1,1,1,1,1.0,1.0
Offset,,0,0,0.132436,0,0,0,0,0,0,0,0.0,0.0
Gain,,1,1,25.011,15.4219,15.1528,1,1,1,1.00089,1.02113,1.0,1.0
Units,sec,C,C,Pa,%,%,%,%,%,g,/m,,
Baseline,,42.7222,44.9743,154.303,115.15,112.183,-0.00586972,0.0438938,21.0005,-482.72,0.23394,,
2,0.25,39.5379,41.9502,159.678,115.729,112.837,-0.00615739,0.0471808,20.9999,26.013,0.226631,0.0,0.0
4,0.75,39.0257,40.5862,156.316,115.676,111.829,-0.00615628,0.0471219,20.9999,26.0631,0.302935,0.0,0.0
6,1.25,39.3859,41.4968,153.211,115.641,112.441,-0.00615539,0.0470159,20.9998,26.0631,0.251369,0.0,0.0
8,1.75,39.4225,41.4916,158.051,115.559,112.327,-0.00613728,0.0468775,20.9997,26.0831,0.254127,0.0,0.0
10,2.25,39.7135,41.5038,156.084,115.511,112.835,-0.00612261,0.0467654,20.9998,26.0731,0.209934,0.0,0.0
12,2.75,39.2628,41.6566,153.057,115.401,111.009,-0.00609708,0.0466046,21.0001,26.0331,0.34754,0.0,0.0
14,3.25,39.7951,41.115,153.258,115.33,111.918,-0.00607639,0.0464743,20.9999,26.0731,0.268964,0.0,0.0
16,3.75,39.6479,41.2716,155.92,115.214,112.093,-0.00604598,0.0463615,20.9997,26.0831,0.245989,0.0,0.0
18,4.25,38.9934,40.8459,154.521,115.139,111.426,-0.00602135,0.0462635,20.9996,26.0531,0.293576,0.0,0.0
20,4.75,40.1271,41.5016,151.517,115.044,111.482,-0.00598898,0.0461842,20.9995,26.0531,0.281755,0.0,0.0
22,5.25,39.7023,41.4822,158.093,115.085,112.173,-0.00596276,0.046203,20.9994,26.0431,0.229567,0.0,0.0
24,5.75,39.4102,41.7115,153.409,115.101,110.693,-0.00593303,0.0462183,20.9994,26.0631,0.349725,0.0,0.0
26,6.25,39.5114,41.5699,155.45,115.147,110.997,-0.0059013,0.0462722,20.9993,26.0731,0.328725,0.0,0.0
28,6.75,39.6339,41.5033,157.476,115.172,111.562,-0.0058756,0.046345,20.9993,26.013,0.285291,0.0,0.0
30,7.25,39.6946,41.26,155.079,115.22,111.915,-0.00585478,0.0464303,20.9992,26.0331,0.260629,0.0,0.0
32,7.75,39.3531,41.5754,153.714,115.26,111.364,-0.00584537,0.0464993,20.9992,26.0531,0.308001,0.0,0.0
34,8.25,39.91,41.4843,156.614,115.306,112.215,-0.00585343,0.0465137,20.9997,26.0431,0.243407,0.0,0.0
36,8.75,39.6944,41.5591,158.716,115.35,111.581,-0.00587407,0.0465253,21.0001,26.023,0.297483,0.0,0.0
38,9.25,39.4532,41.9865,151.102,115.407,110.911,-0.00590647,0.046491,21.0004,26.023,0.355891,0.0,0.0
40,9.75,39.7295,41.8576,154.158,115.451,110.876,-0.00594684,0.0464238,21.0006,26.0431,0.3622,0.0,0.0
42,10.25,39.8371,41.9843,154.879,115.527,111.814,-0.00597953,0.0463694,21.0008,26.0631,0.292671,0.0,0.0
44,10.75,39.9044,41.7763,151.462,115.541,111.19,-0.00600606,0.0463035,21.001,26.0631,0.343842,0.0,0.0
46,11.25,39.6059,41.8426,151.452,115.618,111.367,-0.00602755,0.0462304,21.0012,26.023,0.335531,0.0,0.0
48,11.75,39.6399,41.2917,155.842,115.645,111.252,-0.00602078,0.0461275,21.0015,26.013,0.346875,0.0,0.0
50,12.25,39.6601,42.1067,157.561,115.702,111.311,-0.00599354,0.0460048,21.0017,26.0531,0.346519,0.0,0.0
52,12.75,39.709,41.8192,153.703,115.724,110.954,-0.00597147,0.0459054,21.0014,26.0631,0.377043,0.0,0.0
54,13.25,39.6721,42.2986,153.051,115.773,111.28,-0.00586048,0.0458534,21.0012,26.0331,0.354551,0.0,0.0
56,13.75,40.0784,41.7833,151.689,115.806,111.076,-0.00577057,0.0458112,21.0001,26.013,0.373566,0.0,0.0
58,14.25,40.1327,42.0102,156.751,115.839,110.982,-0.00565514,0.0461344,20.9992,26.013,0.383687,0.0,0.0
60,14.75,40.0557,41.7696,151.434,115.866,110.711,-0.00545774,0.0467178,20.9977,26.0431,0.407621,0.0,0.0
62,15.25,39.5248,41.9047,153.858,115.885,110.405,-0.00529785,0.0485364,20.9925,26.0531,0.433879,0.0,1.0
64,15.75,39.7913,42.1201,151.423,115.896,112.129,-0.00485545,0.0512208,20.9883,25.943,0.295932,0.0,0.0
66,16.25,40.0717,42.0846,152.858,115.914,111.417,-0.00449712,0.0533952,20.9782,25.993,0.354384,0.0,0.0
68,16.75,39.9397,42.9194,156.958,115.914,110.726,-0.00374623,0.0624468,20.964,26.023,0.410172,0.0,1.0
70,17.25,40.1466,42.3053,150.823,115.93,107.159,-0.00313802,0.0663056,20.9388,25.993,0.704687,0.0,1.0
72,17.75,39.9429,42.227,146.236,115.908,96.6724,-0.00199826,0.0795998,20.9059,25.8429,1.62547,0.0,1.0
74,18.25,40.3753,42.5633,143.944,115.918,83.3521,-0.00107506,0.0963942,20.8602,25.9129,2.95418,0.0,1.0
76,18.75,40.8235,42.9884,143.472,115.891,70.5457,7.7254e-05,0.109998,20.806,25.8429,4.4463,0.0,1.0
78,19.25,40.8916,42.8364,140.554,115.879,63.7494,0.00192782,0.138552,20.7268,25.8629,5.35277,0.0,1.0
80,19.75,41.2577,43.2658,131.532,115.848,63.1214,0.00242563,0.161681,20.6951,25.7328,5.439,0.0,1.0
82,20.25,41.4101,43.672,138.984,115.819,62.1244,0.00385362,0.199702,20.6408,25.6627,5.57939,0.0,1.0
84,20.75,41.6401,43.7946,135.123,115.766,60.966,0.00552937,0.2305,20.5671,25.5626,5.74391,0.0,1.0
86,21.25,42.1096,44.642,130.974,115.742,59.2546,0.00688672,0.275931,20.5074,25.5326,5.9971,0.0,1.0
88,21.75,42.701,44.9761,134.505,115.695,59.6948,0.00895776,0.31273,20.4457,25.4626,5.92712,0.0,0.0
90,22.25,43.1056,45.2717,131.799,115.641,54.2525,0.0106353,0.375949,20.3838,25.4025,6.77924,0.0,0.0
92,22.75,43.9225,46.5511,127.553,115.593,55.4562,0.0126797,0.396212,20.3198,25.3224,6.57892,0.0,0.0
94,23.25,43.8223,46.506,122.534,115.542,57.0562,0.0143357,0.430862,20.2555,25.3224,6.32024,0.0,0.0
96,23.75,44.9768,47.8581,128.687,115.475,55.3475,0.0163682,0.458929,20.1915,25.2223,6.58733,0.0,0.0
98,24.25,45.8728,48.3407,125.009,115.419,52.3653,0.0180145,0.505819,20.129,25.1523,7.07914,0.0,0.0
100,24.75,45.6225,48.9789,122.899,115.365,50.7995,0.019971,0.5438,20.067,25.0622,7.34686,0.0,0.0
102,25.25,47.5623,50.2963,123.446,115.363,50.7857,0.0215557,0.583001,20.0066,24.9721,7.34912,0.0,0.0
104,25.75,47.6737,51.2085,122.496,115.302,44.5475,0.0232172,0.622347,19.9463,24.9221,8.51832,0.0,0.0
106,26.25,48.2284,52.3952,121.455,115.276,43.2051,0.0249031,0.660852,19.887,24.842,8.79035,0.0,0.0
108,26.75,49.4296,53.4309,121.314,115.271,47.0802,0.0262688,0.698012,19.839,24.6819,8.02064,0.0,0.0
110,27.25,50.1805,54.2272,119.9375,115.281,44.9013,0.0278717,0.734341,19.7914,24.6618,8.44582,0.0,0.0
112,27.75,50.6781,54.9712,121.72,115.259,43.5482,0.029617,0.769374,19.745,24.5517,8.71818,0.0,0.0
114,28.25,51.8808,56.1916,124.081,115.207,44.6465,0.0313931,0.804406,19.7074,24.4917,8.49109,0.0,0.0
116,28.75,52.8304,57.4011,118.688,115.164,43.6384,0.0331578,0.838772,19.6564,24.3315,8.69226,0.0,0.0
118,29.25,53.3304,58.3399,122.343,115.108,39.0599,0.0349471,0.866608,19.6151,24.2515,9.68077,0.0,0.0
120,29.75,54.9782,59.9057,111.156,115.044,37.3891,0.0367203,0.906814,19.5816,24.1614,10.0674,0.0,0.0
122,30.25,55.6156,61.04,116.739,114.978,36.7773,0.0381566,0.93938,19.5305,24.0113,10.21,0.0,0.0
124,30.75,56.2938,61.9429,116.393,114.908,36.6331,0.0398264,0.974965,19.4891,23.8711,10.2397,0.0,0.0
126,31.25,57.4586,63.133,112.628,114.824,38.9031,0.0416346,1.01208,19.4338,23.761,9.69468,0.0,0.0
128,31.75,58.4036,64.2449,111.548,114.771,37.8118,0.0430993,1.0493,19.389,23.691,9.94536,0.0,0.0
130,32.25,58.961,65.5073,112.897,114.694,35.4354,0.0447279,1.08591,19.3413,23.6109,10.5208,0.0,0.0
132,32.75,60.7365,66.5762,114.675,114.63,33.1593,0.0471774,1.11555,19.2713,23.4808,11.1104,0.0,0.0
134,33.25,61.8796,67.8862,115.121,114.557,33.347,0.0481093,1.14988,19.2525,23.3607,11.0542,0.0,0.0
136,33.75,62.3631,69.6555,108.927,114.51,31.7216,0.0497029,1.18696,19.1975,23.2106,11.4981,0.0,0.0
138,34.25,63.3873,70.4933,113.096,114.448,31.8132,0.0509938,1.217,19.153,23.1505,11.4674,0.0,0.0
140,34.75,64.6275,71.7098,115.44,114.385,32.911,0.0526797,1.25394,19.1071,23.0905,11.1586,0.0,0.0
142,35.25,65.4893,72.9826,108.622,114.333,32.0731,0.0540454,1.28386,19.061,22.8903,11.3856,0.0,0.0
144,35.75,66.8994,74.739,111.957,114.316,31.4696,0.0556456,1.3276,19.0197,22.8202,11.5543,0.0,0.0
146,36.25,67.8528,75.8413,111.013,114.284,33.6934,0.0569419,1.3408,18.9827,22.7001,10.9402,0.0,0.0
148,36.75,69.1333,77.5231,117.94,114.388,32.246,0.0585502,1.36755,18.9457,22.6,11.3416,0.0,0.0
150,37.25,70.4812,78.9281,105.974,114.42,30.0287,0.059853,1.39296,18.9092,22.4299,11.9823,0.0,0.0
152,37.75,71.113,80.1232,104.179,114.423,31.218,0.0614599,1.41354,18.8675,22.2998,11.6346,0.0,0.0
154,38.25,72.5682,81.4352,103.664,114.377,30.3921,0.0627615,1.44228,18.8227,22.1496,11.8712,0.0,0.0
156,38.75,73.0302,83.1522,102.41,114.349,28.954,0.0644125,1.46556,18.7775,22.0796,12.3032,0.0,0.0
158,39.25,74.5061,84.2905,100.682,114.29,29.6217,0.0657498,1.49005,18.7327,21.9494,12.0944,0.0,0.0
160,39.75,75.296,85.635,103.155,114.243,28.9933,0.0674233,1.51496,18.6894,21.7893,12.2827,0.0,0.0
162,40.25,76.8798,86.7806,100.608,114.194,28.2955,0.0687789,1.5449,18.6478,21.5391,12.4971,0.0,0.0
164,40.75,77.5393,88.761,105.473,114.139,24.8832,0.0698769,1.56916,18.6141,21.5791,13.6439,0.0,0.0
166,41.25,78.8961,89.9211,98.7902,114.083,26.5471,0.0715455,1.59378,18.5802,21.429,13.0597,0.0,0.0
168,41.75,80.1688,91.0661,101.563,114.042,28.2876,0.0728971,1.6182,18.5467,21.2388,12.4876,0.0,0.0
170,42.25,80.8138,92.3655,100.037,113.985,25.7036,0.0739919,1.6429,18.5196,21.1087,13.3412,0.0,0.0
172,42.75,82.1206,94.1347,102.036,113.946,26.8643,0.0756385,1.66734,18.4871,21.0587,12.9425,0.0,0.0
174,43.25,83.8692,96.0175,100.548,113.885,26.5313,0.0769722,1.68713,18.4608,20.9085,13.0495,0.0,0.0
176,43.75,84.825,96.7235,108.627,113.843,27.5709,0.0785425,1.71209,18.4339,20.7183,12.7019,0.0,0.0
178,44.25,85.9495,98.3603,101.014,113.799,24.9965,0.0798144,1.7323,18.4072,20.5882,13.5765,0.0,0.0
180,44.75,86.9941,100.08,98.1155,113.778,24.5096,0.0812802,1.75513,18.3637,20.4281,13.751,0.0,0.0
182,45.25,87.8772,101.245,101.288,113.73,23.3517,0.0824675,1.77942,18.3285,20.338,14.1807,0.0,0.0
184,45.75,88.9099,102.467,97.8758,113.707,23.397,0.0838305,1.79909,18.2803,20.2179,14.1616,0.0,0.0
186,46.25,90.1944,103.984,95.1746,113.665,22.8301,0.0851859,1.82816,18.2412,20.0377,14.3779,0.0,0.0
188,46.75,91.2848,104.955,100.103,113.654,24.7843,0.0858827,1.85171,18.2176,19.7975,13.6414,0.0,0.0
190,47.25,92.1186,106.557,97.0728,113.612,22.6164,0.0870742,1.87987,18.1774,19.6874,14.458,0.0,0.0
192,47.75,93.559,108.592,105.456,113.613,25.12,0.0884563,1.90268,18.1447,19.6774,13.5177,0.0,0.0
194,48.25,94.5401,109.704,97.7552,113.601,24.818,0.089951,1.93067,18.1004,19.3772,13.625,0.0,0.0
196,48.75,95.8097,111.638,104.448,113.578,23.8821,0.0911617,1.95334,18.0644,19.2871,13.9676,0.0,0.0
198,49.25,96.9486,112.635,98.8055,113.557,22.8351,0.0929656,1.98308,18.0259,19.1269,14.3674,0.0,0.0
200,49.75,98.1327,114.244,103.255,113.55,22.6479,0.0944268,1.99576,17.9862,18.9968,14.4407,0.0,0.0
202,50.25,98.9894,115.084,91.6566,113.551,18.9221,0.0963913,2.02435,17.9471,18.7966,16.0507,0.0,0.0
204,50.75,100.054,116.475,98.1582,113.536,21.5598,0.0979826,2.05375,17.9092,18.6465,14.8806,0.0,0.0
206,51.25,101.367,118.133,97.3797,113.519,21.8012,0.100004,2.07755,17.8668,18.4864,14.7795,0.0,0.0
208,51.75,102.71,119.866,104.971,113.521,21.9528,0.101642,2.11032,17.8219,18.3462,14.7175,0.0,0.0
210,52.25,103.719,121.11,99.8435,113.519,19.6735,0.103862,2.13686,17.7855,18.2161,15.6993,0.0,0.0
212,52.75,104.6,122.949,98.6009,113.526,21.741,0.105661,2.17221,17.756,18.016,14.8048,0.0,0.0
214,53.25,106.312,124.598,96.6515,113.533,19.9255,0.107739,2.20085,17.6901,17.8358,15.5864,0.0,0.0
216,53.75,107.035,125.666,92.3466,113.534,22.6127,0.109051,2.23635,17.6724,17.6757,14.4533,0.0,0.0
218,54.25,108.293,127.458,92.4581,113.527,20.3242,0.112251,2.26511,17.6091,17.5055,15.4085,0.0,0.0
220,54.75,109.604,129.312,94.857,113.558,17.4432,0.113112,2.29919,17.5921,17.3554,16.7801,0.0,0.0
222,55.25,110.585,130.126,95.5242,113.559,19.9274,0.116309,2.32679,17.5426,17.1352,15.5876,0.0,0.0
224,55.75,112.281,132.507,92.913,113.589,18.5905,0.117342,2.34914,17.5241,16.965,16.212,0.0,0.0
226,56.25,113.265,133.865,106.125,113.583,18.9914,0.119527,2.38503,17.4926,16.8149,16.0204,0.0,0.0
228,56.75,114.487,135.382,96.4485,113.607,18.5179,0.121674,2.40103,17.4574,16.6247,16.2485,0.0,0.0
230,57.25,116.071,137.188,91.5597,113.63,19.0109,0.1238,2.44511,17.4202,16.5046,16.015,0.0,0.0
232,57.75,117.026,138.229,94.7929,113.642,17.4432,0.125872,2.46017,17.3726,16.2244,16.7868,0.0,0.0
234,58.25,118.359,140.366,96.0829,113.668,18.8462,0.127945,2.49689,17.334,16.1143,16.0959,0.0,0.0
236,58.75,119.128,141.646,101.436,113.697,18.2594,0.12998,2.50677,17.2843,15.9842,16.3815,0.0,0.0
238,59.25,120.301,142.858,95.6287,113.719,19.3179,0.132116,2.53447,17.2441,15.754,15.8785,0.0,0.0
240,59.75,121.767,144.986,89.6118,113.743,17.8326,0.134284,2.5569,17.1979,15.5338,16.597,0.0,0.0
242,60.25,122.647,146.165,91.1529,113.764,20.1753,0.136041,2.58457,17.1606,15.3836,15.4931,0.0,0.0
244,60.75,124.266,147.633,97.7468,113.796,17.2398,0.138542,2.60698,17.1206,15.2135,16.904,0.0,0.0
246,61.25,125.35,149.419,86.0015,113.825,17.8437,0.140569,2.635,17.0795,15.0033,16.5978,0.0,0.0
248,61.75,125.965,150.767,88.0471,113.856,16.1531,0.142994,2.6577,17.0463,14.7931,17.4919,0.0,0.0
250,62.25,127.491,152.35,93.7182,113.882,17.3558,0.145663,2.69025,16.9931,14.623,16.8507,0.0,0.0
252,62.75,128.91,153.936,93.7152,113.914,15.9491,0.147826,2.71662,16.95,14.4828,17.6103,0.0,0.0
254,63.25,129.416,155.313,102.787,113.96,16.9202,0.150773,2.75445,16.9021,14.2526,17.0845,0.0,0.0
256,63.75,131.096,157.158,93.0878,113.969,16.2206,0.153161,2.7851,16.8518,14.0925,17.4635,0.0,0.0
258,64.25,132.63,158.788,84.1613,114.021,15.4275,0.155649,2.82033,16.811,13.8423,17.9165,0.0,0.0
260,64.75,133.55,160.311,94.2968,114.043,17.046,0.158164,2.85824,16.7552,13.7121,17.0247,0.0,0.0
262,65.25,134.949,162.453,88.2234,114.094,17.0941,0.160721,2.88895,16.71,13.542,17.0034,0.0,0.0
264,65.75,136.14,164.083,89.179,114.113,14.6728,0.16326,2.93072,16.6577,13.2818,18.373,0.0,0.0
266,66.25,137.236,164.92,84.7085,114.172,17.6855,0.165772,2.96456,16.6152,13.1416,16.7049,0.0,0.0
268,66.75,138.085,167.147,84.9032,114.194,15.6749,0.168216,2.99979,16.5673,12.9014,17.7876,0.0,0.0
270,67.25,140.268,169.67,85.7321,114.246,13.7193,0.170595,3.02832,16.5285,12.7413,18.9853,0.0,0.0
272,67.75,141.417,171.129,88.0379,114.278,13.1376,0.172881,3.05824,16.4721,12.4911,19.376,0.0,0.0
274,68.25,142.607,172.706,95.7157,114.308,12.2853,0.174732,3.08862,16.4264,12.391,19.979,0.0,0.0
276,68.75,143.654,174.703,87.1777,114.344,12.8102,0.176771,3.11935,16.382,12.1608,19.6071,0.0,0.0
278,69.25,144.591,175.832,96.2004,114.376,17.2495,0.178907,3.14975,16.3395,11.8205,16.9445,0.0,0.0
280,69.75,145.991,177.747,96.1768,114.41,15.723,0.181067,3.17953,16.305,11.6703,17.7771,0.0,0.0
282,70.25,147.127,179.344,91.1407,114.453,16.5179,0.183203,3.20831,16.2648,11.5602,17.3387,0.0,0.0
284,70.75,148.532,181.243,85.5375,114.492,15.7355,0.18544,3.23162,16.2322,11.1699,17.7764,0.0,0.0
286,71.25,149.699,182.578,86.0038,114.532,13.7424,0.187708,3.26573,16.1835,11.0998,18.9926,0.0,0.0
288,71.75,150.342,184.387,85.5588,114.553,14.2169,0.190025,3.29336,16.1441,10.8296,18.6903,0.0,0.0
290,72.25,151.78,186.277,77.4826,114.599,14.5073,0.192333,3.32713,16.0745,10.6094,18.5127,0.0,0.0
292,72.75,152.992,187.458,85.068,114.626,14.5836,0.194203,3.36473,16.0181,10.4192,18.4678,0.0,0.0
294,73.25,153.706,189.01,78.0955,114.676,14.8361,0.196961,3.40414,15.9619,10.169,18.318,0.0,0.0
296,73.75,155.355,191.126,72.8915,114.684,15.415,0.199195,3.44412,15.9067,10.0089,17.9757,0.0,0.0
298,74.25,156.101,192.674,82.9584,114.741,13.3336,0.202062,3.48206,15.8621,9.75864,19.2794,0.0,0.0
300,74.75,157.72,194.536,86.8014,114.761,12.7658,0.204384,3.51777,15.8192,9.64855,19.6708,0.0,0.0
302,75.25,159.19,196.333,85.9901,114.804,11.8465,0.206265,3.5467,15.7845,9.38832,20.3437,0.0,0.0
304,75.75,159.819,197.78,81.7936,114.827,13.5968,0.209469,3.57565,15.7564,9.15811,19.1111,0.0,0.0
306,76.25,161.601,200.104,87.6777,114.864,11.5464,0.212064,3.5991,15.724,8.93792,20.5782,0.0,0.0
308,76.75,162.194,201.276,80.1632,114.885,13.3082,0.214165,3.62324,15.6977,8.54757,19.3078,0.0,0.0
310,77.25,163.791,203.157,75.7607,114.92,12.0268,0.217443,3.6428,15.6756,8.42746,20.2173,0.0,0.0
312,77.75,165.017,205.001,79.4114,114.935,11.3267,0.220098,3.6604,15.6569,8.2373,20.7557,0.0,0.0
314,78.25,165.694,206.592,74.5906,114.965,14.098,0.223295,3.67623,15.639,7.88699,18.7976,0.0,0.0
316,78.75,166.845,207.453,84.3116,114.979,14.2677,0.225884,3.68906,15.622,7.76688,18.6915,0.0,0.0
318,79.25,167.865,209.304,75.1455,115.011,15.7776,0.228933,3.69946,15.59,7.55669,17.793,0.0,0.0
320,79.75,168.968,210.856,85.5085,115.017,14.351,0.231403,3.72778,15.5477,7.38654,18.6424,0.0,0.0
322,80.25,170.368,212.662,75.0638,115.05,16.3362,0.234325,3.75072,15.4936,6.93614,17.4844,0.0,0.0
324,80.75,171.945,214.267,70.9536,115.074,15.6911,0.236692,3.79058,15.4319,6.87609,17.8471,0.0,0.0
326,81.25,172.976,216.109,77.7933,115.103,12.5896,0.239345,3.82288,15.3762,6.62587,19.822,0.0,0.0
328,81.75,173.94,217.395,91.4864,115.116,11.0386,0.241495,3.86445,15.3259,6.49575,21.0006,0.0,0.0
330,82.25,174.586,219.392,78.1734,115.138,12.5415,0.243235,3.89813,15.2851,6.24553,19.859,0.0,0.0
332,82.75,176.292,221.349,71.5794,115.141,14.1674,0.244328,3.93481,15.2677,5.91524,18.7673,0.0,0.0
334,83.25,177.192,223.234,81.8173,115.169,14.1036,0.246196,3.96453,15.238,5.69504,18.81,0.0,0.0
336,83.75,179.093,225.465,72.8015,115.172,16.486,0.247839,3.99023,15.214,5.47485,17.4121,0.0,0.0
338,84.25,179.467,227.289,78.3764,115.196,13.3535,0.249287,4.01106,15.1945,5.34473,19.3015,0.0,0.0
340,84.75,181.346,228.757,78.0039,115.21,13.5353,0.25046,4.02475,15.1787,5.04447,19.1815,0.0,0.0
342,85.25,182.426,230.781,82.9309,115.229,11.9145,0.251369,4.03297,15.1699,4.84429,20.3255,0.0,0.0
344,85.75,183.166,231.711,83.8231,115.23,10.7029,0.252013,4.03647,15.1663,4.65412,21.2862,0.0,0.0
346,86.25,184.233,233.037,79.0199,115.241,12.5364,0.252452,4.0401,15.1643,4.36386,19.8707,0.0,0.0
348,86.75,184.957,234.452,80.206,115.25,12.7843,0.252807,4.04091,15.1627,4.24376,19.6959,0.0,0.0
350,87.25,186.605,235.993,83.8064,115.259,15.1565,0.252747,4.03928,15.1728,3.96351,18.172,0.0,0.0
352,87.75,187.361,237.439,93.4045,115.269,12.6044,0.252698,4.03591,15.181,3.71329,19.8244,0.0,0.0
354,88.25,188.665,238.443,88.4829,115.283,16.3653,0.252159,4.03318,15.1883,3.51311,17.4865,0.0,0.0
356,88.75,189.17,240.093,84.3964,115.291,12.9142,0.251722,4.02712,15.1949,3.23286,19.6085,0.0,0.0
358,89.25,189.98,241.155,75.3225,115.301,11.5713,0.251369,4.02221,15.2002,3.15279,20.5928,0.0,0.0
360,89.75,190.764,242.406,76.8674,115.309,12.6608,0.250055,4.01157,15.2151,2.87254,19.7875,0.0,0.0
362,90.25,191.126,243.794,85.6077,115.301,14.0694,0.248991,4.00295,15.2367,2.63233,18.842,0.0,0.0
364,90.75,192.413,244.823,81.6577,115.306,11.4886,0.247233,3.98732,15.2542,2.41214,20.6575,0.0,0.0
366,91.25,193.485,246.154,85.1253,115.323,14.8601,0.245808,3.97466,15.2732,2.31205,18.3539,0.0,0.0
368,91.75,193.843,247.214,83.2095,115.325,14.3357,0.244076,3.96101,15.2886,2.0318,18.6758,0.0,0.0
370,92.25,194.946,248.133,74.815,115.34,15.9575,0.242152,3.94689,15.3068,1.75155,17.717,0.0,0.0
372,92.75,194.943,248.699,79.5435,115.341,13.8432,0.239974,3.93546,15.3215,1.5814,18.9902,0.0,0.0
374,93.25,195.81,250.265,89.4554,115.358,13.1158,0.237652,3.92876,15.3356,1.38122,19.475,0.0,0.0
376,93.75,196.505,250.842,75.3668,115.352,19.656,0.235771,3.92334,15.3471,1.07095,15.8508,0.0,0.0
378,94.25,197.767,251.647,78.4276,115.356,13.9399,0.232477,3.91708,15.363,0.850753,18.929,0.0,0.0
380,94.75,197.366,252.054,78.1848,115.358,16.4046,0.229809,3.91033,15.382,0.770683,17.4709,0.0,0.0
382,95.25,198.372,253.225,88.1204,115.356,11.8506,0.226487,3.89545,15.3973,0.560496,20.3835,0.0,0.0
384,95.75,198.948,254.186,81.2334,115.368,15.6264,0.222751,3.87492,15.4544,0.320284,17.9071,0.0,0.0
386,96.25,199.919,254.883,87.641,115.356,15.0201,0.219725,3.8583,15.5007,0.150133,18.2605,0.0,0.0
388,96.75,200.517,256.176,89.3126,115.357,15.336,0.214704,3.82043,15.5553,-0.120106,18.0742,0.0,0.0
390,97.25,200.819,256.487,88.7211,115.361,14.8934,0.210637,3.78976,15.6148,-0.26023,18.3368,0.0,0.0
392,97.75,200.868,256.682,91.0849,115.352,14.8305,0.205595,3.73885,15.6806,-0.490434,18.374,0.0,0.0
394,98.25,201.599,257.727,79.8495,115.35,13.145,0.201512,3.6976,15.7496,-0.580514,19.4545,0.0,0.0
396,98.75,201.687,257.642,86.403,115.347,17.3267,0.196198,3.6642,15.8056,-0.7907,16.9802,0.0,0.0
398,99.25,202.524,258.49,86.2198,115.33,15.2647,0.191893,3.6028,15.8749,-0.97086,18.1138,0.0,0.0
400,99.75,202.74,258.223,83.7667,115.343,15.9015,0.188407,3.55307,15.9526,-1.12099,17.7487,0.0,0.0
402,100.25,203.027,258.701,92.326,115.333,16.2858,0.183668,3.49373,16.0155,-1.26112,17.5341,0.0,0.0
404,100.75,203.307,259.356,89.908,115.322,16.9554,0.178106,3.42851,16.1367,-1.4713,17.1723,0.0,0.0
406,101.25,203.65,259.296,93.084,115.313,19.096,0.170881,3.35833,16.2348,-1.62144,16.1067,0.0,0.0
408,101.75,203.077,259.033,93.7381,115.314,18.8583,0.165029,3.28587,16.3638,-1.8116,16.219,0.0,0.0
410,102.25,203.206,258.655,89.637,115.302,21.2425,0.15875,3.22718,16.4683,-2.01178,15.1516,0.0,0.0
412,102.75,202.941,258.302,92.642,115.282,23.6129,0.152279,3.15118,16.6183,-2.02179,14.2025,0.0,0.0
414,103.25,202.647,258.134,91.404,115.274,22.1471,0.147038,3.06401,16.7397,-2.24199,14.7759,0.0,0.0
416,103.75,202.814,258.281,95.2837,115.272,24.1942,0.139157,2.97137,16.8789,-2.40213,13.9839,0.0,0.0
418,104.25,202.647,257.264,97.0118,115.267,23.0284,0.132774,2.8765,17.0284,-2.52223,14.4258,0.0,0.0
420,104.75,202.659,256.969,97.498,115.261,26.4476,0.126198,2.77766,17.1494,-2.6023,13.1854,0.0,0.0
422,105.25,201.909,256.323,102.036,115.233,26.0314,0.119606,2.67778,17.3146,-2.75244,13.3253,0.0,0.0
424,105.75,201.519,255.581,103.492,115.228,28.0412,0.114266,2.59689,17.4483,-2.84252,12.6587,0.0,0.0
426,106.25,201.43,254.65,111.699,115.218,30.0388,0.107348,2.47892,17.5892,-2.94261,12.0415,0.0,0.0
428,106.75,200.52,254.262,107.762,115.208,30.7542,0.101745,2.38337,17.7325,-3.03269,11.83,0.0,0.0
430,107.25,199.912,252.875,112.356,115.197,30.1512,0.0952411,2.30597,17.8897,-3.14278,12.0064,0.0,0.0
432,107.75,198.843,251.27,112.066,115.18,31.2934,0.0899729,2.18969,18.0539,-3.21285,11.6721,0.0,0.0
434,108.25,198.296,250.298,110.697,115.178,33.5417,0.0839427,2.09549,18.2204,-3.28291,11.0504,0.0,0.0
436,108.75,197.13,248.71,113.789,115.162,32.615,0.0790584,1.99611,18.3854,-3.39301,11.3001,0.0,0.0
438,109.25,196.399,247.433,115.783,115.141,35.582,0.0733384,1.89484,18.5487,-3.43304,10.5186,0.0,0.0
440,109.75,194.572,245.998,117.806,115.142,37.3443,0.0687052,1.79519,18.7078,-3.46307,10.0857,0.0,0.0
442,110.25,194.401,244.636,124.294,115.128,39.9894,0.0649523,1.69863,18.8367,-3.54314,9.47165,0.0,0.0
444,110.75,193.106,242.636,129.178,115.12,42.6802,0.0598718,1.6032,18.9634,-3.64323,8.88771,0.0,0.0
446,111.25,191.508,240.631,126.424,115.099,42.9605,0.0557567,1.51042,19.0862,-3.62321,8.82745,0.0,0.0
448,111.75,190.1,239.002,126.547,115.1,50.5064,0.0509718,1.42039,19.2079,-3.70328,7.37807,0.0,0.0
450,112.25,188.753,237.036,126.741,115.082,49.0779,0.0470961,1.33409,19.3263,-3.75332,7.63366,0.0,0.0
452,112.75,188.151,235.218,130.434,115.096,64.0361,0.0427758,1.26418,19.4434,-3.77334,5.25183,0.0,0.0
454,113.25,186.693,233.676,129.897,115.07,63.938,0.0392765,1.17635,19.5574,-3.82339,5.26354,0.0,0.0
456,113.75,184.976,231.871,132.721,115.067,74.9632,0.0355001,1.10522,19.6753,-3.85341,3.8383,0.0,0.0
458,114.25,183.693,229.937,133.487,115.054,78.6127,0.0324413,1.03148,19.7939,-3.87343,3.41152,0.0,0.0
460,114.75,182.689,227.902,137.239,115.055,78.825,0.0292225,0.957263,19.8899,-3.89345,3.38748,0.0,0.0
462,115.25,180.868,225.565,137.15,115.029,81.4733,0.0266153,0.876158,19.9997,-3.89345,3.08943,0.0,0.0
464,115.75,179.541,223.731,137.542,115.038,87.7711,0.0241209,0.810462,20.0886,-3.92348,2.42324,0.0,0.0
466,116.25,177.904,221.726,145.31,115.035,92.6358,0.0217561,0.737518,20.1736,-3.90346,1.93976,0.0,0.0
468,116.75,176.666,219.932,145.267,115.032,100.778,0.0198406,0.678432,20.254,-3.89345,1.18496,0.0,0.0
470,117.25,175.003,217.892,144.009,115.01,103.781,0.017984,0.616319,20.3191,-3.91347,0.920187,0.0,0.0
472,117.75,173.659,215.732,142.064,115.014,105.25,0.0162057,0.566007,20.3903,-3.91347,0.794683,0.0,0.0
474,118.25,172.33,213.865,145.766,115.034,106.562,0.0146422,0.518203,20.4479,-3.88344,0.685223,0.0,0.0
476,118.75,170.876,212.146,143.115,115.094,105.9,0.0132649,0.473136,20.5086,-3.89345,0.745712,0.0,0.0
478,119.25,168.77,208.971,142.621,115.164,106.825,0.0120648,0.436631,20.5578,-3.88344,0.673206,0.0,0.0
480,119.75,166.862,207.468,142.782,115.198,106.062,0.0110165,0.400942,20.6082,-3.89345,0.7402,0.0,0.0
482,120.25,165.729,205.104,144.426,115.232,105.705,0.0101674,0.366526,20.649,-3.90346,0.773034,0.0,0.0
484,120.75,164.366,203.354,145.913,115.292,106.342,0.0093708,0.338649,20.6866,-3.91347,0.723768,0.0,0.0
486,121.25,162.733,200.737,143.065,115.335,106.082,0.00872551,0.309541,20.7213,-3.90346,0.749048,0.0,0.0
488,121.75,161.255,198.964,148.101,115.362,106.368,0.00809934,0.285964,20.7493,-3.90346,0.72707,0.0,0.0
490,122.25,160.071,197.767,141.233,115.407,106.888,0.00759213,0.262743,20.7741,-3.91347,0.686839,0.0,0.0
492,122.75,158.95,196.4,146.738,115.461,106.489,0.0071813,0.243934,20.7961,-3.91347,0.724547,0.0,0.0
494,123.25,157.448,194.093,144.758,115.485,106.65,0.00670715,0.225611,20.8147,-3.92348,0.71288,0.0,0.0
496,123.75,156.261,192.241,146.422,115.526,107.168,0.00632309,0.210769,20.8305,-3.93348,0.672664,0.0,0.0
498,124.25,155.02,190.791,141.459,115.546,106.748,0.00596989,0.196318,20.8433,-3.93348,0.709434,0.0,0.0
500,124.75,153.803,189.017,144.722,115.592,106.873,0.0056459,0.184613,20.8558,-3.92348,0.702499,0.0,0.0
502,125.25,152.617,186.615,149.266,115.608,106.876,0.00538346,0.175132,20.866,-3.94349,0.703469,0.0,0.0
504,125.75,150.601,185.348,144.651,115.647,107.205,0.00512525,0.16484,20.8756,-3.9535,0.67898,0.0,0.0
506,126.25,150.38,184.117,147.451,115.663,107.557,0.00491609,0.156504,20.8846,-3.93348,0.650865,0.0,0.0
508,126.75,148.886,182.73,145.775,115.7,106.726,0.00472402,0.148782,20.8919,-3.93348,0.723141,0.0,0.0
510,127.25,148.172,180.741,144.659,115.711,107.708,0.00454804,0.141656,20.9001,-3.94349,0.642036,0.0,0.0
512,127.75,146.908,179.667,146.715,115.749,107.478,0.00438419,0.135884,20.9066,-3.94349,0.664009,0.0,0.0
514,128.25,145.718,177.648,143.266,115.787,107.962,0.00423229,0.129673,20.9133,-3.93348,0.626775,0.0,0.0
516,128.75,144.495,176.574,143.811,115.782,106.421,0.00405619,0.124643,20.9187,-3.93348,0.755093,0.0,0.0
518,129.25,143.027,174.955,147.273,115.792,107.099,0.00391355,0.119913,20.9252,-3.94349,0.699091,0.0,0.0
520,129.75,142.443,173.565,147.926,115.826,107.703,0.00372737,0.115491,20.9307,-3.9535,0.651307,0.0,0.0
522,130.25,141.327,171.902,145.551,115.849,107.076,0.00357656,0.111337,20.9354,-3.93348,0.705355,0.0,0.0
524,130.75,140.507,170.371,144.093,115.868,106.843,0.00345441,0.107458,20.9392,-3.9535,0.726328,0.0,0.0
526,131.25,138.751,169.229,145.759,115.875,107.158,0.00324221,0.1039,20.943,-3.9535,0.700548,0.0,0.0
528,131.75,138.053,168.121,142.12,115.888,107.968,0.00307033,0.100644,20.9467,-3.91347,0.634101,0.0,0.0
530,132.25,137.397,166.592,145.082,115.898,107.04,0.00283322,0.0976448,20.9499,-3.9535,0.712156,0.0,0.0
532,132.75,136.398,165.238,143.861,115.913,107.164,0.00264117,0.0948887,20.9527,-3.96351,0.702955,0.0,0.0
534,133.25,135.349,163.978,147.746,115.926,107.427,0.00239548,0.0922793,20.9554,-3.97352,0.68201,0.0,0.0
536,133.75,134.415,162.585,143.211,115.934,107.212,0.00219648,0.0898265,20.958,-3.94349,0.700534,0.0,0.0
538,134.25,133.252,161.167,145.671,115.944,108.039,0.00196159,0.0878397,20.9609,-3.92348,0.632484,0.0,0.0
540,134.75,132.748,160.191,143.825,115.94,107.06,0.00177134,0.0855294,20.9638,-3.97352,0.713729,0.0,0.0
542,135.25,131.44,158.869,142.472,115.949,107.969,0.00153871,0.0836581,20.9663,-3.96351,0.638714,0.0,0.0
544,135.75,130.373,157.607,145.707,115.959,107.773,0.00135027,0.0818549,20.9686,-3.94349,0.65572,0.0,0.0
546,136.25,129.735,156.106,148.192,115.957,107.244,0.00114594,0.0801357,20.9705,-3.96351,0.69965,0.0,0.0
548,136.75,128.306,154.899,146.925,115.967,107.109,0.000933904,0.0782398,20.9725,-3.9535,0.711701,0.0,0.0
550,137.25,127.883,153.62,145.826,115.956,108.482,0.000762153,0.076704,20.974,-3.98353,0.596741,0.0,0.0
552,137.75,127.03,153.003,144.897,115.953,107.479,0.000688932,0.075055,20.9747,-3.98353,0.679761,0.0,0.0
554,138.25,125.944,151.338,146.414,115.945,107.728,0.000423459,0.0737192,20.976,-3.98353,0.658471,0.0,0.0
556,138.75,125.577,150.364,141.681,115.952,107.788,0.000208425,0.0722045,20.9772,-4.00355,0.65402,0.0,0.0
558,139.25,125.09,149.114,148.092,115.937,107.627,-3.77627e-05,0.0709776,20.9786,-3.98353,0.666203,0.0,0.0
560,139.75,123.887,148.16,143.932,115.94,107.816,-0.000237175,0.0699839,20.9802,-3.97352,0.650694,0.0,0.0
562,140.25,122.997,146.49,147.45,115.913,107.501,-0.000457052,0.0686203,20.9814,-3.96351,0.674859,0.0,0.0
564,140.75,122.477,146.588,143.831,115.906,107.256,-0.000635153,0.068039,20.9825,-3.96351,0.694721,0.0,0.0
566,141.25,121.123,145.077,145.234,115.912,107.685,-0.000830319,0.0670449,20.9833,-3.96351,0.659428,0.0,0.0
568,141.75,120.626,144.186,144.229,115.886,107.866,-0.000988403,0.065794,20.9848,-3.96351,0.6424,0.0,0.0
570,142.25,120.077,143.012,146.319,115.87,107.533,-0.00117853,0.0647808,20.9863,-3.96351,0.668852,0.0,0.0
572,142.75,119.162,142.101,147.396,115.858,108.437,-0.00133253,0.0637234,20.9877,-3.9535,0.592916,0.0,0.0
574,143.25,118.595,141.191,145.155,115.839,107.341,-0.00148799,0.062867,20.9889,-3.97352,0.682491,0.0,0.0
576,143.75,117.998,139.65,145.413,115.807,107.889,-0.00164154,0.0620561,20.9898,-3.96351,0.634328,0.0,0.0
578,144.25,117.113,139.112,143.778,115.81,107.447,-0.00176593,0.0612938,20.9905,-3.94349,0.671364,0.0,0.0
580,144.75,116.313,137.944,146.713,115.789,107.493,-0.00192627,0.06053,20.9911,-3.96351,0.665946,0.0,0.0
582,145.25,115.652,136.967,149.24,115.752,107.145,-0.00205615,0.0597796,20.9919,-3.97352,0.692093,0.0,0.0
584,145.75,114.938,136.071,148.466,115.733,108.774,-0.00216136,0.0590694,20.9927,-3.99354,0.555467,0.0,0.0
586,146.25,114.009,135.298,145.252,115.708,107.733,-0.0022701,0.0584019,20.9933,-3.9535,0.639629,0.0,0.0
588,146.75,113.552,134.441,146.941,115.674,107.667,-0.00237934,0.0578612,20.9936,-3.99354,0.642542,0.0,0.0
590,147.25,112.421,133.18,141.461,115.643,107.048,-0.00246784,0.0572288,20.9939,-3.98353,0.691762,0.0,0.0
592,147.75,112.185,132.319,145.163,115.617,106.874,-0.00256563,0.0567165,20.9941,-3.99354,0.704357,0.0,0.0
594,148.25,111.586,131.561,145.133,115.587,108.076,-0.00264484,0.0563015,20.9943,-3.98353,0.601815,0.0,0.0
596,148.75,110.781,130.579,147.36,115.556,106.799,-0.00275618,0.0557973,20.995,-4.00355,0.705857,0.0,0.0
598,149.25,110.535,129.795,148.184,115.531,107.683,-0.00284637,0.0552376,20.996,-3.99354,0.630111,0.0,0.0
600,149.75,109.076,128.958,143.799,115.482,107.377,-0.0029666,0.0547842,20.9968,-4.00355,0.651778,0.0,0.0
602,150.25,109.117,128.105,144.245,115.458,107.274,-0.00306399,0.0542235,20.9975,-3.98353,0.658523,0.0,0.0
604,150.75,108.112,127.846,148.771,115.409,106.767,-0.00319005,0.0537693,20.9983,-3.99354,0.697143,0.0,0.0
606,151.25,107.851,126.305,148.477,115.376,106.685,-0.00329217,0.0533138,20.9992,-4.00355,0.701456,0.0,0.0
608,151.75,107.013,125.003,144.386,115.325,106.69,-0.00337488,0.0528659,20.9998,-3.98353,0.697084,0.0,0.0
610,152.25,106.456,124.789,145.037,115.285,106.833,-0.00350023,0.0524375,21.0004,-3.99354,0.681986,0.0,0.0
612,152.75,106.039,124.538,145.123,115.246,107.584,-0.00360176,0.0520313,21.0009,-4.01356,0.616243,0.0,0.0
614,153.25,105.131,123.321,146,115.247,106.8,-0.00370635,0.0516366,21.0012,-4.02356,0.681816,0.0,0.0
616,153.75,104.533,122.473,149.672,115.257,107.354,-0.00379107,0.0512577,21.0015,-4.01356,0.63628,0.0,0.0
618,154.25,105.031,122.008,147.856,115.273,107.204,-0.00387087,0.0508852,21.0017,-3.98353,0.650033,0.0,0.0
620,154.75,103.881,121.151,147.154,115.277,108.011,-0.0039355,0.0505243,21.0019,-3.96351,0.583117,0.0,0.0
622,155.25,102.874,120.738,150.595,115.295,107.34,-0.00399655,0.050232,21.0023,-3.98353,0.640361,0.0,0.0
624,155.75,103.031,119.729,145.423,115.31,107.887,-0.004046,0.0498567,21.0028,-3.99354,0.595998,0.0,0.0
626,156.25,101.963,118.979,147.531,115.334,107.553,-0.00410343,0.0495526,21.0035,-4.01356,0.625625,0.0,0.0
628,156.75,101.732,118.266,142.741,115.342,107.637,-0.00414995,0.0492232,21.0042,-4.01356,0.61924,0.0,0.0
630,157.25,101.179,117.595,148.85,115.366,106.726,-0.00420329,0.0489563,21.0048,-4.01356,0.697198,0.0,0.0
632,157.75,101.052,116.494,148.369,115.352,107.682,-0.00426059,0.0486432,21.0053,-4.01356,0.616313,0.0,0.0
634,158.25,100.541,116.42,142.71,115.409,106.899,-0.00428502,0.0483896,21.0055,-3.97352,0.686131,0.0,0.0
636,158.75,99.7008,115.671,143.072,115.398,107.027,-0.00437335,0.0481425,21.0059,-3.98353,0.674527,0.0,0.0
638,159.25,99.484,114.97,149.595,115.439,107.447,-0.00441526,0.0479425,21.006,-3.99354,0.642669,0.0,0.0
640,159.75,98.4316,114.529,148.127,115.44,107.464,-0.00448691,0.047725,21.0061,-3.99354,0.641317,0.0,0.0
642,160.25,98.4594,113.32,145.629,115.482,106.721,-0.00458592,0.0475488,21.0062,-3.98353,0.706684,0.0,0.0
644,160.75,98.0396,112.682,144.157,115.484,106.618,-0.00466612,0.0474061,21.0062,-3.98353,0.71549,0.0,0.0
646,161.25,97.5394,112.624,142.722,115.498,107.453,-0.00476709,0.0473012,21.0063,-4.00355,0.646693,0.0,0.0
648,161.75,96.6068,111.535,146.445,115.517,107.652,-0.00484888,0.0471216,21.0063,-3.99354,0.631593,0.0,0.0
650,162.25,96.5199,111.223,144.654,115.55,106.998,-0.00494119,0.0469762,21.0064,-3.99354,0.688718,0.0,0.0
652,162.75,96.2665,110.619,146.311,115.548,107.651,-0.00501597,0.0467753,21.0064,-3.99354,0.634042,0.0,0.0
654,163.25,95.5285,110.205,147.805,115.574,107.035,-0.00509268,0.0466126,21.0064,-4.01356,0.687447,0.0,0.0
656,163.75,94.9876,109.529,147.485,115.597,107.223,-0.00515481,0.0464254,21.0064,-4.00355,0.673572,0.0,0.0
658,164.25,94.7915,109.318,142.933,115.614,106.778,-0.00522252,0.0462738,21.0067,-4.01356,0.712127,0.0,0.0
660,164.75,94.0459,107.598,145.545,115.634,107.086,-0.00527737,0.0460817,21.0071,-4.00355,0.687895,0.0,0.0
662,165.25,93.9475,107.67,147.925,115.671,107.224,-0.0053218,0.0459262,21.0074,-3.99354,0.679219,0.0,0.0
664,165.75,93.6392,106.677,147.105,115.677,107.03,-0.00539006,0.0457725,21.0077,-3.99354,0.695893,0.0,0.0
666,166.25,93.4189,106.251,145.011,115.706,107.522,-0.00544536,0.045648,21.0079,-3.98353,0.657072,0.0,0.0
668,166.75,92.7546,105.973,144.121,115.736,107.308,-0.00551374,0.0455333,21.0081,-3.99354,0.677294,0.0,0.0
670,167.25,91.7677,105.248,145.823,115.742,107.59,-0.00556912,0.0454404,21.0082,-3.99354,0.654216,0.0,0.0
672,167.75,91.497,104.729,148.313,115.753,108.311,-0.00562904,0.0453215,21.0083,-3.96351,0.595232,0.0,0.0
674,168.25,91.2804,104.033,144.566,115.781,107.726,-0.00569113,0.0451858,21.0084,-3.98353,0.645891,0.0,0.0
676,168.75,91.4591,103.701,145.052,115.78,107.761,-0.00574142,0.0450759,21.0085,-3.99354,0.642894,0.0,0.0
678,169.25,90.2683,103.308,142.526,115.814,108.02,-0.00578215,0.0449038,21.0086,-3.99354,0.624055,0.0,0.0
680,169.75,89.8413,101.815,149.018,115.828,107.98,-0.00583129,0.0447644,21.0082,-4.01356,0.628445,0.0,0.0
682,170.25,89.4495,101.759,143.569,115.876,107.314,-0.00586521,0.0445685,21.008,-3.99354,0.687529,0.0,0.0
684,170.75,89.2832,101.361,145.093,115.871,108.173,-0.00588739,0.0444098,21.0078,-3.98353,0.615775,0.0,0.0
686,171.25,89.4668,100.954,146.393,115.898,109.133,-0.00590535,0.0442812,21.0076,-3.98353,0.538668,0.0,0.0
688,171.75,88.7622,100.375,148.524,115.907,107.953,-0.00590128,0.0441848,21.0075,-3.98353,0.636782,0.0,0.0
690,172.25,88.1729,99.9468,149.073,115.928,106.876,-0.00589658,0.0441136,21.0073,-4.00355,0.728267,0.0,0.0
692,172.75,87.8776,99.7447,146.641,115.929,108.388,-0.00587307,0.044056,21.0072,-3.99354,0.602458,0.0,0.0
694,173.25,88.136,99.5007,148.353,115.963,108.536,-0.00586305,0.0439955,21.0072,-4.00355,0.592819,0.0,0.0
696,173.75,87.1846,98.039,142.946,115.98,107.085,-0.00584787,0.0439464,21.0071,-4.00355,0.71473,0.0,0.0
698,174.25,86.6582,98.0768,150.587,115.996,108.413,-0.00583734,0.0438514,21.0075,-3.98353,0.605558,0.0,0.0
700,174.75,86.4731,97.7716,144.716,116.012,108.075,-0.00583889,0.0437744,21.0078,-3.98353,0.634803,0.0,0.0
702,175.25,86.4709,97.1896,147.525,116.024,107.756,-0.00584797,0.0436577,21.0081,-3.99354,0.662157,0.0,0.0
704,175.75,85.9253,96.6359,146.61,116.034,108.094,-0.00588048,0.0435898,21.0083,-3.99354,0.63494,0.0,0.0
706,176.25,85.644,96.0985,148.719,116.062,107.764,-0.00592211,0.0435609,21.0084,-4.00355,0.66441,0.0,0.0
708,176.75,85.6749,95.7021,145.303,116.068,109.11,-0.00596955,0.0435529,21.0086,-3.99354,0.553761,0.0,0.0
710,177.25,85.1999,94.8983,146.029,116.081,108.069,-0.00602033,0.0435465,21.0087,-3.99354,0.640606,0.0,0.0
712,177.75,84.7707,94.9436,148.313,116.083,107.815,-0.00606146,0.0435136,21.0088,-4.02356,0.661856,0.0,0.0
714,178.25,84.237,94.6231,145.673,116.093,107.014,-0.0061098,0.0434869,21.0089,-4.01356,0.729444,0.0,0.0
716,178.75,83.8427,93.9135,147.394,116.111,107.052,-0.00616249,0.0433961,21.0089,-4.01356,0.727537,0.0,0.0
718,179.25,83.3887,93.2312,145.219,116.131,107.637,-0.00620517,0.0433226,21.009,-4.02356,0.680286,0.0,0.0
720,179.75,83.5381,92.6448,145.46,116.127,107.664,-0.0062596,0.0433046,21.009,-4.02356,0.677764,0.0,0.0
722,180.25,83.3199,93.2097,142.571,116.138,106.911,-0.00630369,0.0432899,21.009,-4.01356,0.741526,0.0,0.0
724,180.75,82.8575,91.9407,149.672,116.134,108.683,-0.0063394,0.0433334,21.0091,-4.00355,0.593991,0.0,0.0
726,181.25,82.5968,91.4821,147.192,116.141,108.509,-0.00636833,0.0433687,21.0091,-4.00355,0.608839,0.0,0.0
728,181.75,82.3019,91.3527,146.081,116.155,108.622,-0.00639176,0.0433972,21.0091,-4.00355,0.60058,0.0,0.0
730,182.25,82.2772,90.9527,148.057,116.163,108.641,-0.0063946,0.043365,21.0091,-4.00355,0.599635,0.0,0.0
732,182.75,81.8731,90.9977,148.743,116.166,109.665,-0.00638448,0.0433389,21.0091,-3.99354,0.515873,0.0,0.0
734,183.25,81.238,90.4443,152.118,116.165,108.542,-0.00636511,0.0433032,21.0091,-4.01356,0.608018,0.0,0.0
736,183.75,80.9225,89.3885,146.125,116.157,108.172,-0.00634093,0.0432612,21.0091,-4.01356,0.637946,0.0,0.0
738,184.25,81.307,89.4655,149,116.169,108.343,-0.0063137,0.0432271,21.0091,-4.01356,0.624769,0.0,0.0
740,184.75,80.8155,89.5067,146.755,116.175,108.456,-0.00628968,0.0431719,21.0091,-4.01356,0.615807,0.0,0.0
742,185.25,80.5516,88.788,145.967,116.171,108.742,-0.00626846,0.0431271,21.0091,-4.00355,0.591906,0.0,0.0
744,185.75,80.5922,88.5611,147.358,116.182,108.083,-0.00625127,0.0430909,21.0092,-3.99354,0.647222,0.0,0.0
746,186.25,80.2178,88.2845,147.999,116.177,107.792,-0.00624061,0.0430615,21.0092,-3.98353,0.670997,0.0,0.0
748,186.75,79.6752,88.0333,149.958,116.171,107.504,-0.00623492,0.0430101,21.0092,-4.00355,0.694499,0.0,0.0
750,187.25,79.067,87.3306,146.043,116.15,107.914,-0.00623162,0.0429684,21.0092,-4.00355,0.658755,0.0,0.0
752,187.75,78.9407,86.7149,144.276,116.16,107.977,-0.00623012,0.0429623,21.0092,-3.97352,0.654335,0.0,0.0
754,188.25,79.1397,86.3214,146.006,116.155,108.387,-0.00622839,0.0429574,21.0092,-3.97352,0.62001,0.0,0.0
756,188.75,79.0452,86.3458,144.944,116.143,108.333,-0.0062275,0.0429534,21.0092,-3.97352,0.623539,0.0,0.0
758,189.25,78.7589,85.9151,145.901,116.136,108.501,-0.00622713,0.0429502,21.0092,-3.97352,0.609125,0.0,0.0
760,189.75,78.7112,85.9305,147.958,116.143,108.502,-0.00623145,0.0429111,21.0092,-3.96351,0.609556,0.0,0.0
762,190.25,77.9081,85.234,147.414,116.123,108.438,-0.00623495,0.0428468,21.0092,-3.96351,0.613301,0.0,0.0
764,190.75,77.8573,85.2287,145.459,116.134,108.25,-0.00624497,0.0427946,21.0092,-3.98353,0.629697,0.0,0.0
766,191.25,77.8005,85.0332,142.438,116.104,107.711,-0.00625956,0.0427344,21.0092,-4.00355,0.6721,0.0,0.0
768,191.75,77.7338,84.4011,148.749,116.1,108.142,-0.00627138,0.0427182,21.0092,-4.00355,0.636003,0.0,0.0
770,192.25,77.3224,83.9878,150.959,116.072,109.232,-0.00628944,0.0426766,21.0092,-4.01356,0.544035,0.0,0.0
772,192.75,76.6455,83.7815,144.526,116.084,108.091,-0.00631172,0.042643,21.009,-4.00355,0.63902,0.0,0.0
774,193.25,76.9703,83.7308,151.026,116.05,107.758,-0.00632977,0.0426157,21.0089,-4.02356,0.664077,0.0,0.0
776,193.75,76.3727,83.1209,146.557,116.081,108.05,-0.00635484,0.0425937,21.0089,-4.00355,0.642213,0.0,0.0
778,194.25,76.2662,83.1684,147.979,116.05,107.692,-0.00638456,0.0425758,21.0088,-3.99354,0.6695,0.0,0.0
780,194.75,75.9847,82.5872,147.238,116.039,108.989,-0.00641647,0.0425467,21.0087,-4.00355,0.561497,0.0,0.0
782,195.25,75.78,82.2635,147.946,116.003,107.821,-0.00644938,0.0425101,21.0087,-3.98353,0.655218,0.0,0.0
784,195.75,75.5608,82.2423,144.703,116.007,108.375,-0.00647604,0.0424804,21.0087,-4.00355,0.609562,0.0,0.0
786,196.25,75.4904,81.6699,149.002,115.976,109.184,-0.00649763,0.0424149,21.0086,-4.01356,0.540567,0.0,0.0
788,196.75,75.3588,81.481,146.812,115.96,107.924,-0.00650662,0.0423619,21.0086,-4.01356,0.643309,0.0,0.0
790,197.25,75.2549,81.4607,147.593,115.947,108.367,-0.00650626,0.0422897,21.0086,-3.99354,0.605636,0.0,0.0
792,197.75,75.0045,80.9357,145.541,115.948,108.03,-0.00649225,0.0422051,21.0086,-3.99354,0.633618,0.0,0.0
794,198.25,74.637,81.3471,143.702,115.907,108.429,-0.00646854,0.0421366,21.0086,-3.97352,0.597389,0.0,0.0
796,198.75,74.6451,80.6451,150.194,115.892,108.252,-0.00644934,0.0421226,21.0086,-3.97352,0.610828,0.0,0.0
798,199.25,74.4282,80.481,146.302,115.869,108.302,-0.00640767,0.0421112,21.0085,-3.98353,0.604951,0.0,0.0
800,199.75,73.9744,80.3673,149.337,115.854,108.453,-0.00637391,0.0421159,21.0085,-3.98353,0.591292,0.0,0.0
802,200.25,74.0447,80.018,147.703,115.817,107.959,-0.00634656,0.0421196,21.0085,-3.98353,0.629372,0.0,0.0
804,200.75,74.0514,79.9265,149.449,115.811,107.601,-0.00631572,0.0421226,21.0084,-3.97352,0.65857,0.0,0.0
806,201.25,73.8723,79.1664,143.565,115.782,107.764,-0.00629074,0.0421469,21.0083,-3.99354,0.642809,0.0,0.0
808,201.75,73.1845,78.9947,142.533,115.766,107.55,-0.006279,0.0421863,21.0082,-4.00355,0.659385,0.0,0.0
810,202.25,73.3297,78.741,145.139,115.733,108.058,-0.00627714,0.0422181,21.0081,-3.99354,0.614609,0.0,0.0
812,202.75,73.4994,78.4678,147.467,115.721,108.163,-0.00628347,0.0422071,21.008,-4.01356,0.604966,0.0,0.0
814,203.25,72.6035,78.4854,146.602,115.691,108.701,-0.00629566,0.0421651,21.0079,-4.01356,0.558244,0.0,0.0
816,203.75,73.0138,78.0613,143.659,115.67,108.405,-0.0063088,0.0421311,21.0079,-4.00355,0.58106,0.0,0.0
818,204.25,73.0366,77.5722,151.768,115.661,107.701,-0.00632238,0.0420962,21.0078,-4.01356,0.638639,0.0,0.0
820,204.75,72.0006,77.5935,151.263,115.625,108.427,-0.00633207,0.0420614,21.0078,-4.02356,0.57569,0.0,0.0
822,205.25,72.1115,77.5284,149.501,115.597,107.907,-0.00633875,0.0420551,21.0078,-4.02356,0.616582,0.0,0.0
824,205.75,72.0927,76.9435,148.286,115.596,107.765,-0.00634024,0.0420696,21.0077,-4.02356,0.62834,0.0,0.0
826,206.25,71.7431,76.6848,147.515,115.561,107.878,-0.00633791,0.0420741,21.0077,-4.00355,0.616229,0.0,0.0
828,206.75,72.1838,76.4774,147.409,115.536,107.496,-0.00633603,0.0420711,21.0077,-4.00355,0.646029,0.0,0.0
830,207.25,71.7747,76.1197,146.723,115.511,108.531,-0.00632863,0.0420688,21.0077,-3.99354,0.558272,0.0,0.0
832,207.75,71.1741,76.349,144.913,115.49,108.562,-0.00631733,0.0420669,21.0077,-4.00355,0.554111,0.0,0.0
834,208.25,71.4937,75.6817,150.493,115.447,107.707,-0.00630688,0.0420653,21.0077,-4.02356,0.621612,0.0,0.0
836,208.75,71.1534,75.3414,145.845,115.446,107.492,-0.00629724,0.042064,21.0077,-4.02356,0.639406,0.0,0.0
838,209.25,71.6403,75.6524,147.325,115.401,107.002,-0.0062888,0.042063,21.0077,-4.01356,0.676836,0.0,0.0
840,209.75,70.3196,75.3524,146.612,115.377,107.451,-0.0062814,0.0420484,21.0077,-4.00355,0.637501,0.0,0.0
842,210.25,70.7128,74.9214,148.916,115.344,107.319,-0.00627541,0.0420365,21.0077,-3.99354,0.645975,0.0,0.0
844,210.75,70.6166,75.035,145.284,115.326,106.582,-0.00628049,0.0420414,21.0077,-3.97352,0.70632,0.0,0.0
846,211.25,70.8455,74.7022,149.164,115.287,107.416,-0.00628461,0.0420585,21.0079,-3.99354,0.633375,0.0,0.0
848,211.75,70.1194,74.6668,146.706,115.26,108.32,-0.00629839,0.042087,21.008,-4.00355,0.556219,0.0,0.0
850,212.25,69.8257,74.5389,145.413,115.222,108.499,-0.00631897,0.0421231,21.0081,-3.98353,0.538506,0.0,0.0
852,212.75,69.9674,73.9533,144.413,115.204,107.702,-0.00634348,0.0421523,21.0082,-4.01356,0.603177,0.0,0.0
854,213.25,69.9266,74.1456,144.297,115.188,107.161,-0.00637039,0.0421906,21.0082,-4.02356,0.647003,0.0,0.0
856,213.75,69.731,74.2962,149.121,115.14,107.048,-0.00639219,0.0422217,21.0083,-4.04358,0.652708,0.0,0.0
858,214.25,69.3507,73.5919,143.418,115.108,107.259,-0.00641508,0.042233,21.0083,-4.07361,0.63259,0.0,0.0
860,214.75,69.5451,73.7555,151.697,115.081,107.235,-0.00643832,0.0422421,21.0084,-4.03357,0.632511,0.0,0.0
862,215.25,68.5691,72.6579,147.061,115.052,107.985,-0.00645714,0.0422277,21.0084,-3.9535,0.567805,0.0,0.0
864,215.75,69.0451,72.4329,146.088,115.02,107.463,-0.00645736,0.0421964,21.0084,-3.9535,0.608762,0.0,0.0
866,216.25,68.9913,72.8425,152.191,114.981,107.515,-0.00644401,0.042171,21.0089,-3.98353,0.601364,0.0,0.0
868,216.75,68.8841,73.0023,149.266,114.948,106.863,-0.0064234,0.0421228,21.0092,-3.97352,0.653209,0.0,0.0
870,217.25,68.4724,72.4177,146.375,114.909,106.399,-0.00639788,0.0420837,21.0095,-3.99354,0.689165,0.0,0.0
872,217.75,68.6033,72.3182,147.229,114.871,106.77,-0.00637224,0.0420521,21.0098,-3.98353,0.655023,0.0,0.0
874,218.25,68.4015,72.1708,147.518,114.853,106.714,-0.00635147,0.042041,21.01,-3.97352,0.658361,0.0,0.0
876,218.75,68.3721,72.4582,146.934,114.82,106.617,-0.00633341,0.0420452,21.0101,-3.98353,0.663948,0.0,0.0
878,219.25,68.0666,71.4077,145.651,114.796,107.508,-0.00631878,0.0420412,21.0103,-3.99354,0.587485,0.0,0.0
880,219.75,67.8786,71.6567,145.358,114.764,107.577,-0.00630758,0.0420315,21.0104,-3.99354,0.579287,0.0,0.0
882,220.25,68.1574,71.1202,147.382,114.753,106.657,-0.0062991,0.0420091,21.0105,-4.00355,0.655318,0.0,0.0
884,220.75,68.0207,71.3048,145.871,114.72,107.199,-0.00629223,0.0419778,21.0105,-4.00355,0.607421,0.0,0.0
886,221.25,67.759,70.8011,144.555,114.694,107.712,-0.00629448,0.0419379,21.0105,-3.99354,0.562538,0.0,0.0
888,221.75,67.6406,70.6359,149.547,114.653,106.547,-0.00630333,0.0418925,21.0104,-4.00355,0.656811,0.0,0.0
890,222.25,67.623,71.1742,147.274,114.646,107.672,-0.00632161,0.0418484,21.0103,-4.00355,0.562172,0.0,0.0
892,222.75,67.6921,70.2576,144.081,114.624,108.102,-0.00634642,0.0418062,21.0102,-4.02356,0.524738,0.0,0.0
894,223.25,66.93,70.1234,143.308,114.615,107.489,-0.00636912,0.041772,21.0102,-4.02356,0.574953,0.0,0.0
896,223.75,66.9756,69.8478,143.805,114.575,106.316,-0.00638987,0.0417988,21.0101,-4.01356,0.670124,0.0,0.0
898,224.25,67.0754,69.9961,148.408,114.568,107.859,-0.00639948,0.0418205,21.0101,-4.03357,0.540536,0.0,0.0
900,224.75,67.0099,69.8808,146.254,114.526,107.682,-0.0064008,0.0418454,21.0101,-4.04358,0.551942,0.0,0.0
902,225.25,66.4562,69.9492,147.606,114.507,106.714,-0.00639337,0.0418721,21.0101,-4.03357,0.631269,0.0,0.0
904,225.75,66.7029,70.1841,150.233,114.492,107.004,-0.00637971,0.041901,21.01,-4.01356,0.605863,0.0,0.0
906,226.25,66.9043,69.8632,148.176,114.462,106.8,-0.00636669,0.041931,21.01,-4.02356,0.620554,0.0,0.0
908,226.75,66.5273,69.8575,147.074,114.444,107.657,-0.0063602,0.0419552,21.01,-4.02356,0.547539,0.0,0.0
910,227.25,65.9602,68.9649,146.467,114.428,107.24,-0.00634912,0.0419472,21.01,-4.01356,0.581133,0.0,0.0
912,227.75,66.1223,69.0711,150.546,114.396,106.38,,0.0419189,,-4.00355,0.650758,0.0,0.0
914,228.25,66.3482,68.9407,145.951,114.387,107.073,,0.0418763,,-4.01356,0.591806,0.0,0.0
916,228.75,66.1369,68.8982,148.566,114.363,107.225,,0.0418491,,-4.01356,0.577287,0.0,0.0
918,229.25,65.9541,68.6642,148.689,114.334,108.09,,0.0418336,,-4.01356,0.50305,0.0,0.0
920,229.75,65.7139,68.3551,144.89,114.325,106.421,,0.0418211,,-4.02356,0.641726,0.0,0.0
922,230.25,66.2681,68.4073,149.228,114.317,106.695,,0.0418157,,-4.00355,0.618011,0.0,0.0
924,230.75,65.9449,67.9742,146.396,114.284,107.123,,,,-4.01356,0.579593,0.0,0.0
926,231.25,65.9599,68.2578,147.153,114.271,106.86,,,,-3.98353,0.600587,0.0,0.0
928,231.75,65.7355,68.0774,146.32,114.245,107.801,,,,-3.98353,0.52006,0.0,0.0
930,232.25,65.398,68.2243,147.667,114.234,107.492,,,,-3.98353,0.544841,0.0,0.0
932,232.75,65.5991,68.0643,146.441,114.211,107.465,,,,-4.00355,0.545346,0.0,0.0
934,233.25,65.2178,68.2011,147.812,114.207,107.167,,,,-4.03357,0.569906,0.0,0.0
936,233.75,65.2799,67.8554,148.199,114.169,107.377,,,,-4.04358,0.549386,0.0,0.0
938,234.25,64.8048,67.1369,149.671,114.177,106.877,,,,-4.03357,0.591771,0.0,0.0
940,234.75,65.466,66.9703,148.691,114.131,107.127,,,,-4.00355,0.567323,0.0,0.0
942,235.25,64.9902,67.3545,151.02,114.142,106.658,,,,-4.00355,0.607427,0.0,0.0
944,235.75,64.6549,66.9548,146.844,114.119,107.693,,,,-4.01356,0.519124,0.0,0.0
946,236.25,64.7503,67.1059,147.396,114.114,106.176,,,,-4.01356,0.645809,0.0,0.0
948,236.75,64.2589,66.8466,146.845,114.108,107.521,,,,-4.01356,0.532631,0.0,0.0
950,237.25,64.4262,66.8246,148.254,114.098,107.685,,,,-4.02356,0.518154,0.0,0.0
952,237.75,63.916,66.6243,145.779,114.06,107.218,,,,-4.00355,0.554093,0.0,0.0
954,238.25,63.7875,66.8554,149.232,114.059,106.571,,,,-4.00355,0.608268,0.0,0.0