File: 01_Data/PlasticC/Cone/PlasticC_Cone_HF50Scan_220218_R3.csv
Names,Time,Stack TC,Smoke TC,Exh Press,Smoke Comp,Smoke Meas,CO Meter,CO2 Meter,O2 Meter,Sample Mass,Ext Coeff,Start Test,Flame Verif
Chan Gain,,500,500,1,1,1,1,1,1,1,1,1.0,1.0
Offset,,0,0,0.132436,0,0,0,0,0,0,0,0.0,0.0
Gain,,1,1,25.011,15.4219,15.1528,1,1,1,1.00089,1.02113,1.0,1.0
Units,sec,C,C,Pa,%,%,%,%,%,g,/m,,
Baseline,,31.4762,31.7719,162.055,113.62,111.164,-0.00598358,0.0456007,21.0002,-477.882,0.195764,,
3,0.5,30.1046,30.285,160.046,112.679,109.169,-0.00602246,0.0539856,20.9919,31.6881,0.28343,0.0,0.0
6,1.25,29.4518,29.7601,155.687,112.686,110.172,-0.00595828,0.0538325,20.9924,31.598,0.202109,0.0,0.0
9,2,30.0675,29.5984,160.628,112.705,110.97,-0.00588316,0.0536312,20.9928,30.8773,0.138947,0.0,0.0
12,2.75,29.5947,29.8698,156.121,112.683,110.75,-0.0058284,0.0534595,20.993,31.1075,0.155011,0.0,0.0
15,3.5,29.3344,29.5104,162.429,112.701,111.674,-0.00578232,0.0532233,20.9932,31.638,0.0819799,0.0,0.0
18,4.25,29.4685,29.9106,164.121,112.714,110.578,-0.00575787,0.0528941,20.9934,31.558,0.171405,0.0,0.0
21,5,29.4601,29.8375,159.27,112.713,109.618,-0.00576016,0.0524669,20.9937,31.4979,0.249395,0.0,0.0
24,5.75,29.5088,29.9327,159.043,112.722,110.627,-0.00582203,0.051851,20.9944,30.9374,0.168071,0.0,0.0
27,6.5,29.3584,30.0411,161.018,112.727,111.131,-0.00588479,0.0512723,20.9951,30.9674,0.127688,0.0,0.0
30,7.25,29.4062,30.0496,159.654,112.743,110.072,-0.0059607,0.0505539,20.9962,31.558,0.214758,0.0,0.0
33,8,29.3163,29.9629,165.08,112.753,110.8,-0.00603729,0.0499863,20.997,31.3778,0.156545,0.0,0.0
36,8.75,29.8434,29.6073,165.871,112.753,110.754,-0.00610306,0.0494977,20.9976,31.4879,0.16021,0.0,0.0
39,9.5,29.4314,30.3951,159.31,112.772,110.443,-0.00615525,0.0489241,20.9981,31.1376,0.186947,0.0,0.0
42,10.25,29.7511,29.4397,163.02,112.802,110.891,-0.00620322,0.0484331,20.9986,31.2777,0.153072,0.0,0.0
45,11,29.4483,30.1745,161.277,112.782,111.188,-0.00624242,0.0479504,20.9994,30.9674,0.127478,0.0,0.0
48,11.75,29.6933,30.2601,162.396,112.785,111.483,-0.00627455,0.04748,21.0004,31.4178,0.104004,0.0,0.0
51,12.5,28.9771,30.3456,157.888,112.809,110.252,-0.00630542,0.0470934,21.0014,31.6981,0.205328,0.0,0.0
54,13.25,29.1471,30.305,160.123,112.808,111.472,-0.00633109,0.0467367,21.002,31.0175,0.106654,0.0,0.0
57,14,29.6542,30.4765,159.532,112.822,110.844,-0.0063763,0.046449,21.0025,31.2877,0.158415,0.0,0.0
60,14.75,29.4815,29.8289,163.045,112.804,111.649,-0.00640926,0.0462129,21.0029,31.4679,0.0921717,0.0,0.0
63,15.5,29.7281,30.2122,163.565,112.806,110.609,-0.00643859,0.0460159,21.0032,31.3678,0.176148,0.0,0.0
66,16.25,29.6171,30.3567,162.589,112.83,110.241,-0.00645998,0.0458299,21.0035,31.8582,0.207912,0.0,0.0
69,17,29.8385,30.1377,165.643,112.843,110.431,-0.00647557,0.0456763,21.0037,31.5279,0.193529,0.0,0.0
72,17.75,29.6941,30.0881,162.42,112.855,110.352,-0.00648445,0.0455504,21.0039,31.588,0.200878,0.0,0.0
75,18.5,29.6401,29.7664,160.116,112.858,110.311,-0.00648399,0.0454528,21.004,31.4879,0.204481,0.0,0.0
78,19.25,29.421,30.0947,164.455,112.881,109.124,-0.00647359,0.0453224,21.0041,31.2577,0.303185,0.0,0.0
81,20,29.4998,30.0982,159.975,112.896,110.45,-0.00645362,0.0451581,21.0041,31.1776,0.196212,0.0,0.0
84,20.75,29.6717,29.9409,162.567,112.881,110.654,-0.00643533,0.0450088,21.0042,31.4579,0.178493,0.0,0.0
87,21.5,29.4682,30.0306,159.877,112.906,110.93,-0.00641715,0.0449,21.0042,31.1576,0.158153,0.0,0.0
90,22.25,29.4911,30.1437,163.929,112.889,110.353,-0.0063983,0.0448353,21.0042,31.0675,0.203567,0.0,0.0
93,23,29.5913,30.2318,162.283,112.896,109.668,-0.00637571,0.0448348,21.0043,31.3077,0.259853,0.0,0.0
96,23.75,29.5975,29.6772,162.869,112.897,110.183,-0.00635924,0.0448719,21.0043,31.578,0.217988,0.0,0.0
99,24.5,29.5678,29.5242,162.563,112.91,109.967,-0.0063373,0.0448594,21.0043,31.7681,0.236532,0.0,0.0
102,25.25,29.6071,29.9454,160.618,112.916,109.607,-0.00631211,0.0448503,21.0043,31.588,0.266444,0.0,0.0
105,26,29.4663,29.5956,157.816,112.941,108.614,-0.00628836,0.0448437,21.0043,31.3878,0.349891,0.0,0.0
108,26.75,29.3281,29.8425,160.578,112.949,109.274,-0.00626546,0.0448388,21.0037,31.3277,0.296309,0.0,0.0
111,27.5,29.0151,30.0754,160.441,112.946,109.724,-0.00623991,0.0448353,21.0032,31.1476,0.259241,0.0,0.0
114,28.25,29.5508,30.0215,156.888,112.965,108.664,-0.00622194,0.044892,21.0029,31.1476,0.347677,0.0,0.0
117,29,29.369,29.957,163.238,112.975,109.883,-0.00620995,0.0449748,21.0026,31.1576,0.248616,0.0,0.0
120,29.75,29.2816,29.3854,161.805,112.977,110.694,-0.00619413,0.0450602,21.0025,31.0275,0.182852,0.0,0.0
123,30.5,29.4534,29.8038,165.534,112.982,110.307,-0.0061826,0.0451349,21.0023,31.4679,0.214675,0.0,0.0
126,31.25,29.1117,29.8487,162.309,112.998,108.646,-0.00612815,0.0452486,21.0018,31.4479,0.351775,0.0,0.0
129,32,29.5359,29.563,163.246,113.013,109.21,-0.00607277,0.0453679,21.0012,31.1276,0.306653,0.0,0.0
132,32.75,29.5099,29.8618,165.565,113.021,108.887,-0.00600559,0.0455172,21.0008,30.8974,0.333725,0.0,0.0
135,33.5,28.449,29.4028,159.207,113.028,108.707,-0.00589285,0.0458477,21.0001,31.0675,0.349207,0.0,0.0
138,34.25,29.1588,29.7664,160.778,113.042,110.35,-0.0057865,0.0461831,20.9993,31.4178,0.215958,0.0,0.0
141,35,29.4041,29.8417,164.346,113.047,108.696,-0.00566762,0.0465659,20.9988,31.1876,0.351538,0.0,0.0
144,35.75,29.4494,29.9081,164.185,113.068,109.365,-0.00554554,0.0467896,20.9984,31.2076,0.298282,0.0,0.0
147,36.5,29.3367,29.5367,164.365,113.063,107.593,-0.00542302,0.046929,20.9981,31.3878,0.444155,0.0,0.0
150,37.25,29.3182,29.3272,161.925,113.074,108.039,-0.00531941,0.0471294,20.9962,31.1776,0.407978,0.0,0.0
153,38,29.133,29.8024,158.955,113.084,108.779,-0.00524388,0.0487325,20.994,31.2877,0.347703,0.0,0.0
156,38.75,29.0721,29.8166,164.553,113.104,109.848,-0.00476204,0.0531541,20.9902,31.628,0.261662,0.0,1.0
159,39.5,29.1888,30.1632,162.322,113.115,105.647,-0.00420102,0.0608778,20.9864,31.2577,0.61185,0.0,1.0
162,40.25,29.4516,30.0742,152.811,113.129,93.4608,-0.00310635,0.0665085,20.9667,30.8874,1.71068,0.0,1.0
165,41,29.2053,29.8219,151.045,113.133,86.8902,-0.00174917,0.0922749,20.9256,31.0475,2.36397,0.0,1.0
168,41.75,29.6603,30.218,148.822,113.147,74.5956,0.000302019,0.111059,20.8434,30.6371,3.73167,0.0,1.0
171,42.5,30.5248,30.4993,151.185,113.152,63.9357,0.00260457,0.155143,20.7422,31.0775,5.11325,0.0,1.0
174,43.25,30.6169,31.494,142.791,113.156,64.2659,0.00502234,0.207585,20.6357,30.9474,5.06748,0.0,1.0
177,44,30.1969,31.1231,134.186,113.172,53.2541,0.00746047,0.265377,20.5274,30.9374,6.75226,0.0,1.0
180,44.75,31.3598,31.7723,135.788,113.183,48.4055,0.00923786,0.326155,20.4354,30.3869,7.60818,0.0,0.0
183,45.5,32.1836,33.4726,131.117,113.198,51.5228,0.0120017,0.396421,20.3473,30.0766,7.05036,0.0,0.0
186,46.25,34.0489,34.6745,131.963,113.196,48.7981,0.0145581,0.459929,20.2678,30.1667,7.5369,0.0,0.0
189,47,34.6648,35.8776,130.659,113.219,50.3131,0.0166525,0.511462,20.1993,30.2368,7.26488,0.0,0.0
192,47.75,35.9867,36.8397,137.602,113.239,47.8562,0.0189096,0.564514,20.1331,30.2468,7.71485,0.0,0.0
195,48.5,37.1195,39.2002,132.208,113.254,44.7857,0.0211793,0.608674,20.0733,30.3169,8.31002,0.0,0.0
198,49.25,38.0632,39.6686,132.409,113.254,44.4957,0.0230906,0.650247,20.01,30.0066,8.36819,0.0,0.0
201,50,39.0374,41.2411,125.296,113.256,43.9723,0.0249228,0.693669,19.9451,29.2459,8.47438,0.0,0.0
204,50.75,40.3315,42.2995,133.756,113.274,43.0284,0.0266651,0.729547,19.893,29.5662,8.67018,0.0,0.0
207,51.5,41.344,43.9517,134.572,113.277,41.9496,0.0281086,0.762927,19.8467,29.5962,8.89782,0.0,0.0
210,52.25,42.4706,45.5742,127.984,113.294,45.1538,0.0301284,0.795893,19.8038,29.376,8.23986,0.0,0.0
213,53,43.0993,46.4992,127.754,113.289,43.8289,0.032168,0.824336,19.7591,29.316,8.50624,0.0,0.0
216,53.75,44.9005,47.6358,131.579,113.301,42.2035,0.0342351,0.852614,19.7104,28.6954,8.84571,0.0,0.0
219,54.5,45.4455,48.7079,118.676,113.328,35.0395,0.036321,0.889258,19.6486,28.8756,10.5141,0.0,0.0
222,55.25,46.7538,50.257,118.09,113.362,38.4851,0.0385836,0.922805,19.5778,28.8255,9.67665,0.0,0.0
225,56,48.1186,51.7102,122.076,113.349,36.179,0.0408301,0.971151,19.5014,28.9456,10.2291,0.0,0.0
228,56.75,49.2355,53.3157,122.436,113.378,34.2469,0.0429477,1.01833,19.4288,28.6153,10.7229,0.0,0.0
231,57.5,50.4026,55.2315,122.728,113.391,35.4756,0.0450963,1.06262,19.364,28.5653,10.4083,0.0,0.0
234,58.25,52.2919,56.8831,123.368,113.392,31.8886,0.0466627,1.10314,19.3118,28.1049,11.3632,0.0,0.0
237,59,54.3364,57.7489,123.7,113.404,34.7145,0.0484239,1.13929,19.2667,28.0649,10.6036,0.0,0.0
240,59.75,55.0705,60.2554,121.418,113.392,32.9674,0.0498313,1.17143,19.2309,27.9648,11.0651,0.0,0.0
243,60.5,56.4879,61.264,120.997,113.409,31.4386,0.0510682,1.19992,19.199,27.7646,11.4918,0.0,0.0
246,61.25,57.6444,63.1322,126.122,113.418,36.9568,0.0521155,1.23246,19.1658,27.7846,10.044,0.0,0.0
249,62,58.9368,64.7715,114.153,113.419,33.4197,0.0531282,1.25618,19.1328,27.6745,10.9453,0.0,0.0
252,62.75,60.1415,66.5068,118.625,113.427,31.7975,0.0541611,1.2794,19.1078,27.3242,11.3916,0.0,0.0
255,63.5,61.8021,68.4095,128.747,113.449,31.3586,0.0551986,1.29633,19.0842,27.0139,11.5178,0.0,0.0
258,64.25,62.9701,69.9776,124.561,113.457,29.7054,0.0562845,1.31432,19.0583,27.134,12.0036,0.0,0.0
261,65,64.1313,71.2649,111.62,113.474,31.4659,0.0574323,1.33238,19.0289,26.6236,11.4891,0.0,0.0
264,65.75,65.1636,72.7668,116.996,113.476,26.5961,0.0586204,1.34999,19.0029,26.4935,12.9954,0.0,0.0
267,66.5,67.2385,73.7974,114.977,113.511,26.6169,0.060087,1.36679,18.9746,26.2633,12.9912,0.0,0.0
270,67.25,68.1168,75.7706,115.175,113.518,23.8668,0.0617123,1.38641,18.9441,26.1131,13.9686,0.0,0.0
273,68,68.7188,76.9296,112.126,113.539,33.0687,0.0630916,1.40071,18.9116,25.5827,11.0493,0.0,0.0
276,68.75,69.4884,77.9808,114.308,113.535,28.3815,0.0644299,1.42436,18.8776,25.6827,12.4181,0.0,0.0
279,69.5,71.2332,79.937,124.436,113.541,32.3366,0.0657815,1.44497,18.841,25.6127,11.25,0.0,0.0
282,70.25,72.9928,81.5449,115.395,113.564,29.354,0.0666137,1.46576,18.8223,25.0822,12.1186,0.0,0.0
285,71,73.7277,83.1228,115.805,113.545,28.5521,0.0677564,1.48584,18.795,24.9621,12.3651,0.0,0.0
288,71.75,74.9531,83.4585,125.61,113.539,29.4844,0.0689744,1.50556,18.7628,25.0522,12.077,0.0,0.0
291,72.5,75.8446,85.7349,107.449,113.555,27.2273,0.0698623,1.52665,18.7342,25.1423,12.7915,0.0,0.0
294,73.25,77.3626,87.6296,111.654,113.561,30.228,0.0713469,1.54287,18.701,24.4116,11.8555,0.0,0.0
297,74,78.3283,89.006,107.137,113.57,28.929,0.0730632,1.57065,18.6639,24.0313,12.2497,0.0,0.0
300,74.75,79.9419,90.6327,113.535,113.58,24.5244,0.0749753,1.59475,18.6239,24.1814,13.73,0.0,0.0
303,75.5,80.9794,91.7627,109.131,113.585,22.985,0.0770373,1.63727,18.5662,23.661,14.3111,0.0,0.0
306,76.25,81.5947,93.1335,105.044,113.588,25.1903,0.0794102,1.67865,18.4954,23.5408,13.4907,0.0,0.0
309,77,83.2739,95.003,109.745,113.6,21.8368,0.0817892,1.72655,18.4154,23.8111,14.7713,0.0,0.0
312,77.75,85.428,97.4079,110.684,113.605,20.8074,0.0839996,1.7762,18.3264,23.661,15.2042,0.0,0.0
315,78.5,86.2446,98.8522,101.809,113.617,24.0583,0.0859869,1.82489,18.2569,23.0404,13.9048,0.0,0.0
318,79.25,88.3046,100.539,101.613,113.643,27.2264,0.0875958,1.871,18.1983,23.2106,12.7988,0.0,0.0
321,80,89.9281,103.339,110.204,113.669,20.7353,0.0890995,1.90823,18.1557,22.9503,15.2404,0.0,0.0
324,80.75,91.3992,105.169,113.663,113.667,22.8823,0.0902681,1.93793,18.1245,22.5099,14.3576,0.0,0.0
327,81.5,92.8278,106.785,108.628,113.676,23.6925,0.0912437,1.96136,18.0919,22.2998,14.0467,0.0,0.0
330,82.25,94.3547,109.118,107.843,113.689,18.111,0.0923144,1.98287,18.0628,22.1496,16.454,0.0,0.0
333,83,95.6213,110.877,113.573,113.687,25.071,0.0934726,2.00044,18.0393,21.489,13.541,0.0,0.0
336,83.75,97.1951,112.55,101.403,113.697,24.0518,0.0944779,2.02023,18.0143,21.7493,13.9135,0.0,0.0
339,84.5,98.5985,114.601,106.969,113.723,23.1274,0.095581,2.04327,17.9831,21.2989,14.2666,0.0,0.0
342,85.25,99.5986,115.863,104.348,113.724,22.4259,0.097018,2.06373,17.9439,20.7384,14.5426,0.0,0.0
345,86,101.184,117.602,103.39,113.726,21.3179,0.0987402,2.0961,17.9075,20.8885,14.9966,0.0,0.0
348,86.75,101.931,118.992,105.905,113.717,24.265,0.0999956,2.11971,17.8675,20.8585,13.8361,0.0,0.0
351,87.5,103.865,121.335,100.641,113.724,18.3436,0.101411,2.15545,17.8274,20.5982,16.3424,0.0,0.0
354,88.25,105.672,123.055,97.9788,113.753,21.9353,0.102867,2.18657,17.7934,20.1979,14.743,0.0,0.0
357,89,107.403,125.392,100.718,113.748,20.4781,0.103864,2.21142,17.7677,19.9176,15.3584,0.0,0.0
360,89.75,108.645,126.732,101.98,113.754,18.7556,0.105691,2.23674,17.7271,19.6074,16.1458,0.0,0.0
363,90.5,110.113,129.063,103.52,113.755,20.9327,0.107521,2.25827,17.6928,19.5773,15.1622,0.0,0.0
366,91.25,111.21,129.935,102.24,113.752,22.2798,0.109067,2.29521,17.6246,19.187,14.6033,0.0,0.0
369,92,112.516,131.862,97.3911,113.754,19.36,0.111024,2.31891,17.57,18.8267,15.8617,0.0,0.0
372,92.75,113.445,133.335,97.1553,113.764,20.695,0.112912,2.35479,17.5252,18.5765,15.2652,0.0,0.0
375,93.5,115.133,135.839,102.825,113.752,16.3949,0.114485,2.3849,17.4874,18.3162,17.3506,0.0,0.0
378,94.25,116.643,137.348,97.0454,113.751,19.8358,0.116225,2.41486,17.4449,18.2762,15.644,0.0,0.0
381,95,117.606,138.673,100.22,113.771,21.1741,0.117954,2.44446,17.4075,18.1761,15.0607,0.0,0.0
384,95.75,119.292,140.396,96.592,113.78,19.44,0.11957,2.47347,17.3621,17.4855,15.8268,0.0,0.0
387,96.5,120.676,142.608,94.87,113.801,18.0273,0.121406,2.50176,17.3238,16.7148,16.5043,0.0,0.0
390,97.25,121.787,144.475,108.404,113.797,21.4368,0.122559,2.52543,17.3026,17.0651,14.9524,0.0,0.0
393,98,122.835,145.951,104.719,113.839,19.6079,0.124169,2.552,17.2579,16.6047,15.7545,0.0,0.0
396,98.75,124.042,147.598,96.6217,113.847,19.9598,0.12604,2.57999,17.213,16.2844,15.5958,0.0,0.0
399,99.5,125.329,149.314,90.0194,113.851,18.4805,0.127943,2.60407,17.1647,16.7048,16.2859,0.0,0.0
402,100.25,127.171,150.938,99.7725,113.868,19.0664,0.12956,2.62847,17.1116,15.9942,16.0076,0.0,0.0
405,101,128.128,152.591,95.0387,113.899,18.135,0.131563,2.66374,17.0612,15.6038,16.4586,0.0,0.0
408,101.75,129.513,154.504,91.5276,113.904,17.9436,0.133374,2.70154,17.0043,15.6138,16.5541,0.0,0.0
411,102.5,130.931,156.468,93.2366,113.915,17.5098,0.135502,2.74515,16.954,15.1935,16.7742,0.0,0.0
414,103.25,132.66,158.697,96.0065,113.941,16.5803,0.137636,2.78297,16.9111,14.9332,17.2648,0.0,0.0
417,104,133.939,160.168,94.9715,113.945,15.5565,0.13973,2.8131,16.8754,14.723,17.836,0.0,0.0
420,104.75,135.12,162.119,101.592,113.97,17.3198,0.141751,2.84451,16.8231,14.3827,16.8762,0.0,0.0
423,105.5,137.014,164.515,89.092,113.977,17.1519,0.143269,2.87462,16.7929,13.9924,16.964,0.0,0.0
426,106.25,138.624,165.883,92.4237,113.994,14.8546,0.145374,2.902,16.7536,13.3418,18.2534,0.0,0.0
429,107,139.268,167.699,93.8915,114.017,15.2902,0.147057,2.92665,16.7238,13.6921,17.9963,0.0,0.0
432,107.75,140.802,169.408,94.8578,114.031,13.1903,0.148285,2.94709,16.7001,13.4419,19.3207,0.0,0.0
435,108.5,142.958,171.897,91.8406,114.043,15.9154,0.149694,2.95828,16.6838,13.0916,17.6394,0.0,0.0
438,109.25,143.534,173.153,90.946,114.077,16.0444,0.151206,2.97015,16.6725,12.5011,17.5697,0.0,0.0
441,110,144.559,174.39,98.2727,114.077,20.5225,0.152761,2.97881,16.661,12.2809,15.3648,0.0,0.0
444,110.75,146.351,176.48,92.3054,114.086,15.0465,0.154635,2.98659,16.6523,12.0006,18.1457,0.0,0.0
447,111.5,146.636,177.146,92.9389,114.115,13.8127,0.156333,2.99289,16.6457,11.4802,18.9143,0.0,0.0
450,112.25,148.06,178.97,98.5902,114.116,13.5898,0.157712,3.00985,16.6121,11.7604,19.0601,0.0,0.0
453,113,149.443,180.762,91.8009,114.131,14.6382,0.158619,3.02784,16.5845,11.1198,18.3957,0.0,0.0
456,113.75,150.918,182.973,98.836,114.152,18.7954,0.158939,3.04584,16.5612,10.4693,16.1581,0.0,0.0
459,114.5,152.084,184.524,93.9404,114.153,18.4282,0.159028,3.06321,16.541,10.209,16.3349,0.0,0.0
462,115.25,152.444,185.36,91.1636,114.176,16.7353,0.158717,3.07615,16.525,9.86874,17.1999,0.0,0.0
465,116,154.224,187.502,100.447,114.187,19.3776,0.158529,3.08583,16.5128,10.2991,15.8876,0.0,0.0
468,116.75,155.011,189.233,97.3301,114.221,18.5054,0.158409,3.0931,16.5001,9.38832,16.3028,0.0,0.0
471,117.5,156.693,190.807,92.3054,114.22,19.6897,0.158579,3.10315,16.4883,9.46839,15.7471,0.0,0.0
474,118.25,157.29,191.59,87.7876,114.238,16.1836,0.158894,3.1125,16.4783,9.2582,17.505,0.0,0.0
477,119,158.676,193.719,94.167,114.242,16.9133,0.159254,3.121,16.4706,8.81781,17.1103,0.0,0.0
480,119.75,160.262,195.083,99.0665,114.278,18.4781,0.159601,3.1264,16.4631,8.36741,16.3205,0.0,0.0
483,120.5,160.706,195.991,101.159,114.285,20.3968,0.159648,3.12999,16.4589,8.53756,15.4362,0.0,0.0
486,121.25,161.815,197.886,87.3479,114.308,15.5436,0.159682,3.13543,16.4565,8.18725,17.8719,0.0,0.0
489,122,162.685,199.163,89.3164,114.329,15.5394,0.158807,3.13954,16.4547,7.85696,17.876,0.0,0.0
492,122.75,163.753,200.552,88.7608,114.34,17.3998,0.157834,3.13636,16.4608,7.69682,16.8639,0.0,0.0
495,123.5,165.155,201.688,96.4615,114.351,16.4781,0.156313,3.13141,16.4779,7.36652,17.3523,0.0,0.0
498,124.25,165.829,203.188,93.2206,114.378,19.0987,0.154799,3.1072,16.5186,6.92613,16.0325,0.0,0.0
501,125,165.867,203.826,102.283,114.367,17.2874,0.1533,3.07897,16.5639,6.74597,16.9241,0.0,0.0
504,125.75,167.333,205.275,100.914,114.388,15.8756,0.151501,3.04029,16.6267,6.39566,17.6889,0.0,0.0
507,126.5,167.695,205.606,96.5668,114.392,15.0035,0.149555,3.00088,16.6772,6.14544,18.1953,0.0,0.0
510,127.25,167.869,205.726,95.0067,114.4,18.6941,0.14744,2.96569,16.7178,5.92525,16.226,0.0,0.0
513,128,168.019,206.356,91.8841,114.413,19.7739,0.145116,2.93714,16.7474,5.4248,15.724,0.0,0.0
516,128.75,168.862,207.45,97.7667,114.432,21.6911,0.142085,2.90681,16.7997,5.12454,14.8966,0.0,0.0
519,129.5,170.128,208.358,96.3248,114.464,21.44,0.138856,2.87041,16.8378,4.46395,15.0034,0.0,0.0
522,130.25,170.386,209.19,108.233,114.481,22.9919,0.136067,2.82828,16.8924,4.59407,14.3787,0.0,0.0
525,131,170.393,209.614,101.868,114.476,17.9057,0.132706,2.78129,16.953,4.32383,16.6179,0.0,0.0
528,131.75,170.122,209.247,92.2512,114.496,20.4869,0.129234,2.73711,17.0131,4.31382,15.4132,0.0,0.0
531,132.5,170.443,209.557,107.424,114.504,20.283,0.125921,2.68791,17.0983,4.34385,15.5034,0.0,0.0
534,133.25,170.551,209.722,102.907,114.523,18.2016,0.12233,2.65204,17.1729,3.85341,16.4747,0.0,0.0
537,134,170.376,209.097,98.9345,114.537,19.6504,0.118562,2.59588,17.2487,3.89345,15.7898,0.0,0.0
540,134.75,170.754,209.126,103.535,114.516,22.3676,0.114706,2.52612,17.3667,3.39301,14.6281,0.0,0.0
543,135.5,171.01,209.395,104.202,114.533,26.0606,0.110942,2.45035,17.4527,3.02268,13.2606,0.0,0.0
546,136.25,170.232,208.385,108.995,114.532,21.2116,0.106569,2.38448,17.5732,3.2729,15.1047,0.0,0.0
549,137,170.009,208.406,107.946,114.54,24.2603,0.101449,2.29001,17.7023,2.97263,13.9023,0.0,0.0
552,137.75,169.863,207.308,113.712,114.541,25.0058,0.0963863,2.2047,17.8349,2.84252,13.6314,0.0,0.0
555,138.5,169.624,206.978,116.122,114.567,32.3089,0.0921278,2.11441,17.9672,2.88255,11.3383,0.0,0.0
558,139.25,167.692,205.687,113.751,114.562,30.5151,0.0871667,2.01905,18.1081,2.38211,11.8495,0.0,0.0
561,140,167.496,204.654,114.175,114.577,31.2643,0.082378,1.93695,18.2492,2.44216,11.6334,0.0,0.0
564,140.75,166.58,203.33,119.729,114.565,26.523,0.0777533,1.8441,18.3853,2.07183,13.1056,0.0,0.0
567,141.5,166.411,202.374,114.613,114.583,32.1711,0.0732978,1.74942,18.5341,2.262,11.3778,0.0,0.0
570,142.25,165.556,201.092,115.744,114.604,38.8874,0.0691885,1.65672,18.6426,1.71152,9.6811,0.0,0.0
573,143,163.65,199.291,123.92,114.59,37.3614,0.06472,1.56832,18.7813,1.77157,10.0386,0.0,0.0
576,143.75,162.578,197.888,128.634,114.6,44.1914,0.0601846,1.46958,18.9,1.59141,8.53549,0.0,0.0
579,144.5,161.665,196.655,131.801,114.576,39.6453,0.0558026,1.38542,19.0166,1.43127,9.50603,0.0,0.0
582,145.25,160.572,194.493,134.474,114.589,41.4613,0.0517003,1.30324,19.138,1.88167,9.10589,0.0,0.0
585,146,159.21,192.888,129.772,114.6,44.8929,0.0475228,1.23321,19.2564,1.41125,8.39445,0.0,0.0
588,146.75,157.738,191.126,129.673,114.61,49.7373,0.0436962,1.16484,19.3694,1.12099,7.47729,0.0,0.0
591,147.5,155.829,188.793,131.521,114.615,46.615,0.0401724,1.09158,19.4889,1.20106,8.05846,0.0,0.0
594,148.25,155.076,187.374,137.11,114.632,49.0474,0.0369176,1.02315,19.599,1.31116,7.60418,0.0,0.0
597,149,153.718,185.877,141.889,114.635,54.671,0.0339167,0.958568,19.6793,0.690612,6.63209,0.0,0.0
600,149.75,151.848,183.942,142.647,114.636,66.6613,0.0306549,0.897286,19.7773,1.08096,4.85606,0.0,0.0
603,150.5,151.357,182.122,143.781,114.648,71.8039,0.0273376,0.829067,19.8732,0.800709,4.19132,0.0,0.0
606,151.25,149.022,179.183,143.125,114.661,71.5052,0.0243202,0.76947,19.9657,1.04092,4.22969,0.0,0.0
609,152,146.966,177.276,145.109,114.652,76.7561,0.0216502,0.709153,20.0541,0.450399,3.5943,0.0,0.0
612,152.75,145.627,175.495,148.479,114.635,87.2203,0.0193363,0.644369,20.1378,1.00089,2.44812,0.0,0.0
615,153.5,144.197,173.012,150.43,114.653,87.3965,0.0176495,0.58115,20.2316,1.14101,2.43152,0.0,0.0
618,154.25,142.165,171.051,149.935,114.668,97.2587,0.0158281,0.52289,20.31,0.560496,1.47496,0.0,0.0
621,155,140.489,168.364,151.639,114.668,101.285,0.0144804,0.463808,20.3842,0.940833,1.11162,0.0,0.0
624,155.75,138.477,165.959,152.661,114.676,105.836,0.0134637,0.420737,20.4614,0.550488,0.71849,0.0,0.0
627,156.5,136.246,163.499,155.587,114.674,104.955,0.0128208,0.374858,20.5249,0.950842,0.793247,0.0,0.0
630,157.25,134.097,160.552,155.493,114.684,106.162,0.012394,0.33524,20.5835,0.600532,0.69164,0.0,0.0
633,158,132.786,159.43,154.481,114.688,106.769,0.0122685,0.294414,20.6398,1.0209,0.64089,0.0,0.0
636,158.75,131.345,157.181,154.841,114.686,105.76,0.0123035,0.261731,20.6902,0.560496,0.725757,0.0,0.0
639,159.5,128.831,154.949,154.696,114.686,106.441,0.012383,0.232908,20.7328,1.08096,0.66833,0.0,0.0
642,160.25,127.839,152.667,154.937,114.691,107.682,0.012522,0.207812,20.7714,0.910807,0.564855,0.0,0.0
645,161,126.281,150.724,152.991,114.7,107.664,0.0125932,0.186568,20.8011,0.930824,0.566978,0.0,0.0
648,161.75,124.795,149.049,155.596,114.684,108.469,0.0125998,0.169014,20.8254,1.18105,0.499034,0.0,0.0
651,162.5,122.947,146.043,154.002,114.708,108.395,0.0125275,0.153488,20.8468,0.950842,0.507022,0.0,0.0
654,163.25,121.254,145.365,155.856,114.707,107.27,0.0123655,0.14125,20.8636,0.840745,0.600443,0.0,0.0
657,164,119.79,143.288,152.878,114.728,107.769,0.0122007,0.130755,20.8778,0.740656,0.560491,0.0,0.0
660,164.75,118.941,141.056,154.315,114.714,108.671,0.0119588,0.121347,20.89,0.600532,0.484753,0.0,0.0
663,165.5,117.3,139.303,153.075,114.725,108.317,0.0117274,0.113902,20.9,0.760674,0.514804,0.0,0.0
666,166.25,115.643,137.901,153.1,114.744,107.76,0.0115187,0.107471,20.9082,1.03091,0.562547,0.0,0.0
669,167,114.176,136.099,156.191,114.754,109.15,0.0113382,0.101966,20.9166,0.7907,0.448513,0.0,0.0
672,167.75,113.36,134.464,156.943,114.741,108.82,0.0111562,0.0972714,20.9236,0.760674,0.474581,0.0,0.0
675,168.5,111.652,132.497,157.485,114.738,108.874,0.0109699,0.0932798,20.9293,1.0209,0.469873,0.0,0.0
678,169.25,110.661,131.155,154.612,114.77,108.819,0.0108113,0.0898924,20.9339,0.650576,0.476861,0.0,0.0
681,170,108.792,129.156,153.026,114.769,108.342,0.0105782,0.0870202,20.9372,0.940833,0.516193,0.0,0.0
684,170.75,107.609,127.796,155.82,114.757,108.594,0.0103582,0.0845855,20.9416,0.870771,0.494426,0.0,0.0
687,171.5,106.46,126.774,155.479,114.745,107.936,0.0100234,0.0821509,20.9447,0.730647,0.54795,0.0,0.0
690,172.25,105.858,124.7,155.965,114.764,109.901,0.00968206,0.0799141,20.9474,0.860762,0.38783,0.0,0.0
693,173,104.428,123.016,154.882,114.772,108.345,0.00934609,0.0780864,20.9502,0.780691,0.516146,0.0,0.0
696,173.75,102.601,122.086,158.093,114.777,109.609,0.00902311,0.0763205,20.9529,0.920816,0.412708,0.0,0.0
699,174.5,102.127,120.214,156.783,114.767,109.091,0.00865136,0.0748483,20.9549,1.131,0.454362,0.0,0.0
702,175.25,101.07,119.175,152.278,114.762,108.234,0.00825158,0.0734561,20.9563,1.11098,0.524518,0.0,0.0
705,176,99.1963,117.751,151.458,114.766,107.711,0.00790524,0.0721821,20.9575,0.500443,0.568274,0.0,0.0
708,176.75,98.8374,116.547,151.416,114.767,108.672,0.00765276,0.0710578,20.9589,1.04092,0.488828,0.0,0.0
711,177.5,97.8329,115.096,155.44,114.774,108.44,0.00711046,0.0701549,20.9599,1.131,0.508497,0.0,0.0
714,178.25,96.5139,113.6,153.746,114.768,108.663,0.00658887,0.0690587,20.9608,0.370328,0.48959,0.0,0.0
717,179,95.0959,112.069,155.286,114.778,108.535,0.00608257,0.0682595,20.9614,0.460408,0.500964,0.0,0.0
720,179.75,94.3047,110.625,153.502,114.777,108.49,0.00558994,0.0674119,20.9625,1.23109,0.504555,0.0,0.0
723,180.5,93.7436,109.788,155.731,114.764,109.463,0.00505377,0.066681,20.9637,0.810718,0.423555,0.0,0.0
726,181.25,93.3916,108.751,158.134,114.764,109.366,0.00458849,0.0656908,20.9654,0.960851,0.431504,0.0,0.0
729,182,92.3928,108.15,154.544,114.764,109.32,0.00412206,0.0647739,20.9666,0.310275,0.435293,0.0,0.0
732,182.75,91.3166,106.536,155.198,114.773,108.767,0.00359367,0.0639109,20.9681,0.730647,0.481457,0.0,0.0
735,183.5,90.2346,105.301,156.611,114.768,108.854,0.00320848,0.0632342,20.9695,0.930824,0.473896,0.0,0.0
738,184.25,89.0501,104.552,153.486,114.753,108.631,0.00272929,0.0623648,20.9709,0.540479,0.491119,0.0,0.0
741,185,88.7574,103.582,156.24,114.768,109.686,0.0023313,0.0616212,20.9721,1.04092,0.405628,0.0,0.0
744,185.75,87.218,102.105,156.771,114.784,108.611,0.00195796,0.0608911,20.9737,0.650576,0.495108,0.0,0.0
747,186.5,87.2424,101.287,155.591,114.786,107.998,0.00158801,0.0600613,20.9752,0.690612,0.546005,0.0,0.0
750,187.25,86.415,99.3798,152.693,114.775,108.433,0.00124243,0.0593832,20.9765,0.990878,0.50918,0.0,0.0
753,188,85.0065,99.0152,156.524,114.778,108.668,0.0009137,0.0587636,20.9777,0.950842,0.489941,0.0,0.0
756,188.75,85.0417,97.6411,154.19,114.79,108.587,0.000598055,0.0582008,20.979,0.860762,0.497569,0.0,0.0
759,189.5,83.4828,96.9319,155.29,114.784,109.662,0.000245758,0.0576626,20.9799,1.0109,0.408841,0.0,0.0
762,190.25,83.1694,96.4033,157.075,114.781,108.727,-6.46512e-05,0.0571326,20.9806,1.10098,0.485359,0.0,0.0
765,191,82.3549,95.3139,154.943,114.779,109.844,-0.000382568,0.0565877,20.9817,0.390346,0.393642,0.0,0.0
768,191.75,81.6121,94.3102,153.817,114.791,108.722,-0.000688825,0.0561071,20.9825,0.53047,0.486549,0.0,0.0
771,192.5,80.7422,93.3795,153.802,114.78,108.612,-0.000867621,0.0557212,20.9829,0.140124,0.49474,0.0,0.0
774,193.25,80.5519,92.2035,157.855,114.782,109.607,-0.00115034,0.0552219,20.9839,0.540479,0.413226,0.0,0.0
777,194,79.6892,91.4778,156.076,114.772,110.174,-0.00140113,0.0547849,20.9847,0.740656,0.366207,0.0,0.0
780,194.75,79.0702,90.5333,154.645,114.776,108.679,-0.00160302,0.0543413,20.9853,0.320284,0.488879,0.0,0.0
783,195.5,78.3245,89.7693,157.01,114.782,109.94,-0.00181749,0.0540591,20.9862,0.710629,0.386059,0.0,0.0
786,196.25,77.7074,88.9801,155.664,114.773,110.572,-0.00204585,0.0536964,20.9871,0.7907,0.334044,0.0,0.0
789,197,76.8775,87.9145,156.205,114.788,110.398,-0.00224302,0.0533696,20.9877,1.16103,0.349278,0.0,0.0
792,197.75,76.4063,87.1601,156.028,114.779,108.103,-0.00248981,0.0530481,20.9881,0.720638,0.53679,0.0,0.0
795,198.5,75.6525,86.5738,154.843,114.778,109.154,-0.00274829,0.0527125,20.9885,1.19105,0.450008,0.0,0.0
798,199.25,75.0437,85.554,153.006,114.776,109.93,-0.00299594,0.0523554,20.9889,0.890789,0.386447,0.0,0.0
801,200,74.4372,85.1198,157.689,114.77,109.189,-0.00321896,0.0520257,20.9897,1.26112,0.4465,0.0,0.0
804,200.75,74.5328,84.0452,154.146,114.776,109.119,-0.00345417,0.0517558,20.9902,0.500443,0.452708,0.0,0.0
807,201.5,73.5961,83.426,157.685,114.775,110.513,-0.00366637,0.0514205,20.9905,0.730647,0.338949,0.0,0.0
810,202.25,73.2938,82.8753,160.158,114.767,109.743,-0.00382956,0.0511761,20.9908,0.950842,0.400948,0.0,0.0
813,203,72.3861,82.0401,154.118,114.768,109.177,-0.00392315,0.0508731,20.9909,0.710629,0.447375,0.0,0.0
816,203.75,71.9506,81.0862,151.022,114.764,109.257,-0.00404544,0.0505771,20.9911,0.53047,0.440447,0.0,0.0
819,204.5,71.1505,80.921,155.831,114.772,109.126,-0.00413459,0.0503239,20.9912,0.210186,0.451845,0.0,0.0
822,205.25,70.4774,79.2649,158.426,114.757,110.592,-0.00423855,0.0500602,20.9913,1.11098,0.331072,0.0,0.0
825,206,70.5655,79.3557,156.16,114.735,109.327,-0.00432805,0.0499108,20.9913,0.97086,0.432484,0.0,0.0
828,206.75,70.1278,78.5967,156.766,114.743,110.681,-0.00441677,0.0497195,20.9914,0.630558,0.322856,0.0,0.0
831,207.5,69.2214,78.1127,154.269,114.757,109.198,-0.00449915,0.0495405,20.9914,0.770683,0.444786,0.0,0.0
834,208.25,68.6798,77.5873,155.953,114.751,109.906,-0.00456182,0.0493808,20.9917,0.600532,0.386423,0.0,0.0
837,209,68.1812,76.0048,158.874,114.74,110.688,-0.00463167,0.0492144,20.9922,0.770683,0.322074,0.0,0.0
840,209.75,67.5901,75.6236,158.305,114.738,108.841,-0.00465977,0.0490378,20.9927,0.100089,0.47265,0.0,0.0
843,210.5,67.2016,75.7194,157.349,114.746,111.01,-0.00470641,0.0488707,20.993,0.870771,0.29647,0.0,0.0
846,211.25,67.407,74.7135,159.013,114.739,109.975,-0.0047404,0.048724,20.9932,1.03091,0.379855,0.0,0.0
849,212,66.0975,74.1555,154.215,114.732,109.305,-0.00482185,0.0485616,20.9934,0.650576,0.434082,0.0,0.0
852,212.75,66.2852,73.5015,154.396,114.737,110.242,-0.00492215,0.0484196,20.9935,0.120106,0.357927,0.0,0.0
855,213.5,65.6382,72.6097,156.717,114.733,108.708,-0.00502579,0.0483161,20.9936,0.860762,0.483173,0.0,0.0
858,214.25,65.3979,72.5063,152.012,114.732,109.212,-0.00512368,0.0482208,20.9934,0.340301,0.441664,0.0,0.0
861,215,65.141,72.1251,159.908,114.723,111.744,-0.00521807,0.0481514,20.9937,0.320284,0.235613,0.0,0.0
864,215.75,64.7185,70.9565,157.894,114.71,110.802,-0.00529557,0.047902,20.9941,0.290257,0.310521,0.0,0.0
867,216.5,64.4398,70.9597,155.391,114.713,109.43,-0.00533778,0.0476509,20.9943,0.930824,0.422274,0.0,0.0
870,217.25,63.0881,69.782,157.906,114.707,109.419,-0.00537661,0.0474602,20.9946,0.770683,0.422742,0.0,0.0
873,218,63.4695,70.3,157.779,114.71,109.268,-0.00540069,0.0473805,20.9948,1.05093,0.435387,0.0,0.0
876,218.75,62.6412,69.8057,153.67,114.704,109.595,-0.00539699,0.0473598,20.9949,0.950842,0.408148,0.0,0.0
879,219.5,62.4682,68.5372,155.07,114.722,108.938,-0.00539801,0.0473419,20.995,0.370328,0.463412,0.0,0.0
882,220.25,61.9558,68.1854,155.732,114.711,109.364,-0.00540754,0.0473119,20.9951,0.660585,0.42758,0.0,0.0
885,221,61.8355,68.2882,157.651,114.708,109.126,-0.00542677,0.04729,20.9951,1.12099,0.446848,0.0,0.0
888,221.75,61.5875,67.74,155.102,114.716,109.298,-0.0054585,0.0472594,20.9952,1.28113,0.433362,0.0,0.0
891,222.5,60.8242,67.2743,157.492,114.695,109.2,-0.00548163,0.0472122,20.9952,1.08096,0.439748,0.0,0.0
894,223.25,61,67.0418,155.555,114.695,109.472,-0.00548857,0.047164,20.9954,0.890789,0.417433,0.0,0.0
897,224,60.5187,66.2913,156.325,114.695,110.154,-0.00548938,0.0471448,20.9959,1.05093,0.361835,0.0,0.0
900,224.75,60.2307,66.127,158.139,114.707,109.787,-0.00545456,0.0471682,20.9962,0.400355,0.392623,0.0,0.0
903,225.5,60.1581,65.5438,157.329,114.695,110.203,-0.00542003,0.0471488,20.9965,0.44039,0.357888,0.0,0.0
906,226.25,59.2302,64.7086,155.357,114.701,110.525,-0.00537921,0.0470723,20.9966,0.720638,0.332243,0.0,0.0
909,227,59.2423,64.2875,157.146,114.692,110.336,-0.00534946,0.0470027,20.9968,0.920816,0.346886,0.0,0.0
912,227.75,59.0153,64.1138,155.411,114.676,110.662,-0.00532711,0.046946,20.9969,0.740656,0.319173,0.0,0.0
915,228.5,59.1615,63.7957,155.544,114.69,109.717,-0.0053097,0.046964,20.9969,0.740656,0.397036,0.0,0.0
918,229.25,58.6414,63.8594,155.792,114.698,110.686,-0.0053041,0.0469406,20.997,0.680603,0.318879,0.0,0.0
921,230,58.2272,62.9452,157.627,114.688,110.492,-0.0053087,0.0468613,20.997,0.510452,0.333839,0.0,0.0
924,230.75,57.5401,62.227,152.188,114.686,109.766,-0.0053236,0.0468232,20.9971,0.320284,0.392741,0.0,0.0
927,231.5,57.8479,62.1126,157.001,114.67,110.556,-0.00534788,0.0467816,20.9977,0.930824,0.327307,0.0,0.0
930,232.25,57.0284,61.8116,159.18,114.678,109.285,-0.00538387,0.046738,20.9982,1.0209,0.431447,0.0,0.0
933,233,57.2466,61.0758,154.954,114.681,110.226,-0.00544139,0.0466938,20.9985,0.980869,0.354906,0.0,0.0
936,233.75,57.0831,61.0464,154.762,114.668,109.382,-0.00550443,0.0466023,20.9985,1.17104,0.422795,0.0,0.0
939,234.5,55.9248,60.5264,154.338,114.658,110.364,-0.00556266,0.0465356,20.9982,0.840745,0.341913,0.0,0.0
942,235.25,56.557,60.3491,156.128,114.665,110.922,-0.00561069,0.0463882,20.9985,0.670594,0.297279,0.0,0.0
945,236,56.1564,59.7448,158.249,114.687,110.535,-0.00564039,0.0463223,20.9983,0.800709,0.330279,0.0,0.0
948,236.75,55.2792,59.4498,158.223,114.668,110.084,-0.00565211,0.046292,20.998,0.550488,0.365419,0.0,0.0
951,237.5,55.6308,59.2436,152.833,114.653,110.325,-0.00565642,0.0462699,20.9978,0.780691,0.344699,0.0,0.0
954,238.25,55.2311,58.6577,157.341,114.666,110.639,-0.005633,0.0463092,20.9976,0.840745,0.320272,0.0,0.0
957,239,54.7262,58.7728,160.251,114.66,110.909,-0.00560155,0.0463469,20.9975,0.830736,0.297956,0.0,0.0
960,239.75,54.4388,57.8916,155.634,114.656,109.992,-0.00555404,0.0463494,20.9974,0.88078,0.372029,0.0,0.0
963,240.5,54.2064,57.951,153.838,114.651,110.063,-0.00552295,0.0463512,20.9973,0.960851,0.365827,0.0,0.0
966,241.25,54.2495,57.563,154.775,114.647,110.099,-0.00551335,0.0463526,20.9973,0.70062,0.362524,0.0,0.0
969,242,53.9604,56.6245,158.588,114.656,110.554,-0.0055287,0.0463141,20.9972,0.930824,0.326354,0.0,0.0
972,242.75,53.2087,56.6436,154.354,114.664,109.601,-0.00560188,0.0462714,20.9972,0.640567,0.404494,0.0,0.0
975,243.5,53.9566,56.6464,157.189,114.634,110.583,-0.00568874,0.0462154,20.9972,0.890789,0.322264,0.0,0.0
978,244.25,52.9079,56.0829,159.721,114.641,110.031,-0.00576635,0.046214,20.9978,0.570505,0.367615,0.0,0.0
981,245,53.1973,56.2047,156.338,114.645,110.31,-0.00583541,0.0462408,20.9982,1.00089,0.345238,0.0,0.0
984,245.75,52.8729,56.1769,156.431,114.638,110.453,-0.00588575,0.046272,20.9986,0.680603,0.333128,0.0,0.0
987,246.5,52.44,55.4884,157.291,114.62,108.716,-0.00589565,0.0462356,20.9988,0.230204,0.473666,0.0,0.0
990,247.25,52.7016,54.8525,155.289,114.624,110.34,-0.00585706,0.0461821,20.9979,0.730647,0.341217,0.0,0.0
993,248,52.1194,54.593,156.944,114.652,111.596,-0.00579015,0.0461317,20.9975,1.17104,0.242006,0.0,0.0
996,248.75,51.678,54.2436,155.62,114.633,109.659,-0.00569129,0.0460949,20.9969,0.70062,0.397308,0.0,0.0
999,249.5,52.0758,54.5104,154.673,114.616,110.22,-0.00558234,0.0460878,20.9965,0.510452,0.350357,0.0,0.0
1002,250.25,51.4407,54.3389,156.301,114.626,110.715,-0.00546396,0.0460754,20.9963,0.510452,0.310934,0.0,0.0
1005,251,51.6971,54.8131,158.173,114.617,110.924,-0.00537766,0.0460603,20.9961,0.750665,0.293304,0.0,0.0
1008,251.75,51.5204,54.311,156.263,114.603,109.829,-0.00532128,0.0460429,20.9959,0.680603,0.381064,0.0,0.0
1011,252.5,50.5779,52.8296,155.229,114.592,111.439,-0.00529136,0.0460302,20.9958,0.910807,0.249927,0.0,0.0
1014,253.25,50.8089,53.2055,161.659,114.595,110.928,-0.00528941,0.0460355,20.9957,0.70062,0.291276,0.0,0.0
1017,254,50.7141,53.2435,159.288,114.598,110.529,-0.00529646,0.0460643,20.9957,0.44039,0.323817,0.0,0.0
1020,254.75,50.3521,52.621,154.031,114.597,111.298,-0.00533163,0.0461248,20.9956,0.710629,0.261638,0.0,0.0
1023,255.5,50.2986,52.1981,157.367,114.586,110.313,-0.0053821,0.046147,20.9955,0.88078,0.340452,0.0,0.0
1026,256.25,50.3746,52.4429,154.972,114.58,109.568,-0.00543732,0.0461258,20.9953,0.760674,0.400632,0.0,0.0
1029,257,50.3666,52.4939,161.135,114.586,110.893,-0.00549098,0.0460689,20.9951,0.7907,0.293453,0.0,0.0
1032,257.75,49.7246,51.7155,158.202,114.58,110.791,-0.00552833,0.0460092,20.995,0.950842,0.301232,0.0,0.0
1035,258.5,49.6775,51.968,154.619,114.572,110.568,-0.00555426,0.045965,20.9949,1.09097,0.318609,0.0,0.0
1038,259.25,50.4229,51.7592,157.078,114.566,110.163,-0.00557092,0.0459189,20.9955,1.26112,0.351007,0.0,0.0
1041,260,49.3995,51.8527,158.93,114.554,110.901,-0.00558431,0.0458655,20.9959,0.890789,0.290315,0.0,0.0
1044,260.75,49.7061,51.6926,159.041,114.564,109.105,-0.00559982,0.0458207,20.9962,1.07095,0.43734,0.0,0.0
1047,261.5,49.3122,51.1367,155.155,114.556,109.9,-0.00562008,0.0457881,20.9964,0.720638,0.371691,0.0,0.0
1050,262.25,49.1763,50.9493,157.712,114.559,111.654,-0.00565098,0.045757,20.9965,0.740656,0.230047,0.0,0.0
1053,263,49.6114,50.6811,157.34,114.577,111.321,-0.00568823,0.0457219,20.9966,0.600532,0.258269,0.0,0.0
1056,263.75,49.0745,50.9038,159.426,114.558,109.899,-0.0057288,0.0456824,20.9967,0.560496,0.371876,0.0,0.0
1059,264.5,48.8772,50.9577,154.107,114.567,110.15,,0.0456696,,0.540479,0.352207,0.0,0.0
1062,265.25,48.6106,50.012,156.147,114.545,110.412,,0.0456977,,0.560496,0.329145,0.0,0.0
1065,266,48.2084,49.9914,158.405,114.555,110.195,,0.0457576,,0.610541,0.347604,0.0,0.0
1068,266.75,48.3954,49.5811,158.258,114.567,111.049,,0.0458013,,0.7907,0.279403,0.0,0.0
1071,267.5,48.1605,49.7662,157.365,114.559,111.197,,,,0.88078,0.266849,0.0,0.0
1074,268.25,48.0983,49.6626,155.62,114.548,110.456,,,,0.450399,0.325765,0.0,0.0
1077,269,48.083,49.2188,159.451,114.563,111.803,,,,0.97086,0.218441,0.0,0.0
1080,269.75,47.6869,49.0506,157.446,114.556,111.2,,,,0.860762,0.266329,0.0,0.0
1083,270.5,47.3275,48.7241,160.634,114.566,111.57,,,,0.810718,0.237353,0.0,0.0
1086,271.25,47.2866,48.4112,159.985,114.553,110.955,,,,0.62055,0.285837,0.0,0.0
1089,272,47.3308,48.5618,156.961,114.551,110.054,,,,1.22108,0.358782,0.0,0.0
1092,272.75,47.0456,48.4942,156.886,114.557,111.226,,,,0.720638,0.264318,0.0,0.0
1095,273.5,46.6969,48.1266,158.942,114.551,110.897,,,,0.780691,0.290431,0.0,0.0
1098,274.25,47.023,48.0293,159.371,114.552,110.238,,,,0.70062,0.34385,0.0,0.0
1101,275,46.8699,47.9711,156.482,114.532,110.766,,,,0.340301,0.299462,0.0,0.0
1102,275.25,47.1553,47.6837,159.087,114.539,110.864,,,,0.380337,0.29209,0.0,0.0