File: 01_Data/PlasticC/Cone/PlasticC_Cone_HF25Scan_220218_R3.csv
Names,Time,Stack TC,Smoke TC,Exh Press,Smoke Comp,Smoke Meas,CO Meter,CO2 Meter,O2 Meter,Sample Mass,Ext Coeff,Start Test,Flame Verif
Chan Gain,,500,500,1,1,1,1,1,1,1,1,1.0,1.0
Offset,,0,0,0.134285,0,0,0,0,0,0,0,0.0,0.0
Gain,,1,1,25.011,13.3843,12.7012,1,1,1,1.00088,1.02252,1.0,1.0
Units,sec,C,C,Pa,%,%,%,%,%,g,/m,,
Baseline,,16.0947,16.058,170.131,99.1743,95.9505,-2.10871e-05,0.0421029,21.0242,-0.300888,0.296423,,
4,0.75,14.4852,13.7905,172.656,99.1691,95.8853,-1.5782e-05,0.043003,21.0221,897.145,0.302037,0.0,0.0
8,1.75,15.0845,14.8529,167.945,99.1593,95.9117,-4.76613e-05,0.0429696,21.0221,897.025,0.298684,0.0,0.0
12,2.75,14.3699,14.7157,169.142,99.165,95.9155,-9.28285e-05,0.0429832,21.0221,897.015,0.298838,0.0,0.0
16,3.75,14.1585,13.9604,173.952,99.1666,96.069,-0.000133699,0.0430422,21.0219,897.296,0.284644,0.0,0.0
20,4.75,14.622,14.5397,170.92,99.176,96.0818,-0.000169502,0.0430333,21.0216,897.306,0.2843,0.0,0.0
24,5.75,14.0862,14.8008,171.624,99.1777,95.9807,-0.000194764,0.0429412,21.0215,897.115,0.293897,0.0,0.0
28,6.75,14.8371,14.8965,167.667,99.1752,95.9931,-0.000208273,0.0428202,21.0214,897.145,0.292516,0.0,0.0
32,7.75,15.1735,14.9222,166.009,99.1891,95.9485,-0.000207194,0.0427804,21.0213,897.226,0.297938,0.0,0.0
36,8.75,14.8884,14.5182,171.541,99.1858,96.0415,-0.000200278,0.0428076,21.0213,897.406,0.28895,0.0,0.0
40,9.75,14.9578,14.4612,166.073,99.1871,95.845,-0.00018823,0.0428036,21.0213,897.336,0.307433,0.0,0.0
44,10.75,15.0548,14.6101,168.641,99.1756,95.9276,-0.00018328,0.0427477,21.0215,897.336,0.298676,0.0,0.0
48,11.75,14.7513,14.6188,171.443,99.1956,95.9613,-0.000186538,0.042711,21.0222,897.296,0.297333,0.0,0.0
52,12.75,15.0931,14.9408,165.778,99.2063,95.9946,-0.000190687,0.042687,21.0227,897.075,0.295179,0.0,0.0
56,13.75,14.7305,14.7396,168.427,99.2112,95.9423,-0.00014741,0.0426712,21.0231,897.125,0.300511,0.0,0.0
60,14.75,14.9782,15.0391,169.454,99.2038,96.0059,-4.99497e-05,0.0426608,21.0236,897.166,0.293906,0.0,0.0
64,15.75,15.0016,15.1249,174.057,99.2226,95.9055,4.4948e-05,0.0426763,21.0241,897.346,0.304989,0.0,0.0
68,16.75,14.7828,15.2214,172.628,99.2251,95.8357,0.000145513,0.0427407,21.0245,897.356,0.311738,0.0,0.0
72,17.75,14.6256,14.7398,172.167,99.223,95.9485,0.000188985,0.042808,21.0247,897.216,0.301004,0.0,0.0
76,18.75,14.9275,15.1666,167.93,99.2263,95.881,0.000156773,0.0428772,21.0248,897.206,0.307606,0.0,0.0
80,19.75,14.8563,15.17,170.711,99.2177,96.0252,9.0528e-05,0.0428672,21.0249,897.025,0.293351,0.0,0.0
84,20.75,15.4443,15.2114,170.071,99.2177,95.9772,-4.46469e-06,0.0428574,21.0249,897.216,0.297842,0.0,0.0
88,21.75,15.1258,15.1715,170.888,99.2308,95.9407,-6.67894e-05,0.0428918,21.025,897.306,0.302429,0.0,0.0
92,22.75,15.2725,15.1035,167.122,99.2279,95.99,-9.52488e-05,0.0429309,21.025,897.286,0.297569,0.0,0.0
96,23.75,15.0435,15.2597,164.317,99.2353,95.9427,-8.35997e-05,0.0429829,21.025,897.145,0.302655,0.0,0.0
100,24.75,15.2275,15.2108,171.335,99.232,96.0303,-5.57325e-05,0.043017,21.0248,897.045,0.294173,0.0,0.0
104,25.75,14.9812,15.336,172.182,99.232,96.0927,-3.07068e-05,0.0430143,21.0246,896.805,0.288345,0.0,0.0
108,26.75,15.4108,15.423,170.041,99.2275,95.9737,-4.12537e-05,0.0430114,21.0245,897.125,0.299053,0.0,0.0
112,27.75,14.9995,14.8975,168.048,99.2336,96.0706,-0.000104355,0.0430369,21.0236,897.376,0.290557,0.0,0.0
116,28.75,14.8819,15.3386,169.005,99.2332,95.8462,-0.000210926,0.0431175,21.023,897.256,0.311497,0.0,0.0
120,29.75,15.3354,15.2151,169.08,99.2345,95.9089,-0.000318035,0.0431764,21.0226,897.105,0.305734,0.0,0.0
124,30.75,14.8892,14.8207,167.612,99.2365,96.0535,-0.00039477,0.0431649,21.0224,897.095,0.292406,0.0,0.0
128,31.75,15.1317,14.9154,168.826,99.243,96.1055,-0.000430507,0.0431058,21.0222,897.246,0.28815,0.0,0.0
132,32.75,14.8188,15.5162,171.427,99.2365,96.0644,-0.000425183,0.0429961,21.0221,896.865,0.291394,0.0,0.0
136,33.75,15.4242,15.2369,170.067,99.2463,96.1051,-0.000410749,0.0429491,21.0222,897.166,0.28848,0.0,0.0
140,34.75,15.1356,15.2102,168.903,99.2434,96.0531,-0.000399544,0.0429934,21.0229,897.045,0.293071,0.0,0.0
144,35.75,14.8655,14.9691,171.664,99.2426,95.8838,-0.000400161,0.0429723,21.0235,897.246,0.308828,0.0,0.0
148,36.75,15.1555,14.8006,172.956,99.2373,95.981,-0.000394685,0.0429005,21.024,897.105,0.299252,0.0,0.0
152,37.75,15.0364,15.21,170.353,99.2389,95.907,-0.00037152,0.0428772,21.0233,897.206,0.306322,0.0,0.0
156,38.75,15.245,15.4079,169.225,99.23,95.7438,-0.000334423,0.0428725,21.0228,897.145,0.320783,0.0,0.0
160,39.75,14.8261,14.8154,174.048,99.2381,95.9357,-0.000277315,0.0428497,21.0225,897.195,0.303564,0.0,0.0
164,40.75,15.0071,15.2843,170.466,99.2373,95.8485,-0.00020977,0.0428709,21.0223,897.015,0.311648,0.0,0.0
168,41.75,15.05,15.4048,175.044,99.2451,95.8582,-0.000154298,0.0429185,21.0221,897.336,0.311444,0.0,0.0
172,42.75,15.6491,15.2381,170.402,99.241,95.6012,-0.000126892,0.0429497,21.0212,897.276,0.335152,0.0,0.0
176,43.75,15.3479,15.4423,173.744,99.2283,95.8613,-0.00011636,0.042984,21.0207,897.135,0.30964,0.0,0.0
180,44.75,15.677,15.5309,169.06,99.2283,95.7213,-0.000115484,0.0430315,21.0203,897.156,0.322742,0.0,0.0
184,45.75,15.2586,15.4215,170.984,99.2312,95.7876,-0.000129809,0.0430186,21.02,897.166,0.316791,0.0,0.0
188,46.75,15.4632,15.4373,166.73,99.2345,95.7911,-0.000164933,0.0429653,21.0199,897.306,0.31676,0.0,0.0
192,47.75,15.1689,15.6956,165.15,99.2426,95.6407,-0.000208973,0.0430555,21.0198,896.735,0.331591,0.0,0.0
196,48.75,15.3054,15.3084,171.967,99.2361,95.8489,-0.000248397,0.0432331,21.0197,897.195,0.311502,0.0,0.0
200,49.75,15.3812,15.6339,169.439,99.2263,95.6744,-0.000276274,0.043421,21.0196,897.326,0.326953,0.0,0.0
204,50.75,15.2278,15.071,169.761,99.2324,95.5954,-0.000254113,0.0435746,21.0196,897.045,0.334924,0.0,0.0
208,51.75,15.445,14.9668,170.48,99.2214,95.5741,-0.000205864,0.0436214,21.0196,896.995,0.335926,0.0,0.0
212,52.75,15.1449,15.2835,173.962,99.2349,95.7275,-0.00016498,0.0436501,21.0191,897.095,0.322751,0.0,0.0
216,53.75,14.9242,15.5835,168.499,99.2349,95.5322,-0.000132471,0.0436524,21.0185,897.065,0.341074,0.0,0.0
220,54.75,14.5819,14.9854,168.508,99.2202,95.5903,-0.000123746,0.0436243,21.018,897.396,0.334288,0.0,0.0
224,55.75,15.0195,15.6818,169.921,99.223,95.5473,-0.000135567,0.0435957,21.0178,897.266,0.338585,0.0,0.0
228,56.75,15.2947,15.2977,165.848,99.223,95.4857,-0.000164043,0.0435443,21.0176,897.125,0.344371,0.0,0.0
232,57.75,15.75,15.3284,166.846,99.2193,95.4426,-0.000212831,0.0435105,21.0174,897.095,0.348082,0.0,0.0
236,58.75,14.7083,15.3599,168.685,99.2259,95.7547,-0.000267106,0.0435476,21.0174,897.216,0.319396,0.0,0.0
240,59.75,14.9759,15.7676,169.413,99.2242,95.3523,-0.000305873,0.0435878,21.0173,897.256,0.357016,0.0,0.0
244,60.75,15.2912,15.3079,168.723,99.2185,95.6086,-0.000331676,0.0436142,21.0188,897.095,0.332432,0.0,0.0
248,61.75,15.2815,15.4931,168.891,99.2279,95.4283,-0.000357307,0.0435814,21.0205,897.226,0.350206,0.0,0.0
252,62.75,15.2975,15.3691,168.815,99.2144,95.3175,-0.000383033,0.0435323,21.0217,897.065,0.359413,0.0,0.0
256,63.75,15.4268,15.7114,169.006,99.2108,95.462,-0.000398318,0.0434361,21.0224,897.166,0.345485,0.0,0.0
260,64.75,15.3245,15.8588,166.046,99.2104,95.5899,-0.000390964,0.0433532,21.0229,897.176,0.333438,0.0,0.0
264,65.75,15.6397,15.2408,169.285,99.2079,95.4186,-0.000350952,0.0432823,21.0232,897.085,0.349307,0.0,0.0
268,66.75,15.415,15.4698,169.967,99.2067,95.6388,-0.000282772,0.0431996,21.0235,897.195,0.328525,0.0,0.0
272,67.75,15.5136,15.4481,165.965,99.2063,95.5399,-0.000194335,0.0431341,21.0236,897.015,0.337762,0.0,0.0
276,68.75,16.0787,15.5703,166.838,99.2063,95.281,-0.000101057,0.0431162,21.0237,897.246,0.362104,0.0,0.0
280,69.75,15.3067,15.771,169.792,99.194,95.402,-2.55354e-05,0.043065,21.0237,897.135,0.349618,0.0,0.0
284,70.75,15.1127,15.9576,166.543,99.2026,94.5946,8.68014e-06,0.0430602,21.0238,896.925,0.426626,0.0,0.0
288,71.75,15.2884,15.9202,167.123,99.2087,95.2198,-8.72585e-06,0.0430282,21.0238,897.195,0.368092,0.0,0.0
292,72.75,15.4334,15.919,172.9,99.1936,95.5368,-7.40805e-05,0.0429716,21.0238,897.236,0.336908,0.0,0.0
296,73.75,15.697,15.7974,170.968,99.183,95.3461,-0.000155163,0.0428555,21.0238,896.995,0.35387,0.0,0.0
300,74.75,15.4584,15.9866,168.637,99.1814,95.055,-0.000213674,0.0427443,21.0238,897.065,0.381148,0.0,0.0
304,75.75,15.3953,16.3237,171.713,99.1879,94.9419,-0.000246364,0.0426878,21.0238,897.186,0.392425,0.0,0.0
308,76.75,15.4377,15.9994,168.981,99.1867,95.074,-0.000267136,0.0426586,21.0238,897.045,0.379837,0.0,0.0
312,77.75,15.7914,16.114,166.667,99.185,94.9225,-0.000288958,0.0426039,21.0235,896.965,0.393998,0.0,0.0
316,78.75,16.045,15.8761,169.606,99.1842,95.2496,-0.000320807,0.0426417,21.0233,897.195,0.363066,0.0,0.0
320,79.75,15.6115,15.9372,172.138,99.1822,95.3384,-0.000367443,0.0426665,21.0232,897.145,0.354526,0.0,0.0
324,80.75,14.6184,16.0435,166.356,99.1854,94.9899,-0.00040405,0.0426236,21.0239,897.145,0.387665,0.0,0.0
328,81.75,15.9851,16.2468,168.358,99.183,95.3872,-0.000423286,0.0425657,21.0244,897.105,0.350005,0.0,0.0
332,82.75,15.6004,15.923,165.542,99.1879,95.5151,-0.000391635,0.0425441,21.0248,896.795,0.338428,0.0,0.0
336,83.75,15.4818,15.9308,168.833,99.1781,95.1535,-0.000336611,0.0425524,21.025,897.105,0.371567,0.0,0.0
340,84.75,15.3642,16.3185,171.299,99.1769,95.0992,-0.000275221,0.0425579,21.0252,897.095,0.376574,0.0,0.0
344,85.75,15.6027,15.8325,169.896,99.1703,94.7465,-0.000217411,0.0424863,21.0253,897.135,0.409312,0.0,0.0
348,86.75,15.8175,16.0762,168.974,99.1732,95.2016,-0.000191877,0.0425145,21.0254,897.236,0.366594,0.0,0.0
352,87.75,15.9074,15.2376,170.422,99.1699,95.1709,-0.000206793,0.0425527,21.0254,897.015,0.369185,0.0,0.0
356,88.75,15.6304,16.0383,169.822,99.1679,95.2054,-0.000247222,0.0425139,21.0255,896.705,0.365749,0.0,0.0
360,89.75,15.4284,15.6171,171.407,99.163,95.3291,-0.000295878,0.0424325,21.0255,897.125,0.353664,0.0,0.0
364,90.75,15.4835,16.1075,169.474,99.1577,95.2062,-0.000348027,0.0424009,21.0255,897.085,0.364753,0.0,0.0
368,91.75,15.6116,15.9191,167.915,99.1519,95.0221,-0.000382608,0.0424407,21.0253,897.005,0.381597,0.0,0.0
372,92.75,15.6489,16.0887,171.727,99.1605,94.5608,-0.000384626,0.0424845,21.0246,896.645,0.426019,0.0,0.0
376,93.75,15.0751,15.5805,171.105,99.1479,95.3388,-0.000349053,0.0425133,21.0241,897.045,0.351385,0.0,0.0
380,94.75,15.6056,15.5204,168.877,99.1577,94.5949,-0.00029462,0.0424821,21.0238,897.115,0.422526,0.0,0.0
384,95.75,15.8715,15.6371,171.84,99.156,94.6077,-0.000236147,0.0424222,21.0236,897.125,0.421164,0.0,0.0
388,96.75,15.6684,15.574,167.038,99.1499,94.5306,-0.000185032,0.042392,21.0235,897.035,0.427927,0.0,0.0
392,97.75,15.6363,15.6439,173.04,99.1483,94.6996,-0.000153744,0.0423972,21.0234,897.226,0.411757,0.0,0.0
396,98.75,15.433,15.9733,170.128,99.1515,94.7477,-0.000127007,0.0423468,21.0233,896.805,0.407503,0.0,0.0
400,99.75,15.413,15.9579,175.4,99.1503,94.8097,-8.82959e-05,0.0423123,21.0235,896.825,0.401522,0.0,0.0
404,100.75,15.3171,16.1558,172.291,99.1634,94.7628,-2.99509e-05,0.0423325,21.0242,896.985,0.407143,0.0,0.0
408,101.75,15.4102,15.7618,171.647,99.1601,95.2004,3.8095e-05,0.0423635,21.0247,897.216,0.365522,0.0,0.0
412,102.75,15.8945,15.9462,173.911,99.1589,94.8791,9.8783e-05,0.0423444,21.025,896.975,0.395736,0.0,0.0
416,103.75,15.6727,16.0836,171.412,99.1617,94.7043,0.000128957,0.0423212,21.0252,897.366,0.412536,0.0,0.0
420,104.75,15.1267,15.4464,171.849,99.1552,94.8938,0.00013768,0.0423311,21.0253,896.905,0.394011,0.0,0.0
424,105.75,15.7787,16.0998,166.884,99.1748,95.0473,0.000105497,0.0423125,21.025,896.725,0.381289,0.0,0.0
428,106.75,15.8006,15.7108,170.521,99.1658,94.8415,-8.07118e-06,0.0423003,21.0241,896.685,0.39992,0.0,0.0
432,107.75,15.4392,16.1591,169.699,99.1568,94.4333,-0.000132023,0.0422923,21.024,897.025,0.437791,0.0,0.0
436,108.75,15.6612,16.0508,166.664,99.1658,94.1647,-0.000197617,0.0423872,21.0236,897.035,0.464153,0.0,0.0
440,109.75,15.6177,15.84,170.162,99.1589,94.8643,-0.000220428,0.0424297,21.0231,897.156,0.397129,0.0,0.0
444,110.75,15.2048,16.0619,167.745,99.1781,93.912,-0.000226405,0.0424385,21.0228,897.105,0.489367,0.0,0.0
448,111.75,15.7209,15.931,168.371,99.1789,93.9414,-0.000221338,0.0424039,21.0226,897.045,0.486628,0.0,0.0
452,112.75,15.5715,15.8591,167.588,99.1797,94.3418,-0.00020684,0.0423393,21.0224,896.935,0.448553,0.0,0.0
456,113.75,15.5816,16.376,170.615,99.1793,94.9829,-0.000168411,0.0423971,21.0224,896.885,0.387769,0.0,0.0
460,114.75,16.0766,15.8863,173.725,99.2099,94.7395,-0.000108483,0.0425206,21.0223,896.825,0.413555,0.0,0.0
464,115.75,15.8558,16.1891,163.928,99.1912,93.9573,-4.66263e-05,0.0426371,21.0223,896.175,0.486219,0.0,0.0
468,116.75,15.6246,16.1071,175.941,99.2059,94.662,1.95564e-06,0.0427386,21.0222,896.765,0.420529,0.0,0.0
472,117.75,15.7832,16.3341,167.536,99.1985,94.4771,3.86141e-05,0.0429054,21.0222,896.815,0.437399,0.0,0.0
476,118.75,15.8971,16.2745,166.924,99.2018,94.212,7.16609e-05,0.0431149,21.0222,897.095,0.462901,0.0,0.0
480,119.75,15.5224,15.7324,171.515,99.2063,94.7108,8.09391e-05,0.0432274,21.0222,896.905,0.415939,0.0,0.0
484,120.75,15.9853,16.0431,174.228,99.1977,94.2876,8.36899e-05,0.0432873,21.0222,897.005,0.455338,0.0,0.0
488,121.75,15.6333,15.714,165.994,99.2042,94.0682,9.79179e-05,0.0433446,21.0222,896.855,0.476824,0.0,0.0
492,122.75,15.4909,15.5412,169.305,99.2067,94.4077,0.000133473,0.0434532,21.0222,897.105,0.444727,0.0,0.0
496,123.75,15.2663,15.9665,178.261,99.2108,94.6953,0.000187295,0.0435745,21.022,896.765,0.417813,0.0,0.0
500,124.75,15.484,15.7976,168.216,99.2083,94.2182,0.000247902,0.0439046,21.0212,897.065,0.462901,0.0,0.0
504,125.75,15.4637,16.1775,169.445,99.2124,94.4136,0.000296735,0.0443467,21.0208,896.815,0.444692,0.0,0.0
508,126.75,15.9488,15.7266,169.692,99.2128,94.6961,0.000331026,0.0445867,21.0205,897.005,0.417925,0.0,0.0
512,127.75,15.6901,16.2379,172.324,99.2063,93.6759,0.000355724,0.044719,21.0202,896.945,0.51449,0.0,0.0
516,128.75,15.2243,16.3932,170.77,99.2189,93.8585,0.000371928,0.0447466,21.0209,896.535,0.49817,0.0,0.0
520,129.75,15.6659,16.028,170.781,99.2165,94.1705,0.000400578,0.0447627,21.0209,896.695,0.46818,0.0,0.0
524,130.75,15.9834,16.0138,168.988,99.2108,94.3256,0.000408113,0.0447844,21.0209,897.055,0.452907,0.0,0.0
528,131.75,15.7326,16.3094,170.883,99.2206,94.8035,0.000381534,0.0447603,21.0203,896.815,0.408462,0.0,0.0
532,132.75,15.1246,15.3545,170.648,99.2063,93.8752,0.000337088,0.0446096,21.0197,896.875,0.495433,0.0,0.0
536,133.75,15.7744,15.9023,168.871,99.2014,93.8279,0.000276018,0.0443822,21.0193,896.655,0.499509,0.0,0.0
540,134.75,15.5319,16.0752,167.858,99.201,94.6488,0.000243319,0.0442797,21.019,896.805,0.421335,0.0,0.0
544,135.75,15.464,16.5658,171.005,99.2063,93.8383,0.000253508,0.044356,21.0186,896.575,0.498953,0.0,0.0
548,136.75,15.26,15.5994,170.548,99.1928,94.2306,0.000296033,0.0446192,21.0178,896.805,0.460318,0.0,0.0
552,137.75,15.8458,16.1319,169.011,99.1862,94.3089,0.000332398,0.0450927,21.0172,896.735,0.452276,0.0,0.0
556,138.75,15.6069,15.7271,170.512,99.1887,93.9674,0.000343976,0.0457042,21.0161,896.795,0.485034,0.0,0.0
560,139.75,15.8188,15.7929,170.213,99.1834,93.655,0.000337202,0.0462239,21.0153,896.775,0.514425,0.0,0.0
564,140.75,15.1654,15.7316,167.575,99.1752,92.6988,0.000317837,0.0466166,21.0148,896.665,0.605738,0.0,0.0
568,141.75,15.9215,16.1924,170.56,99.174,93.5255,0.000285587,0.0467826,21.0145,897.045,0.525983,0.0,0.0
572,142.75,15.7713,16.2035,167.483,99.1646,93.4031,0.000253416,0.046791,21.0143,896.795,0.536888,0.0,0.0
576,143.75,15.83,15.7752,169.095,99.1572,93.5976,0.000236982,0.0467432,21.0139,897.005,0.517556,0.0,0.0
580,144.75,15.7989,16.1505,164.301,99.1524,92.6693,0.000258116,0.046949,21.0124,896.625,0.606519,0.0,0.0
584,145.75,15.0745,16.2025,163.09,99.1352,94.0112,0.000360603,0.0476618,21.0076,896.795,0.476016,0.0,0.0
588,146.75,15.8916,16.4135,168.036,99.1238,94.4717,0.00048331,0.0497723,20.9993,896.565,0.431154,0.0,0.0
592,147.75,15.7641,16.3393,164.3,99.105,91.522,0.00104825,0.0553171,20.9819,896.395,0.713975,0.0,1.0
596,148.75,15.7002,15.8387,158.865,99.1095,85.6621,0.00199666,0.0665339,20.9562,896.585,1.30788,0.0,1.0
600,149.75,15.8146,16.8552,162.436,99.0841,76.3998,0.00360937,0.0877678,20.9219,896.845,2.33197,0.0,1.0
604,150.75,16.6752,16.9383,156.473,99.0621,67.8793,0.00563173,0.117776,20.8787,896.805,3.3906,0.0,1.0
608,151.75,16.5587,17.6352,156.038,99.0551,59.4109,0.00755772,0.155881,20.8061,896.195,4.5852,0.0,1.0
612,152.75,16.5236,17.5375,151.304,99.0412,58.2364,0.0101238,0.200477,20.7336,896.915,4.76303,0.0,0.0
616,153.75,17.6835,18.7602,138.098,99.0212,53.6634,0.0133883,0.26419,20.6039,896.305,5.49474,0.0,0.0
620,154.75,18.6407,20.0409,138.459,99.0073,52.3544,0.0165716,0.328278,20.4908,895.784,5.71498,0.0,0.0
624,155.75,20.0842,21.5372,146.662,98.9914,56.3879,0.0197944,0.382095,20.3669,895.794,5.04784,0.0,0.0
628,156.75,21.4829,23.2819,138.04,98.9747,41.1463,0.0226622,0.445891,20.2469,895.854,7.87279,0.0,0.0
632,157.75,22.443,24.716,141.751,98.9465,43.7879,0.0250765,0.509763,20.1497,895.604,7.31213,0.0,0.0
636,158.75,23.949,26.6304,141.896,98.9134,53.6099,0.0269609,0.565475,20.0765,895.554,5.49391,0.0,0.0
640,159.75,24.9919,27.8483,137.268,98.8942,40.9494,0.0285406,0.60801,20.0233,895.494,7.90852,0.0,0.0
644,160.75,26.8719,29.869,138.443,98.8815,44.4336,0.0297874,0.642815,19.9802,895.174,7.17493,0.0,0.0
648,161.75,27.4243,31.3488,135.071,98.8419,44.7577,0.0308942,0.674246,19.947,895.344,7.10616,0.0,0.0
652,162.75,28.0117,32.6057,133.088,98.8154,43.8297,0.0320533,0.703707,19.912,895.174,7.29166,0.0,0.0
656,163.75,29.8884,33.8607,138.657,98.7994,40.5087,0.0331366,0.729535,19.8693,894.864,7.99697,0.0,0.0
660,164.75,31.2361,36.0195,131.44,98.7766,45.8073,0.0341043,0.756533,19.8279,894.693,6.8923,0.0,0.0
664,165.75,32.264,37.6384,132.967,98.7586,41.6967,0.0349451,0.782749,19.7935,894.703,7.73399,0.0,0.0
668,166.75,33.3888,38.7385,127.987,98.7488,38.3013,0.0356634,0.804489,19.7668,894.323,8.49497,0.0,0.0
672,167.75,34.7362,40.5421,136.653,98.7153,45.2398,0.0362013,0.823161,19.7448,894.333,6.99855,0.0,0.0
676,168.75,35.8746,41.5756,136.476,98.6757,37.7481,0.0367807,0.840801,19.7233,893.953,8.6188,0.0,0.0
680,169.75,37.1788,43.801,140.045,98.6528,41.3913,0.0372345,0.857892,19.7043,893.702,7.79033,0.0,0.0
684,170.75,38.4628,45.2405,143.536,98.6299,41.9153,0.0375226,0.874718,19.6893,893.903,7.6754,0.0,0.0
688,171.75,39.1808,46.5254,125.032,98.6026,38.9656,0.0376712,0.887918,19.6795,893.813,8.32743,0.0,0.0
692,172.75,40.516,48.0835,136.204,98.5797,42.7603,0.0379152,0.896659,19.673,893.222,7.49181,0.0,0.0
696,173.75,41.4626,49.4714,137.447,98.5727,44.2991,0.0386212,0.898721,19.6688,893.052,7.17406,0.0,0.0
700,174.75,42.2576,50.706,134.832,98.5437,39.6335,0.0392187,0.897897,19.666,892.922,8.16965,0.0,0.0
704,175.75,43.1559,51.6908,139.492,98.5184,37.5849,0.0410717,0.907422,19.6448,892.652,8.64336,0.0,0.0
708,176.75,43.8616,52.3732,116.755,98.496,31.589,0.0432476,0.935456,19.5872,892.992,10.2002,0.0,0.0
712,177.75,45.4162,54.3981,119.398,98.48,34.588,0.0451421,0.96336,19.5204,892.381,9.38521,0.0,0.0
716,178.75,47.1258,56.1483,148.15,98.4674,42.027,0.0468428,1.00486,19.4606,892.451,7.63675,0.0,0.0
720,179.75,48.6275,58.4249,126.963,98.451,37.1931,0.048355,1.03846,19.4178,892.141,8.73123,0.0,0.0
724,180.75,49.764,60.0318,125.965,98.4347,35.8543,0.0497385,1.06412,19.3851,891.991,9.05856,0.0,0.0
728,181.75,50.7133,61.1277,130.36,98.4269,31.396,0.0508111,1.08637,19.3535,891.761,10.2488,0.0,0.0
732,182.75,51.9504,62.7729,124.799,98.4212,32.8712,0.0519386,1.10615,19.3284,891.511,9.83646,0.0,0.0
736,183.75,53.1487,64.1066,122.541,98.4919,31.2913,0.0529005,1.12758,19.2992,891.31,10.2847,0.0,0.0
740,184.75,54.1992,65.6722,120.157,98.545,33.8499,0.0535156,1.14958,19.2685,891.32,9.58458,0.0,0.0
744,185.75,55.6692,67.324,116.31,98.5842,33.7116,0.0538823,1.17223,19.2421,891,9.62489,0.0,0.0
748,186.75,57.0377,68.9544,115.721,98.6414,36.3023,0.0542401,1.19085,19.2168,890.74,8.96597,0.0,0.0
752,187.75,58.4156,70.8251,134.821,98.6708,36.6322,0.054802,1.2019,19.1966,890.63,8.88752,0.0,0.0
756,188.75,59.2302,72.1533,122.431,98.7178,31.9588,0.0556643,1.21013,19.1761,890.079,10.1159,0.0,0.0
760,189.75,60.2567,73.5848,121.642,98.7398,30.8328,0.0567223,1.22832,19.145,890.289,10.4397,0.0,0.0
764,190.75,61.6078,75.0298,113.445,98.7913,31.1231,0.0579366,1.24904,19.1037,889.929,10.3603,0.0,0.0
768,191.75,63.1901,76.7503,119.091,98.8374,32.0181,0.0590711,1.2782,19.0638,889.739,10.1102,0.0,0.0
772,192.75,64.4592,78.3113,114.344,98.8611,29.6921,0.0599564,1.30616,19.0374,889.349,10.7888,0.0,0.0
776,193.75,65.5616,80.192,119.992,98.8799,29.8235,0.060452,1.32757,19.02,888.998,10.7509,0.0,0.0
780,194.75,67.0621,82.1958,120.978,98.9056,28.7537,0.0606336,1.33854,19.0181,888.978,11.0809,0.0,0.0
784,195.75,67.8876,83.0441,132.824,98.9203,31.4879,0.0607802,1.33965,19.0194,888.448,10.2675,0.0,0.0
788,196.75,69.3277,84.7113,120.536,98.9502,35.2624,0.0610219,1.33731,19.0202,888.518,9.25471,0.0,0.0
792,197.75,70.2019,85.5073,126.373,98.9906,30.8351,0.0612804,1.33809,19.0208,888.678,10.4617,0.0,0.0
796,198.75,71.1505,87.1746,115.21,99.0024,25.4159,0.0619008,1.34531,19.0038,887.967,12.1964,0.0,0.0
800,199.75,71.9308,87.9978,124.243,99.0384,29.575,0.0626809,1.35785,18.9874,887.727,10.8403,0.0,0.0
804,200.75,72.8891,89.3129,116.872,99.0637,29.8773,0.0636717,1.36774,18.9721,887.607,10.7514,0.0,0.0
808,201.75,74.1693,90.4454,119.645,99.0939,30.4332,0.0649668,1.3822,18.9326,887.367,10.5888,0.0,0.0
812,202.75,74.9036,91.7252,111.833,99.1164,29.3405,0.0659901,1.40602,18.886,887.107,10.9188,0.0,0.0
816,203.75,75.8924,93.0769,116.31,99.1364,26.7175,0.0678803,1.43806,18.8385,886.907,11.7606,0.0,0.0
820,204.75,76.6248,94.1213,108.087,99.1442,25.1555,0.0697792,1.4708,18.7825,886.776,12.3016,0.0,0.0
824,205.75,78.6057,95.8631,111.953,99.1519,26.6691,0.0713794,1.50783,18.7283,886.336,11.7783,0.0,0.0
828,206.75,79.5686,97.2323,119.941,99.1658,25.8388,0.0724169,1.54194,18.6896,886.276,12.0632,0.0,0.0
832,207.75,80.4907,98.9804,107.079,99.1756,24.919,0.0729179,1.56928,18.6641,885.836,12.3892,0.0,0.0
836,208.75,82.2409,100.961,111.498,99.1932,28.6153,0.0730309,1.5861,18.6474,885.796,11.1502,0.0,0.0
840,209.75,83.6157,102.298,114.568,99.2026,25.3086,0.0730296,1.59295,18.6365,885.565,12.2525,0.0,0.0
844,210.75,84.2926,104.023,118.936,99.214,27.3846,0.0731246,1.59653,18.6293,885.215,11.5464,0.0,0.0
848,211.75,85.2683,105.011,106.482,99.232,28.011,0.0734326,1.6009,18.6222,884.665,11.3452,0.0,0.0
852,212.75,86.1619,106.397,112.21,99.241,25.5547,0.0739959,1.60878,18.6119,884.514,12.1692,0.0,0.0
856,213.75,87.2402,107.866,111.323,99.2393,24.2663,0.0748091,1.61838,18.595,884.725,12.633,0.0,0.0
860,214.75,88.5005,109.032,105.372,99.2422,25.745,0.0756293,1.63081,18.5812,884.615,12.1027,0.0,0.0
864,215.75,89.7474,110.613,110.007,99.252,23.043,0.0763348,1.64104,18.5721,883.884,13.0981,0.0,0.0
868,216.75,90.5609,111.782,123.396,99.2467,26.5005,0.0769656,1.64633,18.5662,883.944,11.8437,0.0,0.0
872,217.75,91.3458,112.66,121.886,99.2573,28.2877,0.0775917,1.64811,18.5623,883.464,11.2593,0.0,0.0
876,218.75,92.6557,114.027,113.56,99.2528,27.6625,0.0782659,1.64911,18.5569,882.843,11.4593,0.0,0.0
880,219.75,93.236,115.007,114.857,99.2524,26.6807,0.0790346,1.65514,18.5466,883.123,11.7834,0.0,0.0
884,220.75,94.1253,115.973,109.289,99.2475,24.3496,0.0796901,1.66673,18.5269,882.473,12.603,0.0,0.0
888,221.75,94.9063,116.743,117.885,99.2659,24.5547,0.080533,1.68519,18.4979,882.483,12.5295,0.0,0.0
892,222.75,96.1167,118.271,111.338,99.2594,23.9643,0.0814329,1.70698,18.4636,882.272,12.7472,0.0,0.0
896,223.75,97.3438,120.004,113.363,99.2536,23.869,0.0822144,1.72509,18.4383,881.972,12.7824,0.0,0.0
900,224.75,98.5091,121.235,108.017,99.25,23.1616,0.0830444,1.74147,18.4177,881.202,13.0519,0.0,0.0
904,225.75,99.2312,122.143,112.658,99.2483,27.1373,0.0833901,1.7566,18.4031,881.242,11.6309,0.0,0.0
908,226.75,100.249,123.993,111.629,99.2295,28.5978,0.0830806,1.76712,18.3935,881.181,11.159,0.0,0.0
912,227.75,101.566,124.847,109.856,99.2287,25.6586,0.0821829,1.77243,18.4055,880.901,12.1317,0.0,0.0
916,228.75,102.131,126.189,112.633,99.2512,29.2746,0.0809611,1.76815,18.4348,880.651,10.9511,0.0,0.0
920,229.75,103.806,127.37,115.786,99.221,25.7369,0.0796838,1.75532,18.4762,880.06,12.1036,0.0,0.0
924,230.75,102.91,127.425,112.826,99.2255,28.5067,0.0786175,1.7356,18.5081,880.301,11.1872,0.0,0.0
928,231.75,103.422,128.073,115.702,99.2104,27.923,0.0779643,1.71471,18.5291,879.73,11.3714,0.0,0.0
932,232.75,104.273,128.299,110.624,99.1956,26.9121,0.0778947,1.69811,18.5421,879.58,11.7009,0.0,0.0
936,233.75,104.93,129.569,115.981,99.1981,27.0571,0.0783572,1.6875,18.5489,879.38,11.6529,0.0,0.0
940,234.75,104.864,129.464,104.09,99.2067,20.9018,0.0794934,1.68893,18.5253,879.16,13.9688,0.0,0.0
944,235.75,105.586,129.757,112.466,99.2034,23.7733,0.0809864,1.70543,18.4713,878.739,12.8139,0.0,0.0
948,236.75,106.152,130.693,99.6828,99.2087,23.4136,0.0823318,1.73748,18.4141,878.499,12.9511,0.0,0.0
952,237.75,107.34,132.103,104.298,99.2059,24.7524,0.0829668,1.7716,18.3766,878.169,12.4521,0.0,0.0
956,238.75,107.826,132.982,106.568,99.2148,23.6609,0.0826764,1.79781,18.3521,878.289,12.8575,0.0,0.0
960,239.75,109.232,134.661,111.05,99.2132,27.342,0.0815128,1.80667,18.3581,877.418,11.5603,0.0,0.0
964,240.75,110.36,135.579,118.159,99.2042,28.8238,0.0800561,1.798,18.3952,877.408,11.0861,0.0,0.0
968,241.75,110.917,136.404,111.105,99.1985,29.6703,0.078614,1.76927,18.4566,877.438,10.8259,0.0,0.0
972,242.75,110.57,136.244,117.418,99.192,28.6234,0.0775305,1.73914,18.4969,876.718,11.1476,0.0,0.0
976,243.75,111.119,136.177,121.874,99.1883,24.895,0.0770748,1.71321,18.5233,876.768,12.399,0.0,0.0
980,244.75,110.859,136.014,115.372,99.1944,22.8228,0.0767758,1.70096,18.5406,876.167,13.179,0.0,0.0
984,245.75,111.537,136.728,115.422,99.1993,23.5019,0.0788052,1.70382,18.5387,875.947,12.9165,0.0,0.0
988,246.75,111.807,136.95,109.424,99.1805,22.7666,0.0810492,1.70862,18.5093,875.777,13.1999,0.0,0.0
992,247.75,112.342,137.85,99.7293,99.1932,23.1864,0.0829052,1.74373,18.4624,875.597,13.0372,0.0,0.0
996,248.75,112.891,138.34,111.122,99.1781,24.2244,0.0840035,1.77284,18.426,875.677,12.643,0.0,0.0
1000,249.75,113.879,139.272,110.305,99.1773,24.0872,0.0841289,1.79449,18.4022,875.346,12.6939,0.0,0.0
1004,250.75,114.827,140.163,110.163,99.1793,25.9881,0.0835468,1.80392,18.403,874.976,12.0128,0.0,0.0
1008,251.75,114.679,140.384,107.896,99.1887,24.1438,0.0826997,1.79712,18.4101,874.596,12.6738,0.0,0.0
1012,252.75,115.404,141.008,111.826,99.194,25.7016,0.081989,1.78371,18.4166,874.336,12.1135,0.0,0.0
1016,253.75,115.385,141.402,112.255,99.1773,26.1551,0.0816178,1.77198,18.4209,874.175,11.9551,0.0,0.0
1020,254.75,115.768,141.65,108.361,99.174,22.3027,0.0814663,1.76517,18.4237,874.035,13.384,0.0,0.0
1024,255.75,116.636,142.044,110.585,99.1671,24.0376,0.0812725,1.76945,18.4253,873.725,12.7114,0.0,0.0
1028,256.75,116.738,142.842,112.04,99.1466,25.3497,0.080735,1.77455,18.4263,873.335,12.2329,0.0,0.0
1032,257.75,117.714,143.478,113.969,99.1691,26.5656,0.0799829,1.77055,18.4446,873.134,11.8147,0.0,0.0
1036,258.75,118.201,143.724,112.198,99.1556,28.1412,0.0786345,1.75579,18.4704,872.954,11.2967,0.0,0.0
1040,259.75,118.621,144.165,112.602,99.1417,27.7513,0.0768394,1.73283,18.5127,872.864,11.4206,0.0,0.0
1044,260.75,118.917,144.532,115.909,99.1568,29.023,0.0748501,1.70546,18.5648,872.414,11.02,0.0,0.0
1048,261.75,118.733,144.526,115.382,99.1474,30.5177,0.0728672,1.67472,18.6263,872.434,10.5688,0.0,0.0
1052,262.75,118.88,144.34,124.212,99.1519,28.2013,0.071045,1.63929,18.6843,872.013,11.2772,0.0,0.0
1056,263.75,119.083,144.642,118.28,99.1564,28.6215,0.0697368,1.60724,18.7183,871.873,11.145,0.0,0.0
1060,264.75,118.996,144.519,112.477,99.1605,28.204,0.0683727,1.58032,18.7527,871.413,11.2771,0.0,0.0
1064,265.75,119.06,144.361,112.636,99.1662,28.1753,0.0664743,1.55948,18.7778,871.523,11.2868,0.0,0.0
1068,266.75,118.796,144.497,116.023,99.1626,32.5073,0.0643896,1.54352,18.795,871.183,10.0036,0.0,0.0
1072,267.75,118.544,144.027,123.601,99.1642,31.2188,0.0624032,1.51271,18.8255,871.053,10.3665,0.0,0.0
1076,268.75,118.985,144.06,125.204,99.1675,37.5179,0.0600185,1.47931,18.8857,870.792,8.71827,0.0,0.0
1080,269.75,118.479,143.227,120.679,99.183,36.0864,0.0581242,1.4358,18.9741,870.452,9.06859,0.0,0.0
1084,270.75,118.444,143.004,124.923,99.1907,31.4588,0.0568229,1.39671,19.0362,870.422,10.3003,0.0,0.0
1088,271.75,117.395,141.936,117.906,99.2022,30.1909,0.0559995,1.3623,19.0769,870.302,10.6703,0.0,0.0
1092,272.75,117.222,141.761,116.776,99.2104,29.7707,0.0553626,1.33971,19.1099,870.042,10.7967,0.0,0.0
1096,273.75,116.262,140.284,123.808,99.2152,33.8817,0.0546699,1.3215,19.1418,870.142,9.63696,0.0,0.0
1100,274.75,116.651,140.848,117.129,99.2079,31.1312,0.0538699,1.30164,19.1772,869.581,10.3957,0.0,0.0
1104,275.75,116.484,140.269,132.76,99.2214,35.5616,0.0528674,1.27628,19.2319,869.631,9.20347,0.0,0.0
1108,276.75,116.112,139.523,137.038,99.2202,37.6508,0.0518184,1.24211,19.2849,869.331,8.69131,0.0,0.0
1112,277.75,114.295,137.6,125.311,99.2263,31.9886,0.0504631,1.20951,19.3277,869.301,10.1537,0.0,0.0
1116,278.75,114.411,137.442,129.078,99.2414,37.2407,0.0490601,1.18101,19.375,869.041,8.79146,0.0,0.0
1120,279.75,114.073,136.845,125.897,99.2479,39.6811,0.0472119,1.15018,19.4283,869.031,8.22273,0.0,0.0
1124,280.75,113.833,136.143,132.386,99.2426,40.9843,0.0453165,1.11501,19.4684,868.861,7.93242,0.0,0.0
1128,281.75,112.907,135.415,134.379,99.2438,44.8716,0.0428534,1.07502,19.545,868.891,7.11975,0.0,0.0
1132,282.75,112.436,134.229,135.613,99.2651,46.4038,0.0404714,1.02985,19.6404,868.46,6.8205,0.0,0.0
1136,283.75,111.756,133.025,141.448,99.2467,53.6467,0.0382168,0.991334,19.7355,868.601,5.51792,0.0,0.0
1140,284.75,110.315,131.969,146.174,99.2553,43.9541,0.0360565,0.938825,19.811,868.601,7.30608,0.0,0.0
1144,285.75,109.547,130.178,142.158,99.2655,44.06,0.0344948,0.891344,19.8714,868.17,7.28543,0.0,0.0
1148,286.75,108.568,128.762,142.725,99.2622,47.6233,0.0322325,0.842435,19.9306,868.15,6.58758,0.0,0.0
1152,287.75,107.368,127.965,151.025,99.2716,51.7924,0.0298576,0.800046,19.9956,867.86,5.8357,0.0,0.0
1156,288.75,106.476,125.946,152.013,99.2741,51.0412,0.0275516,0.754286,20.0648,867.95,5.96696,0.0,0.0
1160,289.75,105.401,124.64,150.66,99.2733,53.0006,0.0254137,0.713557,20.1158,867.86,5.62901,0.0,0.0
1164,290.75,103.948,122.967,147.141,99.2798,55.8274,0.023547,0.668351,20.1806,867.279,5.16353,0.0,0.0
1168,291.75,102.788,120.926,156.846,99.2875,61.8404,0.0214294,0.623868,20.2508,867.62,4.24672,0.0,0.0
1172,292.75,101.431,119.297,146.854,99.2835,65.8343,0.0196232,0.583241,20.321,867.8,3.685,0.0,0.0
1176,293.75,100.203,118.302,154.677,99.2753,67.3231,0.0178836,0.5448,20.3812,867.86,3.48369,0.0,0.0
1180,294.75,98.6748,115.854,153.763,99.2753,69.8608,0.0162527,0.500363,20.4451,867.94,3.1518,0.0,0.0
1184,295.75,97.4095,113.998,152.166,99.2749,71.3112,0.0148157,0.461303,20.5019,867.9,2.96745,0.0,0.0
1188,296.75,96.243,112.114,151.113,99.2606,73.6334,0.0134442,0.426295,20.5551,867.52,2.67873,0.0,0.0
1192,297.75,95.1671,110.579,150.582,99.2573,75.6556,0.0121641,0.392637,20.6056,867.74,2.43544,0.0,0.0
1196,298.75,93.7306,108.416,153.707,99.2549,75.4897,0.0110665,0.365091,20.6461,867.59,2.4549,0.0,0.0
1200,299.75,92.4508,107.011,157.007,99.2422,76.5587,0.0101399,0.338969,20.6816,867.56,2.32763,0.0,0.0
1204,300.75,91.0197,105.648,154.653,99.2345,79.2382,0.00925207,0.316296,20.7111,867.65,2.01837,0.0,0.0
1208,301.75,90.1367,103.609,160.742,99.2193,84.5446,0.00843651,0.295019,20.7405,867.85,1.4356,0.0,0.0
1212,302.75,88.3628,102.039,155.977,99.2136,80.3763,0.00770716,0.275877,20.7664,867.429,1.88858,0.0,0.0
1216,303.75,87.7379,100.409,162.088,99.2001,84.5214,0.00705278,0.258499,20.7905,867.76,1.43633,0.0,0.0
1220,304.75,86.4879,99.003,162.249,99.1838,82.3922,0.00645606,0.241829,20.8124,867.329,1.66369,0.0,0.0
1224,305.75,84.4736,96.6557,155.225,99.163,81.6112,0.0058726,0.227014,20.8307,867.55,1.74724,0.0,0.0
1228,306.75,83.7812,96.0006,154.713,99.1397,85.5082,0.0054183,0.213591,20.8452,867.5,1.32674,0.0,0.0
1232,307.75,82.8784,93.9758,158.518,99.1344,86.2241,0.00494586,0.201204,20.8596,867.54,1.25148,0.0,0.0
1236,308.75,81.9851,92.555,156.459,99.107,85.8764,0.00446636,0.190657,20.8722,867.329,1.28524,0.0,0.0
1240,309.75,80.1409,90.6658,156.963,99.0837,86.9443,0.00403745,0.179444,20.8851,867.67,1.17229,0.0,0.0
1244,310.75,79.4328,89.957,162.073,99.0564,87.0559,0.00365333,0.170066,20.8971,867.439,1.1583,0.0,0.0
1248,311.75,78.4005,88.4887,163.167,99.0441,87.4788,0.00331241,0.160597,20.9101,867.6,1.11373,0.0,0.0
1252,312.75,77.7686,87.3392,165.049,99.0155,88.5699,0.00302725,0.151656,20.9205,867.62,0.999955,0.0,0.0
1256,313.75,75.7881,85.1109,163.873,98.9698,89.2374,0.00284016,0.14359,20.9291,867.56,0.928468,0.0,0.0
1260,314.75,75.0789,84.3924,163.738,98.9575,88.8603,0.00271514,0.136597,20.935,867.369,0.965345,0.0,0.0
1264,315.75,74.4118,83.0917,166.184,98.9187,89.0572,0.00263083,0.131349,20.9397,867.389,0.941974,0.0,0.0
1268,316.75,73.317,81.5409,161.62,98.8901,89.6921,0.00254142,0.126254,20.9434,867.51,0.875663,0.0,0.0
1272,317.75,72.6301,80.4544,163.722,98.8517,90.3572,0.00241985,0.121585,20.9481,867.279,0.805909,0.0,0.0
1276,318.75,71.9221,79.2239,160.131,98.8141,90.651,0.0022742,0.117304,20.9545,866.759,0.773381,0.0,0.0
1280,319.75,70.6804,77.9408,168.868,98.768,92.924,0.00209564,0.112662,20.9611,866.989,0.547067,0.0,0.0
1284,320.75,69.6758,77.099,160.504,98.741,91.1088,0.00192721,0.107671,20.9677,867.069,0.721562,0.0,0.0
1288,321.75,68.7431,75.9626,163.428,98.6961,92.8267,0.00176213,0.103289,20.9736,866.979,0.549932,0.0,0.0
1292,322.75,68.1273,74.6006,159.198,98.654,92.1832,0.0016114,0.0987287,20.9783,867.029,0.608496,0.0,0.0
1296,323.75,66.6447,74.041,160.728,98.5919,92.4674,0.0014756,0.0945915,20.9838,866.979,0.575247,0.0,0.0
1300,324.75,66.2544,72.5057,168.629,98.5233,92.1286,0.00132774,0.0908101,20.9882,867.039,0.601924,0.0,0.0
1304,325.75,65.7296,71.1499,161.171,98.46,93.1806,0.00119684,0.0871387,20.9924,867.269,0.494321,0.0,0.0
1308,326.75,64.9231,70.105,163.678,98.4759,92.7902,0.00111137,0.083504,20.995,867.319,0.533424,0.0,0.0
1312,327.75,63.6076,69.0283,168.933,98.4915,93.0937,0.0010323,0.0802988,20.998,866.819,0.505547,0.0,0.0
1316,328.75,62.9622,67.8247,167.245,98.5053,93.6701,0.000946622,0.0772075,21.0015,867.259,0.45145,0.0,0.0
1320,329.75,62.3545,67.2353,165.83,98.5147,93.4914,0.000865592,0.0752968,21.0043,867.319,0.469431,0.0,0.0
1324,330.75,61.436,66.2342,162.23,98.5319,93.5255,0.000821452,0.0725917,21.0068,867.199,0.467721,0.0,0.0
1328,331.75,60.9584,65.1144,162.041,98.554,93.7984,0.000809296,0.0700345,21.0082,867.389,0.443597,0.0,0.0
1332,332.75,60.1873,64.4764,165.139,98.587,93.0123,0.000792717,0.0676928,21.01,867.55,0.522093,0.0,0.0
1336,333.75,59.3006,63.3222,163.851,98.6283,93.7271,0.000743085,0.0654081,21.012,867.449,0.457183,0.0,0.0
1340,334.75,57.908,61.6578,161.304,98.6254,93.7077,0.000672969,0.0637496,21.0136,867.289,0.458778,0.0,0.0
1344,335.75,57.1823,60.9213,159.463,98.6544,93.3282,0.000544811,0.0619134,21.0147,867.47,0.497811,0.0,0.0
1348,336.75,56.9366,60.9538,162.956,98.683,93.5794,0.000424018,0.0603059,21.0154,867.149,0.476303,0.0,0.0
1352,337.75,56.4473,59.9684,165.495,98.6969,93.7682,0.000324886,0.058748,21.0158,867.039,0.45949,0.0,0.0
1356,338.75,56.0396,58.722,164.905,98.7304,93.9891,0.00023505,0.0575452,21.0158,867.179,0.441425,0.0,0.0
1360,339.75,55.1633,58.0083,160.761,98.7529,93.7786,0.000165799,0.0566097,21.0158,867.339,0.463574,0.0,0.0
1364,340.75,54.0122,56.9441,162.593,98.7917,93.2449,0.000107166,0.055644,21.0158,867.129,0.518293,0.0,0.0
1368,341.75,53.8611,56.655,164.458,98.8092,93.8077,5.59463e-05,0.0547925,21.0166,867.439,0.465912,0.0,0.0
1372,342.75,52.2942,55.2468,165.742,98.8489,94.2504,6.40311e-06,0.053997,21.0172,867.169,0.427282,0.0,0.0
1376,343.75,52.9725,55.2566,161.91,98.8623,94.6248,-1.97642e-05,0.0532688,21.0179,867.079,0.392943,0.0,0.0
1380,344.75,51.4824,54.3932,161.742,98.8848,94.5477,1.37473e-05,0.0526374,21.0188,867.169,0.402296,0.0,0.0
1384,345.75,51.5232,54.039,167.494,98.9073,94.5019,0.000112426,0.0520676,21.019,866.739,0.408673,0.0,0.0
1388,346.75,50.6881,53.2759,165.1,98.9326,94.286,0.000249365,0.0515042,21.0187,867.189,0.431484,0.0,0.0
1392,347.75,50.4938,52.5082,165.279,98.9645,94.2531,0.000385988,0.0510634,21.0185,866.539,0.437507,0.0,0.0
1396,348.75,49.7362,51.8872,164.447,98.9906,94.1798,0.000483558,0.0506623,21.0184,867.369,0.446851,0.0,0.0
1400,349.75,49.4204,51.09375,160.104,99.0274,93.9717,0.00053283,0.0502664,21.0183,867.5,0.470026,0.0,0.0
1404,350.75,49.1137,50.6161,163.927,99.047,94.3597,0.000533182,0.0498999,21.0185,867.319,0.434844,0.0,0.0
1408,351.75,48.8426,50.1385,165.532,99.0539,94.1996,0.000434333,0.0494852,21.0187,867.239,0.450703,0.0,0.0
1412,352.75,48.5307,49.6495,166.068,99.0821,94.5543,0.000297514,0.0492131,21.0194,867.359,0.419547,0.0,0.0
1416,353.75,47.423,49.8255,161.301,99.1115,94.3058,0.000158306,0.0489515,21.0201,867.49,0.445809,0.0,0.0
1420,354.75,46.8135,48.324,159.633,99.1319,94.319,5.12403e-05,0.048657,21.0205,867.119,0.446404,0.0,0.0
1424,355.75,46.6868,48.0068,160.146,99.1634,94.2504,-1.65225e-05,0.0483496,21.0208,867.229,0.455776,0.0,0.0
1428,356.75,46.7409,47.6866,161.877,99.1801,94.0728,-4.8345e-05,0.0480641,21.021,867.54,0.474201,0.0,0.0
1432,357.75,45.9757,46.571,163.822,99.1879,94.7984,-5.8916e-05,0.0478616,21.0211,867.319,0.405984,0.0,0.0
1436,358.75,45.6754,46.2279,162.813,99.203,94.7225,-5.45899e-05,0.0477465,21.0212,867.109,0.414542,0.0,0.0
1440,359.75,44.6286,46.2392,167.123,99.2132,94.8349,-3.90014e-05,0.0474704,21.0213,867.409,0.404828,0.0,0.0
1444,360.75,44.8281,45.7513,163.848,99.2259,94.726,-9.29044e-06,0.0472391,21.0208,867.249,0.41628,0.0,0.0
1448,361.75,44.4908,44.9296,161.708,99.2304,94.281,3.65637e-05,0.0470874,21.0195,867.369,0.45892,0.0,0.0
1452,362.75,43.5325,44.513,164.715,99.2434,94.5713,8.37555e-05,0.0469586,21.0186,867.58,0.432523,0.0,0.0
1456,363.75,43.6508,43.857,164.231,99.241,93.9507,0.000155218,0.0468031,21.018,867.379,0.491352,0.0,0.0
1460,364.75,43.6427,43.7243,159.855,99.2496,93.9143,0.000217861,0.0465506,21.0176,867.059,0.495608,0.0,0.0
1464,365.75,42.7697,43.1779,164.315,99.2561,93.9953,0.000265715,0.0463849,21.0173,867.399,0.488464,0.0,0.0
1468,366.75,42.5693,43.0874,162.215,99.2434,94.6291,0.000288107,0.0462347,21.0172,867.62,0.427048,0.0,0.0
1472,367.75,42.4134,42.6629,164.792,99.2602,94.7961,0.000276196,0.0460748,21.017,867.089,0.41274,0.0,0.0
1476,368.75,41.4851,41.7034,164.058,99.2524,95.0915,0.000232864,0.0459336,21.0176,866.869,0.384135,0.0,0.0
1480,369.75,41.34375,42.0095,167.329,99.2541,94.6442,0.000193535,0.0458006,21.0181,867.419,0.426575,0.0,0.0
1484,370.75,41.5936,41.3885,164.991,99.2508,95.0733,0.000159105,0.0456276,21.0185,867.52,0.385707,0.0,0.0
1488,371.75,40.6937,40.6372,163.369,99.2692,94.8725,0.000134921,0.0454786,21.0187,867.349,0.406331,0.0,0.0
1492,372.75,40.3936,40.3772,168.245,99.2414,94.448,0.000107813,0.0453558,21.0189,867.019,0.444038,0.0,0.0
1496,373.75,40.3599,40.0534,165.789,99.2357,94.8267,8.10355e-05,0.0451962,21.0196,866.879,0.407628,0.0,0.0
1500,374.75,40.2055,40.0715,162.376,99.2197,95.1946,3.42524e-05,0.0450849,21.0203,867.099,0.371462,0.0,0.0
1504,375.75,39.0765,38.3857,162.486,99.2173,95.112,-3.46453e-05,0.0450612,21.0207,866.829,0.379023,0.0,0.0
1508,376.75,39.3071,38.774,162.422,99.2108,93.979,-9.84729e-05,0.0450569,21.021,867.129,0.48592,0.0,0.0
1512,377.75,39.2486,38.7437,160.13,99.1899,94.4407,-0.000154194,0.0450402,21.0212,867.309,0.440083,0.0,0.0
1516,378.75,38.9053,38.4062,164.224,99.1764,94.5856,-0.000186023,0.0449816,21.0213,867.439,0.425106,0.0,0.0
1520,379.75,38.1955,37.5817,161.657,99.1544,94.8372,-0.000201405,0.0448543,21.0214,867.239,0.399289,0.0,0.0
1524,380.75,38.8184,38.1032,164.003,99.1462,94.8729,-0.000204242,0.0447958,21.0214,867.149,0.395178,0.0,0.0
1528,381.75,37.9443,37.9875,162.704,99.1229,94.7027,-0.000179591,0.0446823,21.0214,867.429,0.409173,0.0,0.0
1532,382.75,38.3356,36.9519,162.061,99.1123,94.9798,-0.000129948,0.0445828,21.0214,867.319,0.382002,0.0,0.0
1536,383.75,37.9697,37.0526,168.144,99.1046,95.012,-9.73778e-05,0.0444769,21.0211,867.72,0.378262,0.0,0.0
1540,384.75,37.3493,36.86,163.441,99.0882,95.012,-2.43109e-05,0.0443373,21.0213,867.329,0.376783,0.0,0.0
1544,385.75,36.7989,36.4661,164.657,99.0735,94.1841,5.64356e-06,0.0442297,21.0215,867.239,0.453955,0.0,0.0
1548,386.75,37.2963,36.1353,160.608,99.0474,94.624,-2.86415e-05,0.0441592,21.0216,867.309,0.409788,0.0,0.0
1552,387.75,36.5136,36.0672,163.193,99.0396,95.0461,-0.000118552,0.0441267,21.0217,866.939,0.369162,0.0,0.0
1556,388.75,36.8322,35.6422,164.944,99.0229,95.1395,-0.000240465,0.0440751,21.0218,866.819,0.358834,0.0,0.0
1560,389.75,36.1262,35.6199,164.926,99.0041,94.5124,-0.000324946,0.0439799,21.0218,867.309,0.416455,0.0,0.0
1564,390.75,36.0606,34.9536,167.041,98.9902,94.8709,-0.000348094,0.0438813,21.0218,867.259,0.381234,0.0,0.0
1568,391.75,35.7314,35.2399,162.001,98.9665,95.1647,-0.000307367,0.0437907,21.0218,867.249,0.351352,0.0,0.0
1572,392.75,35.9565,34.1944,161.985,98.9404,94.4314,-0.000240852,0.0437177,21.0221,867.47,0.418371,0.0,0.0
1576,393.75,35.0839,33.9908,162.546,98.9142,94.3709,-0.000154385,0.043723,21.0223,867.479,0.421746,0.0,0.0
1580,394.75,35.0896,34.0953,167.588,98.8815,94.9624,-8.7804e-05,0.0437276,21.0225,866.789,0.362739,0.0,0.0
1584,395.75,35.0027,33.6822,166.218,98.8578,95.014,-5.05761e-05,0.0437448,21.0226,866.999,0.355722,0.0,0.0
1588,396.75,34.4566,33.4273,163.818,98.835,94.1166,-3.41202e-05,0.0437535,21.0226,867.169,0.438758,0.0,0.0
1592,397.75,34.2861,33.2806,164.238,98.8129,94.5911,-3.92616e-05,0.0437756,21.0227,867.449,0.391655,0.0,0.0
1596,398.75,34.6174,33.0613,164.205,98.7729,94.4787,-5.57764e-05,0.0437928,21.0229,867.099,0.398686,0.0,0.0
1600,399.75,34.2374,33.1719,163.319,98.7369,94.4434,-9.20156e-05,0.043777,21.0236,867.439,0.398771,0.0,0.0
1604,400.75,34.0629,32.605,164.21,98.6981,94.3217,-0.000159174,0.0437133,21.0241,867.429,0.406811,0.0,0.0
1608,401.75,34.0219,32.8888,163.49,98.6773,94.6632,-0.000249246,0.0436214,21.0245,867.59,0.372504,0.0,0.0
1612,402.75,33.4634,31.9402,164.357,98.6357,94.3779,-0.000349924,0.043511,21.0247,867.189,0.395787,0.0,0.0
1616,403.75,33.7041,32.4628,165.76,98.5948,94.3128,-0.000426035,0.0434636,21.0248,867.229,0.398263,0.0,0.0
1620,404.75,32.4694,31.304,166.136,98.5376,94.6136,-0.000457993,0.0434576,21.0249,867.47,0.364499,0.0,0.0
1624,405.75,33.4902,31.8515,165.698,98.5025,94.1976,-0.000460983,0.0434536,21.025,867.329,0.400817,0.0,0.0
1628,406.75,32.6678,31.0979,168.299,98.4535,94.5132,-0.000451182,0.0434095,21.025,867.6,0.366359,0.0,0.0
1632,407.75,32.9724,31.9116,164.518,98.4102,93.5527,-0.000407568,0.0433397,21.0237,867.449,0.454033,0.0,0.0
1636,408.75,32.7348,31.404,166.304,98.3755,93.9066,-0.000351045,0.0432761,21.0228,867.449,0.417002,0.0,0.0
1640,409.75,32.2932,31.2647,164.197,98.3383,93.61,-0.000293161,0.0432344,21.0223,867.479,0.44198,0.0,0.0
1644,410.75,31.9916,30.6501,163.741,98.2811,93.5786,-0.000247215,0.0431676,21.0219,867.449,0.439771,0.0,0.0
1648,411.75,32.3936,31.2318,161.821,98.226,94.136,-0.00021884,0.0430737,21.0217,867.369,0.381471,0.0,0.0
1652,412.75,32.2448,30.6583,169.538,98.1872,94.274,-0.000206012,0.0429817,21.0215,867.299,0.364789,0.0,0.0
1656,413.75,32.5933,31.0433,163.109,98.1402,94.1639,-0.000201508,0.042916,21.0214,867.56,0.370976,0.0,0.0
1660,414.75,31.1898,29.8653,162.344,98.1002,93.8887,-0.000200565,0.0428948,21.0213,867.379,0.393569,0.0,0.0
1664,415.75,31.976,30.6096,164.491,98.0708,94.1573,-0.000192497,0.0429123,21.0213,867.319,0.365255,0.0,0.0
1668,416.75,31.984,30.2726,162.574,98.0385,93.8701,-0.000168753,0.0428705,21.0213,867.49,0.389706,0.0,0.0
1672,417.75,31.4232,30.0982,163.35,98.0046,93.7597,-0.000143117,0.0428431,21.0212,867.379,0.397166,0.0,0.0
1676,418.75,30.5333,29.3056,166.727,97.976,93.9186,-7.87371e-05,0.0428251,21.0212,867.359,0.379358,0.0,0.0
1680,419.75,31.5425,29.8167,166.753,97.9535,93.6186,-3.012e-05,0.0428634,21.0212,867.339,0.405998,0.0,0.0
1684,420.75,30.8608,29.8325,172.002,97.9249,93.2476,-1.84513e-05,0.0428687,21.022,867.279,0.438991,0.0,0.0
1688,421.75,31.1352,29.4988,163.317,97.8727,93.698,-2.87732e-05,0.042867,21.0225,867.229,0.390981,0.0,0.0
1692,422.75,31.199,29.36,167.331,97.86,93.9798,-2.87542e-05,0.0428658,21.0228,867.5,0.362885,0.0,0.0
1696,423.75,30.6059,29.7936,166.462,97.833,93.5686,-1.27989e-05,0.042865,21.023,867.029,0.399751,0.0,0.0
1700,424.75,31.1241,28.837,163.622,97.8122,93.7321,1.9566e-06,0.042823,21.0229,867.139,0.382173,0.0,0.0
1704,425.75,30.9836,29.0119,165.554,97.7693,93.8976,1.16377e-05,0.0427744,21.022,867.349,0.362417,0.0,0.0
1708,426.75,30.478,28.9685,166.313,97.7546,93.3375,3.82212e-05,0.0427286,21.0214,867.59,0.41473,0.0,0.0
1712,427.75,29.8472,28.7081,164.351,97.7334,93.2092,7.81487e-05,0.0427182,21.021,867.429,0.425119,0.0,0.0
1716,428.75,30.2238,28.7575,165.464,97.7248,93.5534,0.000113342,0.0427167,21.0208,867.49,0.39127,0.0,0.0
1720,429.75,30.2281,28.3227,168.131,97.715,93.7062,0.000124007,0.0427295,21.0208,867.049,0.37574,0.0,0.0
1724,430.75,30.375,28.6504,161.429,97.7027,93.7139,0.000115972,0.0427077,21.0212,866.989,0.373874,0.0,0.0
1728,431.75,29.766,28.5081,162.818,97.6733,93.5531,0.000105367,0.0426597,21.0214,866.989,0.386583,0.0,0.0
1732,432.75,29.4267,28.5023,170.235,97.6672,94.1159,9.52211e-05,0.0427072,21.0216,867.399,0.332221,0.0,0.0
1736,433.75,29.3108,28.1322,168.033,97.6549,93.8248,9.08116e-05,0.0427345,21.0217,867.279,0.358882,0.0,0.0
1740,434.75,29.6714,28.0119,162.581,97.6317,93.7387,6.6664e-05,0.0427721,21.0217,867.229,0.364973,0.0,0.0
1744,435.75,29.52,28.1596,163.889,97.6121,93.5294,1.3228e-05,0.0427585,21.0218,867.71,0.383221,0.0,0.0
1748,436.75,29.5818,27.7746,163.504,97.5814,93.4344,-3.9261e-05,0.0426503,21.0218,867.419,0.389518,0.0,0.0
1752,437.75,29.3224,27.5524,164.397,97.5675,93.8779,-5.83718e-05,0.042597,21.0218,867.47,0.345774,0.0,0.0
1756,438.75,29.1443,27.4869,168.86,97.5524,93.5399,-5.50379e-05,0.0426549,21.0218,867.56,0.376737,0.0,0.0
1760,439.75,29.1508,27.5927,165.73,97.5361,93.7492,-2.73878e-05,0.0426533,21.0218,867.299,0.355187,0.0,0.0
1764,440.75,29.018,27.4508,163.985,97.5173,93.3627,8.12053e-06,0.042599,21.0218,867.159,0.390508,0.0,0.0
1768,441.75,29.1602,27.5043,165.025,97.5071,93.85,3.07637e-05,0.0425634,21.0218,867.219,0.342881,0.0,0.0
1772,442.75,28.6951,26.8894,167.249,97.485,93.7023,,0.0425726,,866.789,0.354978,0.0,0.0
1776,443.75,27.916,26.6988,164.557,97.4724,93.8387,,0.04261,,867.249,0.340762,0.0,0.0
1780,444.75,28.1003,26.9926,161.695,97.4483,93.4294,,0.0426595,,867.049,0.377754,0.0,0.0
1784,445.75,28.065,26.6544,164.268,97.4323,93.348,,,,866.729,0.384106,0.0,0.0
1788,446.75,27.8537,26.4738,164.382,97.4221,93.2949,,,,866.829,0.388269,0.0,0.0
1792,447.75,28.5355,26.7159,166.23,97.3997,93.2267,,,,867.279,0.392762,0.0,0.0
1796,448.75,27.8852,26.4157,166.002,97.3845,93.4007,,,,867.369,0.374641,0.0,0.0
1800,449.75,28.0951,26.5822,165.408,97.3788,93.3953,,,,867.279,0.374635,0.0,0.0
1804,450.75,27.3217,25.4771,167.874,97.3609,93.0902,,,,866.719,0.402325,0.0,0.0
1808,451.75,27.3837,26.7452,166.16,97.3568,93.2918,,,,867.279,0.382548,0.0,0.0
1812,452.75,28.0074,26.3361,163.586,97.3547,93.7356,,,,867.279,0.339791,0.0,0.0
1814,453.25,28.1291,26.2259,169.008,97.3335,93.9504,,,,867.339,0.31731,0.0,0.0