File: 01_Data/PlasticC/Cone/PlasticC_Cone_HF25Scan_220218_R1.csv
Names,Time,Stack TC,Smoke TC,Exh Press,Smoke Comp,Smoke Meas,CO Meter,CO2 Meter,O2 Meter,Sample Mass,Ext Coeff,Start Test,Flame Verif
Chan Gain,,500,500,1,1,1,1,1,1,1,1,1.0,1.0
Offset,,0,0,0.134285,0,0,0,0,0,0,0,0.0,0.0
Gain,,1,1,25.011,13.3843,12.7012,1,1,1,1.00088,1.02252,1.0,1.0
Units,sec,C,C,Pa,%,%,%,%,%,g,/m,,
Baseline,,16.0543,16.5979,167.956,99.6696,96.2318,5.94084e-05,0.0417873,21.0251,-0.916219,0.314846,,
4,0.75,13.0057,13.4587,176.231,99.018,95.6407,-0.000298702,0.0421545,21.0271,896.875,0.311265,0.0,0.0
8,1.75,13.5984,13.455,168.626,98.9718,95.5624,-0.000257592,0.042173,21.0271,896.855,0.314429,0.0,0.0
12,2.75,12.9295,13.2269,168.995,98.9183,95.4562,-0.000235847,0.0422267,21.027,896.985,0.319552,0.0,0.0
16,3.75,13.3352,13.6311,168.65,98.8815,95.4485,-0.000234331,0.0422678,21.027,897.176,0.316947,0.0,0.0
20,4.75,13.0614,13.5647,165.206,98.8587,95.3051,-0.000258128,0.0422309,21.027,897.156,0.328359,0.0,0.0
24,5.75,13.2364,13.2349,165.221,98.8403,95.3163,-0.000280411,0.0422126,21.027,896.975,0.325633,0.0,0.0
28,6.75,13.4924,13.4802,166.345,98.815,95.2198,-0.000282635,0.0422526,21.027,897.055,0.332421,0.0,0.0
32,7.75,13.3496,13.5112,166.124,98.8799,95.4535,-0.000267102,0.0423052,21.0269,897.095,0.316324,0.0,0.0
36,8.75,13.3431,13.6953,167.533,98.9918,95.5291,-0.000240881,0.042322,21.0269,896.865,0.319372,0.0,0.0
40,9.75,13.7313,13.8533,165.468,99.0911,95.645,-0.000225864,0.0424331,21.0267,897.216,0.317485,0.0,0.0
44,10.75,13.4657,14.4657,166.669,99.1899,95.7058,-0.000222062,0.0426244,21.0261,896.825,0.320723,0.0,0.0
48,11.75,13.6194,13.8694,166.42,99.2741,95.8768,-0.000290457,0.0429397,21.0256,897.005,0.312324,0.0,0.0
52,12.75,13.5526,14.0176,165.924,99.357,95.8349,-0.000409492,0.0432641,21.0253,896.995,0.323728,0.0,0.0
56,13.75,14.2396,14.2198,164.354,99.3913,95.9411,-0.000534771,0.0434457,21.0249,896.995,0.316891,0.0,0.0
60,14.75,14.0155,14.7028,171.149,99.4428,96.0167,-0.000627044,0.0437042,21.0246,896.945,0.314471,0.0,0.0
64,15.75,13.5131,13.914,168.681,99.4914,96.0768,-0.000690397,0.043941,21.0242,897.015,0.313244,0.0,0.0
68,16.75,14.1509,14.6263,167.54,99.5359,96.0768,-0.000676434,0.0442969,21.024,897.105,0.317256,0.0,0.0
72,17.75,14.0629,14.0721,169.039,99.562,96.1318,-0.000629021,0.0445598,21.0239,897.065,0.314475,0.0,0.0
76,18.75,14.113,14.5702,166.807,99.5943,96.0279,-0.000537704,0.0448228,21.0238,897.336,0.327079,0.0,0.0
80,19.75,13.6968,14.6478,164.459,99.6164,96.1601,-0.000445656,0.0450402,21.0237,896.665,0.316728,0.0,0.0
84,20.75,14.4778,14.621,169.12,99.6307,96.1299,-0.000390908,0.045157,21.0237,896.895,0.320836,0.0,0.0
88,21.75,14.2157,15.1603,164.774,99.6592,96.3287,-0.000382513,0.0451448,21.0241,897.085,0.304875,0.0,0.0
92,22.75,14.1655,14.6608,169.37,99.6597,96.2307,-0.000396413,0.0450366,21.0247,897.025,0.314048,0.0,0.0
96,23.75,13.9869,14.7352,171.193,99.6621,96.3121,-0.000416427,0.0449154,21.0251,896.745,0.306684,0.0,0.0
100,24.75,14.3742,14.6637,165.153,99.6674,96.2671,-0.00042689,0.0447858,21.0254,897.145,0.311351,0.0,0.0
104,25.75,14.4802,14.9327,169.06,99.6711,96.2229,-0.000414756,0.0446257,21.0256,896.965,0.3158,0.0,0.0
108,26.75,14.3519,14.8152,165.847,99.6805,96.1671,-0.00038767,0.0444955,21.0251,897.055,0.321849,0.0,0.0
112,27.75,14.7518,14.8112,173.985,99.6686,96.1245,-0.000347425,0.0445354,21.0246,896.835,0.32476,0.0,0.0
116,28.75,14.7694,15.2355,170.196,99.6609,96.1919,-0.000326334,0.0446208,21.0242,897.256,0.317771,0.0,0.0
120,29.75,14.6533,14.3333,166.578,99.6433,96.2954,-0.000322779,0.0447066,21.024,896.995,0.306546,0.0,0.0
124,30.75,14.7475,15.1147,169.464,99.6294,96.1931,-0.000322828,0.0448105,21.0239,897.045,0.314832,0.0,0.0
128,31.75,14.5301,15.4365,166.4,99.6266,96.107,-0.000325474,0.0449749,21.0238,897.015,0.322602,0.0,0.0
132,32.75,14.453,14.8553,170.945,99.5992,96.0148,-0.000331626,0.045115,21.0237,896.965,0.328751,0.0,0.0
136,33.75,14.5849,15.3085,167.123,99.5792,95.9834,-0.000319118,0.0452426,21.0237,897.346,0.329882,0.0,0.0
140,34.75,15.1059,15.4288,169.009,99.5481,96.0675,-0.00027046,0.0453763,21.0237,896.705,0.319228,0.0,0.0
144,35.75,14.9683,15.4618,166.63,99.52,95.9613,-0.000209848,0.0454839,21.0232,896.455,0.32661,0.0,0.0
148,36.75,14.9881,15.3186,169.565,99.4897,96.1245,-0.000174785,0.0454807,21.0227,896.465,0.308645,0.0,0.0
152,37.75,14.5087,15.208,169.088,99.4628,95.9101,-0.000146541,0.0454179,21.0224,896.595,0.326239,0.0,0.0
156,38.75,14.9382,15.2261,163.354,99.426,95.7078,-0.000133038,0.0453661,21.0223,896.745,0.341866,0.0,0.0
160,39.75,14.2042,15.5296,165.653,99.3844,95.8524,-0.000139911,0.0453196,21.0221,896.935,0.324567,0.0,0.0
164,40.75,14.7369,15.2807,167.856,99.3121,95.8295,-0.000155656,0.0452765,21.0221,896.905,0.32018,0.0,0.0
168,41.75,14.8625,15.327,164.922,99.2545,95.7396,-0.000163739,0.0452759,21.022,896.465,0.323397,0.0,0.0
172,42.75,14.7954,15.3666,166.855,99.1924,95.7012,-0.000151065,0.0452907,21.022,896.295,0.321381,0.0,0.0
176,43.75,15.0057,15.4215,163.034,99.1499,95.5942,-0.00014275,0.0452972,21.022,896.315,0.327571,0.0,0.0
180,44.75,15.1728,15.1424,169.309,99.1033,95.7806,-0.000159766,0.0453589,21.022,896.995,0.305882,0.0,0.0
184,45.75,14.5805,15.1029,173.559,99.1148,95.6132,-0.000194521,0.0453834,21.022,896.575,0.322611,0.0,0.0
188,46.75,14.7341,15.2413,163.048,99.1479,95.5008,-0.000241397,0.0453296,21.0219,896.745,0.336155,0.0,0.0
192,47.75,14.6608,15.6036,166.694,99.1613,95.657,-0.000265067,0.0452904,21.0219,896.515,0.322715,0.0,0.0
196,48.75,14.5946,15.3867,170.044,99.1793,95.5791,-0.0002437,0.0452824,21.0219,896.975,0.331649,0.0,0.0
200,49.75,14.7488,15.719,167.239,99.2018,95.6442,-0.000211655,0.0452772,21.0219,896.255,0.327572,0.0,0.0
204,50.75,14.4075,15.6001,166.276,99.221,95.6756,-0.000220658,0.0452236,21.0219,896.675,0.326364,0.0,0.0
208,51.75,14.8092,15.2768,167.997,99.2492,95.5012,-0.000264816,0.0451293,21.0219,897.055,0.345278,0.0,0.0
212,52.75,15.0875,15.5687,167.539,99.2688,95.4818,-0.000355769,0.0450119,21.0219,896.685,0.34887,0.0,0.0
216,53.75,14.6855,15.47,171.279,99.2892,95.6679,-0.00045691,0.0448966,21.0219,896.205,0.333255,0.0,0.0
220,54.75,14.6054,14.8232,171.131,99.3043,95.4667,-0.00053348,0.0447986,21.0224,897.045,0.353501,0.0,0.0
224,55.75,14.4541,15.7154,167.076,99.3247,95.571,-0.000581128,0.0447342,21.023,896.995,0.345554,0.0,0.0
228,56.75,14.4999,15.3318,166.235,99.3386,95.6783,-0.000599041,0.0446169,21.0235,896.845,0.336737,0.0,0.0
232,57.75,14.9592,15.672,166.751,99.346,95.5287,-0.000582667,0.0444397,21.0237,897.115,0.351438,0.0,0.0
236,58.75,15.2576,15.4906,168.142,99.3656,95.476,-0.000565254,0.0442733,21.0239,896.815,0.358159,0.0,0.0
240,59.75,14.7098,15.0815,161.1,99.3692,95.5117,-0.000537892,0.0441088,21.024,896.985,0.355141,0.0,0.0
244,60.75,14.7704,15.6112,168.001,99.3966,95.5248,-0.000515652,0.043956,21.0239,897.055,0.356374,0.0,0.0
248,61.75,14.9204,15.7078,169.942,99.4035,95.6047,-0.000502302,0.0438057,21.023,896.845,0.349506,0.0,0.0
252,62.75,14.9929,15.797,168.467,99.4272,95.7151,-0.000493306,0.0437071,21.0224,897.025,0.341285,0.0,0.0
256,63.75,15.4852,16.0379,169.289,99.4407,95.538,-0.0004864,0.0435923,21.022,897.065,0.359117,0.0,0.0
260,64.75,15.4619,16.1729,168.045,99.4554,95.5074,-0.000480626,0.0434919,21.0218,897.015,0.363317,0.0,0.0
264,65.75,15.3535,15.789,168.585,99.475,95.521,-0.000475832,0.0434762,21.022,896.955,0.363811,0.0,0.0
268,66.75,14.7369,15.9796,161.764,99.5028,95.6229,-0.000477181,0.0435159,21.0226,896.945,0.35675,0.0,0.0
272,67.75,15.1811,15.641,165.975,99.4979,95.462,-0.00048273,0.0435921,21.0229,896.955,0.371408,0.0,0.0
276,68.75,15.484,15.8814,166.979,99.504,95.6442,-0.00048266,0.0436223,21.0228,897.025,0.35486,0.0,0.0
280,69.75,14.9229,15.6599,162.96,99.5163,95.5097,-0.000475633,0.0436368,21.0223,896.885,0.368586,0.0,0.0
284,70.75,15.3304,16.2073,170.225,99.5175,95.8741,-0.000459876,0.0437716,21.0214,896.965,0.334546,0.0,0.0
288,71.75,15.5838,15.6843,168.064,99.5396,95.5717,-0.000427352,0.0440261,21.0203,897.005,0.364863,0.0,0.0
292,72.75,15.5061,16.3388,169.65,99.5461,95.4977,-0.000386888,0.0442428,21.0195,896.865,0.372402,0.0,0.0
296,73.75,14.9981,15.6483,165.736,99.5518,95.5353,-0.000299665,0.0446438,21.019,896.795,0.369387,0.0,0.0
300,74.75,15.6101,15.9633,166.544,99.5718,95.6326,-0.000213223,0.0449068,21.0187,896.945,0.362061,0.0,0.0
304,75.75,15.1714,16.2767,170.221,99.5751,95.6388,-0.000158756,0.0450933,21.0185,896.735,0.361773,0.0,0.0
308,76.75,14.8502,16.0244,167.994,99.5665,95.5105,-0.000156728,0.045256,21.0184,896.935,0.373041,0.0,0.0
312,77.75,14.889,15.9593,169.689,99.5898,95.6826,-0.000195848,0.0454193,21.0183,896.675,0.35899,0.0,0.0
316,78.75,15.6393,15.9849,168.416,99.5959,95.6667,-0.000242764,0.0454617,21.0182,896.945,0.361033,0.0,0.0
320,79.75,15.3915,15.8696,168.143,99.5906,95.6179,-0.000279263,0.0454038,21.0182,896.735,0.365134,0.0,0.0
324,80.75,15.575,16.3833,164.473,99.6066,95.3857,-0.00028748,0.0453158,21.0181,896.915,0.388374,0.0,0.0
328,81.75,15.792,16.13,166.617,99.6139,95.1322,-0.000241967,0.0452225,21.0181,896.845,0.412906,0.0,0.0
332,82.75,15.4063,15.8828,165.295,99.6241,95.4314,-0.000157148,0.0451612,21.0185,896.895,0.385656,0.0,0.0
336,83.75,16.0963,16.2318,169.434,99.6347,95.2833,-6.40994e-05,0.0450816,21.0195,896.675,0.40054,0.0,0.0
340,84.75,15.945,15.7105,164.946,99.6482,95.8264,3.24926e-06,0.0450187,21.0204,895.364,0.35078,0.0,0.0
344,85.75,16.2035,16.6524,168.363,99.6588,95.9043,3.16184e-05,0.0447019,21.0209,895.914,0.344446,0.0,0.0
348,86.75,15.8115,16.1525,168.652,99.6576,95.7113,3.10988e-05,0.0444439,21.0213,896.445,0.362407,0.0,0.0
352,87.75,15.7753,16.3659,172.275,99.6654,95.4283,-1.88262e-05,0.0442352,21.0215,896.555,0.389662,0.0,0.0
356,88.75,15.2448,15.7596,173.472,99.667,95.5403,-9.50252e-05,0.0440678,21.0216,896.785,0.379286,0.0,0.0
360,89.75,15.1736,16.3521,165.684,99.6752,94.8283,-0.000180432,0.0439943,21.0217,897.015,0.447118,0.0,0.0
364,90.75,15.509,16.1636,167.299,99.667,94.9775,-0.000282182,0.0439796,21.0218,896.845,0.43228,0.0,0.0
368,91.75,15.2214,16.3648,162.854,99.6711,95.3492,-0.000380464,0.04397,21.0219,897.025,0.397612,0.0,0.0
372,92.75,15.9339,16.4742,165.724,99.6805,95.669,-0.000451082,0.0439888,21.0219,896.875,0.368425,0.0,0.0
376,93.75,15.9734,16.2779,165.502,99.6711,95.3078,-0.000480057,0.0440011,21.0219,896.945,0.401514,0.0,0.0
380,94.75,15.4075,16.012,166.196,99.6899,95.1236,-0.000482031,0.0439894,21.0219,896.835,0.420548,0.0,0.0
384,95.75,15.2552,16.6542,171.55,99.674,95.483,-0.000443348,0.0440041,21.0219,897.045,0.385298,0.0,0.0
388,96.75,15.7107,16.7822,165.575,99.6854,95.1291,-0.000384496,0.0440003,21.0219,896.865,0.419633,0.0,0.0
392,97.75,15.3817,16.604,166.612,99.6956,95.105,-0.000324354,0.0439335,21.0219,896.835,0.422817,0.0,0.0
396,98.75,15.6102,17.0453,169.425,99.6833,95.1279,-0.000277619,0.0439398,21.0219,896.475,0.419558,0.0,0.0
400,99.75,15.911,16.2139,167.686,99.6817,95.307,-0.000247192,0.0439439,21.0219,896.645,0.402542,0.0,0.0
404,100.75,15.7493,16.7279,165.563,99.674,94.8946,-0.000228235,0.0439967,21.0219,896.635,0.440742,0.0,0.0
408,101.75,15.8581,16.6555,170.906,99.6666,95.2233,-0.000211359,0.0440563,21.0219,896.705,0.409065,0.0,0.0
412,102.75,16.0552,16.4554,169.047,99.6727,95.4248,-0.000210911,0.0441206,21.0221,896.885,0.390651,0.0,0.0
416,103.75,15.8965,16.6316,165.27,99.6715,95.3427,-0.000245353,0.0441773,21.0223,896.845,0.398268,0.0,0.0
420,104.75,15.9385,16.6842,164.157,99.6597,94.6922,-0.000276524,0.0442337,21.0217,896.875,0.4586,0.0,0.0
424,105.75,16.0261,16.399,164.064,99.6727,94.8806,-0.000328437,0.0442885,21.022,896.915,0.44195,0.0,0.0
428,106.75,15.7596,16.4583,164.602,99.6805,95.0217,-0.000353429,0.0443494,21.0222,897.075,0.42932,0.0,0.0
432,107.75,15.8203,16.4094,163.461,99.6695,94.9426,-0.000358669,0.0444033,21.0223,896.845,0.435795,0.0,0.0
436,108.75,15.5327,16.5722,165.511,99.6756,95.0345,-0.000344398,0.0444498,21.0224,896.705,0.427672,0.0,0.0
440,109.75,15.7709,15.9718,167.379,99.6674,95.1388,-0.000321416,0.0444942,21.0229,896.785,0.417102,0.0,0.0
444,110.75,15.8967,16.3091,165.279,99.6597,94.7756,-0.000287785,0.04452,21.0236,896.825,0.45071,0.0,0.0
448,111.75,15.7734,16.5481,164.677,99.6568,94.4155,-0.000230272,0.0445013,21.024,896.715,0.484595,0.0,0.0
452,112.75,15.63,16.4655,166.066,99.6548,94.8903,-0.000152087,0.044439,21.024,896.865,0.439417,0.0,0.0
456,113.75,15.9669,16.5604,167.067,99.6311,95.3202,-7.41878e-05,0.044323,21.024,896.895,0.396743,0.0,0.0
460,114.75,16.003,16.9343,164.854,99.6347,94.5384,-2.34846e-06,0.0442062,21.024,896.755,0.470944,0.0,0.0
464,115.75,15.956,17.0318,168.716,99.6253,94.3504,4.83294e-05,0.0440936,21.024,896.525,0.487953,0.0,0.0
468,116.75,15.6134,16.7273,166.645,99.5927,94.5349,7.01279e-05,0.0440987,21.0241,896.875,0.467487,0.0,0.0
472,117.75,16.1306,16.759,166.294,99.6061,95.0078,7.0464e-05,0.0441925,21.0241,896.885,0.423946,0.0,0.0
476,118.75,15.9224,17.3328,163,99.5967,94.2721,6.60536e-05,0.044332,21.0241,896.775,0.492824,0.0,0.0
480,119.75,16.3481,16.5976,166.368,99.5923,94.0996,6.26833e-05,0.0444913,21.0236,896.695,0.508846,0.0,0.0
484,120.75,15.8023,17.0986,166.711,99.5845,94.8167,5.16161e-05,0.0446169,21.023,896.935,0.440055,0.0,0.0
488,121.75,16.2803,16.8798,165.857,99.5743,94.3236,3.67289e-05,0.0446637,21.0225,896.845,0.485897,0.0,0.0
492,122.75,16.5783,17.5199,162.867,99.5743,94.7798,1.41724e-05,0.0446871,21.0223,896.635,0.44262,0.0,0.0
496,123.75,16.5984,16.7217,167.49,99.542,94.2841,-6.27e-07,0.0446847,21.0229,896.815,0.48675,0.0,0.0
500,124.75,16.1723,17.7831,165.537,99.531,94.3814,-1.74208e-05,0.0446645,21.0236,896.845,0.476506,0.0,0.0
504,125.75,16.6034,17.4233,169.558,99.5196,94.9484,-4.27414e-05,0.0446601,21.0241,896.695,0.421746,0.0,0.0
508,126.75,16.816,16.8479,169.901,99.5004,94.8174,-8.03973e-05,0.0446393,21.0244,896.235,0.4324,0.0,0.0
512,127.75,16.4508,17.3058,164.47,99.4979,95.4849,-0.000111109,0.0445546,21.0243,896.245,0.36926,0.0,0.0
516,128.75,16.3315,17.0055,172.659,99.4897,94.8907,-0.000132264,0.0444917,21.0235,895.964,0.424515,0.0,0.0
520,129.75,17.0649,17.7735,168.454,99.4901,93.5283,-0.000114683,0.0444327,21.0229,896.445,0.55427,0.0,0.0
524,130.75,16.6781,17.4158,169.319,99.4803,93.9504,-8.29228e-05,0.0444927,21.0226,895.744,0.512996,0.0,0.0
528,131.75,16.1671,17.4937,169.605,99.4636,94.7035,-3.05645e-05,0.0446573,21.0224,896.485,0.439872,0.0,0.0
532,132.75,15.9379,17.3255,170.91,99.4497,94.2271,2.50505e-05,0.0447919,21.0216,896.205,0.483851,0.0,0.0
536,133.75,15.9306,16.9897,167.649,99.4468,93.8004,7.08035e-05,0.0448802,21.0206,896.505,0.524308,0.0,0.0
540,134.75,15.9312,16.4912,168.773,99.4513,94.2849,9.80478e-05,0.0449814,21.02,896.685,0.478503,0.0,0.0
544,135.75,15.6956,16.8689,165.995,99.4513,93.4879,0.000113557,0.0451534,21.0196,895.574,0.554638,0.0,0.0
548,136.75,16.1802,17.1432,171.053,99.435,95.0609,0.000125329,0.0453415,21.0193,896.004,0.403509,0.0,0.0
552,137.75,16.1313,17.1735,168.468,99.4411,93.736,0.000155545,0.0457406,21.0185,895.694,0.529948,0.0,0.0
556,138.75,16.094,16.7438,167.032,99.4375,93.7341,0.000215876,0.046121,21.0178,895.904,0.529802,0.0,0.0
560,139.75,16.231,16.47,168.046,99.4317,93.5519,0.000295992,0.0467766,21.0142,895.264,0.546735,0.0,0.0
564,140.75,15.7352,16.9663,171.493,99.4317,94.029,0.000436458,0.0484534,21.0065,895.734,0.501104,0.0,0.0
568,141.75,15.8122,16.8014,166.543,99.417,94.5209,0.000702509,0.0523216,20.9941,896.095,0.452979,0.0,1.0
572,142.75,15.6965,16.8668,162.529,99.4035,91.2545,0.00103683,0.0597149,20.9766,896.095,0.767207,0.0,1.0
576,143.75,16.4671,16.7759,163.372,99.3942,86.9118,0.00201032,0.0700252,20.9473,894.783,1.20371,0.0,1.0
580,144.75,15.9135,16.9009,156.947,99.3921,78.9634,0.00328231,0.0837197,20.9111,896.665,2.06377,0.0,1.0
584,145.75,16.276,16.9226,161.331,99.3831,72.8508,0.00526431,0.108808,20.853,896.445,2.78564,0.0,1.0
588,146.75,15.7838,17.2137,145.012,99.3713,62.0075,0.00772088,0.141405,20.772,896.465,4.23009,0.0,0.0
592,147.75,16.7712,18.2243,150.038,99.3652,56.5654,0.0105937,0.187457,20.6545,896.465,5.05344,0.0,0.0
596,148.75,17.6057,18.4562,135.167,99.357,57.2736,0.0133616,0.237896,20.5231,895.814,4.94111,0.0,0.0
600,149.75,18.4199,20.3199,136.422,99.3488,47.8244,0.0163741,0.29628,20.4368,895.884,6.5576,0.0,0.0
604,150.75,19.8462,21.7242,139.017,99.3411,49.3458,0.0186725,0.357598,20.3435,895.464,6.27601,0.0,0.0
608,151.75,21.0515,23.5311,130.646,99.3198,51.5203,0.0213287,0.418635,20.2635,895.474,5.8873,0.0,0.0
612,152.75,21.9271,24.1047,145.895,99.3186,47.6783,0.0235381,0.467527,20.1928,895.874,6.58231,0.0,0.0
616,153.75,23.769,26.2016,137.796,99.317,49.3946,0.0250951,0.510591,20.1399,895.364,6.26496,0.0,0.0
620,154.75,25.079,27.8942,138.646,99.3039,50.5361,0.0261429,0.549975,20.1022,895.234,6.05885,0.0,0.0
624,155.75,25.7231,29.7911,135.606,99.2949,45.4879,0.0269465,0.578439,20.0739,894.543,7.00201,0.0,0.0
628,156.75,27.2303,30.3978,141.252,99.2867,48.4558,0.0276288,0.600719,20.0539,894.883,6.43434,0.0,0.0
632,157.75,27.9584,32.2758,137.453,99.2957,50.8687,0.0284958,0.622453,20.0263,895.044,5.99928,0.0,0.0
636,158.75,29.0375,33.0704,132.602,99.3035,44.7305,0.0294432,0.64448,19.9835,894.964,7.15338,0.0,0.0
640,159.75,30.443,34.2834,138.003,99.292,43.5855,0.0303172,0.669286,19.9417,894.783,7.38494,0.0,0.0
644,160.75,30.9705,36.4714,129.311,99.2773,42.3305,0.0311645,0.69274,19.9128,894.403,7.64569,0.0,0.0
648,161.75,32.8571,37.7548,140.545,99.2655,44.0282,0.0319427,0.713798,19.89,894.463,7.29191,0.0,0.0
652,162.75,34.2223,39.5387,132.968,99.2635,46.0643,0.0326054,0.731601,19.8702,894.373,6.88623,0.0,0.0
656,163.75,34.8818,40.7653,130.388,99.2185,41.5312,0.0331228,0.747592,19.8544,893.873,7.81134,0.0,0.0
660,164.75,36.1956,41.8209,130.031,99.1912,42.9064,0.0336368,0.762564,19.8379,893.863,7.51667,0.0,0.0
664,165.75,36.9033,43.2651,130.959,99.1715,48.7155,0.0341649,0.7744,19.8236,893.953,6.37599,0.0,0.0
668,166.75,38.2113,44.5483,128.227,99.1552,42.0677,0.0348746,0.788004,19.8069,893.783,7.6905,0.0,0.0
672,167.75,39.1069,45.5431,136.118,99.1066,45.4747,0.0357139,0.80259,19.784,893.352,6.98758,0.0,0.0
676,168.75,40.1929,46.936,130.002,99.0964,37.4935,0.0366161,0.819395,19.7426,893.302,8.71768,0.0,0.0
680,169.75,40.786,48.2038,123.366,99.0756,38.6354,0.0374435,0.839841,19.7101,893.072,8.4467,0.0,0.0
684,170.75,41.9734,49.2542,130.636,99.0568,41.037,0.0385243,0.860431,19.6842,892.672,7.90408,0.0,0.0
688,171.75,43.1908,51.0738,128.706,99.0404,37.4904,0.0396195,0.878081,19.666,892.591,8.71335,0.0,0.0
692,172.75,44.1228,51.8515,145.293,99.027,42.2684,0.0408367,0.893803,19.6523,892.491,7.63619,0.0,0.0
696,173.75,44.8939,53.4342,133.527,99.0033,37.3578,0.0417415,0.91226,19.6239,892.481,8.74176,0.0,0.0
700,174.75,45.7819,54.3232,133.856,98.9979,38.2105,0.0431005,0.936129,19.5849,892.181,8.53884,0.0,0.0
704,175.75,47.4692,56.0884,132.014,98.9489,41.6762,0.0443035,0.958954,19.5483,891.821,7.75569,0.0,0.0
708,176.75,48.2963,57.4191,125.891,98.922,32.6232,0.045395,0.979734,19.5194,892.041,9.94993,0.0,0.0
712,177.75,49.3003,58.746,117.965,98.9097,37.3714,0.0461861,0.999914,19.4853,891.641,8.73002,0.0,0.0
716,178.75,50.3425,60.5357,125.168,98.8799,32.998,0.0467357,1.01983,19.4576,891.06,9.84365,0.0,0.0
720,179.75,51.8558,61.5802,131.124,98.8517,35.2159,0.0470803,1.03624,19.4372,891.43,9.25762,0.0,0.0
724,180.75,53.2369,63.2034,121.385,98.8403,38.9094,0.0473768,1.0497,19.4189,891.36,8.36198,0.0,0.0
728,181.75,54.0247,64.1113,123.664,98.8133,34.9539,0.0478272,1.06299,19.4044,890.54,9.32113,0.0,0.0
732,182.75,54.7683,65.5699,122.9,98.806,34.1682,0.0485601,1.0741,19.377,890.61,9.52437,0.0,0.0
736,183.75,55.3773,66.128,142.838,98.8068,39.9296,0.0494073,1.08969,19.3481,890.65,8.12679,0.0,0.0
740,184.75,56.5801,67.9543,122.425,98.7668,31.2991,0.0507443,1.11283,19.2864,890.219,10.3075,0.0,0.0
744,185.75,57.5433,69.2014,121.463,98.7721,33.4011,0.0522109,1.14473,19.2283,889.939,9.72495,0.0,0.0
748,186.75,59.1758,71.203,122.292,98.7729,32.9239,0.0536412,1.17774,19.1766,889.999,9.85408,0.0,0.0
752,187.75,60.6021,72.7742,128.508,98.7545,30.0731,0.0550578,1.20629,19.1281,889.829,10.6648,0.0,0.0
756,188.75,62.0526,74.8926,124.463,98.7374,31.4731,0.0562784,1.23764,19.0933,889.539,10.2551,0.0,0.0
760,189.75,63.2428,76.4002,129.368,98.7218,33.524,0.0571326,1.26236,19.0688,889.198,9.68745,0.0,0.0
764,190.75,64.719,78.1725,116.679,98.7231,34.4348,0.0576827,1.28322,19.0527,888.968,9.44711,0.0,0.0
768,191.75,65.78,79.5771,117.221,98.7141,31.7576,0.0578985,1.29979,19.0421,888.078,10.1722,0.0,0.0
772,192.75,67.2155,81.4187,120.062,98.7149,32.9007,0.0581532,1.30941,19.0346,888.028,9.85515,0.0,0.0
776,193.75,68.4702,82.891,138.105,98.6863,39.642,0.0587598,1.3158,19.0294,887.747,8.18069,0.0,0.0
780,194.75,69.4398,84.1593,124.822,98.6606,35.2845,0.0599551,1.32879,18.9857,887.737,9.2228,0.0,0.0
784,195.75,69.5689,84.3168,119.232,98.6597,33.1798,0.0615231,1.35408,18.9371,887.587,9.77438,0.0,0.0
788,196.75,71.1263,86.3017,109.703,98.6642,29.6215,0.0625518,1.38388,18.883,887.677,10.7923,0.0,0.0
792,197.75,72.4409,88.0126,112.266,98.663,28.1622,0.0642788,1.41916,18.8351,887.487,11.2453,0.0,0.0
796,198.75,73.8888,89.4758,107.902,98.6753,29.6514,0.0656701,1.4493,18.7977,887.077,10.7843,0.0,0.0
800,199.75,75.4367,91.6241,104.136,98.6773,28.5854,0.0666245,1.47654,18.7766,886.937,11.1128,0.0,0.0
804,200.75,76.6499,93.4867,116.986,98.6475,30.6905,0.0677486,1.49748,18.7524,886.736,10.4728,0.0,0.0
808,201.75,78.0961,95.2103,111.701,98.634,28.4463,0.0690532,1.51381,18.7313,886.586,11.1526,0.0,0.0
812,202.75,79.3967,96.457,121.945,98.6622,27.3528,0.069773,1.52462,18.7188,886.406,11.5068,0.0,0.0
816,203.75,80.3553,98.2601,118.427,98.6802,29.9072,0.0706124,1.53801,18.7,886.196,10.7076,0.0,0.0
820,204.75,81.3441,99.4172,121.564,98.6732,26.5749,0.0714329,1.55591,18.675,885.996,11.7666,0.0,0.0
824,205.75,82.3142,101.082,105.814,98.674,26.9106,0.0721225,1.56738,18.653,885.585,11.6541,0.0,0.0
828,206.75,83.6518,102.682,112.558,98.683,27.3342,0.0728081,1.58207,18.6366,885.255,11.5148,0.0,0.0
832,207.75,85.0218,104.219,113.491,98.7055,25.4822,0.0734586,1.59421,18.6248,884.665,12.1461,0.0,0.0
836,208.75,86.5983,106.097,109.776,98.7149,26.564,0.0739861,1.6042,18.6159,884.795,11.774,0.0,0.0
840,209.75,87.3038,106.875,125.791,98.7341,27.7354,0.0742765,1.61173,18.61,884.584,11.3887,0.0,0.0
844,210.75,88.1121,107.89,116.869,98.7267,26.9164,0.0741979,1.61798,18.6067,884.314,11.6569,0.0,0.0
848,211.75,89.0315,109.433,115.483,98.7243,28.3238,0.0739821,1.6233,18.6056,883.834,11.1996,0.0,0.0
852,212.75,89.8936,110.434,123.083,98.7271,27.918,0.0730806,1.62595,18.6144,883.904,11.3293,0.0,0.0
856,213.75,91.5338,111.866,115.599,98.7435,31.1037,0.0719902,1.6226,18.6403,883.624,10.3615,0.0,0.0
860,214.75,91.4799,112.31,118.606,98.7578,32.66,0.0709265,1.61096,18.6679,883.574,9.92491,0.0,0.0
864,215.75,92.5118,113.573,125.764,98.7741,25.1865,0.0703076,1.59704,18.6906,882.973,12.2571,0.0,0.0
868,216.75,93.1682,114.257,118.172,98.797,28.0928,0.0703125,1.58357,18.7057,882.903,11.2796,0.0,0.0
872,217.75,93.5482,114.985,125.499,98.8203,30.3898,0.070921,1.57645,18.6927,882.503,10.5768,0.0,0.0
876,218.75,93.8057,114.878,109.152,98.8387,25.664,0.0714549,1.58186,18.6655,882.262,12.0944,0.0,0.0
880,219.75,94.4408,115.542,118.6,98.8632,22.6934,0.0720703,1.59498,18.6333,881.502,13.2001,0.0,0.0
884,220.75,94.979,116.105,110.308,98.8652,24.8307,0.0731612,1.61315,18.6102,881.872,12.3929,0.0,0.0
888,221.75,95.5731,117.272,117.15,98.8501,27.1009,0.0739812,1.62767,18.5922,881.562,11.6069,0.0,0.0
892,222.75,96.7137,118.188,109.407,98.8656,28.2912,0.074527,1.6379,18.5622,881.312,11.2227,0.0,0.0
896,223.75,97.2129,118.49,116.96,98.9081,25.4225,0.0748836,1.65709,18.5342,880.971,12.1855,0.0,0.0
900,224.75,97.5822,119.398,117.605,98.9171,27.3835,0.0752577,1.67689,18.5135,880.821,11.5199,0.0,0.0
904,225.75,98.8992,120.838,114.764,98.9514,27.19,0.0755935,1.69322,18.4956,880.211,11.5866,0.0,0.0
908,226.75,98.6242,121.196,115.96,98.9828,25.3892,0.0765423,1.70719,18.4796,879.86,12.2041,0.0,0.0
912,227.75,99.1364,121.812,115.818,99.0106,28.7715,0.0778683,1.71909,18.463,879.88,11.0849,0.0,0.0
916,228.75,100.626,123.073,115.349,99.0388,22.9717,0.0796833,1.73091,18.4361,879.61,13.1067,0.0,0.0
920,229.75,101.004,123.505,115.854,99.0784,23.0953,0.081492,1.74191,18.3875,879.11,13.0621,0.0,0.0
924,230.75,102.014,124.4,107.595,99.1111,22.9802,0.0833039,1.76804,18.3494,878.699,13.1099,0.0,0.0
928,231.75,103.01,125.521,105.67,99.1442,24.0326,0.0846473,1.79541,18.3243,878.849,12.7112,0.0,0.0
932,232.75,104.261,127.379,113.716,99.1862,27.409,0.0855631,1.81575,18.3079,878.749,11.5359,0.0,0.0
936,233.75,105.191,128.644,103.247,99.2132,27.2067,0.0858856,1.82838,18.3041,878.119,11.6048,0.0,0.0
940,234.75,106.325,129.648,103.814,99.2402,24.55,0.0857713,1.83348,18.3104,877.909,12.5288,0.0,0.0
944,235.75,106.683,130.655,102.889,99.2761,26.5745,0.085237,1.83279,18.3265,877.758,11.8214,0.0,0.0
948,236.75,107.326,131.196,123.573,99.2737,26.4063,0.084358,1.82474,18.3526,877.789,11.8781,0.0,0.0
952,237.75,107.968,132.382,117.751,99.2802,27.1579,0.083177,1.80993,18.3925,877.298,11.627,0.0,0.0
956,238.75,109.092,133.23,113.301,99.3243,28.9064,0.0817912,1.79178,18.4398,876.898,11.0713,0.0,0.0
960,239.75,109.492,133.779,127.848,99.3411,26.3578,0.0805466,1.76714,18.4798,876.217,11.9007,0.0,0.0
964,240.75,109.903,133.935,116.879,99.3647,29.7746,0.0791849,1.74123,18.5205,876.547,10.8095,0.0,0.0
968,241.75,110.227,134.479,109.139,99.3766,28.1029,0.0781789,1.71894,18.5472,874.255,11.3289,0.0,0.0
972,242.75,110.774,134.85,116.843,99.4027,28.5036,0.0778931,1.69897,18.5652,875.537,11.2042,0.0,0.0
976,243.75,110.524,134.963,109.057,99.4387,27.2288,0.0787256,1.68821,18.5726,874.976,11.6179,0.0,0.0
980,244.75,110.93,135.232,113.214,99.4509,26.3664,0.0801991,1.68304,18.5373,874.896,11.9077,0.0,0.0
984,245.75,110.735,135.411,109.922,99.4779,26.2179,0.0821917,1.7021,18.479,874.776,11.9607,0.0,0.0
988,246.75,112.025,135.912,101.504,99.4946,24.6601,0.0830443,1.73566,18.4545,874.746,12.5117,0.0,0.0
992,247.75,112.423,137.054,110.001,99.5208,26.285,0.0836817,1.76981,18.4318,874.666,11.9417,0.0,0.0
996,248.75,113.469,138.157,110.68,99.5486,28.5467,0.0835806,1.79002,18.4172,874.446,11.2038,0.0,0.0
1000,249.75,113.862,138.802,104.379,99.5755,27.9063,0.0831138,1.78916,18.4381,873.625,11.4097,0.0,0.0
1004,250.75,114.53,139.514,101.041,99.5878,28.3098,0.0822653,1.77941,18.4543,873.845,11.2821,0.0,0.0
1008,251.75,114.813,139.506,106.769,99.6106,28.8726,0.0814339,1.76504,18.4676,873.665,11.1076,0.0,0.0
1012,252.75,115.153,140.155,103.347,99.6278,26.2757,0.080753,1.75539,18.4818,873.375,11.9545,0.0,0.0
1016,253.75,115.012,139.858,111.289,99.6405,28.6234,0.0801136,1.74802,18.496,873.425,11.188,0.0,0.0
1020,254.75,115.92,141.432,117.468,99.6503,25.7105,0.0791832,1.73701,18.5131,872.994,12.1516,0.0,0.0
1024,255.75,116.408,141.736,111.056,99.6646,24.3845,0.0781441,1.72382,18.5456,872.904,12.6278,0.0,0.0
1028,256.75,117.033,142.154,111.844,99.6711,29.3955,0.0768716,1.70636,18.5808,872.614,10.952,0.0,0.0
1032,257.75,116.948,142.254,117.84,99.685,27.6056,0.0756045,1.68049,18.6272,872.534,11.5168,0.0,0.0
1036,258.75,117.596,142.741,104.685,99.685,27.0331,0.0742268,1.65491,18.6657,872.474,11.7048,0.0,0.0
1040,259.75,117.359,142.498,114.709,99.6784,28.311,0.0730157,1.63099,18.6954,871.923,11.2899,0.0,0.0
1044,260.75,117.887,142.937,104.71,99.6727,26.8807,0.0717263,1.60985,18.7276,871.753,11.7544,0.0,0.0
1048,261.75,117.854,143.047,126.795,99.6776,30.5525,0.0707494,1.58622,18.7565,871.583,10.6064,0.0,0.0
1052,262.75,117.665,142.666,130.921,99.674,31.8382,0.0701231,1.56235,18.779,871.163,10.2363,0.0,0.0
1056,263.75,117.414,142.44,111.069,99.6735,27.2249,0.0698258,1.54181,18.7938,870.922,11.6403,0.0,0.0
1060,264.75,116.904,141.845,105.617,99.6793,27.2478,0.0696256,1.52856,18.8054,870.782,11.6333,0.0,0.0
1064,265.75,117.187,141.755,125.702,99.6682,31.5537,0.0695474,1.52267,18.8098,870.822,10.3163,0.0,0.0
1068,266.75,117.848,142.147,115.119,99.6531,28.9696,0.0691457,1.51979,18.8138,870.552,11.0814,0.0,0.0
1072,267.75,117.454,141.902,123.631,99.6556,32.7832,0.0681939,1.51422,18.8226,870.212,9.9723,0.0,0.0
1076,268.75,117.737,141.919,110.608,99.6319,31.784,0.0667974,1.50631,18.8426,870.122,10.2478,0.0,0.0
1080,269.75,117.968,142.158,119.228,99.6192,33.693,0.0648208,1.48958,18.8839,869.932,9.72352,0.0,0.0
1084,270.75,117.604,141.936,116.425,99.611,35.3616,0.0625743,1.473,18.9396,869.611,9.28921,0.0,0.0
1088,271.75,117.56,141.689,120.896,99.6017,37.0997,0.0605551,1.44065,19.0091,869.181,8.858,0.0,0.0
1092,272.75,117.693,141.801,132.609,99.5755,37.7005,0.0586602,1.40213,19.0816,869.091,8.71156,0.0,0.0
1096,273.75,117.217,140.86,124.027,99.5616,35.6849,0.057271,1.36539,19.1303,868.16,9.20314,0.0,0.0
1100,274.75,116.729,140.241,120.826,99.5486,31.1588,0.0557929,1.33515,19.1666,869.021,10.4185,0.0,0.0
1104,275.75,116.191,139.429,123.02,99.5249,33.6736,0.0541643,1.30666,19.2132,868.661,9.72018,0.0,0.0
1108,276.75,116.119,139.131,132.799,99.5057,38.9846,0.0522829,1.27322,19.2754,868.36,8.40484,0.0,0.0
1112,277.75,115.472,138.398,134.501,99.4963,42.9092,0.0501798,1.23681,19.3516,868.49,7.54365,0.0,0.0
1116,278.75,114.975,137.318,129.718,99.4808,40.6633,0.048019,1.19936,19.422,867.65,8.02444,0.0,0.0
1120,279.75,114.02,136.247,130.581,99.4685,41.5203,0.0457812,1.15467,19.4937,867.8,7.83626,0.0,0.0
1124,280.75,113.67,135.37,131.308,99.4489,43.9162,0.0436763,1.11,19.5595,867.64,7.33131,0.0,0.0
1128,281.75,112.805,134.523,129.771,99.4338,40.9699,0.0417341,1.0687,19.6186,867.68,7.95282,0.0,0.0
1132,282.75,111.42,132.542,133.977,99.4089,36.9687,0.0398663,1.02864,19.6798,867.289,8.87236,0.0,0.0
1136,283.75,110.666,131.723,137.484,99.4003,43.6138,0.0380744,0.984821,19.7464,867.53,7.38889,0.0,0.0
1140,284.75,109.867,130.918,137.096,99.3684,40.1893,0.0362597,0.942323,19.8181,866.909,8.11948,0.0,0.0
1144,285.75,108.58,128.527,135.908,99.3566,40.3897,0.0343602,0.901627,19.8924,866.749,8.0738,0.0,0.0
1148,286.75,107.856,127.821,143.511,99.3296,45.3526,0.0325805,0.859735,19.9523,866.799,7.03186,0.0,0.0
1152,287.75,107.226,126.627,144.292,99.3112,45.9182,0.0309147,0.818197,20.0005,866.629,6.91904,0.0,0.0
1156,288.75,105.758,124.868,141.704,99.2831,50.9881,0.028607,0.775482,20.0546,866.579,5.97711,0.0,0.0
1160,289.75,104.326,123.151,151.735,99.2479,60.2857,0.0260548,0.740005,20.1192,866.349,4.47152,0.0,0.0
1164,290.75,102.931,121.324,152.495,99.2304,68.6205,0.0235105,0.688219,20.2052,866.789,3.30842,0.0,0.0
1168,291.75,102.235,119.95,152.769,99.2075,72.9644,0.0210932,0.626512,20.3185,866.819,2.7558,0.0,0.0
1172,292.75,100.322,117.781,158.327,99.1838,79.2026,0.0182905,0.573919,20.4469,866.669,2.01783,0.0,0.0
1176,293.75,98.4631,115.158,158.426,99.1638,84.3283,0.0165576,0.513749,20.5164,866.839,1.45355,0.0,0.0
1180,294.75,96.7881,113.187,155.63,99.1344,81.9934,0.014708,0.462943,20.5867,866.308,1.70275,0.0,0.0
1184,295.75,96.0645,111.637,154.73,99.1176,85.2578,0.0127451,0.408264,20.6481,866.689,1.35105,0.0,0.0
1188,296.75,94.021,109.008,161.137,99.0935,84.9795,0.010968,0.378809,20.7036,867.089,1.3782,0.0,0.0
1192,297.75,92.8898,107.748,159.959,99.0825,87.1455,0.00939601,0.340636,20.7504,866.799,1.15145,0.0,0.0
1196,298.75,91.6461,105.75,157.18,99.1442,88.3882,0.00804883,0.307527,20.7931,866.909,1.03003,0.0,0.0
1200,299.75,90.387,103.826,155.748,99.2067,90.3836,0.00695215,0.279727,20.8275,866.559,0.835442,0.0,0.0
1204,300.75,88.9709,101.918,155.329,99.2765,91.4809,0.00596598,0.254853,20.8568,866.509,0.733514,0.0,0.0
1208,301.75,87.3153,100.547,157.446,99.3447,91.6557,0.00520632,0.23263,20.8809,866.709,0.722552,0.0,0.0
1212,302.75,86.3575,99.0263,158.972,99.4056,92.7255,0.00454721,0.213917,20.9012,866.599,0.62396,0.0,0.0
1216,303.75,84.7298,96.5061,160.883,99.4428,93.6876,0.00403331,0.196309,20.9197,866.949,0.534733,0.0,0.0
1220,304.75,83.3831,95.0242,157.07,99.4975,94.2101,0.00360881,0.181439,20.9346,866.619,0.489784,0.0,0.0
1224,305.75,82.6188,93.7224,156.837,99.5224,93.9422,0.00323681,0.167091,20.9476,866.749,0.517566,0.0,0.0
1228,306.75,81.0361,91.8359,158.382,99.5604,93.5263,0.00286578,0.154801,20.9601,866.899,0.560787,0.0,0.0
1232,307.75,79.7922,90.6987,159.901,99.5771,94.367,0.00257963,0.143879,20.97,867.199,0.482027,0.0,0.0
1236,308.75,78.8434,88.8888,164.675,99.6041,94.6229,0.00227619,0.134237,20.9777,867.219,0.460173,0.0,0.0
1240,309.75,78.2658,87.4134,160.686,99.6319,94.4845,0.00202951,0.12569,20.9831,866.549,0.475801,0.0,0.0
1244,310.75,76.4818,85.8804,160.175,99.6327,94.3969,0.00186766,0.117984,20.9883,866.869,0.484194,0.0,0.0
1248,311.75,75.0263,83.7481,160.426,99.6364,94.3097,0.00172507,0.111928,20.9909,866.719,0.492815,0.0,0.0
1252,312.75,74.2821,82.4643,163.878,99.618,93.8224,0.00154504,0.106592,20.994,867.019,0.537619,0.0,0.0
1256,313.75,73.1994,81.5113,160.896,99.6241,93.8988,0.00138775,0.10175,20.9969,866.719,0.530873,0.0,0.0
1260,314.75,72.5016,79.8696,162.336,99.6012,94.9775,0.0012473,0.0980804,20.9996,867.019,0.426359,0.0,0.0
1264,315.75,71.0006,78.6967,156.323,99.5698,94.5981,0.00114559,0.0937594,21.0018,866.869,0.459435,0.0,0.0
1268,316.75,70.2149,77.1584,159.71,99.522,94.8341,0.00106473,0.0903104,21.004,866.659,0.432775,0.0,0.0
1272,317.75,69.7199,76.3086,161.121,99.4816,94.4868,0.00100388,0.0872084,21.0054,866.549,0.462037,0.0,0.0
1276,318.75,68.2229,75.2636,157.752,99.4338,94.1159,0.000948809,0.0842588,21.0072,866.899,0.49301,0.0,0.0
1280,319.75,67.1843,73.743,159.82,99.3635,94.7163,0.000901763,0.0816836,21.0083,866.459,0.429631,0.0,0.0
1284,320.75,67.0484,72.7993,164.744,99.3292,94.6035,0.000874916,0.0793824,21.0091,866.999,0.437221,0.0,0.0
1288,321.75,65.5959,71.1229,160.703,99.2622,94.6081,0.000856851,0.0774349,21.0101,866.709,0.43073,0.0,0.0
1292,322.75,64.9395,71.0717,158.943,99.1777,94.1228,0.000837518,0.075692,21.011,866.669,0.469213,0.0,0.0
1296,323.75,64.358,69.4245,162.599,99.0825,94.3732,0.000795096,0.074375,21.0117,866.949,0.436772,0.0,0.0
1300,324.75,62.7486,67.8499,163.438,99.0163,93.3468,0.00073563,0.072975,21.0121,866.699,0.528865,0.0,0.0
1304,325.75,62.396,67.3281,157.048,98.9199,94.0469,0.000660998,0.0713231,21.0123,867.019,0.453117,0.0,0.0
1308,326.75,62.0535,66.4299,161.394,98.8097,93.598,0.000600557,0.0696581,21.0125,866.449,0.486022,0.0,0.0
1312,327.75,61.5784,65.6061,160.762,98.7549,93.9155,0.000568685,0.0681877,21.0134,866.849,0.450681,0.0,0.0
1316,328.75,60.117,64.3262,158.885,98.7847,93.2189,0.000558959,0.0668228,21.014,866.849,0.520161,0.0,0.0
1320,329.75,59.7899,64.0252,161.558,98.7962,94.1996,0.000563848,0.0655687,21.0144,866.719,0.427334,0.0,0.0
1324,330.75,58.9545,62.6269,169.332,98.8244,94.5574,0.000562547,0.0643729,21.0147,866.999,0.395891,0.0,0.0
1328,331.75,58.1684,62.1711,156.454,98.8668,93.2507,0.000541412,0.0633271,21.0153,867.019,0.524554,0.0,0.0
1332,332.75,56.9423,60.8152,160.817,98.877,94.0007,0.00051516,0.0623844,21.0161,866.899,0.453626,0.0,0.0
1336,333.75,57.3179,60.8075,160.896,98.9158,93.9849,0.000494603,0.0614245,21.0166,866.879,0.458662,0.0,0.0
1340,334.75,56.4019,59.7929,164.896,98.9363,94.3449,0.000475792,0.0606161,21.0166,866.789,0.426215,0.0,0.0
1344,335.75,56.2507,58.614,160.414,98.9522,93.8856,0.000463792,0.0597568,21.0164,866.989,0.471432,0.0,0.0
1348,336.75,54.9992,58.0068,162.013,98.9694,93.9624,0.000453777,0.0589844,21.0162,866.028,0.465659,0.0,0.0
1352,337.75,54.7865,57.5694,156.69,99.0082,93.7104,0.000438853,0.0582282,21.0162,866.248,0.493258,0.0,0.0
1356,338.75,54.409,56.7831,158.863,99.0204,94.0333,0.000419032,0.0575357,21.0161,866.308,0.463517,0.0,0.0
1360,339.75,53.2513,55.7447,161.441,99.0408,94.4136,0.000391944,0.0569053,21.0161,866.799,0.429169,0.0,0.0
1364,340.75,52.8913,55.3322,161.104,99.0584,94.3217,0.000370977,0.0563529,21.0167,866.799,0.439491,0.0,0.0
1368,341.75,52.8365,54.5289,163.167,99.0796,94.7752,0.000374611,0.0557154,21.0173,865.338,0.398392,0.0,0.0
1372,342.75,52.1612,53.6803,165.35,99.1262,95.007,0.000384078,0.0551082,21.0176,866.148,0.380696,0.0,0.0
1376,343.75,51.442,53.3702,167.269,99.1577,94.5601,0.000385342,0.0545113,21.0179,865.988,0.425835,0.0,0.0
1380,344.75,50.6548,52.6768,170.629,99.1867,95.1853,0.000373556,0.0538127,21.0184,866.218,0.369348,0.0,0.0
1384,345.75,50.4576,51.6786,162.422,99.2071,94.9016,0.000342004,0.0534928,21.0186,866.589,0.397971,0.0,0.0
1388,346.75,49.8225,50.6483,162.078,99.2324,94.3511,0.000294302,0.0530225,21.0196,867.069,0.452432,0.0,0.0
1392,347.75,48.3061,49.8946,160.682,99.2569,94.4635,0.000240591,0.0526545,21.0203,866.639,0.443967,0.0,0.0
1396,348.75,48.5594,49.9489,158.753,99.2655,93.341,0.000198031,0.0522784,21.0207,866.959,0.551966,0.0,0.0
1400,349.75,47.9698,49.2844,158.352,99.2851,94.1407,0.000171703,0.0518215,21.021,866.959,0.477224,0.0,0.0
1404,350.75,48.0602,48.8662,157.931,99.3047,94.6647,0.000170379,0.0514323,21.0212,867.079,0.429204,0.0,0.0
1408,351.75,47.7964,48.3393,162.677,99.328,94.757,0.000195077,0.0510838,21.0213,866.919,0.42257,0.0,0.0
1412,352.75,47.4927,47.8878,163.29,99.3443,94.6775,0.000239389,0.0507699,21.0214,866.919,0.431569,0.0,0.0
1416,353.75,46.7329,47.3384,164.451,99.3558,94.843,0.000291599,0.0504712,21.0213,867.129,0.416937,0.0,0.0
1420,354.75,46.1373,47.1472,159.525,99.3811,94.5015,0.000326176,0.0501863,21.0211,866.959,0.451576,0.0,0.0
1424,355.75,46.0916,46.9017,163.999,99.377,94.5895,0.000345184,0.0499994,21.0209,867.049,0.442859,0.0,0.0
1428,356.75,45.7223,46.1726,163.253,99.395,94.6291,0.000356059,0.0497569,21.0208,866.899,0.440733,0.0,0.0
1432,357.75,45.4086,45.4041,159.614,99.4138,93.7899,0.000368432,0.0495062,21.0208,866.919,0.522325,0.0,0.0
1436,358.75,45.4547,45.3821,157.901,99.4207,94.0945,0.000385397,0.0492427,21.0205,866.629,0.493863,0.0,0.0
1440,359.75,44.5532,45.1968,156.76,99.404,94.393,0.000386617,0.0490024,21.0204,866.889,0.463946,0.0,0.0
1444,360.75,43.8268,43.9455,162.774,99.4309,94.8225,0.00035848,0.0487854,21.0202,866.689,0.425661,0.0,0.0
1448,361.75,44.0237,44.2255,161.755,99.4248,94.9116,0.000319764,0.0485678,21.0201,867.089,0.416679,0.0,0.0
1452,362.75,43.4592,43.9208,164.525,99.4338,94.8027,0.000285364,0.0484135,21.0201,866.809,0.427789,0.0,0.0
1456,363.75,43.4533,43.1846,159.598,99.4395,94.7775,0.000255703,0.0481798,21.0207,867.069,0.430689,0.0,0.0
1460,364.75,43.0287,43.005,156.558,99.453,94.5632,0.00022974,0.0479625,21.0213,867.129,0.452213,0.0,0.0
1464,365.75,42.9217,42.7049,159.847,99.4611,94.538,0.000198232,0.0478,21.022,867.069,0.45534,0.0,0.0
1468,366.75,42.3536,42.4547,159.729,99.4685,94.5887,0.000164356,0.0477047,21.0224,866.869,0.451187,0.0,0.0
1472,367.75,42.4264,42.3268,159.441,99.4628,94.5996,0.000136789,0.0476185,21.0226,866.839,0.449642,0.0,0.0
1476,368.75,41.9763,41.7088,160.629,99.4673,94.2558,9.77998e-05,0.0474829,21.0228,866.899,0.482705,0.0,0.0
1480,369.75,41.9944,41.4756,161.029,99.4714,94.6523,4.97456e-05,0.047345,21.0229,866.909,0.445419,0.0,0.0
1484,370.75,41.3805,40.9061,158.665,99.4718,94.8899,-8.75014e-06,0.0472144,21.023,866.839,0.422968,0.0,0.0
1488,371.75,41.4377,40.8368,162.282,99.4718,94.5283,-7.81684e-05,0.0470296,21.0231,866.949,0.457217,0.0,0.0
1492,372.75,40.8665,40.4351,159.301,99.475,94.0496,-0.000169963,0.0468747,21.0231,866.859,0.503049,0.0,0.0
1496,373.75,40.5894,39.9881,160.16,99.4689,94.6806,-0.000247287,0.0467512,21.0231,866.919,0.442517,0.0,0.0
1500,374.75,40.4781,39.853,158.786,99.4607,94.4845,-0.000284296,0.0466168,21.0231,866.198,0.46038,0.0,0.0
1504,375.75,40.0618,39.5868,168.746,99.4583,94.6608,-0.000258117,0.0465286,21.0232,866.459,0.443432,0.0,0.0
1508,376.75,39.7176,39.4987,158.708,99.4522,95.1295,-0.000199502,0.0463705,21.0232,866.809,0.398585,0.0,0.0
1512,377.75,39.3316,39.4478,162.395,99.4387,95.0132,-0.000107105,0.0462273,21.0232,866.669,0.40834,0.0,0.0
1516,378.75,39.1942,38.7637,160.412,99.4366,95.2116,-4.64838e-05,0.0461088,21.0232,866.839,0.389441,0.0,0.0
1520,379.75,39.1442,38.6973,160.974,99.4272,95.2543,-2.16122e-05,0.0459922,21.0232,866.599,0.384578,0.0,0.0
1524,380.75,39.0502,37.9175,158.858,99.424,94.945,-1.73647e-05,0.0458932,21.0232,866.619,0.413456,0.0,0.0
1528,381.75,38.6515,37.6436,160.485,99.395,94.769,-3.93702e-05,0.0458033,21.0224,866.158,0.427479,0.0,0.0
1532,382.75,38.5534,37.6707,157.035,99.3893,95.4911,-6.57898e-05,0.0457047,21.0214,867.009,0.358878,0.0,0.0
1536,383.75,37.5538,36.4529,166.444,99.3888,94.9523,-7.56978e-05,0.0456222,21.0207,866.869,0.409592,0.0,0.0
1540,384.75,38.0068,36.2938,173.005,99.3582,94.674,-6.24343e-05,0.0455502,21.0202,867.019,0.433154,0.0,0.0
1544,385.75,37.3018,36.4122,160.422,99.3423,95.3116,-3.96527e-05,0.0454811,21.0199,866.268,0.37151,0.0,0.0
1548,386.75,36.7737,35.9857,161.886,99.3157,95.4434,2.25581e-05,0.0453752,21.0194,866.339,0.356719,0.0,0.0
1552,387.75,37.2079,35.9927,163.378,99.288,95.4229,7.9118e-05,0.045288,21.0191,866.699,0.356141,0.0,0.0
1556,388.75,36.9416,35.7186,164.851,99.2647,95.1566,9.59863e-05,0.0451506,21.0189,866.158,0.379103,0.0,0.0
1560,389.75,36.778,35.2842,169.378,99.2357,94.8302,7.10838e-05,0.0450804,21.0187,866.459,0.407298,0.0,0.0
1564,390.75,36.0484,34.4213,165.649,99.2059,95.1826,2.55311e-05,0.0450535,21.0186,866.749,0.371339,0.0,0.0
1568,391.75,35.8654,34.6054,155.15,99.1871,94.8539,-2.10956e-06,0.044931,21.0192,867.129,0.400667,0.0,0.0
1572,392.75,35.8629,34.6716,164.282,99.154,94.6194,-1.1554e-05,0.0448223,21.0197,866.279,0.419878,0.0,0.0
1576,393.75,35.8599,34.5026,166.427,99.1205,95.1469,-1.44351e-05,0.0447458,21.0201,865.828,0.366979,0.0,0.0
1580,394.75,35.1715,33.4249,161.923,99.0788,95.2492,-2.52389e-05,0.0446731,21.0203,865.858,0.353566,0.0,0.0
1584,395.75,34.7108,33.6814,169.938,99.0261,95.5597,-4.93242e-05,0.0446003,21.0205,866.719,0.319606,0.0,0.0
1588,396.75,35.5781,33.7594,166.11,98.9718,95.0093,-6.75813e-05,0.0445526,21.0209,866.068,0.366495,0.0,0.0
1592,397.75,34.4931,32.8727,163.469,98.9628,95.1233,-6.9997e-05,0.0445016,21.0212,865.528,0.354929,0.0,0.0
1596,398.75,34.8036,33.6081,163.947,98.9334,95.0926,-3.33774e-05,0.0444636,21.0213,865.938,0.355151,0.0,0.0
1600,399.75,34.5579,33.118,162.887,98.884,94.8787,2.17076e-05,0.0444531,21.0214,866.879,0.370874,0.0,0.0
1604,400.75,34.1742,32.7533,158.08,98.8092,94.2694,8.92213e-05,0.0444575,21.0215,866.118,0.421879,0.0,0.0
1608,401.75,33.8143,32.6641,165.639,98.7647,94.6872,0.00012488,0.0444385,21.0216,866.949,0.378168,0.0,0.0
1612,402.75,33.4804,32.1664,163.592,98.7116,94.636,0.000112395,0.0443727,21.0216,866.589,0.378193,0.0,0.0
1616,403.75,33.3589,31.7959,163.705,98.6597,94.3721,9.753e-05,0.0442795,21.0216,867.059,0.39853,0.0,0.0
1620,404.75,33.1099,31.86,160.827,98.605,94.1081,6.97943e-05,0.0442433,21.0216,866.829,0.418677,0.0,0.0
1624,405.75,33.0464,31.3254,161.665,98.565,94.1097,6.04525e-05,0.0441695,21.0216,866.929,0.414887,0.0,0.0
1628,406.75,32.9798,31.6337,162.191,98.5315,94.1779,5.47448e-05,0.0441073,21.0216,867.009,0.405339,0.0,0.0
1632,407.75,33.1382,31.3619,161.634,98.4996,93.8957,3.18413e-05,0.0440829,21.0216,867.149,0.429354,0.0,0.0
1636,408.75,32.6792,31.4543,165.028,98.4412,93.7426,-3.26258e-05,0.0440893,21.0216,867.149,0.43867,0.0,0.0
1640,409.75,32.4691,31.2259,162.122,98.3987,93.9085,-0.000120442,0.0440434,21.0216,867.089,0.41894,0.0,0.0
1644,410.75,33.0025,31.4645,162.36,98.3554,94.1225,-0.000212054,0.0439738,21.0216,866.519,0.394579,0.0,0.0
1648,411.75,32.3324,31.1942,158.487,98.3215,93.555,-0.00029288,0.0439176,21.0216,866.359,0.445728,0.0,0.0
1652,412.75,32.4529,31.2008,167.765,98.2795,93.9829,-0.00034591,0.0439083,21.0216,866.749,0.400955,0.0,0.0
1656,413.75,32.3805,30.9453,164.196,98.2292,94.2337,-0.000357681,0.0439108,21.0216,866.839,0.372467,0.0,0.0
1660,414.75,31.9958,30.9683,163.206,98.2072,93.4724,-0.000353004,0.0438736,21.0216,866.819,0.443207,0.0,0.0
1664,415.75,31.7004,30.6982,163.588,98.1659,93.9286,-0.000342423,0.0437904,21.0216,866.849,0.395767,0.0,0.0
1668,416.75,32.0597,30.4708,162.029,98.1181,93.5112,-0.000330987,0.0436469,21.0216,867.019,0.431352,0.0,0.0
1672,417.75,32.1465,30.5953,159.355,98.101,93.4593,-0.000322779,0.0436279,21.0216,866.589,0.434766,0.0,0.0
1676,418.75,31.8011,30.1413,159.878,98.032,93.1654,-0.000324502,0.0436656,21.0216,866.509,0.456696,0.0,0.0
1680,419.75,32.2032,30.05,159.35,98.0046,93.6197,,0.0436311,,866.939,0.410562,0.0,0.0
1684,420.75,31.6869,29.5823,160.49,97.9695,93.4736,,0.043553,,866.369,0.421357,0.0,0.0
1688,421.75,31.455,29.9763,161.501,97.9511,93.6023,,0.0434912,,865.938,0.407335,0.0,0.0
1692,422.75,30.8266,29.474,164.806,97.9294,93.793,,,,866.789,0.387096,0.0,0.0
1696,423.75,31.4578,29.7554,163.593,97.8784,93.6546,,,,866.879,0.395661,0.0,0.0
1700,424.75,31.5808,29.6277,160.496,97.8575,93.5856,,,,866.729,0.400362,0.0,0.0
1704,425.75,31.4096,29.6755,162.057,97.8159,93.4259,,,,866.749,0.411861,0.0,0.0
1708,426.75,30.5957,28.9378,164.113,97.7979,93.529,,,,867.099,0.400321,0.0,0.0
1712,427.75,31.0506,29.2108,161.642,97.764,93.5015,,,,866.689,0.399849,0.0,0.0
1716,428.75,31.0369,29.0122,162.315,97.7407,93.6019,,,,866.779,0.388089,0.0,0.0
1720,429.75,31.1856,28.5986,160.385,97.7183,93.6624,,,,866.989,0.380234,0.0,0.0
1722,430.25,30.2864,28.9737,162.677,97.6986,93.5104,,,,866.539,0.392996,0.0,0.0