File: 01_Data/PlasticC/Cone/PlasticC_Cone_HF75Scan_220218_R2.csv
Names,Time,Stack TC,Smoke TC,Exh Press,Smoke Comp,Smoke Meas,CO Meter,CO2 Meter,O2 Meter,Sample Mass,Ext Coeff,Start Test,Flame Verif
Chan Gain,,500,500,1,1,1,1,1,1,1,1,1.0,1.0
Offset,,0,0,0.132436,0,0,0,0,0,0,0,0.0,0.0
Gain,,1,1,25.011,15.4219,15.1528,1,1,1,1.00089,1.02113,1.0,1.0
Units,sec,C,C,Pa,%,%,%,%,%,g,/m,,
Baseline,,47.8736,48.5351,152.131,115.554,110.681,-0.00623021,0.0396856,21.0087,-482.752,0.386063,,
2,0.25,44.6071,45.4919,154.792,115.825,111.485,-0.00609734,0.0428071,21.0062,31.5279,0.342044,0.0,0.0
4,0.75,44.3077,44.8971,150.243,115.836,111.151,-0.0060779,0.0426519,21.0064,31.4178,0.369782,0.0,0.0
6,1.25,44.3292,45.2213,151.852,115.821,111.252,-0.00608574,0.0425261,21.0065,31.3878,0.360535,0.0,0.0
8,1.75,44.1161,44.5022,154.438,115.836,111.192,-0.0060921,0.0424024,21.0065,31.4378,0.366541,0.0,0.0
10,2.25,44.1753,44.499,154.045,115.816,111.25,-0.0061258,0.0422826,21.0066,31.4078,0.360282,0.0,0.0
12,2.75,44.5794,45.1167,154.332,115.832,111.701,-0.0061531,0.0421637,21.0066,31.4078,0.325255,0.0,0.0
14,3.25,44.7784,44.9624,152.765,115.832,110.633,-0.00618638,0.0420477,21.0067,31.4278,0.4114,0.0,0.0
16,3.75,44.0663,45.1411,157.078,115.835,110.611,-0.00621334,0.0419465,21.0067,31.3878,0.413305,0.0,0.0
18,4.25,44.444,45.1135,157.954,115.83,110.247,-0.00623518,0.041858,21.0067,31.3778,0.442461,0.0,0.0
20,4.75,44.5321,44.8706,156.969,115.829,110.439,-0.00624294,0.0417863,21.0068,31.3978,0.426847,0.0,0.0
22,5.25,44.4157,45.0169,153.528,115.829,109.82,-0.00624922,0.0417282,21.0068,31.3678,0.477208,0.0,0.0
24,5.75,44.3974,44.871,152.818,115.843,111.022,-0.00623072,0.0416811,21.0068,31.3878,0.380731,0.0,0.0
26,6.25,43.8178,44.8156,150.246,115.827,111.363,-0.00621574,0.041643,21.0068,31.3978,0.352077,0.0,0.0
28,6.75,44.5984,45.0719,149.146,115.853,110.282,-0.00619837,0.0416122,21.0068,31.3878,0.44139,0.0,0.0
30,7.25,44.401,44.5717,150.893,115.822,110.471,-0.0061796,0.0415872,21.0068,31.3978,0.423677,0.0,0.0
32,7.75,44.1992,45.1626,149.399,115.835,110.801,-0.00616505,0.0415669,21.0068,31.3878,0.397927,0.0,0.0
34,8.25,44.2457,45.1883,151.226,115.83,110.483,-0.00615385,0.0414923,21.0068,31.3778,0.423394,0.0,0.0
36,8.75,44.3265,44.7615,152.068,115.847,111.992,-0.00614805,0.0413795,21.0068,31.3678,0.303162,0.0,0.0
38,9.25,44.7074,45.5829,150.846,115.84,109.272,-0.00614629,0.041259,21.0068,31.3578,0.522815,0.0,0.0
40,9.75,44.7386,45.2788,153.203,115.845,109.409,-0.00614486,0.0411352,21.0068,31.3478,0.511963,0.0,0.0
42,10.25,44.6202,45.0654,150.927,115.819,110.948,-0.00614567,0.0410349,21.0068,31.3378,0.38481,0.0,0.0
44,10.75,44.6936,45.0186,148.817,115.836,109.145,-0.00614808,0.0409537,21.0076,31.3678,0.532878,0.0,0.0
46,11.25,44.6329,45.3245,148.492,115.821,110.61,-0.00615004,0.040917,21.0082,31.3578,0.412362,0.0,0.0
48,11.75,44.7672,45.662,151.286,115.833,110.065,-0.0061477,0.0409135,21.0087,31.3578,0.45753,0.0,0.0
50,12.25,45.0166,45.4336,155.248,115.826,110.839,-0.00614228,0.0409106,21.0086,31.3778,0.39417,0.0,0.0
52,12.75,44.5051,45.4238,147.585,115.84,109.459,-0.00612744,0.0409083,21.0086,31.3678,0.507475,0.0,0.0
54,13.25,44.4574,45.52,156.617,115.819,109.748,-0.006106,0.0412798,21.0081,31.3478,0.482254,0.0,0.0
56,13.75,44.4555,45.3133,149.259,115.828,109.129,-0.00605662,0.0415807,21.0078,31.3578,0.533662,0.0,0.0
58,14.25,44.6054,45.2392,149.292,115.824,109.02,-0.0059878,0.0423642,21.0057,31.3578,0.542296,0.0,0.0
60,14.75,44.232,45.2176,149.556,115.861,108.781,-0.00584907,0.0429989,21.004,31.3778,0.5648,0.0,0.0
62,15.25,44.551,45.1462,154.048,115.835,108.781,-0.00566201,0.0446302,20.9995,31.3277,0.562799,0.0,0.0
64,15.75,45.0218,45.688,148.498,115.833,108.688,-0.00551048,0.0469572,20.9929,31.3478,0.570272,0.0,0.0
66,16.25,44.2216,45.504,149.708,115.823,109.042,-0.00499293,0.0488421,20.9811,31.3177,0.540363,0.0,0.0
68,16.75,44.3119,45.6357,151.224,115.839,109.994,-0.0045737,0.0551618,20.9657,31.3478,0.463838,0.0,1.0
70,17.25,44.6126,45.2849,143.542,115.824,105.455,-0.00386734,0.0602807,20.9532,31.2377,0.840087,0.0,1.0
72,17.75,45.0076,45.4809,148.844,115.834,96.5466,-0.00296507,0.0736459,20.923,31.3277,1.63142,0.0,1.0
74,18.25,44.7549,45.6927,144.852,115.826,85.945,-0.00223423,0.0844717,20.8985,31.2377,2.6727,0.0,1.0
76,18.75,44.6929,45.4809,143.196,115.835,75.0307,-0.0009924,0.10231,20.8787,31.2477,3.88983,0.0,1.0
78,19.25,44.989,45.7353,143.372,115.829,69.0562,0.000598345,0.124921,20.8302,31.1376,4.63261,0.0,1.0
80,19.75,45.5876,46.5826,134.646,115.831,58.6086,0.00235995,0.143236,20.791,31.0675,6.10213,0.0,1.0
82,20.25,45.2401,46.1553,133.733,115.83,54.4694,0.00421265,0.182447,20.7176,31.0175,6.75814,0.0,1.0
84,20.75,46.1085,47.0437,132.454,115.841,50.0892,0.00571333,0.214208,20.6581,30.8874,7.50989,0.0,1.0
86,21.25,46.1354,47.2263,131.005,115.823,51.5482,0.00791547,0.254666,20.5876,30.8974,7.25129,0.0,1.0
88,21.75,46.6916,47.5389,127.306,115.846,53.8409,0.00969921,0.300694,20.5104,30.8173,6.86325,0.0,1.0
90,22.25,46.8541,48.1676,120.402,115.823,51.6971,0.0119792,0.337977,20.4285,30.7172,7.22549,0.0,0.0
92,22.75,47.8528,49.5632,118.562,115.84,50.634,0.0138261,0.391934,20.3447,30.6872,7.41293,0.0,0.0
94,23.25,48.3752,50.0584,130.972,115.84,49.6846,0.0160071,0.435639,20.2651,30.6071,7.58246,0.0,0.0
96,23.75,48.982,50.462,118.569,115.841,52.3746,0.0177737,0.488618,20.19,30.507,7.11022,0.0,0.0
98,24.25,49.4431,51.3597,125.684,115.844,46.4375,0.0198695,0.53153,20.1179,30.4169,8.18813,0.0,0.0
100,24.75,50.5359,52.5352,116.311,115.829,44.7903,0.021567,0.581376,20.0494,30.3869,8.51049,0.0,0.0
102,25.25,51.6465,53.5829,121.079,115.835,49.1866,0.0234288,0.621751,19.9938,30.3068,7.6723,0.0,0.0
104,25.75,52.2824,54.6633,119.737,115.847,48.7186,0.0253748,0.668676,19.923,30.2168,7.75888,0.0,0.0
106,26.25,53.2392,55.688,122.215,115.836,43.3998,0.0269512,0.706685,19.8657,30.1067,8.79353,0.0,0.0
108,26.75,53.5697,56.4393,116.255,115.845,40.6317,0.0291132,0.7526,19.8192,30.0166,9.38455,0.0,0.0
110,27.25,54.7454,57.8532,121.104,115.84,35.3128,0.0308644,0.789792,19.7588,29.9465,10.6409,0.0,0.0
112,27.75,55.5735,59.1553,119.927,115.84,37.2009,0.0326803,0.8284,19.7099,29.7564,10.1743,0.0,0.0
114,28.25,55.9695,59.762,124.146,115.841,39.705,0.0345089,0.867307,19.652,29.7363,9.59089,0.0,0.0
116,28.75,57.707,61.2454,109.823,115.835,38.3172,0.0366754,0.898822,19.5936,29.6362,9.90912,0.0,0.0
118,29.25,58.3082,62.1166,115.994,115.842,37.7027,0.0384302,0.933051,19.5359,29.4861,10.0545,0.0,0.0
120,29.75,59.5332,63.6806,113.71,115.828,35.0358,0.0404977,0.968609,19.4784,29.406,10.7105,0.0,0.0
122,30.25,60.6991,65.0386,110.619,115.842,37.545,0.0421723,1.00412,19.422,29.2759,10.092,0.0,0.0
124,30.75,61.6105,65.9929,105.384,115.841,33.1459,0.0442466,1.03893,19.3662,29.1558,11.2082,0.0,0.0
126,31.25,61.9905,67.1987,112.353,115.852,30.7487,0.0459267,1.07268,19.3119,29.0758,11.8815,0.0,0.0
128,31.75,63.3961,68.3589,109.604,115.846,34.979,0.0472876,1.10501,19.2679,28.9356,10.7265,0.0,0.0
130,32.25,64.1483,69.7454,100.035,115.849,32.9457,0.0493295,1.13713,19.2323,28.8355,11.2631,0.0,0.0
132,32.75,65.529,71.044,113.617,115.831,32.7972,0.0509834,1.16847,19.1938,28.7555,11.3021,0.0,0.0
134,33.25,66.0735,72.1703,106.583,115.844,32.2696,0.0523231,1.20015,19.1538,28.6354,11.4484,0.0,0.0
136,33.75,67.5853,73.5826,106.426,115.836,33.5334,0.0542768,1.23149,19.1164,28.4652,11.1037,0.0,0.0
138,34.25,68.427,74.8154,108.883,115.847,35.4668,0.0558594,1.25687,19.0814,28.3451,10.6025,0.0,0.0
140,34.75,69.7681,76.0885,113.578,115.832,32.0217,0.0576638,1.28964,19.0446,28.235,11.5166,0.0,0.0
142,35.25,71.0051,77.7873,105.002,115.844,31.7914,0.0591254,1.31619,19.0071,28.1249,11.5821,0.0,0.0
144,35.75,71.7216,78.7943,103.358,115.839,29.44,0.0607676,1.33769,18.9656,27.9848,12.2701,0.0,0.0
146,36.25,73.1441,80.6469,104.873,115.855,31.5773,0.0620978,1.37233,18.9221,27.8547,11.6435,0.0,0.0
148,36.75,74.0442,81.8337,106.202,115.836,33.175,0.0634577,1.40038,18.8868,27.7346,11.1999,0.0,0.0
150,37.25,75.044,83.1482,106.479,115.842,31.378,0.0648133,1.42795,18.8402,27.5944,11.6992,0.0,0.0
152,37.75,76.4546,84.4355,113.542,115.831,30.5947,0.0661923,1.45465,18.8025,27.5344,11.9249,0.0,0.0
154,38.25,77.3972,85.7612,101.095,115.866,27.7165,0.0675621,1.48093,18.7574,27.3742,12.8125,0.0,0.0
156,38.75,78.2655,87.2874,106.711,115.83,25.0428,0.0686717,1.50642,18.7208,27.2141,13.7184,0.0,0.0
158,39.25,79.6166,88.957,106.266,115.849,28.4597,0.0699651,1.53208,18.6911,27.1741,12.5742,0.0,0.0
160,39.75,80.9883,90.5142,107.488,115.837,28.1947,0.0713679,1.55737,18.6514,27.0139,12.657,0.0,0.0
162,40.25,81.552,91.3426,106.509,115.848,24.757,0.072811,1.58369,18.6191,26.8338,13.8226,0.0,0.0
164,40.75,82.5771,92.7974,107.303,115.849,26.6853,0.0742561,1.61026,18.579,26.8238,13.1508,0.0,0.0
166,41.25,83.8515,94.2421,106.396,115.854,23.8275,0.0754266,1.63178,18.5465,26.5735,14.1658,0.0,0.0
168,41.75,85.4063,96.072,103.131,115.804,25.3919,0.0769734,1.65975,18.5075,26.5235,13.5923,0.0,0.0
170,42.25,85.7384,96.9966,101.579,115.825,23.1884,0.0785198,1.68241,18.4758,26.3533,14.4071,0.0,0.0
172,42.75,87.093,98.4455,110.291,115.831,24.4092,0.0800366,1.70575,18.4327,26.2332,13.9479,0.0,0.0
174,43.25,88.4321,100.087,96.1325,115.855,23.1158,0.081541,1.72912,18.3977,26.013,14.4375,0.0,0.0
176,43.75,89.5109,101.507,97.5651,115.84,23.4548,0.0830078,1.74806,18.3567,25.8629,14.306,0.0,0.0
178,44.25,90.5129,102.824,97.9193,115.851,23.1991,0.084445,1.77232,18.3235,25.7628,14.405,0.0,0.0
180,44.75,91.5682,104.198,98.8062,115.848,22.1938,0.0858332,1.79197,18.2799,25.6928,14.8015,0.0,0.0
182,45.25,92.3606,105.276,102.02,115.866,23.0983,0.0869576,1.81683,18.2446,25.4425,14.4452,0.0,0.0
184,45.75,93.6934,107.057,99.0322,115.849,22.9498,0.0882215,1.83697,18.2065,25.2824,14.5016,0.0,0.0
186,46.25,94.7316,108.287,92.3008,115.853,20.6002,0.089563,1.8652,18.1672,25.1523,15.4693,0.0,0.0
188,46.75,95.9026,109.907,101.069,115.856,24.1138,0.0909327,1.88806,18.1353,25.0222,14.059,0.0,0.0
190,47.25,96.6215,110.533,98.6467,115.854,23.8294,0.0922969,1.91782,18.1024,24.7719,14.1651,0.0,0.0
192,47.75,97.8851,112.136,98.2681,115.827,22.8809,0.0938092,1.94192,18.0692,24.7219,14.5268,0.0,0.0
194,48.25,99.2885,114.068,97.585,115.848,21.7572,0.0954006,1.97074,18.0385,24.4917,14.9795,0.0,0.0
196,48.75,100.62,115.631,98.0109,115.841,22.7454,0.0966897,1.99409,18.01,24.4617,14.5811,0.0,0.0
198,49.25,101.348,116.944,100.953,115.85,20.7394,0.0982657,2.01612,17.9819,24.2014,15.4088,0.0,0.0
200,49.75,102.706,118.393,104.599,115.853,19.619,0.100021,2.03677,17.9546,24.1314,15.9065,0.0,0.0
202,50.25,103.895,119.734,99.4497,115.845,19.3651,0.101947,2.05349,17.9324,23.9512,16.0226,0.0,0.0
204,50.75,104.568,120.734,107.621,115.848,21.1635,0.10396,2.0713,17.9053,23.8411,15.2274,0.0,0.0
206,51.25,105.517,122.085,98.9635,115.84,20.234,0.106129,2.08573,17.8833,23.6009,15.629,0.0,0.0
208,51.75,106.553,123.778,104.777,115.845,18.7986,0.10837,2.10321,17.84,23.4408,16.2884,0.0,0.0
210,52.25,107.738,124.825,97.8063,115.853,19.2943,0.110186,2.12258,17.805,23.2506,16.0559,0.0,0.0
212,52.75,108.84,126.331,92.0123,115.852,18.2654,0.112318,2.14632,17.7766,23.1305,16.5467,0.0,0.0
214,53.25,109.654,127.861,97.8674,115.855,21.2999,0.11464,2.17278,17.7296,22.9904,15.1704,0.0,0.0
216,53.75,110.468,128.528,94.6418,115.845,15.5542,0.116992,2.19421,17.6914,22.7602,17.9854,0.0,0.0
218,54.25,111.485,130.152,103.057,115.849,19.2032,0.11932,2.22678,17.6421,22.6501,16.0981,0.0,0.0
220,54.75,112.583,131.391,90.2301,115.848,20.1133,0.121661,2.25317,17.6022,22.4098,15.6832,0.0,0.0
222,55.25,114.042,132.915,96.7431,115.853,18.1873,0.123968,2.28166,17.5698,22.2998,16.5852,0.0,0.0
224,55.75,114.748,134.179,93.2763,115.85,14.5378,0.125836,2.31114,17.5355,22.1496,18.5911,0.0,0.0
226,56.25,116.132,136.036,94.0556,115.843,17.9741,0.12735,2.33503,17.5005,21.8794,16.6901,0.0,0.0
228,56.75,116.744,137.114,89.6332,115.85,18.6252,0.129805,2.36905,17.4603,21.7793,16.3719,0.0,0.0
230,57.25,117.973,138.533,97.3621,115.842,14.3232,0.131795,2.3966,17.417,21.5891,18.7237,0.0,0.0
232,57.75,119.27,139.991,94.1793,115.841,17.3054,0.133924,2.43197,17.382,21.3689,17.0295,0.0,0.0
234,58.25,120.501,141.77,89.2943,115.835,17.7332,0.136114,2.46061,17.3334,21.1587,16.8103,0.0,0.0
236,58.75,121.618,143.408,94.7387,115.851,17.0978,0.137888,2.48382,17.294,21.0086,17.1384,0.0,0.0
238,59.25,122.879,144.659,94.8105,115.837,17.4793,0.140427,2.5252,17.2485,20.8084,16.9396,0.0,0.0
240,59.75,123.888,145.981,92.755,115.858,17.5857,0.142483,2.55872,17.1994,20.6983,16.8869,0.0,0.0
242,60.25,124.898,147.616,86.0069,115.842,15.3188,0.144817,2.60026,17.1596,20.4181,18.1218,0.0,0.0
244,60.75,125.852,149.001,88.618,115.841,15.8298,0.147309,2.6339,17.1019,20.268,17.8278,0.0,0.0
246,61.25,127.401,150.997,91.5238,115.849,16.2511,0.14979,2.66991,17.0552,20.0478,17.5932,0.0,0.0
248,61.75,128.494,152.59,90.6247,115.851,19.384,0.152216,2.70696,16.9959,19.7775,16.0142,0.0,0.0
250,62.25,130.113,154.292,90.5789,115.843,16.277,0.154181,2.73697,16.9478,19.7375,17.5784,0.0,0.0
252,62.75,131.309,156.256,91.1628,115.859,16.3205,0.156699,2.77069,16.8878,19.5373,17.5558,0.0,0.0
254,63.25,132.354,157.513,90.253,115.838,14.7191,0.158739,2.80647,16.8392,19.3972,18.4792,0.0,0.0
256,63.75,133.643,159.104,91.6322,115.852,15.4585,0.161308,2.83546,16.7882,19.1369,18.0413,0.0,0.0
258,64.25,134.459,160.474,88.7768,115.845,14.4657,0.163388,2.87192,16.7366,18.9067,18.6353,0.0,0.0
260,64.75,135.712,162.477,92.2932,115.849,16.0629,0.166191,2.90145,16.6827,18.7666,17.6975,0.0,0.0
262,65.25,137.397,164.448,87.896,115.842,17.9672,0.16846,2.93833,16.6283,18.4864,16.6934,0.0,0.0
264,65.75,138.318,165.907,83.3835,115.85,14.8291,0.171527,2.96819,16.5738,18.4263,18.4134,0.0,0.0
266,66.25,139.366,167.249,93.0687,115.838,14.0005,0.17401,3.00581,16.5203,18.096,18.9276,0.0,0.0
268,66.75,141.002,168.875,84.3132,115.857,15.9362,0.176022,3.03627,16.477,17.8858,17.7691,0.0,0.0
270,67.25,141.426,170.65,83.0622,115.836,15.5339,0.179401,3.07448,16.4338,17.6456,17.9964,0.0,0.0
272,67.75,143.188,172.633,91.9543,115.843,12.2173,0.182138,3.10542,16.3916,17.5255,20.1483,0.0,0.0
274,68.25,144.357,174.155,89.9171,115.841,17.4807,0.185056,3.13504,16.3573,17.3153,16.9392,0.0,0.0
276,68.75,145.288,175.987,82.2981,115.85,13.2273,0.188052,3.16314,16.3191,17.0751,19.4373,0.0,0.0
278,69.25,146.952,177.812,81.9447,115.859,12.1124,0.190478,3.1859,16.2881,16.945,20.2268,0.0,0.0
280,69.75,148.035,179.783,94.9044,115.859,13.859,0.193734,3.21038,16.256,16.6547,19.0202,0.0,0.0
282,70.25,149.107,181.002,92.3321,115.842,12.0948,0.196371,3.2302,16.23,16.4546,20.2385,0.0,0.0
284,70.75,150.118,182.471,94.0625,115.848,14.5031,0.199556,3.25565,16.1887,16.1843,18.6124,0.0,0.0
286,71.25,151.341,184.22,80.2159,115.841,13.8257,0.202136,3.27627,16.1553,16.0642,19.0404,0.0,0.0
288,71.75,152.573,185.815,86.1366,115.851,13.9223,0.205019,3.30387,16.1046,15.9141,18.9787,0.0,0.0
290,72.25,153.772,187.506,84.1498,115.842,13.2615,0.207354,3.33605,16.0424,15.6639,19.4136,0.0,0.0
292,72.75,154.778,189.239,80.7036,115.856,15.6102,0.209794,3.36211,15.9656,15.3836,17.9541,0.0,0.0
294,73.25,155.947,190.623,74.9508,115.837,19.9912,0.21177,3.42004,15.8798,15.0433,15.7369,0.0,0.0
296,73.75,156.932,191.84,76.501,115.859,14.825,0.213817,3.46696,15.8102,14.9633,18.4166,0.0,0.0
298,74.25,158.094,193.753,68.3432,115.845,15.3655,0.215875,3.52458,15.7526,14.663,18.0947,0.0,0.0
300,74.75,159.24,195.658,80.0518,115.863,15.6402,0.217543,3.57126,15.7059,14.5529,17.9374,0.0,0.0
302,75.25,160.829,197.87,86.8625,115.843,14.1101,0.219945,3.6126,15.6669,14.2626,18.8581,0.0,0.0
304,75.75,162.166,199.989,72.1717,115.874,13.9343,0.22189,3.64608,15.6343,14.0625,18.9727,0.0,0.0
306,76.25,164.091,202.315,90.7918,115.846,13.3549,0.224685,3.67925,15.5933,13.8323,19.351,0.0,0.0
308,76.75,165.025,203.876,78.2177,115.864,12.6095,0.226949,3.71154,15.547,13.502,19.8669,0.0,0.0
310,77.25,165.871,205.029,74.1753,115.853,11.4469,0.230192,3.73771,15.4846,13.4519,20.7324,0.0,0.0
312,77.75,166.844,206.552,78.7603,115.851,15.9787,0.232818,3.78901,15.4115,13.2718,17.7447,0.0,0.0
314,78.25,168.104,208.255,73.4197,115.846,12.3413,0.236118,3.83056,15.3524,12.7913,20.0581,0.0,0.0
316,78.75,169.189,210.045,75.1478,115.858,13.9413,0.238791,3.88029,15.3045,12.7313,18.9671,0.0,0.0
318,79.25,170.537,211.846,80.8456,115.843,11.797,0.240956,3.92056,15.2657,12.5011,20.4619,0.0,0.0
320,79.75,172.05,213.745,72.2679,115.86,14.1082,0.242709,3.95233,15.2342,12.1307,18.8606,0.0,0.0
322,80.25,173.088,215.642,76.5697,115.847,11.1806,0.245596,3.97807,15.2106,12.0307,20.9429,0.0,0.0
324,80.75,174.461,217.608,81.3394,115.851,10.0407,0.247934,3.99474,15.1931,11.8505,21.9064,0.0,0.0
326,81.25,175.584,219.478,77.4994,115.854,13.2758,0.249828,4.00447,15.1789,11.5002,19.4048,0.0,0.0
328,81.75,176.797,221.129,75.2477,115.854,12.4532,0.252,4.01236,15.1675,11.26,19.9778,0.0,0.0
330,82.25,177.856,222.547,85.2612,115.848,11.2689,0.253759,4.01719,15.1582,11.1899,20.8724,0.0,0.0
332,82.75,179.351,223.911,79.4007,115.855,11.0529,0.255563,4.01969,15.1506,10.8696,21.0463,0.0,0.0
334,83.25,179.533,225.24,76.8819,115.856,12.0504,0.257025,4.02172,15.1445,10.5894,20.2725,0.0,0.0
336,83.75,181.084,227.157,87.0327,115.853,10.714,0.258468,4.02845,15.1299,10.4593,21.3252,0.0,0.0
338,84.25,181.895,228.437,74.0372,115.854,12.8065,0.259638,4.03848,15.1093,9.99886,19.7273,0.0,0.0
340,84.75,182.982,229.92,67.1387,115.856,20.9669,0.260825,4.0466,15.0861,9.98885,15.3115,0.0,0.0
342,85.25,183.57,231.481,70.3643,115.859,14.8412,0.261786,4.07319,15.0615,9.7086,18.4068,0.0,0.0
344,85.75,184.815,232.717,70.9658,115.853,13.9436,0.262759,4.09472,15.0395,9.45838,18.9652,0.0,0.0
346,86.25,186.076,234.653,89.0004,115.851,11.3766,0.263566,4.11337,15.0198,9.32826,20.7875,0.0,0.0
348,86.75,187.354,236.386,104.58,115.846,11.0525,0.264238,4.12847,15.0038,9.11808,21.046,0.0,0.0
350,87.25,188.637,238.33,84.7185,115.851,12.221,0.264781,4.13947,14.9909,8.78778,20.1461,0.0,0.0
352,87.75,189.503,239.797,78.8664,115.87,13.0849,0.26496,4.14726,14.9804,8.53756,19.5359,0.0,0.0
354,88.25,190.815,241.715,75.334,115.85,15.2069,0.264869,4.15483,14.9759,8.33738,18.1881,0.0,0.0
356,88.75,191.375,242.594,91.291,115.858,11.1108,0.264795,4.16096,14.9722,8.13721,20.9998,0.0,0.0
358,89.25,192.383,243.81,74.9898,115.846,15.0257,0.264178,4.16507,14.9693,7.80691,18.2952,0.0,0.0
360,89.75,193.497,245.554,68.4767,115.848,16.1253,0.263651,4.1684,14.9685,7.74686,17.6627,0.0,0.0
362,90.25,194.29,246.767,89.5553,115.854,12.6095,0.26275,4.16762,14.9671,7.42658,19.8661,0.0,0.0
364,90.75,195.408,248.418,76.0614,115.851,12.6081,0.260662,4.16388,14.9704,7.12631,19.8669,0.0,0.0
366,91.25,196.489,249.748,76.2179,115.842,16.6183,0.258971,4.16084,14.977,7.09628,17.3925,0.0,0.0
368,91.75,197.235,251.324,76.9353,115.846,14.4171,0.256366,4.13829,15.005,6.76599,18.6656,0.0,0.0
370,92.25,197.848,251.958,87.0945,115.869,12.4458,0.254257,4.12002,15.0481,6.5458,19.9843,0.0,0.0
372,92.75,199.28,253.646,91.3849,115.843,11.8405,0.251363,4.11224,15.0992,6.41568,20.4289,0.0,0.0
374,93.25,199.788,254.167,87.4655,115.876,11.6795,0.249019,4.0731,15.1552,6.19549,20.554,0.0,0.0
376,93.75,199.935,255.093,90.2774,115.836,11.4155,0.245824,4.0414,15.2056,6.04535,20.7558,0.0,0.0
378,94.25,200.596,255.906,71.2222,115.847,17.9579,0.243237,4.00375,15.251,5.49487,16.6984,0.0,0.0
380,94.75,201.224,256.699,73.4113,115.835,15.3961,0.24114,3.97326,15.2878,5.59496,18.0762,0.0,0.0
382,95.25,201.86,257.179,85.068,115.85,13.4016,0.237286,3.9364,15.3466,5.32472,19.32,0.0,0.0
384,95.75,202.371,257.935,76.7949,115.855,11.0455,0.234164,3.90654,15.3943,5.07449,21.0523,0.0,0.0
386,96.25,202.984,258.863,89.4134,115.843,16.154,0.229511,3.857,15.4595,5.03446,17.6464,0.0,0.0
388,96.75,203.577,259.432,88.1181,115.832,13.4511,0.225742,3.81687,15.5362,4.67414,19.2857,0.0,0.0
390,97.25,203.683,259.905,90.743,115.848,14.1873,0.220051,3.76293,15.6213,4.52401,18.8096,0.0,0.0
392,97.75,204.286,260.464,80.8471,115.852,13.6916,0.215441,3.69994,15.7108,4.34385,19.1285,0.0,0.0
394,98.25,204.897,260.918,92.1635,115.846,13.8308,0.210148,3.64892,15.7833,4.23375,19.0374,0.0,0.0
396,98.75,204.328,260.815,82.4325,115.833,18.8361,0.204458,3.56885,15.9053,4.02356,16.2697,0.0,0.0
398,99.25,205.108,261.096,86.4679,115.834,14.3616,0.198207,3.50399,16.0041,3.90346,18.6991,0.0,0.0
400,99.75,205.145,260.72,89.4683,115.83,16.1447,0.191666,3.41675,16.1422,3.63322,17.6505,0.0,0.0
402,100.25,205.296,261.121,93.1885,115.842,16.2326,0.186367,3.34609,16.254,3.44305,17.6028,0.0,0.0
404,100.75,205.549,261.094,91.7162,115.828,18.265,0.178613,3.26762,16.3747,3.31293,16.5451,0.0,0.0
406,101.25,205.398,260.816,87.7754,115.846,19.6088,0.172332,3.18495,16.4995,3.17281,15.9106,0.0,0.0
408,101.75,204.969,260.266,88.0807,115.822,18.3066,0.167245,3.09728,16.6005,3.06271,16.5242,0.0,0.0
410,102.25,205.28,260.137,105.641,115.841,19.1727,0.158634,3.00763,16.6824,2.97263,16.1117,0.0,0.0
412,102.75,204.616,259.425,97.6659,115.819,21.834,0.151659,2.93502,16.78,2.81249,14.9457,0.0,0.0
414,103.25,204.102,258.564,94.3678,115.848,25.6014,0.146009,2.83163,16.8871,2.66236,13.5221,0.0,0.0
416,103.75,203.627,257.753,100.778,115.821,25.8784,0.137313,2.74788,17.0096,2.52223,13.4237,0.0,0.0
418,104.25,203.419,257.347,101.09,115.831,28.437,0.130269,2.65034,17.1409,2.46218,12.58,0.0,0.0
420,104.75,202.85,256.364,105.404,115.822,27.2333,0.121938,2.5446,17.2871,2.30204,12.9666,0.0,0.0
422,105.25,202.856,255.773,106.01,115.834,28.6414,0.115189,2.45895,17.4413,2.21196,12.516,0.0,0.0
424,105.75,202.177,254.849,108.773,115.813,29.7766,0.108567,2.38958,17.6157,2.13189,12.1662,0.0,0.0
426,106.25,201.158,253.764,106.045,115.836,34.1979,0.102163,2.26231,17.8014,2.08184,10.9279,0.0,0.0
428,106.75,200.07,251.967,111.413,115.814,37.4321,0.0984289,2.15922,17.8806,1.9217,10.1168,0.0,0.0
430,107.25,199.829,251.285,112.539,115.824,37.7933,0.0920428,2.05614,18.0841,1.90168,10.0316,0.0,0.0
432,107.75,199.376,250.4,115.609,115.811,40.1753,0.0858679,1.95502,18.249,1.83162,9.48312,0.0,0.0
434,108.25,197.632,248.35,112.709,115.823,33.3637,0.079964,1.85523,18.4304,1.76156,11.1481,0.0,0.0
436,108.75,196.788,246.763,115.404,115.809,41.1214,0.075182,1.75829,18.5773,1.75155,9.27444,0.0,0.0
438,109.25,195.872,245.604,111.048,115.819,43.0118,0.0700506,1.66392,18.6964,1.67148,8.87265,0.0,0.0
440,109.75,194.9,243.956,123.094,115.811,42.2257,0.0647622,1.61617,18.8402,1.60142,9.03726,0.0,0.0
442,110.25,193.642,242.487,122.597,115.819,46.1706,0.0604786,1.53452,18.9567,1.50133,8.23785,0.0,0.0
444,110.75,192.446,240.642,123.449,115.798,47.434,0.055036,1.43459,19.0768,1.48131,7.99441,0.0,0.0
446,111.25,191.495,239.145,124.94,115.815,55.489,0.0506275,1.35365,19.1971,1.49132,6.59082,0.0,0.0
448,111.75,189.657,236.83,126.378,115.804,59.8016,0.045539,1.25308,19.3205,1.42126,5.91955,0.0,0.0
450,112.25,188.994,235.432,130.84,115.81,70.9179,0.0414173,1.17162,19.4437,1.38122,4.3929,0.0,0.0
452,112.75,187.634,233.751,132.614,115.795,77.6416,0.0370778,1.08676,19.5729,1.38122,3.58035,0.0,0.0
454,113.25,186.167,231.628,133.921,115.795,85.1662,0.0335629,1.00102,19.7039,1.41125,2.75183,0.0,0.0
456,113.75,184.316,229.39,135.414,115.793,90.794,0.0299334,0.931571,19.8318,1.36121,2.17849,0.0,0.0
458,114.25,183.007,227.358,139.428,115.799,95.3105,0.0269936,0.847609,19.955,1.38122,1.74411,0.0,0.0
460,114.75,181.742,225.65,137.094,115.795,100.227,0.0241264,0.779599,20.0686,1.38122,1.2933,0.0,0.0
462,115.25,180.493,223.711,141.332,115.797,104.895,0.0218039,0.704044,20.1731,1.38122,0.885666,0.0,0.0
464,115.75,178.535,221.38,139.69,115.776,105.674,0.0199228,0.642845,20.2578,1.38122,0.817815,0.0,0.0
466,116.25,177.508,219.543,140.758,115.798,106.51,0.0180165,0.579976,20.3342,1.40124,0.748934,0.0,0.0
468,116.75,175.715,217.543,142.195,115.764,106.584,0.0164725,0.529052,20.4032,1.36121,0.740019,0.0,0.0
470,117.25,174.034,215.066,141.478,115.791,107.177,0.015067,0.476732,20.4661,1.3512,0.692448,0.0,0.0
472,117.75,172.4,213.597,141.415,115.771,106.852,0.0139285,0.434352,20.5232,1.36121,0.718091,0.0,0.0
474,118.25,170.771,210.985,142.582,115.775,107.757,0.0128935,0.395392,20.5743,1.3512,0.642878,0.0,0.0
476,118.75,168.713,208.696,142.295,115.765,106.827,0.0120552,0.359664,20.6201,1.34119,0.719749,0.0,0.0
478,119.25,168.046,207.465,144.974,115.772,106.367,0.0112998,0.330724,20.6616,1.38122,0.75892,0.0,0.0
480,119.75,166.695,205.302,140.818,115.765,106.967,0.0106879,0.300907,20.6991,1.40124,0.707972,0.0,0.0
482,120.25,165.501,203.601,140.763,115.768,106.424,0.0101303,0.276755,20.7295,1.45129,0.753804,0.0,0.0
484,120.75,164.063,201.681,145.474,115.765,106.746,0.00967865,0.253532,20.7594,1.43127,0.726463,0.0,0.0
486,121.25,162.524,200.213,142.098,115.755,106.891,0.00927955,0.234722,20.7837,1.39123,0.71356,0.0,0.0
488,121.75,161.771,198.231,144.652,115.737,106.666,0.00892636,0.218013,20.8064,1.38122,0.731105,0.0,0.0
490,122.25,159.507,195.969,145.69,115.755,106.697,0.00864027,0.203152,20.8247,1.36121,0.729812,0.0,0.0
492,122.75,158.32,193.994,143.343,115.717,106.886,0.00840854,0.189843,20.8427,1.37121,0.711111,0.0,0.0
494,123.25,157.132,192.938,141.166,115.753,106.908,0.00809349,0.177916,20.8573,1.33118,0.712018,0.0,0.0
496,123.75,155.721,191.989,141.368,115.721,106.794,0.0078383,0.167239,20.8712,1.31116,0.719119,0.0,0.0
498,124.25,154.922,189.458,141.499,115.719,106.358,0.00753796,0.157675,20.8826,1.32117,0.755583,0.0,0.0
500,124.75,154.038,187.488,141.049,115.719,107.053,0.00729468,0.149928,20.8918,1.30115,0.697202,0.0,0.0
502,125.25,152.837,186.487,143.611,115.722,106.37,0.00709763,0.142582,20.9001,1.29114,0.754787,0.0,0.0
504,125.75,151.623,184.937,141.248,115.698,106.677,0.00677437,0.135666,20.9077,1.31116,0.727187,0.0,0.0
506,126.25,150.307,182.193,140.325,115.709,106.761,0.00651253,0.129237,20.9137,1.29114,0.720923,0.0,0.0
508,126.75,148.651,181.057,141.236,115.686,107.202,0.0061858,0.123284,20.9184,1.29114,0.68224,0.0,0.0
510,127.25,148.03,180.324,142.498,115.698,107.289,0.00592114,0.117905,20.9232,1.28113,0.67589,0.0,0.0
512,127.75,147.456,178.765,143.054,115.673,107.295,0.0055988,0.113045,20.9279,1.27113,0.673492,0.0,0.0
514,128.25,146.62,177.287,143.764,115.681,106.692,0.0053377,0.109109,20.933,1.27113,0.724558,0.0,0.0
516,128.75,145.006,175.802,141.069,115.67,107.111,0.0050312,0.105921,20.9371,1.27113,0.68854,0.0,0.0
518,129.25,144.462,174.057,141.88,115.667,107.626,0.00478294,0.101817,20.9414,1.27113,0.645384,0.0,0.0
520,129.75,142.972,172.979,143.724,115.644,106.818,0.00458184,0.0984932,20.9457,1.27113,0.711084,0.0,0.0
522,130.25,141.857,171.679,140.947,115.653,107.35,0.00429642,0.094986,20.9492,1.29114,0.667296,0.0,0.0
524,130.75,140.513,169.618,142.223,115.66,106.745,0.00406523,0.0917983,20.9529,1.28113,0.718452,0.0,0.0
526,131.25,140.031,168.775,142.652,115.638,107.452,0.00379608,0.088904,20.9558,1.29114,0.65764,0.0,0.0
528,131.75,138.902,167.807,144.24,115.627,107.306,0.00357806,0.0865596,20.9587,1.29114,0.668957,0.0,0.0
530,132.25,138.301,166.327,144.332,115.622,106.218,0.00333234,0.0839326,20.9615,1.29114,0.759848,0.0,0.0
532,132.75,137.181,164.396,141.984,115.606,107.026,0.00313331,0.0818046,20.9637,1.27113,0.690701,0.0,0.0
534,133.25,136.163,163.332,144.035,115.601,107.264,0.00292982,0.079669,20.9658,1.29114,0.670463,0.0,0.0
536,133.75,135.21,162.206,139.843,115.582,106.634,0.00272696,0.0775683,20.9675,1.28113,0.721795,0.0,0.0
538,134.25,134.414,161.056,142.046,115.578,106.556,0.00256264,0.0758667,20.9697,1.26112,0.727956,0.0,0.0
540,134.75,133.261,160.236,145.065,115.565,107.73,0.00234565,0.0739013,20.9716,1.26112,0.628815,0.0,0.0
542,135.25,132.613,159.302,144.735,115.553,106.37,0.00216989,0.0723093,20.9735,1.26112,0.741701,0.0,0.0
544,135.75,131.841,157.412,146.213,115.543,106.536,0.00194383,0.0707996,20.9755,1.26112,0.726968,0.0,0.0
546,136.25,131.15,156.536,141.938,115.553,107.123,0.00176072,0.0693786,20.9775,1.2411,0.678492,0.0,0.0
548,136.75,130.502,155.667,143.33,115.52,107.266,0.00156452,0.0679929,20.9796,1.25111,0.664073,0.0,0.0
550,137.25,128.949,153.869,142.295,115.515,106.331,0.00136249,0.0666594,20.9813,1.27113,0.742054,0.0,0.0
552,137.75,128.551,153.217,143.653,115.512,107.641,0.00115959,0.0653887,20.9827,1.2411,0.63219,0.0,0.0
554,138.25,127.864,151.309,145.811,115.483,106.439,0.00095989,0.064188,20.9838,1.25111,0.730501,0.0,0.0
556,138.75,127.14,150.828,143.522,115.477,106.909,0.00076546,0.0632155,20.9852,1.26112,0.690536,0.0,0.0
558,139.25,125.948,149.91,141.54,115.463,107.557,0.000578563,0.06208,20.9862,1.27113,0.635323,0.0,0.0
560,139.75,125.517,148.92,144.378,115.467,106.931,0.000427177,0.0611602,20.9871,1.29114,0.687949,0.0,0.0
562,140.25,124.459,147.419,142.485,115.452,106.677,0.000227577,0.0602323,20.9878,1.26112,0.708036,0.0,0.0
564,140.75,123.796,145.813,142.992,115.437,106.749,2.14657e-05,0.059316,20.9888,1.26112,0.700888,0.0,0.0
566,141.25,122.822,145.602,142.397,115.419,106.493,-0.000185476,0.0584423,20.9897,1.28113,0.720907,0.0,0.0
568,141.75,122.186,144.48,142.749,115.428,107.778,-0.000353098,0.0576161,20.9906,1.28113,0.614236,0.0,0.0
570,142.25,122.023,143.331,144.781,115.386,107.833,-0.000586992,0.0568372,20.9915,1.29114,0.606374,0.0,0.0
572,142.75,120.684,142.363,146.456,115.385,108.047,-0.000776445,0.0561077,20.9923,1.29114,0.588609,0.0,0.0
574,143.25,119.774,141.759,144.735,115.362,107.104,-0.000929903,0.0554145,20.993,1.30115,0.66529,0.0,0.0
576,143.75,119.391,140.757,144.515,115.347,106.903,-0.0011287,0.0547609,20.9936,1.31116,0.680922,0.0,0.0
578,144.25,119.355,139.434,141.824,115.349,107.065,-0.00135677,0.0542316,20.9941,1.33118,0.667555,0.0,0.0
580,144.75,117.903,138.609,144.929,115.314,106.37,-0.00158137,0.0535538,20.995,1.32117,0.723148,0.0,0.0
582,145.25,117.681,137.618,142.285,115.281,106.301,-0.00179917,0.0530049,20.9957,0.660585,0.726471,0.0,0.0
584,145.75,116.468,136.808,142.846,115.272,106.112,-0.00200695,0.0523997,20.9971,0.500443,0.741688,0.0,0.0
586,146.25,116.09,135.858,143.126,115.249,106.716,-0.00220349,0.0517649,20.9983,0.290257,0.68906,0.0,0.0
588,146.75,115.868,135.178,147.513,115.254,106.894,-0.00238032,0.0512508,20.9992,0.540479,0.674456,0.0,0.0
590,147.25,114.833,134.326,148.074,115.228,107.688,-0.00253944,0.0507249,21,0.0600532,0.606196,0.0,0.0
592,147.75,113.924,133.504,147.502,115.232,107.114,-0.00266833,0.0502004,21.0006,-0.110098,0.654311,0.0,0.0
594,148.25,113.754,132.552,147.766,115.226,107.72,-0.00279298,0.0497173,21.0011,0.300266,0.603359,0.0,0.0
596,148.75,112.439,131.881,152.996,115.236,108.013,-0.00291218,0.0492734,21.0015,0.900798,0.579818,0.0,0.0
598,149.25,112.132,130.516,154.309,115.234,107.84,-0.00302246,0.0488847,21.0013,0.97086,0.593987,0.0,0.0
600,149.75,111.339,129.145,146.751,115.223,106.553,-0.00312413,0.0485436,21.0011,1.18105,0.700723,0.0,0.0
602,150.25,111.059,128.405,149.418,115.218,106.631,-0.00320649,0.0481981,21.001,0.170151,0.693754,0.0,0.0
604,150.75,109.787,127.555,147.244,115.206,107.692,-0.00330064,0.0479182,21.0009,1.25111,0.604166,0.0,0.0
606,151.25,109.299,126.913,146.591,115.199,106.627,-0.00340161,0.0476915,21.0008,0.920816,0.6926,0.0,0.0
608,151.75,108.412,125.755,144.626,115.192,107.347,-0.00348339,0.0474349,21.0007,1.06094,0.631772,0.0,0.0
610,152.25,108.037,125.14,147.68,115.178,106.984,-0.00354766,0.0471615,21.0007,1.16103,0.661014,0.0,0.0
612,152.75,107.344,124.32,147.312,115.183,106.529,-0.00365757,0.0469401,21.0006,0.830736,0.699633,0.0,0.0
614,153.25,106.725,123.821,143.879,115.174,105.954,-0.00377795,0.0466499,21.0006,0.580514,0.7474,0.0,0.0
616,153.75,106.368,122.841,144.255,115.177,106.802,-0.0039037,0.0464149,21.0005,1.37121,0.67617,0.0,0.0
618,154.25,105.091,121.346,148.398,115.167,105.965,-0.00403496,0.0461735,21.0009,0.97086,0.745914,0.0,0.0
620,154.75,104.307,120.888,146.073,115.169,106.588,-0.00416774,0.0459321,21.0013,0.920816,0.693522,0.0,0.0
622,155.25,104.117,120.29,144.723,115.161,106.416,-0.00429686,0.0458292,21.002,0.7907,0.707407,0.0,0.0
624,155.75,103.83,119.748,148.561,115.159,107.109,-0.00442086,0.0455701,21.0025,1.11098,0.649064,0.0,0.0
626,156.25,103.518,118.714,146.954,115.133,106.652,-0.0045409,0.0453603,21.003,0.750665,0.685379,0.0,0.0
628,156.75,103.347,118.468,146.424,115.139,107.322,-0.00465578,0.0451612,21.0034,1.21107,0.629757,0.0,0.0
630,157.25,101.511,117.039,143.694,115.118,107.389,-0.00474883,0.0449737,21.0037,0.800709,0.622551,0.0,0.0
632,157.75,101.559,116.333,147.399,115.114,106.625,-0.0048242,0.0447781,21.0039,0.70062,0.686206,0.0,0.0
634,158.25,101.23,116.521,148.441,115.11,107.081,-0.00493243,0.0445804,21.0041,1.14101,0.647654,0.0,0.0
636,158.75,100.784,115.473,150.115,115.121,106.839,-0.00502009,0.0443838,21.0043,-0.100089,0.668711,0.0,0.0
638,159.25,100.379,114.812,147.066,115.117,107.102,-0.00511842,0.0441918,21.0044,1.11098,0.646388,0.0,0.0
640,159.75,99.6565,114.111,145.704,115.134,107.323,-0.00519806,0.0440363,21.0045,1.0209,0.629312,0.0,0.0
642,160.25,99.107,113.559,148.495,115.123,106.93,-0.0052812,0.0438826,21.0048,0.910807,0.661262,0.0,0.0
644,160.75,99.019,112.588,148.814,115.126,106.811,-0.00534853,0.0437582,21.0053,0.0300266,0.671515,0.0,0.0
646,161.25,97.8087,111.855,143.359,115.112,106.904,-0.00541177,0.0436574,21.0057,0.770683,0.662589,0.0,0.0
648,161.75,96.9269,110.87,148.563,115.125,107.101,-0.00546299,0.0434927,21.006,0.400355,0.647161,0.0,0.0
650,162.25,97.4016,110.803,143.992,115.116,106.475,-0.00551069,0.0433593,21.0062,1.09097,0.698911,0.0,0.0
652,162.75,97.3378,110.081,145.34,115.132,107.06,-0.00554932,0.0431822,21.0064,0.650576,0.651078,0.0,0.0
654,163.25,96.6261,109.127,150.654,115.136,106.732,-0.00557669,0.0430386,21.0066,0.640567,0.67892,0.0,0.0
656,163.75,95.8381,108.677,144.242,115.141,107.611,-0.00559534,0.04295,21.0067,0.830736,0.605888,0.0,0.0
658,164.25,95.7574,108.141,145.221,115.131,106.853,-0.00561044,0.0428783,21.0068,1.32117,0.668353,0.0,0.0
660,164.75,95.4835,107.79,149.404,115.145,107.021,-0.00562267,0.0428056,21.0069,0.720638,0.655391,0.0,0.0
662,165.25,94.25,106.611,147.966,115.133,106.897,-0.00561023,0.0427336,21.007,1.18105,0.664894,0.0,0.0
664,165.75,94.177,106.625,145.797,115.145,107.107,-0.00560015,0.0426535,21.007,1.10098,0.648197,0.0,0.0
666,166.25,93.6784,105.943,139.512,115.14,106.337,-0.00558703,0.0425689,21.0071,0.890789,0.712417,0.0,0.0
668,166.75,93.7167,105.257,145.961,115.142,107.227,-0.00557639,0.0425004,21.0071,1.18105,0.63789,0.0,0.0
670,167.25,93.0531,104.812,146.684,115.132,106.658,-0.00556778,0.0423758,21.0072,0.960851,0.6848,0.0,0.0
672,167.75,92.2418,103.863,146.744,115.147,106.066,-0.0055608,0.0422748,21.0072,1.09097,0.735822,0.0,0.0
674,168.25,91.9351,103.883,143.004,115.142,107.142,-0.00555143,0.0421931,21.0072,1.06094,0.645076,0.0,0.0
676,168.75,91.8677,103.421,145.709,115.135,107,-0.00554383,0.0421268,21.0072,1.21107,0.656365,0.0,0.0
678,169.25,91.3984,102.897,144.983,115.131,106.823,-0.00553395,0.0420732,21.0075,0.660585,0.670838,0.0,0.0
680,169.75,91.4108,102.318,145.817,115.142,107.341,-0.00552595,0.0420435,21.0079,1.09097,0.628392,0.0,0.0
682,170.25,90.6203,101.769,145.35,115.136,107.63,-0.00551699,0.0420195,21.0082,0.850753,0.603869,0.0,0.0
684,170.75,90.7191,101.146,152.533,115.133,106.59,-0.00550973,0.0419725,21.0085,0.380337,0.690547,0.0,0.0
686,171.25,90.0088,100.392,143.018,115.128,107.778,-0.00550385,0.0419343,21.0087,0.400355,0.590864,0.0,0.0
688,171.75,89.9824,99.8356,145.795,115.12,107.307,-0.0055017,0.0418758,21.0089,0.770683,0.629528,0.0,0.0
690,172.25,89.264,99.5438,145.326,115.124,107.164,-0.00550231,0.0418283,21.0089,0.840745,0.641717,0.0,0.0
692,172.75,88.9745,99.4407,145.226,115.134,106.831,-0.00550281,0.0417346,21.0089,0.780691,0.670471,0.0,0.0
694,173.25,88.9086,98.2586,145.025,115.128,107.432,-0.00550942,0.0416587,21.0089,0.910807,0.619771,0.0,0.0
696,173.75,88.2178,97.999,145.458,115.135,106.411,-0.00551477,0.0415972,21.0089,1.03091,0.705819,0.0,0.0
698,174.25,87.9284,98.0169,145.744,115.123,107.504,-0.0055278,0.0415547,21.0089,1.10098,0.613355,0.0,0.0
700,174.75,87.7732,97.2473,146.003,115.118,106.591,-0.00553835,0.0415267,21.0089,0.340301,0.689372,0.0,0.0
702,175.25,87.5339,96.9173,148.843,115.125,106.436,-0.0055469,0.0415041,21.0089,0.980869,0.702912,0.0,0.0
704,175.75,86.7915,96.1471,144.284,115.126,106.365,-0.00555382,0.0414997,21.0089,0.610541,0.708977,0.0,0.0
706,176.25,86.7917,95.776,147.39,115.124,106.364,-0.00555747,0.041496,21.0089,0.500443,0.708911,0.0,0.0
708,176.75,86.3483,95.0894,145.389,115.116,106.706,-0.00555866,0.041464,21.0089,0.320284,0.679482,0.0,0.0
710,177.25,85.8504,94.9715,143.756,115.117,106.903,-0.00556223,0.0414118,21.0089,0.660585,0.663145,0.0,0.0
712,177.75,85.4602,94.2649,143.804,115.105,107.786,-0.00556749,0.0413405,21.0089,1.10098,0.588416,0.0,0.0
714,178.25,84.8139,93.7801,147.183,115.106,107.24,-0.00557174,0.0412565,21.0089,0.370328,0.634026,0.0,0.0
716,178.75,84.7152,93.662,146.28,115.102,108.361,-0.00557518,0.0411957,21.0089,0.750665,0.540631,0.0,0.0
718,179.25,84.8728,92.9881,146.647,115.112,108.068,-0.0056028,0.0411531,21.0089,1.19105,0.565555,0.0,0.0
720,179.75,84.1799,92.6437,148.419,115.094,109.05,-0.00562518,0.0411185,21.0089,0.710629,0.483159,0.0,0.0
722,180.25,83.7187,92.3064,150.811,115.11,108.223,-0.00566689,0.0410905,21.0089,0.590523,0.552616,0.0,0.0
724,180.75,83.082,91.6063,149.574,115.102,107.471,-0.00570068,0.0410679,21.0089,0.820727,0.61448,0.0,0.0
726,181.25,83.2596,91.2752,151.455,115.106,107.297,-0.00573922,0.0410633,21.0089,0.730647,0.629277,0.0,0.0
728,181.75,82.3021,90.6612,145.252,115.085,107.793,-0.00577044,0.0410596,21.0089,0.520461,0.586338,0.0,0.0
730,182.25,82.3731,90.325,144.551,115.086,106.437,-0.00579945,0.0410567,21.0089,1.131,0.699831,0.0,0.0
732,182.75,82.5862,90.2649,149.643,115.089,107.462,-0.00582295,0.0410128,21.0089,1.22108,0.614226,0.0,0.0
734,183.25,81.9844,89.7738,147.122,115.113,107.489,-0.0058482,0.0409772,21.0089,1.26112,0.613783,0.0,0.0
736,183.75,81.668,89.0274,141.647,115.115,107.342,-0.00586864,0.0409623,21.0089,0.240213,0.626192,0.0,0.0
738,184.25,80.9838,88.6682,142.882,115.135,106.527,-0.00589762,0.0409501,21.0089,0.130115,0.696056,0.0,0.0
740,184.75,80.9613,87.7506,145.075,115.125,106.521,-0.00593227,0.0409403,21.0089,1.131,0.69579,0.0,0.0
742,185.25,80.9039,88.0634,143.71,115.14,107.338,-0.00596033,0.0409324,21.0089,1.0109,0.628441,0.0,0.0
744,185.75,80.3529,87.6717,146.585,115.141,107.717,-0.00599548,0.0409397,21.0089,0.890789,0.596928,0.0,0.0
746,186.25,80.7742,87.3442,150.311,115.166,107.11,-0.00603512,0.0409457,21.0089,0.730647,0.649612,0.0,0.0
748,186.75,80.4903,87.1789,147.655,115.153,108.339,-0.00606919,0.0409287,21.0089,0.650576,0.546345,0.0,0.0
750,187.25,79.9353,86.9978,147.132,115.165,107.339,-0.00609855,0.0408953,21.0089,0.70062,0.63038,0.0,0.0
752,187.75,79.3128,86.4522,147.75,115.16,108.375,-0.00612495,0.0408683,21.0089,1.06094,0.543952,0.0,0.0
754,188.25,79.1247,86.1037,146.359,115.185,106.855,-0.00614869,0.0408187,21.0089,1.11098,0.672447,0.0,0.0
756,188.75,79.1655,85.2619,145.351,115.185,107.108,-0.00617249,0.0407786,21.0089,1.14101,0.651155,0.0,0.0
758,189.25,78.5081,85.1162,144.028,115.206,107.243,-0.00619588,0.0407606,21.0089,0.500443,0.641594,0.0,0.0
760,189.75,78.993,85.0187,148.139,115.217,107.228,-0.00621875,0.0407591,21.0089,0.770683,0.643708,0.0,0.0
762,190.25,78.3414,84.6731,147.069,115.222,108.301,-0.00624081,0.0407725,21.0089,0.820727,0.554862,0.0,0.0
764,190.75,78.4162,84.4589,144.37,115.221,107.535,-0.00626128,0.0407964,21.0089,1.27113,0.618312,0.0,0.0
766,191.25,77.9507,84.0794,144.604,115.237,107.035,-0.00628022,0.0408085,21.0089,1.18105,0.661292,0.0,0.0
768,191.75,77.1892,83.3848,146.445,115.245,106.624,-0.00629556,0.0408118,21.0089,1.04092,0.696383,0.0,0.0
770,192.25,77.5282,83.1574,143.145,115.241,107.096,-0.00630799,0.0407926,21.0089,1.19105,0.656589,0.0,0.0
772,192.75,77.1411,82.9637,147.448,115.238,107.914,-0.00631309,0.0407574,21.0089,0.980869,0.588212,0.0,0.0
774,193.25,76.4876,82.5243,145.314,115.267,107.764,-0.00631722,0.0407362,21.0089,0.660585,0.602887,0.0,0.0
776,193.75,76.023,81.713,148.167,115.25,107.971,-0.00632056,0.0407256,21.0089,1.30115,0.584406,0.0,0.0
778,194.25,76.5625,82.1939,150.504,115.28,107.213,-0.00632,0.0407169,21.0089,-0.140124,0.64977,0.0,0.0
780,194.75,76.2499,81.8562,147.625,115.299,107.202,-0.00631661,0.0406881,21.0089,0.780691,0.652161,0.0,0.0
782,195.25,75.5356,80.9859,143.169,115.325,107.949,-0.0063171,0.0406451,21.0086,0.70062,0.592062,0.0,0.0
784,195.75,75.8756,81.5712,147.994,115.325,108.265,-0.00632042,0.0406103,21.0083,-0.53047,0.565854,0.0,0.0
786,196.25,75.1818,81.028,145.319,115.346,107.464,-0.0063231,0.0406374,21.0079,0,0.633974,0.0,0.0
788,196.75,75.4213,80.9625,143.788,115.359,107.69,-0.00633396,0.0406594,21.0075,0.430381,0.616207,0.0,0.0
790,197.25,74.5037,79.7013,152.723,115.374,108.328,-0.00634277,0.0406771,21.0075,0.570505,0.564379,0.0,0.0
792,197.75,74.3699,79.5382,148.561,115.364,107.724,-0.00634617,0.0407202,21.0077,0.210186,0.613726,0.0,0.0
794,198.25,74.7665,79.8306,145.339,115.388,107.532,-0.00634893,0.040781,21.0076,0.310275,0.631598,0.0,0.0
796,198.75,74.031,79.1154,153.423,115.382,107.72,-0.00634619,0.0408156,21.0073,0.980869,0.615534,0.0,0.0
798,199.25,73.766,79.1452,155.311,115.41,108.9,-0.00634398,0.0408306,21.0073,1.05093,0.520018,0.0,0.0
800,199.75,74.0631,78.4992,147.201,115.403,108.619,-0.00634219,0.0408427,21.0075,1.10098,0.542701,0.0,0.0
802,200.25,73.3556,78.739,151.557,115.415,107.501,-0.00633453,0.0408802,21.0077,0.980869,0.636261,0.0,0.0
804,200.75,73.3837,78.2875,152.874,115.425,107.516,-0.00632832,0.0409105,21.0078,1.23109,0.635832,0.0,0.0
806,201.25,72.5544,77.3481,144.307,115.445,108.014,-0.00631957,0.0409351,21.008,1.15102,0.595895,0.0,0.0
808,201.75,72.7477,76.9402,146.586,115.439,107.781,-0.00631248,0.040955,21.008,1.06094,0.614843,0.0,0.0
810,202.25,72.3876,77.2927,140.251,115.456,107.937,-0.00631047,0.0409573,21.0081,1.30115,0.603178,0.0,0.0
812,202.75,72.4695,77.0124,146.514,115.458,106.737,-0.00630883,0.0409592,21.0082,1.07095,0.703539,0.0,0.0
814,203.25,72.5312,76.6488,144.673,115.476,107.681,-0.00632241,0.0409607,21.0082,1.0209,0.625994,0.0,0.0
816,203.75,72.2681,75.9238,145.641,115.479,107.082,-0.0063334,0.0409757,21.0083,0.640567,0.676204,0.0,0.0
818,204.25,71.1965,75.4476,145.774,115.509,107.851,-0.00636218,0.0410316,21.0083,0.800709,0.614443,0.0,0.0
820,204.75,71.0229,75.5555,145.954,115.499,106.652,-0.00639332,0.0411161,21.0083,0.850753,0.713783,0.0,0.0
822,205.25,71.7549,75.9503,147.053,115.518,107.887,-0.00642561,0.0411846,21.0083,1.32117,0.612216,0.0,0.0
824,205.75,71.8184,75.7908,146.925,115.538,107.43,-0.00645176,0.0412815,21.0084,1.0109,0.651686,0.0,0.0
826,206.25,71.8578,75.6469,149.193,115.527,108.177,-0.00647295,0.0413455,21.0084,1.19105,0.588794,0.0,0.0
828,206.75,71.7153,75.8051,145.743,115.532,108.559,-0.00650647,0.0413842,21.0084,1.04092,0.557626,0.0,0.0
830,207.25,70.8771,75.1107,146.799,115.536,108.907,-0.00654835,0.0414592,21.0083,1.16103,0.529271,0.0,0.0
832,207.75,71.2347,74.9799,145.439,115.55,107.662,-0.00658881,0.0415593,21.008,0.97086,0.633376,0.0,0.0
834,208.25,70.6409,74.4126,146.226,115.554,106.989,-0.00662746,0.0416403,21.0078,1.17104,0.689824,0.0,0.0
836,208.75,71.2807,74.0537,143.998,115.558,107.697,-0.0066555,0.0417646,21.0077,1.17104,0.631111,0.0,0.0
838,209.25,70.7749,73.7841,142.611,115.582,107.45,-0.00667528,0.0419181,21.0075,0.500443,0.653458,0.0,0.0
840,209.75,70.3192,74.0249,147.189,115.59,107.757,-0.00667888,0.0420424,21.0074,0.680603,0.628593,0.0,0.0
842,210.25,70.3749,73.9325,146.192,115.603,108.707,-0.00667062,0.0421569,21.0073,-0.160142,0.550969,0.0,0.0
844,210.75,70.388,73.5174,148.621,115.614,108.516,-0.00664694,0.0422497,21.0073,0.960851,0.567522,0.0,0.0
846,211.25,70.234,73.6172,148.06,115.626,108.508,-0.00661247,0.0423387,21.0072,-0.820727,0.569156,0.0,0.0
848,211.75,69.7946,73.1896,146.341,115.64,107.828,-0.00657148,0.0424107,21.0072,0.650576,0.62654,0.0,0.0
850,212.25,69.0915,72.7052,149.236,115.652,108.044,-0.00652652,0.0424829,21.0071,0.400355,0.609492,0.0,0.0
852,212.75,69.499,72.8515,153.148,115.661,108.427,-0.00649009,0.0425414,21.0071,0.240213,0.578536,0.0,0.0
854,213.25,69.3102,72.9722,151.939,115.661,109.326,-0.00643824,0.0425473,21.0073,0.590523,0.504578,0.0,0.0
856,213.75,69.6083,72.2613,150.029,115.681,109.394,-0.00639624,0.0425521,21.0077,0.480425,0.500577,0.0,0.0
858,214.25,68.5231,71.8833,146.582,115.67,107.496,-0.00635602,0.0424591,21.008,1.05093,0.656385,0.0,0.0
860,214.75,68.526,71.6442,154.827,115.686,109.193,-0.00632343,0.0423838,21.0082,0.730647,0.517392,0.0,0.0
862,215.25,68.2852,71.38,149.348,115.678,108.5,-0.00630201,0.0422864,21.0084,0.800709,0.573776,0.0,0.0
864,215.75,68.5087,71.3849,149.23,115.707,109.518,-0.00628465,0.0421748,21.0086,0.250222,0.492365,0.0,0.0
866,216.25,68.2284,70.895,148.257,115.698,107.529,-0.00627059,0.0420844,21.0087,0.580514,0.655875,0.0,0.0
868,216.75,67.4786,70.4022,147.264,115.703,107.303,-0.00625921,0.0419696,21.0088,0.460408,0.675132,0.0,0.0
870,217.25,67.3529,70.1576,147.245,115.699,107.899,-0.0062773,0.0418767,21.0088,1.0109,0.625145,0.0,0.0
872,217.75,67.4732,70.294,148.95,115.72,107.818,-0.00629195,0.0417738,21.0086,1.04092,0.633542,0.0,0.0
874,218.25,67.3615,69.8333,143.601,115.712,108.911,-0.0063212,0.0416904,21.0085,0.500443,0.542561,0.0,0.0
876,218.75,67.325,70.0579,147.717,115.733,107.998,-0.0063449,0.0416229,21.0084,0.950842,0.619632,0.0,0.0
878,219.25,67.3007,69.7153,146.231,115.717,108.101,-0.00638396,0.0415464,21.0083,1.131,0.609808,0.0,0.0
880,219.75,66.875,69.7739,147.914,115.741,108.719,-0.00641559,0.0414647,21.0083,0.860762,0.560619,0.0,0.0
882,220.25,66.8034,69.252,149.295,115.722,108.286,-0.00644122,0.0413986,21.0082,0.140124,0.594932,0.0,0.0
884,220.75,66.4847,68.6708,147.185,115.752,107.998,-0.00645453,0.0413232,21.0082,1.23109,0.621087,0.0,0.0
886,221.25,66.4861,68.7559,149.79,115.748,108.657,-0.0064653,0.0412425,21.0081,1.09097,0.566272,0.0,0.0
888,221.75,66.5699,68.7326,150.627,115.75,108.833,-0.00645169,0.0411844,21.0081,0.930824,0.551907,0.0,0.0
890,222.25,66.0932,68.6668,147.37,115.748,107.365,-0.00644066,0.0411439,21.0081,0.270239,0.67342,0.0,0.0
892,222.75,66.671,68.6575,145.877,115.745,107.638,-0.00641931,0.0411111,21.0081,1.0209,0.650468,0.0,0.0
894,223.25,66.1648,68.1456,147.072,115.749,108.891,-0.00639084,0.0410569,21.0081,1.11098,0.547078,0.0,0.0
896,223.75,66.3099,67.9592,149.945,115.766,107.944,-0.00635798,0.041013,21.008,1.14101,0.626707,0.0,0.0
898,224.25,66.1331,67.6754,148.764,115.749,107.847,-0.00632254,0.0409846,21.008,0.510452,0.633346,0.0,0.0
900,224.75,65.6949,67.5366,146.901,115.775,107.842,-0.00628514,0.0409683,21.008,1.14101,0.635808,0.0,0.0
902,225.25,65.2061,67.7184,147.209,115.764,108.721,,0.040955,,0.820727,0.562177,0.0,0.0
904,225.75,65.8025,67.4108,149.669,115.772,108.301,,0.0409443,,0.710629,0.597532,0.0,0.0
906,226.25,65.2605,67.4735,147.867,115.766,108.762,,0.040921,,0.860762,0.559007,0.0,0.0
908,226.75,65.4151,67.113,148.211,115.787,108.172,,0.0408891,,0.88078,0.609298,0.0,0.0
910,227.25,64.5772,66.9857,147.238,115.769,108.701,,0.0408632,,0.70062,0.564292,0.0,0.0
912,227.75,64.5844,67.1998,150.783,115.786,107.975,,0.0408423,,1.37121,0.625629,0.0,0.0
914,228.25,64.793,66.4764,146.727,115.778,108.82,,,,0.390346,0.555157,0.0,0.0
916,228.75,64.4897,66.3522,146.274,115.785,108.28,,,,1.43127,0.600234,0.0,0.0
918,229.25,64.357,67.0254,149.314,115.787,109.288,,,,0.7907,0.517448,0.0,0.0
920,229.75,64.2322,66.569,150.529,115.806,108.594,,,,1.23109,0.575974,0.0,0.0
922,230.25,64.6279,66.1765,149.843,115.778,109.448,,,,0.650576,0.503652,0.0,0.0
924,230.75,64.548,66.4517,150.516,115.79,108.955,,,,1.28113,0.545033,0.0,0.0
926,231.25,64.9491,65.8694,149.401,115.769,108.996,,,,0.18016,0.540049,0.0,0.0
928,231.75,63.8,65.9345,148.628,115.792,108.526,,,,1.06094,0.58049,0.0,0.0
930,232.25,63.9259,64.8523,150.314,115.788,108.463,,,,0.570505,0.585355,0.0,0.0
932,232.75,63.3449,64.9599,150.375,115.799,109.197,,,,0.600532,0.525791,0.0,0.0
934,233.25,63.6582,65.4641,151.638,115.774,110.072,,,,-0.160142,0.452381,0.0,0.0
936,233.75,63.8007,65.0164,150.533,115.787,109.227,,,,-0.210186,0.522416,0.0,0.0
938,234.25,63.953,64.6592,147.703,115.77,109.223,,,,0.0800709,0.521445,0.0,0.0
940,234.75,63.2028,64.9457,149.059,115.776,109.485,,,,0.400355,0.500406,0.0,0.0
942,235.25,63.407,64.7623,147.103,115.755,108.913,,,,-0.0800709,0.545724,0.0,0.0
944,235.75,63.1919,64.4738,144.613,115.764,109.42,,,,-0.0400355,0.504831,0.0,0.0
945,236,62.7762,63.4341,147.43,115.748,109.292,,,,-0.0200177,0.514047,0.0,0.0