File: 01_Data/PlasticC/Cone/PlasticC_Cone_HF50Scan_220218_R1.csv
Names,Time,Stack TC,Smoke TC,Exh Press,Smoke Comp,Smoke Meas,CO Meter,CO2 Meter,O2 Meter,Sample Mass,Ext Coeff,Start Test,Flame Verif
Chan Gain,,500,500,1,1,1,1,1,1,1,1,1.0,1.0
Offset,,0,0,0.132436,0,0,0,0,0,0,0,0.0,0.0
Gain,,1,1,25.011,15.4219,15.1528,1,1,1,1.00089,1.02113,1.0,1.0
Units,sec,C,C,Pa,%,%,%,%,%,g,/m,,
Baseline,,22.6988,24.1007,165.135,112.264,111.561,-0.0057558,0.0489986,20.9964,-476.494,0.0563086,,
3,0.5,22.4411,23.5278,164.916,110.998,109.982,-0.00580686,0.0502094,20.9989,32.1285,0.0823301,0.0,0.0
6,1.25,21.4089,22.6517,165.734,111.052,110.556,-0.00580118,0.0500854,20.9989,32.1685,0.0400814,0.0,0.0
9,2,22.0829,22.991,166.252,111.128,110.509,-0.00582006,0.0499654,20.9989,32.1184,0.0500512,0.0,0.0
12,2.75,21.7078,22.7464,166.153,111.262,110.389,-0.00584753,0.0498186,20.9989,32.2085,0.0704926,0.0,0.0
15,3.5,21.6396,23.1533,162.189,111.408,110.383,-0.00589096,0.0496839,20.9989,32.2486,0.0828316,0.0,0.0
18,4.25,21.7628,23.0404,166.306,111.572,109.908,-0.00595451,0.0495446,20.9988,32.1985,0.134536,0.0,0.0
21,5,21.3589,22.4141,165.713,111.767,110.487,-0.00600083,0.0493932,20.9988,32.1385,0.103143,0.0,0.0
24,5.75,21.8098,22.7042,165.851,111.961,111.298,-0.00606439,0.0491828,20.9992,32.0684,0.0532277,0.0,0.0
27,6.5,22.2219,23.5747,162.365,112.177,111.143,-0.00612474,0.0490076,20.9996,32.1385,0.0829702,0.0,0.0
30,7.25,21.8058,23.3147,165.266,112.392,111.429,-0.00617097,0.0488424,20.9998,32.1685,0.0771253,0.0,0.0
33,8,21.8848,23.1683,165.379,112.582,111.279,-0.00618874,0.0486943,20.9999,32.1285,0.104242,0.0,0.0
36,8.75,21.9085,22.9878,167.427,112.766,111.926,-0.00618058,0.0485744,21.0001,32.1184,0.0670234,0.0,0.0
39,9.5,21.9199,23.2091,164.238,112.94,112.057,-0.00616564,0.0484278,21.0002,32.2185,0.0703401,0.0,0.0
42,10.25,22.0772,23.244,162.595,113.09,111.682,-0.00614037,0.0482793,21.0002,32.1184,0.112267,0.0,0.0
45,11,21.7268,23.7638,163.601,113.183,112.288,-0.00609736,0.0481388,21.0005,32.1184,0.0710795,0.0,0.0
48,11.75,22.088,23.4666,170.1,113.258,112.314,-0.00605184,0.0480114,21.0008,32.1985,0.0749718,0.0,0.0
51,12.5,22.6589,23.5242,165.555,113.326,112.129,-0.00601866,0.047958,21.0011,32.3386,0.0951304,0.0,0.0
54,13.25,22.506,23.7948,160.498,113.339,112.089,-0.00599624,0.0479191,21.0012,32.1685,0.0993501,0.0,0.0
57,14,22.4518,23.5246,167.019,113.327,111.993,-0.0059874,0.0478908,21.0014,32.2285,0.106072,0.0,0.0
60,14.75,22.6413,23.608,164.087,113.287,111.987,-0.00598415,0.0478482,21.0017,32.2786,0.103391,0.0,0.0
63,15.5,22.3886,23.8892,163.577,113.226,111.761,-0.00599772,0.0477798,21.002,32.1485,0.116582,0.0,0.0
66,16.25,22.4418,23.7171,162.521,113.144,111.544,-0.0060101,0.0477299,21.0021,32.2185,0.127537,0.0,0.0
69,17,22.3686,23.7575,161.865,113.018,110.861,-0.00602018,0.0476947,21.0022,32.2085,0.172675,0.0,0.0
72,17.75,22.2981,23.2076,164.518,112.907,111.516,-0.00602221,0.0476552,21.0023,32.1785,0.111079,0.0,0.0
75,18.5,22.5035,23.8166,162.724,112.826,110.886,-0.0060237,0.0476204,21.0024,32.1485,0.155388,0.0,0.0
78,19.25,21.9016,23.9942,169.729,112.724,111.262,-0.00602478,0.0475358,21.0024,32.1084,0.116922,0.0,0.0
81,20,21.8464,24.051,163.964,112.631,110.689,-0.00604328,0.0475019,21.0025,32.2486,0.155796,0.0,0.0
84,20.75,22.2682,24.153,162.214,112.789,110.628,-0.00605925,0.0474816,21.0025,32.1084,0.173305,0.0,0.0
87,21.5,22.4192,23.9879,168.837,113.009,110.593,-0.00606476,0.0474544,21.0025,32.0984,0.193513,0.0,0.0
90,22.25,22.4474,24.2972,164.017,113.162,111.594,-0.00605648,0.0473753,21.0019,32.1285,0.124907,0.0,0.0
93,23,22.7586,23.6436,165.683,113.266,111.638,-0.00602035,0.0473322,21.0014,32.1785,0.129647,0.0,0.0
96,23.75,22.6117,23.7583,165.19,113.303,111.399,-0.00598352,0.0473257,21.0011,32.1184,0.15179,0.0,0.0
99,24.5,22.9987,24.0028,163.927,113.312,111.642,-0.00593875,0.0473605,21.0009,32.1385,0.133035,0.0,0.0
102,25.25,23.4785,24.5064,164.095,113.26,110.865,-0.00589903,0.0473859,21.0005,33.1594,0.19149,0.0,0.0
105,26,23.0605,24.1493,162.761,113.155,110.643,-0.00587007,0.0474044,21.0002,33.1694,0.201138,0.0,0.0
108,26.75,23.0801,24.2837,167.964,113.012,110.602,-0.00585427,0.0473772,21,32.0684,0.193138,0.0,0.0
111,27.5,22.8019,23.9091,164.256,112.833,109.819,-0.00584027,0.0474266,20.9998,32.0984,0.24258,0.0,0.0
114,28.25,22.8947,23.5588,164.614,112.587,110.025,-0.00583032,0.0474922,20.9997,32.2486,0.206175,0.0,0.0
117,29,22.4666,23.7616,164.223,112.387,109.072,-0.00582529,0.0475539,20.9996,32.1685,0.268175,0.0,0.0
120,29.75,22.7868,24.29,163.04,112.458,109.555,-0.00582871,0.0476266,20.9996,32.0784,0.234278,0.0,0.0
123,30.5,22.7346,24.2167,166.6,112.556,109.951,-0.00583112,0.0477171,20.9993,32.0684,0.209805,0.0,0.0
126,31.25,22.4291,23.9569,166.84,112.671,109.74,-0.00583146,0.04788,20.9987,32.0384,0.236058,0.0,0.0
129,32,22.8779,24.3326,166.016,112.781,109.847,-0.00582613,0.0482065,20.998,32.0484,0.236056,0.0,0.0
132,32.75,23.3348,23.9064,162.773,112.89,109.567,-0.00582224,0.0486322,20.9972,32.0884,0.267642,0.0,0.0
135,33.5,22.7223,23.89,167.526,113.017,109.577,-0.0058045,0.0489898,20.9966,31.9383,0.276813,0.0,0.0
138,34.25,23.2017,24.4656,164.972,113.111,109.954,-0.00577676,0.0496998,20.9963,31.9483,0.253514,0.0,0.0
141,35,23.2224,24.0858,162.579,113.209,110.28,-0.00574205,0.0502173,20.9956,32.1084,0.234782,0.0,0.0
144,35.75,22.6512,23.8869,166.047,113.258,110.3,-0.00565654,0.0508722,20.9948,32.0484,0.237113,0.0,0.0
147,36.5,22.934,24.2813,174.641,113.303,109.994,-0.00551578,0.051468,20.9939,32.0384,0.265544,0.0,0.0
150,37.25,22.8473,24.078,164.091,113.302,110.473,-0.00527908,0.0539204,20.9846,31.9783,0.226541,0.0,0.0
153,38,23.0284,24.6037,165.953,113.27,110.519,-0.00481351,0.05875,20.9712,31.9983,0.220224,0.0,1.0
156,38.75,22.9444,24.189,160.807,113.195,104.983,-0.00410283,0.0660011,20.95,31.9583,0.674586,0.0,1.0
159,39.5,23.0364,24.3776,161.403,113.108,96.5887,-0.00316348,0.0828582,20.9066,31.8382,1.41417,0.0,1.0
162,40.25,22.8947,24.1541,157.89,112.992,86.0874,-0.00165893,0.102116,20.861,31.9283,2.43596,0.0,1.0
165,41,23.6912,24.7627,147.21,112.836,76.8338,0.000120302,0.128072,20.8038,31.9283,3.44218,0.0,1.0
168,41.75,23.9589,25.1282,147.208,112.669,63.1713,0.0019867,0.169047,20.7187,31.8482,5.18271,0.0,1.0
171,42.5,24.104,25.3029,142.346,112.473,63.8992,0.00398636,0.2093,20.6296,31.6881,5.06448,0.0,1.0
174,43.25,24.4137,26.3527,133.079,112.273,58.9193,0.0060234,0.256398,20.5531,31.648,5.77531,0.0,0.0
177,44,24.7393,26.9135,142.522,112.09,58.7653,0.00803314,0.309393,20.4563,31.4979,5.78417,0.0,0.0
180,44.75,25.5854,27.181,131.313,111.871,55.2953,0.0101731,0.362849,20.378,31.3678,6.31177,0.0,0.0
183,45.5,26.7865,29.1121,135.717,111.696,55.409,0.0122819,0.413563,20.3076,31.1976,6.27941,0.0,0.0
186,46.25,27.9959,30.2405,140.99,111.511,53.6532,0.0142656,0.465509,20.2339,31.1176,6.55296,0.0,0.0
189,47,29.3277,31.3447,136.359,111.38,46.0962,0.0160544,0.513652,20.1801,31.0175,7.90221,0.0,0.0
192,47.75,30.0315,32.0142,132.209,111.267,49.4363,0.0179444,0.553127,20.1186,30.8173,7.26652,0.0,0.0
195,48.5,30.236,33.1175,136.679,111.171,45.6088,0.0197477,0.600615,20.0661,30.8173,7.98064,0.0,0.0
198,49.25,32.369,34.9965,120.616,111.129,47.3346,0.0214953,0.635234,20.0106,30.7372,7.64455,0.0,0.0
201,50,33.669,36.3083,135.138,111.137,47.3651,0.0231992,0.673916,19.9627,30.517,7.63946,0.0,0.0
204,50.75,34.7197,37.343,128.2,111.163,42.375,0.0250224,0.706778,19.9082,30.477,8.63872,0.0,0.0
207,51.5,35.6872,39.1903,132.496,111.23,38.5161,0.0267411,0.738705,19.8452,30.477,9.49934,0.0,0.0
210,52.25,37.0292,39.8943,132.838,111.328,44.8092,0.028318,0.774589,19.7866,30.3569,8.15171,0.0,0.0
213,53,37.7769,41.3691,131.032,111.489,39.2902,0.0297378,0.810145,19.7329,30.1767,9.34196,0.0,0.0
216,53.75,38.7164,42.4795,125.599,111.652,44.1692,0.0311363,0.844063,19.6899,30.2268,8.30655,0.0,0.0
219,54.5,40.5829,44.4797,129.441,111.828,42.3135,0.0323107,0.875616,19.6518,29.9765,8.70516,0.0,0.0
222,55.25,41.5124,46.2169,127.234,112.015,39.9806,0.0336391,0.906439,19.6241,29.7764,9.22807,0.0,0.0
225,56,42.9509,47.3217,132.647,112.248,45.2601,0.0346075,0.932823,19.5945,29.6463,8.13573,0.0,0.0
228,56.75,44.1613,48.5356,124.274,112.441,43.896,0.0357863,0.958749,19.5692,29.6262,8.42527,0.0,0.0
231,57.5,45.1518,50.1007,117.581,112.637,38.2386,0.0370262,0.986818,19.5442,29.386,9.67671,0.0,0.0
234,58.25,46.8477,51.9091,121.79,112.813,37.0451,0.038236,1.01119,19.5029,29.2059,9.97473,0.0,0.0
237,59,48.0564,52.962,126.322,113.001,35.9704,0.0394604,1.03408,19.4633,29.1458,10.2534,0.0,0.0
240,59.75,49.3231,55.0751,121.746,113.146,38.819,0.040552,1.05954,19.428,28.9456,9.58215,0.0,0.0
243,60.5,50.3459,56.3906,120.493,113.27,37.0987,0.0414326,1.08396,19.3983,28.7755,9.99802,0.0,0.0
246,61.25,52.3798,58.2017,122.891,113.356,37.8765,0.0424571,1.10528,19.3688,28.6354,9.81893,0.0,0.0
249,62,53.2534,59.1935,116.219,113.447,35.2606,0.0433775,1.12463,19.3401,28.4052,10.4671,0.0,0.0
252,62.75,54.0589,61.3547,127.043,113.483,36.0019,0.044248,1.1427,19.3125,28.3451,10.2837,0.0,0.0
255,63.5,55.2205,62.4158,120.218,113.493,36.3931,0.0450973,1.15954,19.2923,28.225,10.1877,0.0,0.0
258,64.25,56.7047,63.6052,122.552,113.484,34.7672,0.0461333,1.17464,19.2711,28.0448,10.5963,0.0,0.0
261,65,57.9871,65.2191,116.537,113.459,38.8097,0.0472431,1.1878,19.2528,27.9247,9.6091,0.0,0.0
264,65.75,59.2119,66.7581,124.545,113.409,35.3253,0.0482033,1.20223,19.2196,27.6745,10.4477,0.0,0.0
267,66.5,60.586,68.0149,119.583,113.332,31.5602,0.0491062,1.21997,19.193,27.4743,11.4512,0.0,0.0
270,67.25,61.4781,69.3074,114.068,113.238,33.5954,0.0501493,1.24172,19.1499,27.3542,10.884,0.0,0.0
273,68,62.6604,70.407,111.959,113.131,36.8014,0.0513176,1.2726,19.11,27.124,10.0591,0.0,0.0
276,68.75,64.0946,72.3981,115.247,113.043,31.2902,0.0524491,1.30011,19.0663,27.124,11.5053,0.0,0.0
279,69.5,65.1798,73.3194,116.204,112.936,35.2171,0.0538363,1.32017,19.0258,26.9238,10.4378,0.0,0.0
282,70.25,67.0913,75.882,119.488,112.851,33.6347,0.0544881,1.35019,18.9893,26.7437,10.8429,0.0,0.0
285,71,67.9469,77.4192,112.83,112.8,27.7975,0.0555437,1.37498,18.9569,26.4434,12.5461,0.0,0.0
288,71.75,69.4309,79.038,117.969,113.018,35.2129,0.0566661,1.39885,18.9286,26.2533,10.4453,0.0,0.0
291,72.5,70.7215,80.3862,115.654,113.175,31.5306,0.0578675,1.42127,18.8887,26.0731,11.4471,0.0,0.0
294,73.25,71.9419,81.2962,112.838,113.29,29.1084,0.0594584,1.44402,18.8435,25.983,12.1722,0.0,0.0
297,74,73.0898,83.3624,120.956,113.39,28.6455,0.0606182,1.46788,18.8036,25.8229,12.3237,0.0,0.0
300,74.75,74.4404,85.3301,111.013,113.458,26.2192,0.062451,1.50037,18.758,25.6327,13.1218,0.0,0.0
303,75.5,75.1447,86.0752,108.55,113.464,28.5272,0.0642374,1.5333,18.7177,25.4525,12.3666,0.0,0.0
306,76.25,76.0491,87.4894,105.454,113.425,27.261,0.065285,1.56124,18.6879,25.2323,12.7702,0.0,0.0
309,77,78.4583,89.9534,111.419,113.324,27.6032,0.0672282,1.59103,18.65,25.0021,12.6505,0.0,0.0
312,77.75,80.0616,92.2445,111.013,113.214,28.1438,0.0690716,1.61577,18.6209,24.7219,12.468,0.0,0.0
315,78.5,81.3577,93.8545,109.326,113.031,29.5764,0.0705974,1.63897,18.5929,24.6118,12.0088,0.0,0.0
318,79.25,83.0341,95.3737,115.053,112.814,26.1225,0.0720963,1.65663,18.5608,24.4817,13.1039,0.0,0.0
321,80,83.2757,95.915,107.737,112.557,23.6777,0.0738501,1.68451,18.5103,24.2014,13.9637,0.0,0.0
324,80.75,84.4041,97.5974,108.647,112.576,27.1001,0.0757318,1.71727,18.4621,24.0013,12.7559,0.0,0.0
327,81.5,86.7281,100.034,105.572,112.656,23.7813,0.077367,1.74115,18.4222,23.711,13.9324,0.0,0.0
330,82.25,88.2073,101.678,99.9466,112.782,25.1963,0.0790096,1.78056,18.3644,23.711,13.4248,0.0,0.0
333,83,89.0446,102.964,95.6318,112.896,23.2425,0.0803963,1.81556,18.3213,23.4708,14.1567,0.0,0.0
336,83.75,90.5505,105.203,104.741,113.038,23.0807,0.0815785,1.84374,18.2884,23.2206,14.2306,0.0,0.0
339,84.5,92.0807,106.89,104.6,113.154,24.3047,0.0825952,1.86781,18.2631,22.9703,13.777,0.0,0.0
342,85.25,93.7121,109.001,111.393,113.262,24.2469,0.0837944,1.88549,18.2434,22.8102,13.8068,0.0,0.0
345,86,95.1238,110.672,105.156,113.35,27.1958,0.0851901,1.89859,18.2102,22.4899,12.7857,0.0,0.0
348,86.75,96.4276,111.67,106.858,113.413,26.3769,0.0868469,1.91485,18.1781,22.2797,13.0646,0.0,0.0
351,87.5,97.7607,113.888,104.711,113.445,23.3748,0.088768,1.93927,18.1124,22.0796,14.1494,0.0,0.0
354,88.25,98.821,115.114,102.463,113.453,22.5327,0.0906658,1.97103,18.0645,21.8694,14.4787,0.0,0.0
357,89,100.264,116.386,96.8156,113.433,21.5366,0.0928996,2.00886,17.9991,21.7092,14.882,0.0,0.0
360,89.75,101.19,118.494,99.2497,113.369,22.4134,0.0950145,2.04929,17.9457,21.509,14.5196,0.0,0.0
363,90.5,103.413,120.522,102.556,113.298,21.7184,0.0968822,2.08771,17.9023,21.2288,14.7962,0.0,0.0
366,91.25,104.925,122.495,101.219,113.188,20.6751,0.0984462,2.12165,17.8671,21.0086,15.2284,0.0,0.0
369,92,106.559,124.847,96.2599,113.052,22.5077,0.0997732,2.15058,17.8228,20.7584,14.4569,0.0,0.0
372,92.75,107.633,126.297,99.2871,112.868,23.9269,0.100904,2.17883,17.787,20.5882,13.8946,0.0,0.0
375,93.5,109.292,128.043,95.7073,112.707,23.2088,0.101893,2.2054,17.7594,20.298,14.1548,0.0,0.0
378,94.25,110.347,129.085,108.702,112.537,22.2275,0.102775,2.2313,17.7138,20.1278,14.5282,0.0,0.0
381,95,112.126,131.223,101.444,112.332,23.858,0.103622,2.25779,17.6734,19.9477,13.8778,0.0,0.0
384,95.75,113.244,132.922,94.3892,112.125,22.9022,0.104412,2.28533,17.6318,19.5673,14.2275,0.0,0.0
387,96.5,114.661,134.723,101.89,111.932,20.2358,0.105137,2.31545,17.6002,19.2771,15.3208,0.0,0.0
390,97.25,116.594,137.109,96.1684,111.759,20.4883,0.105955,2.33944,17.5763,18.9868,15.1959,0.0,0.0
393,98,117.988,138.8,97.801,111.613,22.8712,0.106609,2.36041,17.5629,18.7966,14.1986,0.0,0.0
396,98.75,119.156,140.442,113.154,111.472,21.416,0.107555,2.38462,17.5237,18.5664,14.7762,0.0,0.0
399,99.5,120.452,141.817,102.864,111.374,21.2014,0.108648,2.4105,17.4879,18.3963,14.8585,0.0,0.0
402,100.25,120.936,143.439,96.5668,111.316,19.8479,0.109823,2.43286,17.4497,18.1361,15.4447,0.0,0.0
405,101,122.498,144.752,95.6241,111.282,21.4455,0.111034,2.45205,17.4218,17.7757,14.7485,0.0,0.0
408,101.75,123.525,146.495,100.362,111.295,20.5628,0.111917,2.47585,17.3952,17.6256,15.1261,0.0,0.0
411,102.5,125.456,148.539,106.553,111.354,20.1276,0.113818,2.49598,17.3761,17.2853,15.3225,0.0,0.0
414,103.25,126.301,150.1,98.0628,111.44,20.1984,0.116174,2.51529,17.3626,17.1052,15.298,0.0,0.0
417,104,127.613,151.487,100.452,111.575,19.4969,0.118634,2.53135,17.3388,16.8149,15.6254,0.0,0.0
420,104.75,128.685,152.935,106.248,111.732,18.2673,0.121423,2.55238,17.3026,16.5046,16.2215,0.0,0.0
423,105.5,130.149,154.371,101.828,111.913,17.8751,0.124338,2.58368,17.2414,16.2644,16.4304,0.0,0.0
426,106.25,131.592,156.569,91.0101,112.099,17.6943,0.127246,2.6189,17.1747,15.9441,16.5363,0.0,0.0
429,107,132.697,158.009,92.21,112.305,19.7475,0.130257,2.65605,17.0974,15.7439,15.5694,0.0,0.0
432,107.75,133.688,159.552,92.2016,112.513,16.4781,0.132723,2.69369,17.0296,15.4137,17.2072,0.0,0.0
435,108.5,135,161.235,99.41,112.697,17.1501,0.134637,2.74044,16.9605,15.1134,16.8638,0.0,0.0
438,109.25,136.592,163.483,91.9474,112.893,20.4301,0.13549,2.78612,16.9251,14.8632,15.3118,0.0,0.0
441,110,137.908,164.892,89.4401,113.07,17.4044,0.136316,2.82639,16.8843,14.4928,16.7616,0.0,0.0
444,110.75,139.343,166.846,90.3995,113.241,18.6432,0.136488,2.85919,16.8546,14.3227,16.1592,0.0,0.0
447,111.5,140.417,168.55,95.5684,113.39,18.4092,0.136472,2.88245,16.8352,14.1826,16.2841,0.0,0.0
450,112.25,142.119,170.345,89.6736,113.476,18.8291,0.136458,2.89353,16.825,13.8222,16.0889,0.0,0.0
453,113,143.594,172.039,101.53,113.586,18.3228,0.136546,2.90361,16.8176,13.562,16.3418,0.0,0.0
456,113.75,144.474,173.62,86.7442,113.656,19.1269,0.137251,2.90511,16.8121,13.2417,15.9625,0.0,0.0
459,114.5,145.608,175.293,97.2278,113.698,19.0483,0.138425,2.90418,16.7986,12.9214,16.0027,0.0,0.0
462,115.25,146.579,176.787,94.8983,113.718,19.8146,0.139562,2.90902,16.7846,12.6612,15.651,0.0,0.0
465,116,147.694,178.069,89.3271,113.696,16.5706,0.141761,2.92232,16.7547,12.371,17.2507,0.0,0.0
468,116.75,148.928,179.157,96.1622,113.651,15.9496,0.143832,2.9431,16.7159,12.0907,17.5893,0.0,0.0
471,117.5,149.761,180.218,93.055,113.595,16.4153,0.145679,2.97005,16.6726,11.8205,17.3272,0.0,0.0
474,118.25,151.353,182.337,87.0068,113.519,16.6284,0.147261,3.00021,16.638,11.6803,17.2055,0.0,0.0
477,119,152.238,183.567,87.1968,113.439,15.9871,0.148514,3.02744,16.611,11.1799,17.5516,0.0,0.0
480,119.75,153.116,185.477,87.7807,113.343,21.1556,0.14944,3.04859,16.5905,10.9397,15.0349,0.0,0.0
483,120.5,154.821,187.724,94.2579,113.248,16.9794,0.15006,3.06425,16.5765,10.6094,16.997,0.0,0.0
486,121.25,156.108,189.104,89.9148,113.155,19.2425,0.150362,3.07576,16.5682,10.5093,15.869,0.0,0.0
489,122,156.826,190.006,89.2951,113.096,17.237,0.150518,3.08871,16.5649,10.139,16.8501,0.0,0.0
492,122.75,158.865,191.839,90.1125,113.238,19.4701,0.150256,3.09772,16.5633,9.85873,15.7702,0.0,0.0
495,123.5,158.585,192.903,97.6064,113.427,20.2118,0.149674,3.10147,16.5632,9.65855,15.4503,0.0,0.0
498,124.25,160.487,195.364,90.3927,113.586,17.2319,0.148855,3.09969,16.5632,9.28823,16.8915,0.0,0.0
501,125,161.308,196.075,86.6236,113.699,17.3794,0.148258,3.09039,16.5756,8.98796,16.8241,0.0,0.0
504,125.75,162.66,197.286,94.4296,113.738,17.5491,0.146951,3.0802,16.5977,8.76777,16.7401,0.0,0.0
507,126.5,163.537,198.776,97.933,113.736,18.2765,0.145648,3.0578,16.629,8.44748,16.3762,0.0,0.0
510,127.25,163.569,199.678,93.1015,113.69,18.7542,0.144337,3.04146,16.6683,8.14722,16.1415,0.0,0.0
513,128,165.08,200.898,90.543,113.617,15.4187,0.14302,3.01973,16.7045,7.84695,17.8898,0.0,0.0
516,128.75,165.101,201.149,102.174,113.489,18.3861,0.141263,2.99729,16.7357,7.76688,16.3032,0.0,0.0
519,129.5,166.245,201.725,90.8254,113.302,16.2978,0.139981,2.97683,16.7667,7.43659,17.3683,0.0,0.0
522,130.25,166.733,203.579,92.726,113.062,18.8296,0.137602,2.95366,16.8029,7.29646,16.0559,0.0,0.0
525,131,166.855,203.104,95.9249,112.811,22.0259,0.135539,2.92698,16.835,6.87609,14.6316,0.0,0.0
528,131.75,167.95,204.293,96.5042,112.795,20.1965,0.133475,2.90337,16.8892,6.56581,15.407,0.0,0.0
531,132.5,167.416,204.809,94.1037,112.876,19.3401,0.131581,2.8698,16.9348,6.35563,15.8015,0.0,0.0
534,133.25,168.602,205.173,100.601,112.955,21.0368,0.130096,2.83836,16.9723,6.06537,15.0546,0.0,0.0
537,134,169.445,205.797,100.163,113.059,19.0345,0.128889,2.8078,17.0023,5.88521,15.9588,0.0,0.0
540,134.75,168.647,205.672,91.7475,113.181,16.16,0.127875,2.78681,17.0293,5.57494,17.4348,0.0,0.0
543,135.5,169.441,206.154,98.0628,113.29,18.9951,0.126534,2.77372,17.0489,5.47485,15.9956,0.0,0.0
546,136.25,169.237,206.616,105.104,113.383,19.9977,0.125558,2.76388,17.0632,5.28468,15.5422,0.0,0.0
549,137,170.359,207.001,100.679,113.465,20.0467,0.12327,2.74823,17.1098,4.93437,15.5268,0.0,0.0
552,137.75,170.501,207.293,98.8482,113.544,19.9598,0.120109,2.71597,17.1653,4.88433,15.5719,0.0,0.0
555,138.5,170.378,207.611,99.9015,113.588,21.7572,0.116328,2.6851,17.2428,4.59407,14.8031,0.0,0.0
558,139.25,171.172,207.98,105.115,113.615,24.3468,0.11339,2.62098,17.3227,4.36386,13.7978,0.0,0.0
561,140,171.331,207.665,102.857,113.611,25.7461,0.108106,2.55519,17.4482,4.19371,13.297,0.0,0.0
564,140.75,171.017,207.726,104.327,113.597,27.7882,0.102667,2.47466,17.5968,3.96351,12.6122,0.0,0.0
567,141.5,170.897,206.901,106.984,113.518,29.7239,0.0973672,2.36984,17.7535,3.8334,12.0028,0.0,0.0
570,142.25,170.343,206.552,110.788,113.427,30.5531,0.0919809,2.31626,17.9079,3.63322,11.7492,0.0,0.0
573,143,169.646,205.531,114.601,113.335,27.8691,0.0874051,2.20415,18.0539,3.37299,12.5654,0.0,0.0
576,143.75,169.139,204.833,122.31,113.196,29.5995,0.0826766,2.09681,18.1791,3.18282,12.0149,0.0,0.0
579,144.5,167.873,203.615,111.416,113.036,33.0414,0.0781111,1.99558,18.3188,2.87254,11.0169,0.0,0.0
582,145.25,167.14,201.927,118.487,112.85,31.5991,0.0738854,1.90114,18.4482,2.99265,11.402,0.0,0.0
585,146,166.126,200.781,125.738,112.645,33.8543,0.0690187,1.80661,18.5784,2.85253,10.7681,0.0,0.0
588,146.75,165.201,199.416,119.13,112.45,36.4851,0.0642183,1.72675,18.6885,2.68238,10.0823,0.0,0.0
591,147.5,164.149,198.254,119.483,112.253,38.7695,0.0601848,1.62642,18.7983,2.5923,9.52262,0.0,0.0
594,148.25,162.548,196.367,122.307,112.056,40.5729,0.0562388,1.52639,18.9286,2.55226,9.0996,0.0,0.0
597,149,161.737,194.776,131.285,111.872,49.0839,0.0516428,1.42628,19.0875,2.42215,7.37918,0.0,0.0
600,149.75,160.408,193.442,132.503,111.74,51.2805,0.0467992,1.32641,19.244,2.16191,6.97646,0.0,0.0
603,150.5,159.004,190.567,135.359,111.624,54.7644,0.0432683,1.25361,19.3754,2.25199,6.37845,0.0,0.0
606,151.25,157.156,189.239,135.548,111.524,54.2118,0.038694,1.14177,19.5096,2.18193,6.46124,0.0,0.0
609,152,154.936,186.743,134.059,111.468,54.6728,0.0348896,1.03996,19.6238,2.08184,6.38089,0.0,0.0
612,152.75,153.981,184.444,144.662,111.454,64.739,0.031313,0.957101,19.7707,2.01178,4.86598,0.0,0.0
615,153.5,152.145,182.221,143.572,111.474,75.354,0.027798,0.856518,19.9153,2.07183,3.50759,0.0,0.0
618,154.25,150.233,180.065,147.475,111.512,83.4113,0.0247786,0.77065,20.0555,1.93171,2.60071,0.0,0.0
621,155,148.381,177.92,150.143,111.613,90.4772,0.0223825,0.686602,20.19,1.96174,1.88049,0.0,0.0
624,155.75,146.17,175.191,148.042,111.745,95.0169,0.0201843,0.615292,20.3121,2.08184,1.45258,0.0,0.0
627,156.5,144.185,172.776,152.032,111.904,100.844,0.0184238,0.546141,20.4194,2.10186,0.932191,0.0,0.0
630,157.25,142.07,169.534,154.852,112.065,102.537,0.017073,0.475658,20.5113,2.12188,0.795901,0.0,0.0
633,158,140.007,167.558,154.779,112.259,102.838,0.0157516,0.414544,20.6114,2.16191,0.785127,0.0,0.0
636,158.75,137.586,164.197,153.351,112.484,104.025,0.015254,0.361599,20.6533,2.06183,0.700298,0.0,0.0
639,159.5,135.542,162.067,153.141,112.676,103.86,0.0146665,0.315745,20.7062,2.13189,0.729803,0.0,0.0
642,160.25,133.374,159.747,150.326,112.854,104.358,0.0142168,0.276684,20.7499,2.02179,0.701084,0.0,0.0
645,161,131.665,157.442,151.349,113.021,105.09,0.0138441,0.235242,20.7866,2.09185,0.651724,0.0,0.0
648,161.75,130.072,155.052,153.99,113.192,105.151,0.0135532,0.217179,20.8177,2.13189,0.66009,0.0,0.0
651,162.5,128.539,153.143,155.605,113.346,105.565,0.013277,0.193792,20.8425,2.10186,0.636998,0.0,0.0
654,163.25,126.373,150.631,156.843,113.475,105.435,0.0130045,0.175668,20.8629,1.85164,0.65829,0.0,0.0
657,164,124.472,148.302,153.074,113.591,105.98,0.0127755,0.158886,20.8802,2.09185,0.621265,0.0,0.0
660,164.75,122.928,146.691,150.47,113.712,106.128,0.0125151,0.145187,20.8934,1.98176,0.6183,0.0,0.0
663,165.5,121.095,144.505,151.139,113.807,106.197,0.0122433,0.133756,20.9043,2.08184,0.619896,0.0,0.0
666,166.25,119.733,142.704,154.086,113.875,105.435,0.011973,0.124019,20.9153,2.09185,0.689699,0.0,0.0
669,167,118.487,140.703,150.714,113.892,107.194,0.0116619,0.115819,20.9233,1.96174,0.542935,0.0,0.0
672,167.75,116.442,138.638,150.42,113.905,106.055,0.0113384,0.109371,20.9301,2.10186,0.639619,0.0,0.0
675,168.5,115.264,136.953,157.669,113.908,105.14,0.0109556,0.103304,20.9371,2.00177,0.717463,0.0,0.0
678,169.25,113.844,135.123,154.718,113.861,107.464,0.0106315,0.0981495,20.9429,1.98176,0.517917,0.0,0.0
681,170,112.315,133.085,149.45,113.805,105.936,0.0102486,0.0937994,20.9474,1.70151,0.641848,0.0,0.0
684,170.75,110.393,131.694,155.661,113.754,105.268,0.00996944,0.0901478,20.9511,1.94172,0.694451,0.0,0.0
687,171.5,109.519,129.816,151.748,113.692,106.092,0.00966633,0.0867655,20.9538,1.85164,0.619672,0.0,0.0
690,172.25,108.328,128.049,154.855,113.601,106.454,0.00927501,0.0838794,20.9554,1.82161,0.581997,0.0,0.0
693,173,105.896,125.623,154.331,113.52,106.197,0.00901451,0.0815962,20.9563,1.84163,0.597269,0.0,0.0
696,173.75,105.189,124.71,153.251,113.436,106.026,0.00863589,0.0796076,20.9578,2.00177,0.6051,0.0,0.0
699,174.5,104.444,123.483,152.624,113.388,106.059,0.0081689,0.0776036,20.9594,2.02179,0.598538,0.0,0.0
702,175.25,103.163,122.141,150.431,113.392,105.574,0.00768479,0.0757652,20.9612,1.94172,0.639934,0.0,0.0
705,176,101.613,120.74,153.467,113.589,105.641,0.00720199,0.0747127,20.9633,1.94172,0.649771,0.0,0.0
708,176.75,100.655,118.954,153.048,113.764,106.177,0.00673268,0.0730916,20.9655,1.8116,0.618278,0.0,0.0
711,177.5,98.5337,116.537,152.641,113.899,105.311,0.0062306,0.0717371,20.9675,1.76156,0.702158,0.0,0.0
714,178.25,98.1573,116.147,155.057,113.969,105.537,0.00586458,0.0703514,20.9691,1.79159,0.688498,0.0,0.0
717,179,96.8893,114.682,155.229,114.028,107.73,0.00539846,0.0690901,20.971,1.88167,0.508952,0.0,0.0
720,179.75,96.1052,112.971,152.034,114.033,106.724,0.00491779,0.0679608,20.9723,1.89168,0.593343,0.0,0.0
723,180.5,95.4207,111.566,150.859,114.007,107.002,0.00451354,0.0669618,20.9733,1.94172,0.568012,0.0,0.0
726,181.25,93.2308,110.216,158.568,113.961,106.981,0.00412678,0.0659552,20.9752,1.93171,0.566132,0.0,0.0
729,182,92.8998,109.419,155.947,113.851,105.802,0.00373149,0.065126,20.9766,1.8016,0.656788,0.0,0.0
732,182.75,91.8909,107.53,157.256,113.713,106.505,0.00333685,0.0643585,20.9777,1.96174,0.586622,0.0,0.0
735,183.5,91.0877,106.532,152.256,113.56,104.954,0.00294971,0.0636003,20.979,1.94172,0.705887,0.0,0.0
738,184.25,89.7033,104.667,153.69,113.368,105.975,0.00254733,0.0628665,20.9803,1.90168,0.604049,0.0,0.0
741,185,88.6189,104.154,155.901,113.122,104.827,0.00220276,0.0622544,20.9816,1.91169,0.682194,0.0,0.0
744,185.75,88.4836,103.375,154.915,113.092,104.189,0.00180937,0.0616096,20.9825,1.86165,0.734465,0.0,0.0
747,186.5,87.1677,101.897,153.473,113.15,105.48,0.00141158,0.0610443,20.9832,1.85164,0.628733,0.0,0.0
750,187.25,86.4517,101.007,159.048,113.219,105.329,0.000990342,0.0604694,20.9843,1.89168,0.647098,0.0,0.0
753,188,85.3526,99.4469,153.822,113.302,105.772,0.000606158,0.059939,20.9852,1.84163,0.616015,0.0,0.0
756,188.75,84.8315,99.4805,153.017,113.373,105.605,0.000219835,0.0595049,20.9862,1.95173,0.635781,0.0,0.0
759,189.5,83.8614,97.8688,154.343,113.473,105.187,-0.000131321,0.05899,20.9871,1.9217,0.679149,0.0,0.0
762,190.25,82.916,96.8848,154.619,113.578,105.407,-0.000450281,0.0585034,20.9878,1.96174,0.668743,0.0,0.0
765,191,82.5241,96.4776,154.57,113.654,106.695,-0.00073979,0.0580647,20.9883,1.89168,0.565941,0.0,0.0
768,191.75,81.7589,94.6593,160.754,113.725,106.324,-0.00102782,0.0576823,20.9887,1.86165,0.602728,0.0,0.0
771,192.5,80.4492,93.443,154.029,113.809,106.727,-0.00127061,0.0572449,20.9889,1.83162,0.575494,0.0,0.0
774,193.25,80.2374,92.7047,152.174,113.857,106.611,-0.00153443,0.0567278,20.9891,1.87166,0.588942,0.0,0.0
777,194,79.43,92.0578,154.363,113.903,106.607,-0.00172676,0.0563143,20.9899,1.89168,0.592995,0.0,0.0
780,194.75,78.7894,90.9691,155.347,113.893,107.47,-0.00195884,0.0559503,20.9905,1.86165,0.519933,0.0,0.0
783,195.5,78.3214,90.0526,155.246,113.898,106.538,-0.0021966,0.0555608,20.9909,1.9217,0.598379,0.0,0.0
786,196.25,77.2595,89.167,157.536,113.869,106.41,-0.00244374,0.0552239,20.9912,1.87166,0.606822,0.0,0.0
789,197,76.6124,87.9905,153.757,113.821,106.16,-0.00266413,0.0548116,20.9914,2.00177,0.624125,0.0,0.0
792,197.75,76.0642,87.5203,155.643,113.76,106.169,-0.00287084,0.05444,20.992,1.98176,0.618607,0.0,0.0
795,198.5,75.0482,86.2789,156.416,113.676,105.963,-0.00302153,0.0540305,20.9926,1.95173,0.629311,0.0,0.0
798,199.25,74.6942,85.7686,153.27,113.576,106.351,-0.00321107,0.0536903,20.9931,1.98176,0.588709,0.0,0.0
801,200,73.932,84.6159,154.798,113.467,106.257,-0.00339271,0.0534026,20.9934,1.79159,0.588081,0.0,0.0
804,200.75,73.1244,83.9627,155.663,113.353,106.193,-0.00356521,0.0531554,20.9936,1.90168,0.584391,0.0,0.0
807,201.5,72.5684,83.1374,156.946,113.21,105.341,-0.00372783,0.0528564,20.9944,1.87166,0.64533,0.0,0.0
810,202.25,72.2078,81.994,157.688,113.072,106.462,-0.00388181,0.0526166,20.995,1.98176,0.539525,0.0,0.0
813,203,71.3105,81.3983,159.042,112.916,106.029,-0.00401039,0.0524042,20.9954,1.98176,0.563706,0.0,0.0
816,203.75,70.8255,80.6548,153.87,112.766,106.46,-0.00413207,0.0521662,20.9958,1.95173,0.515456,0.0,0.0
819,204.5,69.657,80.3528,156.142,112.607,105.187,-0.00424025,0.0519206,20.996,1.93171,0.610569,0.0,0.0
822,205.25,69.4606,79.414,154.904,112.487,105.409,-0.00431911,0.0516792,20.9961,1.86165,0.582094,0.0,0.0
825,206,69.3769,79.0984,156.156,112.356,104.467,-0.00439077,0.0515032,20.9963,1.95173,0.652076,0.0,0.0
828,206.75,68.7165,78.1035,153.205,112.214,104.42,-0.00446163,0.0513194,20.9964,1.8016,0.644781,0.0,0.0
831,207.5,67.9471,76.9456,154.956,112.071,105.385,-0.00452123,0.0511617,20.997,1.91169,0.550986,0.0,0.0
834,208.25,67.6083,76.9397,154.817,111.964,105.094,-0.00460718,0.0510191,20.9975,1.90168,0.567203,0.0,0.0
837,209,67.0272,76.2694,156.043,111.848,104.392,-0.00470087,0.0509032,20.9979,1.93171,0.618003,0.0,0.0
840,209.75,66.8731,75.278,156.769,111.767,104.301,-0.0047896,0.0506803,20.9982,1.96174,0.619337,0.0,0.0
843,210.5,65.7677,73.9455,159.582,111.7,104.936,-0.00486657,0.0504762,20.9984,1.98176,0.559542,0.0,0.0
846,211.25,66.096,74.1216,155.697,111.645,105.348,-0.0048997,0.0502877,20.9985,1.94172,0.519987,0.0,0.0
849,212,65.3411,73.5403,157.656,111.609,105.419,-0.00493798,0.0501129,20.9986,1.94172,0.511103,0.0,0.0
852,212.75,65.0142,73.2636,155.563,111.611,105.726,-0.00493224,0.0500053,20.9987,1.88167,0.485201,0.0,0.0
855,213.5,63.9101,71.3518,155.195,111.651,105.14,-0.0049215,0.0499195,20.9987,1.93171,0.538187,0.0,0.0
858,214.25,63.837,71.8559,157.259,111.67,105.938,-0.00490245,0.0498669,20.9988,1.89168,0.471958,0.0,0.0
861,215,63.2609,71.3772,155.255,111.743,104.594,-0.00488679,0.0497507,20.9986,1.96174,0.592231,0.0,0.0
864,215.75,63.0991,70.0307,155.615,111.821,105.065,-0.0048891,0.049635,20.9985,1.90168,0.55823,0.0,0.0
867,216.5,62.4908,70.3516,159.827,111.886,106.136,-0.00491424,0.0495382,20.9986,1.87166,0.472588,0.0,0.0
870,217.25,61.738,69.0798,155.503,111.992,105.75,-0.00496525,0.0494672,20.9991,1.76156,0.513705,0.0,0.0
873,218,62.0071,69.5504,150.465,112.09,105.266,-0.0050583,0.0493855,20.9991,1.86165,0.562635,0.0,0.0
876,218.75,61.8975,68.244,156.403,112.236,105.538,-0.00515624,0.0492761,20.9991,1.76156,0.551181,0.0,0.0
879,219.5,61.5997,68.1741,156.626,112.362,105.704,-0.00522895,0.0491963,20.9992,1.9217,0.5472,0.0,0.0
882,220.25,60.6707,67.5591,158.868,112.502,106.058,-0.00528418,0.0490788,20.9992,1.91169,0.52837,0.0,0.0
885,221,60.172,66.4101,158.415,112.657,106.172,-0.00532091,0.0489793,20.9992,1.84163,0.531049,0.0,0.0
888,221.75,59.5053,65.6859,158.592,112.799,105.77,-0.00535017,0.0489009,20.9992,1.95173,0.576312,0.0,0.0
891,222.5,59.6248,66.3082,156.909,112.946,104.431,-0.00537843,0.0488437,20.9992,1.77157,0.702097,0.0,0.0
894,223.25,59.608,65.7602,153.392,113.087,106.252,-0.0054091,0.048802,20.9992,1.78158,0.55844,0.0,0.0
897,224,59.6808,65.5114,154.169,113.2,105.369,-0.00544144,0.0487716,20.9992,1.88167,0.642112,0.0,0.0
900,224.75,58.9204,64.5792,159.693,113.308,106.905,-0.00546534,0.0487099,20.9992,1.84163,0.521066,0.0,0.0
903,225.5,58.1239,63.8502,158.713,113.421,106.852,-0.00547607,0.0486233,20.9995,1.93171,0.53441,0.0,0.0
906,226.25,57.7725,63.7828,156.413,113.502,107.115,-0.00547278,0.0485286,20.9996,1.96174,0.518732,0.0,0.0
909,227,57.2687,63.4651,152.307,113.58,106.348,-0.00545138,0.0484537,20.9998,1.96174,0.589278,0.0,0.0
912,227.75,57.2342,62.4438,157.984,113.687,106.793,-0.0054287,0.0483805,21.0003,1.84163,0.560348,0.0,0.0
915,228.5,57.1795,62.8695,151.147,113.75,105.766,-0.00541151,0.0483052,21.0009,1.93171,0.651839,0.0,0.0
918,229.25,56.6377,61.9587,153.304,113.812,107.771,-0.00539787,0.0482129,21.0013,1.78158,0.488585,0.0,0.0
921,230,56.2061,61.882,155.294,113.886,107.225,-0.00537729,0.0481872,21.0016,1.95173,0.539867,0.0,0.0
924,230.75,55.8481,61.4602,160.044,113.943,106.486,-0.00535981,0.0481862,21.0018,1.96174,0.606211,0.0,0.0
927,231.5,56.014,60.7045,153.285,113.987,106.25,-0.00534862,0.0481854,21.002,2.05182,0.629589,0.0,0.0
930,232.25,55.9302,60.5532,156.105,114.042,107.652,-0.00534493,0.0481849,21.0021,1.89168,0.51645,0.0,0.0
933,233,55.4345,60.1952,158.271,114.038,107.672,-0.00535218,0.0481845,21.0022,1.84163,0.514536,0.0,0.0
936,233.75,54.8613,59.6143,161.296,114.067,106.84,-0.005363,0.0481842,21.0022,1.83162,0.586341,0.0,0.0
939,234.5,55.1686,59.6607,157.173,114.088,106.492,-0.00537313,0.0481247,21.0018,1.8016,0.61713,0.0,0.0
942,235.25,54.2587,59.1467,158.697,114.081,107.478,-0.0053817,0.0481105,21.0015,1.84163,0.534072,0.0,0.0
945,236,53.9906,59.0602,157.214,114.074,106.791,-0.00539303,0.04815,21.0015,1.95173,0.590894,0.0,0.0
948,236.75,53.9824,58.3828,157.835,114.061,106.332,-0.00540911,0.0482066,21.0015,2.00177,0.62857,0.0,0.0
951,237.5,53.5298,57.7972,155.427,114.049,107.205,-0.00544443,0.0482519,21.0015,1.99176,0.554325,0.0,0.0
954,238.25,53.2885,57.8286,153.813,114.033,107.865,-0.00548892,0.0482717,21.0015,1.98176,0.49814,0.0,0.0
957,239,53.5877,57.3151,156.37,113.977,107.945,-0.00552506,0.0482466,21.0015,1.87166,0.4871,0.0,0.0
960,239.75,53.1413,56.8444,155.516,113.937,106.709,-0.00555141,0.0482284,21.0015,1.9217,0.587039,0.0,0.0
963,240.5,52.9563,56.5818,159.867,113.899,107.117,-0.00551926,0.048215,21.0014,1.93171,0.549945,0.0,0.0
966,241.25,52.487,56.6477,158.105,113.856,107.398,-0.00545982,0.0482053,21.0013,1.91169,0.522985,0.0,0.0
969,242,52.6672,55.9635,153.552,113.795,106.336,-0.00539264,0.0481982,21.0012,1.84163,0.607276,0.0,0.0
972,242.75,51.9581,56.1096,157.514,113.741,108.1,-0.00532914,0.0481654,21.0011,1.87166,0.455591,0.0,0.0
975,243.5,51.8843,55.7299,158.365,113.723,106.583,-0.0053041,0.0481296,21.0006,1.9217,0.580827,0.0,0.0
978,244.25,51.9093,55.0493,153.677,113.66,106.828,-0.00532185,0.0481035,21.0001,1.89168,0.555288,0.0,0.0
981,245,51.297,54.5455,156.192,113.611,107.341,-0.00535014,0.0480845,20.9997,1.94172,0.508533,0.0,0.0
984,245.75,51.2029,53.8932,153.006,113.584,106.963,-0.0054292,0.0480845,20.9998,1.94172,0.538,0.0,0.0
987,246.5,51.0821,54.1778,158.632,113.554,106.553,-0.00548684,0.0480612,21.0001,1.89168,0.569962,0.0,0.0
990,247.25,50.3826,54.3654,157.127,113.64,107.918,-0.0055625,0.0479943,21.0003,1.90168,0.462804,0.0,0.0
993,248,49.8155,53.3352,157.361,113.76,107.503,-0.00562158,0.048001,21.0005,1.88167,0.506677,0.0,0.0
996,248.75,49.479,53.203,156.603,113.888,107.752,-0.00567135,0.0480296,21.0006,1.90168,0.496046,0.0,0.0
999,249.5,50.0498,53.2181,156.01,114.007,107.404,-0.00571118,0.0481492,21.0007,1.9217,0.534397,0.0,0.0
1002,250.25,49.837,53.0234,156.709,114.065,107.372,-0.00573897,0.0482364,21.0003,1.94172,0.541644,0.0,0.0
1005,251,50.0638,53.0611,153.487,114.135,107.137,-0.00576119,0.0482802,20.9998,1.89168,0.566807,0.0,0.0
1008,251.75,49.3665,52.5996,158.424,114.178,107.715,-0.00577844,0.0483121,20.9995,1.90168,0.521895,0.0,0.0
1011,252.5,48.7681,51.9021,157.456,114.222,108.255,-0.00580164,0.0483208,20.9992,1.78158,0.480638,0.0,0.0
1014,253.25,49.1286,51.9491,156.73,114.249,107.377,-0.00582378,0.0483022,20.9991,1.88167,0.55566,0.0,0.0
1017,254,49.7451,51.8328,156.142,114.27,108.139,-0.00584886,0.0483282,20.9989,1.82161,0.494011,0.0,0.0
1020,254.75,48.6462,51.6902,158.724,114.282,107.852,-0.00587777,0.0483471,20.9993,1.95173,0.51875,0.0,0.0
1023,255.5,48.7801,51.2116,157.076,114.267,108.012,-0.0058995,0.0483609,20.9997,1.90168,0.504178,0.0,0.0
1026,256.25,47.4102,50.7271,157.388,114.261,107.375,-0.00591646,0.048371,21,1.87166,0.556773,0.0,0.0
1029,257,48.6606,51.0185,157.984,114.254,107.868,-0.00592882,0.0483367,21.0003,1.8116,0.515155,0.0,0.0
1032,257.75,48.541,50.6215,156.043,114.188,106.506,-0.00593587,0.048294,21.0004,1.87166,0.623794,0.0,0.0
1035,258.5,48.4363,50.8978,157.233,114.159,107.434,-0.00593766,0.0482629,21.0006,1.84163,0.543904,0.0,0.0
1038,259.25,48.0473,50.5567,158.503,114.099,108.081,-0.00592302,0.0482256,21.0006,1.88167,0.485323,0.0,0.0
1041,260,46.8949,49.6222,158.553,114.049,106.361,-0.00591236,0.0481735,21.0007,1.90168,0.625155,0.0,0.0
1044,260.75,46.8846,49.3727,156.14,113.979,107.822,-0.00590104,0.0481553,21.0008,1.8116,0.497459,0.0,0.0
1047,261.5,47.4125,49.8416,155.789,113.884,108.53,-0.00589899,0.0481143,21.0008,1.94172,0.431323,0.0,0.0
1050,262.25,47.2994,49.1569,154.858,113.811,107.19,-0.00590015,0.0480726,21.0008,1.89168,0.536877,0.0,0.0
1053,263,46.7033,49.475,162.666,113.725,107.723,-0.00590139,0.0479829,21.0008,1.90168,0.48569,0.0,0.0
1056,263.75,46.7557,49.3662,157.597,113.589,106.947,-0.00590363,0.0479175,21.0006,1.86165,0.539723,0.0,0.0
1059,264.5,47.4723,48.9867,157.588,113.456,107.209,-0.00590356,0.0479884,21.0006,1.96174,0.507284,0.0,0.0
1062,265.25,46.8187,48.8025,158.873,113.367,108.368,-0.00590596,0.0480401,21.0005,1.94172,0.403918,0.0,0.0
1065,266,46.2228,48.3626,157.68,113.377,105.954,-0.00590877,0.0479834,21.0004,1.86165,0.606476,0.0,0.0
1068,266.75,45.9065,48.4757,156.47,113.397,107.751,,0.0479002,,1.87166,0.457471,0.0,0.0
1071,267.5,46.2832,48.176,157.025,113.434,106.97,,0.0478701,,1.75155,0.525571,0.0,0.0
1074,268.25,46.5705,48.6965,159.345,113.482,106.312,,0.0478353,,1.95173,0.584669,0.0,0.0
1077,269,46.212,48.2617,157.53,113.539,107.934,,0.0477821,,1.84163,0.453481,0.0,0.0
1080,269.75,46.2287,47.9145,155.598,113.56,107.309,,,,1.98176,0.507149,0.0,0.0
1083,270.5,45.3525,47.7806,159.775,113.604,106.001,,,,1.93171,0.62047,0.0,0.0
1086,271.25,45.6539,47.2412,153.673,113.663,108.024,,,,1.96174,0.455836,0.0,0.0
1089,272,45.6844,47.3279,158.362,113.715,107.016,,,,1.90168,0.543857,0.0,0.0
1092,272.75,44.9507,46.9074,159.11,113.752,108.877,,,,1.8116,0.392376,0.0,0.0
1095,273.5,45.0804,46.8711,161.284,113.808,106.625,,,,1.8016,0.583925,0.0,0.0
1098,274.25,45.2173,46.7029,156.572,113.859,106.865,,,,1.75155,0.56786,0.0,0.0
1101,275,45.2066,46.556,158.219,113.915,106.746,,,,1.78158,0.582157,0.0,0.0
1104,275.75,44.7787,46.1967,159.6,113.945,108.381,,,,1.88167,0.448435,0.0,0.0
1107,276.5,44.4597,46.1046,155.95,113.985,107.653,,,,1.88167,0.511974,0.0,0.0
1110,277.25,44.5183,46.4948,157.952,114.021,108.872,,,,1.82161,0.413892,0.0,0.0
1111,277.5,44.8128,46.1596,155.598,114.03,107.92,,,,1.95173,0.493351,0.0,0.0