File: 01_Data/PlasticC/Cone/PlasticC_Cone_HF25Scan_220218_R2.csv
Names,Time,Stack TC,Smoke TC,Exh Press,Smoke Comp,Smoke Meas,CO Meter,CO2 Meter,O2 Meter,Sample Mass,Ext Coeff,Start Test,Flame Verif
Chan Gain,,500,500,1,1,1,1,1,1,1,1,1.0,1.0
Offset,,0,0,0.134285,0,0,0,0,0,0,0,0.0,0.0
Gain,,1,1,25.011,13.3843,12.7012,1,1,1,1.00088,1.02252,1.0,1.0
Units,sec,C,C,Pa,%,%,%,%,%,g,/m,,
Baseline,,15.4065,16.0338,168.798,99.2083,95.68,-0.000279932,0.0425019,21.0257,-0.279161,0.324816,,
4,0.75,12.2238,12.3565,168.955,97.6848,94.0271,-0.000564261,0.0428996,21.0246,897.896,0.342298,0.0,0.0
8,1.75,12.9783,12.6655,169.58,97.6447,94.155,-0.000548014,0.0429682,21.0246,897.756,0.326428,0.0,0.0
12,2.75,12.4935,12.8459,168.826,97.6092,94.1015,-0.000540213,0.0430237,21.0246,897.596,0.32826,0.0,0.0
16,3.75,11.6318,12.4526,169.808,97.5892,94.0414,-0.000535094,0.0430384,21.024,897.376,0.332149,0.0,0.0
20,4.75,12.6026,12.1967,172.606,97.559,94.0907,-0.00052111,0.043102,21.0235,897.476,0.324677,0.0,0.0
24,5.75,12.3676,12.8527,171.111,97.5528,93.7314,-0.000502934,0.0431161,21.0231,897.786,0.358433,0.0,0.0
28,6.75,12.41,12.7746,170.956,97.5116,94.0236,-0.000491259,0.0431175,21.0229,898.036,0.326714,0.0,0.0
32,7.75,12.1023,12.4471,169.359,97.4989,93.9244,-0.000502885,0.043154,21.0234,897.866,0.33502,0.0,0.0
36,8.75,11.9503,13.0776,170.611,97.494,94.1566,-0.000534293,0.0431779,21.0236,897.506,0.312425,0.0,0.0
40,9.75,12.3122,12.9178,165.821,97.4687,94.0252,-0.000577947,0.0431761,21.0238,897.676,0.32262,0.0,0.0
44,10.75,12.6085,12.5429,166.798,97.4666,93.9228,-0.00061615,0.0430913,21.024,897.556,0.3322,0.0,0.0
48,11.75,12.2005,13.1814,171.159,97.4446,93.8755,-0.000618743,0.0429552,21.024,897.896,0.334687,0.0,0.0
52,12.75,12.4877,12.9011,170.087,97.4344,94.1073,-0.000584487,0.0428106,21.0241,897.826,0.311628,0.0,0.0
56,13.75,12.591,12.9083,168.043,97.4258,94.0232,-0.00052128,0.0427742,21.0246,897.876,0.318858,0.0,0.0
60,14.75,12.3916,12.9225,166.519,97.425,93.929,-0.000428122,0.0428064,21.0252,897.736,0.327772,0.0,0.0
64,15.75,12.6544,13.3452,169.684,97.4254,93.9864,-0.000344869,0.0428129,21.0257,897.846,0.322334,0.0,0.0
68,16.75,13.1381,13.3379,165.067,97.4209,93.8965,-0.000285738,0.0427817,21.026,897.696,0.330507,0.0,0.0
72,17.75,12.0406,13.5096,169.472,97.4209,93.8484,-0.000258019,0.0427111,21.0256,898.076,0.3351,0.0,0.0
76,18.75,12.707,13.1295,166.013,97.4303,94.0639,-0.000271294,0.0427399,21.0253,897.766,0.31539,0.0,0.0
80,19.75,12.4735,12.8899,169.217,97.4258,93.9286,-0.000284498,0.0427171,21.0251,897.676,0.327885,0.0,0.0
84,20.75,12.8556,13.2018,174.819,97.4483,93.8829,-0.000290914,0.042608,21.025,897.566,0.334322,0.0,0.0
88,21.75,12.7318,13.4196,164.887,97.4528,93.9887,-0.000292461,0.0425106,21.025,897.556,0.324631,0.0,0.0
92,22.75,13.3335,13.1032,169.174,97.4601,94.0752,-0.000291643,0.0424527,21.0249,897.836,0.317063,0.0,0.0
96,23.75,13.0122,13.4301,171.405,97.4801,94.1101,-0.000286613,0.0423923,21.0249,897.846,0.315579,0.0,0.0
100,24.75,12.6825,13.5639,166.756,97.4924,93.881,-0.000274622,0.0423756,21.0248,897.456,0.338566,0.0,0.0
104,25.75,13.2198,13.4486,167.925,97.5255,93.9155,-0.000256871,0.04237,21.024,897.686,0.338314,0.0,0.0
108,26.75,12.7753,13.2206,168.558,97.5287,93.7965,-0.000245821,0.0422984,21.0239,897.536,0.349987,0.0,0.0
112,27.75,13.117,13.2633,170.09,97.5536,93.9911,-0.000252555,0.042216,21.0241,897.766,0.333691,0.0,0.0
116,28.75,12.6888,13.5535,171.939,97.5802,93.9628,-0.000271726,0.042193,21.0244,897.706,0.338831,0.0,0.0
120,29.75,12.8633,13.3163,170.403,97.6084,93.9317,-0.00028685,0.0422223,21.0246,897.726,0.344383,0.0,0.0
124,30.75,13.136,13.165,175.835,97.621,94.069,-0.000284828,0.0422383,21.0247,897.886,0.332453,0.0,0.0
128,31.75,12.823,13.1402,166.085,97.6549,94.1953,-0.000275457,0.042253,21.0248,897.726,0.323526,0.0,0.0
132,32.75,13.2532,13.5383,174.311,97.6974,93.8899,-0.000235599,0.0422377,21.0249,897.766,0.35656,0.0,0.0
136,33.75,12.8957,13.4721,165.246,97.7166,94.0818,-0.000214022,0.0423027,21.0249,897.576,0.340011,0.0,0.0
140,34.75,13.3543,13.5403,172.384,97.773,94.1457,-0.000219517,0.0423256,21.025,897.636,0.339088,0.0,0.0
144,35.75,13.1888,13.6294,171.95,97.7856,94.1287,-0.000243842,0.0423077,21.025,902.77,0.341875,0.0,0.0
148,36.75,12.6043,13.2005,177.912,97.8281,93.9942,-0.000295759,0.0422736,21.025,903.011,0.358596,0.0,0.0
152,37.75,12.9743,13.6056,169.145,97.8608,94.2554,-0.000356788,0.042265,21.025,901.559,0.336696,0.0,0.0
156,38.75,13.3801,13.2901,169.878,97.9135,94.2814,-0.00039683,0.0422844,21.025,899.007,0.339053,0.0,0.0
160,39.75,13.1863,13.3906,169.393,97.9253,94.2562,-0.000423101,0.042301,21.025,897.746,0.342536,0.0,0.0
164,40.75,13.066,13.3893,172.428,97.9711,94.2953,-0.000448753,0.0422942,21.025,897.446,0.343,0.0,0.0
168,41.75,12.8682,13.9569,167.961,98.0127,94.3097,-0.000469551,0.0423648,21.025,897.496,0.34545,0.0,0.0
172,42.75,13.0703,13.4744,171.465,98.074,94.4023,-0.000495533,0.0424112,21.025,897.666,0.342248,0.0,0.0
176,43.75,12.5777,13.1602,172.23,98.1157,94.3418,-0.000496849,0.0424021,21.025,897.876,0.351805,0.0,0.0
180,44.75,13.3368,13.3291,166.619,98.1618,94.2438,-0.000450519,0.0423496,21.025,897.596,0.365351,0.0,0.0
184,45.75,13.566,13.4044,170.025,98.2117,94.5387,-0.000372308,0.042301,21.025,897.456,0.341874,0.0,0.0
188,46.75,13.4464,13.9023,169.784,98.2435,94.4895,-0.000306836,0.0422297,21.025,897.676,0.349455,0.0,0.0
192,47.75,12.8918,13.7379,166.47,98.2844,94.5574,-0.000238208,0.0421723,21.025,897.956,0.346747,0.0,0.0
196,48.75,13.9028,14.2015,167.624,98.3379,94.4322,-0.000215599,0.0421419,21.0251,897.376,0.363513,0.0,0.0
200,49.75,13.2002,14.1804,166.506,98.3722,94.5473,-0.000223786,0.0421402,21.0253,897.606,0.355714,0.0,0.0
204,50.75,13.4822,14.3205,169.948,98.4098,94.7085,-0.000253059,0.0422137,21.0255,897.696,0.343856,0.0,0.0
208,51.75,13.327,14.1258,162.975,98.4498,94.3996,-0.000271717,0.042247,21.0256,897.736,0.376808,0.0,0.0
212,52.75,13.426,13.9611,170.764,98.5033,94.6721,-0.000266846,0.0422396,21.0257,897.896,0.355829,0.0,0.0
216,53.75,13.5027,13.9844,169.522,98.5564,94.7054,-0.000216251,0.0422386,21.0257,897.676,0.357505,0.0,0.0
220,54.75,13.4387,13.8793,170.436,98.6091,94.8101,-0.000157476,0.0422195,21.0258,897.536,0.352392,0.0,0.0
224,55.75,13.2443,14.3053,169.475,98.6606,94.6694,-0.000110944,0.0421892,21.0258,897.706,0.370393,0.0,0.0
228,56.75,13.7003,14.6497,172.534,98.6941,94.8926,-8.36824e-05,0.0422695,21.0258,897.546,0.35231,0.0,0.0
232,57.75,13.7825,14.6679,173.59,98.7247,94.7698,-7.37645e-05,0.0423472,21.0258,897.776,0.366716,0.0,0.0
236,58.75,13.6938,14.0032,167.815,98.7753,94.8682,-0.000100965,0.0423982,21.0258,897.826,0.362002,0.0,0.0
240,59.75,13.7853,14.1054,169.275,98.8186,94.7872,-0.000161025,0.0424817,21.0258,897.826,0.373596,0.0,0.0
244,60.75,13.6435,14.1831,170.538,98.8664,94.9322,-0.000264421,0.0425759,21.0258,897.706,0.364225,0.0,0.0
248,61.75,13.6689,14.3105,175.112,98.9109,95.0434,-0.000371293,0.0426069,21.0258,897.706,0.357759,0.0,0.0
252,62.75,13.6353,14.2526,166.253,98.9318,94.8504,-0.000449755,0.0425936,21.0258,897.516,0.377882,0.0,0.0
256,63.75,13.4728,13.9591,167.391,98.9628,94.9105,-0.000487043,0.0426349,21.0258,897.626,0.375017,0.0,0.0
260,64.75,13.519,14.3664,167.319,99.02,94.7229,-0.00049919,0.0426871,21.0258,897.666,0.397945,0.0,0.0
264,65.75,13.5403,14.1516,175.119,99.0351,94.7151,-0.000510427,0.0427213,21.0258,897.496,0.400048,0.0,0.0
268,66.75,13.5595,14.2423,170.03,99.0629,95.1442,-0.000540271,0.0427438,21.0258,897.596,0.362021,0.0,0.0
272,67.75,13.9543,14.3002,171.717,99.0939,95.2291,-0.000566594,0.0427357,21.0258,897.686,0.356833,0.0,0.0
276,68.75,13.7572,14.1627,167.188,99.1229,95.2031,-0.000566202,0.0426867,21.0258,897.746,0.361903,0.0,0.0
280,69.75,13.7444,14.2016,174.8,99.1458,95.1248,-0.00053463,0.0426486,21.0258,897.756,0.371353,0.0,0.0
284,70.75,13.809,14.0087,167.588,99.1646,95.1426,-0.000490999,0.0426609,21.0261,897.756,0.371372,0.0,0.0
288,71.75,14.0334,14.7054,169.321,99.1899,95.1469,-0.000452534,0.0426983,21.0255,897.776,0.37326,0.0,0.0
292,72.75,13.4962,14.2538,167.804,99.1952,95.2915,-0.000405714,0.0427051,21.0249,897.706,0.360121,0.0,0.0
296,73.75,13.8829,13.8539,164.002,99.223,95.0593,-0.000367912,0.0427103,21.0245,897.596,0.384513,0.0,0.0
300,74.75,13.8994,14.4724,174.024,99.2357,95.0643,-0.000328807,0.0426986,21.0247,897.656,0.385181,0.0,0.0
304,75.75,13.4727,14.7468,169.571,99.243,94.6411,-0.000303358,0.0426729,21.0252,897.806,0.425872,0.0,0.0
308,76.75,13.8226,14.5236,167.286,99.2602,94.7903,-0.000310636,0.0426383,21.0255,897.646,0.41329,0.0,0.0
312,77.75,13.8901,15.0146,166.611,99.27,94.8089,-0.000341083,0.0424905,21.0257,897.636,0.412416,0.0,0.0
316,78.75,13.8022,14.6754,174.227,99.2773,95.0202,-0.000361302,0.0424435,21.0259,897.886,0.393117,0.0,0.0
320,79.75,14.2143,14.4536,169.999,99.2839,95.2318,-0.00037052,0.0423877,21.0259,897.776,0.373753,0.0,0.0
324,80.75,14.3149,14.938,170.209,99.2986,95.2392,-0.000337608,0.0423761,21.0258,897.516,0.374387,0.0,0.0
328,81.75,14.1962,14.9077,172.02,99.3039,95.1485,-0.000300222,0.0423685,21.0256,897.506,0.383413,0.0,0.0
332,82.75,14.4677,14.7785,169.277,99.2961,94.8601,-0.000293743,0.0422835,21.0255,897.696,0.409938,0.0,0.0
336,83.75,14.1282,14.3415,173.033,99.3076,95.0531,-0.000321296,0.0422062,21.0254,897.826,0.392738,0.0,0.0
340,84.75,14.1225,15.0701,167.865,99.3043,94.7643,-0.000367769,0.0422055,21.0254,897.896,0.419734,0.0,0.0
344,85.75,14.2692,14.7171,169.135,99.3194,94.8143,-0.000402206,0.0422551,21.0253,897.866,0.416366,0.0,0.0
348,86.75,14.3121,14.7433,168.038,99.3067,94.881,-0.000413215,0.0422627,21.0253,897.616,0.408919,0.0,0.0
352,87.75,13.949,14.8876,172.083,99.2949,94.9779,-0.000384848,0.0422176,21.0245,897.566,0.398693,0.0,0.0
356,88.75,14.2249,15.043,166.836,99.2986,94.993,-0.000345517,0.042188,21.024,897.556,0.397597,0.0,0.0
360,89.75,14.0232,15.0806,169.962,99.3018,94.7252,-0.000313027,0.0421291,21.0236,897.726,0.423218,0.0,0.0
364,90.75,14.243,15.2362,166.452,99.2855,94.4818,-0.000308626,0.0421075,21.0236,897.586,0.444821,0.0,0.0
368,91.75,13.7301,14.8669,168.856,99.2945,94.8384,-0.000320492,0.0421296,21.0237,897.326,0.411843,0.0,0.0
372,92.75,14.5935,15.1099,165.567,99.2745,94.755,-0.000357357,0.0421557,21.0237,897.616,0.417919,0.0,0.0
376,93.75,14.2336,14.9634,171.921,99.2679,94.9457,-0.000388214,0.04217,21.0245,897.906,0.399296,0.0,0.0
380,94.75,14.1346,15.1157,168.114,99.2549,94.7341,-0.000436793,0.0422332,21.0247,897.566,0.41813,0.0,0.0
384,95.75,14.1405,15.1809,167.744,99.2541,95.0012,-0.000476289,0.0422247,21.0245,897.476,0.392806,0.0,0.0
388,96.75,14.2589,14.9886,167.939,99.2328,94.6632,-0.000493346,0.0421638,21.0244,897.716,0.422855,0.0,0.0
392,97.75,13.8911,14.9302,169.148,99.2218,94.3907,-0.000500385,0.042079,21.0243,897.516,0.447714,0.0,0.0
396,98.75,14.4679,15.062,164.386,99.2067,94.2403,-0.000502757,0.0420484,21.0242,896.995,0.460651,0.0,0.0
400,99.75,14.1145,14.9463,166.625,99.1924,94.5256,-0.000490178,0.0419532,21.0242,897.606,0.432247,0.0,0.0
404,100.75,14.3396,14.9734,167.054,99.172,94.2364,-0.000470864,0.0418658,21.0242,897.706,0.457879,0.0,0.0
408,101.75,13.9534,14.4211,168.589,99.1593,94.2318,-0.000428041,0.0418334,21.024,897.646,0.457177,0.0,0.0
412,102.75,14.2927,15.2995,167.255,99.1474,93.7767,-0.00038298,0.0418372,21.0238,897.596,0.499525,0.0,0.0
416,103.75,14.5318,15.0131,170.805,99.1213,94.3713,-0.000354575,0.0418804,21.024,897.686,0.440468,0.0,0.0
420,104.75,14.6668,14.9851,167.524,99.1021,94.4259,-0.000349288,0.0419417,21.0246,897.686,0.433539,0.0,0.0
424,105.75,14.1123,14.3759,169.105,99.0821,94.1426,-0.00036155,0.0419819,21.0245,897.806,0.458681,0.0,0.0
428,106.75,14.2577,15.0041,168.761,99.067,94.3337,-0.000383554,0.0420083,21.0241,897.546,0.439125,0.0,0.0
432,107.75,14.6095,14.4663,172.901,99.0441,94.3903,-0.000406077,0.0420256,21.0238,897.786,0.431675,0.0,0.0
436,108.75,14.1471,15.3414,170.025,99.0396,93.76,-0.000433604,0.0419869,21.0236,897.796,0.491358,0.0,0.0
440,109.75,13.558,14.7707,169,99.0212,94.1728,-0.000451664,0.0419866,21.0235,897.696,0.450291,0.0,0.0
444,110.75,14.695,15.1215,171.033,98.9922,94.0507,-0.000443347,0.0419272,21.0234,897.686,0.4593,0.0,0.0
448,111.75,13.904,14.9261,168.641,98.9845,94.2104,-0.000395388,0.0418999,21.0235,897.566,0.443379,0.0,0.0
452,112.75,14.5203,15.1509,162.633,98.96,93.8306,-0.00031353,0.0419183,21.0237,897.706,0.477397,0.0,0.0
456,113.75,14.644,15.1405,170.656,98.9547,94.0166,-0.00022455,0.0419492,21.0239,897.716,0.459147,0.0,0.0
460,114.75,14.65,15.1054,170.727,98.9383,94.2399,-0.000164075,0.0419883,21.024,897.356,0.436392,0.0,0.0
464,115.75,14.7245,15.3429,168.705,98.9359,94.0411,-0.000145356,0.0419639,21.024,897.125,0.455115,0.0,0.0
468,116.75,14.2207,15.3403,168.913,98.922,93.9895,-0.000156982,0.0419478,21.0241,897.506,0.458775,0.0,0.0
472,117.75,14.4478,15.0282,169.087,98.8975,93.736,-0.000175235,0.0420124,21.0242,897.506,0.480776,0.0,0.0
476,118.75,14.737,15.3401,167.488,98.8828,93.5565,-0.000165817,0.042035,21.0242,897.636,0.496631,0.0,0.0
480,119.75,14.4078,14.9805,168.297,98.8509,93.7934,-0.000120853,0.0420446,21.0243,897.546,0.471064,0.0,0.0
484,120.75,14.5003,14.8019,168.955,98.8448,93.7868,-5.01238e-05,0.0420258,21.0244,897.486,0.471139,0.0,0.0
488,121.75,14.7251,15.2384,166.143,98.8423,93.4705,1.33854e-05,0.0420161,21.0244,897.546,0.501216,0.0,0.0
492,122.75,14.4172,15.2092,166.594,98.8113,93.831,6.21432e-05,0.0420071,21.0249,897.606,0.463874,0.0,0.0
496,123.75,14.5162,15.5122,165.42,98.788,93.4546,7.65481e-05,0.0420763,21.0251,897.706,0.49781,0.0,0.0
500,124.75,14.4686,15.8254,168.213,98.7582,94.1194,5.59569e-05,0.0420941,21.0249,897.546,0.431528,0.0,0.0
504,125.75,14.7514,15.1596,166.527,98.7337,93.6941,1.45253e-05,0.0420542,21.0252,897.476,0.469915,0.0,0.0
508,126.75,14.3869,15.8138,172.818,98.7141,93.2747,-2.54574e-05,0.0419571,21.0258,897.476,0.508373,0.0,0.0
512,127.75,14.7003,15.649,167.936,98.7006,93.3108,-5.0054e-05,0.0419006,21.0257,897.666,0.503683,0.0,0.0
516,128.75,14.6369,15.6434,168.198,98.672,93.2682,-6.7722e-05,0.0418813,21.0253,897.406,0.505183,0.0,0.0
520,129.75,14.5473,15.3529,165.511,98.6405,93.4317,-8.00184e-05,0.0418832,21.025,897.456,0.486607,0.0,0.0
524,130.75,14.6142,15.6497,169.292,98.6132,93.5116,-8.48988e-05,0.0419199,21.0248,897.496,0.476456,0.0,0.0
528,131.75,14.6635,15.4645,170.492,98.574,93.5938,-6.11334e-05,0.0421944,21.0247,897.476,0.46501,0.0,0.0
532,132.75,14.3902,15.8399,168.039,98.5646,93.1228,-1.63218e-05,0.0428678,21.0233,897.506,0.509402,0.0,0.0
536,133.75,15.0964,15.5653,162.835,98.5536,93.1639,3.2938e-05,0.0440547,21.0213,897.606,0.504442,0.0,0.0
540,134.75,14.92,15.5549,169.9,98.5294,93.8042,0.000160034,0.0452971,21.0162,897.696,0.44081,0.0,0.0
544,135.75,15.0524,15.596,166.252,98.5147,92.655,0.000330451,0.0476019,21.011,897.316,0.550043,0.0,0.0
548,136.75,14.1966,15.6264,167.765,98.5013,93.5841,0.000848989,0.0502544,20.9912,897.095,0.459321,0.0,1.0
552,137.75,15.2892,15.647,163.971,98.4857,89.1242,0.00133117,0.0585675,20.9653,897.526,0.895878,0.0,1.0
556,138.75,15.0346,15.9313,156.833,98.4747,76.454,0.00237968,0.0761269,20.9256,897.506,2.27027,0.0,1.0
560,139.75,15.5135,16.2364,162.558,98.5294,74.9745,0.00331326,0.105235,20.8832,897.386,2.45053,0.0,1.0
564,140.75,15.6419,16.4209,152.769,98.6132,68.7829,0.0050132,0.12871,20.8238,897.286,3.23126,0.0,1.0
568,141.75,15.8489,16.8906,158.46,98.6765,69.8686,0.00686204,0.162119,20.7626,897.436,3.09655,0.0,1.0
572,142.75,16.4999,17.4195,148.287,98.7337,59.3477,0.00893552,0.195455,20.6963,897.145,4.56559,0.0,0.0
576,143.75,17.7633,19.0026,142.896,98.8219,55.0813,0.011116,0.242951,20.6231,897.065,5.24275,0.0,0.0
580,144.75,17.32,18.9625,143.17,98.882,56.029,0.0134476,0.28741,20.5302,896.525,5.09519,0.0,0.0
584,145.75,19.1151,21.2693,136.24,98.922,56.1204,0.0156804,0.341444,20.4404,896.745,5.08419,0.0,0.0
588,146.75,19.8576,22.1118,147.4,98.9734,54.2572,0.0177834,0.387793,20.3583,896.615,5.3917,0.0,0.0
592,147.75,21.2007,23.62,142.895,99,55.3247,0.0197908,0.434139,20.2772,896.605,5.21935,0.0,0.0
596,148.75,22.0227,24.3017,144.189,99.027,47.5202,0.0215683,0.478821,20.1928,896.055,6.58574,0.0,0.0
600,149.75,23.7727,26.1336,128.698,99.0756,46.729,0.0234512,0.527991,20.1184,896.315,6.74072,0.0,0.0
604,150.75,24.4431,27.7604,131.018,99.1074,46.4069,0.0248741,0.571731,20.0702,896.055,6.80565,0.0,0.0
608,151.75,26.1927,29.7345,137.735,99.1511,40.9835,0.0265751,0.616304,20.0096,895.734,7.92432,0.0,0.0
612,152.75,26.763,30.8359,126.087,99.1756,41.2242,0.0280068,0.656288,19.9617,895.484,7.87401,0.0,0.0
616,153.75,27.692,32.1843,128.487,99.1924,45.2771,0.0291517,0.682975,19.9297,895.614,7.03442,0.0,0.0
620,154.75,30.1479,34.7748,143.718,99.2177,48.2717,0.0302641,0.7089,19.9007,895.574,6.46225,0.0,0.0
624,155.75,31.0954,36.1859,146.669,99.2357,48.8993,0.0312994,0.725269,19.8793,895.414,6.34802,0.0,0.0
628,156.75,31.4934,37.0672,136.001,99.2557,36.4454,0.0324695,0.739631,19.8564,895.194,8.98639,0.0,0.0
632,157.75,33.0796,38.4486,129.993,99.2594,39.3815,0.033713,0.759975,19.824,895.194,8.29175,0.0,0.0
636,158.75,33.8764,39.7659,136.838,99.2806,38.0299,0.0348958,0.785191,19.7781,894.493,8.60691,0.0,0.0
640,159.75,35.1447,41.0513,124.059,99.2753,37.4202,0.0359347,0.812646,19.7345,894.703,8.7514,0.0,0.0
644,160.75,36.6241,43.2702,142.799,99.2908,42.8471,0.0368231,0.839086,19.7021,894.543,7.53808,0.0,0.0
648,161.75,37.9195,44.8417,129.673,99.2929,36.7512,0.0376402,0.860822,19.6801,894.393,8.9148,0.0,0.0
652,162.75,39.0916,46.2841,131.077,99.2769,42.7173,0.0382281,0.876678,19.6644,894.243,7.56405,0.0,0.0
656,163.75,40.2515,47.535,127.616,99.2733,39.8331,0.03913,0.888806,19.6557,893.953,8.19074,0.0,0.0
660,164.75,41.2064,48.8159,133.61,99.27,38.9947,0.0405453,0.901798,19.6462,894.003,8.38125,0.0,0.0
664,165.75,42.0772,50.2196,135.673,99.2622,33.3433,0.041706,0.917352,19.6312,893.582,9.78488,0.0,0.0
668,166.75,42.9305,51.31,118.169,99.263,34.1573,0.0432851,0.944705,19.5772,893.312,9.56862,0.0,0.0
672,167.75,44.419,53.4301,131.394,99.2581,37.2857,0.0447222,0.973687,19.5274,893.282,8.78215,0.0,0.0
676,168.75,45.5177,54.509,119.131,99.2438,34.7949,0.0458425,0.993823,19.4859,893.012,9.40099,0.0,0.0
680,169.75,46.7766,56.3868,125.916,99.23,33.7232,0.0465973,1.01909,19.4563,893.122,9.68035,0.0,0.0
684,170.75,47.7657,57.4822,123.735,99.2206,38.0815,0.0470881,1.04174,19.4333,892.762,8.58933,0.0,0.0
688,171.75,49.255,59.7076,122.225,99.2046,38.4524,0.0474764,1.05852,19.4187,892.531,8.50095,0.0,0.0
692,172.75,50.2774,60.7892,128.364,99.1973,38.3071,0.0483488,1.07008,19.404,892.131,8.53425,0.0,0.0
696,173.75,51.6493,62.1573,133.191,99.1842,34.4186,0.0502134,1.08085,19.374,892.161,9.49315,0.0,0.0
700,174.75,52.3032,63.4411,116.509,99.1797,30.2626,0.051549,1.09195,19.3488,892.081,10.647,0.0,0.0
704,175.75,53.3942,64.3453,127.561,99.1568,30.0347,0.0538132,1.11741,19.2871,891.871,10.7127,0.0,0.0
708,176.75,54.4214,65.8488,114.705,99.1499,30.825,0.0559535,1.1665,19.2161,891.44,10.4791,0.0,0.0
712,177.75,56.5077,68.5378,109.75,99.1168,32.201,0.0580073,1.19315,19.166,891.23,10.0844,0.0,0.0
716,178.75,57.7498,70.0674,115.426,99.0939,29.7141,0.0597691,1.22622,19.1232,891.26,10.8033,0.0,0.0
720,179.75,59.037,71.7615,119.283,99.0719,29.4851,0.0611107,1.25398,19.088,890.71,10.8707,0.0,0.0
724,180.75,59.5588,72.7614,119.122,99.0478,31.9995,0.0620633,1.27576,19.0625,890.63,10.1345,0.0,0.0
728,181.75,61.2371,74.7096,123.553,99.0388,29.5351,0.0627176,1.29238,19.039,890.34,10.8525,0.0,0.0
732,182.75,62.9722,76.5106,113.987,99.0384,27.9494,0.063187,1.30608,19.0131,890.289,11.3474,0.0,0.0
736,183.75,63.8026,77.8432,114.289,98.9947,30.7475,0.0635044,1.32438,18.9818,889.819,10.4876,0.0,0.0
740,184.75,65.1012,79.4368,109.04,98.9636,30.8979,0.0638191,1.34554,18.9614,889.619,10.4411,0.0,0.0
744,185.75,66.7694,81.6447,115.256,98.9252,29.1455,0.0641333,1.36425,18.9479,889.549,10.9613,0.0,0.0
748,186.75,67.6399,82.8897,125.379,98.9036,29.8107,0.0648077,1.37527,18.9368,888.858,10.7569,0.0,0.0
752,187.75,69.0629,84.7955,129.183,98.8652,30.8766,0.0655547,1.3808,18.9319,888.918,10.4383,0.0,0.0
756,188.75,70.1234,85.8369,122.354,98.8501,31.1917,0.066794,1.38333,18.9274,889.038,10.3459,0.0,0.0
760,189.75,70.5582,86.8659,109.64,98.819,21.6972,0.0680827,1.40543,18.8654,888.538,13.5987,0.0,0.0
764,190.75,71.5423,88.1328,111.93,98.8092,28.2075,0.0691764,1.43385,18.8197,888.508,11.2442,0.0,0.0
768,191.75,73.5442,90.2608,120.261,98.7655,26.4354,0.0702792,1.465,18.7821,887.917,11.8222,0.0,0.0
772,192.75,74.9027,91.6886,127.198,98.7337,31.0867,0.0712905,1.48949,18.7545,887.817,10.3656,0.0,0.0
776,193.75,76.0111,93.3609,110.853,98.7002,24.6024,0.0725452,1.51255,18.7201,887.447,12.4608,0.0,0.0
780,194.75,76.8981,94.5641,113.111,98.6912,25.9311,0.0739572,1.53754,18.6697,886.987,11.9882,0.0,0.0
784,195.75,77.7693,96.0779,114.481,98.6875,22.7728,0.075427,1.56904,18.6198,887.027,13.1528,0.0,0.0
788,196.75,79.5272,98.3238,106.306,98.6855,26.573,0.0770574,1.59796,18.5762,886.886,11.7684,0.0,0.0
792,197.75,80.7367,100.169,111.982,98.6994,24.3799,0.0783898,1.62956,18.5292,886.636,12.5422,0.0,0.0
796,198.75,82.1291,101.416,122.177,98.7194,22.2391,0.0796954,1.66075,18.4984,886.236,13.3684,0.0,0.0
800,199.75,83.4881,103.124,107.976,98.7104,21.3367,0.0805424,1.68865,18.4781,885.916,13.7391,0.0,0.0
804,200.75,84.5455,104.854,102.939,98.7214,25.514,0.0810181,1.7072,18.4675,885.435,12.1364,0.0,0.0
808,201.75,86.388,106.945,113.564,98.7312,24.0942,0.081251,1.71668,18.4636,885.695,12.6508,0.0,0.0
812,202.75,86.9706,107.996,118.307,98.7431,24.7954,0.0813759,1.71931,18.4622,884.985,12.3946,0.0,0.0
816,203.75,88.2588,109.064,124.598,98.7312,23.2597,0.0815645,1.7198,18.4616,884.905,12.967,0.0,0.0
820,204.75,88.9803,110.373,115.102,98.7512,25.0942,0.0817179,1.7198,18.4612,884.484,12.2879,0.0,0.0
824,205.75,89.8899,111.472,116.237,98.77,22.9465,0.0825621,1.7216,18.461,884.374,13.0921,0.0,0.0
828,206.75,91.2557,112.997,119.597,98.7406,26.1679,0.0837622,1.72634,18.4456,884.214,11.9111,0.0,0.0
832,207.75,92.0339,114.246,106.828,98.7406,22.6279,0.084983,1.74356,18.4025,883.974,13.2149,0.0,0.0
836,208.75,93.1654,115.181,116.289,98.7447,26.4985,0.086021,1.7661,18.3642,883.424,11.7989,0.0,0.0
840,209.75,94.5615,116.96,113.597,98.7423,28.5785,0.0867056,1.79058,18.3326,883.063,11.1209,0.0,0.0
844,210.75,95.8178,118.909,109.778,98.7406,23.6674,0.0870608,1.81196,18.3071,882.983,12.812,0.0,0.0
848,211.75,96.5229,119.555,120.411,98.7427,25.1776,0.0872153,1.82789,18.2876,882.613,12.2574,0.0,0.0
852,212.75,97.0159,120.544,98.7058,98.7398,23.2376,0.0872486,1.84174,18.2735,882.503,12.9763,0.0,0.0
856,213.75,99.2087,122.792,111.955,98.7525,22.1794,0.087553,1.85249,18.2621,882.062,13.3955,0.0,0.0
860,214.75,100.05,124.066,107.619,98.7566,25.7795,0.088236,1.86455,18.2465,882.012,12.0467,0.0,0.0
864,215.75,100.667,124.824,109.766,98.7504,20.1309,0.0891172,1.87971,18.2264,881.842,14.2645,0.0,0.0
868,216.75,101.887,126.695,108.139,98.7615,21.3131,0.0900992,1.8971,18.2042,881.352,13.7537,0.0,0.0
872,217.75,103.358,127.822,100.828,98.7598,22.1461,0.0908099,1.91474,18.1896,880.931,13.4097,0.0,0.0
876,218.75,104.225,129.174,119.227,98.7488,25.7679,0.091226,1.926,18.18,880.571,12.0501,0.0,0.0
880,219.75,105.5,130.946,110.826,98.7521,22.179,0.0908218,1.92598,18.1898,880.381,13.3956,0.0,0.0
884,220.75,105.974,131.416,104.959,98.7467,25.1225,0.0899266,1.91875,18.2107,879.99,12.2774,0.0,0.0
888,221.75,107.134,132.267,108.384,98.7459,26.4912,0.0886748,1.90509,18.2385,880.021,11.8015,0.0,0.0
892,222.75,107.488,133.18,109.34,98.7337,25.4753,0.0874892,1.89022,18.2594,879.4,12.1511,0.0,0.0
896,223.75,107.47,133.668,108.789,98.7451,25.7586,0.0867178,1.87421,18.2731,879.16,12.053,0.0,0.0
900,224.75,108.873,135.235,115.805,98.7414,26.4807,0.0865921,1.86221,18.2755,879.04,11.8046,0.0,0.0
904,225.75,109.697,135.226,104.188,98.7406,21.9135,0.0868251,1.8643,18.2717,878.739,13.5026,0.0,0.0
908,226.75,109.745,136.253,98.0082,98.7435,22.3736,0.0879207,1.87575,18.2355,878.679,13.3165,0.0,0.0
912,227.75,110.92,137.778,109.998,98.7361,21.7972,0.0890629,1.89263,18.2115,878.419,13.5499,0.0,0.0
916,228.75,111.683,138.99,111.514,98.7423,22.4659,0.0899011,1.91058,18.1957,878.179,13.2795,0.0,0.0
920,229.75,113.106,140.072,105.678,98.7472,22.4515,0.0902438,1.92081,18.1873,877.829,13.2856,0.0,0.0
924,230.75,114.135,140.749,103.752,98.7222,23.8279,0.0901767,1.92393,18.1936,877.658,12.7497,0.0,0.0
928,231.75,114.878,141.773,99.1767,98.7276,22.9639,0.0898741,1.92001,18.1993,877.258,13.0815,0.0,0.0
932,232.75,115.043,142.444,112.67,98.7133,22.0592,0.0895942,1.9104,18.2142,877.068,13.4407,0.0,0.0
936,233.75,115.626,143.343,107.72,98.7149,21.4817,0.0888087,1.89475,18.2327,876.788,13.6788,0.0,0.0
940,234.75,116.338,143.947,115.611,98.703,26.9575,0.0879456,1.8829,18.2608,876.557,11.6411,0.0,0.0
944,235.75,117.136,144.508,111.468,98.6953,26.3396,0.0873028,1.86511,18.2865,876.307,11.8484,0.0,0.0
948,236.75,116.733,144.926,117.056,98.6896,25.2144,0.0868918,1.84866,18.3034,876.077,12.2394,0.0,0.0
952,237.75,117.617,144.989,117.182,98.6928,25.4408,0.0866107,1.84117,18.3147,875.837,12.1596,0.0,0.0
956,238.75,117.714,145.42,99.566,98.7104,24.8927,0.0862056,1.83977,18.3221,875.487,12.3565,0.0,0.0
960,239.75,119.05,146.672,106.018,98.7394,23.2225,0.0857856,1.84385,18.3269,875.296,12.9821,0.0,0.0
964,240.75,119.839,147.686,117.587,98.7431,23.5492,0.0846273,1.841,18.3434,874.816,12.8571,0.0,0.0
968,241.75,120.491,148.339,117.667,98.7847,25.9749,0.0830625,1.82718,18.3774,874.796,11.9816,0.0,0.0
972,242.75,120.029,148.415,105.863,98.7986,29.2614,0.0814786,1.80435,18.416,874.636,10.9142,0.0,0.0
976,243.75,120.369,148.942,121.532,98.828,28.6715,0.0800138,1.77851,18.4641,874.125,11.0995,0.0,0.0
980,244.75,121.346,149.214,116.653,98.8317,26.6171,0.0789246,1.75224,18.5098,873.975,11.7667,0.0,0.0
984,245.75,121.39,149.155,122.92,98.8476,27.8777,0.0782937,1.72671,18.5428,873.795,11.3532,0.0,0.0
988,246.75,120.316,148.355,114.931,98.8607,26.2892,0.0780197,1.70548,18.5648,873.575,11.8806,0.0,0.0
992,247.75,121.355,149.21,117.709,98.9036,23.9609,0.0781167,1.68832,18.5816,873.345,12.7163,0.0,0.0
996,248.75,121.361,149.229,109.463,98.9077,23.5694,0.0783184,1.67468,18.5963,873.215,12.8644,0.0,0.0
1000,249.75,121.124,148.66,118.317,98.922,22.3724,0.0781655,1.663,18.6075,872.704,13.3332,0.0,0.0
1004,250.75,121.514,149.091,111.788,98.9367,26.1361,0.0773579,1.65267,18.6206,872.704,11.9398,0.0,0.0
1008,251.75,121.519,149.273,109.491,98.9571,23.9612,0.0751574,1.63945,18.6542,872.534,12.721,0.0,0.0
1012,252.75,121.648,149.271,117.107,98.989,30.6246,0.073709,1.62097,18.7118,871.723,10.523,0.0,0.0
1016,253.75,122.073,149.507,128.412,99.0155,38.104,0.0721679,1.58879,18.7733,871.613,8.56549,0.0,0.0
1020,254.75,121.724,148.245,119.101,99.0363,34.986,0.070695,1.55134,18.8136,871.303,9.33309,0.0,0.0
1024,255.75,121.186,147.804,108.68,99.0519,26.4489,0.0697992,1.52125,18.84,871.493,11.8436,0.0,0.0
1028,256.75,120.541,147.19,111.752,99.0694,27.9575,0.0692314,1.5094,18.8589,871.013,11.3476,0.0,0.0
1032,257.75,120.588,147.163,112.662,99.0894,26.0764,0.0686822,1.50593,18.8748,870.872,11.9742,0.0,0.0
1036,258.75,120.585,147.075,115.143,99.1095,28.642,0.0679649,1.50481,18.8866,870.762,11.1343,0.0,0.0
1040,259.75,120.583,147.301,119.445,99.1385,29.8452,0.0668232,1.49303,18.9092,870.522,10.7678,0.0,0.0
1044,260.75,120.82,147.014,121.179,99.154,35.7132,0.065632,1.46903,18.952,870.532,9.15923,0.0,0.0
1048,261.75,120.019,145.884,123.438,99.1703,31.4072,0.0640263,1.44028,18.9964,870.212,10.3131,0.0,0.0
1052,262.75,120.289,145.645,125.51,99.1891,31.3347,0.0623684,1.41025,19.0363,870.082,10.3355,0.0,0.0
1056,263.75,119.68,144.545,117.327,99.2075,29.5258,0.0605505,1.3835,19.0737,869.882,10.8706,0.0,0.0
1060,264.75,119.768,144.135,126.405,99.2206,32.5859,0.0587152,1.3541,19.1216,869.581,9.9872,0.0,0.0
1064,265.75,119.02,143.669,121.25,99.2181,35.5295,0.0566726,1.32304,19.1934,869.471,9.21129,0.0,0.0
1068,266.75,119.177,143.382,126.513,99.2438,35.5802,0.0545605,1.28306,19.2677,869.021,9.20081,0.0,0.0
1072,267.75,118.791,142.317,133.678,99.2447,36.4915,0.0526937,1.23628,19.3364,869.321,8.97405,0.0,0.0
1076,268.75,116.85,141.287,127.838,99.2492,36.3171,0.0506843,1.1891,19.4007,869.131,9.01743,0.0,0.0
1080,269.75,116.708,140.522,124.217,99.2553,38.1617,0.0484845,1.14812,19.4672,868.51,8.57359,0.0,0.0
1084,270.75,115.217,138.884,142.459,99.2671,45.6802,0.045973,1.10349,19.54,868.731,6.96167,0.0,0.0
1088,271.75,114.86,137.961,136.857,99.2643,35.9004,0.0435277,1.05406,19.626,868.62,9.1223,0.0,0.0
1092,272.75,113.488,136.528,138.942,99.2733,34.8042,0.0413373,1.00655,19.7121,868.51,9.40125,0.0,0.0
1096,273.75,113.287,135.391,140.075,99.2724,38.1954,0.0389058,0.956519,19.8039,868.51,8.56722,0.0,0.0
1100,274.75,111.838,133.906,136.644,99.27,44.453,0.0361079,0.904581,19.885,868.41,7.20618,0.0,0.0
1104,275.75,110.4,131.957,149.924,99.2696,47.5888,0.0330585,0.849013,19.9781,867.97,6.59475,0.0,0.0
1108,276.75,109.621,130.588,149.11,99.272,59.5919,0.0299465,0.793923,20.0805,868.19,4.57753,0.0,0.0
1112,277.75,107.665,128.439,149.363,99.2773,63.6974,0.027107,0.737181,20.166,867.75,3.98042,0.0,0.0
1116,278.75,106.324,126.474,148.454,99.2643,58.5015,0.024788,0.673622,20.2517,867.91,4.74246,0.0,0.0
1120,279.75,104.835,124.797,151.885,99.2418,65.3878,0.0220141,0.615328,20.3279,867.99,3.74228,0.0,0.0
1124,280.75,103.979,122.87,153.113,99.2492,69.8019,0.0196173,0.560711,20.3999,868.04,3.15701,0.0,0.0
1128,281.75,101.932,119.756,155.202,99.2402,77.1959,0.0173942,0.510908,20.4662,868.11,2.2531,0.0,0.0
1132,282.75,100.169,118.524,159.374,99.2246,82.893,0.0153742,0.462087,20.5319,868.07,1.61303,0.0,0.0
1136,283.75,99.675,116.58,156.534,99.2018,84.8768,0.0134843,0.418272,20.6071,868.07,1.39884,0.0,0.0
1140,284.75,97.9926,115.081,162.991,99.1977,88.6075,0.0116969,0.374549,20.6749,868.13,1.01263,0.0,0.0
1144,285.75,95.4204,112.052,159.28,99.1769,92.4065,0.010224,0.334126,20.7365,868.28,0.634208,0.0,0.0
1148,286.75,94.042,110.581,159.417,99.1417,93.8589,0.00879272,0.29558,20.7915,868.01,0.491152,0.0,0.0
1152,287.75,92.185,108.434,160.966,99.1336,93.9837,0.0075324,0.262832,20.8367,867.92,0.478493,0.0,0.0
1156,288.75,90.9324,106.455,161.217,99.1115,93.4953,0.00649457,0.232991,20.8704,867.97,0.523229,0.0,0.0
1160,289.75,89.3922,104.013,161.925,99.098,93.5686,0.00557422,0.206981,20.8981,868,0.514984,0.0,0.0
1164,290.75,88.0612,102.205,161.22,99.0743,94.4387,0.00476396,0.186092,20.9215,868.02,0.429808,0.0,0.0
1168,291.75,86.7739,100.4,161.755,99.067,94.1019,0.00410233,0.168969,20.94,867.97,0.461191,0.0,0.0
1172,292.75,84.9055,98.2353,159.076,99.0535,94.2589,0.00355176,0.153986,20.9553,868,0.44502,0.0,0.0
1176,293.75,83.8306,96.624,159.023,99.0339,94.0046,0.00308372,0.141448,20.9678,867.97,0.467474,0.0,0.0
1180,294.75,82.476,94.9347,164.348,99.0106,94.3073,0.00270896,0.130241,20.9768,868.13,0.436527,0.0,0.0
1184,295.75,81.4947,93.9141,159.755,98.9873,93.8221,0.00233153,0.121521,20.984,867.9,0.480691,0.0,0.0
1188,296.75,80.3814,92.2282,159.849,98.9714,94.0616,0.00201369,0.113727,20.9899,867.89,0.456378,0.0,0.0
1192,297.75,79.3821,90.5266,167.396,98.9665,94.2546,0.00175167,0.107286,20.995,867.98,0.437545,0.0,0.0
1196,298.75,78.1494,88.8948,164.031,98.9416,94.1426,0.00152262,0.101802,20.9986,867.49,0.445952,0.0,0.0
1200,299.75,77.1068,87.7763,164.347,98.9142,94.2124,0.00132968,0.0967163,21.0013,867.75,0.436826,0.0,0.0
1204,300.75,75.8202,85.9286,158.857,98.8885,94.7198,0.0011634,0.092242,21.0036,867.89,0.386317,0.0,0.0
1208,301.75,74.8574,84.7233,161.421,98.8754,94.2298,0.0010191,0.0886028,21.0054,868.1,0.431647,0.0,0.0
1212,302.75,73.0271,83.2326,163.018,98.8746,93.8062,0.000908687,0.085045,21.0066,868.32,0.47199,0.0,0.0
1216,303.75,72.3978,81.7161,161.103,98.8734,94.5031,0.000796552,0.0820111,21.007,868.07,0.405487,0.0,0.0
1220,304.75,71.3935,80.8152,159.922,98.853,94.279,0.000720438,0.0798323,21.0081,867.95,0.424925,0.0,0.0
1224,305.75,70.4118,79.2653,164.419,98.8378,94.2504,0.000674065,0.0772119,21.0088,868.09,0.426282,0.0,0.0
1228,306.75,69.3565,78.3285,161.971,98.8031,94.1725,0.000645813,0.0749543,21.0101,867.86,0.430548,0.0,0.0
1232,307.75,69.1668,76.2482,162.3,98.7851,94.3573,0.00061171,0.0728698,21.0109,868.01,0.411323,0.0,0.0
1236,308.75,67.4102,75.5949,161.234,98.7525,94.3787,0.000566962,0.0709607,21.0122,867.85,0.406329,0.0,0.0
1240,309.75,66.8639,73.6718,161.749,98.7267,94.2457,0.00049031,0.069297,21.0131,867.77,0.416636,0.0,0.0
1244,310.75,66.0969,72.7982,164.014,98.6998,93.9286,0.00043647,0.0678864,21.0137,867.65,0.444413,0.0,0.0
1248,311.75,64.6499,71.6471,164.098,98.6879,94.4953,0.000416363,0.0666178,21.0141,868.02,0.389386,0.0,0.0
1252,312.75,64.3665,70.8787,159.68,98.6618,94.3802,0.000441163,0.0653982,21.0143,867.82,0.397943,0.0,0.0
1256,313.75,63.0609,69.1499,166.061,98.6381,94.3818,0.000498769,0.0642045,21.0145,867.81,0.395641,0.0,0.0
1260,314.75,62.9877,68.636,165.74,98.6193,93.9023,0.000566175,0.063018,21.0146,868,0.439615,0.0,0.0
1264,315.75,61.7295,67.9249,162.654,98.634,93.5724,0.000624427,0.0619372,21.0147,867.57,0.472516,0.0,0.0
1268,316.75,61.4831,66.498,159.011,98.5993,93.8744,0.000664375,0.0609761,21.0147,868.03,0.440461,0.0,0.0
1272,317.75,59.7708,65.085,162.064,98.5846,93.9372,0.000653691,0.0601189,21.0155,867.83,0.433125,0.0,0.0
1276,318.75,59.0635,64.5751,163.138,98.5658,94.3791,0.000614152,0.0593382,21.016,867.86,0.389322,0.0,0.0
1280,319.75,59.5224,64.2743,165.605,98.5515,94.3593,0.000510015,0.0586144,21.0164,867.92,0.389901,0.0,0.0
1284,320.75,58.3917,63.3216,163.093,98.5397,94.3884,0.000404457,0.0578768,21.0166,868.04,0.38606,0.0,0.0
1288,321.75,56.5069,61.3577,162.54,98.5397,93.8593,0.000302147,0.0574148,21.0173,867.9,0.436479,0.0,0.0
1292,322.75,57.0058,61.6017,166.611,98.5229,94.6477,0.000230786,0.0567373,21.018,867.87,0.359926,0.0,0.0
1296,323.75,56.037,60.1471,157.778,98.5221,93.8007,0.000193981,0.0561802,21.0185,867.71,0.440475,0.0,0.0
1300,324.75,55.5599,59.6367,164.718,98.5446,93.5271,0.000182592,0.0555884,21.0188,868.17,0.468725,0.0,0.0
1304,325.75,55.2551,58.9458,164.538,98.547,94.0864,0.000199981,0.0550219,21.0191,867.73,0.415469,0.0,0.0
1308,326.75,54.4365,58.3373,166.433,98.5495,94.4267,0.00025267,0.0544911,21.0191,867.389,0.383305,0.0,0.0
1312,327.75,53.8163,57.7742,163.127,98.5127,94.5143,0.000325523,0.0540529,21.0186,867.49,0.371642,0.0,0.0
1316,328.75,52.9863,56.7191,162.259,98.4813,94.4926,0.000405401,0.0536146,21.0182,867.9,0.370839,0.0,0.0
1320,329.75,52.4746,56.0054,163.465,98.4551,94.2674,0.000469911,0.0531009,21.0179,867.409,0.38986,0.0,0.0
1324,330.75,51.6105,55.2725,163.611,98.4694,94.5294,0.00051449,0.052588,21.0178,868.11,0.366265,0.0,0.0
1328,331.75,51.5102,54.2295,164.955,98.4796,94.0376,0.000529489,0.0521922,21.0177,868.08,0.413989,0.0,0.0
1332,332.75,51.0473,53.5448,159.632,98.4694,93.4515,0.00051419,0.0518571,21.0178,867.409,0.469134,0.0,0.0
1336,333.75,50.603,53.4284,156.809,98.4437,93.6662,0.000475349,0.0515702,21.018,867.57,0.446203,0.0,0.0
1340,334.75,50.0864,52.4347,166.079,98.4404,94.5442,0.000409956,0.0512573,21.0181,868.17,0.362225,0.0,0.0
1344,335.75,49.9005,52.0647,166.788,98.4543,94.474,0.000338483,0.0508769,21.0186,867.269,0.370149,0.0,0.0
1348,336.75,49.3366,51.8645,165.595,98.442,94.5004,0.000297396,0.0504588,21.0192,867.74,0.366531,0.0,0.0
1352,337.75,48.6624,50.5964,160.627,98.4514,94.1659,0.000279634,0.0500778,21.0197,867.94,0.399193,0.0,0.0
1356,338.75,47.8108,50.1004,164.334,98.4482,94.5543,0.000308495,0.0498027,21.02,868.17,0.361976,0.0,0.0
1360,339.75,47.5537,49.2601,167.027,98.4629,94.4632,0.000364703,0.0495911,21.0203,868.15,0.37196,0.0,0.0
1364,340.75,46.857,48.7741,169.957,98.4625,94.3256,0.000452459,0.0493506,21.0204,867.88,0.384999,0.0,0.0
1368,341.75,46.6503,48.581,161.974,98.4523,94.0414,0.000554796,0.0491385,21.0205,867.78,0.411127,0.0,0.0
1372,342.75,46.3145,47.8759,163.344,98.4371,93.8666,0.000652679,0.0488739,21.0206,867.76,0.426438,0.0,0.0
1376,343.75,45.8054,47.5006,163.918,98.4441,94.3996,0.000686118,0.0486041,21.0206,867.92,0.376287,0.0,0.0
1380,344.75,45.1124,46.6092,165.085,98.4441,94.4574,0.000693522,0.0484093,21.0206,868.01,0.370801,0.0,0.0
1384,345.75,45.0594,46.2401,158.546,98.44,94.3174,0.000672631,0.0481674,21.0206,868.08,0.383726,0.0,0.0
1388,346.75,44.8822,45.7609,166.248,98.4641,94.524,0.000637693,0.0480729,21.0207,867.87,0.366296,0.0,0.0
1392,347.75,44.3805,45.6686,163.542,98.4608,94.0345,0.000601983,0.0478867,21.0207,867.87,0.412573,0.0,0.0
1396,348.75,43.1897,44.5005,162.896,98.4715,94.1666,0.000568594,0.0477182,21.0206,867.92,0.400943,0.0,0.0
1400,349.75,43.8527,44.9679,165.401,98.4776,94.0519,0.000541111,0.0475884,21.0203,867.73,0.412435,0.0,0.0
1404,350.75,43.4729,44.0322,163.751,98.4759,94.1407,0.000525096,0.0474921,21.0201,867.81,0.403826,0.0,0.0
1408,351.75,43.0531,43.5622,160.358,98.4772,94.0376,0.000510082,0.0474289,21.02,867.85,0.413766,0.0,0.0
1412,352.75,41.5997,42.7548,161.948,98.4833,94.162,0.000473254,0.0473623,21.02,868.06,0.402464,0.0,0.0
1416,353.75,42.4277,42.4827,161.39,98.4849,94.2674,0.000415386,0.0472594,21.0197,867.97,0.392576,0.0,0.0
1420,354.75,41.9077,42.4306,166.677,98.4808,94.5841,0.000338213,0.047162,21.0195,867.79,0.362122,0.0,0.0
1424,355.75,40.9762,41.5036,166.753,98.487,94.0077,0.000268839,0.0470938,21.0193,867.99,0.417506,0.0,0.0
1428,356.75,41.2241,41.7577,168.947,98.4862,94.4283,0.00021869,0.0470366,21.0192,868.01,0.377395,0.0,0.0
1432,357.75,41.2007,41.4802,162.1,98.4996,93.362,0.000176615,0.0469134,21.0191,867.89,0.480485,0.0,0.0
1436,358.75,40.798,41.14,163.084,98.4878,94.3756,0.00013347,0.0468043,21.019,868.04,0.382551,0.0,0.0
1440,359.75,40.6608,41.1159,165.252,98.5041,94.3992,7.46377e-05,0.0467505,21.019,868.01,0.381793,0.0,0.0
1444,360.75,40.1731,40.5257,161.922,98.487,94.4508,7.55742e-06,0.0467152,21.019,867.87,0.375333,0.0,0.0
1448,361.75,40.0141,40.0439,163.525,98.4943,93.974,-3.59156e-05,0.0466327,21.019,867.73,0.421394,0.0,0.0
1452,362.75,39.8431,40.1437,162.693,98.487,94.5124,-8.0628e-05,0.046543,21.019,868.07,0.369483,0.0,0.0
1456,363.75,39.1257,39.5009,162.767,98.5078,94.4705,-0.00011221,0.046459,21.019,868.08,0.375354,0.0,0.0
1460,364.75,39.3462,38.7266,158.785,98.5103,94.012,-0.000139139,0.0464114,21.019,867.99,0.41922,0.0,0.0
1464,365.75,38.9571,38.9288,160.646,98.518,94.5767,-0.000159875,0.0463674,21.019,867.83,0.366205,0.0,0.0
1468,366.75,39.1171,38.4601,161.292,98.5152,93.8802,-0.000156373,0.0463385,21.019,868.03,0.432248,0.0,0.0
1472,367.75,38.9929,38.0065,162.974,98.5327,94.5686,-0.000116722,0.0463195,21.019,868.08,0.368316,0.0,0.0
1476,368.75,38.6504,38.0424,162.428,98.5315,94.3938,-4.41585e-05,0.046228,21.0198,868,0.3848,0.0,0.0
1480,369.75,38.3898,38.0917,163.734,98.5405,94.3306,4.0579e-05,0.0461502,21.0203,868.04,0.391625,0.0,0.0
1484,370.75,37.9009,37.7891,162.232,98.5397,94.3922,0.00010894,0.0460311,21.0206,868.21,0.385692,0.0,0.0
1488,371.75,37.8967,37.2957,165.392,98.5417,94.2779,0.000149867,0.0459226,21.0206,868.18,0.396749,0.0,0.0
1492,372.75,37.4326,37.1029,162.735,98.5462,94.1162,0.000165183,0.0458659,21.0201,868.05,0.412549,0.0,0.0
1496,373.75,37.3575,36.9069,163.112,98.5466,94.2446,0.000170446,0.045834,21.0198,868.01,0.400367,0.0,0.0
1500,374.75,37.1994,36.4264,161.66,98.5511,94.286,0.000178344,0.045788,21.0198,867.93,0.39683,0.0,0.0
1504,375.75,37.1678,36.1529,167.845,98.5572,94.0891,0.000176777,0.0457183,21.0199,867.84,0.416139,0.0,0.0
1508,376.75,36.7218,36.7203,158.018,98.5609,93.886,0.000169002,0.0456829,21.0199,868.03,0.435856,0.0,0.0
1512,377.75,36.867,36.2819,162.346,98.5523,94.0942,0.000159403,0.0456652,21.0206,868.13,0.415211,0.0,0.0
1516,378.75,36.3325,36.3101,166.804,98.5466,94.5399,0.000148136,0.0456099,21.0212,867.97,0.372302,0.0,0.0
1520,379.75,36.5456,35.9678,161.004,98.5507,94.207,0.000124296,0.0454116,21.0216,867.94,0.404318,0.0,0.0
1524,380.75,35.337,34.7156,161.161,98.5564,94.136,8.99013e-05,0.0452221,21.0219,867.87,0.411595,0.0,0.0
1528,381.75,36.1407,35.4208,165.321,98.5605,94.6015,6.15359e-05,0.0450622,21.022,867.91,0.36772,0.0,0.0
1532,382.75,36.1186,35.3762,165.228,98.5756,94.7577,4.6545e-05,0.0450325,21.0221,868.11,0.354298,0.0,0.0
1536,383.75,34.8047,34.2158,162.727,98.6026,94.6535,4.30857e-05,0.0450631,21.0222,867.82,0.366624,0.0,0.0
1540,384.75,35.4998,34.3294,163.168,98.5862,94.2635,4.75596e-05,0.0450042,21.0223,868.09,0.402165,0.0,0.0
1544,385.75,34.8198,34.1858,163.89,98.5952,94.2523,4.80113e-05,0.0449838,21.0223,867.8,0.404052,0.0,0.0
1548,386.75,34.8055,34.4886,163.467,98.5887,94.2953,3.76037e-05,0.0449533,21.0223,867.74,0.399365,0.0,0.0
1552,387.75,34.1631,33.4318,165.3,98.5776,94.4116,1.00773e-05,0.0448964,21.0223,867.94,0.387306,0.0,0.0
1556,388.75,34.496,33.6015,163.531,98.5756,94.7709,-3.27024e-05,0.0448234,21.0223,867.61,0.35305,0.0,0.0
1560,389.75,34.0364,33.7956,161.341,98.5854,94.4891,-8.54904e-05,0.0447505,21.0223,867.75,0.380651,0.0,0.0
1564,390.75,34.1603,33.4869,162.216,98.5854,94.7151,-0.00014112,0.0447027,21.0223,867.79,0.359226,0.0,0.0
1568,391.75,32.9461,32.3249,162.412,98.5756,94.5752,-0.000185664,0.0446713,21.0223,868.15,0.371595,0.0,0.0
1572,392.75,33.8225,32.9782,160.577,98.5919,94.7911,-0.000232581,0.0446758,21.0223,867.77,0.352628,0.0,0.0
1576,393.75,33.4442,32.694,165.109,98.5993,94.3705,-0.000268145,0.044659,21.0223,867.87,0.39318,0.0,0.0
1580,394.75,33.5227,32.6407,167.052,98.6038,94.812,-0.000303894,0.0446032,21.0223,867.85,0.351726,0.0,0.0
1584,395.75,32.8549,32.0204,163.78,98.6128,95.0244,-0.000339365,0.0445421,21.022,868.14,0.332471,0.0,0.0
1588,396.75,33.1502,31.9202,168.352,98.6165,94.8015,-0.000364806,0.0444908,21.0218,867.86,0.353868,0.0,0.0
1592,397.75,32.8164,31.9624,163.168,98.623,94.6325,,0.0444374,,868.03,0.370466,0.0,0.0
1596,398.75,32.7318,31.8027,169.442,98.641,94.5244,,0.0443378,,868.04,0.382356,0.0,0.0
1600,399.75,32.658,31.3315,161.198,98.6463,94.7298,,0.0442566,,868.14,0.363367,0.0,0.0
1604,400.75,32.6543,31.5422,162.379,98.6381,94.467,,,,867.96,0.387541,0.0,0.0
1608,401.75,32.042,30.7492,161.888,98.6438,94.5035,,,,867.87,0.384603,0.0,0.0
1612,402.75,32.4586,31.1393,165.046,98.6524,94.8899,,,,867.96,0.348778,0.0,0.0
1616,403.75,32.4227,30.9489,159.361,98.6695,94.4992,,,,867.96,0.387346,0.0,0.0
1620,404.75,32.0697,31.2525,161.919,98.6728,94.731,,,,867.77,0.36567,0.0,0.0
1624,405.75,32.2103,30.9538,162.714,98.6704,94.5159,,,,867.72,0.385839,0.0,0.0
1628,406.75,31.9435,30.7722,167.26,98.6785,94.9287,,,,867.95,0.347492,0.0,0.0
1632,407.75,31.53,30.6479,161.684,98.6765,94.876,,,,867.82,0.352289,0.0,0.0
1634,408.25,31.7687,30.3586,165.969,98.6892,94.962,,,,868,0.345309,0.0,0.0