File: 01_Data/Cotton_Shirt/STA/N2/10K_min/Cotton_Shirt_STA_N2_10KData_21237_R2.csv
##Temp./Â°C,Time/min,Mass loss(subtr.2)/mg,DSC(subtr.2)/(mW/mg),Sensit./(uV/mW)
49.387,10.00917,-0.03938,0.02773512,0.61835
49.887,11.35026,-0.042211,0.04754549,0.61862
50.387,11.66823,-0.04209135,0.06079099,0.61888
50.887,11.894,-0.04210084,0.07346963,0.61915
51.387,12.07644,-0.04307419,0.08170199,0.61941
51.887,12.23584,-0.04189997,0.09213933,0.61967
52.387,12.3794,-0.04254052,0.09620352,0.61993
52.887,12.50913,-0.0428886,0.10492,0.62019
53.387,12.63074,-0.04486402,0.10858,0.62045
53.887,12.74702,-0.04399937,0.11732,0.62071
54.387,12.85706,-0.04506702,0.12524,0.62097
54.887,12.9625,-0.04355584,0.13067,0.62123
55.387,13.06369,-0.04468221,0.13373,0.62148
55.887,13.16145,-0.04512223,0.13849,0.62174
56.387,13.2568,-0.04659506,0.14401,0.62199
56.887,13.3491,-0.0456387,0.14733,0.62225
57.387,13.43821,-0.04531787,0.15063,0.6225
57.887,13.5266,-0.04522982,0.15354,0.62275
58.387,13.61418,-0.04670748,0.15933,0.623
58.887,13.69904,-0.04629671,0.16175,0.62326
59.387,13.7818,-0.0466267,0.16715,0.6235
59.887,13.8642,-0.04804368,0.1676,0.62375
60.387,13.94564,-0.04660449,0.17005,0.624
60.887,14.02561,-0.04793314,0.17676,0.62425
61.387,14.10314,-0.04779545,0.18211,0.62449
61.887,14.1804,-0.04783404,0.18231,0.62474
62.387,14.25705,-0.04783301,0.1846,0.62498
62.887,14.333,-0.04667005,0.18841,0.62523
63.387,14.40771,-0.0484691,0.19298,0.62547
63.887,14.48125,-0.04925002,0.19424,0.62571
64.387,14.55446,-0.04925,0.19644,0.62595
64.887,14.62659,-0.0492495,0.20229,0.62619
65.387,14.6978,-0.05056066,0.20507,0.62643
65.887,14.768,-0.04924827,0.20477,0.62667
66.387,14.8381,-0.05053296,0.21071,0.62691
66.887,14.908,-0.05188004,0.21457,0.62714
67.387,14.9774,-0.05242446,0.21773,0.62738
67.887,15.0458,-0.05188704,0.21918,0.62761
68.387,15.11359,-0.05195809,0.22497,0.62785
68.887,15.17959,-0.05364897,0.22664,0.62808
69.387,15.24584,-0.05354394,0.23087,0.62831
69.887,15.31189,-0.05494947,0.23337,0.62854
70.387,15.37841,-0.05362007,0.23631,0.62877
70.887,15.44387,-0.05496283,0.23817,0.629
71.387,15.50855,-0.05622119,0.24192,0.62923
71.887,15.5723,-0.0562686,0.24342,0.62946
72.387,15.6353,-0.05660195,0.24621,0.62969
72.887,15.6983,-0.05687692,0.25061,0.62991
73.387,15.7614,-0.05758993,0.25358,0.63014
73.887,15.8241,-0.05759012,0.25505,0.63036
74.387,15.8866,-0.05894945,0.25889,0.63058
74.887,15.9482,-0.05890083,0.26119,0.63081
75.387,16.0094,-0.05890345,0.26493,0.63103
75.887,16.07033,-0.05997791,0.26666,0.63125
76.387,16.13094,-0.06022065,0.26824,0.63147
76.887,16.19115,-0.06071188,0.27082,0.63169
77.387,16.25106,-0.06021987,0.27296,0.6319
77.887,16.31043,-0.0615247,0.27541,0.63212
78.387,16.36972,-0.06156477,0.27578,0.63234
78.887,16.4286,-0.0628502,0.27927,0.63255
79.387,16.48736,-0.064159,0.28206,0.63277
79.887,16.54564,-0.06546108,0.2857,0.63298
80.387,16.60383,-0.06672476,0.28605,0.63319
80.887,16.66164,-0.06679999,0.29005,0.63341
81.387,16.7193,-0.06680028,0.28916,0.63362
81.887,16.77675,-0.06821175,0.29179,0.63383
82.387,16.83403,-0.06866566,0.29478,0.63404
82.887,16.89089,-0.06954003,0.29856,0.63424
83.387,16.94734,-0.06954,0.30156,0.63445
83.887,17.0036,-0.06953969,0.30188,0.63466
84.387,17.0595,-0.07021218,0.30349,0.63486
84.887,17.11538,-0.07086994,0.30419,0.63507
85.387,17.17103,-0.07221045,0.30642,0.63527
85.887,17.22656,-0.07216823,0.30647,0.63548
86.387,17.28164,-0.07086068,0.30923,0.63568
86.887,17.33644,-0.07217413,0.30893,0.63588
87.387,17.39126,-0.07349577,0.3101,0.63608
87.887,17.44555,-0.07348953,0.31105,0.63628
88.387,17.49924,-0.07479884,0.31251,0.63648
88.887,17.55349,-0.07481173,0.31376,0.63668
89.387,17.60732,-0.07611504,0.31524,0.63687
89.887,17.66115,-0.07612078,0.31475,0.63707
90.387,17.71556,-0.07742083,0.31556,0.63726
90.887,17.76904,-0.07744,0.31506,0.63746
91.387,17.82236,-0.07743942,0.316,0.63765
91.887,17.8754,-0.07942819,0.31816,0.63784
92.387,17.9281,-0.08006992,0.31885,0.63804
92.887,17.9809,-0.08056262,0.32039,0.63823
93.387,18.0334,-0.0813905,0.31772,0.63842
93.887,18.0859,-0.08139,0.31768,0.63861
94.387,18.1384,-0.0813904,0.31807,0.63879
94.887,18.19056,-0.08273198,0.31902,0.63898
95.387,18.24277,-0.08269993,0.31884,0.63917
95.887,18.29467,-0.08269998,0.31646,0.63935
96.387,18.3464,-0.08271301,0.31896,0.63954
96.887,18.39799,-0.08401712,0.31842,0.63972
97.387,18.4495,-0.08535523,0.31887,0.6399
97.887,18.50075,-0.08664921,0.31948,0.64009
98.387,18.552,-0.08665001,0.31691,0.64027
98.887,18.60322,-0.08664446,0.31715,0.64045
99.387,18.65423,-0.08796656,0.31527,0.64063
99.887,18.70533,-0.08795999,0.31554,0.64081
100.387,18.75619,-0.08796,0.31397,0.64098
100.887,18.807,-0.08796082,0.31473,0.64116
101.387,18.85768,-0.08922343,0.31275,0.64134
101.887,18.9082,-0.08925476,0.31237,0.64151
102.387,18.95881,-0.09060022,0.31117,0.64168
102.887,19.00899,-0.09060037,0.30915,0.64186
103.387,19.05904,-0.08928896,0.30658,0.64203
103.887,19.10922,-0.08929,0.30548,0.6422
104.387,19.15931,-0.08962303,0.30567,0.64237
104.887,19.2093,-0.09191822,0.30506,0.64254
105.387,19.2594,-0.09322998,0.3025,0.64271
105.887,19.30931,-0.09323,0.30167,0.64288
106.387,19.35909,-0.09323002,0.3011,0.64305
106.887,19.40887,-0.09227573,0.29959,0.64321
107.387,19.4587,-0.09192002,0.29749,0.64338
107.887,19.50831,-0.09192,0.29794,0.64354
108.387,19.55779,-0.0921317,0.29741,0.6437
108.887,19.60752,-0.09390004,0.29461,0.64387
109.387,19.65719,-0.09387243,0.29429,0.64403
109.887,19.7066,-0.09419166,0.2906,0.64419
110.387,19.7561,-0.09319752,0.29043,0.64435
110.887,19.80526,-0.09325589,0.28923,0.64451
111.387,19.85441,-0.09454836,0.28691,0.64467
111.887,19.9035,-0.09455001,0.28685,0.64483
112.387,19.95273,-0.09454509,0.28417,0.64498
112.887,20.0017,-0.09587658,0.28379,0.64514
113.387,20.0506,-0.09586992,0.28421,0.64529
113.887,20.09977,-0.09585997,0.28305,0.64545
114.387,20.14864,-0.09586,0.28132,0.6456
114.887,20.19736,-0.09586007,0.28113,0.64575
115.387,20.24611,-0.09579097,0.28121,0.6459
115.887,20.2945,-0.09651877,0.27652,0.64605
116.387,20.34314,-0.09652,0.27465,0.6462
116.887,20.3916,-0.09652,0.27613,0.64635
117.387,20.4401,-0.09651999,0.27795,0.6465
117.887,20.4889,-0.09651783,0.27438,0.64665
118.387,20.53735,-0.09521477,0.27289,0.64679
118.887,20.58597,-0.09520963,0.27362,0.64694
119.387,20.6345,-0.09556815,0.27256,0.64708
119.887,20.68274,-0.09587176,0.27058,0.64722
120.387,20.73081,-0.09716172,0.27182,0.64737
120.887,20.77874,-0.09718168,0.27027,0.64751
121.387,20.82664,-0.09586329,0.27049,0.64765
121.887,20.87426,-0.0971698,0.26764,0.64779
122.387,20.92237,-0.09587177,0.26926,0.64793
122.887,20.97048,-0.09587,0.26729,0.64807
123.387,21.0186,-0.09587004,0.26852,0.6482
123.887,21.0668,-0.09578672,0.27091,0.64834
124.387,21.1146,-0.09709998,0.26822,0.64848
124.887,21.16227,-0.09727564,0.26849,0.64861
125.387,21.2098,-0.09717995,0.26861,0.64874
125.887,21.25732,-0.09717462,0.26995,0.64888
126.387,21.3049,-0.09849548,0.2698,0.64901
126.887,21.35247,-0.09792767,0.26976,0.64914
127.387,21.39979,-0.09716817,0.26979,0.64927
127.887,21.44716,-0.09717996,0.26781,0.6494
128.387,21.4945,-0.09710368,0.26771,0.64953
128.887,21.54189,-0.09586175,0.26982,0.64966
129.387,21.58923,-0.09586,0.2696,0.64978
129.887,21.63676,-0.09585942,0.27048,0.64991
130.387,21.68379,-0.095507,0.27054,0.65003
130.887,21.73077,-0.09554004,0.27005,0.65016
131.387,21.7777,-0.09553999,0.27569,0.65028
131.887,21.82475,-0.09554795,0.2728,0.6504
132.387,21.87173,-0.09690844,0.27189,0.65053
132.887,21.91875,-0.09685003,0.27072,0.65065
133.387,21.96578,-0.09684495,0.27446,0.65077
133.887,22.01279,-0.09749357,0.27396,0.65089
134.387,22.0595,-0.09618589,0.27599,0.651
134.887,22.10623,-0.09686384,0.27417,0.65112
135.387,22.15285,-0.097816,0.27587,0.65124
135.887,22.19921,-0.09816999,0.27683,0.65135
136.387,22.24571,-0.09753111,0.27772,0.65147
136.887,22.29226,-0.09685013,0.28,0.65158
137.387,22.3389,-0.09685,0.28015,0.6517
137.887,22.38554,-0.09685033,0.27897,0.65181
138.387,22.43211,-0.09738768,0.28118,0.65192
138.887,22.4784,-0.09815133,0.28253,0.65203
139.387,22.5247,-0.09816998,0.28245,0.65214
139.887,22.571,-0.09821934,0.28228,0.65225
140.387,22.61724,-0.09850014,0.28493,0.65236
140.887,22.66349,-0.09708405,0.28551,0.65246
141.387,22.70969,-0.09717935,0.28364,0.65257
141.887,22.75592,-0.09824016,0.28334,0.65267
142.387,22.80199,-0.09816595,0.28471,0.65278
142.887,22.8481,-0.09947429,0.28599,0.65288
143.387,22.8941,-0.09947911,0.28813,0.65298
143.887,22.94003,-0.0987481,0.28916,0.65309
144.387,22.9861,-0.09817061,0.28902,0.65319
144.887,23.0322,-0.09817,0.29026,0.65329
145.387,23.07817,-0.09816996,0.29125,0.65339
145.887,23.12406,-0.09821746,0.29252,0.65348
146.387,23.16995,-0.09687607,0.29315,0.65358
146.887,23.2159,-0.09817243,0.29199,0.65368
147.387,23.2616,-0.09816999,0.2929,0.65377
147.887,23.30743,-0.0981699,0.29487,0.65387
148.387,23.3533,-0.09824918,0.29715,0.65396
148.887,23.399,-0.09685192,0.29556,0.65406
149.387,23.4446,-0.09585252,0.29754,0.65415
149.887,23.49021,-0.09720618,0.29839,0.65424
150.387,23.53567,-0.09718019,0.29971,0.65433
150.887,23.5813,-0.09718,0.29889,0.65442
151.387,23.6269,-0.09718001,0.30053,0.65451
151.887,23.67259,-0.09717742,0.29811,0.6546
152.387,23.7183,-0.09846047,0.30149,0.65469
152.887,23.764,-0.09848153,0.30304,0.65477
153.387,23.80945,-0.09815956,0.303,0.65486
153.887,23.85484,-0.09796884,0.30451,0.65494
154.387,23.90026,-0.09780368,0.30311,0.65503
154.887,23.9456,-0.09747503,0.3048,0.65511
155.387,23.9911,-0.09783947,0.30441,0.65519
155.887,24.03677,-0.0978406,0.30479,0.65527
156.387,24.08241,-0.09820484,0.30592,0.65535
156.887,24.12784,-0.09817004,0.30447,0.65543
157.387,24.17334,-0.09817039,0.30593,0.65551
157.887,24.21882,-0.09687099,0.30338,0.65559
158.387,24.26415,-0.09711137,0.30525,0.65567
158.887,24.30936,-0.09816989,0.3053,0.65574
159.387,24.35485,-0.09817181,0.30681,0.65582
159.887,24.40023,-0.09923014,0.30541,0.65589
160.387,24.44556,-0.09947796,0.30383,0.65597
160.887,24.4912,-0.09817763,0.30495,0.65604
161.387,24.5368,-0.09685681,0.30683,0.65611
161.887,24.58207,-0.09686001,0.307,0.65618
162.387,24.62741,-0.09685986,0.30774,0.65625
162.887,24.67261,-0.09696514,0.30947,0.65632
163.387,24.71782,-0.09719322,0.30816,0.65639
163.887,24.76311,-0.09702704,0.30739,0.65646
164.387,24.80836,-0.09717994,0.31143,0.65653
164.887,24.85347,-0.09718156,0.31094,0.65659
165.387,24.8989,-0.09850427,0.31027,0.65666
165.887,24.94428,-0.09849811,0.31361,0.65672
166.387,24.98965,-0.09747162,0.3146,0.65679
166.887,25.03513,-0.09750207,0.31459,0.65685
167.387,25.08062,-0.09860658,0.31463,0.65691
167.887,25.12594,-0.09828608,0.31674,0.65697
168.387,25.17126,-0.09827999,0.31697,0.65703
168.887,25.21681,-0.09828041,0.31564,0.65709
169.387,25.2621,-0.09805008,0.31726,0.65715
169.887,25.30736,-0.09795555,0.31604,0.65721
170.387,25.35247,-0.09794829,0.318,0.65727
170.887,25.3976,-0.0982906,0.31932,0.65732
171.387,25.44274,-0.09827995,0.31934,0.65738
171.887,25.48796,-0.09827989,0.32252,0.65743
172.387,25.53327,-0.09840996,0.32116,0.65749
172.887,25.57849,-0.09860992,0.32181,0.65754
173.387,25.6237,-0.09861,0.32233,0.65759
173.887,25.6689,-0.09861,0.32296,0.65764
174.387,25.7139,-0.09861,0.31967,0.65769
174.887,25.75923,-0.09861,0.32142,0.65774
175.387,25.80443,-0.09861047,0.32214,0.65779
175.887,25.8495,-0.09728307,0.32213,0.65784
176.387,25.8947,-0.09865505,0.32404,0.65788
176.887,25.9397,-0.09862755,0.32523,0.65793
177.387,25.98474,-0.09992692,0.3291,0.65798
177.887,26.0299,-0.09859121,0.32911,0.65802
178.387,26.07496,-0.09861079,0.32909,0.65806
178.887,26.11992,-0.09933258,0.3288,0.65811
179.387,26.1649,-0.09938095,0.32825,0.65815
179.887,26.20993,-0.09860911,0.33113,0.65819
180.387,26.25475,-0.09988934,0.32821,0.65823
180.887,26.2998,-0.09791738,0.32844,0.65827
181.387,26.3448,-0.09794953,0.33024,0.65831
181.887,26.38997,-0.09795197,0.3293,0.65835
182.387,26.435,-0.09931286,0.32771,0.65838
182.887,26.4799,-0.09924666,0.33003,0.65842
183.387,26.525,-0.09927278,0.33159,0.65846
183.887,26.5699,-0.09927,0.33089,0.65849
184.387,26.6146,-0.09927,0.32938,0.65853
184.887,26.6593,-0.09927,0.33199,0.65856
185.387,26.7041,-0.09927,0.33451,0.65859
185.887,26.74885,-0.09927,0.33459,0.65862
186.387,26.7936,-0.09927,0.33623,0.65865
186.887,26.8384,-0.09926998,0.33331,0.65868
187.387,26.88315,-0.09930559,0.33489,0.65871
187.887,26.92788,-0.09895836,0.33679,0.65874
188.387,26.97242,-0.09910274,0.33744,0.65877
188.887,27.0168,-0.09992054,0.33645,0.65879
189.387,27.0613,-0.09991992,0.33468,0.65882
189.887,27.1059,-0.09988525,0.33616,0.65885
190.387,27.1505,-0.10024,0.3389,0.65887
190.887,27.19547,-0.09914,0.34132,0.65889
191.387,27.2399,-0.09926008,0.3391,0.65892
191.887,27.2847,-0.09926,0.33812,0.65894
192.387,27.32925,-0.09926,0.3393,0.65896
192.887,27.3738,-0.09926,0.3416,0.65898
193.387,27.41842,-0.09925997,0.34219,0.659
193.887,27.4634,-0.09933628,0.34404,0.65902
194.387,27.508,-0.10025,0.34215,0.65903
194.887,27.5527,-0.10025,0.34199,0.65905
195.387,27.59732,-0.10025,0.34025,0.65907
195.887,27.6419,-0.09957348,0.34196,0.65908
196.387,27.68648,-0.09893712,0.34527,0.6591
196.887,27.7311,-0.09892741,0.34419,0.65911
197.387,27.77579,-0.09991925,0.34311,0.65912
197.887,27.82041,-0.10058,0.34482,0.65914
198.387,27.86475,-0.10059,0.34419,0.65915
198.887,27.9094,-0.099269,0.3424,0.65916
199.387,27.95413,-0.09914779,0.34299,0.65917
199.887,27.9987,-0.09894004,0.34532,0.65918
200.387,28.04345,-0.09894,0.34255,0.65919
200.887,28.0881,-0.09894,0.34306,0.65919
201.387,28.1326,-0.09893997,0.34365,0.6592
201.887,28.17725,-0.09893459,0.34531,0.65921
202.387,28.22188,-0.10027,0.34439,0.65921
202.887,28.26647,-0.10026,0.34549,0.65921
203.387,28.311,-0.09944655,0.34661,0.65922
203.887,28.35558,-0.09894072,0.34453,0.65922
204.387,28.40018,-0.09894,0.34427,0.65922
204.887,28.44482,-0.09894185,0.34651,0.65922
205.387,28.4892,-0.09993072,0.34671,0.65922
205.887,28.53387,-0.10027,0.34906,0.65922
206.387,28.5785,-0.09894296,0.34629,0.65922
206.887,28.62315,-0.09893531,0.34736,0.65922
207.387,28.66767,-0.10053,0.34693,0.65922
207.887,28.71237,-0.1013,0.34739,0.65921
208.387,28.757,-0.09992599,0.34657,0.65921
208.887,28.8015,-0.09991998,0.34719,0.65921
209.387,28.846,-0.09992,0.34781,0.6592
209.887,28.89061,-0.09992003,0.34806,0.65919
210.387,28.9352,-0.09994562,0.34723,0.65919
210.887,28.97966,-0.10125,0.3499,0.65918
211.387,29.02413,-0.10157,0.34907,0.65917
211.887,29.0686,-0.10024,0.35116,0.65916
212.387,29.1132,-0.10025,0.35084,0.65915
212.887,29.15772,-0.10025,0.34766,0.65914
213.387,29.20243,-0.10162,0.34851,0.65912
213.887,29.24707,-0.10157,0.3495,0.65911
214.387,29.29167,-0.10156,0.35092,0.6591
214.887,29.3363,-0.10025,0.3547,0.65908
215.387,29.38087,-0.10105,0.35123,0.65907
215.887,29.4255,-0.10157,0.3541,0.65905
216.387,29.4701,-0.10157,0.35547,0.65904
216.887,29.51463,-0.10157,0.35817,0.65902
217.387,29.5592,-0.10157,0.35437,0.659
217.887,29.60377,-0.10157,0.35646,0.65898
218.387,29.64834,-0.1029,0.35658,0.65896
218.887,29.69292,-0.10289,0.35985,0.65894
219.387,29.7375,-0.1029,0.35878,0.65892
219.887,29.78195,-0.10419,0.35822,0.6589
220.387,29.82645,-0.1042,0.36033,0.65888
220.887,29.871,-0.1042,0.35835,0.65885
221.387,29.9156,-0.10328,0.361,0.65883
221.887,29.96015,-0.10322,0.35934,0.6588
222.387,30.00471,-0.10313,0.36022,0.65878
222.887,30.0493,-0.10453,0.3613,0.65875
223.387,30.0938,-0.10445,0.35698,0.65872
223.887,30.1383,-0.10584,0.36249,0.6587
224.387,30.1829,-0.10452,0.36442,0.65867
224.887,30.22731,-0.10453,0.36229,0.65864
225.387,30.2715,-0.10453,0.36342,0.65861
225.887,30.31571,-0.10453,0.36249,0.65858
226.387,30.3602,-0.10453,0.36239,0.65854
226.887,30.4047,-0.10453,0.36009,0.65851
227.387,30.44955,-0.10452,0.36436,0.65848
227.887,30.4948,-0.10552,0.36138,0.65844
228.387,30.5395,-0.10551,0.36175,0.65841
228.887,30.58405,-0.10551,0.36321,0.65837
229.387,30.62851,-0.10551,0.36252,0.65834
229.887,30.67292,-0.10431,0.36332,0.6583
230.387,30.7174,-0.10471,0.36211,0.65826
230.887,30.7619,-0.10551,0.3623,0.65823
231.387,30.8065,-0.10552,0.36353,0.65819
231.887,30.8511,-0.10585,0.36322,0.65815
232.387,30.89565,-0.10855,0.36413,0.65811
232.887,30.9403,-0.10956,0.36368,0.65806
233.387,30.98493,-0.1098,0.36317,0.65802
233.887,31.0296,-0.1098,0.36299,0.65798
234.387,31.074,-0.1098,0.36519,0.65794
234.887,31.1186,-0.1098,0.3639,0.65789
235.387,31.16295,-0.10976,0.36575,0.65785
235.887,31.2074,-0.11111,0.36563,0.6578
236.387,31.2521,-0.11111,0.36423,0.65775
236.887,31.29672,-0.11198,0.36813,0.65771
237.387,31.34132,-0.11346,0.36708,0.65766
237.887,31.38593,-0.11342,0.3643,0.65761
238.387,31.4306,-0.11342,0.36575,0.65756
238.887,31.47498,-0.11341,0.36685,0.65751
239.387,31.51946,-0.11309,0.36496,0.65746
239.887,31.56395,-0.11315,0.36444,0.65741
240.387,31.6086,-0.1144,0.36843,0.65736
240.887,31.6532,-0.11571,0.36809,0.6573
241.387,31.6978,-0.11572,0.36754,0.65725
241.887,31.74258,-0.11572,0.36731,0.6572
242.387,31.78715,-0.11695,0.36714,0.65714
242.887,31.8317,-0.11775,0.3694,0.65708
243.387,31.87636,-0.11795,0.36584,0.65703
243.887,31.921,-0.11888,0.36898,0.65697
244.387,31.9656,-0.1189,0.37042,0.65691
244.887,32.01041,-0.11899,0.36715,0.65685
245.387,32.05511,-0.12022,0.369,0.65679
245.887,32.09983,-0.12022,0.37245,0.65673
246.387,32.14455,-0.12152,0.37019,0.65667
246.887,32.18913,-0.12284,0.37104,0.65661
247.387,32.23379,-0.12334,0.37066,0.65655
247.887,32.2784,-0.12414,0.37276,0.65649
248.387,32.323,-0.12492,0.37084,0.65642
248.887,32.36772,-0.12765,0.37226,0.65636
249.387,32.4124,-0.12811,0.37459,0.65629
249.887,32.45709,-0.1283,0.3741,0.65623
250.387,32.50176,-0.12945,0.37386,0.65616
250.887,32.54653,-0.13074,0.37428,0.6561
251.387,32.59106,-0.13125,0.37585,0.65603
251.887,32.63568,-0.13206,0.37733,0.65596
252.387,32.68039,-0.13353,0.37742,0.65589
252.887,32.72511,-0.13435,0.37701,0.65582
253.387,32.76985,-0.13568,0.37753,0.65575
253.887,32.81459,-0.13679,0.37875,0.65568
254.387,32.8594,-0.13603,0.37749,0.65561
254.887,32.90402,-0.13712,0.37857,0.65553
255.387,32.9486,-0.13935,0.37879,0.65546
255.887,32.9932,-0.14121,0.38102,0.65539
256.387,33.03752,-0.14248,0.38099,0.65531
256.887,33.08215,-0.14366,0.38083,0.65524
257.387,33.12683,-0.14427,0.38385,0.65516
257.887,33.1716,-0.14573,0.38288,0.65508
258.387,33.21633,-0.14708,0.38407,0.65501
258.887,33.26103,-0.14798,0.38811,0.65493
259.387,33.3057,-0.14923,0.38789,0.65485
259.887,33.35051,-0.1506,0.3878,0.65477
260.387,33.39512,-0.15187,0.38815,0.65469
260.887,33.44016,-0.15198,0.39114,0.65461
261.387,33.48509,-0.15528,0.39352,0.65453
261.887,33.52982,-0.15663,0.392,0.65445
262.387,33.5747,-0.15797,0.39594,0.65436
262.887,33.61963,-0.15951,0.39643,0.65428
263.387,33.66445,-0.16099,0.39615,0.65419
263.887,33.70928,-0.16333,0.39501,0.65411
264.387,33.754,-0.16513,0.39579,0.65402
264.887,33.79872,-0.16506,0.39651,0.65394
265.387,33.84353,-0.16767,0.40052,0.65385
265.887,33.88847,-0.16924,0.3976,0.65376
266.387,33.93307,-0.17194,0.39886,0.65368
266.887,33.9779,-0.17516,0.39988,0.65359
267.387,34.02276,-0.17676,0.4017,0.6535
267.887,34.06749,-0.17952,0.40234,0.65341
268.387,34.1123,-0.18108,0.40195,0.65332
268.887,34.15728,-0.18311,0.40421,0.65323
269.387,34.20213,-0.18557,0.4069,0.65313
269.887,34.24687,-0.18662,0.4052,0.65304
270.387,34.29168,-0.18833,0.40762,0.65295
270.887,34.3365,-0.19048,0.40703,0.65285
271.387,34.38134,-0.19334,0.41148,0.65276
271.887,34.42603,-0.19707,0.41135,0.65266
272.387,34.4709,-0.1987,0.41173,0.65257
272.887,34.51585,-0.1983,0.41275,0.65247
273.387,34.56067,-0.2008,0.41216,0.65237
273.887,34.6055,-0.20394,0.41667,0.65227
274.387,34.65035,-0.20721,0.41643,0.65218
274.887,34.69506,-0.20947,0.41875,0.65208
275.387,34.7399,-0.21251,0.41795,0.65198
275.887,34.78461,-0.21436,0.41861,0.65188
276.387,34.8296,-0.21729,0.42176,0.65178
276.887,34.87425,-0.22067,0.42501,0.65167
277.387,34.91919,-0.22376,0.4236,0.65157
277.887,34.9642,-0.22592,0.42596,0.65147
278.387,35.00923,-0.22728,0.42595,0.65136
278.887,35.05418,-0.23093,0.42744,0.65126
279.387,35.09956,-0.23375,0.42731,0.65115
279.887,35.14443,-0.23652,0.43274,0.65105
280.387,35.18931,-0.23902,0.43064,0.65094
280.887,35.23422,-0.24345,0.43197,0.65084
281.387,35.27908,-0.24711,0.43425,0.65073
281.887,35.324,-0.24952,0.43716,0.65062
282.387,35.36894,-0.25282,0.43611,0.65051
282.887,35.41385,-0.25622,0.43641,0.6504
283.387,35.45878,-0.25882,0.44043,0.65029
283.887,35.5038,-0.26266,0.44211,0.65018
284.387,35.5488,-0.26556,0.44308,0.65007
284.887,35.59375,-0.26931,0.44385,0.64996
285.387,35.63878,-0.27288,0.44696,0.64985
285.887,35.68363,-0.27649,0.44786,0.64973
286.387,35.72858,-0.28021,0.44857,0.64962
286.887,35.77368,-0.28381,0.45212,0.6495
287.387,35.81878,-0.28843,0.45239,0.64939
287.887,35.86385,-0.29244,0.45524,0.64927
288.387,35.90917,-0.29648,0.45456,0.64916
288.887,35.9542,-0.30014,0.4584,0.64904
289.387,35.99946,-0.30407,0.46115,0.64892
289.887,36.04435,-0.30729,0.46459,0.64881
290.387,36.08952,-0.31231,0.46354,0.64869
290.887,36.1346,-0.31687,0.46946,0.64857
291.387,36.17974,-0.32207,0.47066,0.64845
291.887,36.2248,-0.32599,0.47091,0.64833
292.387,36.2702,-0.33007,0.47443,0.64821
292.887,36.31537,-0.3356,0.47661,0.64809
293.387,36.3605,-0.33984,0.47908,0.64796
293.887,36.40571,-0.34287,0.48376,0.64784
294.387,36.45089,-0.35013,0.48315,0.64772
294.887,36.49606,-0.35557,0.48544,0.64759
295.387,36.54116,-0.36028,0.48689,0.64747
295.887,36.5865,-0.36467,0.49057,0.64734
296.387,36.6317,-0.36961,0.49147,0.64722
296.887,36.67698,-0.37506,0.4951,0.64709
297.387,36.72234,-0.37958,0.49888,0.64696
297.887,36.76758,-0.38607,0.49983,0.64684
298.387,36.81273,-0.3921,0.50311,0.64671
298.887,36.8579,-0.39647,0.50379,0.64658
299.387,36.90312,-0.40419,0.50643,0.64645
299.887,36.94835,-0.40948,0.5102,0.64632
300.387,36.99357,-0.41594,0.51157,0.64619
300.887,37.03886,-0.42235,0.513,0.64606
301.387,37.08421,-0.42885,0.51691,0.64593
301.887,37.12957,-0.43532,0.52049,0.6458
302.387,37.17496,-0.44212,0.52282,0.64566
302.887,37.2203,-0.44907,0.52736,0.64553
303.387,37.26556,-0.45354,0.52931,0.6454
303.887,37.31066,-0.46047,0.53277,0.64526
304.387,37.356,-0.46716,0.53573,0.64513
304.887,37.40139,-0.47376,0.53979,0.64499
305.387,37.44668,-0.4825,0.54464,0.64485
305.887,37.49204,-0.48931,0.5465,0.64472
306.387,37.5375,-0.49619,0.55181,0.64458
306.887,37.5827,-0.50296,0.55478,0.64444
307.387,37.62797,-0.51011,0.55751,0.6443
307.887,37.67322,-0.51811,0.5603,0.64416
308.387,37.7185,-0.52708,0.56422,0.64403
308.887,37.76398,-0.53399,0.56711,0.64389
309.387,37.80945,-0.54212,0.57143,0.64374
309.887,37.85476,-0.55114,0.57714,0.6436
310.387,37.9002,-0.56004,0.5802,0.64346
310.887,37.94567,-0.56821,0.58482,0.64332
311.387,37.99096,-0.57712,0.58891,0.64318
311.887,38.03633,-0.58784,0.59655,0.64303
312.387,38.08174,-0.59661,0.6012,0.64289
312.887,38.1271,-0.60442,0.60365,0.64274
313.387,38.1725,-0.61328,0.60856,0.6426
313.887,38.2179,-0.62414,0.61358,0.64245
314.387,38.26328,-0.63396,0.61945,0.64231
314.887,38.3088,-0.64509,0.62649,0.64216
315.387,38.35435,-0.65516,0.62865,0.64201
315.887,38.40003,-0.66654,0.63641,0.64187
316.387,38.44569,-0.67694,0.6422,0.64172
316.887,38.49137,-0.68666,0.6483,0.64157
317.387,38.53675,-0.69665,0.65436,0.64142
317.887,38.5822,-0.70874,0.66022,0.64127
318.387,38.6275,-0.72005,0.66662,0.64112
318.887,38.6729,-0.73339,0.67578,0.64097
319.387,38.71847,-0.74463,0.68425,0.64082
319.887,38.76402,-0.75596,0.68733,0.64066
320.387,38.8096,-0.76867,0.69856,0.64051
320.887,38.85524,-0.78128,0.70393,0.64036
321.387,38.9007,-0.79509,0.71186,0.6402
321.887,38.94624,-0.80771,0.72149,0.64005
322.387,38.99163,-0.82352,0.73091,0.63989
322.887,39.03716,-0.8371,0.74008,0.63974
323.387,39.08275,-0.85085,0.75148,0.63958
323.887,39.1284,-0.86472,0.76088,0.63943
324.387,39.17396,-0.88096,0.77178,0.63927
324.887,39.2197,-0.89572,0.78232,0.63911
325.387,39.26526,-0.91237,0.79391,0.63896
325.887,39.31069,-0.92859,0.80725,0.6388
326.387,39.3562,-0.94488,0.81512,0.63864
326.887,39.4017,-0.96159,0.82815,0.63848
327.387,39.44719,-0.97909,0.84342,0.63832
327.887,39.49277,-0.9958,0.8531,0.63816
328.387,39.5385,-1.01295,0.86879,0.638
328.887,39.58405,-1.03301,0.88339,0.63784
329.387,39.62973,-1.05226,0.89831,0.63767
329.887,39.67538,-1.07187,0.91314,0.63751
330.387,39.72088,-1.09103,0.92747,0.63735
330.887,39.7662,-1.11142,0.94313,0.63719
331.387,39.8117,-1.13165,0.9607,0.63702
331.887,39.85726,-1.15357,0.9771,0.63686
332.387,39.90296,-1.17881,0.99699,0.63669
332.887,39.9486,-1.19914,1.01206,0.63653
333.387,39.9947,-1.22382,1.02994,0.63636
333.887,40.04059,-1.247,1.05115,0.63619
334.387,40.08639,-1.27153,1.06774,0.63603
334.887,40.13221,-1.29695,1.08888,0.63586
335.387,40.1782,-1.32273,1.1079,0.63569
335.887,40.22394,-1.35058,1.12836,0.63552
336.387,40.26959,-1.37791,1.14929,0.63535
336.887,40.31547,-1.40515,1.17298,0.63519
337.387,40.36132,-1.43329,1.19245,0.63502
337.887,40.40713,-1.46125,1.21179,0.63485
338.387,40.45303,-1.49251,1.23175,0.63467
338.887,40.49909,-1.5226,1.25542,0.6345
339.387,40.54506,-1.55594,1.28027,0.63433
339.887,40.59098,-1.59044,1.30399,0.63416
340.387,40.6371,-1.62217,1.32531,0.63399
340.887,40.6832,-1.65475,1.34481,0.63381
341.387,40.7292,-1.68864,1.37253,0.63364
341.887,40.77515,-1.72309,1.39202,0.63347
342.387,40.82128,-1.76056,1.4113,0.63329
342.887,40.8673,-1.79872,1.43549,0.63312
343.387,40.91348,-1.83453,1.45604,0.63294
343.887,40.95964,-1.87324,1.47566,0.63276
344.387,41.00582,-1.91214,1.49781,0.63259
344.887,41.052,-1.9522,1.51881,0.63241
345.387,41.09814,-1.99311,1.5358,0.63223
345.887,41.14431,-2.03762,1.55514,0.63206
346.387,41.19057,-2.07953,1.56974,0.63188
346.887,41.23686,-2.11984,1.58755,0.6317
347.387,41.28294,-2.16183,1.60544,0.63152
347.887,41.32914,-2.20499,1.61693,0.63134
348.387,41.3754,-2.25021,1.62966,0.63116
348.887,41.42163,-2.29585,1.64285,0.63098
349.387,41.46795,-2.34216,1.65001,0.6308
349.887,41.5143,-2.38841,1.66022,0.63062
350.387,41.56046,-2.43001,1.66778,0.63043
350.887,41.60669,-2.47606,1.67165,0.63025
351.387,41.65293,-2.5215,1.67397,0.63007
351.887,41.6991,-2.56928,1.67638,0.62989
352.387,41.74522,-2.61598,1.67676,0.6297
352.887,41.7913,-2.66332,1.67468,0.62952
353.387,41.83746,-2.70891,1.67148,0.62933
353.887,41.88355,-2.75182,1.66508,0.62915
354.387,41.9298,-2.79733,1.65433,0.62896
354.887,41.9762,-2.84382,1.644,0.62878
355.387,42.02239,-2.8896,1.62844,0.62859
355.887,42.06865,-2.93578,1.61447,0.6284
356.387,42.11484,-2.97884,1.5946,0.62822
356.887,42.16106,-3.02191,1.57316,0.62803
357.387,42.2072,-3.06197,1.54818,0.62784
357.887,42.25342,-3.10405,1.52518,0.62765
358.387,42.29951,-3.14662,1.49698,0.62746
358.887,42.3455,-3.18853,1.46892,0.62727
359.387,42.39161,-3.22593,1.4362,0.62708
359.887,42.4376,-3.26182,1.39999,0.62689
360.387,42.48369,-3.29811,1.36283,0.6267
360.887,42.52973,-3.33435,1.32168,0.62651
361.387,42.57571,-3.36877,1.28491,0.62632
361.887,42.6217,-3.40097,1.24264,0.62613
362.387,42.6678,-3.43367,1.19653,0.62594
362.887,42.71386,-3.46249,1.15307,0.62574
363.387,42.75987,-3.49123,1.10692,0.62555
363.887,42.80588,-3.51877,1.06572,0.62536
364.387,42.8519,-3.54538,1.01931,0.62516
364.887,42.89782,-3.57046,0.9778,0.62497
365.387,42.9437,-3.5944,0.93264,0.62477
365.887,42.9897,-3.6165,0.89174,0.62458
366.387,43.0354,-3.6372,0.8492,0.62438
366.887,43.08116,-3.65629,0.80757,0.62419
367.387,43.12706,-3.67614,0.76591,0.62399
367.887,43.1729,-3.69104,0.7294,0.62379
368.387,43.21888,-3.70859,0.69443,0.6236
368.887,43.26488,-3.72473,0.65735,0.6234
369.387,43.31091,-3.74019,0.62134,0.6232
369.887,43.3568,-3.75525,0.59339,0.623
370.387,43.4026,-3.76606,0.56179,0.62281
370.887,43.44859,-3.77866,0.53078,0.62261
371.387,43.49454,-3.78926,0.50358,0.62241
371.887,43.54056,-3.80162,0.47555,0.62221
372.387,43.58652,-3.81017,0.45233,0.62201
372.887,43.63248,-3.81945,0.42834,0.62181
373.387,43.6785,-3.82826,0.40494,0.6216
373.887,43.72449,-3.83568,0.38598,0.6214
374.387,43.77053,-3.84339,0.36545,0.6212
374.887,43.81651,-3.84883,0.3463,0.621
375.387,43.86245,-3.85431,0.32855,0.6208
375.887,43.90847,-3.86019,0.30919,0.62059
376.387,43.95427,-3.86684,0.29768,0.62039
376.887,44.00022,-3.87322,0.27971,0.62019
377.387,44.04631,-3.87667,0.26639,0.61998
377.887,44.09239,-3.87867,0.25378,0.61978
378.387,44.13855,-3.88286,0.24338,0.61957
378.887,44.1846,-3.88591,0.23373,0.61937
379.387,44.23079,-3.89036,0.22395,0.61916
379.887,44.27691,-3.89177,0.21592,0.61896
380.387,44.32307,-3.89349,0.20692,0.61875
380.887,44.3693,-3.89519,0.20287,0.61854
381.387,44.4155,-3.89833,0.19749,0.61834
381.887,44.4616,-3.89986,0.19001,0.61813
382.387,44.50786,-3.90125,0.18339,0.61792
382.887,44.55403,-3.90454,0.18109,0.61771
383.387,44.60031,-3.90653,0.1785,0.6175
383.887,44.64647,-3.90785,0.17325,0.6173
384.387,44.69285,-3.90976,0.17065,0.61709
384.887,44.73919,-3.91228,0.16759,0.61688
385.387,44.78564,-3.91223,0.16745,0.61667
385.887,44.832,-3.91362,0.16084,0.61646
386.387,44.87839,-3.915,0.16151,0.61625
386.887,44.9248,-3.91762,0.15837,0.61604
387.387,44.9712,-3.91809,0.15785,0.61582
387.887,45.01769,-3.91944,0.15607,0.61561
388.387,45.0643,-3.91962,0.15569,0.6154
388.887,45.111,-3.92064,0.15443,0.61519
389.387,45.1578,-3.92212,0.15282,0.61498
389.887,45.20452,-3.92205,0.15346,0.61476
390.387,45.25108,-3.91567,0.15205,0.61455
390.887,45.29766,-3.93524,0.15225,0.61434
391.387,45.34426,-3.93013,0.15193,0.61412
391.887,45.39071,-3.9303,0.1507,0.61391
392.387,45.4373,-3.93059,0.15373,0.61369
392.887,45.48401,-3.92926,0.15173,0.61348
393.387,45.5306,-3.93213,0.15076,0.61326
393.887,45.5773,-3.93203,0.15209,0.61305
394.387,45.624,-3.93306,0.14871,0.61283
394.887,45.67058,-3.93324,0.15025,0.61261
395.387,45.7173,-3.93199,0.14954,0.6124
395.887,45.76395,-3.93337,0.15027,0.61218
396.387,45.81054,-3.93511,0.15092,0.61196
396.887,45.85719,-3.93719,0.14818,0.61175
397.387,45.90381,-3.9364,0.14796,0.61153
397.887,45.95058,-3.93621,0.14933,0.61131
398.387,45.99722,-3.93617,0.14921,0.61109
398.887,46.04402,-3.93892,0.15077,0.61087
399.387,46.09075,-3.93982,0.14672,0.61065
399.887,46.13743,-3.9401,0.14832,0.61043
400.387,46.1841,-3.94147,0.14755,0.61021
400.887,46.23109,-3.94147,0.14619,0.60999
401.387,46.27783,-3.94279,0.14505,0.60977
401.887,46.3247,-3.94408,0.14542,0.60955
402.387,46.3716,-3.94497,0.14526,0.60933
402.887,46.41832,-3.94552,0.14587,0.60911
403.387,46.4651,-3.94671,0.14369,0.60889
403.887,46.51182,-3.9481,0.1444,0.60867
404.387,46.55878,-3.94826,0.14334,0.60844
404.887,46.60572,-3.94955,0.14373,0.60822
405.387,46.6526,-3.94958,0.14414,0.608
405.887,46.69961,-3.95089,0.14448,0.60778
406.387,46.74667,-3.95081,0.14131,0.60755
406.887,46.79355,-3.95221,0.14303,0.60733
407.387,46.8405,-3.95266,0.14147,0.60711
407.887,46.8876,-3.95354,0.14019,0.60688
408.387,46.93465,-3.95398,0.14136,0.60666
408.887,46.98169,-3.94687,0.14099,0.60643
409.387,47.02848,-3.95704,0.13873,0.60621
409.887,47.07555,-3.96427,0.13989,0.60598
410.387,47.12273,-3.9602,0.14154,0.60576
410.887,47.1698,-3.95945,0.14107,0.60553
411.387,47.21693,-3.95898,0.14152,0.6053
411.887,47.26422,-3.95943,0.14158,0.60508
412.387,47.31126,-3.96028,0.14145,0.60485
412.887,47.35832,-3.96074,0.1402,0.60462
413.387,47.40547,-3.96146,0.14121,0.6044
413.887,47.45264,-3.96369,0.13934,0.60417
414.387,47.49981,-3.96472,0.1422,0.60394
414.887,47.54679,-3.96617,0.14076,0.60371
415.387,47.59398,-3.97514,0.1416,0.60348
415.887,47.64114,-3.95917,0.1392,0.60326
416.387,47.68805,-3.96397,0.13925,0.60303
416.887,47.735,-3.96714,0.13913,0.6028
417.387,47.78208,-3.96711,0.14038,0.60257
417.887,47.82922,-3.96976,0.13864,0.60234
418.387,47.8763,-3.97106,0.13948,0.60211
418.887,47.92382,-3.97107,0.14179,0.60188
419.387,47.97092,-3.97236,0.13978,0.60165
419.887,48.018,-3.97371,0.13806,0.60142
420.387,48.06519,-3.97371,0.13683,0.60119
420.887,48.11241,-3.97371,0.1385,0.60095
421.387,48.15964,-3.97503,0.13845,0.60072
421.887,48.20688,-3.97518,0.13685,0.60049
422.387,48.25401,-3.97497,0.13878,0.60026
422.887,48.3011,-3.97645,0.13715,0.60003
423.387,48.34835,-3.97646,0.13658,0.59979
423.887,48.39553,-3.97775,0.13892,0.59956
424.387,48.4428,-3.97908,0.13881,0.59933
424.887,48.49026,-3.97777,0.13959,0.59909
425.387,48.53758,-3.97908,0.13828,0.59886
425.887,48.585,-3.98044,0.13848,0.59863
426.387,48.63227,-3.98168,0.14005,0.59839
426.887,48.67954,-3.98207,0.13958,0.59816
427.387,48.72688,-3.98207,0.13813,0.59793
427.887,48.77428,-3.98389,0.13973,0.59769
428.387,48.8217,-3.98567,0.13792,0.59746
428.887,48.8691,-3.98566,0.13902,0.59722
429.387,48.91652,-3.98566,0.13812,0.59698
429.887,48.9639,-3.98691,0.14082,0.59675
430.387,49.01143,-3.98698,0.13942,0.59651
430.887,49.0589,-3.98828,0.13842,0.59628
431.387,49.10649,-3.98873,0.13724,0.59604
431.887,49.15399,-3.99014,0.14003,0.5958
432.387,49.20129,-3.99193,0.13579,0.59557
432.887,49.24859,-3.99323,0.13759,0.59533
433.387,49.29606,-3.99453,0.1386,0.59509
433.887,49.3434,-3.99323,0.1406,0.59486
434.387,49.39087,-3.99324,0.13609,0.59462
434.887,49.4384,-3.99455,0.13547,0.59438
435.387,49.486,-3.99457,0.1365,0.59414
435.887,49.53349,-3.99585,0.13446,0.59391
436.387,49.58096,-3.99719,0.13459,0.59367
436.887,49.6286,-3.99812,0.13635,0.59343
437.387,49.67608,-3.99862,0.13644,0.59319
437.887,49.72357,-3.99981,0.13467,0.59295
438.387,49.77128,-3.99979,0.1321,0.59271
438.887,49.8189,-4.00113,0.13528,0.59247
439.387,49.86639,-4.00114,0.13754,0.59223
439.887,49.91397,-4.00237,0.13468,0.59199
440.387,49.9615,-4.00113,0.13649,0.59175
440.887,50.009,-4.00178,0.13844,0.59151
441.387,50.05658,-4.00384,0.13728,0.59127
441.887,50.1042,-4.00388,0.13388,0.59103
442.387,50.15145,-4.00549,0.13619,0.59079
442.887,50.19905,-4.00673,0.13869,0.59055
443.387,50.2466,-4.00664,0.13677,0.59031
443.887,50.29415,-4.00799,0.13524,0.59007
444.387,50.3419,-4.00936,0.13656,0.58982
444.887,50.3896,-4.00934,0.13721,0.58958
445.387,50.4371,-4.00804,0.13833,0.58934
445.887,50.48469,-4.00805,0.13723,0.5891
446.387,50.53232,-4.00932,0.13889,0.58886
446.887,50.58005,-4.01259,0.1366,0.58861
447.387,50.62774,-4.01933,0.1378,0.58837
447.887,50.6753,-4.00631,0.138,0.58813
448.387,50.7226,-4.01126,0.13856,0.58788
448.887,50.7701,-4.01281,0.13844,0.58764
449.387,50.81785,-4.01528,0.13805,0.5874
449.887,50.86549,-4.01406,0.13802,0.58715
450.387,50.9133,-4.0154,0.13974,0.58691
450.887,50.9612,-4.01547,0.13849,0.58667
451.387,51.009,-4.0167,0.13884,0.58642
451.887,51.05686,-4.0167,0.14029,0.58618
452.387,51.10475,-4.01768,0.14192,0.58593
452.887,51.15271,-4.01769,0.13951,0.58569
453.387,51.20055,-4.01897,0.14044,0.58544
453.887,51.2485,-4.01908,0.13989,0.5852
454.387,51.29625,-4.02038,0.14026,0.58495
454.887,51.34428,-4.022,0.14205,0.58471
455.387,51.3924,-4.02175,0.14102,0.58446
455.887,51.44019,-4.02175,0.14165,0.58422
456.387,51.48795,-4.02307,0.14074,0.58397
456.887,51.53563,-4.02438,0.14057,0.58373
457.387,51.5835,-4.02434,0.1405,0.58348
457.887,51.63133,-4.0257,0.14175,0.58323
458.387,51.67927,-4.02701,0.14241,0.58299
458.887,51.72729,-4.02701,0.13995,0.58274
459.387,51.77507,-4.02837,0.13982,0.58249
459.887,51.82289,-4.0297,0.14113,0.58225
460.387,51.8709,-4.02965,0.14156,0.582
460.887,51.91854,-4.02965,0.14111,0.58175
461.387,51.9662,-4.03099,0.14162,0.58151
461.887,52.01406,-4.03096,0.14335,0.58126
462.387,52.06193,-4.03096,0.141,0.58101
462.887,52.11023,-4.03233,0.13948,0.58076
463.387,52.15817,-4.03229,0.1411,0.58052
463.887,52.20632,-4.03359,0.14078,0.58027
464.387,52.25411,-4.03361,0.13962,0.58002
464.887,52.30209,-4.03491,0.14064,0.57977
465.387,52.35003,-4.0349,0.13918,0.57952
465.887,52.3978,-4.03623,0.13944,0.57927
466.387,52.4458,-4.03509,0.13804,0.57903
466.887,52.4938,-4.03622,0.14066,0.57878
467.387,52.54166,-4.03621,0.14044,0.57853
467.887,52.5897,-4.03885,0.1408,0.57828
468.387,52.63769,-4.03879,0.14112,0.57803
468.887,52.6855,-4.03947,0.14285,0.57778
469.387,52.7335,-4.03952,0.14087,0.57753
469.887,52.7814,-4.04091,0.14086,0.57728
470.387,52.82917,-4.04116,0.13972,0.57703
470.887,52.877,-4.04328,0.13933,0.57678
471.387,52.925,-4.04281,0.13953,0.57653
471.887,52.97314,-4.04281,0.14037,0.57628
472.387,53.0212,-4.04279,0.14185,0.57603
472.887,53.0697,-4.04281,0.1442,0.57578
473.387,53.11776,-4.04281,0.143,0.57553
473.887,53.16591,-4.04385,0.14562,0.57528
474.387,53.2142,-4.0455,0.14305,0.57503
474.887,53.26242,-4.04545,0.14143,0.57478
475.387,53.3107,-4.04545,0.14373,0.57453
475.887,53.3589,-4.04676,0.14289,0.57428
476.387,53.40701,-4.04681,0.14293,0.57403
476.887,53.45522,-4.04671,0.14448,0.57378
477.387,53.50334,-4.04808,0.14228,0.57353
477.887,53.5516,-4.04808,0.14597,0.57327
478.387,53.59981,-4.04808,0.14582,0.57302
478.887,53.6482,-4.04939,0.14437,0.57277
479.387,53.6963,-4.04953,0.14762,0.57252
479.887,53.7446,-4.05071,0.14679,0.57227
480.387,53.7929,-4.05167,0.14586,0.57202
480.887,53.84097,-4.05202,0.15013,0.57176
481.387,53.8891,-4.05202,0.14695,0.57151
481.887,53.93735,-4.05062,0.14857,0.57126
482.387,53.9855,-4.05202,0.15235,0.57101
482.887,54.03369,-4.05304,0.15375,0.57076
483.387,54.08204,-4.05334,0.15143,0.5705
483.887,54.1303,-4.05341,0.15362,0.57025
484.387,54.1785,-4.05465,0.15329,0.57
484.887,54.2268,-4.05467,0.15447,0.56975
485.387,54.2751,-4.05597,0.15161,0.56949
485.887,54.3233,-4.05597,0.15306,0.56924
486.387,54.3716,-4.05738,0.15455,0.56899
486.887,54.42001,-4.05729,0.15569,0.56873
487.387,54.4682,-4.05729,0.15472,0.56848
487.887,54.5164,-4.05729,0.156,0.56823
488.387,54.5647,-4.05736,0.1581,0.56798
488.887,54.6131,-4.0586,0.15922,0.56772
489.387,54.66143,-4.05869,0.15897,0.56747
489.887,54.7098,-4.06003,0.15688,0.56722
490.387,54.7585,-4.06002,0.16136,0.56696
490.887,54.8068,-4.06002,0.16068,0.56671
491.387,54.8552,-4.06003,0.16131,0.56645
491.887,54.90361,-4.06003,0.16248,0.5662
492.387,54.95199,-4.0614,0.16326,0.56595
492.887,55.0004,-4.06135,0.16109,0.56569
493.387,55.0489,-4.06199,0.1613,0.56544
493.887,55.0973,-4.06267,0.16065,0.56519
494.387,55.1459,-4.06305,0.15728,0.56493
494.887,55.19441,-4.06398,0.1613,0.56468
495.387,55.24296,-4.06398,0.16165,0.56442
495.887,55.29153,-4.06398,0.16031,0.56417
496.387,55.3401,-4.06396,0.15998,0.56391
496.887,55.3886,-4.0653,0.16573,0.56366
497.387,55.4372,-4.0653,0.16293,0.56341
497.887,55.4858,-4.0653,0.16414,0.56315
498.387,55.5344,-4.06561,0.16545,0.5629
498.887,55.58282,-4.06562,0.16347,0.56264
499.387,55.63145,-4.06562,0.16472,0.56239
499.887,55.68005,-4.06631,0.16646,0.56213
500.387,55.72863,-4.06661,0.16375,0.56188
500.887,55.7773,-4.06661,0.16594,0.56162
501.387,55.8259,-4.06799,0.16575,0.56137
501.887,55.87444,-4.0693,0.1658,0.56111
502.387,55.92306,-4.06925,0.16551,0.56086
502.887,55.9716,-4.06852,0.16534,0.5606
503.387,56.02036,-4.06793,0.16453,0.56035
503.887,56.06906,-4.06924,0.16799,0.5601
504.387,56.1176,-4.07008,0.16589,0.55984
504.887,56.1662,-4.07056,0.16511,0.55959
505.387,56.21481,-4.07056,0.16355,0.55933
505.887,56.26333,-4.07056,0.16423,0.55907
506.387,56.31204,-4.06947,0.16486,0.55882
506.887,56.3609,-4.07087,0.16597,0.55856
507.387,56.40955,-4.0719,0.16479,0.55831
507.887,56.45828,-4.0722,0.16664,0.55805
508.387,56.50694,-4.07354,0.16016,0.5578
508.887,56.5556,-4.07352,0.16339,0.55754
509.387,56.6041,-4.07352,0.16231,0.55729
509.887,56.65265,-4.07348,0.16026,0.55703
510.387,56.7013,-4.07484,0.16025,0.55678
510.887,56.7498,-4.07616,0.16044,0.55652
511.387,56.7983,-4.07483,0.15903,0.55627
511.887,56.84701,-4.07485,0.16037,0.55601
512.387,56.8955,-4.07615,0.16163,0.55576
512.887,56.94424,-4.07606,0.15996,0.5555
513.387,56.993,-4.07747,0.15918,0.55524
513.887,57.0416,-4.07632,0.15947,0.55499
514.387,57.09019,-4.07722,0.1606,0.55473
514.887,57.13885,-4.07747,0.15894,0.55448
515.387,57.1875,-4.08012,0.15881,0.55422
515.887,57.23616,-4.07774,0.15538,0.55397
516.387,57.2848,-4.07747,0.15542,0.55371
516.887,57.33374,-4.07876,0.15713,0.55346
517.387,57.3824,-4.07878,0.15524,0.5532
517.887,57.4311,-4.07874,0.15775,0.55294
518.387,57.48013,-4.0801,0.15521,0.55269
518.887,57.5291,-4.08109,0.15666,0.55243
519.387,57.57813,-4.08084,0.1555,0.55218
519.887,57.62718,-4.07977,0.1547,0.55192
520.387,57.67612,-4.08107,0.15303,0.55167
520.887,57.72489,-4.08109,0.15414,0.55141
521.387,57.7737,-4.08037,0.15112,0.55115
521.887,57.8226,-4.08044,0.15333,0.5509
522.387,57.87141,-4.08098,0.15437,0.55064
522.887,57.92037,-4.08176,0.15429,0.55039
523.387,57.96909,-4.08307,0.15472,0.55013
523.887,58.01794,-4.08301,0.15384,0.54988
524.387,58.06666,-4.08438,0.15267,0.54962
524.887,58.1154,-4.08438,0.15019,0.54937
525.387,58.16437,-4.08302,0.1491,0.54911
525.887,58.21346,-4.08307,0.14864,0.54885
526.387,58.26271,-4.08296,0.14927,0.5486
526.887,58.3118,-4.08406,0.14636,0.54834
527.387,58.36099,-4.08405,0.14676,0.54809
527.887,58.41015,-4.0854,0.14625,0.54783
528.387,58.4592,-4.08537,0.14664,0.54758
528.887,58.50813,-4.0843,0.14717,0.54732
529.387,58.55718,-4.08537,0.14511,0.54707
529.887,58.60621,-4.08645,0.14481,0.54681
530.387,58.65529,-4.08737,0.14583,0.54655
530.887,58.70443,-4.08734,0.15005,0.5463
531.387,58.7536,-4.08632,0.15012,0.54604
531.887,58.80262,-4.08685,0.14934,0.54579
532.387,58.8517,-4.08931,0.14812,0.54553
532.887,58.9009,-4.08802,0.1508,0.54528
533.387,58.95,-4.088,0.14657,0.54502
533.887,58.99904,-4.088,0.14477,0.54477
534.387,59.048,-4.088,0.14667,0.54451
534.887,59.097,-4.088,0.14767,0.54426
535.387,59.1461,-4.088,0.14564,0.544
535.887,59.19511,-4.088,0.14394,0.54375
536.387,59.24416,-4.08953,0.14155,0.54349
536.887,59.2933,-4.08989,0.14423,0.54324
537.387,59.34244,-4.08943,0.14156,0.54298
537.887,59.3915,-4.08939,0.14333,0.54273
538.387,59.44059,-4.09074,0.14286,0.54247
538.887,59.48952,-4.09074,0.14073,0.54222
539.387,59.53849,-4.09074,0.14234,0.54196
539.887,59.58739,-4.09022,0.1401,0.54171
540.387,59.63644,-4.09078,0.14023,0.54145
540.887,59.6856,-4.09075,0.13967,0.5412
541.387,59.7348,-4.09145,0.13934,0.54094
541.887,59.78405,-4.09239,0.13976,0.54069
542.387,59.8333,-4.09288,0.13787,0.54043
542.887,59.8824,-4.09241,0.13752,0.54018
543.387,59.9314,-4.09305,0.1386,0.53992
543.887,59.98059,-4.09305,0.1358,0.53967
544.387,60.02966,-4.09305,0.13646,0.53941
544.887,60.0789,-4.09305,0.13879,0.53916
545.387,60.12817,-4.093,0.13675,0.5389
545.887,60.1774,-4.09437,0.1331,0.53865
546.387,60.2266,-4.09437,0.13535,0.5384
546.887,60.2758,-4.09437,0.13373,0.53814
547.387,60.32487,-4.09307,0.13444,0.53789
547.887,60.3741,-4.09306,0.13531,0.53763
548.387,60.42334,-4.09435,0.13569,0.53738
548.887,60.4726,-4.09432,0.13673,0.53712
549.387,60.5219,-4.09535,0.13486,0.53687
549.887,60.57114,-4.0954,0.13578,0.53662
550.387,60.6204,-4.09706,0.13808,0.53636
550.887,60.66949,-4.097,0.13577,0.53611
551.387,60.7186,-4.097,0.13601,0.53585
551.887,60.7678,-4.09706,0.13769,0.5356
552.387,60.81686,-4.0957,0.13217,0.53535
552.887,60.8663,-4.097,0.13425,0.53509
553.387,60.9157,-4.09697,0.13009,0.53484
553.887,60.96507,-4.09568,0.13518,0.53459
554.387,61.0146,-4.09563,0.13335,0.53433
554.887,61.06389,-4.09829,0.1304,0.53408
555.387,61.1132,-4.09769,0.13264,0.53383
555.887,61.16267,-4.09731,0.13362,0.53357
556.387,61.21199,-4.09831,0.13385,0.53332
556.887,61.2615,-4.09832,0.13041,0.53307
557.387,61.31111,-4.09977,0.13103,0.53281
557.887,61.36056,-4.09996,0.13271,0.53256
558.387,61.4101,-4.09859,0.13152,0.53231
558.887,61.4595,-4.09863,0.13167,0.53206
559.387,61.509,-4.10127,0.132,0.5318
559.887,61.5584,-4.1026,0.13222,0.53155
560.387,61.60793,-4.10259,0.13197,0.5313
560.887,61.6574,-4.10259,0.13449,0.53105
561.387,61.70675,-4.1026,0.13509,0.53079
561.887,61.7562,-4.10162,0.1342,0.53054
562.387,61.80588,-4.10289,0.13539,0.53029
562.887,61.8555,-4.10292,0.13788,0.53004
563.387,61.90514,-4.1026,0.13701,0.52978
563.887,61.9545,-4.10259,0.1381,0.52953
564.387,62.004,-4.10257,0.13813,0.52928
564.887,62.0537,-4.10325,0.13959,0.52903
565.387,62.10337,-4.10325,0.13905,0.52878
565.887,62.15342,-4.10325,0.13888,0.52853
566.387,62.20312,-4.10388,0.13668,0.52827
566.887,62.25249,-4.10389,0.13893,0.52802
567.387,62.30202,-4.10486,0.13549,0.52777
567.887,62.3512,-4.10488,0.13867,0.52752
568.387,62.4005,-4.10358,0.1387,0.52727
568.887,62.45021,-4.10358,0.13565,0.52702
569.387,62.49977,-4.10358,0.13823,0.52677
569.887,62.5496,-4.10358,0.13701,0.52652
570.387,62.59944,-4.1049,0.1383,0.52627
570.887,62.64903,-4.1049,0.13619,0.52601
571.387,62.69855,-4.1049,0.13539,0.52576
571.887,62.748,-4.1049,0.13617,0.52551
572.387,62.7975,-4.1049,0.13572,0.52526
572.887,62.84701,-4.1049,0.13941,0.52501
573.387,62.89654,-4.10507,0.14125,0.52476
573.887,62.94602,-4.10494,0.14151,0.52451
574.387,62.9956,-4.10368,0.13945,0.52426
574.887,63.04506,-4.10489,0.14198,0.52401
575.387,63.0945,-4.10484,0.14175,0.52376
575.887,63.144,-4.10621,0.14281,0.52351
576.387,63.1937,-4.10621,0.13958,0.52326
576.887,63.2434,-4.10621,0.14052,0.52301
577.387,63.2931,-4.10621,0.14194,0.52276
577.887,63.343,-4.10606,0.14438,0.52252
578.387,63.39277,-4.1062,0.14335,0.52227
578.887,63.44255,-4.1062,0.14432,0.52202
579.387,63.49221,-4.1062,0.14653,0.52177
579.887,63.54181,-4.10761,0.1468,0.52152
580.387,63.5914,-4.10886,0.14713,0.52127
580.887,63.64091,-4.10764,0.14499,0.52102
581.387,63.6906,-4.10884,0.1451,0.52077
581.887,63.74038,-4.10884,0.1459,0.52053
582.387,63.79015,-4.10851,0.14694,0.52028
582.887,63.84,-4.10852,0.14668,0.52003
583.387,63.8897,-4.10757,0.14647,0.51978
583.887,63.93931,-4.10852,0.14748,0.51953
584.387,63.98904,-4.10852,0.15031,0.51929
584.887,64.03875,-4.10983,0.14921,0.51904
585.387,64.08855,-4.10983,0.14795,0.51879
585.887,64.1382,-4.10983,0.14981,0.51854
586.387,64.18799,-4.10983,0.15234,0.5183
586.887,64.23786,-4.10983,0.15075,0.51805
587.387,64.28772,-4.10983,0.14982,0.5178
587.887,64.33754,-4.11103,0.15156,0.51755
588.387,64.3874,-4.11115,0.15197,0.51731
588.887,64.4371,-4.11113,0.15469,0.51706
589.387,64.4867,-4.11016,0.1541,0.51681
589.887,64.53633,-4.11016,0.15354,0.51657
590.387,64.58609,-4.11002,0.15653,0.51632
590.887,64.63591,-4.10884,0.15824,0.51608
591.387,64.68581,-4.10984,0.15787,0.51583
591.887,64.73578,-4.10983,0.16025,0.51558
592.387,64.78565,-4.10984,0.16253,0.51534
592.887,64.83555,-4.11113,0.16184,0.51509
593.387,64.88545,-4.11114,0.16503,0.51485
593.887,64.93534,-4.11072,0.16303,0.5146
594.387,64.98525,-4.11049,0.16497,0.51436
594.887,65.03516,-4.11179,0.16674,0.51411
595.387,65.08497,-4.11255,0.16946,0.51387
595.887,65.13476,-4.11279,0.16771,0.51362
596.387,65.1845,-4.11317,0.16559,0.51338
596.887,65.2342,-4.11443,0.16552,0.51313
597.387,65.28401,-4.11444,0.16623,0.51289
597.887,65.3339,-4.11455,0.16333,0.51264
598.387,65.3839,-4.11442,0.16483,0.5124
598.887,65.43387,-4.11507,0.16387,0.51215
599.387,65.48391,-4.11509,0.16615,0.51191
599.887,65.53386,-4.11509,0.1646,0.51167
600.387,65.58375,-4.11509,0.16502,0.51142
600.887,65.63376,-4.11509,0.16459,0.51118
601.387,65.68358,-4.11513,0.168,0.51094
601.887,65.73358,-4.11378,0.16848,0.51069
602.387,65.7835,-4.11378,0.17024,0.51045
602.887,65.8334,-4.11386,0.1729,0.51021
603.387,65.88342,-4.1127,0.17066,0.50997
603.887,65.93327,-4.11477,0.16988,0.50972
604.387,65.98321,-4.11476,0.17335,0.50948
604.887,66.03322,-4.11468,0.17535,0.50924
605.387,66.08332,-4.11609,0.17306,0.509
605.887,66.13345,-4.11617,0.17349,0.50875
606.387,66.1835,-4.11608,0.17227,0.50851
606.887,66.23359,-4.11608,0.17242,0.50827
607.387,66.28352,-4.11466,0.17418,0.50803
607.887,66.3335,-4.11476,0.17799,0.50779
608.387,66.38345,-4.11476,0.18036,0.50755
608.887,66.4336,-4.11476,0.17978,0.50731
609.387,66.4837,-4.11476,0.18295,0.50706
609.887,66.5338,-4.11347,0.18282,0.50682
610.387,66.5839,-4.11493,0.18366,0.50658
610.887,66.63396,-4.11758,0.18193,0.50634
611.387,66.68414,-4.11751,0.18203,0.5061
611.887,66.73422,-4.11751,0.18457,0.50586
612.387,66.7843,-4.11751,0.18367,0.50562
612.887,66.8343,-4.11749,0.18751,0.50538
613.387,66.8844,-4.11619,0.186,0.50514
613.887,66.93449,-4.11619,0.189,0.5049
614.387,66.98439,-4.11619,0.19176,0.50466
614.887,67.03449,-4.11726,0.19258,0.50442
615.387,67.08455,-4.11755,0.19324,0.50419
615.887,67.13465,-4.11619,0.19468,0.50395
616.387,67.18491,-4.11619,0.19484,0.50371
616.887,67.235,-4.11619,0.19785,0.50347
617.387,67.28488,-4.1161,0.20043,0.50323
617.887,67.33495,-4.11487,0.20041,0.50299
618.387,67.38507,-4.11617,0.20271,0.50276
618.887,67.4353,-4.1176,0.19834,0.50252
619.387,67.48567,-4.11762,0.20425,0.50228
619.887,67.53602,-4.11762,0.20583,0.50204
620.387,67.5862,-4.11763,0.20699,0.50181
620.887,67.63625,-4.11893,0.20543,0.50157
621.387,67.6863,-4.11895,0.206,0.50133
621.887,67.73623,-4.12034,0.20545,0.50109
622.387,67.78644,-4.11879,0.20863,0.50086
622.887,67.83672,-4.11827,0.21075,0.50062
623.387,67.887,-4.11959,0.20954,0.50038
623.887,67.93738,-4.1209,0.20907,0.50015
624.387,67.98764,-4.1209,0.2129,0.49991
624.887,68.03788,-4.1209,0.21294,0.49968
625.387,68.0881,-4.1209,0.21656,0.49944
625.887,68.1383,-4.12088,0.21686,0.49921
626.387,68.18841,-4.12222,0.21497,0.49897
626.887,68.23833,-4.12091,0.21757,0.49874
627.387,68.2885,-4.12063,0.21615,0.4985
627.887,68.3388,-4.11959,0.21577,0.49827
628.387,68.3891,-4.11959,0.21755,0.49803
628.887,68.43965,-4.12054,0.2199,0.4978
629.387,68.49001,-4.11959,0.21885,0.49756
629.887,68.5403,-4.11959,0.21786,0.49733
630.387,68.59066,-4.11958,0.2197,0.49709
630.887,68.6409,-4.1209,0.21868,0.49686
631.387,68.69107,-4.12088,0.21897,0.49663
631.887,68.74129,-4.11856,0.22179,0.49639
632.387,68.79162,-4.1197,0.22263,0.49616
632.887,68.84196,-4.11964,0.22522,0.49593
633.387,68.89241,-4.12165,0.22212,0.4957
633.887,68.9428,-4.12168,0.22147,0.49546
634.387,68.99314,-4.12297,0.22331,0.49523
634.887,69.04352,-4.12196,0.22488,0.495
635.387,69.094,-4.12126,0.22556,0.49477
635.887,69.1446,-4.1197,0.22338,0.49453
636.387,69.19504,-4.12097,0.2301,0.4943
636.887,69.24548,-4.12235,0.22497,0.49407
637.387,69.2958,-4.12234,0.22927,0.49384
637.887,69.34617,-4.12235,0.2328,0.49361
638.387,69.39626,-4.12102,0.2314,0.49338
638.887,69.44665,-4.12101,0.23176,0.49315
639.387,69.49706,-4.12235,0.23546,0.49292
639.887,69.5474,-4.12152,0.23369,0.49269
640.387,69.59804,-4.12233,0.23389,0.49246
640.887,69.64846,-4.12234,0.23518,0.49223
641.387,69.69881,-4.12365,0.23407,0.492
641.887,69.74925,-4.12497,0.23632,0.49177
642.387,69.79982,-4.12497,0.23896,0.49154
642.887,69.85021,-4.12296,0.2417,0.49131
643.387,69.9008,-4.12234,0.23899,0.49108
643.887,69.9511,-4.12233,0.23645,0.49085
644.287,69.99169,-4.12233,0.24263,0.49067