File: 01_Data/Cotton_Shirt/STA/N2/10K_min/Cotton_Shirt_STA_N2_10KData_21267_R3.csv
##Temp./Â°C,Time/min,Mass loss(subtr.2)/mg,DSC(subtr.2)/(mW/mg),Sensit./(uV/mW)
49.232,10.01,-0.02808,-0.05336118,0.61827
49.832,11.39054,-0.03017866,-0.04306396,0.61859
50.432,11.73634,-0.03111099,-0.03037808,0.6189
51.032,11.9838,-0.03203683,-0.02104297,0.61922
51.632,12.18574,-0.03213551,-0.01209453,0.61954
52.232,12.3607,-0.03270101,-0.008100916,0.61985
52.832,12.51784,-0.03397888,0.001287691,0.62016
53.432,12.66275,-0.03223879,0.01162651,0.62048
54.032,12.79838,-0.03477295,0.0133954,0.62079
54.632,12.92596,-0.03388882,0.02080952,0.6211
55.232,13.0486,-0.04137889,0.02131561,0.62141
55.832,13.1663,-0.04390209,0.03092147,0.62171
56.432,13.2793,-0.03519924,0.03202095,0.62202
57.032,13.3893,-0.03675808,0.04032162,0.62232
57.632,13.49705,-0.03587278,0.04254829,0.62263
58.232,13.6008,-0.03734876,0.04600779,0.62293
58.832,13.7029,-0.03423802,0.04866519,0.62323
59.432,13.8039,-0.03542156,0.05168595,0.62353
60.032,13.90226,-0.03734004,0.05374989,0.62383
60.632,13.9985,-0.03581755,0.06036322,0.62412
61.232,14.0932,-0.03947501,0.06428473,0.62442
61.832,14.18595,-0.03957546,0.06535243,0.62471
62.432,14.27765,-0.03961649,0.07147885,0.62501
63.032,14.3677,-0.04092497,0.07661261,0.6253
63.632,14.45696,-0.04209039,0.07883026,0.62559
64.232,14.54514,-0.04099344,0.08036418,0.62588
64.832,14.63215,-0.0428774,0.08325805,0.62617
65.432,14.71729,-0.04232382,0.08678932,0.62645
66.032,14.80161,-0.04234927,0.09416265,0.62674
66.632,14.8853,-0.04233605,0.09651948,0.62702
67.232,14.9688,-0.04365958,0.09886328,0.62731
67.832,15.05062,-0.04364949,0.10484,0.62759
68.432,15.1315,-0.0450305,0.10355,0.62787
69.032,15.21221,-0.04497077,0.10912,0.62815
69.632,15.29156,-0.0462903,0.11165,0.62842
70.232,15.3706,-0.0449832,0.11279,0.6287
70.832,15.4483,-0.0451942,0.1152,0.62898
71.432,15.52545,-0.04651041,0.12013,0.62925
72.032,15.60185,-0.0478076,0.12312,0.62952
72.632,15.67772,-0.0491402,0.12558,0.6298
73.232,15.75324,-0.04991755,0.12733,0.63007
73.832,15.8277,-0.05046315,0.13068,0.63034
74.432,15.90221,-0.05045997,0.13267,0.6306
75.032,15.9766,-0.04921496,0.13574,0.63087
75.632,16.04999,-0.05046,0.13692,0.63114
76.232,16.12312,-0.05110111,0.13906,0.6314
76.832,16.19529,-0.05261018,0.14231,0.63166
77.432,16.26725,-0.05397021,0.14506,0.63192
78.032,16.3385,-0.05533528,0.14693,0.63218
78.632,16.40945,-0.05507152,0.14731,0.63244
79.232,16.47985,-0.05507001,0.14842,0.6327
79.832,16.54955,-0.05540125,0.14871,0.63296
80.432,16.61893,-0.0567101,0.15153,0.63321
81.032,16.68815,-0.05670998,0.15355,0.63347
81.632,16.75711,-0.05820414,0.15577,0.63372
82.232,16.82556,-0.05814,0.15852,0.63397
82.832,16.8938,-0.05885738,0.15836,0.63422
83.432,16.96181,-0.05945001,0.1598,0.63447
84.032,17.02949,-0.06044903,0.16182,0.63472
84.632,17.09666,-0.05945025,0.16158,0.63496
85.232,17.16336,-0.06064428,0.16472,0.63521
85.832,17.2298,-0.06208956,0.16519,0.63545
86.432,17.29584,-0.06211541,0.16634,0.6357
87.032,17.36158,-0.06339994,0.16842,0.63594
87.632,17.42689,-0.06281266,0.1659,0.63618
88.232,17.49193,-0.06417959,0.16475,0.63642
88.832,17.55696,-0.0654803,0.16564,0.63665
89.432,17.62163,-0.06548,0.16628,0.63689
90.032,17.68665,-0.06548046,0.16577,0.63713
90.632,17.75044,-0.06615789,0.16673,0.63736
91.232,17.8141,-0.06679996,0.16797,0.63759
91.832,17.8777,-0.06726696,0.16669,0.63782
92.432,17.9408,-0.06812023,0.1657,0.63805
93.032,18.00382,-0.06943718,0.16459,0.63828
93.632,18.06677,-0.07139888,0.16588,0.63851
94.232,18.12979,-0.07141003,0.1667,0.63874
94.832,18.19237,-0.07144922,0.16718,0.63896
95.432,18.25491,-0.07141002,0.1663,0.63918
96.032,18.31702,-0.07141176,0.16477,0.63941
96.632,18.37904,-0.0726875,0.16477,0.63963
97.232,18.44097,-0.07535549,0.16401,0.63985
97.832,18.50251,-0.07403995,0.16175,0.64007
98.432,18.56397,-0.07565545,0.16059,0.64028
99.032,18.62521,-0.07551015,0.15865,0.6405
99.632,18.6863,-0.07557479,0.15839,0.64071
100.232,18.7473,-0.07557008,0.1569,0.64093
100.832,18.80816,-0.07627644,0.1545,0.64114
101.432,18.86875,-0.07821018,0.1556,0.64135
102.032,18.92901,-0.07821,0.15399,0.64156
102.632,18.9894,-0.07821001,0.14974,0.64177
103.232,19.0497,-0.07821256,0.14982,0.64198
103.832,19.1099,-0.07953003,0.15003,0.64218
104.432,19.17001,-0.07953001,0.14737,0.64239
105.032,19.23013,-0.07821108,0.14762,0.64259
105.632,19.2902,-0.07821089,0.1461,0.64279
106.232,19.35008,-0.07952002,0.14082,0.64299
106.832,19.4099,-0.07951807,0.14193,0.64319
107.432,19.46951,-0.07854376,0.14077,0.64339
108.032,19.52885,-0.07985083,0.13552,0.64359
108.632,19.588,-0.07985011,0.13805,0.64378
109.232,19.64701,-0.08054142,0.13315,0.64398
109.832,19.70608,-0.08113461,0.13371,0.64417
110.432,19.76549,-0.08116999,0.13306,0.64436
111.032,19.82461,-0.08117001,0.12944,0.64456
111.632,19.88361,-0.0811887,0.13004,0.64474
112.232,19.94237,-0.08249043,0.12642,0.64493
112.832,20.00125,-0.08249603,0.12739,0.64512
113.432,20.06,-0.08381,0.12375,0.64531
114.032,20.1187,-0.0838094,0.12512,0.64549
114.632,20.17744,-0.08246295,0.12286,0.64567
115.232,20.23592,-0.08344399,0.12069,0.64586
115.832,20.29441,-0.08379987,0.12278,0.64604
116.432,20.35254,-0.08380008,0.12208,0.64622
117.032,20.41084,-0.08386196,0.12238,0.64639
117.632,20.46901,-0.08379931,0.12205,0.64657
118.232,20.52704,-0.0838,0.11964,0.64675
118.832,20.5851,-0.0837965,0.11856,0.64692
119.432,20.64309,-0.08510646,0.12063,0.64709
120.032,20.70092,-0.08512016,0.11904,0.64727
120.632,20.75891,-0.08639077,0.11924,0.64744
121.232,20.81675,-0.08643037,0.12166,0.64761
121.832,20.87436,-0.08514561,0.12131,0.64777
122.432,20.93188,-0.08510794,0.12057,0.64794
123.032,20.98934,-0.08377697,0.11764,0.64811
123.632,21.0468,-0.08511991,0.11832,0.64827
124.232,21.10428,-0.08512,0.11752,0.64843
124.832,21.16165,-0.08511882,0.11926,0.6486
125.432,21.21888,-0.08645457,0.11893,0.64876
126.032,21.27595,-0.08512149,0.11699,0.64892
126.632,21.333,-0.08508836,0.11986,0.64907
127.232,21.38999,-0.08644008,0.12127,0.64923
127.832,21.447,-0.0877589,0.1212,0.64939
128.432,21.5038,-0.0864319,0.12277,0.64954
129.032,21.5606,-0.08604848,0.11942,0.64969
129.632,21.61741,-0.08650289,0.12297,0.64985
130.232,21.67401,-0.08775365,0.12074,0.65
130.832,21.73069,-0.08640556,0.1217,0.65015
131.432,21.7873,-0.08644182,0.12286,0.65029
132.032,21.8438,-0.08776707,0.12261,0.65044
132.632,21.90015,-0.08775848,0.12303,0.65059
133.232,21.95647,-0.08677084,0.1231,0.65073
133.832,22.01264,-0.08677,0.12763,0.65087
134.432,22.069,-0.08676998,0.12407,0.65101
135.032,22.1251,-0.08667841,0.12624,0.65116
135.632,22.18123,-0.08804886,0.1249,0.65129
136.232,22.23713,-0.08655673,0.12641,0.65143
136.832,22.29301,-0.08643067,0.1255,0.65157
137.432,22.3487,-0.08770018,0.12643,0.65171
138.032,22.4043,-0.08774993,0.13001,0.65184
138.632,22.4599,-0.08775,0.12709,0.65197
139.232,22.51533,-0.08864495,0.12946,0.6521
139.832,22.57094,-0.08906994,0.12565,0.65224
140.432,22.62646,-0.08895383,0.1279,0.65236
141.032,22.68197,-0.08775754,0.12913,0.65249
141.632,22.7374,-0.08907366,0.12705,0.65262
142.232,22.79283,-0.08907,0.12897,0.65275
142.832,22.8482,-0.08907,0.12933,0.65287
143.432,22.90322,-0.08907,0.13015,0.65299
144.032,22.95843,-0.08907,0.131,0.65312
144.632,23.01351,-0.08907,0.13337,0.65324
145.232,23.0687,-0.08906941,0.13194,0.65336
145.832,23.12355,-0.08769833,0.13352,0.65347
146.432,23.17839,-0.08776161,0.13358,0.65359
147.032,23.2332,-0.08874115,0.13231,0.65371
147.632,23.28815,-0.08873803,0.13237,0.65382
148.232,23.3431,-0.0890769,0.13281,0.65393
148.832,23.39771,-0.08774669,0.13162,0.65405
149.432,23.45223,-0.08772699,0.13085,0.65416
150.032,23.50671,-0.08906244,0.12967,0.65427
150.632,23.56145,-0.08906,0.13169,0.65438
151.232,23.61611,-0.089053,0.13188,0.65448
151.832,23.67088,-0.09037917,0.13171,0.65459
152.432,23.72543,-0.09036407,0.13528,0.65469
153.032,23.77995,-0.08940004,0.1357,0.6548
153.632,23.83429,-0.0894,0.13765,0.6549
154.232,23.88865,-0.0894,0.13721,0.655
154.832,23.94314,-0.08940883,0.13736,0.6551
155.432,23.99768,-0.0907136,0.13806,0.6552
156.032,24.05232,-0.09071999,0.13904,0.6553
156.632,24.10679,-0.09072,0.1405,0.65539
157.232,24.1612,-0.09072044,0.14123,0.65549
157.832,24.2156,-0.09200701,0.14066,0.65558
158.432,24.27,-0.09071936,0.14181,0.65567
159.032,24.32443,-0.09057687,0.14239,0.65577
159.632,24.3788,-0.09038327,0.14313,0.65586
160.232,24.4332,-0.09038295,0.14362,0.65594
160.832,24.48751,-0.0908344,0.14616,0.65603
161.432,24.54205,-0.09170019,0.14213,0.65612
162.032,24.59662,-0.09175146,0.1431,0.6562
162.632,24.65104,-0.09038055,0.14406,0.65629
163.232,24.70531,-0.0902363,0.14572,0.65637
163.832,24.75946,-0.09302054,0.14506,0.65645
164.432,24.8137,-0.09172611,0.14466,0.65653
165.032,24.86805,-0.09170005,0.14742,0.65661
165.632,24.92213,-0.09178832,0.14758,0.65669
166.232,24.97648,-0.09300933,0.14787,0.65677
166.832,25.0306,-0.0930203,0.14957,0.65684
167.432,25.0848,-0.09169952,0.14887,0.65692
168.032,25.1392,-0.0917,0.15039,0.65699
168.632,25.19342,-0.09170137,0.15104,0.65706
169.232,25.24771,-0.09291453,0.14845,0.65713
169.832,25.30184,-0.09432921,0.15162,0.6572
170.432,25.35612,-0.09303995,0.15323,0.65727
171.032,25.41028,-0.09302,0.152,0.65734
171.632,25.46432,-0.09302,0.15533,0.6574
172.232,25.51839,-0.09301965,0.15132,0.65747
172.832,25.57248,-0.09417643,0.15248,0.65753
173.432,25.6265,-0.09434002,0.15638,0.65759
174.032,25.68072,-0.09434,0.15571,0.65766
174.632,25.73495,-0.09434487,0.15519,0.65772
175.232,25.78915,-0.09364167,0.15352,0.65777
175.832,25.84327,-0.09499004,0.15951,0.65783
176.432,25.89721,-0.09456677,0.15752,0.65789
177.032,25.95104,-0.09367981,0.15716,0.65794
177.632,26.0049,-0.09394027,0.15637,0.658
178.232,26.05891,-0.09498954,0.15909,0.65805
178.832,26.11295,-0.09427986,0.15914,0.6581
179.432,26.1668,-0.09302119,0.15914,0.65815
180.032,26.2208,-0.093022,0.16059,0.6582
180.632,26.27471,-0.09431673,0.16064,0.65825
181.232,26.32862,-0.09433074,0.16248,0.6583
181.832,26.38277,-0.09533576,0.16398,0.65834
182.432,26.4366,-0.09531999,0.1651,0.65839
183.032,26.49053,-0.09532,0.16401,0.65843
183.632,26.5443,-0.09530545,0.16365,0.65847
184.232,26.59797,-0.09398777,0.16531,0.65852
184.832,26.6516,-0.09399999,0.16522,0.65856
185.432,26.7052,-0.09400001,0.16733,0.65859
186.032,26.75869,-0.09399576,0.16782,0.65863
186.632,26.81232,-0.09531789,0.16669,0.65867
187.232,26.86583,-0.09392349,0.16321,0.6587
187.832,26.9194,-0.0942203,0.16254,0.65874
188.432,26.973,-0.09563387,0.16225,0.65877
189.032,27.0263,-0.0955399,0.16831,0.6588
189.632,27.07995,-0.09554013,0.16645,0.65883
190.232,27.13348,-0.09653441,0.16818,0.65886
190.832,27.18696,-0.09653086,0.16913,0.65889
191.432,27.24053,-0.09650735,0.16663,0.65892
192.032,27.2938,-0.09652006,0.16872,0.65894
192.632,27.34739,-0.09652,0.16859,0.65897
193.232,27.40098,-0.09652,0.16886,0.65899
193.832,27.4546,-0.09652129,0.16914,0.65901
194.432,27.5083,-0.09695146,0.16715,0.65904
195.032,27.5619,-0.09808634,0.16903,0.65906
195.632,27.6154,-0.09725566,0.16822,0.65907
196.232,27.66897,-0.09806142,0.16974,0.65909
196.832,27.7223,-0.09806,0.1709,0.65911
197.432,27.7756,-0.09806,0.17,0.65913
198.032,27.82896,-0.09806,0.17075,0.65914
198.632,27.88233,-0.09806,0.16968,0.65915
199.232,27.93582,-0.09806,0.17248,0.65917
199.832,27.9894,-0.09806,0.17206,0.65918
200.432,28.0428,-0.09806245,0.17362,0.65919
201.032,28.09617,-0.09903745,0.17503,0.65919
201.632,28.14948,-0.09905,0.17349,0.6592
202.232,28.20277,-0.09904862,0.17346,0.65921
202.832,28.2562,-0.09936304,0.17291,0.65921
203.432,28.30975,-0.09937,0.1723,0.65922
204.032,28.36321,-0.09937065,0.17529,0.65922
204.632,28.41664,-0.10053,0.17471,0.65922
205.232,28.47,-0.10069,0.17516,0.65922
205.832,28.5233,-0.10069,0.17649,0.65922
206.432,28.5768,-0.10069,0.17804,0.65922
207.032,28.63027,-0.10069,0.17408,0.65922
207.632,28.68342,-0.10069,0.1735,0.65922
208.232,28.7368,-0.10207,0.17642,0.65921
208.832,28.79025,-0.10201,0.17859,0.65921
209.432,28.84351,-0.10201,0.17876,0.6592
210.032,28.89712,-0.10201,0.17755,0.65919
210.632,28.95065,-0.10201,0.17896,0.65918
211.232,29.00392,-0.10127,0.1803,0.65917
211.832,29.05735,-0.10069,0.1795,0.65916
212.432,29.11086,-0.10201,0.18042,0.65915
213.032,29.16429,-0.10201,0.17716,0.65913
213.632,29.2177,-0.10201,0.17887,0.65912
214.232,29.271,-0.10199,0.17947,0.6591
214.832,29.32433,-0.10332,0.17958,0.65909
215.432,29.3776,-0.10332,0.17831,0.65907
216.032,29.43099,-0.10332,0.18048,0.65905
216.632,29.4843,-0.10332,0.1813,0.65903
217.232,29.5377,-0.10332,0.17723,0.65901
217.832,29.59122,-0.10233,0.18017,0.65898
218.432,29.64465,-0.10202,0.18244,0.65896
219.032,29.6983,-0.10202,0.17917,0.65894
219.632,29.75178,-0.10313,0.1795,0.65891
220.232,29.80517,-0.10328,0.18126,0.65888
220.832,29.8586,-0.10464,0.18102,0.65885
221.432,29.91215,-0.10605,0.18272,0.65883
222.032,29.9656,-0.10464,0.18323,0.6588
222.632,30.019,-0.10592,0.18264,0.65876
223.232,30.07256,-0.10597,0.18433,0.65873
223.832,30.12588,-0.10594,0.18428,0.6587
224.432,30.17933,-0.10596,0.1813,0.65866
225.032,30.23283,-0.10729,0.18547,0.65863
225.632,30.28626,-0.10727,0.18371,0.65859
226.232,30.33967,-0.10892,0.18531,0.65855
226.832,30.39315,-0.10892,0.18344,0.65852
227.432,30.4467,-0.10857,0.18615,0.65848
228.032,30.50017,-0.10859,0.18335,0.65843
228.632,30.5537,-0.10859,0.18357,0.65839
229.232,30.60718,-0.10859,0.18327,0.65835
229.832,30.6607,-0.10931,0.18368,0.65831
230.432,30.7143,-0.11024,0.18487,0.65826
231.032,30.76792,-0.11024,0.18145,0.65821
231.632,30.82157,-0.11024,0.18235,0.65817
232.232,30.87524,-0.11024,0.18472,0.65812
232.832,30.9287,-0.11025,0.18329,0.65807
233.432,30.98211,-0.11122,0.18553,0.65802
234.032,31.03545,-0.11195,0.18248,0.65797
234.632,31.089,-0.11382,0.18186,0.65791
235.232,31.14272,-0.11386,0.18095,0.65786
235.832,31.1966,-0.11386,0.18027,0.65781
236.432,31.25023,-0.11386,0.18037,0.65775
237.032,31.30381,-0.11384,0.17773,0.65769
237.632,31.35724,-0.11519,0.17556,0.65764
238.232,31.4106,-0.11649,0.17987,0.65758
238.832,31.46423,-0.11649,0.17991,0.65752
239.432,31.5177,-0.11763,0.17519,0.65746
240.032,31.5714,-0.11912,0.17736,0.65739
240.632,31.625,-0.11914,0.17616,0.65733
241.232,31.67868,-0.11682,0.17525,0.65727
241.832,31.7325,-0.11692,0.17458,0.6572
242.432,31.786,-0.11828,0.17449,0.65714
243.032,31.83972,-0.12088,0.17288,0.65707
243.632,31.8933,-0.12087,0.17459,0.657
244.232,31.94684,-0.12091,0.17407,0.65693
244.832,32.00038,-0.12088,0.17608,0.65686
245.432,32.05396,-0.12219,0.17534,0.65679
246.032,32.10761,-0.12401,0.175,0.65672
246.632,32.1612,-0.12515,0.17429,0.65664
247.232,32.21481,-0.12515,0.17776,0.65657
247.832,32.2684,-0.12568,0.17354,0.65649
248.432,32.32196,-0.12645,0.17693,0.65642
249.032,32.37557,-0.12787,0.17417,0.65634
249.632,32.42927,-0.1291,0.17369,0.65626
250.232,32.48283,-0.1291,0.17438,0.65618
250.832,32.5366,-0.13045,0.17473,0.6561
251.432,32.59028,-0.1322,0.17346,0.65602
252.032,32.6439,-0.13316,0.17369,0.65594
252.632,32.69748,-0.1345,0.17221,0.65586
253.232,32.75117,-0.13348,0.17566,0.65577
253.832,32.805,-0.13567,0.17536,0.65569
254.432,32.8587,-0.13751,0.17546,0.6556
255.032,32.9127,-0.13887,0.17413,0.65551
255.632,32.96633,-0.13882,0.17439,0.65542
256.232,33.01978,-0.14082,0.1759,0.65533
256.832,33.07309,-0.14302,0.17776,0.65524
257.432,33.1264,-0.14355,0.17531,0.65515
258.032,33.1803,-0.14425,0.1806,0.65506
258.632,33.2344,-0.14785,0.17787,0.65497
259.232,33.28864,-0.14956,0.1805,0.65487
259.832,33.34282,-0.15078,0.17886,0.65478
260.432,33.39655,-0.15208,0.18436,0.65468
261.032,33.4501,-0.1529,0.18326,0.65459
261.632,33.50373,-0.15617,0.18559,0.65449
262.232,33.55751,-0.1574,0.18595,0.65439
262.832,33.6113,-0.1589,0.18851,0.65429
263.432,33.66523,-0.16109,0.18901,0.65419
264.032,33.71909,-0.16301,0.19276,0.65409
264.632,33.7729,-0.16466,0.19051,0.65398
265.232,33.82652,-0.16585,0.19176,0.65388
265.832,33.88021,-0.16727,0.19241,0.65377
266.432,33.93398,-0.17036,0.19361,0.65367
267.032,33.98762,-0.17156,0.19625,0.65356
267.632,34.04136,-0.17335,0.19651,0.65345
268.232,34.09511,-0.17586,0.1998,0.65334
268.832,34.14889,-0.17954,0.20083,0.65324
269.432,34.2027,-0.18152,0.20345,0.65312
270.032,34.2564,-0.18347,0.20624,0.65301
270.632,34.31015,-0.18625,0.20874,0.6529
271.232,34.3638,-0.189,0.20799,0.65279
271.832,34.41755,-0.19045,0.21134,0.65267
272.432,34.47135,-0.19183,0.21018,0.65256
273.032,34.52511,-0.19513,0.21195,0.65244
273.632,34.57882,-0.19539,0.21437,0.65232
274.232,34.63259,-0.19906,0.21797,0.65221
274.832,34.68627,-0.20178,0.21556,0.65209
275.432,34.74002,-0.20665,0.22053,0.65197
276.032,34.79377,-0.20915,0.22225,0.65185
276.632,34.84751,-0.21049,0.22322,0.65173
277.232,34.90124,-0.21402,0.22776,0.6516
277.832,34.95512,-0.2164,0.22975,0.65148
278.432,35.00902,-0.21862,0.23162,0.65135
279.032,35.06285,-0.22229,0.23198,0.65123
279.632,35.11675,-0.22584,0.23677,0.6511
280.232,35.17057,-0.22782,0.23448,0.65098
280.832,35.22443,-0.23089,0.237,0.65085
281.432,35.2783,-0.23471,0.24259,0.65072
282.032,35.33227,-0.23851,0.24431,0.65059
282.632,35.38632,-0.24213,0.24682,0.65046
283.232,35.44041,-0.24539,0.24675,0.65033
283.832,35.49425,-0.24881,0.24769,0.65019
284.432,35.54821,-0.25181,0.24999,0.65006
285.032,35.6022,-0.25538,0.25367,0.64993
285.632,35.65618,-0.26024,0.25371,0.64979
286.232,35.71035,-0.26415,0.25593,0.64965
286.832,35.76409,-0.26651,0.25916,0.64952
287.432,35.81793,-0.27114,0.25938,0.64938
288.032,35.87202,-0.27604,0.26113,0.64924
288.632,35.92601,-0.27832,0.26448,0.6491
289.232,35.98039,-0.28335,0.26697,0.64896
289.832,36.03443,-0.28788,0.26989,0.64882
290.432,36.0884,-0.29278,0.27113,0.64868
291.032,36.14266,-0.29752,0.27415,0.64853
291.632,36.19689,-0.30067,0.27765,0.64839
292.232,36.2511,-0.30563,0.28169,0.64824
292.832,36.30525,-0.31062,0.28298,0.6481
293.432,36.35945,-0.31521,0.28633,0.64795
294.032,36.41357,-0.31971,0.28648,0.6478
294.632,36.46784,-0.32404,0.29105,0.64766
295.232,36.52216,-0.33045,0.29423,0.64751
295.832,36.57636,-0.33518,0.29484,0.64736
296.432,36.6308,-0.34078,0.29804,0.64721
297.032,36.68512,-0.34579,0.30522,0.64705
297.632,36.7395,-0.35202,0.30459,0.6469
298.232,36.79368,-0.35895,0.30835,0.64675
298.832,36.848,-0.3652,0.31244,0.64659
299.432,36.90221,-0.3709,0.31606,0.64644
300.032,36.95646,-0.37722,0.3198,0.64628
300.632,37.0107,-0.38353,0.32271,0.64613
301.232,37.0648,-0.38969,0.32777,0.64597
301.832,37.11915,-0.39412,0.32785,0.64581
302.432,37.17341,-0.40347,0.33595,0.64565
303.032,37.22773,-0.40822,0.34138,0.64549
303.632,37.2821,-0.41749,0.34232,0.64533
304.232,37.33638,-0.42245,0.34635,0.64517
304.832,37.39079,-0.42966,0.35017,0.64501
305.432,37.4452,-0.43778,0.35399,0.64484
306.032,37.49951,-0.44427,0.35847,0.64468
306.632,37.55396,-0.45228,0.36025,0.64451
307.232,37.6083,-0.46072,0.36573,0.64435
307.832,37.66263,-0.46853,0.36913,0.64418
308.432,37.71719,-0.47744,0.37495,0.64401
309.032,37.7714,-0.48498,0.38154,0.64384
309.632,37.8258,-0.49255,0.38635,0.64368
310.232,37.88017,-0.50161,0.39124,0.64351
310.832,37.93439,-0.50967,0.39845,0.64333
311.432,37.98873,-0.51717,0.40146,0.64316
312.032,38.0428,-0.52998,0.40627,0.64299
312.632,38.09722,-0.53857,0.41576,0.64282
313.232,38.15182,-0.54781,0.42359,0.64264
313.832,38.20626,-0.55756,0.42955,0.64247
314.432,38.2611,-0.56866,0.43647,0.64229
315.032,38.31559,-0.57803,0.44272,0.64212
315.632,38.3699,-0.58789,0.4517,0.64194
316.232,38.42442,-0.59972,0.4571,0.64176
316.832,38.47894,-0.61,0.46426,0.64158
317.432,38.53349,-0.62355,0.47241,0.64141
318.032,38.58801,-0.6327,0.47941,0.64122
318.632,38.64268,-0.6451,0.48763,0.64104
319.232,38.69722,-0.65577,0.49817,0.64086
319.832,38.75181,-0.66842,0.50602,0.64068
320.432,38.80637,-0.68057,0.51464,0.6405
321.032,38.8608,-0.69411,0.52379,0.64031
321.632,38.91531,-0.70588,0.53824,0.64013
322.232,38.96993,-0.7204,0.54774,0.63994
322.832,39.02459,-0.73409,0.55985,0.63976
323.432,39.07917,-0.74759,0.56805,0.63957
324.032,39.13378,-0.76526,0.58211,0.63938
324.632,39.18866,-0.77991,0.59362,0.63919
325.232,39.24351,-0.79688,0.60647,0.639
325.832,39.29849,-0.81189,0.61992,0.63881
326.432,39.35341,-0.82705,0.63215,0.63862
327.032,39.40817,-0.84659,0.64682,0.63843
327.632,39.46301,-0.86228,0.66327,0.63824
328.232,39.51789,-0.88018,0.67827,0.63805
328.832,39.57287,-0.89936,0.69718,0.63785
329.432,39.62787,-0.91838,0.71394,0.63766
330.032,39.68274,-0.93651,0.73026,0.63746
330.632,39.7376,-0.95756,0.75138,0.63727
331.232,39.7924,-0.98025,0.76841,0.63707
331.832,39.84729,-1.00203,0.79017,0.63688
332.432,39.9024,-1.02434,0.80865,0.63668
333.032,39.9574,-1.04375,0.82913,0.63648
333.632,40.01238,-1.06895,0.85219,0.63628
334.232,40.06732,-1.0925,0.87701,0.63608
334.832,40.12225,-1.11806,0.89733,0.63588
335.432,40.17719,-1.14377,0.92149,0.63568
336.032,40.23226,-1.17074,0.94721,0.63547
336.632,40.28743,-1.19801,0.97163,0.63527
337.232,40.34247,-1.22507,0.9999,0.63507
337.832,40.3977,-1.25304,1.02319,0.63486
338.432,40.45293,-1.28244,1.05051,0.63466
339.032,40.508,-1.31323,1.07913,0.63445
339.632,40.56324,-1.34615,1.10829,0.63425
340.232,40.6184,-1.37778,1.13415,0.63404
340.832,40.67307,-1.41042,1.16117,0.63383
341.432,40.7282,-1.44606,1.18703,0.63362
342.032,40.7835,-1.48127,1.21648,0.63341
342.632,40.8388,-1.51595,1.24194,0.63321
343.232,40.8945,-1.55454,1.2711,0.63299
343.832,40.94985,-1.59047,1.2986,0.63278
344.432,41.0052,-1.63222,1.32989,0.63257
345.032,41.06058,-1.67143,1.35525,0.63236
345.632,41.11607,-1.71029,1.37996,0.63215
346.232,41.17151,-1.75237,1.40223,0.63193
346.832,41.22687,-1.79411,1.42622,0.63172
347.432,41.2823,-1.8397,1.44837,0.6315
348.032,41.33764,-1.8832,1.46706,0.63129
348.632,41.39294,-1.92522,1.48602,0.63107
349.232,41.44851,-1.97195,1.50134,0.63085
349.832,41.50396,-2.01657,1.51591,0.63064
350.432,41.55964,-2.06275,1.5269,0.63042
351.032,41.61535,-2.10983,1.53737,0.6302
351.632,41.6708,-2.15425,1.54148,0.62998
352.232,41.72635,-2.20291,1.54472,0.62976
352.832,41.78158,-2.25001,1.54583,0.62954
353.432,41.8371,-2.29594,1.54259,0.62932
354.032,41.8926,-2.34444,1.5364,0.62909
354.632,41.94808,-2.38976,1.5249,0.62887
355.232,42.00371,-2.43778,1.51469,0.62865
355.832,42.05915,-2.48308,1.49827,0.62842
356.432,42.11444,-2.52741,1.47523,0.6282
357.032,42.1697,-2.57343,1.45308,0.62797
357.632,42.22498,-2.61542,1.4277,0.62775
358.232,42.28024,-2.65824,1.39521,0.62752
358.832,42.33545,-2.70154,1.35904,0.6273
359.432,42.3908,-2.74019,1.31894,0.62707
360.032,42.44585,-2.78129,1.27704,0.62684
360.632,42.50124,-2.81798,1.23003,0.62661
361.232,42.5565,-2.85443,1.18146,0.62638
361.832,42.6117,-2.89047,1.12682,0.62615
362.432,42.66708,-2.92334,1.07331,0.62592
363.032,42.72245,-2.95502,1.01852,0.62569
363.632,42.77768,-2.98502,0.95786,0.62546
364.232,42.83293,-3.01312,0.90112,0.62522
364.832,42.8881,-3.04017,0.84178,0.62499
365.432,42.94319,-3.06513,0.78608,0.62476
366.032,42.99828,-3.08699,0.72722,0.62452
366.632,43.0535,-3.11021,0.67543,0.62429
367.232,43.1085,-3.13047,0.62052,0.62405
367.832,43.16377,-3.14785,0.56802,0.62382
368.432,43.2188,-3.16458,0.52029,0.62358
369.032,43.2737,-3.18054,0.47773,0.62334
369.632,43.32868,-3.19582,0.44487,0.6231
370.232,43.38351,-3.20952,0.40709,0.62287
370.832,43.4383,-3.22363,0.36824,0.62263
371.432,43.49335,-3.23466,0.32749,0.62239
372.032,43.5484,-3.24556,0.29075,0.62215
372.632,43.60355,-3.25401,0.25467,0.62191
373.232,43.65889,-3.26427,0.22023,0.62167
373.832,43.71428,-3.27282,0.18891,0.62143
374.432,43.76958,-3.28011,0.15779,0.62118
375.032,43.8244,-3.28851,0.13184,0.62094
375.632,43.8797,-3.29199,0.10492,0.6207
376.232,43.93482,-3.29733,0.08576065,0.62045
376.832,43.9903,-3.30301,0.05929185,0.62021
377.432,44.04627,-3.30645,0.02716216,0.61996
378.032,44.10187,-3.31183,0.009351285,0.61972
378.632,44.15743,-3.31478,-0.007763254,0.61947
379.232,44.21289,-3.31837,-0.02272327,0.61923
379.832,44.2682,-3.32138,-0.03279807,0.61898
380.432,44.3236,-3.3257,-0.0406441,0.61873
381.032,44.37894,-3.32887,-0.05304219,0.61848
381.632,44.43438,-3.33045,-0.06018623,0.61823
382.232,44.48995,-3.33171,-0.06429911,0.61799
382.832,44.54545,-3.33324,-0.07345113,0.61774
383.432,44.60106,-3.33445,-0.07827734,0.61749
384.032,44.6567,-3.3366,-0.08215523,0.61723
384.632,44.71232,-3.33576,-0.08529346,0.61698
385.232,44.768,-3.33727,-0.08809711,0.61673
385.832,44.8236,-3.33994,-0.08698512,0.61648
386.432,44.8792,-3.33984,-0.08553224,0.61623
387.032,44.93477,-3.34212,-0.08490396,0.61597
387.632,44.99047,-3.34346,-0.0857995,0.61572
388.232,45.04633,-3.34469,-0.0837599,0.61547
388.832,45.10196,-3.34613,-0.08222604,0.61521
389.432,45.1579,-3.34628,-0.07930694,0.61496
390.032,45.21383,-3.3474,-0.07812656,0.6147
390.632,45.2698,-3.34872,-0.07875418,0.61444
391.232,45.32562,-3.34937,-0.07641195,0.61419
391.832,45.38146,-3.35001,-0.08034258,0.61393
392.432,45.4375,-3.35268,-0.07607682,0.61367
393.032,45.49365,-3.35403,-0.07766603,0.61342
393.632,45.54975,-3.35542,-0.07677537,0.61316
394.232,45.606,-3.35638,-0.07840262,0.6129
394.832,45.66206,-3.35623,-0.07825903,0.61264
395.432,45.71817,-3.35666,-0.07860663,0.61238
396.032,45.77434,-3.35673,-0.08018168,0.61212
396.632,45.83035,-3.35808,-0.08089672,0.61186
397.232,45.88648,-3.35999,-0.08042298,0.6116
397.832,45.94251,-3.36068,-0.07772805,0.61133
398.432,45.9985,-3.36153,-0.07871073,0.61107
399.032,46.05473,-3.36282,-0.07887216,0.61081
399.632,46.11088,-3.36462,-0.0794894,0.61055
400.232,46.1671,-3.36463,-0.07944524,0.61028
400.832,46.22333,-3.36607,-0.079642,0.61002
401.432,46.27947,-3.36542,-0.08019517,0.60975
402.032,46.33589,-3.36679,-0.08026435,0.60949
402.632,46.39209,-3.36671,-0.08002174,0.60922
403.232,46.4485,-3.36804,-0.07902086,0.60896
403.832,46.50472,-3.36933,-0.07788387,0.60869
404.432,46.56069,-3.37068,-0.07887068,0.60842
405.032,46.61699,-3.3708,-0.07943064,0.60816
405.632,46.67328,-3.37198,-0.0797929,0.60789
406.232,46.72977,-3.37198,-0.07867982,0.60762
406.832,46.78637,-3.37258,-0.08184974,0.60735
407.432,46.8427,-3.37354,-0.08043448,0.60709
408.032,46.89917,-3.37406,-0.07611085,0.60682
408.632,46.95552,-3.37535,-0.07740403,0.60655
409.232,47.01181,-3.37775,-0.08155152,0.60628
409.832,47.06778,-3.3777,-0.07819465,0.60601
410.432,47.124,-3.37898,-0.08147765,0.60574
411.032,47.18032,-3.37768,-0.07956122,0.60546
411.632,47.23692,-3.37835,-0.07548474,0.60519
412.232,47.2939,-3.37899,-0.07881064,0.60492
412.832,47.35066,-3.38163,-0.07901975,0.60465
413.432,47.4073,-3.38162,-0.07915691,0.60438
414.032,47.46394,-3.38307,-0.07599099,0.6041
414.632,47.52046,-3.38437,-0.07690898,0.60383
415.232,47.57693,-3.38437,-0.07875895,0.60355
415.832,47.63344,-3.38569,-0.0793993,0.60328
416.432,47.68996,-3.387,-0.07989367,0.60301
417.032,47.7466,-3.387,-0.07835358,0.60273
417.632,47.8033,-3.38831,-0.07837175,0.60245
418.232,47.86018,-3.38832,-0.07845556,0.60218
418.832,47.917,-3.38962,-0.07899093,0.6019
419.432,47.97356,-3.38964,-0.07579007,0.60163
420.032,48.03018,-3.39029,-0.07824858,0.60135
420.632,48.08655,-3.38966,-0.07725957,0.60107
421.232,48.14322,-3.391,-0.07716297,0.60079
421.832,48.20037,-3.39326,-0.07927011,0.60052
422.432,48.25695,-3.39326,-0.07825003,0.60024
423.032,48.31387,-3.39197,-0.08222018,0.59996
423.632,48.37056,-3.39457,-0.07499498,0.59968
424.232,48.42719,-3.39566,-0.07744625,0.5994
424.832,48.48422,-3.39591,-0.07783115,0.59912
425.432,48.54085,-3.3972,-0.0771653,0.59884
426.032,48.59754,-3.39857,-0.08236403,0.59856
426.632,48.65416,-3.3979,-0.07781294,0.59828
427.232,48.7111,-3.39885,-0.07801483,0.598
427.832,48.7682,-3.39905,-0.07728776,0.59772
428.432,48.8251,-3.40016,-0.07626875,0.59743
429.032,48.88221,-3.4013,-0.07771251,0.59715
429.632,48.93912,-3.40277,-0.07677139,0.59687
430.232,48.99622,-3.4034,-0.07908224,0.59659
430.832,49.0533,-3.40411,-0.08048899,0.5963
431.432,49.11039,-3.40411,-0.07989596,0.59602
432.032,49.16685,-3.40412,-0.07828573,0.59574
432.632,49.2239,-3.40543,-0.07915046,0.59545
433.232,49.2808,-3.40583,-0.08043428,0.59517
433.832,49.33783,-3.40722,-0.07827399,0.59488
434.432,49.39517,-3.40854,-0.07876075,0.5946
435.032,49.45211,-3.40946,-0.07965031,0.59431
435.632,49.50908,-3.40938,-0.07887321,0.59403
436.232,49.56609,-3.40938,-0.07865084,0.59374
436.832,49.62298,-3.41027,-0.07830162,0.59345
437.432,49.68013,-3.41069,-0.07710967,0.59317
438.032,49.73723,-3.41201,-0.07650292,0.59288
438.632,49.79444,-3.41226,-0.07603383,0.59259
439.232,49.85156,-3.413,-0.0762334,0.59231
439.832,49.9088,-3.41333,-0.07580991,0.59202
440.432,49.96622,-3.41392,-0.07440503,0.59173
441.032,50.0237,-3.41496,-0.07375028,0.59144
441.632,50.08097,-3.41596,-0.07533846,0.59115
442.232,50.13812,-3.41726,-0.07538513,0.59086
442.832,50.1954,-3.41726,-0.07312226,0.59058
443.432,50.25255,-3.41793,-0.07387575,0.59029
444.032,50.30969,-3.4199,-0.07531354,0.59
444.632,50.36684,-3.41853,-0.07820671,0.58971
445.232,50.424,-3.41993,-0.07684353,0.58942
445.832,50.48121,-3.42122,-0.07717855,0.58912
446.432,50.53867,-3.42122,-0.07654352,0.58883
447.032,50.59595,-3.42125,-0.07754425,0.58854
447.632,50.65309,-3.42254,-0.07431543,0.58825
448.232,50.7103,-3.42254,-0.07524916,0.58796
448.832,50.76753,-3.42386,-0.07797262,0.58767
449.432,50.82486,-3.42469,-0.07634317,0.58738
450.032,50.88227,-3.42658,-0.07799354,0.58708
450.632,50.93963,-3.42517,-0.07790923,0.58679
451.232,50.99698,-3.42624,-0.07840912,0.5865
451.832,51.05438,-3.42653,-0.07778449,0.58621
452.432,51.1117,-3.42781,-0.08170347,0.58591
453.032,51.1689,-3.42912,-0.08000468,0.58562
453.632,51.22625,-3.42923,-0.07955414,0.58532
454.232,51.2836,-3.43044,-0.07870133,0.58503
454.832,51.34115,-3.43087,-0.08040754,0.58474
455.432,51.39869,-3.43043,-0.08106143,0.58444
456.032,51.45602,-3.43209,-0.0801006,0.58415
456.632,51.51343,-3.43307,-0.08141354,0.58385
457.232,51.5706,-3.43406,-0.08358349,0.58356
457.832,51.62785,-3.43441,-0.08575265,0.58326
458.432,51.68517,-3.43465,-0.08740342,0.58297
459.032,51.74268,-3.43471,-0.08628961,0.58267
459.632,51.8001,-3.43472,-0.09014377,0.58237
460.232,51.8574,-3.43676,-0.08729037,0.58208
460.832,51.91487,-3.43735,-0.09087232,0.58178
461.432,51.9722,-3.43735,-0.09255258,0.58148
462.032,52.02964,-3.437,-0.09257406,0.58119
462.632,52.08723,-3.43735,-0.09201979,0.58089
463.232,52.14496,-3.43866,-0.0896887,0.58059
463.832,52.20267,-3.43866,-0.09083844,0.5803
464.432,52.25999,-3.43998,-0.09210985,0.58
465.032,52.31762,-3.43998,-0.09425863,0.5797
465.632,52.37512,-3.43989,-0.0952844,0.5794
466.232,52.43286,-3.4427,-0.09219972,0.5791
466.832,52.4905,-3.44261,-0.09222531,0.5788
467.432,52.54821,-3.44261,-0.09471894,0.57851
468.032,52.606,-3.444,-0.09462758,0.57821
468.632,52.66359,-3.44379,-0.09729535,0.57791
469.232,52.72144,-3.44393,-0.09787378,0.57761
469.832,52.77904,-3.44615,-0.09765966,0.57731
470.432,52.8367,-3.44655,-0.09667521,0.57701
471.032,52.8943,-3.44623,-0.09967098,0.57671
471.632,52.9519,-3.44623,-0.1007,0.57641
472.232,53.00948,-3.44685,-0.10009,0.57611
472.832,53.0673,-3.44798,-0.10378,0.57581
473.432,53.12505,-3.44886,-0.10411,0.57551
474.032,53.1829,-3.44899,-0.10369,0.57521
474.632,53.24049,-3.45018,-0.107,0.57491
475.232,53.29805,-3.45018,-0.10545,0.57461
475.832,53.35601,-3.44951,-0.10844,0.57431
476.432,53.4139,-3.44953,-0.10733,0.57401
477.032,53.4722,-3.45089,-0.11002,0.5737
477.632,53.53015,-3.45238,-0.10884,0.5734
478.232,53.58789,-3.45238,-0.11039,0.5731
478.832,53.64606,-3.45208,-0.10905,0.5728
479.432,53.7042,-3.45336,-0.10908,0.5725
480.032,53.7622,-3.45469,-0.11062,0.57219
480.632,53.82042,-3.45468,-0.11864,0.57189
481.232,53.87823,-3.45338,-0.11864,0.57159
481.832,53.9363,-3.45468,-0.12329,0.57129
482.432,53.9943,-3.45468,-0.12573,0.57099
483.032,54.05234,-3.456,-0.12772,0.57068
483.632,54.1102,-3.45634,-0.1331,0.57038
484.232,54.16811,-3.45739,-0.13548,0.57008
484.832,54.22611,-3.45599,-0.14051,0.56977
485.432,54.2842,-3.45598,-0.1426,0.56947
486.032,54.3423,-3.45732,-0.14718,0.56917
486.632,54.4005,-3.45994,-0.15424,0.56886
487.232,54.4586,-3.45993,-0.15415,0.56856
487.832,54.51681,-3.45897,-0.16173,0.56826
488.432,54.57504,-3.45908,-0.16528,0.56795
489.032,54.63329,-3.4609,-0.17126,0.56765
489.632,54.69135,-3.46126,-0.17376,0.56734
490.232,54.74938,-3.46127,-0.17546,0.56704
490.832,54.80738,-3.46258,-0.17961,0.56674
491.432,54.86552,-3.46257,-0.18436,0.56643
492.032,54.9237,-3.46389,-0.18493,0.56613
492.632,54.9817,-3.46282,-0.18845,0.56582
493.232,55.0398,-3.46422,-0.19125,0.56552
493.832,55.0978,-3.46422,-0.19267,0.56521
494.432,55.15591,-3.46424,-0.1937,0.56491
495.032,55.2142,-3.46488,-0.19065,0.5646
495.632,55.27234,-3.46687,-0.18606,0.5643
496.232,55.33064,-3.46725,-0.17343,0.56399
496.832,55.38886,-3.46718,-0.16487,0.56369
497.432,55.4471,-3.46718,-0.15897,0.56338
498.032,55.50526,-3.46725,-0.15503,0.56308
498.632,55.5633,-3.46969,-0.15106,0.56277
499.232,55.6214,-3.46981,-0.15202,0.56247
499.832,55.6797,-3.46885,-0.15264,0.56216
500.432,55.7381,-3.46855,-0.1559,0.56186
501.032,55.7966,-3.4685,-0.16222,0.56155
501.632,55.8548,-3.4685,-0.16498,0.56124
502.232,55.9132,-3.46844,-0.16755,0.56094
502.832,55.97156,-3.46981,-0.1693,0.56063
503.432,56.02991,-3.47113,-0.1716,0.56033
504.032,56.0885,-3.46981,-0.17609,0.56002
504.632,56.14688,-3.46981,-0.17699,0.55972
505.232,56.2053,-3.46981,-0.17965,0.55941
505.832,56.26299,-3.47114,-0.18341,0.5591
506.432,56.3213,-3.47115,-0.18454,0.5588
507.032,56.37964,-3.47113,-0.18559,0.55849
507.632,56.4382,-3.47115,-0.1886,0.55818
508.232,56.49703,-3.47244,-0.19119,0.55788
508.832,56.5554,-3.47136,-0.19145,0.55757
509.432,56.61376,-3.47145,-0.19549,0.55727
510.032,56.67225,-3.47276,-0.1923,0.55696
510.632,56.73079,-3.47277,-0.19672,0.55665
511.232,56.78934,-3.47541,-0.19747,0.55635
511.832,56.84776,-3.4754,-0.19601,0.55604
512.432,56.90615,-3.4741,-0.19719,0.55573
513.032,56.96455,-3.4754,-0.19878,0.55543
513.632,57.02324,-3.4754,-0.20051,0.55512
514.232,57.0819,-3.47652,-0.19621,0.55481
514.832,57.14057,-3.47672,-0.19976,0.55451
515.432,57.1992,-3.47804,-0.19986,0.5542
516.032,57.2577,-3.47751,-0.20165,0.55389
516.632,57.3164,-3.47738,-0.20178,0.55359
517.232,57.3751,-3.4787,-0.20068,0.55328
517.832,57.43359,-3.47862,-0.20056,0.55297
518.432,57.49204,-3.48001,-0.19839,0.55267
519.032,57.55052,-3.47867,-0.19656,0.55236
519.632,57.60901,-3.4787,-0.19897,0.55205
520.232,57.6676,-3.47919,-0.19737,0.55175
520.832,57.7261,-3.47969,-0.19478,0.55144
521.432,57.7846,-3.47966,-0.19452,0.55113
522.032,57.8435,-3.47881,-0.19448,0.55083
522.632,57.90211,-3.47903,-0.19241,0.55052
523.232,57.96091,-3.47903,-0.19218,0.55021
523.832,58.01965,-3.47965,-0.1933,0.5499
524.432,58.07821,-3.48068,-0.19093,0.5496
525.032,58.13705,-3.48067,-0.19046,0.54929
525.632,58.1957,-3.48067,-0.19271,0.54898
526.232,58.25444,-3.482,-0.19107,0.54868
526.832,58.3132,-3.48216,-0.18484,0.54837
527.432,58.3719,-3.48298,-0.18596,0.54806
528.032,58.4307,-3.483,-0.18644,0.54776
528.632,58.48941,-3.48294,-0.18592,0.54745
529.232,58.5482,-3.48297,-0.18648,0.54714
529.832,58.6071,-3.48297,-0.18323,0.54684
530.432,58.66568,-3.48329,-0.18241,0.54653
531.032,58.7247,-3.48461,-0.17997,0.54622
531.632,58.7834,-3.48528,-0.17926,0.54592
532.232,58.8423,-3.48528,-0.17639,0.54561
532.832,58.90113,-3.48526,-0.17673,0.54531
533.432,58.95992,-3.48659,-0.17473,0.545
534.032,59.01889,-3.48659,-0.17604,0.54469
534.632,59.0779,-3.48544,-0.1716,0.54439
535.232,59.13681,-3.48528,-0.17281,0.54408
535.832,59.19568,-3.48528,-0.16838,0.54377
536.432,59.2547,-3.48659,-0.17305,0.54347
537.032,59.3139,-3.48854,-0.16761,0.54316
537.632,59.3729,-3.48787,-0.16655,0.54286
538.232,59.43198,-3.48792,-0.16633,0.54255
538.832,59.49105,-3.48792,-0.16332,0.54224
539.432,59.55015,-3.48825,-0.16533,0.54194
540.032,59.60943,-3.48923,-0.16291,0.54163
540.632,59.66867,-3.48923,-0.16558,0.54133
541.232,59.7278,-3.48923,-0.16596,0.54102
541.832,59.78675,-3.48923,-0.16247,0.54071
542.432,59.8457,-3.49063,-0.16126,0.54041
543.032,59.90464,-3.49055,-0.1623,0.5401
543.632,59.96365,-3.49055,-0.1626,0.5398
544.232,60.0227,-3.49055,-0.1598,0.53949
544.832,60.08178,-3.49055,-0.16017,0.53919
545.432,60.14088,-3.49186,-0.16176,0.53888
546.032,60.2,-3.49186,-0.15802,0.53858
546.632,60.25906,-3.49244,-0.15918,0.53827
547.232,60.31814,-3.49184,-0.15975,0.53797
547.832,60.37712,-3.492,-0.1584,0.53766
548.432,60.4362,-3.49318,-0.15417,0.53736
549.032,60.4952,-3.49211,-0.15159,0.53705
549.632,60.5544,-3.49186,-0.15153,0.53675
550.232,60.61365,-3.49285,-0.15087,0.53644
550.832,60.67286,-3.49351,-0.14748,0.53614
551.432,60.73199,-3.49351,-0.14535,0.53583
552.032,60.79133,-3.49351,-0.14428,0.53553
552.632,60.8506,-3.49496,-0.14638,0.53522
553.232,60.90999,-3.49625,-0.14718,0.53492
553.832,60.9694,-3.49625,-0.14627,0.53461
554.432,61.0288,-3.49625,-0.14794,0.53431
555.032,61.0881,-3.49494,-0.14531,0.53401
555.632,61.1473,-3.49493,-0.14441,0.5337
556.232,61.2067,-3.49493,-0.13956,0.5334
556.832,61.2661,-3.49493,-0.1381,0.5331
557.432,61.3256,-3.49493,-0.1364,0.53279
558.032,61.3849,-3.49384,-0.13703,0.53249
558.632,61.4443,-3.4963,-0.13694,0.53218
559.232,61.5036,-3.49624,-0.13449,0.53188
559.832,61.5629,-3.4961,-0.13336,0.53158
560.432,61.62219,-3.49625,-0.13047,0.53128
561.032,61.6814,-3.49625,-0.13111,0.53097
561.632,61.7407,-3.49625,-0.12752,0.53067
562.232,61.79979,-3.49625,-0.12547,0.53037
562.832,61.8592,-3.49625,-0.12561,0.53006
563.432,61.91854,-3.49757,-0.12569,0.52976
564.032,61.97821,-3.49757,-0.1254,0.52946
564.632,62.03761,-3.49762,-0.12096,0.52916
565.232,62.097,-3.49743,-0.12391,0.52886
565.832,62.1564,-3.49756,-0.12335,0.52855
566.432,62.2157,-3.49756,-0.12075,0.52825
567.032,62.275,-3.49756,-0.11468,0.52795
567.632,62.33446,-3.49885,-0.11599,0.52765
568.232,62.3939,-3.49888,-0.11544,0.52735
568.832,62.45321,-3.49893,-0.11574,0.52705
569.432,62.51274,-3.49987,-0.11272,0.52674
570.032,62.5721,-3.49987,-0.1114,0.52644
570.632,62.6315,-3.49985,-0.11164,0.52614
571.232,62.6907,-3.50053,-0.1072,0.52584
571.832,62.75019,-3.50053,-0.10524,0.52554
572.432,62.80966,-3.50085,-0.10352,0.52524
573.032,62.8692,-3.50217,-0.10297,0.52494
573.632,62.92904,-3.50217,-0.10241,0.52464
574.232,62.9887,-3.50094,-0.1028,0.52434
574.832,63.04834,-3.50219,-0.09761848,0.52404
575.432,63.10807,-3.50217,-0.09842568,0.52374
576.032,63.16775,-3.50217,-0.0964702,0.52344
576.632,63.22733,-3.50217,-0.09347546,0.52314
577.232,63.28695,-3.50217,-0.09309477,0.52284
577.832,63.3466,-3.50217,-0.09272675,0.52254
578.432,63.40655,-3.50348,-0.09336032,0.52224
579.032,63.46645,-3.50348,-0.0883842,0.52195
579.632,63.52636,-3.50348,-0.08603636,0.52165
580.232,63.58594,-3.50119,-0.08123613,0.52135
580.832,63.6456,-3.50046,-0.08388444,0.52105
581.432,63.705,-3.50899,-0.08190163,0.52075
582.032,63.76429,-3.50526,-0.07766164,0.52045
582.632,63.82385,-3.50506,-0.07409398,0.52016
583.232,63.88358,-3.50393,-0.07470832,0.51986
583.832,63.9434,-3.50389,-0.07085414,0.51956
584.432,64.00355,-3.50525,-0.07084331,0.51926
585.032,64.0633,-3.50525,-0.06763407,0.51897
585.632,64.12308,-3.50527,-0.06512427,0.51867
586.232,64.18274,-3.5067,-0.06502872,0.51837
586.832,64.24255,-3.51116,-0.06018102,0.51808
587.432,64.30236,-3.49677,-0.05642123,0.51778
588.032,64.3623,-3.504,-0.05926954,0.51748
588.632,64.42214,-3.50535,-0.05639761,0.51719
589.232,64.48191,-3.50535,-0.05380801,0.51689
589.832,64.54174,-3.50667,-0.0502368,0.5166
590.432,64.60167,-3.50535,-0.04908468,0.5163
591.032,64.6615,-3.50535,-0.04687981,0.516
591.632,64.72151,-3.50666,-0.0459984,0.51571
592.232,64.78148,-3.5062,-0.04173883,0.51541
592.832,64.84148,-3.50536,-0.04165382,0.51512
593.432,64.90136,-3.50667,-0.0405039,0.51482
594.032,64.96141,-3.50562,-0.03695396,0.51453
594.632,65.02144,-3.50569,-0.03445901,0.51424
595.232,65.08155,-3.50568,-0.02914201,0.51394
595.832,65.1417,-3.51096,-0.0336561,0.51365
596.432,65.2017,-3.50882,-0.02813783,0.51335
597.032,65.2618,-3.50493,-0.0311642,0.51306
597.632,65.32182,-3.506,-0.02839828,0.51277
598.232,65.3818,-3.50708,-0.02433701,0.51247
598.832,65.44189,-3.50776,-0.02532172,0.51218
599.432,65.50171,-3.50908,-0.0233018,0.51189
600.032,65.56177,-3.50908,-0.0222142,0.5116
600.632,65.6216,-3.50829,-0.01822478,0.5113
601.232,65.6815,-3.50774,-0.01818909,0.51101
601.832,65.7413,-3.50973,-0.01764424,0.51072
602.432,65.80119,-3.50973,-0.01397657,0.51043
603.032,65.86109,-3.50966,-0.01918363,0.51014
603.632,65.92118,-3.50842,-0.01365819,0.50985
604.232,65.9813,-3.51111,-0.01239528,0.50956
604.832,66.04129,-3.51104,-0.01052208,0.50926
605.432,66.10136,-3.50974,-0.01072411,0.50897
606.032,66.16141,-3.50974,-0.00834674,0.50868
606.632,66.22154,-3.5111,-0.004333819,0.50839
607.232,66.28164,-3.51101,-0.008423798,0.5081
607.832,66.34191,-3.50842,-0.004889885,0.50781
608.432,66.402,-3.50843,-0.00173532,0.50752
609.032,66.46199,-3.50974,0.0002378784,0.50724
609.632,66.52208,-3.50974,-0.0001238961,0.50695
610.232,66.58208,-3.51087,0.004580252,0.50666
610.832,66.64224,-3.51236,0.005473036,0.50637
611.432,66.7024,-3.51138,0.01171336,0.50608
612.032,66.7627,-3.51221,0.009252986,0.50579
612.632,66.82305,-3.51101,0.01058394,0.5055
613.232,66.88338,-3.51106,0.009309742,0.50522
613.832,66.94357,-3.51106,0.01129212,0.50493
614.432,67.0039,-3.51106,0.01591383,0.50464
615.032,67.06408,-3.51278,0.01635146,0.50436
615.632,67.1242,-3.51336,0.01760335,0.50407
616.232,67.1846,-3.51234,0.0190238,0.50378
616.832,67.24484,-3.51205,0.0179415,0.5035
617.432,67.3052,-3.51222,0.02052757,0.50321
618.032,67.3656,-3.51237,0.01772099,0.50292
618.632,67.4256,-3.51369,0.01895097,0.50264
619.232,67.48564,-3.51369,0.02120263,0.50235
619.832,67.5456,-3.51369,0.02381707,0.50207
620.432,67.60552,-3.51366,0.0243108,0.50178
621.032,67.66574,-3.51237,0.02555006,0.5015
621.632,67.726,-3.51237,0.02659428,0.50121
622.232,67.786,-3.51237,0.02517799,0.50093
622.832,67.8462,-3.5137,0.02888549,0.50065
623.432,67.9062,-3.51369,0.03136192,0.50036
624.032,67.9667,-3.51369,0.02820496,0.50008
624.632,68.0269,-3.51237,0.03101266,0.4998
625.232,68.08715,-3.51237,0.03483102,0.49951
625.832,68.1475,-3.51349,0.03193801,0.49923
626.432,68.20786,-3.51368,0.03151589,0.49895
627.032,68.2683,-3.51368,0.03344514,0.49867
627.632,68.3287,-3.51368,0.03659685,0.49839
628.232,68.38902,-3.51501,0.0384975,0.4981
628.832,68.44931,-3.515,0.03533345,0.49782
629.432,68.5097,-3.515,0.04071133,0.49754
630.032,68.57019,-3.51369,0.04189442,0.49726
630.632,68.6307,-3.51369,0.0472256,0.49698
631.232,68.69122,-3.51369,0.04602337,0.4967
631.832,68.75169,-3.51501,0.0519158,0.49642
632.432,68.8117,-3.51501,0.04955912,0.49614
633.032,68.87214,-3.51501,0.04839494,0.49586
633.632,68.93259,-3.51501,0.04851958,0.49558
634.232,68.99302,-3.515,0.05089585,0.4953
634.832,69.05378,-3.51499,0.05380634,0.49502
635.432,69.11414,-3.515,0.05144081,0.49475
636.032,69.17461,-3.515,0.05618795,0.49447
636.632,69.23501,-3.51631,0.05377226,0.49419
637.232,69.2954,-3.51602,0.05783381,0.49391
637.832,69.35579,-3.51475,0.05972102,0.49363
638.432,69.41622,-3.51499,0.05701453,0.49336
639.032,69.47678,-3.51632,0.05754156,0.49308
639.632,69.5372,-3.51583,0.06494882,0.4928
640.232,69.59764,-3.51055,0.05541066,0.49253
640.832,69.65796,-3.52302,0.05911225,0.49225
641.432,69.7183,-3.51907,0.05510226,0.49198
642.032,69.77886,-3.5191,0.06036458,0.4917
642.632,69.83955,-3.5174,0.06295733,0.49143
643.232,69.90025,-3.5161,0.06185782,0.49115
643.832,69.96082,-3.5161,0.06240552,0.49088
644.132,69.9912,-3.51645,0.06477577,0.49074