File: 01_Data/Cotton_Shirt/STA/N2/10K_min/Cotton_Shirt_STA_N2_10KData_21237_R1.csv
##Temp./Â°C,Time/min,Mass loss(subtr.2)/mg,DSC(subtr.2)/(mW/mg),Sensit./(uV/mW)
49.474,10.00917,-0.02172,0.0291065,0.6184
50.074,11.44599,-0.02106981,0.03701022,0.61872
50.674,11.77292,-0.01833149,0.04500711,0.61903
51.274,12.0185,-0.0196997,0.05656937,0.61935
51.874,12.21495,-0.01951044,0.06215185,0.61966
52.474,12.38768,-0.01897338,0.06962612,0.61998
53.074,12.54461,-0.02011794,0.07260171,0.62029
53.674,12.68891,-0.0218435,0.07608557,0.6206
54.274,12.8233,-0.02072181,0.08427032,0.62091
54.874,12.95102,-0.02102484,0.09099781,0.62122
55.474,13.0732,-0.02115364,0.09584749,0.62153
56.074,13.19019,-0.02084914,0.0984841,0.62184
56.674,13.3049,-0.02090367,0.10229,0.62214
57.274,13.41455,-0.02162059,0.10617,0.62244
57.874,13.52046,-0.0203824,0.10743,0.62275
58.474,13.62447,-0.02098347,0.11317,0.62305
59.074,13.7271,-0.02238231,0.11121,0.62335
59.674,13.8268,-0.02096303,0.11944,0.62365
60.274,13.92518,-0.02102311,0.11794,0.62395
60.874,14.02152,-0.02095534,0.12606,0.62424
61.474,14.1152,-0.02095176,0.12478,0.62454
62.074,14.208,-0.02227008,0.12877,0.62483
62.674,14.2995,-0.02228193,0.129,0.62512
63.274,14.39,-0.02368743,0.13246,0.62541
63.874,14.47916,-0.02238003,0.13501,0.6257
64.474,14.56671,-0.02361302,0.13462,0.62599
65.074,14.6531,-0.02492348,0.14092,0.62628
65.674,14.739,-0.02446015,0.1407,0.62657
66.274,14.82347,-0.02387981,0.14668,0.62685
66.874,14.9064,-0.02512853,0.14911,0.62714
67.474,14.9889,-0.02644632,0.15289,0.62742
68.074,15.07143,-0.02512422,0.1537,0.6277
68.674,15.1525,-0.02512404,0.15671,0.62798
69.274,15.2328,-0.02644386,0.15896,0.62826
69.874,15.31202,-0.02710595,0.16479,0.62854
70.474,15.39059,-0.02782174,0.16743,0.62881
71.074,15.46866,-0.02681299,0.16901,0.62909
71.674,15.546,-0.02669794,0.16944,0.62936
72.274,15.62263,-0.02643906,0.17184,0.62963
72.874,15.698,-0.02698842,0.17504,0.62991
73.474,15.773,-0.0290765,0.17898,0.63018
74.074,15.8475,-0.02897047,0.18465,0.63044
74.674,15.9217,-0.02939273,0.18492,0.63071
75.274,15.9954,-0.03071994,0.18621,0.63098
75.874,16.06875,-0.03070814,0.18727,0.63124
76.474,16.14141,-0.03144142,0.19042,0.63151
77.074,16.2133,-0.03202846,0.19228,0.63177
77.674,16.28514,-0.03129191,0.19073,0.63203
78.274,16.35642,-0.03066859,0.19194,0.63229
78.874,16.42754,-0.03204904,0.19403,0.63255
79.474,16.49822,-0.03269987,0.19759,0.63281
80.074,16.56825,-0.03401139,0.19841,0.63306
80.674,16.63815,-0.03394085,0.1967,0.63332
81.274,16.7069,-0.03401002,0.20017,0.63357
81.874,16.77563,-0.03412672,0.20181,0.63382
82.474,16.84381,-0.03531988,0.20224,0.63407
83.074,16.9118,-0.03529218,0.20731,0.63432
83.674,16.9796,-0.03531746,0.2079,0.63457
84.274,17.04699,-0.03664917,0.20747,0.63482
84.874,17.11376,-0.03665207,0.20601,0.63506
85.474,17.18008,-0.03661553,0.2078,0.63531
86.074,17.24607,-0.03677354,0.2119,0.63555
86.674,17.3123,-0.03795985,0.21071,0.63579
87.274,17.37827,-0.03791619,0.21035,0.63604
87.874,17.4439,-0.03973565,0.21294,0.63627
88.474,17.50923,-0.04026026,0.21434,0.63651
89.074,17.57372,-0.04166568,0.21467,0.63675
89.674,17.63813,-0.04026027,0.2133,0.63699
90.274,17.702,-0.03892921,0.21257,0.63722
90.874,17.76642,-0.0402577,0.21423,0.63745
91.474,17.8304,-0.03959886,0.21614,0.63769
92.074,17.89426,-0.03990682,0.21341,0.63792
92.674,17.9576,-0.04245316,0.21419,0.63815
93.274,18.0206,-0.04245,0.21277,0.63837
93.874,18.08287,-0.04244644,0.2107,0.6386
94.474,18.1455,-0.0424117,0.21063,0.63883
95.074,18.20825,-0.04245998,0.2049,0.63905
95.674,18.2708,-0.04244994,0.20833,0.63927
96.274,18.33309,-0.04244998,0.20882,0.6395
96.874,18.3945,-0.0423987,0.20645,0.63972
97.474,18.45607,-0.04377121,0.20375,0.63994
98.074,18.51773,-0.04509644,0.20337,0.64015
98.674,18.57919,-0.04376971,0.20187,0.64037
99.274,18.64087,-0.04443015,0.20026,0.64059
99.874,18.70201,-0.04515748,0.19665,0.6408
100.474,18.76289,-0.04509482,0.19565,0.64101
101.074,18.82381,-0.04500377,0.19307,0.64123
101.674,18.8845,-0.04376343,0.19479,0.64144
102.274,18.94529,-0.04388635,0.19176,0.64165
102.874,19.00589,-0.04640288,0.18929,0.64185
103.474,19.06619,-0.04557579,0.18823,0.64206
104.074,19.1264,-0.04573984,0.18652,0.64227
104.674,19.1864,-0.04640224,0.18387,0.64247
105.274,19.2466,-0.04640003,0.18105,0.64267
105.874,19.30676,-0.04526669,0.18094,0.64287
106.474,19.36688,-0.04507847,0.1809,0.64307
107.074,19.42672,-0.04393245,0.17795,0.64327
107.674,19.48613,-0.045117,0.17892,0.64347
108.274,19.54552,-0.04761473,0.1759,0.64367
108.874,19.6049,-0.04640958,0.17588,0.64386
109.474,19.6642,-0.04642329,0.17455,0.64406
110.074,19.72353,-0.04671277,0.17179,0.64425
110.674,19.78266,-0.04639647,0.17098,0.64444
111.274,19.84179,-0.04706468,0.169,0.64463
111.874,19.90031,-0.04701847,0.16822,0.64482
112.474,19.959,-0.04573955,0.16682,0.64501
113.074,20.01794,-0.04641211,0.16968,0.6452
113.674,20.07672,-0.04705939,0.16667,0.64538
114.274,20.1356,-0.04605108,0.16663,0.64556
114.874,20.1942,-0.0466115,0.16353,0.64575
115.474,20.25262,-0.04707,0.16355,0.64593
116.074,20.31128,-0.0467106,0.1651,0.64611
116.674,20.3699,-0.04673999,0.16402,0.64629
117.274,20.42848,-0.04701609,0.16104,0.64647
117.874,20.48712,-0.04753147,0.15955,0.64664
118.474,20.5454,-0.04705947,0.16066,0.64682
119.074,20.6033,-0.0475989,0.15969,0.64699
119.674,20.66088,-0.04706011,0.15914,0.64716
120.274,20.71876,-0.04676236,0.16334,0.64733
120.874,20.77655,-0.04574974,0.16027,0.6475
121.474,20.8346,-0.04575001,0.15827,0.64767
122.074,20.89173,-0.04576197,0.15805,0.64784
122.674,20.949,-0.0473897,0.1556,0.64801
123.274,21.00671,-0.04746999,0.15619,0.64817
123.874,21.06428,-0.04738841,0.15628,0.64834
124.474,21.12237,-0.04739032,0.15723,0.6485
125.074,21.17969,-0.04607719,0.15867,0.64866
125.674,21.23684,-0.04606998,0.1582,0.64882
126.274,21.29405,-0.04607001,0.16081,0.64898
126.874,21.35116,-0.04608254,0.16063,0.64914
127.474,21.40811,-0.04738957,0.15848,0.64929
128.074,21.46506,-0.04600252,0.16225,0.64945
128.674,21.52179,-0.04608096,0.15956,0.6496
129.274,21.5785,-0.0471095,0.16031,0.64975
129.874,21.63521,-0.04605598,0.16317,0.64991
130.474,21.6918,-0.04477619,0.16103,0.65006
131.074,21.74836,-0.04606973,0.15952,0.65021
131.674,21.80475,-0.04607026,0.16091,0.65035
132.274,21.8611,-0.04525303,0.16252,0.6505
132.874,21.91747,-0.04474991,0.16049,0.65064
133.474,21.97381,-0.04475014,0.16064,0.65079
134.074,22.03005,-0.04440514,0.16277,0.65093
134.674,22.08607,-0.04494496,0.16166,0.65107
135.274,22.14217,-0.04500546,0.15594,0.65121
135.874,22.1984,-0.04607998,0.16156,0.65135
136.474,22.25445,-0.04607572,0.16129,0.65149
137.074,22.31038,-0.0450873,0.16134,0.65162
137.674,22.36605,-0.04473679,0.16027,0.65176
138.274,22.42175,-0.04397699,0.16374,0.65189
138.874,22.47739,-0.04471501,0.16443,0.65203
139.474,22.5329,-0.04573948,0.16333,0.65216
140.074,22.58837,-0.04633303,0.1618,0.65229
140.674,22.6437,-0.04714433,0.16449,0.65242
141.274,22.69906,-0.04574999,0.15954,0.65254
141.874,22.75457,-0.04577576,0.16144,0.65267
142.474,22.80988,-0.04509019,0.16272,0.6528
143.074,22.86519,-0.04509118,0.16449,0.65292
143.674,22.92041,-0.04607892,0.16406,0.65304
144.274,22.97566,-0.04606933,0.16481,0.65316
144.874,23.0309,-0.04526474,0.16866,0.65328
145.474,23.08586,-0.04442266,0.16417,0.6534
146.074,23.14094,-0.04520789,0.16549,0.65352
146.674,23.19576,-0.04574013,0.16271,0.65364
147.274,23.25059,-0.0471226,0.16478,0.65375
147.874,23.30554,-0.04570381,0.16801,0.65387
148.474,23.36042,-0.04706408,0.16561,0.65398
149.074,23.41553,-0.04704603,0.16417,0.65409
149.674,23.47041,-0.04437116,0.16472,0.6542
150.274,23.5253,-0.04556242,0.16548,0.65431
150.874,23.57995,-0.04575092,0.1622,0.65442
151.474,23.63479,-0.04445158,0.1616,0.65453
152.074,23.68955,-0.04540957,0.1604,0.65463
152.674,23.74394,-0.04541,0.16312,0.65474
153.274,23.79861,-0.04541001,0.16302,0.65484
153.874,23.85295,-0.04552885,0.16124,0.65494
154.474,23.9076,-0.04565661,0.16033,0.65504
155.074,23.9624,-0.04574939,0.15904,0.65514
155.674,24.01693,-0.04575,0.15802,0.65524
156.274,24.07151,-0.04575,0.15782,0.65534
156.874,24.1261,-0.04575,0.1579,0.65543
157.474,24.18073,-0.04575,0.15577,0.65553
158.074,24.235,-0.04575378,0.15695,0.65562
158.674,24.28953,-0.04443287,0.15762,0.65571
159.274,24.344,-0.04439788,0.15815,0.6558
159.874,24.3984,-0.0454074,0.15902,0.65589
160.474,24.45327,-0.04541996,0.15889,0.65598
161.074,24.50747,-0.04542,0.15955,0.65607
161.674,24.56119,-0.04541999,0.1576,0.65615
162.274,24.61536,-0.04542947,0.1595,0.65624
162.874,24.6697,-0.04573801,0.15928,0.65632
163.474,24.7246,-0.0457421,0.15984,0.6564
164.074,24.77967,-0.04573992,0.15891,0.65648
164.674,24.83387,-0.04471585,0.16013,0.65656
165.274,24.8884,-0.04442996,0.1594,0.65664
165.874,24.9427,-0.04443072,0.15994,0.65672
166.474,24.997,-0.04565477,0.15822,0.6568
167.074,25.05163,-0.04703388,0.16175,0.65687
167.674,25.10599,-0.04443971,0.16457,0.65695
168.274,25.16028,-0.04573608,0.16784,0.65702
168.874,25.21446,-0.04575002,0.16741,0.65709
169.474,25.2688,-0.04575138,0.16662,0.65716
170.074,25.32284,-0.04443182,0.1707,0.65723
170.674,25.37705,-0.04443,0.17018,0.6573
171.274,25.43131,-0.04442979,0.16951,0.65736
171.874,25.48541,-0.04503306,0.17212,0.65743
172.474,25.5396,-0.04442029,0.17302,0.65749
173.074,25.59364,-0.0457366,0.17646,0.65756
173.674,25.64787,-0.04442728,0.17509,0.65762
174.274,25.70205,-0.04442001,0.17906,0.65768
174.874,25.75623,-0.04441998,0.18079,0.65774
175.474,25.8103,-0.0444095,0.18459,0.6578
176.074,25.86433,-0.04574344,0.18376,0.65786
176.674,25.9186,-0.04573999,0.18847,0.65791
177.274,25.97267,-0.04570617,0.18477,0.65797
177.874,26.02688,-0.04572848,0.18531,0.65802
178.474,26.08083,-0.04305763,0.18392,0.65807
179.074,26.13457,-0.04447626,0.18457,0.65812
179.674,26.1885,-0.04442999,0.18392,0.65817
180.274,26.2424,-0.04443455,0.18898,0.65822
180.874,26.2963,-0.04309963,0.18699,0.65827
181.474,26.3502,-0.04446473,0.18975,0.65832
182.074,26.40392,-0.04573948,0.18824,0.65836
182.674,26.4576,-0.04440089,0.1917,0.65841
183.274,26.5114,-0.04442997,0.18808,0.65845
183.874,26.56519,-0.04442275,0.19222,0.65849
184.474,26.61903,-0.04574015,0.19009,0.65853
185.074,26.67278,-0.0455173,0.19177,0.65857
185.674,26.7264,-0.0450798,0.19424,0.65861
186.274,26.78009,-0.04508,0.19323,0.65865
186.874,26.8338,-0.04507959,0.19578,0.65868
187.474,26.88751,-0.04570321,0.19655,0.65872
188.074,26.94112,-0.04467862,0.19683,0.65875
188.674,26.9946,-0.04437935,0.19903,0.65878
189.274,27.0481,-0.04575074,0.19917,0.65881
189.874,27.10158,-0.04574911,0.20576,0.65884
190.474,27.1552,-0.04447187,0.20286,0.65887
191.074,27.20877,-0.04443,0.20415,0.6589
191.674,27.26225,-0.04443,0.20638,0.65893
192.274,27.3156,-0.04443,0.20991,0.65895
192.874,27.36903,-0.04443,0.20951,0.65898
193.474,27.42258,-0.04442966,0.2105,0.659
194.074,27.47611,-0.04511306,0.21059,0.65902
194.674,27.5297,-0.0457507,0.21321,0.65904
195.274,27.58329,-0.04440186,0.21523,0.65906
195.874,27.63686,-0.04310915,0.21729,0.65908
196.474,27.69026,-0.05075984,0.21574,0.6591
197.074,27.74363,-0.03855658,0.21342,0.65912
197.674,27.797,-0.0406011,0.21862,0.65913
198.274,27.8501,-0.04447371,0.22104,0.65915
198.874,27.90362,-0.04443815,0.21996,0.65916
199.474,27.9572,-0.05332583,0.21912,0.65917
200.074,28.0107,-0.03757533,0.2195,0.65918
200.674,28.0645,-0.04084589,0.22334,0.65919
201.274,28.118,-0.04398604,0.21825,0.6592
201.874,28.1713,-0.04414988,0.22266,0.65921
202.474,28.22472,-0.04530567,0.22094,0.65921
203.074,28.2781,-0.04398864,0.22354,0.65922
203.674,28.33144,-0.04397712,0.22135,0.65922
204.274,28.3849,-0.04493991,0.22301,0.65922
204.874,28.43833,-0.04533006,0.22405,0.65922
205.474,28.49172,-0.04463971,0.22175,0.65922
206.074,28.54522,-0.04458513,0.223,0.65922
206.674,28.5987,-0.04497138,0.22028,0.65922
207.274,28.65202,-0.04498947,0.22144,0.65922
207.874,28.70545,-0.04596572,0.22439,0.65921
208.474,28.75897,-0.04465637,0.22216,0.65921
209.074,28.8124,-0.04465007,0.22487,0.6592
209.674,28.8658,-0.04465,0.22477,0.6592
210.274,28.9192,-0.04465002,0.22402,0.65919
210.874,28.9725,-0.04584592,0.22551,0.65918
211.474,29.02593,-0.04599566,0.22609,0.65917
212.074,29.0793,-0.04728021,0.22808,0.65915
212.674,29.13265,-0.0459627,0.22533,0.65914
213.274,29.18621,-0.04597001,0.22441,0.65913
213.874,29.23977,-0.04597,0.22851,0.65911
214.474,29.29327,-0.04596794,0.22524,0.6591
215.074,29.3467,-0.04629513,0.22675,0.65908
215.674,29.39998,-0.046272,0.22952,0.65906
216.274,29.45338,-0.04602321,0.22867,0.65904
216.874,29.50678,-0.04728196,0.22798,0.65902
217.474,29.56035,-0.04653252,0.22786,0.659
218.074,29.6139,-0.04699759,0.22768,0.65897
218.674,29.66743,-0.04593789,0.2269,0.65895
219.274,29.721,-0.04597032,0.22671,0.65893
219.874,29.7746,-0.04704954,0.22642,0.6589
220.474,29.8281,-0.04596052,0.22627,0.65887
221.074,29.88151,-0.0459819,0.22684,0.65884
221.674,29.935,-0.04727843,0.22737,0.65881
222.274,29.9885,-0.04727995,0.22724,0.65878
222.874,30.042,-0.04586886,0.22661,0.65875
223.474,30.0956,-0.04560481,0.22621,0.65872
224.074,30.14915,-0.04563011,0.22576,0.65868
224.674,30.20267,-0.04695377,0.22432,0.65865
225.274,30.25613,-0.04695,0.22619,0.65861
225.874,30.3095,-0.04695,0.22764,0.65858
226.474,30.36291,-0.04696043,0.22875,0.65854
227.074,30.4164,-0.04825229,0.22748,0.6585
227.674,30.46987,-0.04826006,0.22691,0.65846
228.274,30.52338,-0.04786054,0.22834,0.65842
228.874,30.57698,-0.04730186,0.22759,0.65838
229.474,30.63055,-0.04860698,0.22924,0.65833
230.074,30.6841,-0.04990822,0.23006,0.65829
230.674,30.73753,-0.04991,0.2305,0.65824
231.274,30.7908,-0.04991,0.23184,0.65819
231.874,30.84427,-0.04991013,0.23009,0.65815
232.474,30.8978,-0.05113422,0.23061,0.6581
233.074,30.95148,-0.0512299,0.23243,0.65805
233.674,31.00525,-0.05120407,0.22968,0.658
234.274,31.05885,-0.04991001,0.23123,0.65795
234.874,31.11226,-0.05173674,0.2323,0.65789
235.474,31.1657,-0.0525573,0.23184,0.65784
236.074,31.21912,-0.05122993,0.23292,0.65778
236.674,31.2727,-0.05221104,0.23126,0.65773
237.274,31.3264,-0.05386912,0.23108,0.65767
237.874,31.38001,-0.05387,0.23305,0.65761
238.474,31.4335,-0.05387,0.23235,0.65755
239.074,31.48702,-0.05386695,0.23484,0.65749
239.674,31.5404,-0.05517188,0.23286,0.65743
240.274,31.5939,-0.05518145,0.23408,0.65737
240.874,31.6475,-0.05700124,0.23624,0.65731
241.474,31.70107,-0.05783294,0.23765,0.65724
242.074,31.75471,-0.05682468,0.23657,0.65718
242.674,31.80834,-0.05781222,0.23722,0.65711
243.274,31.86182,-0.05777891,0.23738,0.65704
243.874,31.9154,-0.0604474,0.23809,0.65697
244.474,31.9688,-0.06010466,0.23723,0.6569
245.074,32.02212,-0.05912995,0.23653,0.65683
245.674,32.0758,-0.06159115,0.23866,0.65676
246.274,32.12928,-0.06296935,0.23951,0.65669
246.874,32.18309,-0.06329004,0.23687,0.65661
247.474,32.23701,-0.06328958,0.23679,0.65654
248.074,32.29075,-0.06459264,0.23711,0.65646
248.674,32.34446,-0.06587245,0.2378,0.65639
249.274,32.39817,-0.06593006,0.23827,0.65631
249.874,32.45185,-0.0673307,0.24186,0.65623
250.474,32.50541,-0.06723939,0.23943,0.65615
251.074,32.5591,-0.06822389,0.2382,0.65607
251.674,32.61269,-0.06855966,0.23922,0.65599
252.274,32.66637,-0.06941219,0.24411,0.65591
252.874,32.72013,-0.07267173,0.24462,0.65582
253.474,32.77375,-0.0739909,0.24174,0.65574
254.074,32.8275,-0.07512942,0.24175,0.65565
254.674,32.88109,-0.07546877,0.24281,0.65556
255.274,32.93475,-0.07517695,0.24281,0.65548
255.874,32.9885,-0.07754745,0.24588,0.65539
256.474,33.0423,-0.07887614,0.24654,0.6553
257.074,33.09602,-0.07954453,0.24676,0.65521
257.674,33.14963,-0.08172051,0.24723,0.65512
258.274,33.20322,-0.08401108,0.24581,0.65502
258.874,33.25652,-0.08457198,0.24869,0.65493
259.474,33.3101,-0.08589317,0.2472,0.65484
260.074,33.3639,-0.08613664,0.24878,0.65474
260.674,33.41772,-0.08851261,0.25096,0.65464
261.274,33.47156,-0.09014017,0.25224,0.65455
261.874,33.5253,-0.09161246,0.2549,0.65445
262.474,33.57888,-0.09302417,0.25449,0.65435
263.074,33.6325,-0.09448445,0.25663,0.65425
263.674,33.68605,-0.09752064,0.25868,0.65415
264.274,33.7396,-0.09882597,0.25804,0.65404
264.874,33.79331,-0.10015,0.25874,0.65394
265.474,33.847,-0.10164,0.25744,0.65384
266.074,33.90063,-0.10364,0.26336,0.65373
266.674,33.95432,-0.10511,0.26402,0.65362
267.274,34.00801,-0.10799,0.26746,0.65352
267.874,34.0616,-0.10938,0.2676,0.65341
268.474,34.11525,-0.1107,0.26742,0.6533
269.074,34.16876,-0.11383,0.27113,0.65319
269.674,34.22253,-0.11542,0.27205,0.65308
270.274,34.27633,-0.11768,0.27595,0.65297
270.874,34.3303,-0.12007,0.27808,0.65286
271.474,34.3842,-0.12211,0.28235,0.65274
272.074,34.4379,-0.12437,0.28289,0.65263
272.674,34.49174,-0.12686,0.28301,0.65251
273.274,34.5456,-0.131,0.28672,0.65239
273.874,34.59936,-0.13338,0.28656,0.65228
274.474,34.6532,-0.1355,0.28651,0.65216
275.074,34.707,-0.13607,0.29102,0.65204
275.674,34.7609,-0.1389,0.29123,0.65192
276.274,34.8147,-0.14062,0.29197,0.6518
276.874,34.86851,-0.14367,0.29374,0.65168
277.474,34.9225,-0.14685,0.29555,0.65155
278.074,34.97633,-0.14995,0.29761,0.65143
278.674,35.03037,-0.15349,0.302,0.6513
279.274,35.08429,-0.15568,0.30333,0.65118
279.874,35.13812,-0.158,0.30643,0.65105
280.474,35.19192,-0.16083,0.30414,0.65092
281.074,35.2457,-0.16289,0.30804,0.6508
281.674,35.29954,-0.16796,0.30851,0.65067
282.274,35.35351,-0.16989,0.31281,0.65054
282.874,35.40746,-0.17285,0.31298,0.65041
283.474,35.46155,-0.17668,0.31582,0.65027
284.074,35.51552,-0.17936,0.31687,0.65014
284.674,35.56933,-0.1833,0.3197,0.65001
285.274,35.6233,-0.18482,0.32055,0.64987
285.874,35.67716,-0.19017,0.32208,0.64974
286.474,35.73118,-0.19381,0.32769,0.6496
287.074,35.78521,-0.19662,0.32782,0.64946
287.674,35.8392,-0.20008,0.33202,0.64932
288.274,35.8934,-0.20431,0.33388,0.64918
288.874,35.94744,-0.20733,0.33603,0.64904
289.474,36.00157,-0.21268,0.33691,0.6489
290.074,36.05556,-0.21834,0.34195,0.64876
290.674,36.10952,-0.2193,0.34279,0.64862
291.274,36.16363,-0.22377,0.34663,0.64848
291.874,36.21753,-0.22999,0.34856,0.64833
292.474,36.27173,-0.23428,0.347,0.64819
293.074,36.32598,-0.23689,0.35277,0.64804
293.674,36.38015,-0.24139,0.35366,0.64789
294.274,36.43438,-0.24744,0.35796,0.64775
294.874,36.48838,-0.25319,0.36229,0.6476
295.474,36.5423,-0.25666,0.36364,0.64745
296.074,36.5964,-0.26205,0.36434,0.6473
296.674,36.65057,-0.26729,0.36912,0.64715
297.274,36.70489,-0.27343,0.37003,0.64699
297.874,36.75922,-0.27565,0.37535,0.64684
298.474,36.81342,-0.28144,0.37774,0.64669
299.074,36.86759,-0.28918,0.38358,0.64653
299.674,36.92184,-0.29401,0.38565,0.64638
300.274,36.9761,-0.30045,0.38708,0.64622
300.874,37.03046,-0.305,0.39429,0.64606
301.474,37.08484,-0.30868,0.3938,0.6459
302.074,37.13921,-0.31381,0.3988,0.64575
302.674,37.19356,-0.32319,0.40419,0.64559
303.274,37.248,-0.3303,0.40634,0.64543
303.874,37.30233,-0.33514,0.41113,0.64526
304.474,37.3569,-0.34295,0.41524,0.6451
305.074,37.41133,-0.3483,0.42021,0.64494
305.674,37.46581,-0.35664,0.42442,0.64478
306.274,37.52033,-0.36208,0.42781,0.64461
306.874,37.57465,-0.37015,0.43174,0.64445
307.474,37.6291,-0.37699,0.43779,0.64428
308.074,37.68345,-0.38351,0.44082,0.64411
308.674,37.7378,-0.39199,0.44518,0.64394
309.274,37.79222,-0.39961,0.44985,0.64378
309.874,37.84659,-0.40734,0.45223,0.64361
310.474,37.90102,-0.41645,0.46033,0.64344
311.074,37.95551,-0.42336,0.46851,0.64327
311.674,38.01015,-0.43135,0.47497,0.64309
312.274,38.06463,-0.44131,0.47787,0.64292
312.874,38.11911,-0.45092,0.4856,0.64275
313.474,38.17354,-0.45904,0.48967,0.64257
314.074,38.2279,-0.46955,0.49331,0.6424
314.674,38.2824,-0.47772,0.50012,0.64222
315.274,38.3369,-0.48636,0.50484,0.64205
315.874,38.3914,-0.49697,0.51359,0.64187
316.474,38.44597,-0.50734,0.52148,0.64169
317.074,38.5005,-0.51587,0.52817,0.64151
317.674,38.555,-0.52617,0.53795,0.64133
318.274,38.60935,-0.53696,0.54015,0.64115
318.874,38.66382,-0.5484,0.55128,0.64097
319.474,38.7183,-0.5606,0.55842,0.64079
320.074,38.7727,-0.57296,0.56902,0.64061
320.674,38.8266,-0.58324,0.57627,0.64042
321.274,38.881,-0.5944,0.58663,0.64024
321.874,38.93569,-0.60754,0.5988,0.64005
322.474,38.9906,-0.62134,0.60612,0.63987
323.074,39.04593,-0.63512,0.61843,0.63968
323.674,39.10045,-0.6483,0.63087,0.63949
324.274,39.15497,-0.66224,0.64136,0.63931
324.874,39.2095,-0.6749,0.65103,0.63912
325.474,39.2639,-0.68906,0.6647,0.63893
326.074,39.31858,-0.70269,0.67718,0.63874
326.674,39.37334,-0.71972,0.69247,0.63855
327.274,39.4281,-0.73502,0.70612,0.63836
327.874,39.48271,-0.75078,0.72154,0.63816
328.474,39.5374,-0.76624,0.73677,0.63797
329.074,39.59225,-0.78591,0.75412,0.63778
329.674,39.64707,-0.80228,0.77111,0.63758
330.274,39.70213,-0.82156,0.7879,0.63739
330.874,39.75698,-0.83904,0.80647,0.63719
331.474,39.81157,-0.85728,0.82902,0.63699
332.074,39.86633,-0.87622,0.84445,0.6368
332.674,39.92096,-0.89588,0.86647,0.6366
333.274,39.97571,-0.91902,0.88507,0.6364
333.874,40.0304,-0.94017,0.90686,0.6362
334.474,40.08522,-0.96207,0.93167,0.636
335.074,40.14004,-0.98449,0.95103,0.6358
335.674,40.19498,-1.00801,0.97439,0.6356
336.274,40.24993,-1.0315,1.00347,0.63539
336.874,40.30488,-1.05582,1.02746,0.63519
337.474,40.35988,-1.08191,1.05414,0.63499
338.074,40.41469,-1.10903,1.07697,0.63478
338.674,40.46986,-1.1348,1.10989,0.63458
339.274,40.52491,-1.16315,1.13393,0.63437
339.874,40.57992,-1.19331,1.16245,0.63416
340.474,40.63503,-1.21995,1.18919,0.63396
341.074,40.69005,-1.2495,1.2186,0.63375
341.674,40.7452,-1.27871,1.25001,0.63354
342.274,40.80036,-1.31382,1.27962,0.63333
342.874,40.85562,-1.34683,1.30601,0.63312
343.474,40.9108,-1.3801,1.33368,0.63291
344.074,40.96604,-1.41595,1.36389,0.6327
344.674,41.02134,-1.45058,1.39523,0.63249
345.274,41.07651,-1.48556,1.42179,0.63227
345.874,41.1318,-1.52438,1.44674,0.63206
346.474,41.18694,-1.55994,1.47324,0.63185
347.074,41.24219,-1.59902,1.49878,0.63163
347.674,41.29769,-1.6395,1.52169,0.63142
348.274,41.35301,-1.67836,1.54363,0.6312
348.874,41.40845,-1.72121,1.56605,0.63098
349.474,41.46385,-1.76022,1.58157,0.63077
350.074,41.51914,-1.80091,1.59728,0.63055
350.674,41.57451,-1.84558,1.61493,0.63033
351.274,41.62989,-1.88694,1.62594,0.63011
351.874,41.68526,-1.93199,1.63475,0.62989
352.474,41.74073,-1.97263,1.64269,0.62967
353.074,41.79633,-2.01586,1.64216,0.62945
353.674,41.85167,-2.05963,1.64324,0.62923
354.274,41.90735,-2.10166,1.63912,0.629
354.874,41.9628,-2.14515,1.63263,0.62878
355.474,42.01807,-2.18922,1.62153,0.62856
356.074,42.0737,-2.23139,1.60239,0.62833
356.674,42.12914,-2.27433,1.58688,0.62811
357.274,42.18459,-2.31301,1.5641,0.62788
357.874,42.24025,-2.35455,1.53961,0.62766
358.474,42.2956,-2.39576,1.50854,0.62743
359.074,42.35088,-2.43133,1.47656,0.6272
359.674,42.40613,-2.47087,1.43344,0.62698
360.274,42.46128,-2.50831,1.39742,0.62675
360.874,42.51655,-2.54407,1.3536,0.62652
361.474,42.57185,-2.57917,1.30588,0.62629
362.074,42.62726,-2.61016,1.25589,0.62606
362.674,42.6825,-2.64344,1.20247,0.62583
363.274,42.73786,-2.67348,1.14692,0.62559
363.874,42.793,-2.70096,1.08846,0.62536
364.474,42.84806,-2.72957,1.02677,0.62513
365.074,42.9033,-2.75351,0.96845,0.6249
365.674,42.9584,-2.77838,0.90812,0.62466
366.274,43.0135,-2.8017,0.84876,0.62443
366.874,43.06882,-2.82431,0.79036,0.62419
367.474,43.124,-2.84498,0.73271,0.62396
368.074,43.1792,-2.86107,0.68012,0.62372
368.674,43.23429,-2.87964,0.62655,0.62348
369.274,43.28951,-2.89605,0.57183,0.62325
369.874,43.3446,-2.90911,0.52992,0.62301
370.474,43.39986,-2.9239,0.48092,0.62277
371.074,43.45525,-2.93734,0.43875,0.62253
371.674,43.51039,-2.94668,0.402,0.62229
372.274,43.5657,-2.95713,0.36416,0.62205
372.874,43.621,-2.96762,0.32555,0.62181
373.474,43.67627,-2.9758,0.2985,0.62157
374.074,43.73142,-2.98537,0.26501,0.62133
374.674,43.7865,-2.99355,0.23579,0.62109
375.274,43.84176,-2.99991,0.2049,0.62084
375.874,43.89714,-3.0038,0.17782,0.6206
376.474,43.95259,-3.01054,0.16038,0.62035
377.074,44.00817,-3.01558,0.13491,0.62011
377.674,44.0636,-3.01999,0.11493,0.61986
378.274,44.11911,-3.02252,0.09609821,0.61962
378.874,44.17455,-3.02687,0.0797307,0.61937
379.474,44.23003,-3.03104,0.07029158,0.61913
380.074,44.2855,-3.03294,0.0551135,0.61888
380.674,44.341,-3.03439,0.04209017,0.61863
381.274,44.39628,-3.03734,0.0373849,0.61838
381.874,44.45179,-3.0398,0.02815066,0.61813
382.474,44.50725,-3.04146,0.02085904,0.61788
383.074,44.56279,-3.04245,0.0141307,0.61763
383.674,44.61849,-3.04439,0.007694699,0.61738
384.274,44.67405,-3.04646,0.002502692,0.61713
384.874,44.72956,-3.04646,-0.0006578592,0.61688
385.474,44.78526,-3.04676,-0.002942546,0.61663
386.074,44.84101,-3.04953,-0.00579068,0.61638
386.674,44.89675,-3.05081,-0.006881277,0.61613
387.274,44.95205,-3.05177,-0.01292451,0.61587
387.874,45.00775,-3.05254,-0.01213186,0.61562
388.474,45.06361,-3.05392,-0.01231498,0.61536
389.074,45.11931,-3.05521,-0.01563886,0.61511
389.674,45.17584,-3.05521,-0.01873592,0.61485
390.274,45.2318,-3.05652,-0.01903778,0.6146
390.874,45.28763,-3.05779,-0.01794952,0.61434
391.474,45.34356,-3.05877,-0.01876619,0.61408
392.074,45.39924,-3.06047,-0.01932603,0.61383
392.674,45.455,-3.06183,-0.01658455,0.61357
393.274,45.51097,-3.0619,-0.01987224,0.61331
393.874,45.56687,-3.06312,-0.0191184,0.61305
394.474,45.6228,-3.06321,-0.0208733,0.61279
395.074,45.67895,-3.06321,-0.02768371,0.61253
395.674,45.73499,-3.06441,-0.02373402,0.61227
396.274,45.79104,-3.06585,-0.02647536,0.61201
396.874,45.84707,-3.06684,-0.02583354,0.61175
397.474,45.90269,-3.0668,-0.02316859,0.61149
398.074,45.9587,-3.06847,-0.02281654,0.61123
398.674,46.01481,-3.06947,-0.02203867,0.61097
399.274,46.07094,-3.06984,-0.02091123,0.6107
399.874,46.1271,-3.0711,-0.02563385,0.61044
400.474,46.1831,-3.07233,-0.02864184,0.61018
401.074,46.23918,-3.07243,-0.02515363,0.60991
401.674,46.29522,-3.07243,-0.02702909,0.60965
402.274,46.35153,-3.07373,-0.0270097,0.60938
402.874,46.4078,-3.07374,-0.02712099,0.60912
403.474,46.46407,-3.07524,-0.02812004,0.60885
404.074,46.52036,-3.07648,-0.02703659,0.60858
404.674,46.5764,-3.07602,-0.02878124,0.60832
405.274,46.6327,-3.07638,-0.02381161,0.60805
405.874,46.68886,-3.07736,-0.02626628,0.60778
406.474,46.74504,-3.07768,-0.02487475,0.60751
407.074,46.8014,-3.07814,-0.02622492,0.60725
407.674,46.85758,-3.08046,-0.02469458,0.60698
408.274,46.9139,-3.08176,-0.02740322,0.60671
408.874,46.97047,-3.08176,-0.02236042,0.60644
409.474,47.02688,-3.08307,-0.02329396,0.60617
410.074,47.08318,-3.08405,-0.0221439,0.6059
410.674,47.13957,-3.08405,-0.02601973,0.60563
411.274,47.19604,-3.08402,-0.02606495,0.60535
411.874,47.25251,-3.08578,-0.02591916,0.60508
412.474,47.30912,-3.08614,-0.02705681,0.60481
413.074,47.36574,-3.08724,-0.02813421,0.60454
413.674,47.42225,-3.08606,-0.02846189,0.60427
414.274,47.4788,-3.08712,-0.03020535,0.60399
414.874,47.53533,-3.08712,-0.03179659,0.60372
415.474,47.59191,-3.08976,-0.02996621,0.60344
416.074,47.64846,-3.08911,-0.0255739,0.60317
416.674,47.70513,-3.08974,-0.02551697,0.60289
417.274,47.7618,-3.09207,-0.02621329,0.60262
417.874,47.81841,-3.09207,-0.02753271,0.60234
418.474,47.87514,-3.09338,-0.02527755,0.60207
419.074,47.93182,-3.09339,-0.02458219,0.60179
419.674,47.98857,-3.09492,-0.02479238,0.60151
420.274,48.04526,-3.09458,-0.02504332,0.60124
420.874,48.102,-3.09371,-0.02388097,0.60096
421.474,48.1588,-3.09621,-0.02491159,0.60068
422.074,48.21532,-3.09751,-0.02676409,0.6004
422.674,48.27212,-3.09749,-0.028231,0.60013
423.274,48.32881,-3.09886,-0.02625568,0.59985
423.874,48.3856,-3.10016,-0.02801425,0.59957
424.474,48.4422,-3.09889,-0.02977296,0.59929
425.074,48.4989,-3.10149,-0.03169921,0.59901
425.674,48.5557,-3.10149,-0.03130012,0.59873
426.274,48.6126,-3.10145,-0.02915588,0.59845
426.874,48.6695,-3.10146,-0.02937999,0.59817
427.474,48.72625,-3.10281,-0.03116303,0.59788
428.074,48.78305,-3.10281,-0.0289515,0.5976
428.674,48.8399,-3.10384,-0.02916032,0.59732
429.274,48.89655,-3.10414,-0.03037076,0.59704
429.874,48.9533,-3.10544,-0.03010525,0.59676
430.474,49.01012,-3.10659,-0.03391206,0.59647
431.074,49.06638,-3.10809,-0.03248988,0.59619
431.674,49.12319,-3.10744,-0.03483807,0.59591
432.274,49.18007,-3.10873,-0.03154576,0.59562
432.874,49.23707,-3.10872,-0.03445873,0.59534
433.474,49.29439,-3.11004,-0.03488224,0.59505
434.074,49.35139,-3.11135,-0.03544599,0.59477
434.674,49.40828,-3.11136,-0.03718694,0.59448
435.274,49.46541,-3.11275,-0.0366633,0.5942
435.874,49.5224,-3.11332,-0.03629154,0.59391
436.474,49.57927,-3.11334,-0.03685092,0.59363
437.074,49.63619,-3.11325,-0.03669988,0.59334
437.674,49.69317,-3.11451,-0.03441287,0.59305
438.274,49.75007,-3.11465,-0.03728012,0.59276
438.874,49.8072,-3.11467,-0.03856991,0.59248
439.474,49.86415,-3.11702,-0.04027658,0.59219
440.074,49.92112,-3.11593,-0.0382751,0.5919
440.674,49.97827,-3.11714,-0.03628504,0.59161
441.274,50.03532,-3.11691,-0.03752408,0.59133
441.874,50.09243,-3.11815,-0.03510672,0.59104
442.474,50.14931,-3.11838,-0.03775303,0.59075
443.074,50.20636,-3.11968,-0.0354305,0.59046
443.674,50.26357,-3.12093,-0.03455054,0.59017
444.274,50.3208,-3.1224,-0.03682857,0.58988
444.874,50.37813,-3.12233,-0.03443793,0.58959
445.474,50.43537,-3.12207,-0.03534986,0.5893
446.074,50.4925,-3.12234,-0.03693083,0.58901
446.674,50.54968,-3.12332,-0.03498537,0.58872
447.274,50.60698,-3.12462,-0.03281007,0.58843
447.874,50.66413,-3.12549,-0.0338933,0.58813
448.474,50.72167,-3.12595,-0.03475477,0.58784
449.074,50.77892,-3.12594,-0.03451768,0.58755
449.674,50.83623,-3.12752,-0.03403677,0.58726
450.274,50.8935,-3.12595,-0.03532719,0.58697
450.874,50.95057,-3.12595,-0.03553415,0.58667
451.474,51.0077,-3.12717,-0.03282058,0.58638
452.074,51.06495,-3.12728,-0.03257509,0.58609
452.674,51.12245,-3.1286,-0.03229878,0.58579
453.274,51.17974,-3.1299,-0.03220239,0.5855
453.874,51.23708,-3.13043,-0.03510416,0.58521
454.474,51.29442,-3.1299,-0.03502074,0.58491
455.074,51.35176,-3.1299,-0.03355122,0.58462
455.674,51.40912,-3.1299,-0.03745436,0.58432
456.274,51.46631,-3.1324,-0.03605851,0.58403
456.874,51.52347,-3.13355,-0.03839761,0.58373
457.474,51.5807,-3.13301,-0.04178979,0.58344
458.074,51.63792,-3.13385,-0.03928892,0.58314
458.674,51.6953,-3.13517,-0.04121552,0.58285
459.274,51.75255,-3.13666,-0.03929296,0.58255
459.874,51.80989,-3.13873,-0.04068724,0.58225
460.474,51.86737,-3.13063,-0.04167162,0.58196
461.074,51.9247,-3.13616,-0.03623142,0.58166
461.674,51.98209,-3.13643,-0.03470684,0.58136
462.274,52.0394,-3.13747,-0.03236676,0.58107
462.874,52.0968,-3.13747,-0.03387739,0.58077
463.474,52.15415,-3.13836,-0.03495803,0.58047
464.074,52.21152,-3.13843,-0.03465846,0.58018
464.674,52.26896,-3.13877,-0.0366543,0.57988
465.274,52.32656,-3.1401,-0.03236453,0.57958
465.874,52.38418,-3.14056,-0.0315778,0.57928
466.474,52.44185,-3.14163,-0.033071,0.57898
467.074,52.4993,-3.14273,-0.03215454,0.57868
467.674,52.5568,-3.14404,-0.03197505,0.57839
468.274,52.6144,-3.14404,-0.03172295,0.57809
468.874,52.672,-3.14536,-0.03072639,0.57779
469.474,52.72973,-3.14536,-0.03010522,0.57749
470.074,52.78745,-3.14411,-0.0282488,0.57719
470.674,52.84519,-3.14404,-0.03077183,0.57689
471.274,52.90274,-3.1477,-0.03266078,0.57659
471.874,52.96034,-3.1496,-0.02903465,0.57629
472.474,53.01806,-3.14116,-0.02893978,0.57599
473.074,53.0758,-3.14691,-0.02752113,0.57569
473.674,53.1338,-3.1469,-0.02556175,0.57539
474.274,53.19165,-3.14747,-0.02551041,0.57509
474.874,53.24925,-3.14821,-0.02704046,0.57479
475.474,53.3069,-3.14953,-0.02506509,0.57449
476.074,53.36472,-3.1521,-0.02440731,0.57418
476.674,53.42253,-3.15217,-0.02700373,0.57388
477.274,53.48066,-3.15223,-0.02551825,0.57358
477.874,53.53861,-3.15218,-0.02602545,0.57328
478.474,53.5966,-3.15216,-0.02524566,0.57298
479.074,53.6542,-3.15216,-0.02470199,0.57268
479.674,53.71235,-3.1535,-0.02393228,0.57238
480.274,53.77019,-3.15478,-0.02229418,0.57207
480.874,53.8285,-3.15611,-0.02444673,0.57177
481.474,53.8866,-3.1548,-0.02039585,0.57147
482.074,53.9445,-3.15569,-0.01998718,0.57117
482.674,54.0026,-3.15611,-0.02622097,0.57086
483.274,54.0604,-3.15611,-0.02336707,0.57056
483.874,54.1184,-3.15743,-0.0217517,0.57026
484.474,54.1764,-3.15743,-0.02445814,0.56995
485.074,54.23432,-3.1579,-0.02087487,0.56965
485.674,54.2923,-3.15874,-0.02442785,0.56935
486.274,54.35038,-3.15853,-0.02430359,0.56904
486.874,54.4084,-3.15875,-0.02206537,0.56874
487.474,54.4664,-3.15875,-0.02316526,0.56844
488.074,54.5246,-3.15875,-0.02286749,0.56813
488.674,54.5827,-3.15875,-0.02533698,0.56783
489.274,54.6411,-3.15875,-0.02308973,0.56753
489.874,54.69936,-3.15875,-0.02201195,0.56722
490.474,54.7575,-3.15958,-0.02237866,0.56692
491.074,54.81539,-3.16007,-0.02426699,0.56661
491.674,54.87345,-3.16139,-0.0274229,0.56631
492.274,54.9314,-3.16274,-0.02614618,0.566
492.874,54.9895,-3.1627,-0.02317681,0.5657
493.474,55.04752,-3.16401,-0.02874775,0.5654
494.074,55.1056,-3.16401,-0.02621638,0.56509
494.674,55.1638,-3.16406,-0.02502667,0.56479
495.274,55.22211,-3.16533,-0.02471132,0.56448
495.874,55.28031,-3.16533,-0.02557779,0.56418
496.474,55.3386,-3.16533,-0.02648351,0.56387
497.074,55.397,-3.16535,-0.02419985,0.56357
497.674,55.45548,-3.16532,-0.02235279,0.56326
498.274,55.5138,-3.16403,-0.02150914,0.56295
498.874,55.5719,-3.16528,-0.02197664,0.56265
499.474,55.63013,-3.16664,-0.01628618,0.56234
500.074,55.6881,-3.16762,-0.01386651,0.56204
500.674,55.7465,-3.16763,-0.01267935,0.56173
501.274,55.8048,-3.16763,-0.01149581,0.56143
501.874,55.8634,-3.16763,-0.01144793,0.56112
502.474,55.9215,-3.16795,-0.01242327,0.56082
503.074,55.97976,-3.16796,-0.01532079,0.56051
503.674,56.038,-3.1673,-0.01598094,0.5602
504.274,56.09641,-3.1673,-0.01934085,0.5599
504.874,56.155,-3.16795,-0.01937626,0.55959
505.474,56.21331,-3.16894,-0.01732951,0.55929
506.074,56.27169,-3.16894,-0.0164492,0.55898
506.674,56.3298,-3.16895,-0.01731201,0.55867
507.274,56.38827,-3.16895,-0.01703656,0.55837
507.874,56.44679,-3.16895,-0.01645235,0.55806
508.474,56.50513,-3.17031,-0.01628574,0.55775
509.074,56.5637,-3.17027,-0.01471813,0.55745
509.674,56.622,-3.17122,-0.01924717,0.55714
510.274,56.6806,-3.17125,-0.0192885,0.55684
510.874,56.73913,-3.17092,-0.01946488,0.55653
511.474,56.79759,-3.17124,-0.02265714,0.55622
512.074,56.8561,-3.17322,-0.01956158,0.55592
512.674,56.9146,-3.17323,-0.01980329,0.55561
513.274,56.97291,-3.17322,-0.01928322,0.5553
513.874,57.0312,-3.17454,-0.02001892,0.555
514.474,57.08975,-3.17454,-0.01965432,0.55469
515.074,57.1482,-3.17454,-0.02511776,0.55438
515.674,57.2067,-3.17454,-0.0204898,0.55408
516.274,57.26536,-3.17444,-0.017768,0.55377
516.874,57.324,-3.17586,-0.01766359,0.55346
517.474,57.3826,-3.17586,-0.01905322,0.55316
518.074,57.44126,-3.17643,-0.01598759,0.55285
518.674,57.49954,-3.17619,-0.01661636,0.55254
519.274,57.55806,-3.1771,-0.02687246,0.55224
519.874,57.61671,-3.17717,-0.02320354,0.55193
520.474,57.6755,-3.17717,-0.02159245,0.55162
521.074,57.73443,-3.17824,-0.02355164,0.55132
521.674,57.79306,-3.17849,-0.02330932,0.55101
522.274,57.8518,-3.17849,-0.02589971,0.5507
522.874,57.91047,-3.17849,-0.02321264,0.55039
523.474,57.96935,-3.17849,-0.02380844,0.55009
524.074,58.0281,-3.17849,-0.0240911,0.54978
524.674,58.0868,-3.17716,-0.02796283,0.54947
525.274,58.1455,-3.1787,-0.0295415,0.54917
525.874,58.2043,-3.17988,-0.02769916,0.54886
526.474,58.2633,-3.18123,-0.02820588,0.54855
527.074,58.32204,-3.18112,-0.03012219,0.54825
527.674,58.3808,-3.18247,-0.02814183,0.54794
528.274,58.43946,-3.18112,-0.0302618,0.54763
528.874,58.49816,-3.18013,-0.02935312,0.54733
529.474,58.55686,-3.18015,-0.02855232,0.54702
530.074,58.61558,-3.18112,-0.02873733,0.54671
530.674,58.67459,-3.18151,-0.03202788,0.54641
531.274,58.7334,-3.18287,-0.02901544,0.5461
531.874,58.79215,-3.18287,-0.03212249,0.54579
532.474,58.85094,-3.18287,-0.03279473,0.54549
533.074,58.90967,-3.18287,-0.03253925,0.54518
533.674,58.96865,-3.18287,-0.02993572,0.54488
534.274,59.0275,-3.18339,-0.02884456,0.54457
534.874,59.0863,-3.18404,-0.02629774,0.54426
535.474,59.1452,-3.18288,-0.02430519,0.54396
536.074,59.20406,-3.18179,-0.02373924,0.54365
536.674,59.26308,-3.18253,-0.0265682,0.54334
537.274,59.3221,-3.18255,-0.02504842,0.54304
537.874,59.381,-3.18255,-0.02779662,0.54273
538.474,59.4401,-3.18321,-0.03130682,0.54243
539.074,59.4988,-3.18387,-0.02904699,0.54212
539.674,59.5577,-3.18517,-0.03018175,0.54181
540.274,59.6167,-3.18672,-0.02992288,0.54151
540.874,59.67559,-3.18672,-0.02783475,0.5412
541.474,59.73464,-3.18672,-0.02853497,0.5409
542.074,59.7936,-3.18599,-0.03157907,0.54059
542.674,59.85255,-3.18606,-0.03146175,0.54028
543.274,59.9117,-3.18743,-0.03121682,0.53998
543.874,59.97062,-3.18606,-0.03180455,0.53967
544.474,60.0296,-3.18606,-0.02876456,0.53937
545.074,60.0886,-3.18869,-0.03062621,0.53906
545.674,60.14761,-3.18869,-0.03351999,0.53876
546.274,60.2067,-3.18878,-0.03012358,0.53845
546.874,60.2656,-3.18737,-0.03075568,0.53815
547.474,60.3245,-3.18737,-0.03120865,0.53784
548.074,60.38344,-3.18736,-0.02869883,0.53754
548.674,60.44248,-3.18869,-0.03658528,0.53723
549.274,60.5014,-3.18869,-0.03520215,0.53693
549.874,60.56044,-3.18869,-0.03160979,0.53662
550.474,60.6194,-3.19,-0.03461587,0.53632
551.074,60.67833,-3.19,-0.03566075,0.53601
551.674,60.7373,-3.1887,-0.03280621,0.53571
552.274,60.79623,-3.18869,-0.03552772,0.5354
552.874,60.8553,-3.19001,-0.03478972,0.5351
553.474,60.91449,-3.19029,-0.03652567,0.5348
554.074,60.97361,-3.19133,-0.03001136,0.53449
554.674,61.0328,-3.19018,-0.0291787,0.53419
555.274,61.092,-3.19133,-0.0302509,0.53388
555.874,61.1512,-3.19133,-0.03262799,0.53358
556.474,61.2105,-3.19094,-0.02680126,0.53328
557.074,61.2697,-3.191,-0.02998548,0.53297
557.674,61.32903,-3.191,-0.02918442,0.53267
558.274,61.3882,-3.19199,-0.02897086,0.53237
558.874,61.44752,-3.19199,-0.02692451,0.53206
559.474,61.50668,-3.19295,-0.02650378,0.53176
560.074,61.566,-3.19033,-0.02620279,0.53146
560.674,61.62509,-3.18979,-0.02372188,0.53115
561.274,61.68419,-3.20026,-0.02928946,0.53085
561.874,61.74349,-3.1945,-0.02815583,0.53055
562.474,61.80276,-3.19317,-0.03011646,0.53024
563.074,61.86218,-3.19524,-0.03100859,0.52994
563.674,61.9215,-3.19517,-0.03051623,0.52964
564.274,61.9809,-3.19517,-0.03129604,0.52934
564.874,62.0402,-3.1938,-0.03023769,0.52904
565.474,62.099,-3.19385,-0.03254442,0.52873
566.074,62.1583,-3.19516,-0.02901741,0.52843
566.674,62.21754,-3.19453,-0.02850383,0.52813
567.274,62.27703,-3.1945,-0.02425476,0.52783
567.874,62.33724,-3.1945,-0.02411692,0.52753
568.474,62.39682,-3.19581,-0.02411973,0.52723
569.074,62.45638,-3.19549,-0.02079812,0.52692
569.674,62.51596,-3.19549,-0.02250632,0.52662
570.274,62.57549,-3.19688,-0.02009226,0.52632
570.874,62.6351,-3.19681,-0.02080945,0.52602
571.474,62.69465,-3.19678,-0.01632129,0.52572
572.074,62.7541,-3.1883,-0.01754116,0.52542
572.674,62.81355,-3.20612,-0.01661902,0.52512
573.274,62.8732,-3.19883,-0.0170429,0.52482
573.874,62.93269,-3.19793,-0.01379693,0.52452
574.474,62.9921,-3.19922,-0.0185696,0.52422
575.074,63.0518,-3.1979,-0.01734328,0.52392
575.674,63.1116,-3.19657,-0.01745799,0.52362
576.274,63.17142,-3.19528,-0.01455782,0.52332
576.874,63.2311,-3.1966,-0.01549706,0.52302
577.474,63.2904,-3.19667,-0.01375281,0.52272
578.074,63.34992,-3.19863,-0.01021679,0.52242
578.674,63.4097,-3.19922,-0.01049361,0.52212
579.274,63.4695,-3.1979,-0.01172928,0.52182
579.874,63.5294,-3.1979,-0.00776848,0.52153
580.474,63.58908,-3.19922,-0.01022366,0.52123
581.074,63.6485,-3.19922,-0.009908673,0.52093
581.674,63.7081,-3.19919,-0.005809454,0.52063
582.274,63.76795,-3.20054,-0.00793887,0.52033
582.874,63.8277,-3.20185,-0.007386483,0.52004
583.474,63.88763,-3.20057,-0.004430626,0.51974
584.074,63.9475,-3.20054,-0.008366968,0.51944
584.674,64.00739,-3.20054,-0.005913339,0.51914
585.274,64.06704,-3.20054,-0.007854962,0.51885
585.874,64.1268,-3.20054,-0.008300891,0.51855
586.474,64.18635,-3.20054,-0.008962815,0.51825
587.074,64.24606,-3.20054,-0.003924031,0.51796
587.674,64.30597,-3.20054,-0.00912541,0.51766
588.274,64.3659,-3.20054,-0.00491168,0.51736
588.874,64.42582,-3.20182,-0.007136988,0.51707
589.474,64.48559,-3.20185,-0.00395503,0.51677
590.074,64.54514,-3.20186,-0.00746301,0.51648
590.674,64.60469,-3.20053,-0.00649483,0.51618
591.274,64.6645,-3.20053,-0.01031025,0.51589
591.874,64.72417,-3.20079,-0.008861902,0.51559
592.474,64.78406,-3.20185,-0.00704476,0.5153
593.074,64.84375,-3.20185,-0.00548308,0.515
593.674,64.90349,-3.20185,-0.00688781,0.51471
594.274,64.9632,-3.20205,-0.00693154,0.51441
594.874,65.02282,-3.20314,-0.00535032,0.51412
595.474,65.0827,-3.20076,-0.006040414,0.51382
596.074,65.14245,-3.20087,-0.003812822,0.51353
596.674,65.2024,-3.20218,-0.002339085,0.51324
597.274,65.2624,-3.20219,-0.0006435353,0.51294
597.874,65.32236,-3.20219,0.0002862547,0.51265
598.474,65.38225,-3.20246,0.0005077126,0.51236
599.074,65.44213,-3.20317,0.00324139,0.51206
599.674,65.50216,-3.20317,0.007608519,0.51177
600.274,65.56225,-3.20349,0.004127876,0.51148
600.874,65.62214,-3.2035,0.002514077,0.51119
601.474,65.68214,-3.2035,0.007062645,0.51089
602.074,65.74218,-3.2035,0.007132006,0.5106
602.674,65.80216,-3.20416,0.007652147,0.51031
603.274,65.86244,-3.20483,0.01005616,0.51002
603.874,65.92246,-3.2046,0.00810585,0.50973
604.474,65.98252,-3.20328,0.01225505,0.50944
605.074,66.04257,-3.2047,0.01552817,0.50915
605.674,66.1027,-3.2046,0.0127127,0.50886
606.274,66.16275,-3.2036,0.01443257,0.50857
606.874,66.22296,-3.20491,0.01476387,0.50828
607.474,66.283,-3.20496,0.01131327,0.50799
608.074,66.34318,-3.20549,0.01267692,0.5077
608.674,66.4032,-3.20492,0.01159055,0.50741
609.274,66.46329,-3.20629,0.01449849,0.50712
609.874,66.52314,-3.20624,0.02227957,0.50683
610.474,66.58328,-3.20624,0.01371285,0.50654
611.074,66.6433,-3.20631,0.01584767,0.50625
611.674,66.70335,-3.20819,0.0091488,0.50596
612.274,66.7635,-3.20822,0.01454285,0.50568
612.874,66.82352,-3.20823,0.01285224,0.50539
613.474,66.88359,-3.2069,0.01439346,0.5051
614.074,66.9438,-3.2069,0.01284072,0.50481
614.674,67.0039,-3.2069,0.012824,0.50453
615.274,67.06425,-3.2069,0.01863087,0.50424
615.874,67.1246,-3.2069,0.02295697,0.50395
616.474,67.18494,-3.20591,0.02753465,0.50367
617.074,67.2452,-3.20688,0.02735782,0.50338
617.674,67.30548,-3.20855,0.02721482,0.50309
618.274,67.3657,-3.20857,0.02875458,0.50281
618.874,67.426,-3.20862,0.02860752,0.50252
619.474,67.4862,-3.20789,0.0286472,0.50224
620.074,67.54638,-3.20788,0.0288574,0.50195
620.674,67.60672,-3.20722,0.03327831,0.50167
621.274,67.66714,-3.20956,0.0241831,0.50138
621.874,67.72754,-3.21641,0.03584186,0.5011
622.474,67.78783,-3.19941,0.04140576,0.50082
623.074,67.84821,-3.20681,0.03884013,0.50053
623.674,67.9084,-3.22103,0.03430071,0.50025
624.274,67.96855,-3.20735,0.04655761,0.49997
624.874,68.02877,-3.19487,0.04470277,0.49968
625.474,68.08905,-3.2059,0.04792812,0.4994
626.074,68.14947,-3.20755,0.04558061,0.49912
626.674,68.20981,-3.20823,0.04604398,0.49884
627.274,68.27,-3.20821,0.05189249,0.49855
627.874,68.33021,-3.20821,0.04965462,0.49827
628.474,68.39067,-3.20821,0.05272365,0.49799
629.074,68.45119,-3.20953,0.05006122,0.49771
629.674,68.5116,-3.20953,0.05685135,0.49743
630.274,68.57181,-3.21041,0.05608648,0.49715
630.874,68.63215,-3.20954,0.05911654,0.49687
631.474,68.69258,-3.20954,0.06001691,0.49659
632.074,68.75336,-3.20954,0.05511842,0.49631
632.674,68.81393,-3.20823,0.05832222,0.49603
633.274,68.87435,-3.20823,0.05971046,0.49575
633.874,68.93476,-3.20954,0.06110128,0.49547
634.474,68.99501,-3.20862,0.06051456,0.49519
635.074,69.0551,-3.20855,0.06667291,0.49491
635.674,69.11561,-3.20855,0.06359075,0.49463
636.274,69.17602,-3.20983,0.06722335,0.49436
636.874,69.23654,-3.20857,0.06603839,0.49408
637.474,69.2974,-3.20905,0.06277986,0.4938
638.074,69.35792,-3.20986,0.06482877,0.49352
638.674,69.41847,-3.20987,0.06440093,0.49325
639.274,69.4791,-3.21249,0.06554067,0.49297
639.874,69.5393,-3.21249,0.06142296,0.49269
640.474,69.59984,-3.2125,0.06840996,0.49242
641.074,69.6604,-3.21278,0.06475252,0.49214
641.674,69.72099,-3.21271,0.07073853,0.49187
642.274,69.7815,-3.21139,0.06995469,0.49159
642.874,69.84188,-3.2101,0.06814398,0.49131
643.474,69.90225,-3.21075,0.07290378,0.49104
644.074,69.96279,-3.21264,0.0710509,0.49077
644.374,69.9928,-3.21346,0.07246858,0.49063