File: 01_Data/Rubber_Band/MCC/Rubber_Band_MCC_30K_min_220208_R3.txt
Sample ID:	C:\MCC\MCC Cal\Test\Rubber_Band_MCC_30K_min_220208_R3.txt
Sample Weight (mg):	4.35
Heating Rate (C/s):	0.5
Combustor Temp (C):	900
N2 Flow Rate (cc/min):	80
O2 Flow Rate (cc/min):	20
Calibration File:	C:\MCC\MCC Cal\Coeff1 JN10440_30_210304.txt.txt
T Correction Coefficients:	0	1.024463	0
Time Shift (s):	14
*
Time (s)	Temperature (C)	N2 flow rate (cc/min)	O2 flow rate (cc/min)	Flow Rate (cc/min)	Oxygen (%)	HRR (W/g)	Heating rate (C/s)
0.000	115.339	80.003	19.994	103.640	19.970	0.101	-0.008
2.000	115.349	80.002	19.996	103.651	19.972	-0.057	0.007
4.000	115.351	80.003	19.997	103.664	19.971	0.026	0.027
6.000	115.340	80.004	19.994	103.647	19.968	0.277	0.014
8.000	115.369	80.004	19.992	103.643	19.970	0.122	0.025
10.000	115.326	80.004	19.993	103.641	19.973	-0.154	0.007
12.000	115.345	80.007	19.992	103.650	19.967	0.290	0.012
14.000	115.329	80.005	19.992	103.654	19.966	0.393	0.000
16.000	115.357	80.005	19.992	103.653	19.960	0.828	-0.011
18.000	115.315	80.006	19.992	103.664	19.961	0.766	0.026
20.000	115.315	80.006	19.993	103.684	19.958	1.027	0.003
22.000	115.310	80.005	19.994	103.684	19.960	0.857	-0.023
24.000	115.359	80.006	19.994	103.671	19.960	0.829	0.039
26.000	115.345	80.006	19.993	103.677	19.958	1.022	-0.025
28.000	115.411	80.005	19.992	103.691	19.957	1.047	0.025
30.000	115.446	80.006	19.993	103.695	19.955	1.223	0.030
32.000	115.481	80.006	19.993	103.714	19.950	1.574	0.011
33.999	115.577	80.007	19.994	103.751	19.948	1.773	0.053
36.000	115.673	80.007	19.993	103.804	19.944	2.029	0.087
37.999	115.811	80.008	19.993	103.829	19.936	2.626	0.077
39.999	115.971	80.007	19.993	103.837	19.936	2.612	0.090
41.999	116.215	80.008	19.993	103.852	19.930	3.056	0.108
43.999	116.449	80.007	19.992	103.857	19.930	3.081	0.116
45.999	116.702	80.007	19.992	103.863	19.926	3.347	0.132
47.999	117.050	80.004	19.993	103.865	19.928	3.266	0.171
49.999	117.380	80.005	19.994	103.867	19.926	3.382	0.184
51.999	117.754	80.005	19.992	103.868	19.926	3.362	0.178
54.000	118.138	80.005	19.994	103.880	19.925	3.477	0.200
55.999	118.576	80.004	19.994	103.893	19.918	3.992	0.208
57.999	119.050	80.005	19.994	103.908	19.921	3.752	0.234
59.999	119.523	80.004	19.994	103.909	19.919	3.872	0.232
61.999	120.006	80.005	19.994	103.908	19.915	4.201	0.243
63.999	120.583	80.005	19.995	103.910	19.914	4.273	0.282
65.999	121.168	80.004	19.995	103.922	19.914	4.261	0.280
67.999	121.773	80.005	19.994	103.934	19.915	4.226	0.293
70.000	122.410	80.005	19.993	103.940	19.910	4.597	0.318
71.999	123.081	80.005	19.993	103.942	19.909	4.623	0.339
74.000	123.740	80.005	19.993	103.947	19.908	4.717	0.344
76.000	124.447	80.006	19.994	103.948	19.905	4.914	0.322
77.999	125.202	80.005	19.994	103.949	19.910	4.611	0.393
80.000	125.938	80.005	19.993	103.948	19.908	4.696	0.386
81.999	126.742	80.004	19.994	103.944	19.906	4.889	0.389
84.000	127.511	80.004	19.994	103.929	19.907	4.806	0.374
85.999	128.318	80.003	19.994	103.938	19.904	5.011	0.394
87.999	129.197	80.004	19.994	103.935	19.905	4.948	0.399
89.999	130.020	80.005	19.994	103.936	19.904	5.042	0.417
91.999	130.878	80.005	19.995	103.929	19.906	4.905	0.423
93.999	131.739	80.004	19.994	103.937	19.900	5.311	0.432
96.001	132.639	80.006	19.994	103.939	19.908	4.747	0.490
97.999	133.515	80.006	19.994	103.934	19.905	4.918	0.428
99.999	134.440	80.005	19.993	103.940	19.909	4.678	0.448
101.999	135.375	80.007	19.994	103.934	19.904	4.986	0.469
103.999	136.319	80.006	19.993	103.919	19.905	4.943	0.452
105.999	137.287	80.005	19.993	103.925	19.907	4.830	0.493
107.999	138.211	80.006	19.992	103.923	19.902	5.178	0.470
110.000	139.190	80.005	19.993	103.928	19.904	5.008	0.492
112.000	140.194	80.004	19.993	103.923	19.902	5.191	0.496
113.999	141.177	80.006	19.993	103.921	19.902	5.154	0.489
115.999	142.205	80.007	19.993	103.917	19.900	5.296	0.503
118.000	143.168	80.006	19.992	103.913	19.899	5.408	0.492
119.999	144.157	80.007	19.993	103.909	19.898	5.434	0.460
121.999	145.163	80.006	19.993	103.910	19.900	5.324	0.465
124.000	146.204	80.007	19.993	103.910	19.898	5.458	0.513
126.000	147.225	80.006	19.992	103.908	19.893	5.814	0.504
127.999	148.199	80.006	19.993	103.907	19.897	5.568	0.510
130.000	149.229	80.006	19.993	103.906	19.894	5.790	0.529
132.000	150.330	80.005	19.993	103.907	19.888	6.236	0.549
134.000	151.274	80.003	19.993	103.906	19.892	5.952	0.489
136.000	152.280	80.005	19.993	103.905	19.891	6.022	0.492
138.000	153.327	80.005	19.992	103.906	19.887	6.262	0.489
140.000	154.339	80.004	19.994	103.909	19.890	6.060	0.455
142.000	155.350	80.004	19.993	103.910	19.886	6.350	0.502
144.000	156.382	80.005	19.993	103.906	19.885	6.466	0.482
146.000	157.400	80.005	19.993	103.904	19.881	6.704	0.494
148.000	158.389	80.004	19.993	103.896	19.882	6.652	0.492
150.000	159.435	80.004	19.994	103.889	19.884	6.487	0.480
152.000	160.445	80.005	19.994	103.883	19.881	6.737	0.501
154.000	161.489	80.004	19.993	103.894	19.880	6.786	0.518
156.000	162.524	80.005	19.993	103.878	19.876	7.074	0.504
158.000	163.522	80.006	19.993	103.871	19.872	7.386	0.500
160.000	164.556	80.004	19.993	103.869	19.873	7.303	0.520
162.000	165.565	80.004	19.993	103.866	19.873	7.366	0.532
164.000	166.632	80.006	19.994	103.869	19.868	7.692	0.524
166.000	167.601	80.004	19.993	103.868	19.869	7.619	0.513
168.000	168.635	80.004	19.993	103.868	19.867	7.768	0.500
170.000	169.630	80.004	19.993	103.868	19.864	8.029	0.505
172.000	170.610	80.004	19.994	103.863	19.868	7.713	0.483
174.000	171.647	80.005	19.994	103.867	19.860	8.281	0.534
176.000	172.633	80.005	19.993	103.866	19.860	8.268	0.528
178.000	173.640	80.007	19.995	103.870	19.858	8.447	0.492
180.000	174.661	80.005	19.993	103.868	19.853	8.849	0.486
182.000	175.655	80.006	19.993	103.868	19.848	9.171	0.500
184.000	176.612	80.004	19.995	103.866	19.847	9.275	0.506
186.000	177.619	80.004	19.994	103.868	19.845	9.410	0.491
188.000	178.630	80.006	19.994	103.859	19.837	10.009	0.502
190.000	179.575	80.006	19.993	103.861	19.835	10.126	0.474
192.000	180.630	80.005	19.994	103.864	19.834	10.208	0.500
194.000	181.558	80.007	19.993	103.848	19.829	10.585	0.496
196.000	182.534	80.007	19.993	103.849	19.830	10.552	0.477
198.000	183.512	80.006	19.992	103.858	19.825	10.890	0.483
200.000	184.451	80.007	19.993	103.852	19.817	11.529	0.451
202.000	185.478	80.007	19.993	103.858	19.817	11.504	0.496
204.000	186.485	80.007	19.992	103.857	19.815	11.649	0.502
206.000	187.487	80.008	19.993	103.856	19.813	11.804	0.501
208.000	188.471	80.008	19.992	103.840	19.808	12.169	0.506
210.000	189.457	80.007	19.992	103.842	19.803	12.550	0.510
212.000	190.479	80.006	19.993	103.834	19.801	12.714	0.502
214.000	191.443	80.005	19.994	103.841	19.799	12.828	0.485
216.000	192.447	80.005	19.994	103.841	19.794	13.189	0.481
218.000	193.378	80.005	19.993	103.828	19.790	13.533	0.481
220.000	194.386	80.004	19.992	103.835	19.783	13.994	0.525
222.000	195.350	80.005	19.993	103.830	19.783	14.017	0.478
224.000	196.359	80.005	19.992	103.828	19.779	14.351	0.496
226.000	197.286	80.007	19.993	103.828	19.772	14.813	0.465
228.000	198.288	80.005	19.993	103.827	19.770	15.012	0.517
230.000	199.300	80.006	19.994	103.826	19.765	15.388	0.484
232.000	200.202	80.005	19.993	103.829	19.762	15.610	0.491
234.000	201.236	80.006	19.993	103.832	19.751	16.379	0.508
236.000	202.252	80.006	19.993	103.827	19.746	16.755	0.494
238.000	203.209	80.006	19.994	103.828	19.744	16.925	0.448
240.000	204.232	80.005	19.992	103.831	19.740	17.241	0.512
242.000	205.177	80.007	19.993	103.829	19.736	17.566	0.488
244.000	206.163	80.003	19.995	103.827	19.732	17.848	0.493
246.000	207.139	80.004	19.993	103.829	19.729	18.048	0.476
248.000	208.157	80.005	19.994	103.829	19.724	18.424	0.490
250.000	209.125	80.004	19.995	103.830	19.714	19.184	0.474
252.000	210.115	80.005	19.994	103.829	19.714	19.182	0.473
254.000	211.087	80.005	19.994	103.828	19.710	19.476	0.497
256.000	212.101	80.006	19.993	103.825	19.709	19.516	0.485
258.000	213.107	80.006	19.994	103.824	19.700	20.176	0.514
260.000	214.079	80.006	19.993	103.828	19.702	20.023	0.498
262.000	215.060	80.006	19.993	103.827	19.698	20.339	0.458
264.000	216.059	80.006	19.993	103.822	19.694	20.674	0.505
266.000	217.026	80.006	19.993	103.825	19.687	21.202	0.494
268.000	218.052	80.007	19.994	103.824	19.691	20.888	0.513
270.000	219.009	80.006	19.994	103.820	19.683	21.511	0.489
272.000	220.054	80.005	19.994	103.823	19.683	21.463	0.511
274.000	221.034	80.005	19.994	103.820	19.684	21.367	0.513
276.000	222.039	80.007	19.994	103.816	19.683	21.479	0.475
278.000	223.035	80.007	19.994	103.803	19.677	21.887	0.519
280.000	224.013	80.006	19.994	103.812	19.677	21.945	0.490
282.000	225.025	80.006	19.994	103.817	19.677	21.913	0.521
284.000	226.008	80.007	19.994	103.802	19.677	21.913	0.500
286.000	227.027	80.007	19.994	103.795	19.676	21.966	0.513
288.000	228.001	80.007	19.993	103.800	19.677	21.939	0.539
290.000	229.038	80.008	19.995	103.802	19.674	22.117	0.538
292.000	230.063	80.007	19.993	103.792	19.674	22.128	0.515
294.000	231.041	80.006	19.994	103.793	19.675	22.031	0.500
296.000	232.048	80.006	19.993	103.810	19.673	22.187	0.509
298.000	233.074	80.006	19.995	103.806	19.683	21.487	0.530
300.000	234.064	80.006	19.993	103.796	19.677	21.952	0.511
302.000	235.059	80.005	19.993	103.791	19.682	21.510	0.522
304.000	236.060	80.006	19.994	103.792	19.685	21.321	0.528
306.000	237.045	80.005	19.994	103.792	19.688	21.088	0.497
308.000	238.025	80.004	19.994	103.792	19.693	20.760	0.475
310.000	239.009	80.004	19.994	103.791	19.696	20.498	0.496
312.000	240.021	80.005	19.994	103.794	19.702	20.044	0.512
314.000	240.963	80.006	19.993	103.793	19.699	20.314	0.489
316.000	242.023	80.005	19.993	103.790	19.704	19.888	0.521
318.000	242.999	80.006	19.994	103.793	19.704	19.870	0.506
320.000	244.015	80.008	19.993	103.793	19.709	19.555	0.507
322.000	245.007	80.005	19.992	103.793	19.715	19.093	0.497
324.000	246.049	80.005	19.993	103.794	19.717	18.918	0.522
326.000	247.022	80.005	19.993	103.793	19.727	18.182	0.492
328.000	247.995	80.005	19.993	103.793	19.736	17.559	0.500
330.000	249.007	80.005	19.994	103.794	19.734	17.670	0.498
332.000	250.016	80.004	19.992	103.795	19.739	17.307	0.465
334.000	251.022	80.005	19.992	103.793	19.743	17.005	0.501
336.000	252.020	80.006	19.992	103.791	19.749	16.537	0.495
338.000	253.028	80.005	19.993	103.788	19.753	16.279	0.491
340.000	254.040	80.005	19.993	103.787	19.759	15.843	0.511
342.000	255.045	80.006	19.993	103.787	19.766	15.258	0.481
344.000	256.098	80.006	19.993	103.787	19.771	14.931	0.504
346.000	257.044	80.005	19.993	103.787	19.771	14.887	0.457
348.000	258.070	80.006	19.993	103.787	19.782	14.109	0.498
350.000	259.101	80.005	19.993	103.785	19.790	13.536	0.508
352.000	260.061	80.006	19.994	103.789	19.789	13.596	0.485
354.000	261.038	80.006	19.993	103.788	19.799	12.821	0.497
356.000	262.035	80.007	19.993	103.791	19.797	12.946	0.512
358.000	263.036	80.006	19.994	103.795	19.799	12.867	0.503
360.000	264.035	80.006	19.994	103.791	19.806	12.328	0.495
362.000	265.094	80.007	19.994	103.789	19.807	12.233	0.508
364.000	266.048	80.007	19.993	103.797	19.811	11.904	0.491
366.000	267.087	80.007	19.993	103.787	19.819	11.359	0.509
368.000	268.076	80.006	19.994	103.786	19.821	11.181	0.507
370.000	269.047	80.007	19.994	103.788	19.824	11.003	0.506
372.000	270.057	80.008	19.994	103.791	19.827	10.737	0.495
374.000	271.122	80.006	19.993	103.789	19.829	10.575	0.553
376.000	272.153	80.005	19.994	103.789	19.834	10.245	0.522
378.000	273.124	80.005	19.993	103.793	19.833	10.307	0.514
380.000	274.112	80.002	19.994	103.794	19.838	9.956	0.490
382.000	275.121	80.004	19.994	103.796	19.842	9.629	0.534
384.000	276.142	80.005	19.993	103.791	19.841	9.675	0.535
386.000	277.135	80.004	19.992	103.798	19.841	9.729	0.487
388.000	278.135	80.005	19.993	103.797	19.847	9.265	0.483
390.000	279.161	80.005	19.995	103.794	19.847	9.259	0.498
392.000	280.080	80.005	19.993	103.806	19.854	8.725	0.471
394.000	281.136	80.006	19.992	103.806	19.853	8.794	0.469
396.000	282.123	80.005	19.993	103.803	19.851	8.964	0.493
398.000	283.105	80.005	19.992	103.797	19.851	8.956	0.527
400.000	284.105	80.005	19.993	103.800	19.855	8.658	0.486
402.000	285.126	80.006	19.992	103.794	19.855	8.686	0.509
404.000	286.145	80.005	19.994	103.794	19.850	9.065	0.506
406.000	287.166	80.005	19.993	103.792	19.851	8.952	0.494
408.000	288.175	80.005	19.993	103.790	19.853	8.804	0.498
410.000	289.180	80.004	19.993	103.790	19.853	8.780	0.486
412.000	290.185	80.005	19.993	103.788	19.854	8.731	0.509
414.000	291.266	80.006	19.993	103.788	19.853	8.832	0.519
416.000	292.267	80.006	19.994	103.788	19.851	8.968	0.507
418.000	293.299	80.006	19.993	103.793	19.849	9.090	0.516
420.000	294.296	80.007	19.993	103.790	19.846	9.311	0.524
422.000	295.318	80.007	19.994	103.789	19.847	9.270	0.527
424.000	296.341	80.007	19.993	103.788	19.848	9.204	0.525
426.000	297.332	80.006	19.993	103.788	19.843	9.552	0.462
428.000	298.383	80.006	19.992	103.789	19.842	9.627	0.496
430.000	299.378	80.006	19.992	103.790	19.842	9.621	0.486
432.000	300.364	80.006	19.994	103.790	19.842	9.611	0.497
434.000	301.391	80.006	19.994	103.790	19.841	9.741	0.527
436.000	302.435	80.005	19.993	103.791	19.839	9.877	0.517
438.000	303.474	80.005	19.994	103.789	19.832	10.351	0.550
440.000	304.464	80.007	19.993	103.790	19.832	10.383	0.524
442.000	305.422	80.007	19.995	103.790	19.831	10.446	0.489
444.000	306.531	80.007	19.994	103.791	19.830	10.556	0.559
446.000	307.542	80.008	19.995	103.790	19.826	10.816	0.536
448.000	308.530	80.007	19.994	103.790	19.821	11.195	0.495
450.000	309.588	80.007	19.994	103.790	19.821	11.171	0.526
452.000	310.620	80.007	19.993	103.790	19.816	11.558	0.537
454.000	311.623	80.005	19.993	103.790	19.810	11.998	0.529
456.000	312.673	80.005	19.994	103.791	19.810	12.038	0.534
458.000	313.690	80.005	19.993	103.792	19.809	12.117	0.497
460.000	314.744	80.004	19.994	103.792	19.804	12.470	0.523
462.000	315.744	80.003	19.995	103.793	19.796	13.078	0.502
464.000	316.755	80.005	19.994	103.791	19.787	13.755	0.524
466.000	317.767	80.005	19.996	103.789	19.785	13.897	0.509
468.000	318.771	80.004	19.995	103.786	19.781	14.191	0.500
470.000	319.761	80.005	19.995	103.785	19.771	14.929	0.492
472.000	320.765	80.004	19.996	103.786	19.766	15.305	0.493
474.000	321.820	80.005	19.994	103.786	19.760	15.713	0.496
476.000	322.794	80.005	19.994	103.786	19.753	16.281	0.497
478.000	323.837	80.006	19.995	103.787	19.741	17.133	0.479
480.000	324.837	80.007	19.995	103.787	19.736	17.503	0.492
482.000	325.841	80.006	19.994	103.786	19.724	18.439	0.506
484.000	326.850	80.005	19.994	103.778	19.720	18.737	0.489
486.000	327.847	80.006	19.994	103.788	19.709	19.519	0.532
488.000	328.896	80.005	19.993	103.784	19.698	20.377	0.542
490.000	329.877	80.005	19.995	103.783	19.683	21.439	0.525
492.000	330.887	80.004	19.994	103.787	19.676	22.023	0.497
494.000	331.872	80.005	19.993	103.788	19.661	23.117	0.518
496.000	332.909	80.005	19.994	103.783	19.648	24.054	0.508
498.000	333.941	80.005	19.993	103.786	19.633	25.154	0.508
500.000	334.997	80.006	19.993	103.784	19.620	26.192	0.513
502.000	335.952	80.007	19.994	103.789	19.601	27.579	0.489
504.000	336.962	80.006	19.994	103.784	19.587	28.647	0.466
506.000	338.017	80.006	19.993	103.789	19.567	30.076	0.523
508.000	339.035	80.008	19.993	103.783	19.550	31.356	0.504
510.000	340.047	80.007	19.993	103.774	19.530	32.890	0.505
512.000	341.012	80.008	19.992	103.773	19.510	34.343	0.488
514.000	342.055	80.007	19.992	103.774	19.486	36.150	0.510
516.000	343.054	80.006	19.993	103.774	19.465	37.690	0.507
518.000	344.030	80.007	19.992	103.764	19.440	39.577	0.519
520.000	345.048	80.007	19.992	103.772	19.415	41.379	0.523
522.000	346.064	80.006	19.994	103.770	19.389	43.345	0.493
524.000	347.055	80.006	19.993	103.759	19.362	45.341	0.505
526.000	348.098	80.008	19.994	103.754	19.332	47.601	0.514
528.000	349.130	80.007	19.993	103.757	19.302	49.835	0.524
530.000	350.148	80.009	19.993	103.751	19.270	52.204	0.526
532.000	351.128	80.007	19.994	103.759	19.236	54.716	0.523
534.000	352.174	80.007	19.995	103.747	19.199	57.476	0.542
536.000	353.209	80.008	19.993	103.746	19.162	60.205	0.510
538.000	354.245	80.007	19.994	103.747	19.126	62.892	0.513
540.000	355.222	80.006	19.994	103.747	19.091	65.488	0.494
542.000	356.262	80.006	19.993	103.747	19.049	68.646	0.500
544.000	357.251	80.006	19.992	103.740	19.007	71.756	0.510
546.000	358.279	80.006	19.994	103.743	18.963	75.006	0.519
548.000	359.303	80.005	19.993	103.736	18.917	78.403	0.484
550.000	360.341	80.006	19.993	103.726	18.876	81.457	0.535
552.000	361.354	80.007	19.993	103.723	18.827	85.161	0.507
554.000	362.389	80.006	19.994	103.720	18.784	88.319	0.515
556.000	363.411	80.005	19.994	103.714	18.736	91.896	0.514
558.000	364.411	80.006	19.994	103.718	18.691	95.247	0.497
560.000	365.424	80.006	19.995	103.709	18.640	99.003	0.498
562.000	366.445	80.006	19.995	103.708	18.596	102.285	0.515
564.000	367.465	80.006	19.993	103.708	18.550	105.685	0.528
566.000	368.458	80.006	19.993	103.705	18.500	109.422	0.495
568.000	369.532	80.005	19.993	103.698	18.460	112.418	0.491
570.000	370.508	80.004	19.994	103.687	18.416	115.629	0.481
572.000	371.513	80.004	19.994	103.688	18.380	118.367	0.503
574.000	372.567	80.005	19.993	103.687	18.340	121.306	0.517
576.000	373.591	80.006	19.994	103.677	18.307	123.761	0.559
578.000	374.572	80.005	19.993	103.677	18.277	126.006	0.482
580.000	375.599	80.006	19.994	103.675	18.251	127.914	0.499
582.000	376.643	80.005	19.992	103.674	18.226	129.751	0.530
584.000	377.683	80.006	19.993	103.673	18.213	130.764	0.538
586.000	378.679	80.007	19.993	103.672	18.194	132.106	0.484
588.000	379.665	80.007	19.994	103.669	18.188	132.589	0.473
590.000	380.674	80.006	19.992	103.672	18.185	132.780	0.495
592.000	381.688	80.006	19.993	103.664	18.186	132.732	0.491
594.000	382.706	80.006	19.992	103.659	18.191	132.383	0.526
596.000	383.705	80.007	19.994	103.660	18.206	131.248	0.515
598.000	384.720	80.006	19.994	103.656	18.217	130.394	0.485
600.000	385.683	80.007	19.993	103.659	18.241	128.673	0.493
602.000	386.662	80.007	19.993	103.651	18.263	127.042	0.475
604.000	387.692	80.007	19.993	103.655	18.295	124.613	0.502
606.000	388.715	80.007	19.993	103.649	18.324	122.511	0.488
608.000	389.743	80.010	19.992	103.643	18.363	119.588	0.528
610.000	390.739	80.009	19.993	103.646	18.400	116.849	0.493
612.000	391.748	80.007	19.993	103.656	18.443	113.678	0.516
614.000	392.774	80.009	19.993	103.664	18.484	110.618	0.480
616.000	393.776	80.008	19.992	103.668	18.532	107.038	0.507
618.000	394.811	80.006	19.994	103.667	18.576	103.765	0.502
620.000	395.820	80.006	19.993	103.667	18.623	100.269	0.503
622.000	396.843	80.005	19.994	103.670	18.667	96.989	0.522
624.000	397.826	80.004	19.994	103.671	18.712	93.650	0.492
626.000	398.851	80.005	19.994	103.673	18.754	90.552	0.517
628.000	399.857	80.005	19.994	103.677	18.796	87.445	0.502
630.000	400.878	80.005	19.994	103.676	18.836	84.471	0.479
632.000	401.894	80.004	19.994	103.688	18.873	81.733	0.520
634.000	402.919	80.005	19.995	103.693	18.910	78.981	0.516
636.000	403.929	80.007	19.994	103.706	18.948	76.092	0.491
638.000	404.938	80.005	19.994	103.701	18.979	73.816	0.477
640.000	405.918	80.004	19.994	103.706	19.010	71.511	0.504
642.000	406.925	80.005	19.994	103.709	19.040	69.293	0.497
644.000	407.951	80.006	19.993	103.708	19.067	67.272	0.507
646.000	408.961	80.005	19.993	103.709	19.091	65.524	0.504
648.000	409.949	80.005	19.993	103.712	19.111	64.004	0.503
650.000	411.004	80.003	19.994	103.713	19.126	62.919	0.511
652.000	412.003	80.005	19.993	103.714	19.151	61.013	0.512
654.000	412.992	80.003	19.994	103.716	19.168	59.760	0.504
656.000	413.981	80.005	19.994	103.717	19.183	58.658	0.481
658.000	414.957	80.006	19.995	103.726	19.195	57.789	0.503
660.000	415.945	80.004	19.994	103.716	19.208	56.770	0.471
662.000	416.939	80.004	19.994	103.714	19.223	55.682	0.486
664.000	418.012	80.004	19.994	103.719	19.235	54.771	0.524
666.000	418.988	80.007	19.993	103.730	19.241	54.358	0.519
668.000	419.981	80.007	19.994	103.722	19.251	53.605	0.486
670.000	421.015	80.008	19.993	103.727	19.259	52.979	0.516
672.000	422.051	80.006	19.994	103.730	19.265	52.542	0.537
674.000	423.053	80.007	19.993	103.728	19.272	52.016	0.519
676.000	424.055	80.007	19.994	103.724	19.280	51.456	0.491
678.000	425.078	80.007	19.995	103.723	19.280	51.465	0.513
680.000	426.102	80.007	19.995	103.721	19.283	51.213	0.516
682.000	427.110	80.006	19.995	103.719	19.287	50.899	0.512
684.000	428.167	80.008	19.993	103.739	19.290	50.667	0.514
686.000	429.161	80.005	19.994	103.739	19.290	50.670	0.504
688.000	430.192	80.008	19.994	103.736	19.294	50.381	0.511
690.000	431.236	80.007	19.994	103.735	19.293	50.454	0.535
692.000	432.230	80.008	19.992	103.733	19.297	50.193	0.486
694.000	433.251	80.008	19.993	103.733	19.296	50.260	0.514
696.000	434.293	80.009	19.992	103.726	19.295	50.289	0.513
698.000	435.306	80.007	19.992	103.722	19.298	50.079	0.504
700.000	436.298	80.005	19.992	103.738	19.297	50.183	0.497
702.000	437.334	80.005	19.993	103.737	19.299	50.053	0.505
704.000	438.353	80.005	19.993	103.744	19.300	49.955	0.519
706.000	439.350	80.005	19.993	103.735	19.301	49.871	0.537
708.000	440.379	80.005	19.993	103.737	19.299	50.006	0.520
710.000	441.402	80.004	19.993	103.742	19.305	49.603	0.543
712.000	442.386	80.004	19.993	103.741	19.306	49.514	0.485
714.000	443.394	80.002	19.994	103.729	19.310	49.192	0.549
716.000	444.401	80.003	19.993	103.744	19.312	49.067	0.505
718.000	445.441	80.004	19.996	103.750	19.311	49.099	0.533
720.000	446.427	80.005	19.994	103.747	19.317	48.694	0.476
722.000	447.470	80.005	19.995	103.737	19.315	48.818	0.506
724.000	448.477	80.005	19.994	103.735	19.323	48.216	0.524
726.000	449.487	80.007	19.993	103.740	19.325	48.122	0.509
728.000	450.509	80.006	19.994	103.731	19.330	47.730	0.503
730.000	451.518	80.005	19.993	103.741	19.342	46.817	0.505
732.000	452.562	80.005	19.993	103.731	19.347	46.439	0.507
734.000	453.568	80.006	19.994	103.736	19.355	45.867	0.508
736.000	454.592	80.006	19.994	103.738	19.364	45.208	0.519
738.000	455.637	80.005	19.994	103.738	19.368	44.910	0.529
740.000	456.669	80.004	19.993	103.732	19.380	44.008	0.513
742.000	457.690	80.005	19.994	103.733	19.391	43.166	0.539
744.000	458.732	80.004	19.994	103.732	19.401	42.465	0.548
746.000	459.780	80.006	19.995	103.738	19.415	41.387	0.531
748.000	460.809	80.006	19.994	103.731	19.425	40.649	0.524
750.000	461.839	80.006	19.994	103.736	19.437	39.742	0.533
752.000	462.846	80.006	19.994	103.738	19.455	38.425	0.506
754.000	463.903	80.006	19.993	103.727	19.470	37.296	0.524
756.000	464.881	80.005	19.993	103.729	19.485	36.220	0.499
758.000	465.880	80.007	19.994	103.736	19.505	34.702	0.508
760.000	466.902	80.006	19.993	103.736	19.522	33.449	0.519
762.000	467.920	80.003	19.993	103.743	19.543	31.855	0.531
764.000	468.968	80.005	19.992	103.746	19.563	30.417	0.493
766.000	470.047	80.005	19.993	103.749	19.582	28.982	0.566
768.000	471.024	80.006	19.992	103.750	19.602	27.466	0.525
770.000	472.010	80.006	19.992	103.748	19.623	25.896	0.525
772.000	473.052	80.006	19.993	103.741	19.643	24.404	0.524
774.000	474.114	80.007	19.993	103.750	19.664	22.878	0.547
776.000	475.158	80.007	19.993	103.749	19.687	21.167	0.526
778.000	476.177	80.007	19.992	103.750	19.708	19.628	0.497
780.000	477.177	80.007	19.993	103.752	19.727	18.185	0.482
782.000	478.195	80.006	19.993	103.753	19.743	16.981	0.520
784.000	479.228	80.005	19.993	103.753	19.760	15.734	0.489
786.000	480.265	80.005	19.992	103.752	19.778	14.356	0.526
788.000	481.315	80.005	19.993	103.750	19.793	13.239	0.523
790.000	482.300	80.006	19.992	103.750	19.805	12.364	0.494
792.000	483.328	80.006	19.993	103.751	19.820	11.273	0.501
794.000	484.334	80.005	19.993	103.750	19.832	10.382	0.522
796.000	485.330	80.006	19.993	103.750	19.843	9.563	0.494
798.000	486.353	80.007	19.992	103.749	19.855	8.671	0.493
800.000	487.376	80.004	19.992	103.749	19.859	8.399	0.529
802.000	488.414	80.008	19.993	103.749	19.868	7.718	0.513
804.000	489.453	80.006	19.994	103.749	19.875	7.153	0.516
806.000	490.427	80.004	19.993	103.751	19.879	6.897	0.499
808.000	491.415	80.006	19.994	103.749	19.890	6.058	0.505
810.000	492.496	80.006	19.994	103.750	19.896	5.596	0.530
812.000	493.500	80.005	19.993	103.750	19.898	5.462	0.492
814.000	494.531	80.006	19.994	103.747	19.906	4.871	0.494
816.000	495.581	80.002	19.994	103.749	19.910	4.553	0.516
818.000	496.594	80.006	19.993	103.749	19.910	4.552	0.524
820.000	497.610	80.004	19.993	103.751	19.911	4.498	0.511
822.000	498.666	80.005	19.992	103.751	19.917	4.070	0.516
824.000	499.668	80.004	19.993	103.751	19.920	3.792	0.526
826.000	500.709	80.006	19.993	103.752	19.919	3.916	0.511
828.000	501.751	80.005	19.993	103.755	19.922	3.645	0.512
830.000	502.781	80.005	19.993	103.751	19.924	3.537	0.503
832.000	503.824	80.006	19.993	103.751	19.926	3.367	0.507
834.000	504.801	80.006	19.994	103.751	19.925	3.458	0.497
836.000	505.845	80.006	19.993	103.752	19.931	3.002	0.529
838.000	506.876	80.004	19.996	103.759	19.926	3.381	0.513
840.000	507.880	80.004	19.994	103.756	19.927	3.318	0.501
842.000	508.913	80.003	19.994	103.752	19.929	3.188	0.488
844.000	509.974	80.003	19.994	103.752	19.931	3.022	0.523
846.000	510.969	80.005	19.994	103.751	19.927	3.282	0.511
848.000	512.024	80.004	19.994	103.753	19.930	3.063	0.544
850.000	513.047	80.005	19.992	103.750	19.928	3.223	0.522
852.000	514.055	80.006	19.994	103.750	19.932	2.939	0.535
854.000	515.106	80.007	19.993	103.750	19.928	3.239	0.516
856.000	516.140	80.009	19.993	103.750	19.934	2.765	0.531
858.000	517.166	80.008	19.993	103.751	19.933	2.825	0.512
860.000	518.186	80.008	19.994	103.750	19.934	2.799	0.504
862.000	519.232	80.007	19.994	103.752	19.935	2.679	0.518
864.000	520.264	80.005	19.991	103.747	19.932	2.911	0.517
866.000	521.266	80.004	19.994	103.749	19.937	2.562	0.516
868.000	522.298	80.004	19.993	103.749	19.936	2.611	0.508
870.000	523.324	80.006	19.993	103.750	19.936	2.659	0.489
872.000	524.394	80.004	19.993	103.749	19.933	2.870	0.519
874.000	525.390	80.007	19.993	103.749	19.937	2.528	0.506
876.000	526.429	80.004	19.993	103.749	19.935	2.712	0.552
878.000	527.447	80.005	19.993	103.749	19.935	2.745	0.495
880.000	528.478	80.005	19.992	103.751	19.934	2.761	0.503
882.000	529.537	80.004	19.993	103.749	19.935	2.680	0.564
884.000	530.547	80.005	19.992	103.751	19.937	2.548	0.528
886.000	531.578	80.006	19.993	103.751	19.932	2.895	0.520
888.000	532.571	80.004	19.993	103.755	19.937	2.562	0.512
890.000	533.590	80.006	19.993	103.755	19.937	2.548	0.495
892.000	534.623	80.006	19.992	103.753	19.938	2.459	0.516
894.000	535.655	80.004	19.993	103.753	19.940	2.315	0.518
896.000	536.697	80.005	19.993	103.756	19.937	2.578	0.508
898.000	537.709	80.004	19.994	103.756	19.938	2.515	0.523
900.000	538.728	80.006	19.992	103.755	19.936	2.615	0.527
902.000	539.761	80.003	19.994	103.753	19.937	2.572	0.521
904.000	540.789	80.003	19.993	103.753	19.934	2.815	0.517
906.000	541.854	80.006	19.992	103.755	19.939	2.432	0.515
908.000	542.870	80.008	19.993	103.755	19.942	2.197	0.518
910.000	543.856	80.006	19.994	103.755	19.942	2.209	0.493
912.000	544.895	80.008	19.992	103.754	19.937	2.588	0.520
914.000	545.890	80.006	19.994	103.753	19.936	2.657	0.512
916.000	546.902	80.007	19.993	103.750	19.935	2.724	0.503
918.000	547.922	80.005	19.994	103.749	19.936	2.653	0.498
920.000	548.985	80.007	19.994	103.750	19.938	2.501	0.527
922.000	550.019	80.007	19.994	103.750	19.942	2.189	0.522
924.000	551.088	80.007	19.993	103.750	19.938	2.465	0.517
926.000	552.099	80.006	19.994	103.750	19.938	2.448	0.537
928.000	553.077	80.008	19.994	103.747	19.935	2.696	0.509
930.000	554.153	80.005	19.995	103.749	19.934	2.752	0.532
932.000	555.175	80.005	19.995	103.749	19.936	2.613	0.512
934.000	556.225	80.006	19.995	103.747	19.936	2.637	0.539
936.000	557.246	80.008	19.993	103.748	19.936	2.643	0.529
938.000	558.268	80.006	19.994	103.749	19.933	2.882	0.543
940.000	559.251	80.009	19.994	103.747	19.937	2.574	0.487
942.000	560.237	80.006	19.993	103.746	19.938	2.509	0.469
944.000	561.261	80.006	19.993	103.746	19.939	2.388	0.503
946.000	562.241	80.006	19.993	103.748	19.936	2.649	0.516
948.000	563.288	80.004	19.994	103.749	19.934	2.801	0.516
950.000	564.299	80.006	19.993	103.749	19.936	2.607	0.508
952.000	565.305	80.005	19.992	103.750	19.939	2.422	0.505
954.000	566.319	80.004	19.993	103.752	19.936	2.627	0.490
956.000	567.312	80.006	19.993	103.753	19.936	2.599	0.511
958.000	568.320	80.006	19.994	103.752	19.939	2.400	0.514
960.000	569.337	80.005	19.994	103.752	19.933	2.892	0.511
962.000	570.338	80.005	19.993	103.751	19.934	2.767	0.499
964.000	571.310	80.006	19.993	103.753	19.935	2.714	0.486
966.000	572.372	80.006	19.994	103.753	19.934	2.813	0.517
968.000	573.374	80.005	19.992	103.753	19.937	2.583	0.517
970.000	574.424	80.005	19.993	103.754	19.935	2.692	0.529
972.000	575.448	80.006	19.993	103.755	19.937	2.584	0.499
974.000	576.486	80.005	19.992	103.754	19.934	2.759	0.548
976.000	577.436	80.004	19.993	103.755	19.937	2.560	0.495
978.000	578.489	80.006	19.993	103.762	19.930	3.093	0.499
980.000	579.494	80.004	19.993	103.763	19.930	3.048	0.506
982.000	580.558	80.004	19.993	103.752	19.932	2.935	0.504
984.000	581.577	80.005	19.994	103.751	19.931	3.042	0.529
986.000	582.609	80.005	19.993	103.752	19.929	3.123	0.521
988.000	583.620	80.006	19.993	103.749	19.931	3.024	0.525
990.000	584.658	80.006	19.992	103.751	19.932	2.925	0.498
992.000	585.692	80.008	19.993	103.750	19.930	3.089	0.502
994.000	586.697	80.006	19.993	103.747	19.929	3.168	0.513
996.000	587.697	80.006	19.995	103.746	19.930	3.054	0.495
998.000	588.742	80.006	19.995	103.748	19.932	2.957	0.501
1000.000	589.729	80.005	19.994	103.748	19.933	2.834	0.501
1002.000	590.766	80.007	19.994	103.749	19.931	3.014	0.533
1004.000	591.834	80.005	19.995	103.748	19.933	2.835	0.541
1006.000	592.863	80.006	19.994	103.748	19.935	2.736	0.501
1008.000	593.838	80.005	19.993	103.750	19.934	2.809	0.470
1010.000	594.881	80.006	19.993	103.751	19.930	3.109	0.541
1012.000	595.869	80.006	19.994	103.749	19.928	3.211	0.497
1014.000	596.936	80.006	19.993	103.747	19.925	3.431	0.531
1016.000	597.931	80.007	19.993	103.748	19.930	3.046	0.492
1018.000	598.967	80.004	19.995	103.752	19.928	3.243	0.499
1020.000	599.979	80.008	19.993	103.756	19.927	3.275	0.505
1022.000	601.042	80.006	19.994	103.750	19.927	3.306	0.522
1024.000	602.018	80.005	19.994	103.749	19.928	3.219	0.511
1025.999	603.060	80.005	19.994	103.748	19.930	3.079	0.517
1027.999	604.004	80.002	19.995	103.750	19.928	3.209	0.498
1029.999	605.019	80.003	19.994	103.750	19.929	3.174	0.503
1031.999	606.037	80.005	19.995	103.751	19.929	3.186	0.509
1033.999	607.046	80.003	19.994	103.751	19.929	3.182	0.504
1036.000	608.077	80.003	19.993	103.752	19.929	3.138	0.509
1037.999	609.065	80.004	19.993	103.752	19.926	3.361	0.504
1039.999	610.129	80.003	19.993	103.755	19.927	3.312	0.504
1041.999	611.140	80.005	19.993	103.752	19.927	3.326	0.527
1044.000	612.149	80.005	19.992	103.751	19.925	3.468	0.528
1045.999	613.173	80.006	19.994	103.750	19.929	3.174	0.499
1047.999	614.202	80.006	19.993	103.748	19.927	3.275	0.517
1050.000	615.216	80.005	19.994	103.748	19.925	3.429	0.496
1051.999	616.273	80.006	19.993	103.749	19.929	3.170	0.504
1053.999	617.265	80.004	19.995	103.749	19.928	3.227	0.504
1055.999	618.292	80.006	19.994	103.749	19.928	3.251	0.496
1057.999	619.274	80.003	19.993	103.749	19.925	3.480	0.525
1059.999	620.313	80.005	19.994	103.750	19.927	3.271	0.531
1062.000	621.294	80.004	19.995	103.749	19.929	3.121	0.489
1063.999	622.358	80.003	19.993	103.748	19.928	3.237	0.548
1065.999	623.373	80.005	19.994	103.749	19.929	3.180	0.524
1067.999	624.326	80.005	19.994	103.750	19.927	3.308	0.462
1069.999	625.382	80.007	19.993	103.751	19.931	2.996	0.498
1071.999	626.399	80.005	19.993	103.751	19.929	3.144	0.515
1073.999	627.445	80.005	19.994	103.751	19.927	3.280	0.520
1076.000	628.481	80.008	19.994	103.749	19.928	3.192	0.539
1078.000	629.526	80.006	19.993	103.750	19.928	3.231	0.530
1080.001	630.544	80.006	19.993	103.756	19.929	3.146	0.518
1081.999	631.585	80.004	19.993	103.753	19.930	3.101	0.564
1083.999	632.674	80.005	19.993	103.754	19.924	3.503	0.570
1085.999	633.669	80.005	19.994	103.751	19.924	3.496	0.514
1088.000	634.761	80.006	19.993	103.753	19.925	3.419	0.518
1089.999	635.812	80.007	19.995	103.752	19.924	3.529	0.528
1092.000	636.853	80.005	19.994	103.753	19.920	3.857	0.520
1094.000	637.906	80.007	19.992	103.752	19.925	3.464	0.527
1096.001	638.950	80.007	19.993	103.753	19.922	3.665	0.530
1097.999	639.961	80.007	19.994	103.752	19.923	3.628	0.507
1100.000	641.009	80.007	19.993	103.753	19.925	3.456	0.531
1101.999	642.026	80.006	19.994	103.753	19.927	3.286	0.552
1103.999	643.031	80.008	19.993	103.750	19.924	3.517	0.535
1106.000	644.057	80.008	19.994	103.755	19.927	3.275	0.470
1107.999	645.104	80.005	19.993	103.757	19.927	3.282	0.515
1110.000	646.147	80.005	19.993	103.754	19.922	3.647	0.519
1111.999	647.239	80.003	19.993	103.756	19.924	3.494	0.522
1113.999	648.229	80.004	19.994	103.752	19.925	3.454	0.490
1116.000	649.296	80.006	19.994	103.751	19.922	3.693	0.516
1117.999	650.316	80.002	19.995	103.754	19.924	3.505	0.515
1119.999	651.413	80.006	19.994	103.756	19.921	3.750	0.529
1122.000	652.406	80.004	19.994	103.755	19.923	3.604	0.504
1123.999	653.446	80.007	19.993	103.749	19.923	3.596	0.514
1125.999	654.523	80.006	19.994	103.759	19.924	3.545	0.522
1127.999	655.545	80.011	19.993	103.753	19.926	3.402	0.504
1130.000	656.542	80.004	19.993	103.757	19.921	3.716	0.505
1131.999	657.559	80.004	19.993	103.752	19.922	3.682	0.514
1133.999	658.592	80.005	19.994	103.756	19.924	3.501	0.516
1136.000	659.617	80.007	19.995	103.749	19.922	3.643	0.532
1137.999	660.656	80.004	19.994	103.765	19.925	3.445	0.524
1139.999	661.681	80.005	19.993	103.763	19.925	3.417	0.512
1141.999	662.723	80.004	19.993	103.776	19.923	3.593	0.492
1144.000	663.682	80.004	19.993	103.786	19.919	3.880	0.458
1145.999	664.728	80.005	19.995	103.767	19.919	3.933	0.512
1147.999	665.767	80.006	19.994	103.772	19.920	3.846	0.510
1149.999	666.774	80.004	19.993	103.787	19.919	3.925	0.515
1152.000	667.814	80.006	19.993	103.788	19.920	3.796	0.540
1153.999	668.813	80.007	19.992	103.784	19.919	3.926	0.500
1155.999	669.769	80.007	19.993	103.773	19.921	3.753	0.530
1157.999	670.822	80.006	19.993	103.783	19.919	3.889	0.494
1160.001	671.815	80.006	19.994	103.779	19.921	3.751	0.497
1161.999	672.871	80.006	19.993	103.784	19.923	3.636	0.521
1163.999	673.903	80.006	19.993	103.792	19.919	3.883	0.525
1165.999	674.921	80.006	19.992	103.787	19.921	3.785	0.517
1167.999	675.933	80.005	19.993	103.785	19.920	3.824	0.504
1169.999	676.960	80.007	19.992	103.785	19.922	3.710	0.529
1171.999	677.990	80.007	19.994	103.789	19.922	3.688	0.528
1173.999	679.039	80.008	19.994	103.788	19.922	3.712	0.537
1176.000	680.014	80.009	19.994	103.785	19.920	3.792	0.502
1177.999	681.054	80.008	19.992	103.786	19.921	3.765	0.499
1179.999	682.062	80.009	19.992	103.787	19.920	3.834	0.535
1181.999	683.129	80.007	19.994	103.786	19.917	4.045	0.537
1183.999	684.181	80.009	19.993	103.784	19.922	3.660	0.559
1185.999	685.168	80.006	19.994	103.785	19.921	3.774	0.509
1187.999	686.217	80.002	19.993	103.787	19.920	3.857	0.520
1189.999	687.229	80.006	19.994	103.786	19.919	3.881	0.514
1192.000	688.284	80.008	19.994	103.787	19.918	3.964	0.548
1194.000	689.257	80.004	19.993	103.786	19.917	4.031	0.525
1196.000	690.256	80.005	19.994	103.787	19.918	3.963	0.500
1197.999	691.274	80.006	19.995	103.807	19.918	3.985	0.517
1199.999	692.378	80.006	19.994	103.795	19.917	4.031	0.560
1201.999	693.338	80.005	19.994	103.793	19.920	3.825	0.517
1203.999	694.341	80.002	19.995	103.795	19.919	3.924	0.556
1206.000	695.346	80.004	19.994	103.804	19.915	4.184	0.525
1207.999	696.371	80.005	19.994	103.801	19.918	3.995	0.484
1210.000	697.372	80.002	19.994	103.795	19.916	4.091	0.521
1211.999	698.392	80.005	19.994	103.806	19.917	4.079	0.510
1213.999	699.361	80.005	19.994	103.809	19.917	4.085	0.514
1215.999	700.390	80.005	19.995	103.808	19.917	4.057	0.514
1217.999	701.403	80.008	19.994	103.809	19.914	4.296	0.495
1219.999	702.416	80.003	19.994	103.820	19.916	4.111	0.521
1222.000	703.390	80.004	19.995	103.826	19.919	3.931	0.499
1223.999	704.397	80.005	19.993	103.829	19.914	4.302	0.483
1225.999	705.418	80.004	19.993	103.830	19.915	4.193	0.497
1228.000	706.432	80.003	19.994	103.829	19.915	4.172	0.500
1229.999	707.433	80.006	19.992	103.825	19.914	4.286	0.505
1231.999	708.421	80.007	19.993	103.830	19.914	4.258	0.489
1233.999	709.493	80.007	19.994	103.830	19.913	4.385	0.506
1235.999	710.466	80.007	19.993	103.829	19.911	4.507	0.504
1237.999	711.464	80.010	19.993	103.826	19.915	4.205	0.491
1239.999	712.474	80.009	19.993	103.826	19.911	4.495	0.510
1241.999	713.466	80.006	19.993	103.828	19.911	4.519	0.467
1243.999	714.488	80.007	19.993	103.828	19.910	4.560	0.519
1246.001	715.547	80.006	19.994	103.830	19.912	4.416	0.528
1248.001	716.597	80.003	19.993	103.829	19.912	4.418	0.533
1249.999	717.549	80.002	19.994	103.829	19.910	4.537	0.476
1251.999	718.573	80.018	19.992	103.824	19.910	4.594	0.488
1253.999	719.559	80.005	19.993	103.831	19.911	4.491	0.471
1255.999	720.615	80.007	19.993	103.829	19.905	4.925	0.500
1258.000	721.610	80.007	19.995	103.832	19.911	4.518	0.487
1259.999	722.657	80.008	19.993	103.828	19.909	4.630	0.488
1261.999	723.676	80.009	19.993	103.827	19.909	4.624	0.532
1263.999	724.657	80.007	19.992	103.822	19.908	4.729	0.485
1265.999	725.712	80.007	19.992	103.827	19.908	4.755	0.518
1268.000	726.707	80.003	19.993	103.816	19.910	4.595	0.483
1269.999	727.687	80.005	19.993	103.804	19.911	4.459	0.516
1271.999	728.703	80.004	19.993	103.809	19.913	4.343	0.500
1273.999	729.707	80.004	19.992	103.811	19.912	4.405	0.485
1275.999	730.729	80.006	19.993	103.799	19.917	4.038	0.495
1277.999	731.760	80.005	19.995	103.791	19.918	3.963	0.520
1279.999	732.733	80.000	19.994	103.788	19.915	4.159	0.518
1282.000	733.769	80.004	19.994	103.779	19.918	3.964	0.504
1283.999	734.827	80.001	19.994	103.770	19.919	3.867	0.514
1285.999	735.864	80.004	19.993	103.769	19.920	3.838	0.533
1287.999	736.837	80.003	19.993	103.756	19.918	3.944	0.484
1290.000	737.879	80.003	19.993	103.753	19.923	3.638	0.518
1291.999	738.938	80.005	19.993	103.751	19.921	3.765	0.534
1294.000	739.945	80.002	19.993	103.747	19.918	3.950	0.540
1295.999	740.952	80.006	19.994	103.741	19.924	3.553	0.493
1297.999	741.982	80.008	19.993	103.736	19.920	3.788	0.557
1299.999	743.036	80.004	19.994	103.748	19.922	3.644	0.501
1300.999	743.557	80.006	19.994	103.742	19.925	3.456	0.524