File: 01_Data/Rubber_Band/MCC/Rubber_Band_MCC_30K_min_220208_R1.txt
Sample ID:	C:\MCC\MCC Cal\Test\Rubber_Band_MCC_30K_min_220208_R1.txt
Sample Weight (mg):	4.2
Heating Rate (C/s):	0.5
Combustor Temp (C):	900
N2 Flow Rate (cc/min):	80
O2 Flow Rate (cc/min):	20
Calibration File:	C:\MCC\MCC Cal\Coeff1 JN10440_30_210304.txt.txt
T Correction Coefficients:	0	1.024463	0
Time Shift (s):	14
*
Time (s)	Temperature (C)	N2 flow rate (cc/min)	O2 flow rate (cc/min)	Flow Rate (cc/min)	Oxygen (%)	HRR (W/g)	Heating rate (C/s)
0.000	111.971	80.011	19.993	103.713	20.005	-0.369	0.006
2.000	112.020	80.011	19.992	103.711	20.006	-0.428	-0.015
4.000	112.021	80.012	19.993	103.696	20.003	-0.164	-0.010
6.000	112.015	80.013	19.994	103.709	20.003	-0.206	-0.011
8.000	112.046	80.012	19.992	103.712	20.002	-0.141	0.012
9.999	111.997	80.009	19.993	103.716	20.004	-0.281	-0.006
12.000	112.053	80.010	19.993	103.738	19.996	0.321	-0.005
13.999	112.069	80.008	19.993	103.752	19.998	0.172	0.018
15.999	112.082	80.010	19.993	103.765	19.995	0.418	0.010
18.000	112.094	80.010	19.993	103.796	19.994	0.521	0.008
19.999	112.169	80.008	19.994	103.798	19.989	0.918	0.000
22.000	112.259	80.010	19.993	103.806	19.989	0.902	0.048
23.999	112.353	80.009	19.993	103.806	19.989	0.870	0.043
25.999	112.441	80.009	19.994	103.810	19.986	1.143	0.048
28.000	112.576	80.009	19.994	103.802	19.982	1.416	0.076
29.999	112.663	80.010	19.995	103.821	19.977	1.786	0.070
31.999	112.830	80.008	19.994	103.855	19.977	1.843	0.087
33.999	113.029	80.010	19.994	103.855	19.976	1.896	0.101
35.999	113.251	80.010	19.995	103.843	19.974	2.007	0.124
37.999	113.440	80.010	19.994	103.832	19.972	2.222	0.098
40.000	113.669	80.008	19.995	103.853	19.973	2.155	0.095
41.999	113.928	80.008	19.993	103.870	19.974	2.060	0.139
43.999	114.231	80.008	19.994	103.880	19.971	2.283	0.145
45.999	114.502	80.007	19.993	103.881	19.969	2.397	0.193
47.999	114.812	80.008	19.993	103.899	19.965	2.706	0.157
50.001	115.176	80.008	19.994	103.907	19.966	2.677	0.206
51.999	115.533	80.009	19.995	103.911	19.964	2.825	0.162
53.999	115.944	80.008	19.994	103.902	19.969	2.419	0.211
55.999	116.371	80.008	19.994	103.890	19.962	2.997	0.211
58.000	116.805	80.009	19.994	103.910	19.964	2.776	0.222
60.000	117.233	80.009	19.996	103.917	19.956	3.458	0.218
61.999	117.732	80.009	19.995	103.942	19.956	3.395	0.234
64.000	118.199	80.009	19.995	103.948	19.956	3.420	0.247
65.999	118.712	80.010	19.994	103.945	19.956	3.439	0.259
67.999	119.225	80.010	19.994	103.947	19.955	3.513	0.259
69.999	119.784	80.009	19.994	103.947	19.954	3.567	0.242
71.999	120.361	80.010	19.993	103.958	19.954	3.552	0.282
73.999	120.899	80.011	19.993	103.949	19.954	3.576	0.260
76.000	121.534	80.010	19.994	103.946	19.954	3.603	0.265
78.000	122.146	80.011	19.994	103.951	19.953	3.673	0.301
79.999	122.747	80.011	19.994	103.946	19.953	3.681	0.303
81.999	123.459	80.011	19.993	103.935	19.951	3.843	0.366
83.999	124.147	80.011	19.993	103.955	19.950	3.885	0.336
85.999	124.831	80.012	19.993	103.945	19.952	3.749	0.337
87.999	125.470	80.011	19.993	103.954	19.950	3.894	0.315
90.001	126.224	80.011	19.992	103.953	19.945	4.308	0.336
92.001	126.951	80.012	19.994	103.956	19.945	4.285	0.359
94.000	127.682	80.010	19.994	103.948	19.945	4.270	0.349
95.999	128.401	80.009	19.993	103.959	19.944	4.323	0.373
97.999	129.198	80.010	19.994	103.971	19.942	4.487	0.401
100.000	129.961	80.009	19.994	103.970	19.945	4.278	0.394
101.999	130.715	80.010	19.994	103.965	19.945	4.243	0.405
103.999	131.456	80.010	19.994	103.958	19.942	4.521	0.373
105.999	132.253	80.009	19.993	103.958	19.940	4.630	0.392
107.999	133.105	80.010	19.994	103.971	19.942	4.527	0.404
109.999	133.897	80.010	19.994	103.961	19.938	4.824	0.401
111.999	134.723	80.009	19.993	103.961	19.944	4.382	0.417
113.999	135.586	80.008	19.993	103.975	19.939	4.733	0.411
116.000	136.392	80.010	19.994	103.967	19.937	4.869	0.390
117.999	137.288	80.009	19.994	103.963	19.937	4.927	0.459
119.999	138.163	80.008	19.994	103.972	19.935	5.065	0.423
121.999	139.023	80.009	19.994	103.923	19.934	5.130	0.442
123.999	139.888	80.010	19.995	104.007	19.934	5.162	0.451
126.000	140.826	80.008	19.993	103.960	19.936	5.002	0.437
128.000	141.706	80.008	19.993	103.960	19.935	5.016	0.428
130.000	142.622	80.009	19.995	103.989	19.931	5.354	0.447
132.000	143.511	80.008	19.994	103.992	19.934	5.148	0.451
134.000	144.444	80.010	19.993	103.968	19.931	5.386	0.452
136.000	145.412	80.009	19.993	103.958	19.931	5.388	0.463
138.000	146.363	80.009	19.994	103.948	19.931	5.342	0.487
140.000	147.279	80.009	19.994	103.962	19.929	5.493	0.488
142.000	148.216	80.010	19.994	103.984	19.929	5.528	0.451
144.000	149.168	80.010	19.993	103.980	19.931	5.338	0.467
146.000	150.173	80.008	19.993	103.980	19.927	5.671	0.508
148.000	151.124	80.010	19.994	103.982	19.925	5.803	0.490
150.000	152.076	80.009	19.994	103.980	19.925	5.810	0.462
152.000	153.047	80.010	19.996	103.961	19.923	6.012	0.455
154.000	154.030	80.010	19.995	103.958	19.923	6.006	0.493
156.000	154.989	80.009	19.995	103.950	19.921	6.135	0.481
158.000	155.964	80.010	19.995	103.958	19.920	6.237	0.475
160.000	156.972	80.011	19.996	103.946	19.921	6.153	0.471
162.000	157.970	80.011	19.994	103.967	19.922	6.075	0.489
164.000	158.963	80.011	19.995	103.925	19.919	6.312	0.510
166.000	159.891	80.012	19.994	103.952	19.917	6.426	0.459
168.000	160.913	80.011	19.993	104.026	19.916	6.524	0.511
170.000	161.937	80.011	19.994	103.953	19.911	6.901	0.511
172.000	162.929	80.012	19.994	103.960	19.910	6.949	0.526
174.000	163.937	80.010	19.993	103.955	19.912	6.829	0.526
176.000	164.968	80.010	19.994	103.959	19.910	6.960	0.501
178.000	165.987	80.009	19.993	103.950	19.912	6.810	0.505
180.000	166.982	80.010	19.993	103.948	19.909	7.058	0.516
182.000	167.987	80.010	19.994	103.948	19.908	7.114	0.486
184.000	168.970	80.009	19.993	103.949	19.906	7.287	0.530
186.000	169.986	80.009	19.995	103.950	19.907	7.226	0.514
188.000	170.987	80.008	19.994	103.949	19.904	7.408	0.495
190.000	172.031	80.009	19.994	103.941	19.901	7.697	0.500
192.000	173.027	80.007	19.994	103.941	19.900	7.765	0.515
194.000	174.027	80.009	19.993	103.936	19.897	7.971	0.514
196.000	175.046	80.009	19.993	103.943	19.893	8.265	0.501
198.000	176.072	80.009	19.994	103.951	19.885	8.905	0.508
200.000	177.093	80.009	19.994	103.938	19.890	8.556	0.514
202.000	178.097	80.010	19.994	103.943	19.887	8.780	0.503
204.000	179.099	80.010	19.994	103.948	19.885	8.945	0.509
206.000	180.080	80.010	19.994	103.946	19.885	8.949	0.487
208.000	181.109	80.007	19.992	103.942	19.883	9.057	0.497
210.000	182.082	80.010	19.995	103.946	19.878	9.482	0.500
212.000	183.079	80.010	19.995	103.948	19.876	9.618	0.466
214.000	184.073	80.010	19.994	103.925	19.871	9.983	0.505
216.000	185.115	80.010	19.994	103.924	19.864	10.503	0.515
218.000	186.096	80.010	19.995	103.918	19.862	10.675	0.503
220.000	187.140	80.011	19.994	103.928	19.861	10.782	0.506
222.000	188.157	80.011	19.993	103.934	19.861	10.772	0.527
224.000	189.155	80.011	19.993	103.943	19.855	11.242	0.508
226.000	190.161	80.010	19.995	103.935	19.851	11.525	0.517
228.000	191.148	80.011	19.993	103.927	19.847	11.826	0.502
230.000	192.097	80.010	19.995	103.916	19.843	12.150	0.476
232.000	193.109	80.010	19.995	103.940	19.840	12.382	0.523
234.000	194.139	80.008	19.994	103.941	19.839	12.477	0.512
236.000	195.072	80.009	19.994	103.916	19.836	12.663	0.482
238.000	196.059	80.008	19.995	103.931	19.832	13.034	0.471
240.000	197.078	80.008	19.994	103.914	19.827	13.400	0.503
242.000	198.080	80.009	19.994	103.916	19.821	13.834	0.515
244.000	199.102	80.009	19.992	103.928	19.817	14.194	0.538
246.000	200.044	80.010	19.994	103.910	19.816	14.246	0.453
248.000	201.077	80.011	19.994	103.913	19.811	14.628	0.523
250.000	202.039	80.010	19.994	103.916	19.805	15.076	0.497
252.000	203.073	80.010	19.994	103.909	19.802	15.293	0.508
254.000	204.018	80.010	19.996	103.897	19.799	15.534	0.472
256.000	205.023	80.011	19.994	103.902	19.791	16.163	0.457
258.000	206.042	80.010	19.994	103.906	19.793	15.973	0.512
260.000	207.043	80.009	19.994	103.902	19.791	16.126	0.518
262.000	208.039	80.007	19.992	103.907	19.783	16.774	0.515
264.000	209.029	80.007	19.994	103.903	19.781	16.946	0.517
266.000	210.009	80.009	19.993	103.902	19.775	17.380	0.493
268.000	211.009	80.008	19.993	103.899	19.772	17.604	0.510
270.000	212.006	80.009	19.993	103.900	19.769	17.891	0.495
272.000	212.958	80.008	19.994	103.896	19.769	17.870	0.490
274.000	213.920	80.008	19.993	103.892	19.765	18.205	0.493
276.000	214.968	80.008	19.993	103.893	19.760	18.571	0.490
278.000	215.928	80.009	19.994	103.899	19.759	18.641	0.480
280.000	216.895	80.009	19.994	103.897	19.755	18.970	0.499
282.000	217.872	80.009	19.994	103.901	19.753	19.096	0.478
284.000	218.885	80.010	19.994	103.904	19.751	19.224	0.495
286.000	219.878	80.009	19.993	103.893	19.744	19.773	0.483
288.000	220.852	80.009	19.993	103.890	19.746	19.659	0.511
290.000	221.810	80.010	19.995	103.889	19.745	19.690	0.487
292.000	222.822	80.009	19.993	103.900	19.740	20.119	0.523
294.000	223.816	80.009	19.994	103.903	19.740	20.079	0.514
296.000	224.776	80.009	19.993	103.905	19.738	20.251	0.500
298.000	225.751	80.010	19.995	103.902	19.738	20.243	0.498
300.000	226.764	80.009	19.994	103.904	19.739	20.186	0.479
302.000	227.721	80.011	19.993	103.899	19.738	20.230	0.478
304.000	228.769	80.010	19.994	103.905	19.740	20.073	0.492
306.000	229.807	80.010	19.993	103.892	19.737	20.340	0.520
308.000	230.779	80.011	19.995	103.892	19.740	20.132	0.507
310.000	231.756	80.011	19.993	103.895	19.741	19.999	0.465
312.000	232.775	80.010	19.993	103.884	19.741	20.042	0.474
314.000	233.800	80.010	19.994	103.888	19.743	19.894	0.522
316.000	234.794	80.010	19.994	103.879	19.744	19.773	0.499
318.000	235.892	80.010	19.994	103.894	19.745	19.704	0.541
320.000	236.836	80.009	19.994	103.903	19.744	19.756	0.501
322.000	237.849	80.008	19.994	103.905	19.747	19.545	0.488
324.000	238.850	80.008	19.995	103.894	19.749	19.434	0.524
326.000	239.841	80.009	19.994	103.874	19.748	19.482	0.496
328.000	240.838	80.011	19.994	103.875	19.751	19.240	0.474
330.000	241.883	80.010	19.994	103.878	19.754	19.016	0.510
332.000	242.907	80.011	19.994	103.898	19.762	18.369	0.516
334.000	243.903	80.011	19.993	103.892	19.764	18.225	0.490
336.000	244.897	80.011	19.994	103.877	19.763	18.285	0.510
338.000	245.828	80.011	19.994	103.866	19.765	18.136	0.490
340.000	246.841	80.011	19.994	103.869	19.768	17.922	0.493
342.000	247.855	80.011	19.994	103.865	19.772	17.594	0.507
344.000	248.904	80.008	19.994	103.881	19.774	17.492	0.505
346.000	249.948	80.009	19.995	103.868	19.776	17.338	0.514
348.000	250.981	80.010	19.994	103.877	19.781	16.923	0.511
350.000	251.977	80.009	19.996	103.893	19.784	16.664	0.515
352.000	252.959	80.008	19.994	103.895	19.788	16.356	0.508
354.000	253.985	80.006	19.995	103.882	19.795	15.868	0.470
356.000	254.926	80.010	19.995	103.883	19.792	16.050	0.448
358.000	255.950	80.007	19.995	103.888	19.796	15.794	0.513
360.000	257.008	80.010	19.994	103.868	19.799	15.517	0.516
362.000	257.996	80.011	19.994	103.872	19.804	15.175	0.523
364.000	259.028	80.011	19.993	103.882	19.811	14.645	0.536
366.000	260.038	80.010	19.993	103.883	19.808	14.824	0.512
368.000	261.011	80.010	19.993	103.874	19.814	14.403	0.499
370.000	261.972	80.011	19.993	103.894	19.814	14.383	0.466
372.000	263.021	80.007	19.993	103.894	19.816	14.270	0.518
374.000	263.985	80.009	19.994	103.878	19.824	13.620	0.509
376.000	264.982	80.007	19.994	103.880	19.819	13.981	0.504
378.000	265.995	80.008	19.993	103.887	19.826	13.451	0.484
380.000	267.030	80.007	19.993	103.877	19.824	13.582	0.500
382.000	267.961	80.009	19.993	103.881	19.825	13.565	0.476
384.000	268.980	80.008	19.993	103.878	19.830	13.178	0.498
386.000	269.967	80.012	19.993	103.874	19.837	12.643	0.493
388.000	271.003	80.010	19.994	103.884	19.836	12.718	0.511
390.000	272.011	80.010	19.993	103.883	19.841	12.310	0.490
392.000	273.007	80.011	19.993	103.872	19.838	12.557	0.471
394.000	274.000	80.011	19.993	103.886	19.846	11.948	0.464
396.000	274.994	80.011	19.992	103.887	19.841	12.274	0.510
398.000	276.005	80.012	19.992	103.898	19.844	12.064	0.523
400.000	277.043	80.011	19.992	103.878	19.849	11.693	0.510
402.000	278.025	80.011	19.993	103.870	19.846	11.881	0.493
404.000	279.054	80.012	19.992	103.864	19.846	11.945	0.512
406.000	280.059	80.008	19.993	103.872	19.845	11.999	0.497
408.000	281.074	80.010	19.993	103.886	19.845	12.025	0.534
410.000	282.045	80.011	19.996	103.888	19.846	11.884	0.472
412.000	283.056	80.012	19.994	103.883	19.844	12.053	0.552
414.000	284.059	80.013	19.994	103.874	19.844	12.072	0.513
416.000	285.077	80.008	19.994	103.875	19.846	11.935	0.509
418.000	286.070	80.012	19.994	103.876	19.847	11.872	0.483
420.000	287.029	80.014	19.993	103.874	19.842	12.217	0.488
422.000	288.028	80.013	19.993	103.878	19.845	11.999	0.506
424.000	289.057	80.012	19.993	103.882	19.841	12.314	0.543
426.000	290.009	80.011	19.994	103.878	19.838	12.495	0.472
428.000	291.086	80.010	19.994	103.866	19.835	12.745	0.542
430.000	292.068	80.010	19.995	103.873	19.834	12.814	0.500
432.000	293.070	80.010	19.994	103.871	19.834	12.813	0.501
434.000	294.117	80.009	19.994	103.878	19.832	12.993	0.515
436.000	295.103	80.010	19.993	103.870	19.833	12.924	0.511
438.000	296.106	80.007	19.994	103.874	19.829	13.205	0.535
440.000	297.165	80.008	19.994	103.883	19.831	13.076	0.544
442.000	298.156	80.009	19.993	103.889	19.825	13.547	0.532
444.000	299.112	80.008	19.994	103.874	19.825	13.533	0.489
446.000	300.136	80.006	19.994	103.873	19.823	13.663	0.485
448.000	301.158	80.010	19.995	103.874	19.817	14.154	0.527
450.000	302.185	80.011	19.994	103.871	19.820	13.960	0.510
452.000	303.217	80.007	19.995	103.872	19.818	14.061	0.494
454.000	304.194	80.007	19.994	103.880	19.811	14.603	0.476
456.000	305.198	80.005	19.993	103.868	19.807	14.907	0.490
458.000	306.209	80.008	19.994	103.870	19.807	14.902	0.509
460.000	307.222	80.006	19.994	103.877	19.801	15.423	0.509
462.000	308.260	80.007	19.993	103.878	19.797	15.701	0.527
464.000	309.258	80.008	19.994	103.877	19.793	16.012	0.476
466.000	310.274	80.009	19.995	103.873	19.787	16.437	0.515
468.000	311.252	80.010	19.993	103.872	19.788	16.428	0.477
470.000	312.312	80.011	19.995	103.876	19.780	17.031	0.534
472.000	313.312	80.011	19.994	103.875	19.778	17.181	0.492
474.000	314.323	80.010	19.994	103.868	19.770	17.763	0.479
476.000	315.329	80.010	19.993	103.866	19.764	18.207	0.511
478.000	316.368	80.010	19.994	103.867	19.756	18.883	0.514
480.000	317.339	80.012	19.993	103.865	19.742	19.917	0.508
482.000	318.337	80.012	19.994	103.866	19.739	20.177	0.501
484.000	319.379	80.011	19.993	103.866	19.725	21.258	0.507
486.000	320.355	80.010	19.993	103.869	19.722	21.500	0.470
488.000	321.332	80.011	19.994	103.866	19.714	22.131	0.470
490.000	322.377	80.010	19.994	103.867	19.708	22.540	0.439
492.000	323.437	80.010	19.994	103.866	19.693	23.746	0.488
494.000	324.435	80.014	19.994	103.866	19.679	24.777	0.542
496.000	325.404	80.011	19.994	103.866	19.678	24.897	0.552
498.000	326.363	80.014	19.992	103.874	19.663	26.031	0.445
500.000	327.488	80.011	19.993	103.869	19.652	26.848	0.544
502.000	328.414	80.013	19.994	103.866	19.641	27.770	0.526
504.000	329.367	80.011	19.992	103.867	19.624	29.013	0.518
506.000	330.313	80.012	19.993	103.863	19.616	29.625	0.243
508.000	331.214	80.008	19.992	103.865	19.600	30.934	0.648
510.000	332.490	80.010	19.994	103.865	19.581	32.353	0.642
512.000	333.514	80.011	19.993	103.867	19.569	33.307	0.507
514.000	334.520	80.012	19.994	103.865	19.547	34.960	0.585
516.000	335.547	80.008	19.994	103.868	19.532	36.155	0.499
518.000	336.563	80.009	19.993	103.866	19.508	38.005	0.457
520.000	337.628	80.010	19.995	103.869	19.485	39.734	0.522
522.000	338.654	80.009	19.994	103.869	19.470	40.959	0.528
524.000	339.600	80.011	19.994	103.865	19.445	42.833	0.482
526.000	340.654	80.010	19.994	103.870	19.425	44.387	0.533
528.000	341.675	80.009	19.993	103.859	19.398	46.443	0.526
530.000	342.657	80.009	19.996	103.868	19.375	48.261	0.528
532.000	343.698	80.009	19.994	103.863	19.346	50.492	0.507
534.000	344.680	80.009	19.993	103.863	19.313	52.989	0.494
536.000	345.706	80.009	19.996	103.856	19.288	54.940	0.509
538.000	346.760	80.009	19.994	103.846	19.259	57.204	0.545
540.000	347.775	80.009	19.995	103.834	19.223	59.937	0.499
542.000	348.747	80.007	19.993	103.852	19.191	62.464	0.492
544.000	349.829	80.009	19.993	103.853	19.154	65.293	0.511
546.000	350.816	80.008	19.994	103.836	19.118	68.031	0.474
548.000	351.877	80.008	19.995	103.831	19.079	71.078	0.491
550.000	352.894	80.007	19.995	103.831	19.037	74.306	0.516
552.000	353.926	80.010	19.995	103.841	18.993	77.692	0.505
554.000	354.973	80.010	19.995	103.830	18.954	80.686	0.530
556.000	355.978	80.010	19.994	103.827	18.913	83.831	0.510
558.000	356.987	80.010	19.994	103.827	18.866	87.484	0.525
560.000	358.048	80.012	19.993	103.823	18.825	90.641	0.547
562.000	358.971	80.012	19.993	103.820	18.785	93.685	0.496
564.000	360.031	80.010	19.993	103.809	18.735	97.545	0.508
566.000	360.985	80.012	19.993	103.822	18.693	100.797	0.504
568.000	362.016	80.011	19.993	103.810	18.649	104.200	0.508
570.000	363.030	80.011	19.993	103.795	18.603	107.741	0.497
572.000	364.037	80.010	19.994	103.801	18.559	111.096	0.492
574.000	365.057	80.011	19.994	103.793	18.518	114.325	0.521
576.000	366.032	80.011	19.994	103.792	18.474	117.674	0.516
578.000	367.046	80.009	19.993	103.792	18.440	120.320	0.481
580.000	368.068	80.011	19.993	103.786	18.406	122.912	0.493
582.000	369.052	80.012	19.993	103.786	18.368	125.783	0.512
584.000	370.083	80.011	19.992	103.783	18.342	127.850	0.510
586.000	371.078	80.012	19.994	103.778	18.310	130.285	0.467
588.000	372.106	80.011	19.993	103.781	18.288	131.989	0.519
590.000	373.113	80.011	19.993	103.771	18.273	133.114	0.554
592.000	374.148	80.011	19.994	103.763	18.255	134.486	0.515
594.000	375.169	80.010	19.993	103.755	18.238	135.804	0.511
596.000	376.201	80.011	19.993	103.758	18.232	136.290	0.487
598.000	377.200	80.010	19.994	103.754	18.233	136.202	0.519
600.000	378.180	80.008	19.994	103.751	18.230	136.433	0.510
602.000	379.220	80.007	19.993	103.750	18.241	135.627	0.526
604.000	380.267	80.009	19.995	103.749	18.248	135.046	0.502
606.000	381.276	80.011	19.993	103.750	18.264	133.829	0.522
608.000	382.245	80.009	19.993	103.746	18.286	132.125	0.517
610.000	383.274	80.009	19.994	103.748	18.303	130.856	0.560
612.000	384.294	80.010	19.995	103.745	18.332	128.587	0.523
614.000	385.293	80.011	19.995	103.743	18.357	126.654	0.480
616.000	386.248	80.010	19.995	103.744	18.387	124.385	0.464
618.000	387.294	80.008	19.995	103.745	18.424	121.497	0.489
620.000	388.335	80.009	19.993	103.744	18.457	118.928	0.506
622.000	389.336	80.010	19.995	103.748	18.498	115.787	0.495
624.000	390.301	80.010	19.994	103.748	18.548	111.986	0.497
626.000	391.341	80.010	19.995	103.748	18.583	109.286	0.503
628.000	392.329	80.010	19.995	103.749	18.630	105.682	0.489
630.000	393.309	80.010	19.994	103.749	18.673	102.338	0.512
632.000	394.416	80.008	19.995	103.754	18.714	99.180	0.527
634.000	395.378	80.008	19.994	103.770	18.752	96.265	0.480
636.000	396.394	80.008	19.994	103.769	18.792	93.178	0.491
638.000	397.468	80.009	19.994	103.777	18.828	90.427	0.522
640.000	398.488	80.008	19.994	103.782	18.869	87.224	0.522
642.000	399.500	80.010	19.994	103.788	18.903	84.592	0.512
644.000	400.515	80.009	19.994	103.777	18.937	82.032	0.508
646.000	401.527	80.009	19.993	103.787	18.970	79.486	0.533
648.000	402.477	80.010	19.995	103.801	18.997	77.404	0.466
650.000	403.502	80.009	19.995	103.790	19.027	75.066	0.517
652.000	404.519	80.008	19.994	103.797	19.051	73.191	0.521
654.000	405.510	80.010	19.994	103.800	19.072	71.593	0.476
656.000	406.543	80.009	19.994	103.808	19.102	69.309	0.524
658.000	407.548	80.009	19.993	103.824	19.116	68.245	0.508
660.000	408.555	80.009	19.994	103.828	19.137	66.575	0.494
662.000	409.576	80.012	19.993	103.828	19.151	65.503	0.504
664.000	410.589	80.011	19.995	103.818	19.165	64.391	0.500
666.000	411.605	80.011	19.994	103.819	19.179	63.362	0.533
668.000	412.589	80.011	19.993	103.822	19.193	62.251	0.510
670.000	413.599	80.014	19.993	103.816	19.206	61.280	0.506
672.000	414.590	80.012	19.993	103.816	19.212	60.839	0.479
674.000	415.573	80.011	19.993	103.815	19.220	60.218	0.468
676.000	416.587	80.010	19.993	103.808	19.232	59.269	0.469
678.000	417.583	80.008	19.993	103.812	19.237	58.911	0.505
680.000	418.625	80.009	19.992	103.826	19.240	58.644	0.542
682.000	419.602	80.011	19.994	103.828	19.252	57.701	0.483
684.000	420.642	80.009	19.993	103.836	19.248	58.027	0.501
686.000	421.673	80.008	19.993	103.810	19.255	57.478	0.524
688.000	422.649	80.011	19.993	103.817	19.266	56.639	0.479
690.000	423.650	80.008	19.994	103.825	19.264	56.827	0.464
692.000	424.677	80.010	19.994	103.827	19.267	56.558	0.496
694.000	425.727	80.009	19.993	103.828	19.262	56.941	0.535
696.000	426.762	80.010	19.994	103.826	19.270	56.317	0.522
698.000	427.735	80.009	19.992	103.831	19.272	56.207	0.483
700.000	428.771	80.011	19.994	103.830	19.272	56.166	0.548
702.000	429.823	80.009	19.995	103.828	19.272	56.221	0.547
704.000	430.841	80.009	19.993	103.830	19.275	55.927	0.525
706.000	431.852	80.010	19.994	103.823	19.275	55.983	0.487
708.000	432.872	80.010	19.994	103.831	19.276	55.913	0.508
710.000	433.933	80.009	19.994	103.829	19.277	55.834	0.511
712.000	434.930	80.009	19.995	103.831	19.281	55.520	0.499
714.000	435.945	80.010	19.995	103.833	19.277	55.791	0.496
716.000	436.975	80.009	19.993	103.829	19.278	55.755	0.488
718.000	437.983	80.009	19.994	103.830	19.278	55.706	0.523
720.000	439.012	80.009	19.994	103.833	19.282	55.439	0.502
722.000	440.064	80.011	19.994	103.830	19.284	55.295	0.512
724.000	441.084	80.012	19.992	103.830	19.284	55.236	0.544
726.000	442.030	80.013	19.994	103.830	19.283	55.314	0.481
728.000	443.074	80.012	19.993	103.830	19.291	54.697	0.533
730.000	444.086	80.011	19.993	103.831	19.289	54.892	0.511
732.000	445.111	80.011	19.994	103.830	19.293	54.564	0.523
734.000	446.131	80.011	19.994	103.828	19.300	54.028	0.520
736.000	447.101	80.009	19.994	103.829	19.304	53.707	0.501
738.000	448.110	80.009	19.995	103.826	19.310	53.235	0.488
740.000	449.170	80.011	19.994	103.827	19.315	52.893	0.514
742.000	450.139	80.010	19.995	103.834	19.320	52.463	0.516
744.000	451.184	80.010	19.994	103.846	19.328	51.847	0.535
746.000	452.186	80.012	19.994	103.825	19.343	50.730	0.507
748.000	453.208	80.010	19.993	103.826	19.347	50.416	0.514
750.000	454.226	80.010	19.994	103.830	19.356	49.665	0.518
752.000	455.252	80.013	19.994	103.825	19.368	48.766	0.531
754.000	456.268	80.011	19.992	103.826	19.383	47.648	0.495
756.000	457.232	80.012	19.993	103.826	19.401	46.234	0.483
758.000	458.291	80.011	19.993	103.819	19.405	45.944	0.503
760.000	459.337	80.012	19.995	103.823	19.423	44.549	0.545
762.000	460.318	80.010	19.993	103.827	19.431	43.952	0.475
764.000	461.347	80.009	19.994	103.833	19.451	42.396	0.525
766.000	462.385	80.010	19.993	103.840	19.470	40.883	0.504
768.000	463.395	80.009	19.994	103.851	19.483	39.906	0.482
770.000	464.421	80.009	19.994	103.838	19.509	37.896	0.517
772.000	465.445	80.009	19.993	103.844	19.522	36.881	0.503
774.000	466.418	80.011	19.994	103.845	19.538	35.665	0.492
776.000	467.470	80.009	19.992	103.836	19.556	34.299	0.484
778.000	468.436	80.011	19.994	103.850	19.579	32.483	0.489
780.000	469.508	80.011	19.994	103.841	19.591	31.588	0.541
782.000	470.505	80.010	19.993	103.850	19.616	29.642	0.524
784.000	471.546	80.010	19.994	103.838	19.633	28.375	0.529
786.000	472.538	80.010	19.994	103.839	19.658	26.449	0.487
788.000	473.570	80.010	19.993	103.838	19.672	25.323	0.523
790.000	474.603	80.009	19.993	103.842	19.691	23.858	0.514
792.000	475.634	80.009	19.993	103.858	19.706	22.723	0.492
794.000	476.667	80.009	19.992	103.846	19.724	21.322	0.497
796.000	477.656	80.010	19.993	103.846	19.742	19.965	0.513
798.000	478.708	80.009	19.992	103.842	19.758	18.728	0.505
800.000	479.713	80.011	19.993	103.838	19.768	17.902	0.558
802.000	480.724	80.009	19.994	103.852	19.780	16.986	0.491
804.000	481.750	80.010	19.994	103.859	19.796	15.778	0.506
806.000	482.776	80.009	19.994	103.848	19.803	15.204	0.506
808.000	483.742	80.010	19.993	103.841	19.813	14.455	0.500
810.000	484.791	80.011	19.995	103.835	19.816	14.223	0.512
812.000	485.844	80.010	19.994	103.840	19.821	13.866	0.526
814.000	486.862	80.012	19.994	103.850	19.828	13.288	0.512
816.000	487.869	80.010	19.994	103.835	19.835	12.773	0.512
818.000	488.853	80.011	19.994	103.836	19.843	12.130	0.497
820.000	489.871	80.011	19.994	103.839	19.844	12.059	0.504
822.000	490.922	80.011	19.994	103.847	19.846	11.893	0.509
824.000	491.927	80.012	19.993	103.848	19.852	11.464	0.496
826.000	492.941	80.010	19.993	103.851	19.857	11.101	0.512
828.000	493.962	80.011	19.995	103.862	19.855	11.182	0.528
830.000	495.024	80.011	19.994	103.851	19.860	10.815	0.500
832.000	496.093	80.011	19.995	103.846	19.864	10.528	0.527
834.000	497.068	80.012	19.995	103.850	19.863	10.570	0.464
836.000	498.080	80.012	19.994	103.841	19.869	10.159	0.533
838.000	499.122	80.012	19.994	103.862	19.866	10.336	0.507
840.000	500.152	80.012	19.993	103.859	19.870	10.083	0.515
842.000	501.180	80.009	19.992	103.833	19.873	9.832	0.508
844.000	502.200	80.012	19.994	103.843	19.872	9.900	0.497
846.000	503.245	80.010	19.994	103.838	19.876	9.595	0.516
848.000	504.249	80.009	19.993	103.851	19.880	9.325	0.500
850.000	505.281	80.010	19.993	103.844	19.877	9.487	0.536
852.000	506.280	80.010	19.993	103.830	19.879	9.336	0.497
854.000	507.333	80.011	19.994	103.834	19.876	9.603	0.507
856.000	508.358	80.010	19.995	103.841	19.873	9.852	0.532
858.000	509.412	80.009	19.993	103.841	19.871	9.985	0.504
860.000	510.456	80.009	19.993	103.850	19.871	9.976	0.553
862.000	511.461	80.010	19.993	103.858	19.876	9.578	0.520
864.000	512.435	80.011	19.993	103.854	19.878	9.474	0.523
866.000	513.518	80.009	19.994	103.861	19.874	9.744	0.557
868.000	514.544	80.011	19.993	103.854	19.877	9.519	0.539
870.000	515.550	80.010	19.993	103.838	19.876	9.603	0.514
872.000	516.597	80.011	19.994	103.855	19.876	9.596	0.515
874.000	517.640	80.010	19.993	103.852	19.876	9.587	0.518
876.000	518.660	80.009	19.994	103.850	19.878	9.446	0.523
878.000	519.711	80.010	19.994	103.848	19.879	9.356	0.504
880.000	520.721	80.009	19.994	103.847	19.874	9.767	0.494
882.000	521.807	80.010	19.994	103.839	19.872	9.882	0.504
884.000	522.842	80.009	19.993	103.849	19.874	9.768	0.543
886.000	523.877	80.011	19.993	103.861	19.874	9.742	0.539
888.000	524.925	80.012	19.994	103.857	19.874	9.776	0.497
890.000	525.960	80.011	19.994	103.851	19.875	9.656	0.538
892.000	526.991	80.012	19.993	103.861	19.871	9.984	0.537
894.000	528.054	80.012	19.994	103.868	19.876	9.593	0.498
896.000	529.088	80.013	19.994	103.860	19.877	9.517	0.546
898.000	530.112	80.011	19.994	103.861	19.874	9.743	0.490
900.000	531.183	80.011	19.994	103.859	19.879	9.391	0.546
902.000	532.219	80.012	19.995	103.851	19.878	9.431	0.500
904.000	533.265	80.010	19.993	103.840	19.870	10.079	0.504
906.000	534.356	80.010	19.994	103.853	19.876	9.563	0.521
908.000	535.401	80.011	19.995	103.847	19.881	9.199	0.529
910.000	536.501	80.011	19.994	103.838	19.878	9.429	0.555
912.000	537.524	80.011	19.994	103.848	19.871	9.992	0.515
914.000	538.545	80.011	19.994	103.864	19.871	9.987	0.509
916.000	539.602	80.013	19.994	103.859	19.868	10.216	0.533
918.000	540.595	80.012	19.994	103.841	19.870	10.038	0.503
920.000	541.673	80.013	19.994	103.838	19.875	9.691	0.545
922.000	542.697	80.011	19.993	103.829	19.874	9.765	0.509
924.000	543.731	80.012	19.995	103.843	19.874	9.782	0.527
926.000	544.714	80.010	19.993	103.843	19.872	9.937	0.513
928.000	545.733	80.010	19.993	103.845	19.876	9.595	0.504
930.000	546.770	80.009	19.993	103.850	19.871	10.009	0.524
932.000	547.804	80.011	19.994	103.832	19.872	9.943	0.513
934.000	548.840	80.009	19.995	103.830	19.872	9.919	0.520
936.000	549.871	80.008	19.995	103.845	19.873	9.855	0.534
938.000	550.916	80.009	19.995	103.858	19.878	9.406	0.527
940.000	551.903	80.009	19.994	103.851	19.877	9.550	0.499
942.000	552.951	80.012	19.995	103.848	19.870	10.073	0.542
944.000	553.959	80.009	19.994	103.839	19.873	9.816	0.495
946.000	555.058	80.010	19.994	103.829	19.870	10.078	0.551
948.000	556.091	80.011	19.994	103.827	19.873	9.851	0.540
950.000	557.124	80.011	19.994	103.835	19.872	9.877	0.504
952.000	558.125	80.009	19.994	103.854	19.874	9.780	0.509
954.000	559.153	80.011	19.994	103.861	19.871	9.995	0.492
956.000	560.182	80.011	19.993	103.853	19.875	9.702	0.502
958.000	561.264	80.010	19.993	103.852	19.870	10.036	0.547
960.000	562.261	80.011	19.993	103.848	19.871	10.009	0.508
962.000	563.272	80.010	19.993	103.830	19.868	10.194	0.480
964.000	564.295	80.010	19.994	103.834	19.870	10.041	0.526
966.000	565.326	80.009	19.993	103.847	19.874	9.736	0.501
968.000	566.391	80.009	19.994	103.855	19.875	9.685	0.512
970.000	567.379	80.009	19.994	103.846	19.872	9.906	0.495
972.000	568.364	80.009	19.993	103.835	19.869	10.177	0.497
974.000	569.461	80.011	19.993	103.835	19.868	10.246	0.532
976.000	570.451	80.011	19.994	103.839	19.867	10.310	0.493
978.000	571.470	80.011	19.994	103.834	19.866	10.372	0.494
980.000	572.524	80.013	19.993	103.831	19.869	10.155	0.523
982.000	573.573	80.013	19.994	103.841	19.864	10.548	0.504
984.000	574.641	80.011	19.994	103.851	19.870	10.092	0.542
986.000	575.672	80.012	19.993	103.854	19.871	9.948	0.533
988.000	576.643	80.011	19.992	103.860	19.868	10.181	0.475
990.000	577.651	80.010	19.992	103.868	19.873	9.846	0.474
992.000	578.761	80.010	19.993	103.867	19.869	10.143	0.545
994.000	579.810	80.012	19.994	103.868	19.867	10.269	0.551
996.000	580.781	80.012	19.993	103.864	19.869	10.114	0.493
998.000	581.834	80.012	19.993	103.840	19.862	10.650	0.490
1000.000	582.900	80.012	19.993	103.842	19.862	10.716	0.547
1002.000	583.841	80.012	19.993	103.831	19.863	10.618	0.483
1004.000	584.915	80.013	19.994	103.828	19.868	10.228	0.545
1006.000	585.957	80.012	19.993	103.840	19.862	10.654	0.543
1008.000	586.905	80.013	19.994	103.837	19.866	10.341	0.507
1010.000	587.942	80.011	19.994	103.838	19.864	10.508	0.509
1012.000	588.973	80.011	19.994	103.854	19.860	10.863	0.517
1014.000	589.986	80.010	19.994	103.842	19.863	10.572	0.502
1016.000	591.025	80.010	19.995	103.847	19.861	10.726	0.500
1018.000	592.047	80.009	19.994	103.863	19.862	10.643	0.527
1020.000	593.094	80.010	19.995	103.853	19.862	10.647	0.525
1022.000	594.108	80.010	19.994	103.856	19.864	10.537	0.518
1024.000	595.172	80.011	19.995	103.852	19.862	10.671	0.519
1026.000	596.182	80.011	19.995	103.856	19.861	10.790	0.513
1027.999	597.211	80.010	19.993	103.854	19.862	10.713	0.516
1030.000	598.243	80.010	19.994	103.849	19.865	10.457	0.516
1032.000	599.227	80.011	19.995	103.845	19.859	10.877	0.502
1033.999	600.281	80.010	19.995	103.853	19.862	10.645	0.483
1035.999	601.293	80.008	19.995	103.849	19.865	10.477	0.531
1038.000	602.291	80.009	19.994	103.854	19.861	10.731	0.502
1039.999	603.276	80.009	19.994	103.850	19.862	10.652	0.492
1042.000	604.333	80.010	19.994	103.837	19.860	10.843	0.534
1043.999	605.343	80.010	19.993	103.847	19.862	10.694	0.511
1045.999	606.338	80.010	19.994	103.851	19.855	11.224	0.519
1047.999	607.338	80.011	19.994	103.844	19.858	11.011	0.517
1050.000	608.399	80.009	19.993	103.852	19.855	11.201	0.527
1051.999	609.402	80.011	19.993	103.855	19.860	10.869	0.509
1053.999	610.395	80.009	19.993	103.861	19.857	11.036	0.479
1055.999	611.411	80.011	19.994	103.862	19.859	10.912	0.502
1057.999	612.458	80.011	19.994	103.849	19.857	11.055	0.514
1059.999	613.446	80.012	19.993	103.858	19.855	11.186	0.473
1062.000	614.500	80.012	19.994	103.855	19.855	11.184	0.530
1063.999	615.510	80.012	19.993	103.844	19.857	11.044	0.500
1065.999	616.554	80.011	19.993	103.855	19.855	11.255	0.522
1067.999	617.581	80.012	19.994	103.850	19.854	11.315	0.529
1070.000	618.605	80.012	19.994	103.851	19.856	11.157	0.527
1072.000	619.619	80.010	19.993	103.856	19.851	11.519	0.524
1073.999	620.643	80.011	19.994	103.851	19.851	11.544	0.548
1075.999	621.622	80.009	19.993	103.842	19.859	10.877	0.474
1077.999	622.702	80.010	19.994	103.852	19.858	11.020	0.534
1079.999	623.756	80.012	19.993	103.854	19.858	10.984	0.554
1081.999	624.750	80.011	19.993	103.865	19.859	10.947	0.504
1083.999	625.753	80.011	19.993	103.862	19.861	10.774	0.471
1085.999	626.773	80.013	19.992	103.863	19.857	11.029	0.484
1087.999	627.783	80.013	19.993	103.854	19.856	11.111	0.482
1089.999	628.876	80.012	19.991	103.855	19.856	11.109	0.531
1091.999	629.880	80.013	19.993	103.862	19.858	10.968	0.498
1093.999	630.901	80.012	19.993	103.861	19.860	10.857	0.495
1095.999	631.928	80.012	19.994	103.862	19.859	10.917	0.464
1097.999	633.010	80.011	19.994	103.863	19.855	11.204	0.506
1100.000	634.021	80.011	19.994	103.865	19.853	11.384	0.506
1101.999	635.066	80.011	19.994	103.867	19.855	11.222	0.526
1104.000	636.145	80.010	19.994	103.865	19.851	11.515	0.547
1105.999	637.138	80.010	19.995	103.862	19.850	11.605	0.541
1108.000	638.190	80.010	19.993	103.860	19.853	11.399	0.504
1109.999	639.167	80.009	19.994	103.866	19.855	11.252	0.512
1112.000	640.197	80.009	19.992	103.864	19.855	11.216	0.517
1113.999	641.207	80.010	19.993	103.864	19.853	11.338	0.519
1115.999	642.194	80.011	19.993	103.868	19.855	11.240	0.526
1118.000	643.252	80.010	19.993	103.866	19.860	10.842	0.498
1120.000	644.214	80.010	19.993	103.862	19.856	11.179	0.451
1121.999	645.260	80.010	19.994	103.866	19.851	11.515	0.502
1123.999	646.313	80.010	19.993	103.859	19.854	11.294	0.506
1125.999	647.326	80.008	19.994	103.865	19.855	11.258	0.488
1128.000	648.343	80.010	19.993	103.865	19.857	11.063	0.493
1129.999	649.395	80.008	19.995	103.866	19.858	10.994	0.556
1131.999	650.471	80.008	19.995	103.872	19.860	10.861	0.517
1133.999	651.433	80.009	19.994	103.867	19.856	11.109	0.501
1135.999	652.458	80.009	19.996	103.868	19.857	11.059	0.490
1137.999	653.465	80.010	19.994	103.864	19.856	11.168	0.502
1139.999	654.549	80.009	19.996	103.869	19.854	11.297	0.537
1142.000	655.597	80.011	19.994	103.874	19.852	11.489	0.542
1143.999	656.586	80.011	19.994	103.866	19.854	11.324	0.499
1146.000	657.617	80.012	19.993	103.865	19.853	11.410	0.502
1147.999	658.662	80.012	19.994	103.871	19.850	11.582	0.508
1149.999	659.679	80.013	19.994	103.868	19.848	11.797	0.517
1152.000	660.693	80.011	19.993	103.879	19.853	11.398	0.512
1153.999	661.641	80.012	19.993	103.887	19.853	11.379	0.482
1156.000	662.684	80.011	19.994	103.881	19.851	11.554	0.499
1157.999	663.695	80.011	19.994	103.867	19.847	11.833	0.474
1159.999	664.663	80.012	19.994	103.868	19.843	12.126	0.474
1161.999	665.677	80.012	19.994	103.867	19.844	12.060	0.520
1163.999	666.692	80.012	19.993	103.876	19.842	12.217	0.473
1165.999	667.697	80.012	19.993	103.870	19.842	12.202	0.518
1168.000	668.713	80.012	19.994	103.877	19.846	11.929	0.507
1169.999	669.713	80.013	19.993	103.872	19.844	12.067	0.490
1171.999	670.690	80.013	19.993	103.883	19.844	12.035	0.473
1173.999	671.692	80.012	19.992	103.872	19.846	11.880	0.474
1175.999	672.737	80.013	19.992	103.869	19.842	12.196	0.548
1177.999	673.670	80.012	19.993	103.869	19.844	12.048	0.469
1179.999	674.746	80.011	19.993	103.875	19.845	12.001	0.540
1181.999	675.773	80.011	19.994	103.884	19.842	12.231	0.500
1183.999	676.749	80.011	19.994	103.874	19.843	12.145	0.477
1185.999	677.749	80.011	19.993	103.882	19.842	12.194	0.494
1188.000	678.799	80.011	19.994	103.892	19.848	11.774	0.521
1189.999	679.793	80.009	19.995	103.899	19.841	12.287	0.517
1191.999	680.809	80.011	19.994	103.894	19.841	12.341	0.523
1194.000	681.840	80.010	19.994	103.909	19.843	12.141	0.528
1195.999	682.817	80.010	19.994	103.888	19.844	12.100	0.493
1197.999	683.846	80.011	19.993	103.890	19.839	12.438	0.515
1199.999	684.828	80.010	19.993	103.892	19.840	12.358	0.508
1201.999	685.845	80.010	19.995	103.898	19.839	12.445	0.498
1203.999	686.837	80.011	19.994	103.890	19.839	12.492	0.509
1205.999	687.811	80.011	19.994	103.893	19.839	12.469	0.494
1207.999	688.809	80.010	19.994	103.901	19.836	12.721	0.510
1209.999	689.830	80.009	19.994	103.907	19.836	12.719	0.519
1212.000	690.807	80.010	19.994	103.903	19.835	12.774	0.488
1213.999	691.812	80.010	19.994	103.898	19.831	13.112	0.518
1215.999	692.784	80.009	19.994	103.904	19.830	13.175	0.503
1217.999	693.763	80.010	19.994	103.905	19.829	13.245	0.485
1219.999	694.823	80.011	19.994	103.903	19.831	13.060	0.531
1221.999	695.819	80.010	19.993	103.905	19.830	13.168	0.518
1223.999	696.853	80.011	19.994	103.905	19.831	13.083	0.518
1225.999	697.854	80.010	19.995	103.903	19.831	13.101	0.528
1227.999	698.876	80.011	19.994	103.908	19.830	13.192	0.497
1229.999	699.859	80.010	19.993	103.929	19.826	13.456	0.493
1231.999	700.862	80.012	19.994	103.915	19.828	13.293	0.512
1234.000	701.894	80.012	19.994	103.931	19.826	13.446	0.486
1236.000	702.875	80.010	19.994	103.905	19.826	13.451	0.498
1237.999	703.928	80.009	19.994	103.918	19.825	13.521	0.491
1239.999	704.922	80.010	19.995	103.913	19.824	13.630	0.475
1241.999	705.962	80.011	19.994	103.919	19.824	13.599	0.531
1243.999	706.933	80.011	19.994	103.919	19.828	13.283	0.508
1245.999	707.930	80.011	19.993	103.921	19.827	13.424	0.477
1248.000	708.975	80.011	19.993	103.945	19.824	13.607	0.505
1249.999	709.947	80.018	19.994	103.938	19.823	13.705	0.496
1251.999	710.985	80.013	19.995	103.943	19.822	13.764	0.532
1253.999	712.019	80.012	19.993	103.938	19.828	13.326	0.490
1255.999	713.023	80.014	19.993	103.937	19.827	13.412	0.520
1257.999	714.059	80.013	19.993	103.936	19.823	13.691	0.524
1259.999	715.095	80.012	19.993	103.940	19.825	13.551	0.486
1262.000	716.143	80.012	19.993	103.938	19.827	13.373	0.531
1264.000	717.198	80.011	19.993	103.941	19.827	13.367	0.537
1265.999	718.223	80.009	19.994	103.942	19.827	13.410	0.523
1267.999	719.263	80.011	19.994	103.942	19.825	13.538	0.550
1269.999	720.242	80.010	19.993	103.932	19.826	13.478	0.509
1272.000	721.258	80.010	19.993	103.935	19.824	13.594	0.517
1273.999	722.287	80.012	19.993	103.933	19.822	13.794	0.500
1276.000	723.333	80.011	19.993	103.918	19.824	13.625	0.546
1277.999	724.320	80.011	19.994	103.934	19.825	13.532	0.522
1280.000	725.400	80.012	19.994	103.910	19.824	13.631	0.511
1281.999	726.421	80.012	19.992	103.924	19.825	13.532	0.524
1283.999	727.405	80.010	19.994	103.907	19.821	13.866	0.494
1285.999	728.400	80.010	19.993	103.906	19.826	13.463	0.494
1287.999	729.435	80.012	19.993	103.901	19.827	13.349	0.499
1289.999	730.491	80.011	19.994	103.903	19.827	13.362	0.541
1291.999	731.484	80.012	19.994	103.890	19.829	13.192	0.510
1293.999	732.520	80.012	19.994	103.870	19.831	13.080	0.510
1295.999	733.536	80.010	19.994	103.864	19.833	12.906	0.525
1297.999	734.538	80.011	19.994	103.867	19.828	13.304	0.493
1300.000	735.546	80.012	19.994	103.863	19.832	13.016	0.493
1301.999	736.596	80.010	19.994	103.865	19.835	12.728	0.508
1303.999	737.588	80.010	19.994	103.864	19.833	12.880	0.508
1306.000	738.627	80.011	19.993	103.867	19.835	12.790	0.508
1307.999	739.607	80.010	19.995	103.865	19.836	12.655	0.491
1309.999	740.652	80.012	19.995	103.853	19.836	12.667	0.490
1312.000	741.658	80.012	19.995	103.863	19.835	12.780	0.477
1314.000	742.650	80.013	19.994	103.852	19.835	12.758	0.512
1315.999	743.624	80.012	19.994	103.849	19.835	12.798	0.483
1317.999	744.646	80.012	19.994	103.840	19.833	12.894	0.495
1319.500	745.361	80.011	19.994	103.835	19.836	12.719	0.496