File: 01_Data/Rubber_Band/MCC/Rubber_Band_MCC_30K_min_220208_R2.txt
Sample ID:	C:\MCC\MCC Cal\Test\Rubber_Band_MCC_30K_min_220208_R2.txt
Sample Weight (mg):	4.48
Heating Rate (C/s):	0.5
Combustor Temp (C):	900
N2 Flow Rate (cc/min):	80
O2 Flow Rate (cc/min):	20
Calibration File:	C:\MCC\MCC Cal\Coeff1 JN10440_30_210304.txt.txt
T Correction Coefficients:	0	1.024463	0
Time Shift (s):	14
*
Time (s)	Temperature (C)	N2 flow rate (cc/min)	O2 flow rate (cc/min)	Flow Rate (cc/min)	Oxygen (%)	HRR (W/g)	Heating rate (C/s)
0.000	113.918	80.005	19.993	103.658	20.014	-0.016	-0.016
2.000	113.940	80.007	19.994	103.668	20.018	-0.326	-0.024
4.000	113.951	80.008	19.993	103.669	20.014	-0.079	0.041
6.000	113.932	80.014	19.995	103.665	20.016	-0.201	0.058
8.000	113.933	80.011	19.992	103.671	20.011	0.149	0.045
10.000	113.905	80.006	19.994	103.676	20.010	0.242	-0.007
12.000	113.899	80.007	19.994	103.674	20.012	0.102	-0.034
14.000	113.845	80.007	19.993	103.674	20.015	-0.096	-0.064
16.000	113.904	80.007	19.993	103.675	20.009	0.336	-0.021
18.000	113.903	80.008	19.994	103.684	20.009	0.277	-0.029
20.000	113.939	80.012	19.993	103.702	20.011	0.138	0.016
22.000	113.955	80.006	19.990	103.710	20.007	0.465	0.042
24.000	113.979	80.009	19.991	103.709	20.006	0.500	0.022
26.000	114.023	80.006	19.993	103.717	20.004	0.691	0.016
28.000	114.026	80.004	19.997	103.725	20.005	0.604	0.024
30.000	114.102	80.008	19.994	103.715	20.002	0.795	0.045
32.000	114.189	80.003	19.993	103.750	20.002	0.833	0.060
33.999	114.301	80.005	19.992	103.786	19.996	1.276	0.058
35.999	114.414	80.008	19.992	103.793	19.995	1.355	0.096
37.999	114.514	80.010	19.991	103.796	19.995	1.330	0.063
39.999	114.681	80.006	19.990	103.793	19.988	1.826	0.109
41.999	114.878	80.006	19.993	103.808	19.987	1.885	0.115
43.999	115.012	80.006	19.997	103.827	19.990	1.696	0.072
45.999	115.240	80.012	19.989	103.824	19.989	1.732	0.092
47.999	115.506	80.006	19.996	103.839	19.982	2.280	0.143
49.999	115.771	80.005	19.994	103.862	19.982	2.279	0.161
51.999	116.048	80.009	19.993	103.860	19.983	2.220	0.143
53.999	116.363	80.012	19.991	103.853	19.979	2.508	0.148
56.000	116.708	80.000	19.997	103.860	19.977	2.593	0.162
58.000	117.073	80.009	19.991	103.865	19.978	2.551	0.188
59.999	117.491	80.010	19.996	103.864	19.977	2.661	0.205
61.999	117.874	80.012	19.991	103.859	19.977	2.647	0.196
64.000	118.303	80.007	19.994	103.853	19.972	2.959	0.206
65.999	118.735	80.008	19.994	103.855	19.975	2.789	0.245
67.999	119.167	80.010	19.994	103.859	19.976	2.703	0.210
69.999	119.637	80.011	19.994	103.852	19.974	2.821	0.237
72.000	120.111	80.009	19.994	103.847	19.971	3.044	0.190
73.999	120.619	80.009	19.994	103.846	19.976	2.729	0.242
76.000	121.088	80.009	19.995	103.845	19.975	2.796	0.246
77.999	121.577	80.008	19.997	103.842	19.976	2.735	0.234
79.999	122.080	80.006	19.996	103.859	19.972	2.995	0.222
81.999	122.608	80.003	19.998	103.866	19.970	3.139	0.241
84.000	123.161	80.007	19.995	103.866	19.970	3.165	0.262
85.999	123.697	80.007	19.996	103.866	19.970	3.120	0.298
87.999	124.298	80.003	19.993	103.867	19.967	3.333	0.294
89.999	124.855	80.007	19.990	103.874	19.969	3.185	0.298
91.999	125.458	80.005	19.995	103.873	19.961	3.779	0.296
93.999	126.049	80.006	19.992	103.898	19.962	3.729	0.260
95.999	126.698	80.003	19.994	103.902	19.962	3.689	0.329
98.000	127.317	80.006	19.993	103.906	19.958	3.986	0.304
99.999	127.999	80.006	19.992	103.909	19.960	3.872	0.336
102.000	128.690	80.009	19.991	103.909	19.963	3.655	0.364
104.001	129.337	80.006	19.997	103.909	19.957	4.095	0.314
105.999	130.009	80.005	19.993	103.923	19.955	4.215	0.329
107.999	130.715	80.005	19.993	103.923	19.954	4.323	0.340
109.999	131.458	80.008	19.993	103.928	19.956	4.179	0.355
112.000	132.187	80.004	19.995	103.921	19.953	4.365	0.393
113.999	132.959	80.007	19.998	103.932	19.951	4.503	0.394
115.999	133.743	80.008	19.995	103.937	19.951	4.542	0.396
118.000	134.469	80.004	19.995	103.923	19.950	4.580	0.378
119.999	135.284	80.008	19.991	103.921	19.950	4.557	0.422
121.999	136.131	80.007	19.991	103.935	19.950	4.551	0.414
123.999	136.957	80.008	19.993	103.927	19.950	4.572	0.420
125.999	137.724	80.010	19.991	103.929	19.949	4.655	0.377
127.999	138.644	80.008	19.992	103.933	19.944	5.006	0.449
130.000	139.509	80.005	19.996	103.940	19.946	4.910	0.449
132.000	140.361	80.008	19.997	103.945	19.946	4.880	0.438
134.000	141.247	80.008	19.995	103.939	19.942	5.191	0.423
136.000	142.183	80.006	19.996	103.940	19.943	5.071	0.531
138.000	143.066	80.009	19.994	103.940	19.940	5.337	0.489
140.000	143.989	80.008	19.992	103.940	19.938	5.473	0.462
142.000	144.885	80.007	19.997	103.945	19.941	5.207	0.438
144.000	145.834	80.007	19.996	103.940	19.939	5.410	0.474
146.000	146.766	80.007	19.997	103.941	19.940	5.306	0.470
148.000	147.716	80.005	19.991	103.941	19.939	5.353	0.477
150.000	148.642	80.006	19.992	103.939	19.940	5.278	0.493
152.000	149.631	80.010	19.995	103.943	19.940	5.299	0.476
154.000	150.607	80.006	19.995	103.937	19.937	5.546	0.504
156.000	151.585	80.010	19.994	103.938	19.938	5.483	0.458
158.000	152.581	80.007	19.993	103.943	19.937	5.552	0.484
160.000	153.613	80.011	19.993	103.945	19.932	5.893	0.479
162.000	154.601	80.009	19.993	103.929	19.935	5.670	0.521
164.000	155.570	80.008	19.992	103.940	19.937	5.547	0.510
166.000	156.561	80.003	19.993	103.942	19.929	6.116	0.487
168.000	157.579	80.003	19.996	103.938	19.930	6.016	0.505
170.000	158.583	80.007	19.996	103.940	19.932	5.881	0.493
172.000	159.569	80.001	20.000	103.941	19.928	6.175	0.482
174.000	160.587	80.009	19.989	103.926	19.927	6.256	0.504
176.000	161.651	80.010	19.995	103.915	19.927	6.250	0.524
178.000	162.670	80.008	19.993	103.910	19.924	6.451	0.505
180.000	163.640	80.008	19.994	103.905	19.920	6.727	0.480
182.000	164.730	80.008	19.997	103.902	19.921	6.707	0.529
184.000	165.772	80.007	19.994	103.903	19.913	7.241	0.514
186.000	166.757	80.007	19.993	103.903	19.911	7.373	0.471
188.000	167.852	80.007	19.993	103.904	19.913	7.245	0.540
190.000	168.785	80.006	19.995	103.901	19.912	7.367	0.479
192.000	169.833	80.006	19.994	103.906	19.908	7.625	0.487
194.000	170.879	80.011	19.989	103.905	19.905	7.806	0.540
196.000	171.928	80.010	19.993	103.906	19.904	7.896	0.514
198.000	172.890	80.007	19.997	103.906	19.902	8.034	0.493
200.000	173.913	80.005	19.995	103.900	19.901	8.111	0.523
202.000	174.935	80.003	19.999	103.896	19.897	8.452	0.494
204.000	175.925	80.006	19.994	103.892	19.892	8.751	0.484
206.000	176.997	80.009	19.993	103.890	19.891	8.846	0.532
208.000	177.991	80.007	19.991	103.881	19.890	8.900	0.493
210.000	179.002	80.007	19.994	103.893	19.888	9.048	0.526
212.000	179.974	80.007	19.995	103.889	19.882	9.523	0.507
214.000	181.034	80.009	19.992	103.884	19.880	9.674	0.488
216.000	182.059	80.008	19.993	103.880	19.876	9.945	0.503
218.000	183.060	80.006	19.992	103.875	19.875	10.005	0.511
220.000	184.069	80.009	19.992	103.871	19.869	10.474	0.508
222.000	185.078	80.008	19.992	103.873	19.865	10.734	0.519
224.000	186.124	80.009	19.993	103.871	19.862	10.959	0.546
226.000	187.083	80.008	19.993	103.872	19.858	11.213	0.487
228.000	188.106	80.009	19.993	103.876	19.853	11.629	0.480
230.000	189.109	80.009	19.992	103.869	19.849	11.875	0.471
232.000	190.161	80.007	19.994	103.870	19.846	12.133	0.504
234.000	191.109	80.008	19.995	103.870	19.837	12.751	0.495
236.000	192.147	80.008	19.994	103.870	19.837	12.736	0.511
238.000	193.077	80.007	19.994	103.868	19.833	13.068	0.478
240.000	194.075	80.011	19.993	103.868	19.829	13.323	0.461
242.000	195.090	80.007	19.994	103.867	19.825	13.594	0.508
244.000	196.037	80.006	19.994	103.865	19.822	13.837	0.473
246.000	197.046	80.005	19.992	103.865	19.815	14.359	0.521
248.000	198.005	80.007	19.994	103.864	19.810	14.711	0.499
250.000	199.016	80.009	19.994	103.864	19.805	15.078	0.475
252.000	200.025	80.003	19.993	103.864	19.800	15.459	0.490
254.000	200.985	80.010	19.996	103.865	19.797	15.625	0.481
256.000	201.999	80.006	19.993	103.864	19.794	15.900	0.499
258.000	202.998	80.005	19.996	103.858	19.791	16.062	0.500
260.000	204.010	80.008	19.988	103.863	19.785	16.477	0.496
262.000	204.938	80.008	19.993	103.854	19.782	16.747	0.482
264.000	205.938	80.007	19.995	103.844	19.779	16.953	0.463
266.000	206.974	80.006	19.996	103.850	19.770	17.592	0.478
268.000	207.987	80.007	19.994	103.856	19.769	17.644	0.490
270.000	208.984	80.008	19.994	103.847	19.762	18.176	0.535
272.000	209.992	80.006	19.996	103.843	19.760	18.344	0.511
274.000	210.945	80.006	19.996	103.836	19.756	18.602	0.474
276.000	211.954	80.007	19.995	103.838	19.751	18.937	0.472
278.000	212.910	80.007	19.994	103.845	19.750	19.055	0.498
280.000	213.904	80.006	19.996	103.847	19.747	19.228	0.479
282.000	214.916	80.007	19.994	103.844	19.741	19.684	0.489
284.000	215.904	80.007	19.994	103.847	19.741	19.698	0.495
286.000	216.892	80.007	19.994	103.840	19.734	20.228	0.508
288.000	217.893	80.005	19.993	103.832	19.732	20.354	0.525
290.000	218.868	80.009	19.994	103.841	19.730	20.479	0.488
292.000	219.892	80.010	19.994	103.842	19.729	20.580	0.511
294.000	220.817	80.007	19.993	103.834	19.722	21.068	0.463
296.000	221.832	80.007	19.994	103.834	19.723	20.978	0.503
298.000	222.816	80.007	19.996	103.837	19.721	21.124	0.486
300.000	223.785	80.006	19.993	103.844	19.719	21.277	0.500
302.000	224.769	80.008	19.993	103.830	19.723	20.962	0.479
304.000	225.769	80.006	19.993	103.830	19.722	21.045	0.511
306.000	226.770	80.008	19.993	103.829	19.725	20.869	0.520
308.000	227.748	80.009	19.993	103.828	19.725	20.857	0.518
310.000	228.753	80.010	19.992	103.829	19.722	21.058	0.509
312.000	229.746	80.010	19.994	103.828	19.725	20.828	0.502
314.000	230.758	80.010	19.991	103.831	19.723	20.989	0.483
316.000	231.768	80.010	19.993	103.830	19.722	21.040	0.495
318.000	232.767	80.011	19.993	103.830	19.726	20.776	0.454
320.000	233.718	80.010	19.995	103.826	19.725	20.833	0.476
322.000	234.712	80.008	19.994	103.827	19.729	20.536	0.483
324.000	235.700	80.006	19.994	103.829	19.730	20.483	0.478
326.000	236.740	80.007	19.994	103.826	19.730	20.496	0.518
328.000	237.741	80.007	19.995	103.826	19.733	20.243	0.510
330.000	238.705	80.007	19.995	103.825	19.737	20.012	0.487
332.000	239.687	80.008	19.995	103.826	19.740	19.758	0.456
334.000	240.677	80.007	19.993	103.826	19.745	19.430	0.498
336.000	241.647	80.007	19.995	103.825	19.745	19.398	0.470
338.000	242.652	80.007	19.994	103.826	19.751	18.987	0.471
340.000	243.636	80.006	19.994	103.827	19.753	18.847	0.476
342.000	244.670	80.008	19.993	103.829	19.757	18.537	0.506
344.000	245.617	80.007	19.994	103.829	19.761	18.221	0.462
346.000	246.635	80.007	19.994	103.829	19.766	17.885	0.506
348.000	247.689	80.006	19.995	103.832	19.770	17.566	0.497
350.000	248.651	80.006	19.995	103.829	19.772	17.419	0.511
352.000	249.682	80.006	19.995	103.829	19.778	17.031	0.547
354.000	250.668	80.006	19.995	103.831	19.782	16.743	0.453
356.000	251.736	80.005	19.994	103.829	19.784	16.578	0.550
358.000	252.692	80.007	19.995	103.829	19.788	16.290	0.510
360.000	253.709	80.004	19.995	103.829	19.793	15.914	0.528
362.000	254.750	80.003	19.994	103.830	19.799	15.516	0.488
364.000	255.708	80.005	19.995	103.829	19.803	15.175	0.491
366.000	256.740	80.007	19.994	103.830	19.810	14.683	0.516
368.000	257.684	80.007	19.994	103.830	19.811	14.618	0.508
370.000	258.740	80.009	19.994	103.828	19.813	14.486	0.527
372.000	259.718	80.008	19.993	103.828	19.821	13.873	0.481
374.000	260.706	80.007	19.993	103.826	19.824	13.670	0.499
376.000	261.750	80.008	19.994	103.828	19.833	13.020	0.525
378.000	262.695	80.007	19.992	103.827	19.836	12.835	0.509
380.000	263.746	80.008	19.992	103.827	19.840	12.516	0.525
382.000	264.763	80.007	19.993	103.828	19.848	11.980	0.506
384.000	265.730	80.007	19.993	103.826	19.853	11.628	0.486
386.000	266.749	80.008	19.993	103.826	19.855	11.437	0.508
388.000	267.774	80.006	19.994	103.827	19.853	11.583	0.519
390.000	268.794	80.009	19.991	103.827	19.861	11.017	0.511
392.000	269.810	80.009	19.992	103.827	19.861	11.019	0.494
394.000	270.868	80.009	19.993	103.826	19.867	10.574	0.512
396.000	271.886	80.010	19.993	103.825	19.871	10.326	0.538
398.000	272.890	80.011	19.994	103.825	19.868	10.476	0.510
400.000	273.899	80.008	19.993	103.826	19.878	9.799	0.486
402.000	274.854	80.010	19.992	103.827	19.877	9.842	0.480
404.000	275.949	80.010	19.992	103.827	19.877	9.844	0.546
406.000	276.918	80.007	19.994	103.830	19.882	9.533	0.504
408.000	277.902	80.008	19.992	103.830	19.883	9.393	0.516
410.000	278.913	80.007	19.995	103.833	19.884	9.322	0.477
412.000	279.888	80.005	19.996	103.832	19.885	9.257	0.495
414.000	280.951	80.007	19.993	103.831	19.887	9.153	0.524
416.000	281.961	80.007	19.993	103.832	19.887	9.109	0.545
418.000	282.935	80.008	19.993	103.833	19.888	9.070	0.490
420.000	283.920	80.007	19.993	103.832	19.889	8.989	0.503
422.000	284.970	80.006	19.993	103.832	19.891	8.879	0.516
424.000	285.968	80.006	19.993	103.832	19.889	8.989	0.521
426.000	286.995	80.006	19.994	103.830	19.889	8.997	0.520
428.000	287.978	80.006	19.992	103.830	19.889	9.011	0.495
430.000	289.011	80.008	19.994	103.829	19.889	8.973	0.494
432.000	289.984	80.006	19.994	103.828	19.888	9.058	0.480
434.000	290.998	80.008	19.994	103.829	19.889	8.973	0.463
436.000	292.032	80.007	19.994	103.828	19.887	9.164	0.534
438.000	293.048	80.006	19.994	103.828	19.886	9.211	0.524
440.000	294.037	80.006	19.995	103.831	19.885	9.271	0.512
442.000	295.064	80.008	19.994	103.828	19.886	9.174	0.515
444.000	296.056	80.006	19.995	103.827	19.883	9.424	0.533
446.000	297.035	80.007	19.995	103.827	19.881	9.568	0.490
448.000	298.128	80.006	19.994	103.824	19.880	9.650	0.541
450.000	299.077	80.008	19.995	103.826	19.878	9.768	0.478
452.000	300.093	80.007	19.995	103.825	19.878	9.805	0.509
454.000	301.110	80.008	19.995	103.825	19.878	9.780	0.507
456.000	302.147	80.006	19.994	103.825	19.869	10.424	0.513
458.000	303.120	80.006	19.995	103.824	19.873	10.115	0.499
460.000	304.144	80.006	19.994	103.822	19.867	10.573	0.521
462.000	305.133	80.009	19.993	103.821	19.862	10.973	0.513
464.000	306.126	80.007	19.994	103.818	19.862	10.937	0.506
466.000	307.173	80.007	19.993	103.824	19.858	11.230	0.498
468.000	308.179	80.006	19.994	103.823	19.852	11.666	0.509
470.000	309.223	80.006	19.994	103.829	19.845	12.164	0.508
472.000	310.187	80.007	19.996	103.829	19.841	12.435	0.495
474.000	311.217	80.010	19.994	103.829	19.841	12.463	0.506
476.000	312.224	80.008	19.994	103.828	19.838	12.671	0.515
478.000	313.263	80.008	19.993	103.828	19.831	13.192	0.514
480.000	314.283	80.008	19.993	103.827	19.829	13.320	0.510
482.000	315.234	80.009	19.994	103.825	19.818	14.117	0.521
484.000	316.206	80.008	19.994	103.823	19.812	14.579	0.474
486.000	317.224	80.007	19.992	103.805	19.805	15.100	0.525
488.000	318.260	80.005	19.994	103.818	19.800	15.410	0.515
490.000	319.275	80.006	19.993	103.828	19.794	15.839	0.529
492.000	320.256	80.006	19.995	103.828	19.787	16.331	0.491
494.000	321.255	80.004	19.996	103.820	19.782	16.694	0.508
496.000	322.276	80.006	19.994	103.821	19.776	17.188	0.488
498.000	323.277	80.007	19.993	103.815	19.763	18.082	0.511
500.000	324.235	80.008	19.993	103.804	19.757	18.554	0.505
502.000	325.259	80.010	19.994	103.809	19.745	19.373	0.498
504.000	326.321	80.008	19.992	103.799	19.736	20.016	0.533
506.000	327.283	80.006	19.993	103.806	19.725	20.841	0.515
508.000	328.316	80.009	19.994	103.799	19.714	21.624	0.516
510.000	329.337	80.006	19.994	103.802	19.701	22.561	0.501
512.000	330.367	80.009	19.993	103.795	19.686	23.636	0.507
514.000	331.366	80.009	19.994	103.789	19.676	24.375	0.495
516.000	332.362	80.008	19.995	103.797	19.661	25.495	0.487
518.000	333.412	80.006	19.995	103.792	19.645	26.647	0.539
520.000	334.425	80.007	19.995	103.792	19.627	27.960	0.496
522.000	335.470	80.008	19.993	103.794	19.608	29.284	0.522
524.000	336.410	80.009	19.995	103.790	19.589	30.698	0.484
526.000	337.429	80.009	19.994	103.788	19.573	31.806	0.505
528.000	338.462	80.007	19.995	103.788	19.552	33.320	0.518
530.000	339.452	80.006	19.995	103.798	19.530	34.907	0.500
532.000	340.471	80.008	19.995	103.794	19.509	36.460	0.530
534.000	341.490	80.008	19.994	103.790	19.485	38.166	0.501
536.000	342.493	80.008	19.995	103.789	19.458	40.111	0.513
538.000	343.440	80.009	19.993	103.790	19.435	41.829	0.480
540.000	344.442	80.007	19.994	103.791	19.406	43.909	0.499
542.000	345.472	80.007	19.993	103.790	19.376	46.044	0.522
544.000	346.481	80.006	19.995	103.789	19.346	48.243	0.503
546.000	347.479	80.007	19.995	103.785	19.311	50.785	0.505
548.000	348.479	80.007	19.996	103.788	19.277	53.240	0.503
550.000	349.465	80.006	19.994	103.785	19.240	55.893	0.515
552.000	350.482	80.007	19.994	103.787	19.206	58.334	0.491
554.000	351.484	80.007	19.993	103.788	19.170	60.971	0.488
556.000	352.492	80.007	19.991	103.788	19.130	63.810	0.504
558.000	353.481	80.009	19.994	103.779	19.093	66.522	0.507
560.000	354.530	80.009	19.991	103.783	19.048	69.750	0.500
562.000	355.470	80.009	19.994	103.770	19.006	72.791	0.488
564.000	356.495	80.008	19.994	103.755	18.960	76.073	0.507
566.000	357.509	80.008	19.994	103.763	18.915	79.389	0.512
568.000	358.518	80.008	19.993	103.753	18.869	82.705	0.493
570.000	359.548	80.007	19.994	103.748	18.821	86.168	0.524
572.000	360.542	80.007	19.992	103.749	18.772	89.650	0.513
574.000	361.558	80.007	19.993	103.749	18.725	93.067	0.492
576.000	362.567	80.006	19.994	103.747	18.679	96.396	0.493
578.000	363.571	80.006	19.994	103.746	18.628	100.069	0.501
580.000	364.614	80.006	19.993	103.743	18.582	103.406	0.520
582.000	365.592	80.006	19.993	103.734	18.535	106.779	0.506
584.000	366.618	80.007	19.993	103.739	18.487	110.256	0.516
586.000	367.620	80.008	19.993	103.718	18.440	113.645	0.518
588.000	368.633	80.008	19.994	103.712	18.399	116.584	0.500
590.000	369.719	80.008	19.994	103.722	18.359	119.485	0.524
592.000	370.720	80.006	19.994	103.714	18.323	122.048	0.502
594.000	371.730	80.008	19.993	103.711	18.288	124.587	0.536
596.000	372.756	80.007	19.993	103.706	18.260	126.612	0.520
598.000	373.799	80.006	19.994	103.702	18.233	128.572	0.487
600.000	374.805	80.007	19.994	103.708	18.206	130.512	0.487
602.000	375.820	80.005	19.994	103.695	18.188	131.816	0.504
604.000	376.865	80.005	19.993	103.686	18.175	132.719	0.496
606.000	377.918	80.006	19.994	103.677	18.167	133.295	0.529
608.000	378.917	80.006	19.994	103.676	18.162	133.702	0.519
610.000	379.945	80.006	19.994	103.674	18.161	133.714	0.551
612.000	380.964	80.007	19.993	103.673	18.169	133.194	0.536
614.000	381.975	80.008	19.994	103.673	18.176	132.671	0.494
616.000	382.960	80.007	19.994	103.674	18.194	131.369	0.477
618.000	384.005	80.008	19.993	103.674	18.214	129.940	0.522
620.000	385.008	80.008	19.992	103.674	18.244	127.710	0.498
622.000	385.997	80.009	19.993	103.674	18.269	125.918	0.488
624.000	386.997	80.007	19.995	103.673	18.306	123.286	0.504
626.000	388.010	80.009	19.994	103.673	18.342	120.698	0.505
628.000	389.010	80.006	19.994	103.681	18.382	117.842	0.487
630.000	390.018	80.007	19.994	103.671	18.422	114.895	0.481
632.000	391.022	80.008	19.993	103.673	18.464	111.878	0.503
634.000	392.085	80.008	19.994	103.671	18.515	108.192	0.523
636.000	393.060	80.009	19.994	103.677	18.559	105.052	0.487
638.000	394.105	80.009	19.995	103.683	18.608	101.484	0.508
640.000	395.128	80.009	19.995	103.691	18.651	98.411	0.510
642.000	396.186	80.010	19.995	103.698	18.696	95.159	0.520
644.000	397.132	80.010	19.995	103.705	18.745	91.612	0.500
646.000	398.156	80.010	19.995	103.707	18.788	88.534	0.520
648.000	399.180	80.008	19.995	103.708	18.827	85.725	0.516
650.000	400.179	80.008	19.995	103.717	18.867	82.800	0.502
652.000	401.192	80.008	19.994	103.712	18.907	79.941	0.522
654.000	402.184	80.006	19.993	103.714	18.943	77.360	0.495
656.000	403.235	80.007	19.994	103.715	18.978	74.804	0.537
658.000	404.248	80.007	19.995	103.722	19.012	72.345	0.499
660.000	405.285	80.006	19.993	103.722	19.044	70.067	0.537
662.000	406.302	80.007	19.994	103.730	19.071	68.075	0.513
664.000	407.291	80.007	19.994	103.737	19.098	66.112	0.496
666.000	408.313	80.006	19.994	103.737	19.117	64.782	0.516
668.000	409.340	80.006	19.994	103.733	19.141	63.058	0.522
670.000	410.338	80.007	19.994	103.744	19.160	61.646	0.506
672.000	411.388	80.007	19.995	103.747	19.177	60.419	0.510
674.000	412.428	80.007	19.994	103.747	19.194	59.232	0.528
676.000	413.433	80.006	19.994	103.746	19.208	58.205	0.505
678.000	414.418	80.005	19.994	103.751	19.224	57.010	0.482
680.000	415.391	80.007	19.994	103.750	19.234	56.297	0.488
682.000	416.394	80.006	19.993	103.752	19.248	55.288	0.501
684.000	417.424	80.007	19.994	103.754	19.255	54.782	0.514
686.000	418.436	80.006	19.994	103.754	19.265	54.089	0.498
688.000	419.487	80.007	19.992	103.753	19.270	53.690	0.520
690.000	420.497	80.008	19.993	103.753	19.280	53.016	0.502
692.000	421.516	80.009	19.993	103.751	19.286	52.545	0.499
694.000	422.511	80.009	19.994	103.750	19.293	52.072	0.517
696.000	423.518	80.009	19.993	103.749	19.294	52.012	0.505
698.000	424.573	80.008	19.993	103.748	19.296	51.847	0.515
700.000	425.528	80.009	19.993	103.750	19.299	51.627	0.488
702.000	426.566	80.007	19.995	103.750	19.306	51.130	0.521
704.000	427.557	80.008	19.993	103.758	19.305	51.147	0.491
706.000	428.580	80.008	19.994	103.755	19.309	50.882	0.517
708.000	429.632	80.009	19.995	103.755	19.310	50.854	0.488
710.000	430.633	80.007	19.995	103.760	19.312	50.703	0.505
712.000	431.650	80.009	19.994	103.753	19.316	50.389	0.506
714.000	432.645	80.010	19.994	103.753	19.319	50.193	0.523
716.000	433.692	80.010	19.994	103.749	19.318	50.230	0.527
718.000	434.784	80.010	19.994	103.751	19.319	50.144	0.518
720.000	435.793	80.010	19.994	103.753	19.318	50.232	0.539
722.000	436.818	80.010	19.995	103.749	19.320	50.092	0.529
724.000	437.876	80.010	19.994	103.759	19.320	50.101	0.538
726.000	438.904	80.008	19.994	103.753	19.319	50.190	0.532
728.000	439.919	80.009	19.994	103.751	19.320	50.090	0.478
730.000	440.998	80.007	19.995	103.750	19.322	49.975	0.525
732.000	441.991	80.006	19.995	103.753	19.325	49.774	0.496
734.000	443.031	80.006	19.994	103.754	19.324	49.793	0.516
736.000	444.068	80.006	19.996	103.757	19.325	49.749	0.492
738.000	445.088	80.007	19.995	103.762	19.332	49.214	0.498
740.000	446.124	80.006	19.995	103.760	19.334	49.059	0.532
742.000	447.097	80.008	19.994	103.755	19.340	48.664	0.502
744.000	448.166	80.007	19.994	103.760	19.343	48.461	0.525
746.000	449.166	80.007	19.994	103.762	19.348	48.047	0.477
748.000	450.216	80.006	19.993	103.768	19.352	47.779	0.499
750.000	451.238	80.007	19.993	103.760	19.361	47.157	0.513
752.000	452.272	80.007	19.995	103.753	19.367	46.681	0.496
754.000	453.306	80.008	19.993	103.758	19.377	45.969	0.509
756.000	454.332	80.008	19.994	103.759	19.388	45.178	0.504
758.000	455.350	80.007	19.994	103.755	19.398	44.496	0.502
760.000	456.369	80.007	19.996	103.751	19.408	43.719	0.495
762.000	457.401	80.007	19.994	103.762	19.417	43.097	0.526
764.000	458.407	80.007	19.994	103.762	19.429	42.201	0.525
766.000	459.451	80.008	19.994	103.755	19.443	41.203	0.509
768.000	460.458	80.008	19.994	103.764	19.458	40.148	0.494
770.000	461.542	80.009	19.994	103.781	19.475	38.925	0.514
772.000	462.578	80.007	19.993	103.771	19.491	37.749	0.508
774.000	463.565	80.009	19.993	103.757	19.508	36.511	0.512
776.000	464.574	80.009	19.993	103.759	19.525	35.293	0.501
778.000	465.649	80.009	19.994	103.762	19.543	33.958	0.523
780.000	466.655	80.011	19.993	103.759	19.566	32.346	0.520
782.000	467.671	80.009	19.992	103.755	19.585	30.941	0.506
784.000	468.650	80.009	19.994	103.755	19.608	29.311	0.472
786.000	469.701	80.009	19.993	103.755	19.625	28.036	0.523
788.000	470.735	80.008	19.994	103.757	19.645	26.629	0.516
790.000	471.719	80.009	19.994	103.767	19.668	24.991	0.478
792.000	472.782	80.007	19.994	103.776	19.688	23.542	0.534
794.000	473.849	80.007	19.994	103.766	19.709	22.014	0.570
796.000	474.867	80.008	19.994	103.771	19.734	20.218	0.527
798.000	475.907	80.009	19.993	103.784	19.755	18.686	0.525
800.000	476.909	80.009	19.994	103.768	19.772	17.440	0.495
802.000	477.920	80.009	19.995	103.777	19.790	16.174	0.531
804.000	478.940	80.010	19.994	103.779	19.807	14.936	0.509
806.000	479.981	80.009	19.995	103.785	19.826	13.557	0.528
808.000	481.016	80.007	19.994	103.778	19.842	12.366	0.514
810.000	482.042	80.008	19.994	103.764	19.855	11.424	0.515
812.000	483.047	80.006	19.993	103.778	19.869	10.422	0.515
814.000	484.086	80.006	19.993	103.775	19.876	9.947	0.509
816.000	485.075	80.005	19.994	103.783	19.890	8.902	0.484
818.000	486.090	80.008	19.993	103.772	19.896	8.480	0.498
820.000	487.156	80.006	19.994	103.760	19.907	7.657	0.502
822.000	488.217	80.006	19.994	103.778	19.915	7.137	0.513
824.000	489.241	80.006	19.994	103.772	19.924	6.490	0.539
826.000	490.259	80.007	19.994	103.776	19.928	6.175	0.471
828.000	491.319	80.007	19.995	103.779	19.932	5.872	0.536
830.000	492.361	80.006	19.995	103.763	19.937	5.516	0.534
832.000	493.319	80.006	19.994	103.767	19.942	5.138	0.506
834.000	494.404	80.007	19.994	103.776	19.948	4.742	0.535
836.000	495.476	80.006	19.994	103.770	19.948	4.725	0.522
838.000	496.469	80.008	19.993	103.776	19.956	4.177	0.488
840.000	497.535	80.006	19.992	103.771	19.955	4.252	0.541
842.000	498.574	80.007	19.994	103.774	19.959	3.912	0.512
844.000	499.554	80.007	19.995	103.768	19.961	3.795	0.497
846.000	500.577	80.006	19.993	103.786	19.963	3.620	0.514
848.000	501.581	80.007	19.993	103.780	19.965	3.496	0.521
850.000	502.608	80.005	19.994	103.785	19.966	3.457	0.492
852.000	503.663	80.007	19.993	103.786	19.968	3.256	0.514
854.000	504.656	80.008	19.993	103.782	19.968	3.270	0.514
856.000	505.700	80.008	19.993	103.781	19.971	3.095	0.539
858.000	506.756	80.008	19.994	103.784	19.971	3.083	0.563
860.000	507.749	80.009	19.994	103.772	19.971	3.095	0.495
862.000	508.780	80.007	19.992	103.780	19.976	2.666	0.515
864.000	509.763	80.009	19.992	103.785	19.973	2.922	0.488
866.000	510.795	80.008	19.993	103.778	19.976	2.729	0.498
868.000	511.806	80.008	19.993	103.768	19.974	2.831	0.541
870.000	512.789	80.009	19.992	103.776	19.970	3.097	0.475
872.000	513.816	80.009	19.991	103.786	19.976	2.716	0.506
874.000	514.860	80.007	19.994	103.785	19.976	2.685	0.522
876.000	515.909	80.012	19.992	103.786	19.974	2.828	0.551
878.000	516.945	80.007	19.993	103.786	19.972	3.002	0.502
880.000	517.982	80.009	19.993	103.775	19.974	2.878	0.512
882.000	519.020	80.009	19.994	103.779	19.973	2.925	0.521
884.000	519.986	80.010	19.993	103.758	19.972	2.968	0.475
886.000	521.030	80.011	19.994	103.755	19.974	2.856	0.536
888.000	522.059	80.011	19.993	103.769	19.972	2.958	0.524
890.000	523.093	80.009	19.993	103.776	19.974	2.844	0.533
892.000	524.057	80.009	19.995	103.772	19.969	3.173	0.500
894.000	525.097	80.008	19.995	103.776	19.975	2.781	0.503
896.000	526.074	80.008	19.993	103.765	19.972	2.955	0.480
898.000	527.126	80.008	19.994	103.756	19.970	3.114	0.507
900.000	528.142	80.007	19.995	103.768	19.974	2.874	0.513
902.000	529.166	80.008	19.995	103.777	19.977	2.657	0.500
904.000	530.131	80.008	19.994	103.772	19.977	2.656	0.482
906.000	531.215	80.006	19.995	103.781	19.973	2.920	0.500
908.000	532.190	80.007	19.994	103.770	19.976	2.719	0.516
910.000	533.211	80.008	19.994	103.780	19.973	2.890	0.507
912.000	534.243	80.005	19.995	103.770	19.978	2.534	0.528
914.000	535.300	80.008	19.994	103.775	19.977	2.644	0.541
916.000	536.325	80.007	19.995	103.780	19.975	2.744	0.509
918.000	537.348	80.006	19.996	103.783	19.980	2.437	0.533
920.000	538.362	80.006	19.994	103.782	19.978	2.571	0.500
922.000	539.410	80.005	19.995	103.777	19.977	2.618	0.530
924.000	540.420	80.004	19.995	103.781	19.975	2.762	0.517
926.000	541.421	80.008	19.994	103.777	19.980	2.421	0.513
928.000	542.421	80.006	19.995	103.770	19.976	2.679	0.486
930.000	543.483	80.007	19.994	103.766	19.977	2.646	0.514
932.000	544.485	80.007	19.992	103.774	19.978	2.569	0.502
934.000	545.502	80.005	19.993	103.775	19.972	3.004	0.471
936.000	546.503	80.005	19.994	103.766	19.976	2.699	0.504
938.000	547.523	80.008	19.992	103.772	19.977	2.655	0.519
940.000	548.576	80.009	19.992	103.783	19.977	2.642	0.533
942.000	549.582	80.007	19.993	103.767	19.976	2.703	0.516
944.000	550.605	80.009	19.993	103.780	19.980	2.396	0.487
946.000	551.612	80.009	19.993	103.774	19.981	2.325	0.515
948.000	552.625	80.008	19.994	103.765	19.979	2.457	0.495
950.000	553.680	80.008	19.995	103.773	19.978	2.565	0.535
952.000	554.734	80.008	19.995	103.771	19.979	2.490	0.532
954.000	555.761	80.008	19.994	103.775	19.980	2.423	0.499
956.000	556.801	80.007	19.993	103.773	19.983	2.157	0.512
958.000	557.810	80.009	19.995	103.773	19.982	2.270	0.513
960.000	558.890	80.009	19.994	103.775	19.982	2.264	0.519
962.000	559.865	80.008	19.994	103.761	19.982	2.258	0.500
964.000	560.887	80.010	19.993	103.779	19.978	2.542	0.478
966.000	561.920	80.010	19.993	103.776	19.981	2.305	0.516
968.000	562.941	80.012	19.992	103.773	19.983	2.212	0.497
970.000	564.016	80.011	19.992	103.770	19.981	2.340	0.517
972.000	565.028	80.011	19.992	103.773	19.982	2.281	0.517
974.000	566.027	80.008	19.993	103.786	19.980	2.402	0.513
976.000	567.087	80.009	19.994	103.774	19.981	2.335	0.539
978.000	568.046	80.007	19.995	103.759	19.982	2.277	0.476
980.000	569.106	80.007	19.994	103.767	19.980	2.398	0.512
982.000	570.135	80.007	19.994	103.764	19.978	2.542	0.512
984.000	571.153	80.007	19.993	103.776	19.981	2.366	0.501
986.000	572.191	80.008	19.995	103.780	19.980	2.386	0.533
988.000	573.209	80.009	19.995	103.772	19.981	2.343	0.526
990.000	574.268	80.008	19.994	103.769	19.979	2.498	0.521
992.000	575.337	80.008	19.994	103.778	19.981	2.352	0.538
994.000	576.350	80.008	19.993	103.776	19.983	2.209	0.518
996.000	577.355	80.008	19.995	103.774	19.980	2.437	0.521
998.000	578.392	80.007	19.994	103.779	19.981	2.349	0.520
1000.000	579.403	80.007	19.994	103.780	19.982	2.262	0.527
1002.000	580.399	80.007	19.993	103.775	19.980	2.406	0.501
1004.000	581.417	80.008	19.993	103.766	19.982	2.270	0.536
1006.000	582.489	80.007	19.994	103.783	19.983	2.164	0.551
1008.000	583.495	80.007	19.994	103.791	19.987	1.894	0.515
1010.000	584.504	80.007	19.994	103.787	19.980	2.380	0.530
1012.000	585.501	80.006	19.996	103.773	19.983	2.183	0.486
1014.000	586.550	80.008	19.995	103.781	19.980	2.421	0.499
1016.000	587.563	80.009	19.994	103.786	19.986	1.994	0.518
1018.000	588.537	80.009	19.994	103.778	19.981	2.329	0.514
1020.000	589.616	80.008	19.994	103.780	19.983	2.163	0.526
1022.000	590.611	80.010	19.995	103.770	19.986	1.968	0.489
1024.001	591.626	80.007	19.995	103.770	19.984	2.130	0.523
1025.999	592.629	80.008	19.994	103.774	19.984	2.118	0.510
1028.000	593.667	80.008	19.994	103.775	19.982	2.260	0.504
1029.999	594.695	80.009	19.994	103.770	19.985	2.073	0.504
1031.999	595.720	80.007	19.995	103.763	19.984	2.116	0.516
1034.000	596.687	80.008	19.995	103.760	19.981	2.334	0.462
1036.001	597.749	80.009	19.995	103.772	19.983	2.213	0.496
1038.000	598.783	80.009	19.994	103.782	19.986	1.998	0.524
1039.999	599.780	80.010	19.995	103.765	19.985	2.034	0.522
1041.999	600.781	80.010	19.995	103.763	19.981	2.329	0.477
1043.999	601.770	80.011	19.994	103.766	19.984	2.148	0.477
1045.999	602.798	80.009	19.993	103.766	19.983	2.216	0.525
1047.999	603.842	80.009	19.995	103.780	19.985	2.043	0.540
1049.999	604.846	80.010	19.994	103.781	19.982	2.258	0.526
1051.999	605.843	80.009	19.993	103.786	19.982	2.297	0.514
1053.999	606.854	80.008	19.994	103.775	19.984	2.112	0.517
1056.000	607.891	80.008	19.994	103.773	19.984	2.085	0.479
1057.999	608.904	80.008	19.993	103.774	19.981	2.329	0.495
1059.999	609.925	80.008	19.993	103.776	19.981	2.343	0.486
1062.000	610.989	80.007	19.993	103.780	19.977	2.600	0.553
1063.999	611.985	80.007	19.994	103.785	19.977	2.602	0.544
1065.999	613.038	80.008	19.993	103.774	19.978	2.541	0.539
1067.999	614.025	80.007	19.993	103.770	19.980	2.406	0.477
1069.999	615.077	80.008	19.994	103.776	19.978	2.520	0.539
1071.999	616.082	80.007	19.994	103.788	19.976	2.667	0.482
1074.000	617.105	80.006	19.994	103.766	19.979	2.494	0.548
1075.999	618.078	80.008	19.995	103.756	19.979	2.506	0.522
1077.999	619.110	80.006	19.995	103.778	19.980	2.392	0.526
1079.999	620.142	80.007	19.994	103.780	19.973	2.951	0.539
1081.999	621.187	80.006	19.996	103.782	19.972	2.990	0.525
1083.999	622.190	80.008	19.995	103.767	19.990	1.707	0.495
1085.999	623.209	80.006	19.994	103.766	19.977	2.601	0.553
1087.999	624.189	80.007	19.994	103.772	19.977	2.662	0.532
1089.999	625.157	80.007	19.995	103.769	19.978	2.541	0.435
1091.999	626.224	80.005	19.994	103.783	19.976	2.669	0.498
1093.999	627.190	80.007	19.995	103.775	19.978	2.553	0.577
1095.999	628.246	80.007	19.995	103.783	19.977	2.593	0.530
1097.999	629.907	80.008	19.995	103.785	19.976	2.666	1.152
1099.999	630.217	80.008	19.994	103.779	19.979	2.483	0.844
1101.999	631.308	80.009	19.994	103.780	19.978	2.530	0.586
1103.999	632.253	80.009	19.994	103.780	19.975	2.774	0.473
1106.000	633.305	80.009	19.993	103.786	19.977	2.618	0.434
1108.001	634.335	80.008	19.994	103.785	19.979	2.514	0.555
1110.000	635.351	80.008	19.994	103.786	19.977	2.634	0.502
1111.999	636.397	80.007	19.994	103.782	19.980	2.416	0.529
1113.999	637.420	80.008	19.994	103.783	19.977	2.613	0.449
1116.000	638.421	80.007	19.993	103.789	19.976	2.676	0.526
1117.999	639.464	80.009	19.994	103.781	19.973	2.900	0.507
1120.000	640.417	80.008	19.993	103.787	19.975	2.745	0.497
1121.999	641.445	80.009	19.994	103.791	19.974	2.855	0.494
1123.999	642.480	80.010	19.993	103.790	19.975	2.802	0.497
1125.999	643.497	80.009	19.994	103.789	19.975	2.746	0.504
1127.999	644.517	80.008	19.993	103.789	19.978	2.589	0.487
1129.999	645.518	80.009	19.994	103.794	19.977	2.597	0.479
1132.001	646.485	80.009	19.993	103.792	19.978	2.540	0.475
1133.999	647.567	80.007	19.993	103.791	19.973	2.949	0.512
1136.000	648.592	80.007	19.993	103.790	19.960	3.869	0.546
1138.001	649.564	80.006	19.994	103.789	19.971	3.044	0.507
1139.999	650.692	80.007	19.994	103.788	19.972	2.965	0.556
1141.999	651.668	80.006	19.993	103.787	19.974	2.855	0.544
1144.000	652.639	80.007	19.994	103.788	19.973	2.902	0.511
1145.999	653.671	80.006	19.994	103.789	19.973	2.880	0.523
1148.000	654.527	80.009	19.993	103.789	19.971	3.048	0.493
1149.999	655.782	80.008	19.993	103.790	19.969	3.223	0.412
1151.999	656.732	80.008	19.993	103.790	19.972	2.963	0.449
1154.000	657.820	80.006	19.994	103.788	19.975	2.741	0.617
1155.999	658.883	80.007	19.993	103.788	19.975	2.800	0.548
1157.999	659.886	80.009	19.993	103.789	19.977	2.591	0.491
1159.999	660.866	80.008	19.994	103.790	19.976	2.731	0.526
1161.999	661.889	80.007	19.994	103.788	19.974	2.878	0.500
1163.999	662.917	80.008	19.994	103.790	19.972	3.022	0.489
1165.999	664.008	80.006	19.994	103.790	19.972	3.024	0.511
1167.999	664.996	80.006	19.995	103.790	19.975	2.737	0.505
1169.999	666.027	80.008	19.995	103.789	19.970	3.105	0.507
1171.999	667.026	80.007	19.995	103.789	19.967	3.337	0.535
1174.000	668.024	80.006	19.995	103.789	19.974	2.847	0.489
1175.999	669.050	80.007	19.994	103.791	19.972	2.955	0.501
1177.999	670.066	80.007	19.994	103.791	19.974	2.817	0.529
1179.999	671.099	80.008	19.995	103.795	19.973	2.885	0.501
1181.999	672.125	80.008	19.994	103.794	19.969	3.239	0.496
1183.999	673.124	80.009	19.994	103.794	19.974	2.825	0.498
1185.999	674.141	80.008	19.994	103.795	19.976	2.686	0.507
1188.000	675.226	80.008	19.994	103.791	19.974	2.844	0.534
1189.999	676.255	80.009	19.995	103.798	19.974	2.826	0.536
1191.999	677.280	80.008	19.994	103.809	19.973	2.881	0.559
1194.000	678.337	80.008	19.994	103.798	19.971	3.032	0.546
1195.999	679.330	80.007	19.995	103.794	19.969	3.173	0.491
1198.000	680.351	80.007	19.995	103.810	19.973	2.921	0.515
1200.000	681.407	80.007	19.994	103.809	19.969	3.224	0.543
1201.999	682.425	80.008	19.995	103.804	19.968	3.245	0.496
1203.999	683.444	80.009	19.995	103.796	19.970	3.159	0.523
1205.999	684.456	80.009	19.993	103.812	19.969	3.179	0.506
1208.000	685.487	80.008	19.993	103.818	19.968	3.305	0.507
1210.000	686.490	80.009	19.994	103.821	19.969	3.240	0.503
1211.999	687.553	80.010	19.993	103.820	19.970	3.118	0.509
1214.001	688.583	80.010	19.993	103.822	19.967	3.368	0.251
1216.000	689.567	80.007	19.994	103.823	19.968	3.311	0.499
1218.000	690.636	80.006	19.993	103.824	19.968	3.283	0.525
1219.999	691.663	80.007	19.995	103.827	19.971	3.063	0.509
1221.999	692.689	80.007	19.994	103.827	19.967	3.335	0.526
1223.999	693.724	80.008	19.995	103.827	19.967	3.332	0.490
1225.999	694.749	80.008	19.994	103.830	19.968	3.313	0.503
1228.000	695.793	80.009	19.995	103.829	19.966	3.429	0.513
1229.999	696.860	80.007	19.994	103.831	19.964	3.538	0.553
1231.999	697.890	80.008	19.994	103.832	19.967	3.366	0.493
1233.999	698.929	80.008	19.994	103.830	19.964	3.583	0.451
1235.999	699.966	80.008	19.994	103.829	19.964	3.533	0.528
1238.000	700.938	80.007	19.993	103.829	19.963	3.644	0.480
1239.999	701.995	80.007	19.993	103.834	19.964	3.550	0.532
1242.000	703.000	80.007	19.995	103.836	19.963	3.607	0.521
1244.000	704.035	80.008	19.994	103.843	19.962	3.715	0.535
1245.999	705.075	80.007	19.993	103.835	19.961	3.796	0.533
1247.999	706.098	80.006	19.994	103.830	19.963	3.635	0.535
1249.999	707.114	80.007	19.993	103.837	19.958	4.001	0.518
1252.000	708.163	80.007	19.995	103.840	19.962	3.690	0.509
1254.001	709.186	80.006	19.995	103.840	19.959	3.944	0.536
1255.999	710.174	80.006	19.993	103.845	19.961	3.793	0.510
1257.999	711.242	80.007	19.994	103.861	19.958	4.003	0.511
1259.999	712.252	80.008	19.994	103.849	19.957	4.042	0.513
1261.999	713.274	80.008	19.994	103.854	19.960	3.836	0.529
1263.999	714.281	80.009	19.993	103.850	19.957	4.064	0.490
1266.000	715.315	80.009	19.995	103.862	19.957	4.045	0.564
1267.999	716.316	80.009	19.995	103.859	19.955	4.210	0.495
1269.999	717.357	80.008	19.993	103.846	19.958	4.001	0.517
1271.999	718.345	80.009	19.994	103.842	19.955	4.192	0.474
1273.999	719.367	80.008	19.993	103.856	19.958	4.008	0.503
1275.999	720.377	80.008	19.994	103.833	19.959	3.963	0.486
1277.999	721.390	80.008	19.995	103.841	19.959	3.915	0.492
1279.999	722.380	80.007	19.994	103.844	19.963	3.661	0.498
1282.000	723.395	80.006	19.993	103.846	19.958	3.971	0.493
1283.999	724.415	80.008	19.995	103.831	19.960	3.862	0.500
1285.999	725.429	80.008	19.994	103.841	19.960	3.828	0.536
1288.000	726.432	80.009	19.995	103.834	19.960	3.887	0.511
1289.999	727.429	80.010	19.995	103.827	19.960	3.820	0.543
1291.999	728.468	80.010	19.995	103.828	19.962	3.680	0.510
1293.999	729.508	80.010	19.994	103.823	19.960	3.833	0.515
1295.999	730.505	80.007	19.994	103.819	19.961	3.786	0.511
1297.999	731.536	80.007	19.994	103.812	19.965	3.530	0.495
1299.999	732.517	80.007	19.994	103.801	19.963	3.610	0.489
1301.999	733.529	80.008	19.995	103.792	19.964	3.560	0.500
1303.999	734.553	80.008	19.993	103.788	19.969	3.191	0.504
1305.999	735.558	80.007	19.994	103.790	19.967	3.320	0.490
1308.000	736.570	80.006	19.993	103.789	19.969	3.230	0.492
1309.999	737.609	80.005	19.994	103.774	19.970	3.141	0.530
1312.000	738.626	80.007	19.993	103.764	19.969	3.232	0.519
1314.000	739.627	80.006	19.994	103.767	19.971	3.066	0.522
1315.999	740.619	80.006	19.994	103.767	19.971	3.076	0.501
1318.000	741.660	80.007	19.995	103.753	19.972	3.015	0.484
1320.000	742.650	80.008	19.994	103.754	19.973	2.938	0.523
1322.000	743.669	80.007	19.994	103.753	19.967	3.320	0.494