File: 01_Data/Polyester_Batting/STA/N2/10K_min/Polyester_Batting_STA_N2_10KData_220131_R1.csv
##Temp./Â°C,Time/min,DSC(subtr.2)/(mW/mg),Mass(subtr.2)/%,Sensit./(uV/mW)
49.332,10.00917,-0.00612744,100.81,1.07447
49.932,10.7212,0.01571655,100.816,1.07443
50.532,10.91008,0.03452312,100.849,1.07438
51.132,11.05208,0.05184917,100.857,1.07434
51.732,11.17117,0.06798292,100.853,1.0743
52.332,11.27598,0.07826598,100.848,1.07425
52.932,11.37284,0.09016536,100.888,1.07421
53.532,11.46384,0.09981565,100.857,1.07416
54.132,11.5489,0.10526,100.819,1.07411
54.732,11.6303,0.11433,100.843,1.07407
55.332,11.70876,0.12058,100.851,1.07402
55.932,11.7853,0.12629,100.877,1.07397
56.532,11.86015,0.13168,100.877,1.07392
57.132,11.93352,0.13567,100.866,1.07386
57.732,12.00572,0.13911,100.84,1.07381
58.332,12.07669,0.14434,100.827,1.07376
58.932,12.14669,0.14673,100.857,1.0737
59.532,12.21561,0.14773,100.858,1.07365
60.132,12.28382,0.14983,100.851,1.07359
60.732,12.35166,0.15329,100.8847,1.07354
61.332,12.4192,0.15711,100.894,1.07348
61.932,12.48633,0.15627,100.884,1.07342
62.532,12.55327,0.15873,100.886,1.07336
63.132,12.61963,0.16003,100.8511,1.0733
63.732,12.68577,0.16216,100.878,1.07324
64.332,12.7515,0.16522,100.881,1.07318
64.932,12.81687,0.16544,100.884,1.07312
65.532,12.88199,0.16794,100.866,1.07306
66.132,12.94692,0.17017,100.897,1.07299
66.732,13.0122,0.17374,100.884,1.07293
67.332,13.07722,0.17762,100.886,1.07286
67.932,13.1418,0.17985,100.921,1.07279
68.532,13.20609,0.18509,100.921,1.07273
69.132,13.2701,0.18573,100.919,1.07266
69.732,13.33405,0.18336,100.925,1.07259
70.332,13.39795,0.18199,100.918,1.07252
70.932,13.46156,0.18129,100.921,1.07245
71.532,13.5253,0.18419,100.918,1.07238
72.132,13.589,0.18056,100.919,1.0723
72.732,13.65226,0.18184,100.889,1.07223
73.332,13.71556,0.18275,100.85,1.07216
73.932,13.7788,0.18064,100.885,1.07208
74.532,13.8419,0.1839,100.919,1.07201
75.132,13.9048,0.1846,100.918,1.07193
75.732,13.96737,0.18558,100.919,1.07185
76.332,14.03,0.18562,100.945,1.07177
76.932,14.0924,0.19069,100.919,1.07169
77.532,14.1549,0.18742,100.917,1.07161
78.132,14.2175,0.18878,100.931,1.07153
78.732,14.2799,0.18907,100.918,1.07145
79.332,14.34205,0.18979,100.916,1.07137
79.932,14.4042,0.19034,100.9453,1.07129
80.532,14.4657,0.19082,100.919,1.0712
81.132,14.5274,0.19267,100.919,1.07112
81.732,14.58903,0.19056,100.952,1.07103
82.332,14.651,0.19244,100.987,1.07094
82.932,14.71245,0.1949,100.9552,1.07086
83.532,14.77374,0.19471,100.983,1.07077
84.132,14.8351,0.19613,100.952,1.07068
84.732,14.8962,0.19794,100.968,1.07059
85.332,14.95713,0.19734,100.956,1.0705
85.932,15.01808,0.19943,100.986,1.07041
86.532,15.07894,0.20058,100.9857,1.07031
87.132,15.1401,0.19959,100.952,1.07022
87.732,15.20095,0.20252,100.952,1.07013
88.332,15.26113,0.20078,100.922,1.07003
88.932,15.32114,0.20211,100.952,1.06994
89.532,15.38106,0.20539,100.918,1.06984
90.132,15.441,0.20618,100.953,1.06974
90.732,15.50123,0.20416,100.977,1.06964
91.332,15.5614,0.20353,100.973,1.06954
91.932,15.62139,0.20527,100.9704,1.06944
92.532,15.681,0.20455,100.957,1.06934
93.132,15.74058,0.20878,101.005,1.06924
93.732,15.8003,0.20922,101.011,1.06914
94.332,15.85985,0.20628,100.994,1.06904
94.932,15.9193,0.20923,100.994,1.06893
95.532,15.9786,0.21008,100.961,1.06883
96.132,16.03805,0.21103,100.971,1.06872
96.732,16.09744,0.20967,100.959,1.06861
97.332,16.15687,0.213,100.965,1.06851
97.932,16.21582,0.21556,101.029,1.0684
98.532,16.27495,0.2137,100.991,1.06829
99.132,16.3342,0.21525,100.991,1.06818
99.732,16.39333,0.21546,100.991,1.06807
100.332,16.4524,0.21724,100.991,1.06796
100.932,16.51139,0.21848,100.991,1.06785
101.532,16.57026,0.21691,101.006,1.06773
102.132,16.6292,0.21783,100.991,1.06762
102.732,16.688,0.21828,100.991,1.0675
103.332,16.74677,0.21927,100.958,1.06739
103.932,16.8056,0.22097,100.989,1.06727
104.532,16.8645,0.22024,100.991,1.06715
105.132,16.92361,0.22176,101.016,1.06704
105.732,16.98227,0.22445,101.0187,1.06692
106.332,17.04128,0.22423,101.02,1.0668
106.932,17.10008,0.22628,101.058,1.06668
107.532,17.159,0.22644,101.022,1.06656
108.132,17.21794,0.22977,101.008,1.06643
108.732,17.27684,0.22471,100.988,1.06631
109.332,17.3354,0.22931,100.989,1.06619
109.932,17.39441,0.22968,100.969,1.06606
110.532,17.453,0.23124,100.988,1.06594
111.132,17.51193,0.23001,100.989,1.06581
111.732,17.5709,0.23165,101.022,1.06568
112.332,17.6297,0.23055,101.021,1.06556
112.932,17.68852,0.23207,101.022,1.06543
113.532,17.7473,0.23381,101.022,1.0653
114.132,17.806,0.23457,101.0151,1.06517
114.732,17.86467,0.23722,101.022,1.06504
115.332,17.923,0.23581,101.021,1.06491
115.932,17.98178,0.23835,101.018,1.06477
116.532,18.04036,0.24025,101.022,1.06464
117.132,18.0991,0.24137,101.022,1.0645
117.732,18.15783,0.24293,100.988,1.06437
118.332,18.21636,0.24435,101.016,1.06423
118.932,18.2751,0.24817,101.022,1.0641
119.532,18.33381,0.24653,100.989,1.06396
120.132,18.39228,0.24536,101.005,1.06382
120.732,18.4507,0.24793,101.022,1.06368
121.332,18.5092,0.24999,101.022,1.06354
121.932,18.56769,0.25203,101.022,1.0634
122.532,18.62656,0.25309,100.996,1.06326
123.132,18.68495,0.256,100.997,1.06312
123.732,18.74341,0.2582,101.03,1.06297
124.332,18.8018,0.26098,101.0302,1.06283
124.932,18.86007,0.26566,101.03,1.06269
125.532,18.91865,0.268,101.054,1.06254
126.132,18.97695,0.27204,101.055,1.06239
126.732,19.03535,0.27735,101.055,1.06225
127.332,19.09393,0.28298,101.022,1.0621
127.932,19.15225,0.28356,101.052,1.06195
128.532,19.2107,0.28936,101.055,1.0618
129.132,19.26902,0.28962,101.08,1.06165
129.732,19.3271,0.29437,101.047,1.0615
130.332,19.3855,0.29561,101.055,1.06135
130.932,19.44386,0.30156,101.055,1.06119
131.532,19.50208,0.30124,101.071,1.06104
132.132,19.5603,0.30228,101.089,1.06089
132.732,19.6185,0.30004,101.089,1.06073
133.332,19.67667,0.30043,101.064,1.06057
133.932,19.7349,0.29872,101.055,1.06042
134.532,19.79307,0.29229,101.088,1.06026
135.132,19.8511,0.28901,101.089,1.0601
135.732,19.90925,0.28279,101.088,1.05994
136.332,19.9673,0.27549,101.055,1.05978
136.932,20.0255,0.26829,101.055,1.05962
137.532,20.08376,0.26192,101.055,1.05946
138.132,20.14181,0.25613,101.0936,1.0593
138.732,20.19974,0.25285,101.113,1.05913
139.332,20.25788,0.24979,101.0635,1.05897
139.932,20.31577,0.24546,101.03,1.05881
140.532,20.37373,0.24054,101.03,1.05864
141.132,20.4316,0.24204,101.011,1.05847
141.732,20.48948,0.24223,101.055,1.05831
142.332,20.54726,0.2386,101.055,1.05814
142.932,20.6052,0.23726,101.031,1.05797
143.532,20.66285,0.23888,101.047,1.0578
144.132,20.72074,0.23673,101.048,1.05763
144.732,20.77855,0.23606,101.071,1.05746
145.332,20.83636,0.23819,101.088,1.05729
145.932,20.89441,0.23885,101.056,1.05711
146.532,20.95226,0.23935,101.055,1.05694
147.132,21.0101,0.23907,101.089,1.05677
147.732,21.0679,0.2425,101.089,1.05659
148.332,21.12554,0.24093,101.089,1.05642
148.932,21.1833,0.24179,101.125,1.05624
149.532,21.24097,0.24393,101.125,1.05606
150.132,21.29873,0.24212,101.091,1.05588
150.732,21.3563,0.24208,101.091,1.05571
151.332,21.41413,0.24433,101.091,1.05553
151.932,21.472,0.24486,101.091,1.05535
152.532,21.52993,0.24542,101.0578,1.05516
153.132,21.5879,0.24608,101.058,1.05498
153.732,21.6457,0.24436,101.091,1.0548
154.332,21.70334,0.24415,101.166,1.05462
154.932,21.7611,0.24517,101.122,1.05443
155.532,21.81869,0.24632,101.088,1.05425
156.132,21.8762,0.24586,101.122,1.05406
156.732,21.9337,0.24699,101.102,1.05387
157.332,21.9913,0.24738,101.117,1.05369
157.932,22.04883,0.24817,101.122,1.0535
158.532,22.10644,0.25135,101.122,1.05331
159.132,22.16398,0.25098,101.122,1.05312
159.732,22.2214,0.25231,101.093,1.05293
160.332,22.27893,0.25314,101.096,1.05274
160.932,22.33624,0.25321,101.113,1.05254
161.532,22.39365,0.25302,101.123,1.05235
162.132,22.45121,0.25362,101.101,1.05216
162.732,22.50884,0.25382,101.114,1.05196
163.332,22.56652,0.25375,101.122,1.05177
163.932,22.6242,0.25416,101.122,1.05157
164.532,22.68177,0.25535,101.1497,1.05138
165.132,22.73921,0.2555,101.147,1.05118
165.732,22.79672,0.25708,101.114,1.05098
166.332,22.85428,0.25735,101.081,1.05078
166.932,22.91176,0.25682,101.083,1.05058
167.532,22.96922,0.25662,101.116,1.05038
168.132,23.0266,0.25714,101.141,1.05018
168.732,23.08409,0.25792,101.141,1.04998
169.332,23.1416,0.258,101.158,1.04977
169.932,23.19913,0.25848,101.158,1.04957
170.532,23.25667,0.25931,101.125,1.04937
171.132,23.3142,0.26034,101.125,1.04916
171.732,23.37121,0.25814,101.125,1.04895
172.332,23.4284,0.25882,101.141,1.04875
172.932,23.4857,0.26026,101.142,1.04854
173.532,23.5431,0.26019,101.141,1.04833
174.132,23.60109,0.25896,101.108,1.04812
174.732,23.65881,0.25999,101.075,1.04791
175.332,23.71658,0.26119,101.075,1.0477
175.932,23.77413,0.2623,101.108,1.04749
176.532,23.83173,0.25996,101.108,1.04728
177.132,23.88907,0.26393,101.108,1.04707
177.732,23.94631,0.26352,101.108,1.04685
178.332,24.00359,0.26186,101.1414,1.04664
178.932,24.06117,0.2625,101.108,1.04642
179.532,24.11875,0.26462,101.108,1.04621
180.132,24.17643,0.2656,101.108,1.04599
180.732,24.2338,0.26348,101.108,1.04577
181.332,24.2911,0.26606,101.108,1.04556
181.932,24.34834,0.26556,101.081,1.04534
182.532,24.40545,0.26701,101.108,1.04512
183.132,24.46284,0.26569,101.108,1.0449
183.732,24.52006,0.26572,101.108,1.04468
184.332,24.57765,0.26841,101.083,1.04445
184.932,24.63506,0.27039,101.1012,1.04423
185.532,24.69233,0.26824,101.1,1.04401
186.132,24.74969,0.26973,101.1,1.04378
186.732,24.8069,0.27067,101.1334,1.04356
187.332,24.8642,0.27233,101.1,1.04333
187.932,24.92155,0.27158,101.1,1.04311
188.532,24.9787,0.2707,101.0835,1.04288
189.132,25.03606,0.27325,101.083,1.04265
189.732,25.09327,0.27468,101.092,1.04242
190.332,25.1506,0.27168,101.116,1.04219
190.932,25.20786,0.27373,101.116,1.04196
191.532,25.26517,0.27383,101.116,1.04173
192.132,25.32255,0.27808,101.116,1.0415
192.732,25.37978,0.2762,101.116,1.04127
193.332,25.4372,0.27641,101.149,1.04104
193.932,25.49449,0.27553,101.137,1.0408
194.532,25.5517,0.27744,101.1,1.04057
195.132,25.6091,0.27864,101.1,1.04033
195.732,25.66619,0.27939,101.098,1.0401
196.332,25.72343,0.27853,101.083,1.03986
196.932,25.78073,0.27937,101.083,1.03962
197.532,25.8381,0.28108,101.098,1.03938
198.132,25.89572,0.28072,101.1,1.03914
198.732,25.95309,0.28351,101.1,1.0389
199.332,26.01064,0.28166,101.066,1.03866
199.932,26.06786,0.28039,101.048,1.03842
200.532,26.12503,0.28262,101.131,1.03818
201.132,26.1825,0.28391,101.138,1.03794
201.732,26.2401,0.28264,101.079,1.0377
202.332,26.29753,0.28314,101.0802,1.03745
202.932,26.3549,0.28551,101.0802,1.03721
203.532,26.41201,0.28515,101.081,1.03696
204.132,26.46929,0.28502,101.047,1.03671
204.732,26.52665,0.28759,101.047,1.03647
205.332,26.584,0.28832,101.08,1.03622
205.932,26.6413,0.28922,101.0802,1.03597
206.532,26.69835,0.29018,101.0802,1.03572
207.132,26.75549,0.28878,101.0802,1.03547
207.732,26.81247,0.29346,101.073,1.03522
208.332,26.8696,0.29316,101.0467,1.03497
208.932,26.92655,0.29596,101.065,1.03472
209.532,26.98367,0.29589,101.0802,1.03447
210.132,27.04085,0.29746,101.0802,1.03421
210.732,27.09795,0.29935,101.0802,1.03396
211.332,27.15502,0.29851,101.0802,1.0337
211.932,27.21213,0.30113,101.08,1.03345
212.532,27.26902,0.30133,101.0886,1.03319
213.132,27.32602,0.30249,101.088,1.03293
213.732,27.38325,0.30352,101.055,1.03268
214.332,27.4404,0.30334,101.055,1.03242
214.932,27.4977,0.30365,101.08,1.03216
215.532,27.55483,0.3058,101.08,1.0319
216.132,27.61184,0.3066,101.08,1.03164
216.732,27.669,0.3079,101.08,1.03138
217.332,27.72625,0.31024,101.053,1.03111
217.932,27.7832,0.30991,101.089,1.03085
218.532,27.8404,0.3097,101.089,1.03059
219.132,27.89749,0.3121,101.089,1.03032
219.732,27.9546,0.31278,101.089,1.03006
220.332,28.01196,0.31609,101.0886,1.02979
220.932,28.0693,0.31502,101.1221,1.02953
221.532,28.1266,0.31712,101.122,1.02926
222.132,28.18398,0.31836,101.1222,1.02899
222.732,28.24135,0.31801,101.105,1.02872
223.332,28.2985,0.31815,101.105,1.02845
223.932,28.35577,0.32224,101.097,1.02818
224.532,28.413,0.32214,101.072,1.02791
225.132,28.4702,0.32402,101.063,1.02764
225.732,28.5276,0.3265,101.098,1.02737
226.332,28.58492,0.32663,101.133,1.0271
226.932,28.6423,0.32809,101.0967,1.02682
227.532,28.69945,0.332,101.097,1.02655
228.132,28.75677,0.33188,101.072,1.02627
228.732,28.81418,0.33438,101.072,1.026
229.332,28.8715,0.33541,101.105,1.02572
229.932,28.9291,0.33914,101.105,1.02544
230.532,28.98637,0.33989,101.104,1.02517
231.132,29.0433,0.34561,101.064,1.02489
231.732,29.1004,0.34896,101.064,1.02461
232.332,29.1576,0.35253,101.064,1.02433
232.932,29.21482,0.35435,101.099,1.02405
233.532,29.27266,0.35558,101.097,1.02377
234.132,29.32988,0.3599,101.089,1.02349
234.732,29.38705,0.36557,101.055,1.0232
235.332,29.44445,0.37036,101.055,1.02292
235.932,29.50205,0.37562,101.054,1.02264
236.532,29.55953,0.37864,101.089,1.02235
237.132,29.61675,0.38578,101.089,1.02207
237.732,29.67385,0.39193,101.089,1.02178
238.332,29.73098,0.39747,101.085,1.02149
238.932,29.7881,0.40519,101.055,1.02121
239.532,29.84549,0.4105,101.055,1.02092
240.132,29.90273,0.41787,101.086,1.02063
240.732,29.96005,0.4293,101.089,1.02034
241.332,30.0172,0.43774,101.109,1.02005
241.932,30.07442,0.44647,101.158,1.01976
242.532,30.13164,0.45837,101.087,1.01947
243.132,30.18885,0.47184,101.088,1.01917
243.732,30.2461,0.48739,101.0551,1.01888
244.332,30.30343,0.50154,101.075,1.01859
244.932,30.3608,0.52015,101.088,1.01829
245.532,30.41801,0.53956,101.088,1.018
246.132,30.47532,0.56106,101.0883,1.0177
246.732,30.53264,0.5878,101.054,1.01741
247.332,30.59,0.61498,101.055,1.01711
247.932,30.6475,0.64828,101.055,1.01681
248.532,30.705,0.68496,101.089,1.01651
249.132,30.76228,0.72754,101.089,1.01621
249.732,30.8197,0.77781,101.089,1.01591
250.332,30.87732,0.82892,101.089,1.01561
250.932,30.935,0.88262,101.089,1.01531
251.532,30.99285,0.93187,101.089,1.01501
252.132,31.0506,0.97892,101.055,1.01471
252.732,31.1085,1.01728,101.047,1.01441
253.332,31.16645,1.04794,101.0467,1.0141
253.932,31.2241,1.06553,101.0467,1.0138
254.532,31.28187,1.05914,101.0467,1.01349
255.132,31.3396,1.02387,101.0467,1.01319
255.732,31.3973,0.95707,101.013,1.01288
256.332,31.45488,0.86291,101.014,1.01257
256.932,31.5122,0.76103,101.047,1.01227
257.532,31.5692,0.66777,101.0467,1.01196
258.132,31.62596,0.59158,101.045,1.01165
258.732,31.6828,0.52901,101.036,1.01134
259.332,31.73967,0.47635,101.038,1.01103
259.932,31.79658,0.43991,101.027,1.01072
260.532,31.8534,0.41117,101.041,1.01041
261.132,31.9101,0.38919,101.039,1.01009
261.732,31.9669,0.37431,101.039,1.00978
262.332,32.02383,0.36164,101.039,1.00947
262.932,32.08057,0.35433,101.039,1.00915
263.532,32.13769,0.34801,101.039,1.00884
264.132,32.19467,0.34418,101.039,1.00852
264.732,32.25169,0.33956,100.972,1.00821
265.332,32.30856,0.33897,100.972,1.00789
265.932,32.36533,0.33616,101.006,1.00757
266.532,32.4224,0.33547,101.013,1.00725
267.132,32.47961,0.33318,101.005,1.00693
267.732,32.53682,0.33146,101.005,1.00661
268.332,32.5941,0.33301,101.005,1.00629
268.932,32.65118,0.3323,101.005,1.00597
269.532,32.70834,0.33451,101.005,1.00565
270.132,32.76558,0.33318,101.005,1.00533
270.732,32.82289,0.33073,101.005,1.00501
271.332,32.88023,0.32955,101.005,1.00468
271.932,32.93764,0.32849,100.99,1.00436
272.532,32.995,0.32864,100.971,1.00403
273.132,33.0522,0.32995,100.972,1.00371
273.732,33.1095,0.33117,100.972,1.00338
274.332,33.1668,0.32821,100.972,1.00306
274.932,33.22421,0.32921,100.972,1.00273
275.532,33.28164,0.33185,101.005,1.0024
276.132,33.33903,0.33085,101.005,1.00207
276.732,33.3964,0.33186,101.005,1.00174
277.332,33.45378,0.33203,100.972,1.00141
277.932,33.51133,0.33405,100.943,1.00108
278.532,33.56876,0.33341,100.938,1.00075
279.132,33.62615,0.33308,100.972,1.00042
279.732,33.68349,0.3342,100.972,1.00009
280.332,33.7408,0.33829,100.972,0.99975
280.932,33.798,0.33639,100.954,0.99942
281.532,33.8553,0.33749,100.952,0.99909
282.132,33.9125,0.33701,100.93,0.99875
282.732,33.96983,0.33674,100.93,0.99841
283.332,34.027,0.33731,100.93,0.99808
283.932,34.0837,0.33872,100.93,0.99774
284.532,34.14049,0.3393,100.93,0.9974
285.132,34.19751,0.33674,100.955,0.99707
285.732,34.2547,0.33795,100.955,0.99673
286.332,34.3125,0.33935,100.955,0.99639
286.932,34.36979,0.33855,100.955,0.99605
287.532,34.42703,0.34262,100.955,0.99571
288.132,34.48424,0.34205,100.955,0.99537
288.732,34.54144,0.34188,100.921,0.99502
289.332,34.59856,0.34177,100.922,0.99468
289.932,34.65575,0.34138,100.905,0.99434
290.532,34.71282,0.34373,100.9128,0.99399
291.132,34.7699,0.34431,100.938,0.99365
291.732,34.8272,0.34504,100.9058,0.99331
292.332,34.88438,0.34466,100.871,0.99296
292.932,34.9415,0.3451,100.876,0.99261
293.532,34.9987,0.34292,100.905,0.99227
294.132,35.05585,0.34432,100.905,0.99192
294.732,35.1131,0.34414,100.905,0.99157
295.332,35.1704,0.34545,100.905,0.99122
295.932,35.2277,0.34412,100.871,0.99087
296.532,35.28519,0.34586,100.857,0.99052
297.132,35.34257,0.34523,100.837,0.99017
297.732,35.3999,0.34432,100.871,0.98982
298.332,35.45734,0.34421,100.892,0.98947
298.932,35.5148,0.34488,100.905,0.98912
299.532,35.5723,0.34464,100.871,0.98876
300.132,35.6297,0.34755,100.871,0.98841
300.732,35.6866,0.34345,100.837,0.98806
301.332,35.7443,0.34805,100.838,0.9877
301.932,35.802,0.34701,100.838,0.98735
302.532,35.8595,0.34456,100.838,0.98699
303.132,35.9172,0.34611,100.838,0.98663
303.732,35.97469,0.34858,100.838,0.98628
304.332,36.03205,0.34733,100.827,0.98592
304.932,36.08965,0.34791,100.821,0.98556
305.532,36.1472,0.34574,100.821,0.9852
306.132,36.20478,0.3475,100.819,0.98484
306.732,36.26256,0.34771,100.843,0.98448
307.332,36.31987,0.35288,100.799,0.98412
307.932,36.3775,0.35144,100.766,0.98376
308.532,36.43515,0.35047,100.7664,0.9834
309.132,36.49283,0.35206,100.766,0.98304
309.732,36.55041,0.35151,100.765,0.98267
310.332,36.60784,0.35367,100.765,0.98231
310.932,36.66538,0.35061,100.765,0.98194
311.532,36.7228,0.35121,100.774,0.98158
312.132,36.78052,0.35209,100.791,0.98121
312.732,36.8382,0.35134,100.775,0.98085
313.332,36.89574,0.35099,100.732,0.98048
313.932,36.95329,0.35248,100.732,0.98011
314.532,37.01078,0.35242,100.732,0.97975
315.132,37.0683,0.35153,100.732,0.97938
315.732,37.12596,0.35369,100.732,0.97901
316.332,37.18353,0.35322,100.732,0.97864
316.932,37.24111,0.3532,100.732,0.97827
317.532,37.29875,0.35139,100.732,0.9779
318.132,37.35633,0.35409,100.696,0.97753
318.732,37.41389,0.35316,100.717,0.97715
319.332,37.47152,0.35124,100.715,0.97678
319.932,37.52916,0.35281,100.715,0.97641
320.532,37.5867,0.35269,100.704,0.97604
321.132,37.64434,0.35233,100.682,0.97566
321.732,37.7019,0.35187,100.682,0.97529
322.332,37.7594,0.35418,100.6736,0.97491
322.932,37.8171,0.35286,100.6736,0.97453
323.532,37.87472,0.35345,100.6736,0.97416
324.132,37.93243,0.35285,100.6736,0.97378
324.732,37.9902,0.3544,100.6736,0.9734
325.332,38.04785,0.3548,100.65,0.97303
325.932,38.10561,0.35554,100.649,0.97265
326.532,38.16348,0.35541,100.685,0.97227
327.132,38.22137,0.35453,100.67,0.97189
327.732,38.27924,0.35617,100.596,0.97151
328.332,38.33703,0.35664,100.655,0.97113
328.932,38.3947,0.35739,100.628,0.97074
329.532,38.45234,0.35566,100.593,0.97036
330.132,38.50993,0.35868,100.56,0.96998
330.732,38.56765,0.35543,100.534,0.9696
331.332,38.62552,0.35568,100.535,0.96921
331.932,38.68326,0.35829,100.54,0.96883
332.532,38.74093,0.35977,100.568,0.96844
333.132,38.79855,0.35963,100.568,0.96806
333.732,38.85614,0.35832,100.577,0.96767
334.332,38.91385,0.35955,100.567,0.96728
334.932,38.97136,0.36101,100.541,0.9669
335.532,39.02899,0.36204,100.543,0.96651
336.132,39.08659,0.36372,100.543,0.96612
336.732,39.14434,0.36197,100.543,0.96573
337.332,39.20191,0.36272,100.543,0.96534
337.932,39.25976,0.36188,100.5429,0.96495
338.532,39.31765,0.36394,100.518,0.96456
339.132,39.3757,0.3625,100.52,0.96417
339.732,39.43329,0.36406,100.476,0.96378
340.332,39.49085,0.36406,100.488,0.96339
340.932,39.54854,0.36275,100.485,0.96299
341.532,39.60652,0.36486,100.485,0.9626
342.132,39.6644,0.36511,100.4845,0.96221
342.732,39.72234,0.36428,100.476,0.96181
343.332,39.78021,0.36469,100.468,0.96142
343.932,39.83773,0.36767,100.468,0.96102
344.532,39.89548,0.36688,100.435,0.96062
345.132,39.95335,0.3691,100.434,0.96023
345.732,40.01115,0.36631,100.434,0.95983
346.332,40.06923,0.36873,100.426,0.95943
346.932,40.1272,0.36958,100.426,0.95903
347.532,40.1851,0.36847,100.426,0.95864
348.132,40.2428,0.36994,100.4259,0.95824
348.732,40.3007,0.36931,100.398,0.95784
349.332,40.35864,0.37015,100.393,0.95744
349.932,40.4166,0.37481,100.388,0.95704
350.532,40.47463,0.37334,100.368,0.95663
351.132,40.53257,0.37608,100.401,0.95623
351.732,40.59059,0.37359,100.4,0.95583
352.332,40.64873,0.37687,100.359,0.95543
352.932,40.70694,0.37587,100.326,0.95502
353.532,40.765,0.37625,100.326,0.95462
354.132,40.82308,0.37805,100.326,0.95421
354.732,40.8812,0.37754,100.297,0.95381
355.332,40.93939,0.37878,100.292,0.9534
355.932,40.99758,0.37859,100.292,0.953
356.532,41.05578,0.37926,100.292,0.95259
357.132,41.11397,0.38184,100.226,0.95218
357.732,41.1723,0.38356,100.225,0.95178
358.332,41.2303,0.38385,100.225,0.95137
358.932,41.28848,0.38659,100.192,0.95096
359.532,41.34662,0.38633,100.192,0.95055
360.132,41.40487,0.38836,100.192,0.95014
360.732,41.46321,0.38966,100.191,0.94973
361.332,41.52149,0.39083,100.159,0.94932
361.932,41.5798,0.39484,100.159,0.94891
362.532,41.63812,0.39383,100.193,0.9485
363.132,41.69635,0.39554,100.158,0.94808
363.732,41.7547,0.39525,100.142,0.94767
364.332,41.81296,0.39548,100.134,0.94726
364.932,41.87109,0.39538,100.088,0.94684
365.532,41.9292,0.39611,100.053,0.94643
366.132,41.98721,0.39877,100.018,0.94601
366.732,42.04533,0.40125,99.9751,0.9456
367.332,42.1036,0.4025,100.0072,0.94518
367.932,42.16171,0.40316,99.97163,0.94477
368.532,42.21998,0.40461,99.94965,0.94435
369.132,42.27809,0.40528,99.91651,0.94393
369.732,42.33648,0.4062,99.91666,0.94351
370.332,42.39476,0.40791,99.88305,0.94309
370.932,42.45297,0.40762,99.84944,0.94268
371.532,42.51147,0.41004,99.8854,0.94226
372.132,42.56981,0.41272,99.84989,0.94184
372.732,42.62833,0.41482,99.81594,0.94142
373.332,42.6869,0.41895,99.74837,0.94099
373.932,42.74532,0.41741,99.7116,0.94057
374.532,42.8035,0.42047,99.67956,0.94015
375.132,42.86189,0.41986,99.64609,0.93973
375.732,42.92035,0.42442,99.61397,0.93931
376.332,42.97882,0.42385,99.54613,0.93888
376.932,43.03735,0.42905,99.51479,0.93846
377.532,43.09576,0.43013,99.50885,0.93803
378.132,43.1543,0.4302,99.44619,0.93761
378.732,43.21268,0.43241,99.4104,0.93718
379.332,43.27111,0.43287,99.34348,0.93676
379.932,43.32949,0.43511,99.26252,0.93633
380.532,43.38787,0.43896,99.19109,0.9359
381.132,43.44637,0.44205,99.1583,0.93548
381.732,43.50483,0.44304,99.09844,0.93505
382.332,43.56323,0.44611,99.07052,0.93462
382.932,43.6216,0.4472,99.02153,0.93419
383.532,43.67977,0.44753,98.8988,0.93376
384.132,43.73786,0.45435,98.84682,0.93333
384.732,43.79589,0.45941,98.7855,0.9329
385.332,43.85395,0.46272,98.6447,0.93247
385.932,43.91219,0.4664,98.5822,0.93204
386.532,43.9704,0.46407,98.5097,0.93161
387.132,44.02852,0.47093,98.44279,0.93118
387.732,44.08662,0.47126,98.34541,0.93074
388.332,44.14479,0.47292,98.2319,0.93031
388.932,44.2029,0.47815,98.1117,0.92988
389.532,44.26115,0.48009,98.00241,0.92944
390.132,44.31944,0.48333,97.92002,0.92901
390.732,44.3776,0.48692,97.77589,0.92857
391.332,44.4359,0.48967,97.68364,0.92814
391.932,44.4942,0.4926,97.5564,0.9277
392.532,44.55249,0.49432,97.41657,0.92727
393.132,44.61088,0.49865,97.33865,0.92683
393.732,44.66932,0.5019,97.18202,0.92639
394.332,44.7277,0.50393,97.04909,0.92595
394.932,44.78607,0.50915,96.84875,0.92552
395.532,44.8444,0.50981,96.66825,0.92508
396.132,44.9028,0.51545,96.50452,0.92464
396.732,44.96125,0.51991,96.33958,0.9242
397.332,45.01954,0.52491,96.1541,0.92376
397.932,45.0781,0.52677,95.94445,0.92332
398.532,45.13647,0.53077,95.77145,0.92288
399.132,45.195,0.53021,95.56375,0.92243
399.732,45.25315,0.53331,95.37733,0.92199
400.332,45.31143,0.53928,95.1614,0.92155
400.932,45.36991,0.54497,94.90857,0.92111
401.532,45.4283,0.55146,94.66794,0.92066
402.132,45.487,0.55844,94.39143,0.92022
402.732,45.54545,0.56737,94.1632,0.91978
403.332,45.6039,0.5695,93.93743,0.91933
403.932,45.6623,0.57071,93.6818,0.91889
404.532,45.7207,0.57418,93.39593,0.91844
405.132,45.77901,0.57609,93.07725,0.918
405.732,45.8375,0.576,92.74738,0.91755
406.332,45.89604,0.57965,92.47846,0.9171
406.932,45.9546,0.5841,92.19495,0.91665
407.532,46.0129,0.58952,91.875,0.91621
408.132,46.07123,0.59972,91.52005,0.91576
408.732,46.1298,0.60958,91.14345,0.91531
409.332,46.18848,0.62224,90.74835,0.91486
409.932,46.247,0.62786,90.33497,0.91441
410.532,46.30574,0.63478,89.98309,0.91396
411.132,46.36417,0.64212,89.54605,0.91351
411.732,46.4227,0.64757,89.13969,0.91306
412.332,46.48134,0.65066,88.65576,0.91261
412.932,46.54,0.6573,88.2239,0.91216
413.532,46.5986,0.66215,87.7585,0.9117
414.132,46.6572,0.66584,87.28594,0.91125
414.732,46.7157,0.67847,86.77525,0.9108
415.332,46.77413,0.69145,86.23258,0.91035
415.932,46.83254,0.70635,85.65858,0.90989
416.532,46.89118,0.71674,85.15419,0.90944
417.132,46.9499,0.72935,84.56828,0.90898
417.732,47.0083,0.74289,83.95267,0.90853
418.332,47.06691,0.75278,83.328,0.90807
418.932,47.12578,0.77284,82.62916,0.90762
419.532,47.18453,0.78604,81.93127,0.90716
420.132,47.24373,0.7961,81.19474,0.9067
420.732,47.30258,0.79706,80.48389,0.90625
421.332,47.36124,0.80254,79.70447,0.90579
421.932,47.41993,0.81621,78.97377,0.90533
422.532,47.4789,0.81834,78.14453,0.90487
423.132,47.53783,0.8249,77.3736,0.90441
423.732,47.59715,0.83174,76.49215,0.90395
424.332,47.65615,0.83876,75.64868,0.90349
424.932,47.7151,0.83892,74.71611,0.90303
425.532,47.77384,0.84613,73.8523,0.90257
426.132,47.83287,0.8452,72.94944,0.90211
426.732,47.89167,0.85096,72.04186,0.90165
427.332,47.9505,0.85049,71.0655,0.90119
427.932,48.00949,0.85356,70.08256,0.90073
428.532,48.06831,0.85297,69.10078,0.90026
429.132,48.1267,0.85637,68.09821,0.8998
429.732,48.18547,0.85864,67.08368,0.89934
430.332,48.244,0.86388,66.0779,0.89887
430.932,48.30281,0.86808,65.04186,0.89841
431.532,48.36159,0.87152,63.9518,0.89794
432.132,48.42021,0.87672,62.8577,0.89748
432.732,48.47892,0.88378,61.7317,0.89701
433.332,48.53764,0.88534,60.69738,0.89655
433.932,48.59623,0.88355,59.5423,0.89608
434.532,48.65484,0.88513,58.4481,0.89561
435.132,48.7134,0.88435,57.29889,0.89515
435.732,48.77196,0.88106,56.2143,0.89468
436.332,48.8305,0.88063,55.0525,0.89421
436.932,48.8891,0.87594,53.914,0.89374
437.532,48.94764,0.87036,52.7896,0.89327
438.132,49.00629,0.86385,51.64995,0.89281
438.732,49.06488,0.85534,50.51732,0.89234
439.332,49.12358,0.84882,49.36483,0.89187
439.932,49.18222,0.83752,48.3144,0.8914
440.532,49.24086,0.82932,47.22372,0.89093
441.132,49.29963,0.81596,46.1815,0.89045
441.732,49.35817,0.80172,45.08766,0.88998
442.332,49.41701,0.78839,44.0608,0.88951
442.932,49.476,0.77279,42.9718,0.88904
443.532,49.53504,0.75762,42.0092,0.88857
444.132,49.5942,0.74116,41.00278,0.88809
444.732,49.65298,0.7253,40.1025,0.88762
445.332,49.7117,0.70625,39.17066,0.88715
445.932,49.77057,0.68956,38.3059,0.88667
446.532,49.8296,0.67025,37.4938,0.8862
447.132,49.88858,0.65114,36.66977,0.88572
447.732,49.94749,0.62967,35.8932,0.88525
448.332,50.00638,0.61116,35.1797,0.88477
448.932,50.06538,0.58902,34.5456,0.8843
449.532,50.12438,0.5675,33.89125,0.88382
450.132,50.18325,0.54875,33.31301,0.88334
450.732,50.2421,0.52997,32.7101,0.88286
451.332,50.30085,0.51046,32.18378,0.88239
451.932,50.35982,0.49255,31.6859,0.88191
452.532,50.41872,0.47365,31.2379,0.88143
453.132,50.47757,0.45706,30.7615,0.88095
453.732,50.53648,0.44123,30.39378,0.88047
454.332,50.59539,0.42674,30.01605,0.87999
454.932,50.6544,0.41167,29.65588,0.87951
455.532,50.7134,0.39891,29.3046,0.87903
456.132,50.77245,0.38754,28.99287,0.87855
456.732,50.8314,0.37642,28.67073,0.87807
457.332,50.89026,0.36664,28.32883,0.87759
457.932,50.94913,0.35435,28.0778,0.87711
458.532,51.0077,0.34367,27.83976,0.87663
459.132,51.06603,0.3354,27.59263,0.87615
459.732,51.12487,0.32722,27.3713,0.87566
460.332,51.18365,0.31593,27.12345,0.87518
460.932,51.2432,0.30933,26.94332,0.8747
461.532,51.30212,0.30135,26.7486,0.87421
462.132,51.3611,0.29253,26.5717,0.87373
462.732,51.42002,0.28411,26.40563,0.87324
463.332,51.47918,0.27401,26.2431,0.87276
463.932,51.53781,0.26719,26.05247,0.87228
464.532,51.5966,0.25455,25.8912,0.87179
465.132,51.6556,0.24717,25.73301,0.8713
465.732,51.71445,0.2391,25.57452,0.87082
466.332,51.77412,0.23095,25.45964,0.87033
466.932,51.83324,0.22555,25.31399,0.86984
467.532,51.8924,0.21544,25.1972,0.86936
468.132,51.95152,0.20612,25.0649,0.86887
468.732,52.01055,0.19738,24.95083,0.86838
469.332,52.06951,0.18967,24.8447,0.86789
469.932,52.12853,0.18373,24.73017,0.8674
470.532,52.18741,0.1746,24.63843,0.86692
471.132,52.24655,0.16615,24.52313,0.86643
471.732,52.30547,0.15952,24.43121,0.86594
472.332,52.36432,0.15203,24.35044,0.86545
472.932,52.42335,0.1454,24.23883,0.86496
473.532,52.48245,0.13781,24.18232,0.86447
474.132,52.5415,0.13199,24.07696,0.86398
474.732,52.60057,0.12595,24.00369,0.86348
475.332,52.6598,0.12457,23.91721,0.86299
475.932,52.71891,0.11608,23.8686,0.8625
476.532,52.7783,0.10856,23.82089,0.86201
477.132,52.8374,0.1033,23.78267,0.86152
477.732,52.8966,0.09811408,23.71709,0.86102
478.332,52.9559,0.09800458,23.63138,0.86053
478.932,53.01546,0.08897045,23.55375,0.86004
479.532,53.07505,0.08343799,23.5202,0.85954
480.132,53.1345,0.08065066,23.46121,0.85905
480.732,53.1938,0.07389326,23.40746,0.85855
481.332,53.2531,0.07056682,23.3408,0.85806
481.932,53.31253,0.06739615,23.30507,0.85756
482.532,53.3719,0.06602317,23.22887,0.85707
483.132,53.43156,0.06107206,23.16405,0.85657
483.732,53.49119,0.05911771,23.1313,0.85608
484.332,53.55079,0.05713248,23.08,0.85558
484.932,53.61031,0.06141064,23.053,0.85508
485.532,53.6697,0.06474909,23.0296,0.85458
486.132,53.72894,0.07203289,23.00589,0.85409
486.732,53.78839,0.07687606,22.96323,0.85359
487.332,53.84777,0.07868469,22.9166,0.85309
487.932,53.9073,0.08183042,22.89196,0.85259
488.532,53.9667,0.08468675,22.85931,0.85209
489.132,54.02601,0.08451089,22.81309,0.85159
489.732,54.08529,0.08042554,22.76623,0.8511
490.332,54.14461,0.07933426,22.72774,0.8506
490.932,54.204,0.078041,22.72561,0.8501
491.532,54.2635,0.08233668,22.6934,0.8496
492.132,54.323,0.08047467,22.69344,0.8491
492.732,54.38228,0.07970238,22.65994,0.84859
493.332,54.4415,0.07867289,22.62709,0.84809
493.932,54.5005,0.08267376,22.59375,0.84759
494.532,54.55959,0.08393225,22.5598,0.84709
495.132,54.61886,0.08688817,22.51059,0.84659
495.732,54.6782,0.08408528,22.48661,0.84609
496.332,54.7375,0.08553315,22.48731,0.84558
496.932,54.79684,0.08815663,22.45399,0.84508
497.532,54.85615,0.08787854,22.41995,0.84458
498.132,54.91555,0.08680238,22.35364,0.84407
498.732,54.9749,0.08578681,22.38731,0.84357
499.332,55.0342,0.08353561,22.3573,0.84306
499.932,55.0934,0.08069776,22.32345,0.84256
500.532,55.1527,0.07872436,22.26491,0.84206
501.132,55.21212,0.07736412,22.26497,0.84155
501.732,55.2714,0.07738398,22.26605,0.84105
502.332,55.33065,0.07266506,22.2315,0.84054
502.932,55.38981,0.07231375,22.19845,0.84003
503.532,55.44899,0.07449428,22.16455,0.83953
504.132,55.50835,0.07109429,22.16499,0.83902
504.732,55.56766,0.07117303,22.13286,0.83851
505.332,55.6269,0.06958722,22.09827,0.83801
505.932,55.68615,0.07362643,22.13365,0.8375
506.532,55.7453,0.07008824,22.09785,0.83699
507.132,55.80464,0.06883116,22.05783,0.83648
507.732,55.86381,0.06692811,22.01295,0.83598
508.332,55.92329,0.06757176,22.0142,0.83547
508.932,55.98264,0.06888228,22.01418,0.83496
509.532,56.04226,0.06258847,21.9805,0.83445
510.132,56.1018,0.06315703,21.98037,0.83394
510.732,56.16095,0.06341841,21.94729,0.83343
511.332,56.2202,0.06109036,21.92023,0.83292
511.932,56.2795,0.06282279,21.8975,0.83241
512.532,56.33899,0.06262157,21.89712,0.8319
513.132,56.3987,0.06450614,21.89721,0.83139
513.732,56.4583,0.06200326,21.87432,0.83088
514.332,56.5177,0.05773133,21.86564,0.83037
514.932,56.5773,0.06017526,21.7972,0.82986
515.532,56.6366,0.06034532,21.76303,0.82934
516.132,56.69628,0.05820078,21.7697,0.82883
516.732,56.75597,0.05921378,21.76371,0.82832
517.332,56.8156,0.05601832,21.76371,0.82781
517.932,56.8754,0.05859734,21.76371,0.82729
518.532,56.935,0.05883607,21.73541,0.82678
519.132,56.9948,0.05935981,21.73039,0.82627
519.732,57.0547,0.05670236,21.6643,0.82575
520.332,57.11465,0.0578484,21.63039,0.82524
520.932,57.17462,0.06040957,21.6635,0.82473
521.532,57.2344,0.05753325,21.66345,0.82421
522.132,57.29419,0.05998394,21.66173,0.8237
522.732,57.35396,0.05838138,21.59652,0.82318
523.332,57.41366,0.05782455,21.60241,0.82267
523.932,57.47345,0.0576767,21.59897,0.82215
524.532,57.53315,0.05790761,21.5967,0.82164
525.132,57.5929,0.05634071,21.59666,0.82112
525.732,57.65269,0.05616647,21.563,0.8206
526.332,57.71249,0.05353544,21.53963,0.82009
526.932,57.77219,0.05440447,21.52995,0.81957
527.532,57.83204,0.05445928,21.52995,0.81905
528.132,57.8918,0.05397765,21.52995,0.81854
528.732,57.9517,0.05580606,21.52995,0.81802
529.332,58.01141,0.05404658,21.52757,0.8175
529.932,58.07094,0.05406444,21.4969,0.81698
530.532,58.13061,0.05807315,21.46296,0.81647
531.132,58.19022,0.05652035,21.46294,0.81595
531.732,58.24952,0.05441132,21.46293,0.81543
532.332,58.30905,0.05488129,21.46329,0.81491
532.932,58.3685,0.05497463,21.46321,0.81439
533.532,58.4282,0.05583891,21.40555,0.81387
534.132,58.4879,0.05447297,21.40457,0.81335
534.732,58.5474,0.05493316,21.40457,0.81283
535.332,58.6071,0.05406792,21.40457,0.81231
535.932,58.66665,0.05230254,21.39307,0.81179
536.532,58.7266,0.05406392,21.37106,0.81127
537.132,58.78624,0.05274634,21.37107,0.81075
537.732,58.8459,0.05345917,21.3723,0.81023
538.332,58.9056,0.05205021,21.33784,0.80971
538.932,58.9651,0.05321146,21.32939,0.80919
539.532,59.02479,0.05057537,21.30431,0.80866
540.132,59.0845,0.0518763,21.3043,0.80814
540.732,59.14434,0.05076517,21.29616,0.80762
541.332,59.20411,0.05058524,21.2961,0.8071
541.932,59.2642,0.0514338,21.27094,0.80658
542.532,59.32422,0.0504821,21.29552,0.80605
543.132,59.38409,0.04976601,21.29466,0.80553
543.732,59.44387,0.05164922,21.22952,0.80501
544.332,59.50345,0.04834031,21.22919,0.80448
544.932,59.5631,0.05090656,21.2292,0.80396
545.532,59.62299,0.04632273,21.1983,0.80344
546.132,59.6827,0.04883386,21.19653,0.80291
546.732,59.74244,0.05115414,21.2292,0.80239
547.332,59.8022,0.05026048,21.22919,0.80186
547.932,59.86201,0.04959976,21.21791,0.80134
548.532,59.92176,0.05044627,21.19877,0.80081
549.132,59.9815,0.04822956,21.16238,0.80029
549.732,60.0412,0.05045819,21.13756,0.79976
550.332,60.10103,0.0497699,21.1708,0.79924
550.932,60.16085,0.04851216,21.17081,0.79871
551.532,60.22061,0.04889861,21.16987,0.79818
552.132,60.2804,0.05060317,21.143,0.79766
552.732,60.34016,0.04847707,21.12894,0.79713
553.332,60.3998,0.04914698,21.1625,0.7966
553.932,60.4596,0.05165185,21.16239,0.79608
554.532,60.51939,0.04897729,21.12891,0.79555
555.132,60.5791,0.04896576,21.09569,0.79502
555.732,60.63909,0.04948369,21.06229,0.79449
556.332,60.6991,0.04902121,21.05386,0.79397
556.932,60.75904,0.05027361,21.0538,0.79344
557.532,60.81893,0.04566672,21.0538,0.79291
558.132,60.87868,0.04695111,21.01826,0.79238
558.732,60.93845,0.04581348,20.99426,0.79185
559.332,60.99833,0.04833435,21.0164,0.79133
559.932,61.0583,0.04685693,21.01776,0.7908
560.532,61.1183,0.04719362,21.0029,0.79027
561.132,61.17833,0.04127466,20.98426,0.78974
561.732,61.23819,0.04616585,20.98426,0.78921
562.332,61.2983,0.04305636,20.9843,0.78868
562.932,61.35816,0.04290283,20.95935,0.78815
563.532,61.418,0.04139133,20.95101,0.78762
564.132,61.47798,0.04048568,20.95101,0.78709
564.732,61.538,0.0432032,20.9524,0.78656
565.332,61.5983,0.04163858,20.91751,0.78603
565.932,61.6587,0.04044163,20.9175,0.7855
566.532,61.7188,0.03657296,20.88441,0.78496
567.132,61.779,0.04075417,20.965,0.78443
567.732,61.83915,0.04051398,20.8731,0.7839
568.332,61.8994,0.04098936,20.83959,0.78337
568.932,61.9596,0.04065233,20.83959,0.78284
569.532,62.0197,0.03900745,20.83959,0.78231
570.132,62.0799,0.03822151,20.8572,0.78177
570.732,62.1402,0.04061368,20.86356,0.78124
571.332,62.20032,0.04017811,20.83128,0.78071
571.932,62.2604,0.007940116,20.8061,0.78018
572.532,62.3206,0.02232948,20.80516,0.77964
573.132,62.38058,0.02855119,20.79785,0.77911
573.732,62.44061,0.03162927,20.731,0.77858
574.332,62.5006,0.03178632,20.731,0.77804
574.932,62.56046,0.03803682,20.731,0.77751
575.532,62.6204,0.03709574,20.731,0.77698
576.132,62.68042,0.03685578,20.70372,0.77644
576.732,62.74049,0.03945157,20.6782,0.77591
577.332,62.8004,0.03546439,20.69143,0.77537
577.932,62.86039,0.03804379,20.67259,0.77484
578.532,62.9203,0.03457164,20.68988,0.7743
579.132,62.98041,0.03768712,20.68913,0.77377
579.732,63.0404,0.03543386,20.65587,0.77323
580.332,63.10035,0.03625045,20.6558,0.7727
580.932,63.16041,0.03628261,20.63993,0.77216
581.532,63.2202,0.03881737,20.60559,0.77163
582.132,63.2803,0.03358168,20.60506,0.77109
582.732,63.34029,0.03681811,20.63721,0.77056
583.332,63.4001,0.03673197,20.56866,0.77002
583.932,63.45994,0.03330517,20.56929,0.76949
584.532,63.5198,0.03369389,20.5515,0.76895
585.132,63.57975,0.0361144,20.53604,0.76841
585.732,63.63983,0.03441918,20.53604,0.76788
586.332,63.69975,0.03422922,20.53604,0.76734
586.932,63.7598,0.03464665,20.5355,0.7668
587.532,63.8198,0.03511639,20.53647,0.76627
588.132,63.87985,0.03720619,20.53606,0.76573
588.732,63.93999,0.0353777,20.50281,0.76519
589.332,64.00007,0.03506201,20.48402,0.76465
589.932,64.06022,0.03382415,20.4358,0.76412
590.532,64.12025,0.03587364,20.4691,0.76358
591.132,64.18047,0.03525705,20.43429,0.76304
591.732,64.24051,0.03424993,20.4162,0.7625
592.332,64.30065,0.03305227,20.43016,0.76196
592.932,64.36085,0.02939304,20.4356,0.76142
593.532,64.4209,0.03041789,20.40253,0.76089
594.132,64.48116,0.02983935,20.40241,0.76035
594.732,64.54131,0.02589382,20.3442,0.75981
595.332,64.60128,0.02619845,20.34391,0.75927
595.932,64.6615,0.02807209,20.3441,0.75873
596.532,64.72168,0.02160399,20.3787,0.75819
597.132,64.78189,0.02321088,20.34391,0.75765
597.732,64.8423,0.02336105,20.34391,0.75711
598.332,64.90263,0.02149454,20.34481,0.75657
598.932,64.96295,0.02026726,20.31069,0.75603
599.532,65.02303,0.02462735,20.31051,0.75549
600.132,65.08317,0.02104073,20.33718,0.75495
600.732,65.1433,0.02359498,20.3022,0.75441
601.332,65.20368,0.02262727,20.302,0.75387
601.932,65.26406,0.0210133,20.27052,0.75333
602.532,65.32445,0.02378562,20.26869,0.75279
603.132,65.38485,0.02252645,20.2017,0.75225
603.732,65.44513,0.02198649,20.20203,0.75171
604.332,65.50538,0.01977303,20.2044,0.75117
604.932,65.56571,0.02149225,20.23808,0.75063
605.532,65.626,0.01958459,20.2262,0.75009
606.132,65.6863,0.01822578,20.22305,0.74954
606.732,65.74659,0.01663875,20.20456,0.749
607.332,65.807,0.01785683,20.18504,0.74846
607.932,65.86707,0.02115124,20.17132,0.74792
608.532,65.92739,0.02040443,20.17846,0.74738
609.132,65.9877,0.01841828,20.14614,0.74683
609.732,66.0479,0.01746835,20.1462,0.74629
610.332,66.1084,0.01885346,20.13757,0.74575
610.932,66.16852,0.01687433,20.13782,0.74521
611.532,66.2286,0.01787678,20.13782,0.74467
612.132,66.28877,0.01585154,20.12189,0.74412
612.732,66.349,0.01408826,20.07106,0.74358
613.332,66.40913,0.01355171,20.0711,0.74304
613.932,66.46948,0.0123289,20.0711,0.74249
614.532,66.52951,0.0138664,20.0711,0.74195
615.132,66.58968,0.01167259,20.03855,0.74141
615.732,66.6499,0.0119034,20.0711,0.74086
616.332,66.71029,0.01551511,20.03816,0.74032
616.932,66.7706,0.01365893,20.03782,0.73978
617.532,66.83105,0.01221485,20.02488,0.73923
618.132,66.8913,0.01462146,19.9783,0.73869
618.732,66.9517,0.009964661,20.00347,0.73815
619.332,67.01177,0.01226103,20.00432,0.7376
619.932,67.07218,0.01166226,20.00512,0.73706
620.532,67.13257,0.01142455,19.97084,0.73651
621.132,67.19292,0.00957695,19.97082,0.73597
621.732,67.25347,0.01016651,19.94556,0.73542
622.332,67.31374,0.01019757,19.93757,0.73488
622.932,67.37402,0.01024081,19.93724,0.73434
623.532,67.43424,0.0127338,19.90164,0.73379
624.132,67.49461,0.01167828,19.93756,0.73325
624.732,67.55511,0.01224625,19.9377,0.7327
625.332,67.61544,0.0120239,19.90409,0.73216
625.932,67.6758,0.01173265,19.90406,0.73161
626.532,67.73604,0.01390485,19.90415,0.73107
627.132,67.79624,0.0135828,19.87102,0.73052
627.732,67.85656,0.01381597,19.87036,0.72998
628.332,67.91679,0.01479054,19.8194,0.72943
628.932,67.977,0.01425561,19.82054,0.72888
629.532,68.03671,0.01584021,19.8165,0.72834
630.132,68.09697,0.0160252,19.83746,0.72779
630.732,68.1571,0.01491855,19.86161,0.72725
631.332,68.21764,0.01385986,19.82891,0.7267
631.932,68.2779,0.01475701,19.82893,0.72615
632.532,68.33792,0.01691843,19.7714,0.72561
633.132,68.39829,0.01559186,19.77056,0.72506
633.732,68.45863,0.01694971,19.77056,0.72452
634.332,68.51879,0.01643599,19.77055,0.72397
634.932,68.579,0.01742902,19.80379,0.72342
635.532,68.6391,0.01847993,19.8038,0.72288
636.132,68.69923,0.01504122,19.77046,0.72233
636.732,68.7594,0.01773799,19.7702,0.72178
637.332,68.8193,0.01662158,19.76194,0.72124
637.932,68.87934,0.01639277,19.70382,0.72069
638.532,68.93945,0.01781784,19.70374,0.72014
639.132,68.9995,0.01775749,19.73706,0.7196
639.732,69.05978,0.02258753,19.7037,0.71905
640.332,69.1198,0.02235236,19.70355,0.7185
640.932,69.1799,0.0232061,19.70355,0.71795
641.532,69.24002,0.02184807,19.70445,0.71741
642.132,69.30027,0.02450919,19.72869,0.71686
642.732,69.36068,0.02394007,19.70082,0.71631
643.332,69.42102,0.02054711,19.7038,0.71576
643.932,69.4812,0.02184634,19.70381,0.71522
644.532,69.5415,0.02291106,19.67462,0.71467
645.132,69.60173,0.02141047,19.67031,0.71412
645.732,69.66216,0.023888,19.65354,0.71357
646.332,69.72265,0.02248947,19.60848,0.71303
646.932,69.783,0.02179938,19.60889,0.71248
647.532,69.84337,0.02173983,19.60889,0.71193
648.132,69.90366,0.0212816,19.62921,0.71138
648.732,69.96424,0.0225655,19.64238,0.71083
649.332,70.02496,0.02215394,19.6436,0.71028
649.932,70.08576,0.02241705,19.66999,0.70974
650.532,70.14647,0.02392319,19.63443,0.70919
651.132,70.20708,0.02275214,19.60078,0.70864
651.732,70.26785,0.02427179,19.60076,0.70809
652.332,70.32845,0.02286331,19.60125,0.70754
652.932,70.38906,0.02354485,19.6006,0.70699
653.532,70.44973,0.024677,19.60076,0.70645
654.132,70.5104,0.02377403,19.60076,0.7059
654.732,70.571,0.02177333,19.60076,0.70535
655.332,70.63165,0.02303673,19.59592,0.7048
655.932,70.6922,0.02205422,19.53379,0.70425
656.532,70.75284,0.02379948,19.5666,0.7037
657.132,70.81331,0.02289391,19.56655,0.70315
657.732,70.8738,0.02455619,19.57538,0.7026
658.332,70.9343,0.02387881,19.57538,0.70205
658.932,70.99485,0.02255381,19.54019,0.7015
659.532,71.05535,0.02246084,19.51734,0.70096
660.132,71.11586,0.02489436,19.4821,0.70041
660.732,71.17652,0.02274403,19.5077,0.69986
661.332,71.23698,0.02545924,19.50883,0.69931
661.932,71.29731,0.02216094,19.51802,0.69876
662.532,71.35755,0.02067911,19.48377,0.69821
663.132,71.4178,0.0287949,19.4821,0.69766
663.732,71.47814,0.02345523,19.5505,0.69711
664.332,71.53842,0.02403705,19.55051,0.69656
664.932,71.59883,0.02614583,19.52611,0.69601
665.532,71.65908,0.02170585,19.51726,0.69546
666.132,71.71901,0.01865777,19.51727,0.69491
666.732,71.7791,0.01757084,19.481,0.69436
667.332,71.83918,0.01785907,19.44745,0.69381
667.932,71.89922,0.01844725,19.45595,0.69326
668.532,71.95989,0.01882793,19.48096,0.69271
669.132,72.0201,0.01721143,19.4468,0.69216
669.732,72.08046,0.01705032,19.44746,0.69161
670.332,72.14058,0.01525801,19.44746,0.69106
670.932,72.2008,0.01587565,19.44746,0.69051
671.532,72.2611,0.01461062,19.44746,0.68996
672.132,72.32149,0.01246102,19.44869,0.68941
672.732,72.3819,0.0153695,19.41442,0.68886
673.332,72.44233,0.01241148,19.41421,0.68831
673.932,72.5029,0.01031473,19.4142,0.68776
674.532,72.5634,0.01387417,19.38083,0.68721
675.132,72.62402,0.01121361,19.4143,0.68666
675.732,72.68486,0.01101883,19.44977,0.68611
676.332,72.74539,0.002628182,19.41408,0.68556
676.932,72.80586,0.006488526,19.41421,0.68501
677.532,72.86626,0.003897533,19.44915,0.68446
678.132,72.9267,0.004988719,19.44356,0.68391
678.732,72.98728,0.003697839,19.41522,0.68336
679.332,73.0478,-0.0005838807,19.38072,0.68281
679.932,73.10803,-0.0023373,19.38071,0.68226
680.532,73.1686,0.00121218,19.38071,0.68171
681.132,73.2291,0.002007723,19.38071,0.68116
681.732,73.28959,-0.0008656083,19.38071,0.68061
682.332,73.3497,-0.001110799,19.34741,0.68006
682.932,73.40981,-0.002555882,19.34746,0.67951
683.532,73.46983,-0.00694541,19.35732,0.67896
684.132,73.53,-0.006870421,19.38071,0.67841
684.732,73.5902,-0.00658209,19.37976,0.67786
685.332,73.65043,-0.008712729,19.34804,0.6773
685.932,73.71067,-0.009801076,19.31396,0.67675
686.532,73.77113,-0.006168112,19.31396,0.6762
687.132,73.83136,-0.009321,19.34111,0.67565
687.732,73.89156,-0.01364916,19.3384,0.6751
688.332,73.95177,-0.0168928,19.31172,0.67455
688.932,74.01183,-0.01900538,19.31396,0.674
689.532,74.07189,-0.01869713,19.31396,0.67345
690.132,74.13201,-0.02011205,19.31396,0.6729
690.732,74.19205,-0.02493887,19.31396,0.67235
691.332,74.2522,-0.02543112,19.31396,0.6718
691.932,74.31234,-0.02192469,19.31396,0.67125
692.532,74.37269,-0.02490804,19.31396,0.6707
693.132,74.4332,-0.02813059,19.27799,0.67015
693.732,74.49343,-0.03076054,19.28045,0.6696
694.332,74.55367,-0.03078879,19.28047,0.66905
694.932,74.61398,-0.03540335,19.24759,0.6685
695.532,74.67433,-0.04088819,19.28271,0.66794
696.132,74.73479,-0.03842168,19.28046,0.66739
696.732,74.79521,-0.04413432,19.28046,0.66684
697.332,74.85569,-0.04496914,19.28045,0.66629
697.932,74.91624,-0.04876239,19.2796,0.66574
698.532,74.97694,-0.05010922,19.2888,0.66519
698.732,74.9972,-0.0508932,19.2888,0.66501