File: 01_Data/Polyester_Bed_Skirt/MCC/Polyester_Bed_Skirt_MCC_30K_min_211208_R1.txt
Sample ID:	C:\MCC\MCC Cal\Test\Polyester_Bed_Skirt_MCC_30K_min_211208_R1.txt
Sample Weight (mg):	4.54
Heating Rate (C/s):	0.5
Combustor Temp (C):	900
N2 Flow Rate (cc/min):	80
O2 Flow Rate (cc/min):	20
Calibration File:	C:\MCC\MCC Cal\Coeff1 JN10440_30_210304.txt.txt
T Correction Coefficients:	0	1.024463	0
Time Shift (s):	14
*
Time (s)	Temperature (C)	N2 flow rate (cc/min)	O2 flow rate (cc/min)	Flow Rate (cc/min)	Oxygen (%)	HRR (W/g)	Heating rate (C/s)
0.000	108.290	80.005	19.997	103.055	20.266	0.336	-0.003
2.000	108.269	80.004	19.995	103.057	20.268	0.233	0.005
4.000	108.265	80.006	19.996	103.057	20.269	0.111	-0.003
6.000	108.279	80.005	19.995	103.081	20.264	0.491	0.020
8.001	108.265	80.007	19.994	103.096	20.259	0.861	-0.012
10.000	108.298	80.007	19.994	103.128	20.261	0.699	0.025
12.000	108.360	80.007	19.995	103.132	20.258	0.943	0.045
14.001	108.415	80.007	19.995	103.129	20.256	1.070	0.028
16.000	108.450	80.007	19.995	103.128	20.255	1.110	0.032
18.000	108.562	80.006	19.995	103.129	20.254	1.188	0.020
20.000	108.624	80.006	19.995	103.153	20.250	1.441	0.031
22.000	108.735	80.003	19.995	103.173	20.250	1.492	0.021
24.000	108.863	80.003	19.996	103.176	20.248	1.637	0.033
26.000	109.000	80.004	19.995	103.173	20.246	1.732	0.082
28.000	109.154	80.004	19.995	103.188	20.239	2.265	0.086
30.000	109.420	80.003	19.996	103.206	20.243	1.964	0.125
32.000	109.609	80.005	19.996	103.203	20.237	2.422	0.083
34.000	109.804	80.005	19.996	103.215	20.235	2.536	0.115
36.000	110.106	80.005	19.995	103.215	20.237	2.379	0.151
38.000	110.349	80.005	19.995	103.214	20.236	2.479	0.150
40.000	110.671	80.005	19.994	103.227	20.235	2.528	0.161
42.000	110.957	80.004	19.993	103.213	20.231	2.791	0.122
44.000	111.307	80.005	19.995	103.236	20.234	2.593	0.191
46.000	111.642	80.004	19.997	103.247	20.233	2.666	0.198
48.000	111.983	80.006	19.994	103.248	20.229	2.970	0.186
50.000	112.387	80.005	19.993	103.250	20.230	2.927	0.209
52.000	112.826	80.005	19.994	103.261	20.224	3.305	0.198
54.000	113.268	80.005	19.996	103.260	20.226	3.180	0.219
56.000	113.722	80.004	19.995	103.282	20.225	3.265	0.210
58.000	114.216	80.006	19.995	103.290	20.221	3.515	0.202
60.000	114.720	80.003	19.994	103.289	20.224	3.317	0.279
62.000	115.245	80.005	19.995	103.291	20.218	3.717	0.269
64.001	115.751	80.005	19.994	103.301	20.216	3.876	0.284
66.000	116.280	80.006	19.995	103.309	20.216	3.885	0.282
68.001	116.889	80.007	19.994	103.319	20.216	3.872	0.288
70.000	117.508	80.005	19.994	103.305	20.217	3.800	0.301
72.000	118.151	80.008	19.995	103.310	20.216	3.870	0.311
74.001	118.794	80.007	19.994	103.306	20.219	3.678	0.318
76.001	119.451	80.006	19.994	103.312	20.217	3.817	0.331
78.000	120.154	80.005	19.993	103.310	20.215	3.942	0.357
80.000	120.812	80.005	19.994	103.322	20.214	4.026	0.336
82.001	121.567	80.005	19.994	103.312	20.216	3.891	0.367
84.000	122.326	80.006	19.993	103.311	20.214	4.067	0.394
86.000	123.024	80.006	19.994	103.308	20.214	4.010	0.386
88.000	123.776	80.007	19.995	103.305	20.216	3.897	0.377
90.000	124.534	80.008	19.994	103.295	20.215	3.963	0.377
92.000	125.306	80.007	19.995	103.301	20.213	4.085	0.400
94.000	126.086	80.008	19.995	103.299	20.215	3.966	0.398
96.000	126.867	80.007	19.994	103.291	20.217	3.843	0.385
98.001	127.686	80.008	19.995	103.305	20.215	3.931	0.411
100.000	128.494	80.007	19.995	103.296	20.219	3.704	0.443
102.001	129.302	80.005	19.993	103.303	20.222	3.480	0.375
104.000	130.133	80.005	19.996	103.319	20.221	3.531	0.408
106.000	130.966	80.006	19.996	103.317	20.219	3.712	0.464
108.000	131.834	80.005	19.995	103.312	20.217	3.802	0.437
110.001	132.678	80.005	19.995	103.315	20.217	3.788	0.435
112.000	133.534	80.004	19.995	103.318	20.218	3.759	0.458
114.000	134.402	80.005	19.996	103.321	20.217	3.812	0.470
116.000	135.325	80.006	19.994	103.327	20.215	3.976	0.441
118.000	136.184	80.005	19.996	103.326	20.215	3.986	0.396
120.001	137.091	80.003	19.994	103.326	20.217	3.803	0.469
122.000	137.992	80.004	19.996	103.326	20.216	3.882	0.456
124.000	138.895	80.004	19.994	103.326	20.216	3.892	0.474
126.000	139.838	80.005	19.994	103.323	20.217	3.788	0.451
128.000	140.751	80.006	19.994	103.325	20.219	3.707	0.458
130.000	141.663	80.005	19.995	103.318	20.218	3.741	0.465
132.000	142.620	80.004	19.994	103.327	20.218	3.760	0.480
134.000	143.593	80.005	19.994	103.323	20.216	3.890	0.486
136.000	144.600	80.004	19.993	103.320	20.215	3.950	0.503
138.000	145.547	80.005	19.994	103.318	20.216	3.856	0.478
140.000	146.504	80.004	19.994	103.317	20.217	3.853	0.489
142.000	147.455	80.006	19.994	103.319	20.218	3.737	0.514
144.000	148.432	80.006	19.995	103.318	20.216	3.858	0.487
146.000	149.451	80.006	19.994	103.320	20.215	3.954	0.490
148.000	150.442	80.006	19.994	103.305	20.219	3.647	0.497
150.000	151.404	80.007	19.994	103.313	20.217	3.837	0.493
152.001	152.421	80.008	19.994	103.320	20.213	4.128	0.513
154.000	153.374	80.007	19.995	103.312	20.214	4.024	0.470
156.000	154.325	80.007	19.993	103.308	20.214	4.013	0.469
158.000	155.329	80.008	19.994	103.311	20.216	3.918	0.470
160.000	156.316	80.006	19.993	103.319	20.214	4.010	0.508
162.000	157.319	80.005	19.994	103.313	20.210	4.314	0.483
164.000	158.340	80.008	19.994	103.308	20.213	4.084	0.480
166.000	159.300	80.008	19.993	103.308	20.211	4.255	0.478
168.000	160.315	80.007	19.993	103.298	20.216	3.902	0.509
170.000	161.313	80.007	19.994	103.300	20.219	3.693	0.506
172.000	162.354	80.009	19.994	103.298	20.218	3.726	0.490
174.000	163.328	80.009	19.994	103.289	20.215	3.951	0.490
176.000	164.351	80.007	19.994	103.286	20.216	3.912	0.503
178.000	165.382	80.008	19.993	103.291	20.216	3.889	0.556
180.000	166.387	80.007	19.995	103.287	20.217	3.798	0.497
182.000	167.441	80.006	19.994	103.287	20.216	3.855	0.528
184.000	168.440	80.007	19.995	103.289	20.219	3.671	0.518
186.000	169.485	80.005	19.995	103.288	20.220	3.616	0.503
188.000	170.472	80.006	19.995	103.285	20.219	3.712	0.508
190.000	171.468	80.005	19.995	103.289	20.218	3.755	0.477
192.000	172.488	80.005	19.994	103.289	20.219	3.687	0.510
194.000	173.531	80.005	19.994	103.288	20.220	3.591	0.514
196.000	174.522	80.006	19.994	103.289	20.218	3.726	0.490
198.000	175.521	80.004	19.995	103.288	20.217	3.790	0.501
200.000	176.538	80.004	19.994	103.288	20.219	3.655	0.518
202.000	177.521	80.005	19.994	103.288	20.220	3.591	0.511
204.000	178.510	80.005	19.994	103.288	20.224	3.330	0.485
206.000	179.504	80.006	19.994	103.288	20.219	3.687	0.484
208.000	180.525	80.006	19.995	103.274	20.218	3.735	0.498
210.000	181.533	80.005	19.995	103.277	20.220	3.640	0.497
212.000	182.529	80.004	19.995	103.281	20.220	3.577	0.521
214.000	183.513	80.005	19.995	103.282	20.219	3.651	0.506
216.000	184.523	80.004	19.995	103.282	20.224	3.353	0.480
218.000	185.542	80.004	19.995	103.280	20.222	3.436	0.537
220.000	186.528	80.005	19.995	103.280	20.221	3.506	0.505
222.000	187.518	80.004	19.993	103.284	20.219	3.677	0.479
224.000	188.510	80.005	19.994	103.281	20.222	3.437	0.489
226.000	189.515	80.005	19.995	103.275	20.223	3.367	0.499
228.000	190.505	80.007	19.995	103.273	20.224	3.331	0.514
230.000	191.526	80.007	19.994	103.271	20.220	3.619	0.527
232.000	192.460	80.008	19.994	103.276	20.220	3.580	0.467
234.000	193.472	80.006	19.995	103.268	20.222	3.429	0.487
236.000	194.413	80.007	19.994	103.272	20.221	3.531	0.494
238.000	195.389	80.008	19.994	103.265	20.218	3.729	0.475
240.000	196.393	80.006	19.994	103.255	20.219	3.704	0.487
242.000	197.384	80.006	19.993	103.256	20.214	4.005	0.497
244.000	198.327	80.005	19.995	103.254	20.221	3.543	0.483
246.000	199.287	80.005	19.995	103.269	20.220	3.614	0.461
248.000	200.287	80.005	19.994	103.264	20.228	3.063	0.485
250.001	201.292	80.008	19.995	103.274	20.222	3.455	0.492
252.000	202.269	80.007	19.994	103.261	20.221	3.514	0.512
254.000	203.218	80.008	19.994	103.267	20.224	3.322	0.511
256.000	204.215	80.008	19.994	103.274	20.226	3.184	0.498
258.000	205.185	80.007	19.994	103.265	20.224	3.313	0.491
260.000	206.232	80.007	19.994	103.261	20.226	3.186	0.490
262.000	207.280	80.005	19.994	103.268	20.223	3.404	0.526
264.000	208.219	80.005	19.993	103.267	20.222	3.439	0.498
266.000	209.214	80.003	19.994	103.260	20.223	3.398	0.498
268.000	210.260	80.005	19.994	103.254	20.224	3.290	0.494
270.000	211.218	80.006	19.996	103.257	20.222	3.429	0.503
272.000	212.188	80.006	19.995	103.252	20.223	3.368	0.495
274.000	213.193	80.006	19.995	103.252	20.223	3.417	0.489
276.000	214.197	80.005	19.994	103.251	20.224	3.288	0.491
278.001	215.190	80.006	19.995	103.249	20.226	3.204	0.497
280.000	216.177	80.005	19.994	103.247	20.227	3.082	0.485
282.000	217.180	80.004	19.994	103.253	20.226	3.207	0.506
284.000	218.151	80.005	19.994	103.248	20.225	3.260	0.476
286.000	219.172	80.004	19.996	103.256	20.223	3.362	0.510
288.000	220.130	80.006	19.995	103.259	20.224	3.323	0.486
290.000	221.107	80.007	19.995	103.247	20.224	3.303	0.478
292.000	222.112	80.006	19.994	103.246	20.226	3.206	0.474
294.000	223.147	80.005	19.994	103.245	20.225	3.276	0.498
296.000	224.105	80.004	19.995	103.245	20.224	3.323	0.494
298.000	225.131	80.004	19.995	103.245	20.226	3.168	0.483
300.000	226.109	80.004	19.995	103.246	20.223	3.427	0.498
302.000	227.130	80.005	19.996	103.247	20.225	3.264	0.536
304.000	228.121	80.004	19.997	103.246	20.222	3.495	0.537
306.000	229.129	80.004	19.995	103.245	20.226	3.194	0.524
308.000	230.151	80.005	19.996	103.246	20.225	3.258	0.532
310.000	231.119	80.006	19.995	103.249	20.220	3.626	0.491
312.000	232.166	80.007	19.994	103.246	20.222	3.437	0.514
314.000	233.158	80.006	19.994	103.247	20.223	3.411	0.464
316.000	234.176	80.007	19.994	103.247	20.221	3.535	0.510
318.000	235.210	80.005	19.994	103.247	20.225	3.233	0.537
320.000	236.200	80.006	19.994	103.242	20.224	3.325	0.533
322.000	237.209	80.005	19.995	103.249	20.220	3.617	0.500
324.000	238.223	80.005	19.994	103.249	20.224	3.313	0.507
326.000	239.187	80.005	19.994	103.249	20.221	3.564	0.464
328.000	240.240	80.006	19.995	103.250	20.223	3.417	0.504
330.000	241.219	80.005	19.995	103.248	20.223	3.382	0.486
332.000	242.226	80.006	19.995	103.249	20.228	3.059	0.505
334.000	243.253	80.006	19.995	103.242	20.223	3.382	0.498
336.000	244.222	80.007	19.993	103.248	20.223	3.409	0.490
338.000	245.259	80.008	19.993	103.245	20.226	3.144	0.495
340.000	246.301	80.007	19.994	103.243	20.229	2.988	0.513
342.000	247.274	80.006	19.994	103.243	20.223	3.421	0.516
344.000	248.319	80.006	19.994	103.244	20.224	3.333	0.504
346.000	249.359	80.005	19.994	103.242	20.226	3.203	0.527
348.000	250.354	80.006	19.994	103.238	20.226	3.182	0.521
350.000	251.360	80.006	19.994	103.233	20.224	3.350	0.503
352.000	252.370	80.006	19.994	103.243	20.225	3.237	0.507
354.000	253.369	80.005	19.994	103.245	20.224	3.317	0.543
356.000	254.337	80.006	19.995	103.243	20.224	3.321	0.511
358.000	255.337	80.007	19.993	103.245	20.223	3.358	0.521
360.000	256.352	80.005	19.994	103.237	20.221	3.562	0.517
362.000	257.336	80.005	19.994	103.234	20.224	3.309	0.509
364.000	258.348	80.006	19.994	103.243	20.222	3.487	0.508
366.000	259.345	80.005	19.994	103.240	20.218	3.720	0.513
368.000	260.282	80.004	19.995	103.232	20.224	3.331	0.484
370.000	261.233	80.003	19.995	103.234	20.225	3.266	0.443
372.000	262.270	80.005	19.995	103.238	20.223	3.375	0.512
374.000	263.248	80.004	19.995	103.231	20.223	3.421	0.515
376.000	264.256	80.005	19.995	103.239	20.226	3.164	0.483
378.000	265.231	80.003	19.995	103.248	20.224	3.348	0.464
380.000	266.236	80.004	19.994	103.239	20.226	3.201	0.508
382.000	267.276	80.005	19.995	103.234	20.227	3.102	0.510
384.000	268.266	80.004	19.995	103.227	20.224	3.297	0.510
386.000	269.280	80.005	19.996	103.245	20.226	3.166	0.500
388.000	270.297	80.005	19.995	103.241	20.223	3.407	0.497
390.000	271.347	80.004	19.995	103.243	20.219	3.706	0.531
392.000	272.334	80.003	19.995	103.242	20.223	3.416	0.529
394.000	273.350	80.006	19.995	103.241	20.224	3.344	0.502
396.000	274.366	80.005	19.997	103.234	20.224	3.297	0.528
398.000	275.363	80.005	19.996	103.240	20.225	3.263	0.482
400.000	276.341	80.006	19.995	103.225	20.223	3.369	0.496
402.000	277.323	80.006	19.995	103.225	20.225	3.256	0.470
404.000	278.320	80.005	19.996	103.226	20.225	3.254	0.485
406.000	279.354	80.006	19.995	103.231	20.224	3.305	0.513
408.000	280.368	80.005	19.995	103.221	20.228	3.025	0.510
410.000	281.344	80.008	19.994	103.219	20.224	3.338	0.500
412.000	282.354	80.007	19.995	103.220	20.226	3.183	0.504
414.000	283.371	80.007	19.993	103.230	20.223	3.381	0.491
416.000	284.359	80.007	19.994	103.215	20.221	3.565	0.512
418.000	285.368	80.007	19.993	103.221	20.220	3.569	0.478
420.000	286.355	80.009	19.994	103.219	20.225	3.238	0.524
422.000	287.362	80.007	19.995	103.225	20.222	3.433	0.515
424.000	288.367	80.006	19.994	103.221	20.226	3.211	0.509
426.000	289.369	80.006	19.995	103.214	20.224	3.336	0.511
428.000	290.375	80.005	19.995	103.233	20.223	3.395	0.514
430.000	291.372	80.005	19.994	103.228	20.222	3.461	0.493
432.000	292.397	80.005	19.994	103.217	20.223	3.420	0.535
434.000	293.401	80.004	19.996	103.215	20.223	3.426	0.510
436.000	294.439	80.005	19.995	103.224	20.221	3.541	0.494
438.000	295.435	80.005	19.994	103.224	20.222	3.465	0.493
440.000	296.449	80.005	19.995	103.221	20.221	3.520	0.513
442.000	297.426	80.003	19.994	103.223	20.224	3.308	0.492
444.000	298.430	80.005	19.994	103.226	20.225	3.230	0.511
446.000	299.434	80.006	19.995	103.216	20.224	3.299	0.538
448.000	300.448	80.005	19.994	103.215	20.223	3.387	0.518
450.000	301.436	80.005	19.994	103.216	20.223	3.387	0.501
452.000	302.438	80.005	19.993	103.220	20.224	3.297	0.518
454.000	303.442	80.004	19.994	103.217	20.223	3.396	0.515
456.000	304.444	80.003	19.994	103.214	20.226	3.212	0.506
458.000	305.492	80.003	19.997	103.220	20.226	3.195	0.527
460.000	306.482	80.004	19.995	103.214	20.225	3.261	0.493
462.000	307.495	80.003	19.994	103.212	20.224	3.353	0.490
464.000	308.517	80.005	19.996	103.214	20.222	3.463	0.509
466.000	309.496	80.003	19.996	103.211	20.220	3.584	0.492
468.000	310.560	80.003	19.995	103.212	20.221	3.520	0.502
470.000	311.531	80.005	19.996	103.207	20.222	3.431	0.489
472.000	312.586	80.006	19.995	103.208	20.220	3.592	0.521
474.000	313.581	80.007	19.995	103.208	20.216	3.876	0.493
476.000	314.572	80.007	19.996	103.209	20.220	3.633	0.469
478.000	315.583	80.007	19.995	103.208	20.218	3.743	0.495
480.000	316.613	80.006	19.995	103.209	20.222	3.488	0.494
482.000	317.621	80.005	19.995	103.208	20.218	3.768	0.502
484.000	318.648	80.006	19.995	103.208	20.219	3.670	0.539
486.000	319.587	80.004	19.995	103.209	20.221	3.543	0.495
488.000	320.588	80.005	19.995	103.208	20.221	3.500	0.495
490.000	321.586	80.006	19.995	103.209	20.219	3.680	0.511
492.000	322.607	80.006	19.995	103.208	20.217	3.841	0.487
494.000	323.636	80.007	19.996	103.206	20.218	3.721	0.504
496.000	324.654	80.006	19.995	103.207	20.219	3.696	0.504
498.000	325.677	80.007	19.995	103.207	20.219	3.651	0.484
500.000	326.671	80.009	19.995	103.208	20.219	3.688	0.492
502.000	327.721	80.008	19.994	103.209	20.218	3.735	0.547
504.000	328.702	80.007	19.994	103.210	20.219	3.670	0.493
506.000	329.742	80.006	19.994	103.210	20.218	3.772	0.513
508.000	330.706	80.004	19.995	103.210	20.214	4.060	0.478
510.000	331.728	80.005	19.995	103.210	20.217	3.798	0.507
512.000	332.804	80.006	19.994	103.215	20.222	3.447	0.553
514.000	333.836	80.005	19.994	103.212	20.217	3.825	0.516
516.001	334.846	80.004	19.995	103.210	20.219	3.643	0.530
518.000	335.840	80.003	19.994	103.211	20.215	3.946	0.494
520.001	336.835	80.004	19.993	103.211	20.213	4.103	0.511
522.000	337.837	80.003	19.994	103.212	20.216	3.915	0.514
524.000	338.851	80.005	19.994	103.212	20.217	3.792	0.521
526.000	339.882	80.005	19.994	103.212	20.216	3.874	0.504
528.000	340.953	80.005	19.995	103.210	20.216	3.895	0.512
530.000	341.909	80.006	19.996	103.210	20.218	3.752	0.482
532.000	342.942	80.005	19.996	103.209	20.215	3.927	0.520
534.000	343.949	80.005	19.994	103.209	20.219	3.662	0.514
536.000	344.960	80.006	19.995	103.208	20.221	3.527	0.515
538.000	345.996	80.005	19.995	103.208	20.217	3.844	0.541
540.000	346.988	80.004	19.994	103.208	20.216	3.889	0.501
542.000	348.010	80.004	19.994	103.208	20.217	3.821	0.488
544.000	349.000	80.004	19.994	103.208	20.216	3.879	0.511
546.000	350.037	80.004	19.994	103.209	20.215	3.944	0.509
548.001	351.114	80.005	19.995	103.210	20.216	3.915	0.532
550.000	352.135	80.005	19.995	103.210	20.215	3.987	0.508
552.000	353.138	80.005	19.996	103.207	20.214	4.038	0.481
554.000	354.204	80.006	19.995	103.204	20.216	3.878	0.539
556.000	355.227	80.006	19.995	103.202	20.213	4.117	0.515
558.000	356.189	80.007	19.994	103.207	20.208	4.455	0.481
560.000	357.202	80.006	19.995	103.207	20.208	4.479	0.537
562.001	358.220	80.005	19.994	103.207	20.207	4.537	0.524
564.000	359.235	80.005	19.995	103.208	20.206	4.584	0.495
566.000	360.218	80.005	19.995	103.209	20.208	4.440	0.498
568.000	361.252	80.006	19.997	103.210	20.205	4.635	0.513
570.000	362.253	80.006	19.994	103.210	20.201	4.986	0.524
572.000	363.243	80.005	19.995	103.210	20.205	4.698	0.519
574.000	364.226	80.005	19.994	103.211	20.203	4.845	0.497
576.000	365.239	80.005	19.996	103.212	20.202	4.878	0.487
578.000	366.241	80.006	19.994	103.209	20.200	5.040	0.494
580.000	367.227	80.005	19.996	103.208	20.198	5.148	0.514
582.000	368.217	80.007	19.995	103.209	20.195	5.409	0.494
584.000	369.254	80.006	19.998	103.209	20.191	5.661	0.521
586.000	370.270	80.006	19.995	103.209	20.190	5.733	0.508
588.000	371.242	80.005	19.996	103.209	20.185	6.107	0.485
590.000	372.261	80.005	19.996	103.210	20.182	6.268	0.519
592.000	373.299	80.005	19.994	103.212	20.177	6.653	0.514
594.000	374.351	80.005	19.994	103.211	20.174	6.840	0.505
596.000	375.338	80.006	19.995	103.210	20.167	7.345	0.481
598.000	376.353	80.006	19.995	103.211	20.161	7.822	0.538
600.000	377.364	80.005	19.994	103.211	20.156	8.109	0.507
602.000	378.390	80.005	19.995	103.216	20.149	8.624	0.499
604.000	379.414	80.005	19.994	103.228	20.142	9.145	0.515
606.000	380.465	80.006	19.995	103.226	20.138	9.448	0.550
608.000	381.530	80.005	19.995	103.213	20.131	9.918	0.558
610.000	382.528	80.006	19.995	103.221	20.123	10.513	0.506
612.000	383.556	80.006	19.996	103.223	20.113	11.212	0.518
614.001	384.619	80.004	19.995	103.232	20.106	11.701	0.515
616.001	385.647	80.005	19.995	103.242	20.095	12.467	0.524
618.000	386.716	80.006	19.995	103.245	20.089	12.912	0.539
620.000	387.723	80.006	19.996	103.245	20.080	13.519	0.505
622.000	388.798	80.006	19.995	103.246	20.073	14.022	0.549
624.000	389.830	80.006	19.994	103.247	20.063	14.717	0.511
626.000	390.864	80.005	19.994	103.255	20.044	16.074	0.531
628.000	391.914	80.007	19.993	103.261	20.034	16.801	0.496
630.000	392.952	80.006	19.994	103.266	20.016	18.104	0.544
632.000	394.024	80.006	19.996	103.264	19.998	19.344	0.558
634.000	395.054	80.007	19.995	103.284	19.976	20.947	0.519
636.000	396.144	80.006	19.994	103.290	19.958	22.192	0.527
638.000	397.167	80.007	19.994	103.295	19.934	23.916	0.523
640.000	398.217	80.007	19.994	103.293	19.909	25.675	0.528
642.000	399.211	80.006	19.994	103.309	19.887	27.244	0.515
644.000	400.249	80.008	19.996	103.326	19.857	29.386	0.521
646.000	401.290	80.007	19.996	103.328	19.833	31.131	0.509
648.000	402.331	80.005	19.996	103.328	19.807	32.937	0.512
650.000	403.417	80.005	19.995	103.339	19.779	34.933	0.545
652.000	404.439	80.005	19.994	103.361	19.755	36.674	0.487
654.000	405.489	80.004	19.995	103.367	19.725	38.779	0.516
656.000	406.555	80.005	19.995	103.372	19.703	40.376	0.559
658.000	407.606	80.007	19.995	103.371	19.674	42.425	0.516
660.001	408.585	80.008	19.995	103.387	19.644	44.554	0.515
662.000	409.640	80.007	19.995	103.407	19.614	46.669	0.500
664.000	410.688	80.008	19.996	103.424	19.582	48.995	0.544
666.000	411.700	80.008	19.996	103.429	19.542	51.822	0.486
668.000	412.738	80.007	19.994	103.437	19.504	54.551	0.506
670.000	413.779	80.007	19.995	103.445	19.471	56.894	0.538
672.000	414.813	80.005	19.995	103.445	19.434	59.567	0.515
674.000	415.838	80.005	19.994	103.456	19.402	61.842	0.521
676.000	416.859	80.004	19.996	103.481	19.365	64.450	0.526
678.000	417.862	80.005	19.996	103.505	19.322	67.534	0.494
680.000	418.886	80.005	19.995	103.532	19.271	71.178	0.491
682.000	419.877	80.005	19.996	103.547	19.220	74.848	0.502
684.000	420.930	80.006	19.997	103.550	19.172	78.247	0.495
686.000	421.930	80.006	19.995	103.559	19.117	82.225	0.544
688.001	422.951	80.006	19.995	103.575	19.065	85.926	0.499
690.000	423.958	80.007	19.995	103.587	19.013	89.645	0.486
692.000	424.932	80.007	19.994	103.627	18.948	94.303	0.515
694.000	425.978	80.006	19.994	103.638	18.887	98.694	0.511
696.000	426.914	80.005	19.994	103.662	18.824	103.194	0.514
698.000	427.931	80.005	19.995	103.679	18.760	107.762	0.473
700.000	428.911	80.005	19.995	103.694	18.691	112.707	0.472
702.000	429.941	80.005	19.994	103.731	18.619	117.909	0.491
704.000	430.904	80.004	19.995	103.773	18.545	123.168	0.466
706.000	431.893	80.006	19.995	103.796	18.473	128.383	0.474
708.000	432.908	80.004	19.994	103.805	18.408	133.036	0.522
710.000	433.868	80.005	19.995	103.822	18.344	137.671	0.482
712.000	434.898	80.006	19.995	103.835	18.290	141.520	0.493
714.000	435.913	80.006	19.995	103.855	18.240	145.119	0.500
716.001	436.933	80.006	19.995	103.868	18.189	148.775	0.513
718.000	437.918	80.008	19.995	103.917	18.139	152.378	0.481
720.000	438.942	80.006	19.995	103.945	18.088	156.016	0.548
722.000	439.936	80.008	19.994	103.948	18.039	159.518	0.500
724.000	440.954	80.007	19.995	103.970	17.993	162.859	0.493
726.000	441.952	80.005	19.996	103.968	17.952	165.762	0.515
728.000	442.992	80.006	19.995	104.000	17.909	168.906	0.532
730.000	443.935	80.006	19.995	104.016	17.872	171.576	0.495
732.000	444.945	80.007	19.995	104.026	17.835	174.205	0.494
734.000	445.942	80.007	19.994	104.027	17.803	176.471	0.473
736.000	446.980	80.005	19.994	104.032	17.778	178.218	0.504
738.000	447.952	80.005	19.995	104.064	17.756	179.818	0.517
740.000	448.960	80.006	19.995	104.077	17.741	180.885	0.490
742.000	450.028	80.007	19.995	104.066	17.739	180.968	0.517
744.001	450.967	80.007	19.995	104.062	17.748	180.290	0.500
746.000	452.019	80.007	19.995	104.057	17.763	179.142	0.521
748.000	453.000	80.008	19.995	104.042	17.795	176.800	0.491
750.000	454.049	80.008	19.995	104.040	17.838	173.726	0.503
752.000	455.044	80.007	19.995	104.024	17.894	169.622	0.500
754.000	456.040	80.007	19.994	103.998	17.964	164.600	0.480
756.000	457.099	80.007	19.996	103.969	18.047	158.575	0.536
758.001	458.096	80.006	19.996	103.936	18.140	151.933	0.495
760.000	459.184	80.005	19.995	103.910	18.251	143.966	0.523
762.000	460.197	80.004	19.993	103.881	18.362	135.999	0.529
764.000	461.187	80.005	19.995	103.845	18.481	127.496	0.523
766.000	462.199	80.004	19.995	103.798	18.602	118.861	0.475
768.001	463.261	80.004	19.995	103.764	18.737	109.208	0.545
770.000	464.260	80.004	19.995	103.725	18.878	99.134	0.513
772.000	465.263	80.004	19.996	103.688	19.012	89.568	0.476
774.000	466.349	80.003	19.995	103.654	19.131	81.045	0.567
776.000	467.383	80.004	19.996	103.629	19.246	72.858	0.495
778.000	468.313	80.004	19.995	103.590	19.345	65.784	0.465
780.000	469.353	80.005	19.995	103.556	19.435	59.362	0.498
782.000	470.425	80.005	19.993	103.513	19.518	53.501	0.489
784.000	471.465	80.005	19.994	103.487	19.590	48.327	0.498
786.000	472.484	80.006	19.994	103.459	19.654	43.833	0.527
788.000	473.524	80.006	19.995	103.440	19.715	39.477	0.510
790.000	474.656	80.004	19.995	103.411	19.753	36.778	0.564
792.000	475.634	80.004	19.994	103.382	19.812	32.588	0.525
794.000	476.646	80.005	19.994	103.364	19.845	30.230	0.533
796.000	477.753	80.007	19.994	103.363	19.874	28.170	0.478
798.000	478.696	80.006	19.996	103.340	19.908	25.719	0.547
800.000	479.683	80.007	19.994	103.323	19.936	23.767	0.439
802.000	481.013	80.007	19.995	103.319	19.960	22.051	0.411
804.000	481.920	80.007	19.996	103.304	19.985	20.317	0.660
806.000	483.201	80.007	19.996	103.294	20.005	18.883	0.753
808.000	483.626	80.006	19.995	103.289	20.021	17.720	0.030
810.000	484.859	80.008	19.994	103.289	20.038	16.541	0.506
812.000	485.924	80.007	19.995	103.277	20.052	15.497	0.515
814.000	486.836	80.006	19.993	103.262	20.067	14.489	0.544
816.000	487.799	80.007	19.995	103.257	20.077	13.746	0.509
818.000	488.898	80.008	19.995	103.249	20.082	13.376	0.509
820.000	489.873	80.008	19.995	103.248	20.093	12.628	0.516
822.000	490.857	80.006	19.995	103.247	20.097	12.335	0.464
824.000	491.847	80.007	19.996	103.251	20.105	11.752	0.498
826.000	492.752	80.008	19.995	103.245	20.112	11.250	0.433
828.000	493.774	80.008	19.994	103.244	20.116	11.000	0.531
830.000	494.756	80.007	19.994	103.249	20.124	10.410	0.510
832.000	495.703	80.007	19.994	103.234	20.126	10.293	0.474
834.000	496.644	80.007	19.997	103.219	20.131	9.945	0.461
836.000	497.598	80.005	19.996	103.214	20.136	9.528	0.498
838.000	498.568	80.005	19.994	103.216	20.139	9.339	0.481
840.000	499.523	80.005	19.995	103.210	20.144	9.018	0.492
842.000	500.485	80.006	19.995	103.211	20.145	8.950	0.474
844.000	501.385	80.005	19.995	103.212	20.149	8.623	0.468
846.000	502.415	80.005	19.996	103.217	20.150	8.558	0.484
848.000	503.338	80.005	19.994	103.212	20.152	8.428	0.471
850.000	504.319	80.006	19.995	103.212	20.155	8.237	0.477
852.000	505.266	80.005	19.995	103.211	20.151	8.479	0.466
854.000	506.289	80.005	19.994	103.211	20.156	8.143	0.488
856.000	507.284	80.007	19.996	103.209	20.158	7.990	0.518
858.000	508.287	80.007	19.996	103.207	20.156	8.164	0.504
860.000	509.260	80.005	19.996	103.202	20.155	8.241	0.518
862.000	510.227	80.005	19.995	103.204	20.156	8.155	0.477
864.000	511.239	80.005	19.995	103.206	20.155	8.245	0.511
866.000	512.188	80.004	19.997	103.206	20.155	8.184	0.489
868.000	513.175	80.005	19.996	103.203	20.158	8.001	0.497
870.000	514.213	80.005	19.996	103.204	20.156	8.146	0.499
872.000	515.223	80.004	19.995	103.206	20.159	7.943	0.514
874.000	516.229	80.005	19.995	103.206	20.159	7.961	0.506
876.000	517.240	80.006	19.995	103.207	20.157	8.080	0.503
878.000	518.287	80.006	19.995	103.203	20.156	8.113	0.511
880.000	519.272	80.006	19.995	103.199	20.158	8.021	0.480
882.000	520.362	80.007	19.993	103.203	20.160	7.839	0.506
884.000	521.385	80.008	19.997	103.207	20.162	7.738	0.523
886.000	522.384	80.007	19.994	103.206	20.159	7.931	0.488
888.000	523.467	80.006	19.995	103.204	20.162	7.704	0.551
890.000	524.485	80.006	19.996	103.207	20.159	7.911	0.531
892.000	525.459	80.005	19.995	103.205	20.158	7.999	0.504
894.000	526.506	80.005	19.995	103.209	20.161	7.818	0.477
896.000	527.558	80.006	19.994	103.206	20.160	7.885	0.526
898.000	528.619	80.008	19.995	103.201	20.159	7.946	0.495
900.000	529.675	80.007	19.993	103.205	20.160	7.857	0.509
902.000	530.745	80.007	19.994	103.193	20.157	8.096	0.535
904.000	531.764	80.006	19.994	103.204	20.159	7.963	0.538
906.000	532.772	80.008	19.995	103.202	20.160	7.830	0.498
908.000	533.883	80.007	19.993	103.195	20.162	7.738	0.551
910.000	534.912	80.008	19.994	103.190	20.162	7.746	0.512
912.000	535.953	80.008	19.994	103.178	20.159	7.952	0.533
914.000	536.960	80.007	19.994	103.183	20.159	7.898	0.513
916.000	537.958	80.005	19.994	103.181	20.159	7.911	0.485
918.000	539.033	80.007	19.994	103.185	20.161	7.769	0.514
920.000	540.078	80.006	19.995	103.181	20.157	8.078	0.539
922.000	541.110	80.006	19.994	103.192	20.158	7.993	0.518
924.000	542.138	80.007	19.994	103.185	20.155	8.208	0.509
926.000	543.174	80.005	19.996	103.187	20.158	8.034	0.514
928.000	544.219	80.006	19.995	103.186	20.157	8.036	0.508
930.000	545.223	80.005	19.995	103.171	20.154	8.254	0.517
932.000	546.261	80.005	19.996	103.187	20.155	8.246	0.522
934.000	547.315	80.005	19.995	103.201	20.157	8.044	0.507
936.000	548.355	80.007	19.995	103.194	20.150	8.534	0.542
938.000	549.385	80.005	19.995	103.186	20.156	8.115	0.505
940.000	550.430	80.005	19.995	103.197	20.154	8.290	0.524
942.000	551.451	80.006	19.994	103.191	20.152	8.417	0.520
944.000	552.482	80.005	19.994	103.175	20.149	8.606	0.508
946.000	553.558	80.006	19.996	103.192	20.150	8.535	0.515
948.000	554.625	80.005	19.996	103.182	20.152	8.393	0.528
950.000	555.654	80.005	19.996	103.185	20.152	8.397	0.507
952.000	556.648	80.004	19.995	103.194	20.151	8.506	0.529
954.000	557.681	80.003	19.995	103.191	20.150	8.543	0.475
956.000	558.748	80.006	19.997	103.193	20.151	8.479	0.529
958.000	559.746	80.004	19.996	103.182	20.150	8.541	0.510
960.000	560.750	80.004	19.995	103.180	20.147	8.784	0.516
962.000	561.838	80.005	19.996	103.175	20.147	8.777	0.585
964.000	562.893	80.007	19.995	103.171	20.150	8.596	0.544
966.000	563.861	80.005	19.996	103.175	20.147	8.800	0.493
968.000	564.860	80.007	19.995	103.183	20.148	8.680	0.502
970.000	565.914	80.006	19.994	103.171	20.148	8.746	0.549
972.000	566.955	80.006	19.995	103.181	20.146	8.830	0.502
974.000	567.903	80.006	19.994	103.179	20.147	8.781	0.506
976.000	568.946	80.006	19.994	103.173	20.149	8.671	0.515
978.000	570.011	80.006	19.996	103.183	20.145	8.938	0.517
980.000	571.052	80.006	19.995	103.203	20.140	9.278	0.523
982.000	572.091	80.007	19.995	103.194	20.142	9.110	0.545
984.000	573.070	80.006	19.994	103.178	20.144	9.027	0.468
986.000	574.192	80.007	19.994	103.190	20.142	9.109	0.534
988.000	575.228	80.008	19.994	103.198	20.143	9.048	0.521
990.000	576.307	80.007	19.994	103.181	20.147	8.804	0.518
992.000	577.318	80.010	19.995	103.193	20.145	8.927	0.516
994.000	578.286	80.008	19.993	103.182	20.143	9.076	0.506
996.000	579.337	80.009	19.994	103.177	20.142	9.143	0.503
998.000	580.366	80.007	19.995	103.176	20.142	9.133	0.522
1000.000	581.416	80.005	19.993	103.170	20.139	9.322	0.529
1002.000	582.451	80.005	19.994	103.189	20.139	9.335	0.509
1004.000	583.497	80.005	19.996	103.185	20.135	9.651	0.497
1006.000	584.527	80.006	19.995	103.180	20.134	9.689	0.546
1008.000	585.553	80.007	19.994	103.192	20.130	9.969	0.520
1010.000	586.577	80.006	19.994	103.194	20.130	9.958	0.523
1012.000	587.581	80.005	19.994	103.187	20.130	9.961	0.492
1014.000	588.569	80.005	19.994	103.182	20.131	9.912	0.472
1016.000	589.624	80.006	19.995	103.195	20.128	10.099	0.525
1018.001	590.599	80.005	19.995	103.195	20.124	10.401	0.475
1020.000	591.610	80.005	19.995	103.178	20.125	10.329	0.487
1022.000	592.643	80.005	19.995	103.181	20.128	10.111	0.506
1024.000	593.691	80.005	19.996	103.189	20.130	9.974	0.533
1026.001	594.694	80.005	19.994	103.175	20.126	10.245	0.502
1028.001	595.717	80.004	19.996	103.175	20.124	10.415	0.519
1030.000	596.725	80.004	19.996	103.186	20.128	10.111	0.501
1032.000	597.782	80.004	19.995	103.178	20.124	10.426	0.512
1034.000	598.781	80.005	19.995	103.179	20.122	10.577	0.504
1036.001	599.804	80.004	19.994	103.185	20.125	10.306	0.499
1038.000	600.831	80.005	19.996	103.185	20.126	10.263	0.518
1040.000	601.831	80.006	19.996	103.185	20.127	10.201	0.496
1042.001	602.836	80.005	19.994	103.195	20.126	10.259	0.510
1044.000	603.878	80.005	19.996	103.202	20.129	10.046	0.527
1046.000	604.866	80.007	19.995	103.193	20.127	10.232	0.507
1048.000	605.865	80.009	19.996	103.186	20.124	10.414	0.503
1050.000	606.894	80.007	19.997	103.173	20.127	10.195	0.511
1052.001	607.950	80.007	19.996	103.169	20.124	10.402	0.500
1054.000	608.996	80.007	19.996	103.173	20.128	10.143	0.539
1056.000	609.987	80.006	19.995	103.175	20.126	10.296	0.512
1058.000	611.008	80.006	19.996	103.184	20.122	10.523	0.519
1060.000	612.004	80.007	19.995	103.189	20.122	10.533	0.487
1062.001	613.011	80.006	19.994	103.176	20.122	10.564	0.519
1064.000	614.058	80.007	19.996	103.173	20.123	10.466	0.498
1066.000	615.066	80.008	19.995	103.168	20.122	10.551	0.509
1068.000	616.077	80.009	19.995	103.168	20.122	10.577	0.491
1070.000	617.122	80.008	19.995	103.173	20.120	10.678	0.488
1072.001	618.123	80.009	19.994	103.168	20.121	10.637	0.492
1074.000	619.127	80.008	19.994	103.168	20.120	10.695	0.506
1076.000	620.168	80.008	19.994	103.170	20.120	10.716	0.524
1078.000	621.210	80.007	19.994	103.179	20.119	10.783	0.532
1080.001	622.160	80.006	19.995	103.174	20.122	10.585	0.482
1082.000	623.198	80.005	19.995	103.174	20.121	10.606	0.495
1084.000	624.210	80.004	19.995	103.180	20.119	10.772	0.517
1086.001	625.263	80.006	19.994	103.181	20.117	10.888	0.527
1088.000	626.227	80.006	19.994	103.180	20.121	10.649	0.489
1090.000	627.264	80.006	19.994	103.183	20.117	10.940	0.515
1092.000	628.286	80.006	19.994	103.182	20.118	10.817	0.512
1094.000	629.305	80.006	19.994	103.175	20.121	10.655	0.498
1096.000	630.308	80.005	19.995	103.171	20.124	10.443	0.482
1098.001	631.344	80.005	19.994	103.178	20.122	10.533	0.508
1100.000	632.339	80.006	19.994	103.172	20.124	10.439	0.496
1102.000	633.312	80.007	19.993	103.175	20.126	10.281	0.483
1104.000	634.382	80.007	19.994	103.175	20.128	10.130	0.555
1106.000	635.414	80.007	19.995	103.174	20.128	10.139	0.511
1108.000	636.469	80.006	19.995	103.175	20.127	10.202	0.531
1110.000	637.488	80.006	19.995	103.171	20.125	10.308	0.525
1112.000	638.530	80.005	19.995	103.172	20.127	10.184	0.499
1114.000	639.568	80.005	19.995	103.169	20.125	10.351	0.527
1116.001	640.579	80.007	19.996	103.168	20.127	10.198	0.533
1118.000	641.596	80.005	19.996	103.168	20.129	10.069	0.509
1120.000	642.559	80.006	19.996	103.168	20.123	10.470	0.474
1122.000	643.588	80.004	19.995	103.168	20.128	10.095	0.482
1124.000	644.593	80.006	19.997	103.167	20.126	10.282	0.484
1126.000	645.606	80.008	19.996	103.168	20.124	10.376	0.523
1128.000	646.584	80.007	19.995	103.168	20.124	10.415	0.513
1130.000	647.635	80.007	19.994	103.168	20.128	10.136	0.530
1132.000	648.682	80.008	19.995	103.172	20.127	10.227	0.484
1134.000	649.689	80.007	19.995	103.171	20.128	10.114	0.535
1136.000	650.687	80.007	19.995	103.165	20.126	10.282	0.496
1138.000	651.750	80.006	19.995	103.166	20.128	10.118	0.506
1140.000	652.770	80.007	19.996	103.169	20.127	10.228	0.512
1142.000	653.765	80.005	19.996	103.166	20.125	10.343	0.518
1144.000	654.791	80.007	19.997	103.167	20.130	10.011	0.512
1146.000	655.879	80.007	19.996	103.167	20.129	10.024	0.557
1148.000	656.862	80.007	19.996	103.167	20.128	10.114	0.477
1150.000	657.882	80.008	19.996	103.171	20.128	10.147	0.504
1152.000	658.914	80.008	19.996	103.169	20.129	10.040	0.541
1154.000	659.951	80.008	19.995	103.170	20.126	10.249	0.436
1156.000	660.997	80.007	19.993	103.168	20.123	10.465	0.522
1158.000	662.161	80.010	19.995	103.169	20.125	10.332	0.585
1160.000	663.118	80.008	19.993	103.168	20.126	10.289	0.527
1162.000	664.148	80.008	19.994	103.167	20.122	10.523	0.524
1164.000	665.210	80.006	19.993	103.169	20.124	10.384	0.526
1166.000	666.231	80.005	19.994	103.170	20.125	10.367	0.510
1168.000	667.248	80.006	19.996	103.170	20.122	10.535	0.501
1170.000	668.246	80.006	19.995	103.173	20.120	10.700	0.536
1172.000	669.278	80.005	19.994	103.174	20.124	10.432	0.503
1174.000	670.293	80.003	19.993	103.167	20.121	10.642	0.506
1176.000	671.355	80.007	19.994	103.169	20.121	10.654	0.549
1178.000	672.384	80.006	19.995	103.168	20.120	10.666	0.553
1180.000	673.423	80.007	19.994	103.164	20.119	10.779	0.520
1182.001	674.474	80.006	19.993	103.156	20.122	10.572	0.515
1184.000	675.565	80.007	19.995	103.159	20.124	10.382	0.533
1186.000	676.608	80.006	19.996	103.165	20.121	10.628	0.539
1188.000	677.617	80.007	19.995	103.166	20.120	10.713	0.486
1190.000	678.660	80.006	19.995	103.169	20.120	10.664	0.523
1192.000	679.715	80.006	19.994	103.169	20.119	10.728	0.487
1194.000	680.719	80.006	19.995	103.168	20.124	10.428	0.514
1196.000	681.805	80.005	19.995	103.168	20.123	10.468	0.519
1198.000	682.832	80.006	19.995	103.166	20.118	10.834	0.536
1200.000	683.856	80.005	19.994	103.167	20.122	10.527	0.516
1202.000	684.727	80.005	19.994	103.167	20.120	10.684	0.448
1204.000	685.933	80.008	19.995	103.161	20.125	10.357	0.518
1206.000	686.986	80.007	19.995	103.164	20.122	10.554	0.545
1208.000	688.011	80.006	19.995	103.152	20.117	10.888	0.532
1210.000	689.034	80.007	19.994	103.153	20.121	10.628	0.481
1212.000	690.039	80.008	19.995	103.151	20.119	10.745	0.499
1214.000	691.087	80.007	19.994	103.152	20.120	10.722	0.504
1216.000	692.103	80.007	19.995	103.160	20.123	10.455	0.496
1218.000	693.161	80.007	19.995	103.161	20.118	10.832	0.506
1220.000	694.213	80.007	19.995	103.162	20.118	10.801	0.526
1222.000	695.186	80.006	19.995	103.164	20.116	10.992	0.496
1224.000	696.236	80.007	19.996	103.151	20.118	10.868	0.522
1226.001	697.284	80.006	19.994	103.143	20.117	10.920	0.508
1228.001	698.270	80.007	19.995	103.150	20.115	11.035	0.489
1230.000	699.323	80.006	19.996	103.153	20.116	10.957	0.517
1232.000	700.324	80.007	19.995	103.154	20.116	10.952	0.502
1234.000	701.337	80.006	19.996	103.155	20.120	10.718	0.513
1236.000	702.356	80.008	19.996	103.141	20.116	10.986	0.501
1238.000	703.318	80.008	19.996	103.158	20.118	10.826	0.495
1240.000	704.379	80.008	19.997	103.161	20.121	10.615	0.488
1242.000	705.373	80.005	19.994	103.160	20.118	10.850	0.510
1244.000	706.382	80.005	19.996	103.161	20.117	10.896	0.511
1246.000	707.388	80.007	19.995	103.157	20.118	10.843	0.492
1248.000	708.452	80.004	19.995	103.159	20.116	11.003	0.493
1250.000	709.442	80.006	19.995	103.153	20.116	11.005	0.513
1252.000	710.520	80.007	19.996	103.142	20.115	11.044	0.536
1254.000	711.527	80.007	19.994	103.150	20.116	10.956	0.530
1256.000	712.540	80.007	19.995	103.138	20.116	10.996	0.528
1258.000	713.545	80.008	19.995	103.157	20.114	11.111	0.516
1260.000	714.568	80.008	19.994	103.149	20.115	11.024	0.510
1262.000	715.585	80.005	19.994	103.138	20.116	10.941	0.521
1264.000	716.552	80.005	19.995	103.139	20.114	11.102	0.503
1266.000	717.525	80.006	19.995	103.142	20.114	11.148	0.479
1268.000	718.549	80.006	19.995	103.147	20.113	11.189	0.506
1270.000	719.565	80.007	19.994	103.137	20.114	11.142	0.536
1272.000	720.522	80.005	19.995	103.139	20.114	11.132	0.477
1274.000	721.548	80.007	19.994	103.154	20.115	11.039	0.500
1276.000	722.534	80.004	19.995	103.157	20.113	11.203	0.491
1278.000	723.566	80.005	19.994	103.156	20.110	11.427	0.516
1280.000	724.531	80.006	19.994	103.155	20.113	11.175	0.499
1282.000	725.481	80.008	19.995	103.158	20.113	11.190	0.466
1284.000	726.492	80.005	19.994	103.156	20.108	11.551	0.489
1286.001	727.469	80.008	19.995	103.151	20.109	11.454	0.494
1288.000	728.535	80.009	19.995	103.167	20.106	11.661	0.526
1290.000	729.484	80.006	19.995	103.159	20.112	11.229	0.480
1292.000	730.459	80.007	19.994	103.152	20.113	11.223	0.461
1294.000	731.461	80.009	19.995	103.150	20.112	11.273	0.523
1296.000	732.435	80.009	19.993	103.164	20.113	11.154	0.512
1298.000	733.453	80.009	19.994	103.167	20.110	11.378	0.515
1300.000	734.447	80.008	19.994	103.166	20.109	11.488	0.469
1302.000	735.441	80.006	19.995	103.163	20.110	11.394	0.484
1304.000	736.436	80.008	19.995	103.157	20.109	11.474	0.492
1306.000	737.442	80.007	19.995	103.149	20.109	11.483	0.519
1308.000	738.447	80.006	19.995	103.145	20.107	11.584	0.495
1310.000	739.470	80.009	19.996	103.148	20.110	11.369	0.524
1312.000	740.465	80.009	19.996	103.153	20.110	11.406	0.475
1314.000	741.431	80.009	19.996	103.139	20.104	11.822	0.488
1316.000	742.490	80.008	19.995	103.136	20.107	11.588	0.519
1318.000	743.436	80.009	19.995	103.159	20.107	11.613	0.500