File: 01_Data/Polyester_Bed_Skirt/MCC/Polyester_Bed_Skirt_MCC_30K_min_211208_R2.txt
Sample ID:	C:\MCC\MCC Cal\Test\Polyester_Bed_Skirt_MCC_30K_min_211208_R2.txt
Sample Weight (mg):	4.59
Heating Rate (C/s):	0.5
Combustor Temp (C):	900
N2 Flow Rate (cc/min):	80
O2 Flow Rate (cc/min):	20
Calibration File:	C:\MCC\MCC Cal\Coeff1 JN10440_30_210304.txt.txt
T Correction Coefficients:	0	1.024463	0
Time Shift (s):	14
*
Time (s)	Temperature (C)	N2 flow rate (cc/min)	O2 flow rate (cc/min)	Flow Rate (cc/min)	Oxygen (%)	HRR (W/g)	Heating rate (C/s)
0.000	110.373	80.007	19.994	103.094	20.112	-0.031	-0.025
2.000	110.401	80.007	19.993	103.092	20.115	-0.246	0.016
4.000	110.412	80.007	19.995	103.092	20.115	-0.236	0.014
6.000	110.359	80.007	19.994	103.095	20.115	-0.249	-0.023
8.000	110.402	80.006	19.993	103.096	20.116	-0.307	0.006
10.001	110.400	80.007	19.992	103.098	20.118	-0.460	0.020
12.000	110.349	80.008	19.993	103.094	20.116	-0.321	-0.007
14.001	110.342	80.008	19.994	103.093	20.114	-0.153	-0.024
16.000	110.389	80.009	19.994	103.091	20.117	-0.410	0.018
18.000	110.359	80.008	19.994	103.093	20.116	-0.338	-0.020
20.000	110.387	80.008	19.995	103.091	20.117	-0.367	0.021
22.000	110.410	80.008	19.994	103.091	20.117	-0.369	-0.003
24.000	110.383	80.008	19.995	103.090	20.117	-0.412	0.016
26.000	110.377	80.007	19.995	103.088	20.116	-0.335	-0.009
28.000	110.411	80.007	19.994	103.088	20.115	-0.248	0.034
30.000	110.358	80.007	19.994	103.092	20.118	-0.464	-0.008
32.000	110.392	80.008	19.994	103.089	20.112	-0.033	-0.021
34.000	110.338	80.008	19.995	103.091	20.117	-0.366	-0.010
36.001	110.372	80.009	19.995	103.091	20.116	-0.339	0.014
38.000	110.368	80.009	19.994	103.095	20.116	-0.335	0.014
40.000	110.345	80.009	19.994	103.096	20.114	-0.147	0.017
42.000	110.299	80.009	19.994	103.109	20.112	-0.017	-0.043
44.001	110.355	80.010	19.996	103.131	20.109	0.145	0.020
46.001	110.368	80.010	19.995	103.168	20.100	0.789	0.000
48.000	110.474	80.008	19.994	103.202	20.096	1.124	0.042
50.001	110.535	80.008	19.995	103.250	20.094	1.219	0.049
52.001	110.677	80.008	19.996	103.282	20.089	1.593	0.088
54.000	110.795	80.006	19.996	103.284	20.086	1.827	0.084
56.001	111.007	80.007	19.995	103.288	20.081	2.146	0.076
58.000	111.247	80.007	19.995	103.281	20.083	1.974	0.147
60.001	111.484	80.007	19.995	103.276	20.081	2.138	0.114
62.000	111.789	80.008	19.994	103.272	20.079	2.268	0.176
64.000	112.070	80.009	19.994	103.275	20.081	2.152	0.174
66.001	112.411	80.009	19.993	103.261	20.081	2.150	0.169
68.000	112.730	80.010	19.994	103.262	20.081	2.160	0.177
70.000	113.015	80.009	19.994	103.254	20.081	2.121	0.158
72.000	113.408	80.009	19.994	103.259	20.084	1.945	0.177
74.000	113.835	80.011	19.993	103.247	20.081	2.139	0.224
76.000	114.187	80.008	19.993	103.252	20.080	2.180	0.190
78.000	114.575	80.008	19.992	103.270	20.082	2.042	0.157
80.001	115.009	80.006	19.994	103.257	20.084	1.934	0.219
82.001	115.430	80.007	19.995	103.273	20.082	2.079	0.202
84.001	115.902	80.009	19.994	103.274	20.079	2.297	0.208
86.000	116.382	80.008	19.993	103.286	20.081	2.153	0.245
88.001	116.869	80.008	19.994	103.291	20.078	2.345	0.256
90.000	117.298	80.007	19.994	103.295	20.076	2.487	0.206
92.000	117.904	80.007	19.994	103.292	20.080	2.246	0.311
94.001	118.424	80.008	19.994	103.316	20.079	2.314	0.280
96.001	119.006	80.009	19.994	103.312	20.075	2.557	0.207
98.001	119.484	80.009	19.993	103.319	20.079	2.309	0.211
100.000	120.087	80.008	19.993	103.318	20.075	2.560	0.291
102.000	120.681	80.009	19.992	103.322	20.075	2.547	0.292
104.000	121.304	80.009	19.993	103.325	20.075	2.588	0.334
106.000	122.002	80.009	19.994	103.328	20.073	2.704	0.321
108.001	122.642	80.008	19.996	103.320	20.075	2.590	0.316
110.000	123.373	80.007	19.995	103.328	20.070	2.913	0.335
112.000	124.056	80.007	19.993	103.317	20.075	2.533	0.335
114.001	124.791	80.007	19.994	103.324	20.073	2.692	0.406
116.001	125.505	80.006	19.994	103.325	20.072	2.803	0.344
118.000	126.252	80.005	19.994	103.325	20.072	2.743	0.380
120.000	126.996	80.007	19.994	103.331	20.073	2.739	0.358
122.001	127.730	80.008	19.995	103.329	20.071	2.881	0.346
124.000	128.535	80.008	19.994	103.330	20.072	2.751	0.387
126.000	129.327	80.009	19.995	103.330	20.071	2.840	0.417
128.000	130.070	80.008	19.994	103.328	20.068	3.036	0.366
130.000	130.901	80.008	19.993	103.340	20.067	3.125	0.398
132.000	131.780	80.008	19.993	103.338	20.066	3.216	0.438
134.000	132.553	80.008	19.995	103.336	20.067	3.148	0.406
136.000	133.427	80.008	19.994	103.337	20.066	3.216	0.429
138.000	134.298	80.008	19.993	103.334	20.066	3.220	0.435
140.000	135.133	80.008	19.995	103.335	20.071	2.836	0.444
142.000	136.039	80.008	19.995	103.334	20.072	2.766	0.463
144.000	136.898	80.008	19.995	103.338	20.070	2.925	0.447
146.000	137.782	80.008	19.995	103.332	20.073	2.686	0.442
148.000	138.751	80.007	19.995	103.326	20.071	2.822	0.447
150.000	139.664	80.008	19.996	103.323	20.073	2.714	0.468
152.000	140.583	80.009	19.995	103.339	20.070	2.902	0.453
154.000	141.519	80.009	19.995	103.328	20.065	3.250	0.471
156.000	142.456	80.009	19.995	103.323	20.069	2.993	0.487
158.000	143.417	80.008	19.996	103.323	20.065	3.235	0.498
160.000	144.392	80.008	19.994	103.324	20.064	3.371	0.488
162.000	145.349	80.008	19.994	103.327	20.063	3.380	0.453
164.000	146.309	80.006	19.994	103.322	20.065	3.241	0.473
166.000	147.275	80.006	19.994	103.323	20.062	3.491	0.505
168.000	148.206	80.008	19.994	103.325	20.060	3.588	0.467
170.000	149.217	80.006	19.994	103.330	20.067	3.094	0.490
172.000	150.167	80.007	19.995	103.325	20.065	3.245	0.519
174.000	151.099	80.006	19.994	103.323	20.066	3.206	0.479
176.000	152.150	80.009	19.994	103.323	20.070	2.917	0.506
178.000	153.134	80.006	19.994	103.323	20.072	2.811	0.506
180.000	154.082	80.007	19.994	103.325	20.071	2.863	0.468
182.000	155.079	80.006	19.995	103.324	20.074	2.607	0.542
184.000	156.079	80.006	19.995	103.325	20.071	2.869	0.519
186.000	157.054	80.008	19.995	103.325	20.070	2.884	0.520
188.000	158.085	80.007	19.992	103.326	20.071	2.841	0.486
190.000	159.069	80.007	19.995	103.325	20.073	2.739	0.490
192.000	160.118	80.006	19.995	103.324	20.072	2.799	0.506
194.000	161.147	80.006	19.994	103.324	20.070	2.931	0.526
196.000	162.146	80.007	19.994	103.323	20.071	2.814	0.521
198.000	163.166	80.006	19.993	103.322	20.073	2.696	0.511
200.000	164.191	80.006	19.995	103.323	20.071	2.826	0.518
202.000	165.181	80.006	19.993	103.316	20.074	2.663	0.517
204.000	166.253	80.007	19.994	103.319	20.075	2.554	0.517
206.000	167.280	80.007	19.993	103.324	20.071	2.827	0.499
208.000	168.227	80.007	19.995	103.317	20.074	2.655	0.472
210.001	169.239	80.007	19.993	103.312	20.074	2.604	0.522
212.000	170.290	80.007	19.995	103.315	20.072	2.763	0.482
214.000	171.291	80.009	19.996	103.304	20.079	2.275	0.484
216.000	172.291	80.007	19.996	103.315	20.077	2.405	0.482
218.000	173.311	80.008	19.995	103.288	20.080	2.203	0.506
220.000	174.326	80.007	19.995	103.294	20.078	2.362	0.499
222.000	175.295	80.007	19.994	103.289	20.082	2.069	0.513
224.000	176.338	80.008	19.994	103.288	20.080	2.224	0.503
226.000	177.351	80.008	19.995	103.294	20.082	2.100	0.510
228.000	178.363	80.007	19.996	103.285	20.078	2.341	0.520
230.000	179.357	80.008	19.994	103.284	20.082	2.044	0.509
232.001	180.354	80.009	19.993	103.287	20.076	2.523	0.499
234.000	181.386	80.009	19.994	103.285	20.079	2.292	0.517
236.000	182.376	80.009	19.994	103.290	20.081	2.133	0.494
238.000	183.375	80.008	19.995	103.283	20.081	2.114	0.466
240.001	184.369	80.007	19.994	103.282	20.079	2.251	0.486
242.000	185.373	80.009	19.994	103.281	20.080	2.244	0.508
244.000	186.424	80.007	19.997	103.280	20.083	2.003	0.540
246.000	187.351	80.005	19.996	103.281	20.082	2.046	0.485
248.000	188.358	80.007	19.995	103.284	20.083	1.994	0.535
250.000	189.309	80.006	19.995	103.283	20.079	2.275	0.472
252.002	190.373	80.005	19.996	103.285	20.083	1.988	0.534
254.001	191.339	80.007	19.995	103.285	20.083	1.980	0.495
256.000	192.342	80.008	19.995	103.283	20.084	1.899	0.484
258.000	193.348	80.006	19.994	103.286	20.084	1.918	0.515
260.000	194.362	80.008	19.995	103.288	20.086	1.788	0.512
262.000	195.325	80.006	19.994	103.286	20.084	1.947	0.505
264.000	196.299	80.006	19.994	103.286	20.087	1.726	0.499
266.000	197.293	80.007	19.995	103.286	20.083	1.972	0.506
268.000	198.287	80.006	19.994	103.282	20.085	1.841	0.493
270.000	199.290	80.007	19.994	103.286	20.082	2.108	0.499
272.000	200.231	80.006	19.994	103.285	20.084	1.910	0.453
274.000	201.238	80.007	19.995	103.286	20.086	1.808	0.510
276.000	202.224	80.006	19.994	103.281	20.085	1.829	0.509
278.000	203.217	80.008	19.994	103.281	20.085	1.840	0.469
280.001	204.211	80.006	19.995	103.279	20.084	1.920	0.500
282.000	205.196	80.006	19.994	103.273	20.085	1.854	0.501
284.000	206.165	80.006	19.994	103.281	20.085	1.856	0.477
286.000	207.181	80.006	19.995	103.278	20.082	2.079	0.489
288.000	208.181	80.007	19.993	103.277	20.087	1.745	0.489
290.000	209.208	80.009	19.995	103.266	20.089	1.591	0.525
292.000	210.140	80.008	19.995	103.275	20.085	1.883	0.461
294.000	211.138	80.009	19.994	103.267	20.086	1.811	0.532
296.000	212.128	80.008	19.994	103.272	20.089	1.567	0.506
298.000	213.108	80.008	19.994	103.271	20.085	1.893	0.490
300.000	214.068	80.008	19.994	103.270	20.087	1.745	0.468
302.000	215.129	80.009	19.995	103.276	20.087	1.749	0.483
304.000	216.093	80.007	19.994	103.267	20.086	1.763	0.474
306.000	217.056	80.005	19.994	103.273	20.084	1.968	0.447
308.000	218.095	80.009	19.994	103.267	20.088	1.619	0.510
310.000	219.053	80.007	19.995	103.266	20.089	1.600	0.479
312.000	219.994	80.005	19.994	103.260	20.089	1.588	0.458
314.000	221.019	80.006	19.995	103.253	20.089	1.598	0.479
316.000	221.988	80.006	19.995	103.265	20.089	1.602	0.505
318.000	222.971	80.009	19.995	103.252	20.091	1.470	0.468
320.000	223.991	80.008	19.995	103.266	20.093	1.302	0.490
322.001	225.008	80.010	19.995	103.254	20.087	1.726	0.541
324.000	225.976	80.009	19.994	103.262	20.088	1.652	0.521
326.000	226.969	80.008	19.994	103.249	20.093	1.321	0.495
328.000	227.981	80.007	19.994	103.255	20.090	1.534	0.510
330.000	228.947	80.006	19.996	103.252	20.093	1.272	0.494
332.000	229.969	80.005	19.996	103.251	20.091	1.429	0.495
334.000	231.021	80.005	19.995	103.249	20.093	1.286	0.505
336.000	231.951	80.007	19.996	103.249	20.090	1.495	0.463
338.000	232.957	80.005	19.995	103.249	20.091	1.451	0.496
340.000	233.989	80.004	19.995	103.247	20.090	1.480	0.524
342.000	234.963	80.007	19.996	103.245	20.094	1.205	0.497
344.000	236.001	80.005	19.994	103.255	20.093	1.286	0.537
346.000	237.009	80.005	19.996	103.243	20.092	1.365	0.514
348.001	238.024	80.006	19.995	103.246	20.089	1.551	0.498
350.001	239.011	80.007	19.995	103.244	20.094	1.224	0.503
352.000	239.966	80.006	19.994	103.244	20.093	1.294	0.480
354.000	240.917	80.007	19.995	103.250	20.096	1.083	0.483
356.000	241.969	80.007	19.995	103.247	20.097	1.044	0.512
358.000	242.964	80.006	19.994	103.246	20.096	1.110	0.507
360.000	243.944	80.006	19.995	103.245	20.094	1.209	0.519
362.000	244.963	80.007	19.994	103.252	20.095	1.156	0.506
364.000	245.986	80.005	19.996	103.245	20.097	1.011	0.524
366.000	247.010	80.006	19.995	103.245	20.094	1.257	0.509
368.000	248.006	80.006	19.995	103.245	20.096	1.073	0.525
370.000	248.969	80.007	19.994	103.245	20.095	1.135	0.490
372.000	250.039	80.007	19.994	103.245	20.098	0.968	0.512
374.000	250.983	80.008	19.995	103.244	20.095	1.127	0.465
376.000	252.039	80.008	19.994	103.248	20.099	0.910	0.510
378.000	253.024	80.009	19.994	103.245	20.102	0.655	0.470
380.000	253.979	80.009	19.994	103.248	20.100	0.810	0.491
382.000	254.960	80.008	19.994	103.248	20.102	0.684	0.521
384.000	255.940	80.010	19.995	103.248	20.100	0.821	0.477
386.000	256.897	80.009	19.995	103.251	20.100	0.804	0.482
388.000	257.895	80.011	19.995	103.252	20.101	0.738	0.500
390.000	258.905	80.008	19.995	103.251	20.104	0.500	0.527
392.000	259.909	80.008	19.995	103.250	20.099	0.908	0.501
394.000	260.899	80.008	19.993	103.248	20.103	0.595	0.462
396.000	261.890	80.007	19.993	103.247	20.102	0.674	0.472
398.000	262.870	80.007	19.994	103.250	20.101	0.738	0.497
400.000	263.871	80.010	19.994	103.250	20.102	0.689	0.497
402.000	264.907	80.010	19.994	103.249	20.101	0.722	0.520
404.001	265.909	80.010	19.996	103.248	20.103	0.612	0.516
406.000	266.889	80.009	19.994	103.248	20.104	0.556	0.494
408.000	267.929	80.010	19.994	103.242	20.099	0.846	0.538
410.000	268.882	80.008	19.995	103.241	20.100	0.779	0.486
412.000	269.874	80.007	19.995	103.242	20.102	0.688	0.495
414.000	270.924	80.007	19.994	103.240	20.105	0.453	0.546
416.000	271.972	80.007	19.994	103.244	20.101	0.715	0.498
418.000	272.982	80.007	19.995	103.244	20.102	0.651	0.513
420.000	273.944	80.007	19.995	103.240	20.102	0.672	0.466
422.000	274.984	80.008	19.994	103.237	20.103	0.573	0.509
424.000	275.972	80.008	19.994	103.231	20.103	0.575	0.503
426.000	276.992	80.008	19.996	103.241	20.108	0.246	0.532
428.001	277.972	80.009	19.995	103.241	20.105	0.430	0.489
430.000	278.941	80.005	19.995	103.230	20.104	0.519	0.479
432.000	280.010	80.007	19.995	103.232	20.108	0.273	0.502
434.000	280.999	80.005	19.997	103.240	20.106	0.362	0.499
436.000	282.004	80.007	19.996	103.222	20.106	0.383	0.502
438.000	283.032	80.007	19.996	103.231	20.106	0.366	0.521
440.000	284.091	80.008	19.996	103.231	20.107	0.327	0.522
442.000	285.071	80.006	19.996	103.227	20.108	0.225	0.485
444.000	286.068	80.007	19.997	103.235	20.111	0.031	0.494
446.000	287.098	80.007	19.996	103.224	20.109	0.151	0.505
448.000	288.062	80.008	19.994	103.227	20.108	0.256	0.467
450.000	289.065	80.008	19.995	103.230	20.111	0.035	0.480
452.000	290.088	80.007	19.994	103.223	20.109	0.196	0.480
454.000	291.098	80.007	19.994	103.233	20.109	0.176	0.492
456.000	292.158	80.008	19.994	103.228	20.111	0.039	0.525
458.000	293.180	80.008	19.996	103.238	20.108	0.256	0.519
460.000	294.200	80.008	19.996	103.231	20.107	0.335	0.524
462.000	295.207	80.008	19.994	103.227	20.107	0.331	0.503
464.000	296.219	80.009	19.997	103.229	20.108	0.269	0.475
466.000	297.226	80.008	19.992	103.234	20.108	0.223	0.517
468.000	298.245	80.006	19.995	103.218	20.106	0.358	0.505
470.000	299.253	80.007	19.995	103.229	20.109	0.151	0.520
472.000	300.240	80.007	19.995	103.227	20.107	0.323	0.502
474.000	301.249	80.008	19.996	103.219	20.106	0.370	0.489
476.000	302.246	80.007	19.993	103.221	20.108	0.244	0.496
478.000	303.311	80.008	19.995	103.221	20.108	0.261	0.550
480.000	304.338	80.011	19.994	103.216	20.107	0.300	0.513
482.000	305.292	80.009	19.995	103.224	20.108	0.267	0.467
484.000	306.331	80.007	19.993	103.221	20.112	-0.008	0.512
486.000	307.329	80.013	19.994	103.218	20.112	-0.062	0.481
488.000	308.331	80.011	19.995	103.224	20.111	0.050	0.510
490.000	309.375	80.009	19.995	103.219	20.111	0.046	0.537
492.000	310.387	80.009	19.993	103.215	20.112	-0.037	0.515
494.000	311.371	80.008	19.994	103.209	20.110	0.130	0.509
496.000	312.415	80.008	19.994	103.215	20.108	0.275	0.534
498.000	313.482	80.007	19.994	103.209	20.112	-0.060	0.520
500.000	314.466	80.006	19.995	103.213	20.108	0.236	0.528
502.000	315.453	80.008	19.993	103.216	20.114	-0.188	0.477
504.000	316.485	80.007	19.996	103.214	20.114	-0.147	0.534
506.000	317.527	80.008	19.995	103.210	20.113	-0.074	0.509
508.000	318.504	80.005	19.995	103.209	20.113	-0.108	0.525
510.000	319.499	80.006	19.994	103.209	20.112	-0.004	0.512
512.000	320.509	80.010	19.994	103.209	20.109	0.211	0.514
514.000	321.512	80.008	19.995	103.214	20.110	0.108	0.513
516.000	322.547	80.007	19.994	103.209	20.110	0.095	0.497
518.000	323.533	80.009	19.996	103.209	20.111	0.052	0.522
520.000	324.508	80.008	19.992	103.210	20.110	0.081	0.464
522.000	325.553	80.007	19.992	103.206	20.109	0.145	0.525
524.000	326.538	80.009	19.997	103.208	20.111	0.054	0.488
526.000	327.528	80.007	19.996	103.209	20.110	0.099	0.486
528.000	328.491	80.007	19.996	103.211	20.110	0.081	0.510
530.000	329.514	80.006	19.993	103.207	20.109	0.182	0.503
532.002	330.499	80.005	19.996	103.207	20.110	0.132	0.504
534.000	331.512	80.006	19.996	103.211	20.107	0.304	0.485
536.000	332.487	80.007	19.994	103.211	20.108	0.240	0.462
538.001	333.509	80.007	19.995	103.206	20.107	0.308	0.519
540.000	334.512	80.009	19.995	103.203	20.110	0.112	0.471
542.000	335.547	80.010	19.993	103.204	20.106	0.366	0.517
544.000	336.512	80.010	19.993	103.205	20.108	0.252	0.501
546.000	337.552	80.010	19.994	103.206	20.104	0.505	0.520
548.001	338.541	80.008	19.994	103.206	20.109	0.147	0.519
550.000	339.527	80.009	19.997	103.205	20.108	0.240	0.490
552.000	340.526	80.008	19.995	103.204	20.107	0.288	0.484
554.000	341.540	80.009	19.996	103.204	20.110	0.136	0.508
556.000	342.486	80.007	19.997	103.217	20.108	0.263	0.513
558.000	343.494	80.008	19.994	103.245	20.113	-0.076	0.502
560.000	344.511	80.009	19.996	103.319	20.117	-0.356	0.501
562.000	345.543	80.010	19.995	103.236	20.113	-0.118	0.537
564.000	346.535	80.008	19.993	103.208	20.110	0.095	0.509
566.000	347.545	80.010	19.994	103.206	20.109	0.211	0.522
568.000	348.542	80.012	19.996	103.204	20.108	0.275	0.519
570.001	349.529	80.013	19.992	103.205	20.107	0.292	0.508
572.000	350.576	80.009	19.993	103.206	20.108	0.283	0.512
574.000	351.594	80.008	19.996	103.207	20.108	0.271	0.490
576.000	352.565	80.007	19.992	103.209	20.110	0.093	0.478
578.000	353.597	80.008	19.995	103.207	20.107	0.302	0.504
580.000	354.628	80.007	19.994	103.206	20.106	0.366	0.525
582.000	355.616	80.008	19.995	103.206	20.106	0.376	0.477
584.000	356.615	80.008	19.994	103.207	20.107	0.327	0.500
586.000	357.639	80.007	19.995	103.209	20.110	0.122	0.484
588.000	358.638	80.006	19.994	103.205	20.103	0.577	0.470
590.000	359.711	80.008	19.995	103.135	20.104	0.507	0.528
592.000	360.659	80.006	19.994	103.185	20.101	0.707	0.494
594.000	361.668	80.007	19.995	103.193	20.102	0.683	0.474
596.000	362.708	80.007	19.995	103.205	20.101	0.740	0.514
598.000	363.719	80.006	19.994	103.203	20.103	0.602	0.499
600.000	364.719	80.007	19.995	103.197	20.095	1.148	0.540
602.000	365.750	80.008	19.995	103.208	20.098	0.951	0.498
604.000	366.822	80.007	19.995	103.204	20.097	1.032	0.540
606.000	367.789	80.007	19.997	103.203	20.092	1.355	0.489
608.000	368.808	80.007	19.995	103.203	20.093	1.282	0.516
610.000	369.840	80.007	19.994	103.204	20.091	1.473	0.522
612.000	370.849	80.008	19.996	103.206	20.091	1.427	0.521
614.000	371.848	80.007	19.994	103.208	20.085	1.857	0.483
616.000	372.901	80.006	19.995	103.208	20.080	2.196	0.541
618.000	373.947	80.007	19.995	103.208	20.077	2.401	0.551
620.000	374.973	80.007	19.996	103.210	20.072	2.763	0.526
622.000	375.979	80.006	19.996	103.208	20.070	2.891	0.483
624.000	377.014	80.006	19.995	103.207	20.059	3.671	0.520
626.000	378.016	80.007	19.996	103.207	20.054	4.039	0.523
628.000	379.034	80.007	19.995	103.207	20.046	4.587	0.494
630.000	380.091	80.006	19.996	103.206	20.038	5.166	0.516
632.000	381.104	80.007	19.995	103.209	20.030	5.717	0.514
634.000	382.172	80.008	19.994	103.215	20.023	6.233	0.537
636.000	383.208	80.008	19.993	103.220	20.014	6.816	0.535
638.000	384.253	80.007	19.995	103.213	20.011	7.060	0.487
640.000	385.307	80.007	19.995	103.212	20.002	7.678	0.516
642.000	386.339	80.007	19.996	103.226	19.997	8.063	0.512
644.001	387.361	80.008	19.994	103.245	19.987	8.744	0.529
646.000	388.359	80.010	19.995	103.249	19.977	9.418	0.501
648.000	389.410	80.009	19.993	103.248	19.966	10.188	0.489
650.000	390.442	80.008	19.996	103.248	19.954	11.066	0.504
652.000	391.498	80.009	19.993	103.248	19.936	12.331	0.523
654.000	392.508	80.010	19.994	103.254	19.925	13.128	0.502
656.000	393.566	80.008	19.994	103.271	19.911	14.073	0.526
658.000	394.607	80.008	19.995	103.284	19.893	15.354	0.501
660.000	395.626	80.006	19.994	103.287	19.869	17.047	0.506
662.000	396.704	80.007	19.994	103.288	19.850	18.382	0.532
664.000	397.678	80.006	19.995	103.289	19.828	19.893	0.499
666.000	398.709	80.006	19.995	103.290	19.806	21.432	0.542
668.000	399.725	80.006	19.995	103.290	19.786	22.863	0.547
670.000	400.747	80.006	19.995	103.297	19.762	24.552	0.521
672.000	401.790	80.007	19.998	103.313	19.731	26.713	0.527
674.000	402.811	80.006	19.994	103.318	19.706	28.462	0.495
676.000	403.832	80.007	19.995	103.309	19.681	30.244	0.504
678.000	404.831	80.008	19.993	103.313	19.659	31.807	0.492
680.000	405.882	80.008	19.994	103.325	19.632	33.688	0.527
682.000	406.878	80.007	19.995	103.332	19.613	35.070	0.504
684.000	407.975	80.007	19.994	103.354	19.587	36.880	0.537
686.000	408.925	80.008	19.995	103.365	19.556	39.052	0.485
688.000	409.974	80.007	19.995	103.372	19.530	40.906	0.526
690.000	410.958	80.006	19.995	103.385	19.499	43.061	0.490
692.000	412.031	80.006	19.996	103.401	19.469	45.180	0.517
694.000	412.991	80.006	19.996	103.385	19.434	47.682	0.500
696.000	414.015	80.007	19.997	103.398	19.394	50.499	0.507
698.000	415.000	80.007	19.995	103.405	19.356	53.198	0.487
700.000	415.985	80.008	19.995	103.419	19.316	56.022	0.507
702.000	416.979	80.007	19.995	103.453	19.279	58.623	0.476
704.000	417.989	80.008	19.994	103.475	19.229	62.115	0.482
706.000	418.997	80.008	19.995	103.497	19.183	65.400	0.483
708.000	420.036	80.008	19.995	103.520	19.135	68.778	0.520
710.000	420.995	80.008	19.998	103.533	19.085	72.291	0.489
712.000	422.022	80.007	19.993	103.547	19.035	75.868	0.514
714.000	423.051	80.007	19.993	103.567	18.976	80.010	0.511
716.000	424.020	80.007	19.993	103.601	18.912	84.590	0.485
718.000	424.991	80.008	19.995	103.621	18.845	89.296	0.504
720.000	426.055	80.006	19.995	103.643	18.784	93.640	0.515
722.000	427.033	80.007	19.994	103.645	18.717	98.387	0.494
724.000	428.057	80.008	19.995	103.656	18.653	102.939	0.524
726.000	429.045	80.007	19.993	103.686	18.584	107.847	0.500
728.000	430.050	80.009	19.994	103.732	18.514	112.777	0.495
730.000	431.007	80.008	19.994	103.770	18.437	118.208	0.491
732.000	432.017	80.011	19.994	103.794	18.364	123.424	0.489
734.000	433.026	80.010	19.992	103.809	18.289	128.746	0.495
736.000	434.038	80.009	19.994	103.826	18.219	133.706	0.512
738.000	435.113	80.008	19.992	103.845	18.156	138.215	0.562
740.000	436.100	80.008	19.993	103.859	18.108	141.647	0.513
742.000	437.111	80.007	19.994	103.871	18.058	145.220	0.515
744.000	438.092	80.007	19.995	103.890	18.026	147.471	0.474
746.000	439.142	80.008	19.996	103.910	17.989	150.047	0.535
748.000	440.122	80.006	19.995	103.946	17.945	153.183	0.493
750.000	441.157	80.006	19.995	103.986	17.901	156.320	0.513
752.000	442.141	80.006	19.996	104.014	17.854	159.690	0.506
754.000	443.213	80.008	19.995	104.025	17.812	162.661	0.567
756.000	444.128	80.008	19.993	104.013	17.774	165.360	0.470
758.000	445.212	80.007	19.995	103.996	17.733	168.273	0.533
760.000	446.233	80.007	19.994	104.012	17.704	170.279	0.504
762.000	447.175	80.007	19.993	104.039	17.678	172.055	0.511
764.000	448.226	80.007	19.991	104.047	17.660	173.326	0.502
766.000	449.265	80.009	19.993	104.050	17.653	173.784	0.518
768.000	450.282	80.008	19.994	104.059	17.654	173.735	0.493
770.000	451.296	80.006	19.994	104.052	17.671	172.459	0.540
772.000	452.293	80.007	19.993	104.038	17.698	170.528	0.521
774.000	453.332	80.006	19.992	104.026	17.740	167.479	0.552
776.000	454.335	80.006	19.994	104.011	17.796	163.454	0.519
778.000	455.370	80.005	19.993	103.992	17.862	158.719	0.523
780.000	456.409	80.006	19.995	103.971	17.944	152.939	0.540
782.000	457.396	80.008	19.994	103.950	18.035	146.419	0.520
784.000	458.440	80.007	19.995	103.927	18.139	139.052	0.524
786.000	459.469	80.008	19.994	103.884	18.252	131.051	0.510
788.000	460.514	80.009	19.993	103.840	18.371	122.578	0.515
790.000	461.565	80.008	19.993	103.799	18.492	114.083	0.498
792.000	462.582	80.008	19.994	103.771	18.615	105.381	0.519
794.000	463.598	80.008	19.995	103.730	18.753	95.617	0.534
796.000	464.608	80.008	19.994	103.679	18.892	85.825	0.529
798.000	465.608	80.009	19.994	103.642	19.019	76.802	0.511
800.000	466.649	80.008	19.996	103.612	19.144	68.030	0.530
802.000	467.718	80.006	19.996	103.596	19.251	60.487	0.505
804.000	468.756	80.007	19.995	103.568	19.350	53.506	0.510
806.000	469.790	80.008	19.997	103.524	19.438	47.338	0.535
808.001	470.776	80.008	19.998	103.477	19.515	41.942	0.530
810.000	471.857	80.006	19.996	103.446	19.583	37.147	0.516
812.000	472.841	80.009	19.995	103.426	19.645	32.730	0.477
814.000	473.934	80.008	19.995	103.399	19.699	28.975	0.533
816.000	474.943	80.009	19.995	103.374	19.745	25.732	0.532
818.000	475.988	80.008	19.997	103.359	19.785	22.943	0.510
820.000	477.003	80.009	19.994	103.337	19.823	20.238	0.493
822.000	478.027	80.007	19.995	103.320	19.863	17.466	0.536
824.000	479.021	80.007	19.995	103.313	19.888	15.671	0.486
826.000	480.055	80.006	19.995	103.302	19.915	13.766	0.508
828.000	481.095	80.007	19.995	103.288	19.939	12.115	0.505
830.000	482.101	80.006	19.994	103.285	19.962	10.461	0.515
832.000	483.124	80.005	19.994	103.282	19.981	9.192	0.490
834.001	484.154	80.005	19.995	103.270	19.995	8.149	0.513
836.000	485.235	80.006	19.994	103.253	20.012	6.963	0.536
838.000	486.246	80.008	19.994	103.249	20.025	6.051	0.514
840.000	487.238	80.008	19.993	103.248	20.034	5.456	0.499
842.000	488.299	80.007	19.994	103.245	20.044	4.749	0.515
844.000	489.375	80.005	19.994	103.240	20.058	3.776	0.524
846.000	490.378	80.007	19.993	103.228	20.067	3.144	0.487
848.000	491.373	80.006	19.994	103.215	20.075	2.589	0.515
850.000	492.435	80.006	19.993	103.216	20.078	2.383	0.516
852.001	493.459	80.005	19.994	103.214	20.083	1.983	0.513
854.000	494.479	80.006	19.993	103.212	20.093	1.315	0.519
856.000	495.512	80.006	19.993	103.213	20.097	1.018	0.525
858.000	496.593	80.008	19.993	103.212	20.103	0.588	0.531
860.000	497.622	80.007	19.994	103.209	20.107	0.314	0.535
862.000	498.635	80.006	19.995	103.207	20.112	-0.039	0.518
864.000	499.660	80.009	19.994	103.202	20.117	-0.375	0.511
866.000	500.718	80.008	19.994	103.197	20.118	-0.455	0.512
868.000	501.708	80.008	19.994	103.197	20.121	-0.674	0.503
870.000	502.745	80.007	19.993	103.187	20.121	-0.685	0.522
872.000	503.768	80.006	19.995	103.175	20.126	-0.981	0.478
874.000	504.834	80.006	19.995	103.179	20.126	-1.020	0.549
876.000	505.861	80.007	19.996	103.174	20.128	-1.148	0.502
878.000	506.910	80.006	19.996	103.169	20.133	-1.529	0.505
880.000	507.958	80.007	19.995	103.168	20.130	-1.270	0.550
882.000	508.899	80.009	19.995	103.167	20.133	-1.498	0.485
884.000	509.961	80.008	19.994	103.167	20.132	-1.469	0.495
886.001	510.974	80.008	19.994	103.167	20.132	-1.451	0.515
888.000	512.006	80.008	19.995	103.165	20.138	-1.868	0.517
890.000	512.988	80.008	19.994	103.167	20.138	-1.860	0.530
892.000	514.124	80.010	19.995	103.167	20.136	-1.726	0.575
894.000	515.118	80.008	19.995	103.166	20.133	-1.481	0.533
896.000	516.160	80.010	19.995	103.166	20.141	-2.052	0.535
898.000	517.138	80.007	19.994	103.162	20.138	-1.870	0.525
900.000	518.182	80.007	19.995	103.169	20.142	-2.139	0.539
902.000	519.284	80.007	19.995	103.170	20.142	-2.166	0.540
904.000	520.324	80.002	19.996	103.169	20.141	-2.048	0.553
906.000	521.303	80.007	19.996	103.169	20.142	-2.154	0.561
908.000	522.246	80.008	19.995	103.169	20.142	-2.108	0.481
910.000	523.452	80.008	19.995	103.169	20.140	-2.013	0.512
912.000	524.319	80.006	19.994	103.170	20.143	-2.210	0.518
914.000	525.490	80.007	19.994	103.172	20.145	-2.375	0.583
916.000	526.528	80.005	19.994	103.172	20.144	-2.286	0.664
918.000	527.446	80.005	19.993	103.168	20.147	-2.520	0.465
920.000	528.566	80.008	19.994	103.168	20.146	-2.423	0.321
922.000	529.671	80.007	19.995	103.171	20.143	-2.201	0.585
924.000	530.152	80.007	19.994	103.169	20.148	-2.551	-0.128
926.000	531.733	80.008	19.993	103.167	20.145	-2.363	0.278
928.000	532.546	80.008	19.994	103.163	20.146	-2.409	0.653
930.000	533.623	80.006	19.994	103.167	20.147	-2.475	0.350
932.000	534.783	80.008	19.994	103.168	20.149	-2.632	0.488
934.000	535.939	80.006	19.995	103.168	20.148	-2.572	0.480
936.001	536.858	80.006	19.995	103.167	20.149	-2.618	0.519
938.000	537.979	80.006	19.995	103.161	20.150	-2.725	0.584
940.000	539.038	80.007	19.995	103.165	20.152	-2.852	0.556
942.000	540.147	80.008	19.996	103.162	20.153	-2.920	0.507
944.000	541.274	80.008	19.994	103.168	20.152	-2.868	0.523
946.000	542.400	80.008	19.994	103.161	20.152	-2.839	0.585
948.000	543.426	80.008	19.993	103.162	20.152	-2.849	0.553
950.000	544.498	80.010	19.994	103.158	20.155	-3.063	0.536
952.000	545.545	80.010	19.994	103.160	20.150	-2.725	0.530
954.000	546.671	80.010	19.993	103.162	20.155	-3.044	0.507
956.000	547.789	80.008	19.993	103.162	20.155	-3.038	0.596
958.000	548.821	80.007	19.993	103.163	20.156	-3.118	0.522
960.000	549.927	80.007	19.994	103.156	20.157	-3.164	0.589
962.000	550.944	80.006	19.998	103.167	20.160	-3.431	0.511
964.000	552.041	80.007	19.995	103.160	20.154	-2.978	0.525
966.000	553.116	80.007	19.994	103.168	20.153	-2.937	0.509
968.000	554.178	80.007	19.995	103.163	20.153	-2.928	0.508
970.000	555.278	80.008	19.994	103.167	20.157	-3.187	0.548
972.000	556.379	80.008	19.994	103.158	20.155	-3.048	0.573
974.000	557.451	80.009	19.993	103.158	20.156	-3.104	0.540
976.000	558.464	80.009	19.994	103.153	20.158	-3.262	0.509
978.000	559.520	80.008	19.994	103.151	20.158	-3.270	0.539
980.000	560.585	80.009	19.996	103.155	20.155	-3.040	0.525
982.000	561.647	80.006	19.996	103.152	20.155	-3.043	0.578
984.000	562.677	80.007	19.995	103.156	20.156	-3.136	0.536
986.000	563.700	80.005	19.995	103.151	20.155	-3.038	0.514
988.000	564.708	80.006	19.995	103.148	20.157	-3.165	0.493
990.000	565.767	80.005	19.995	103.137	20.157	-3.198	0.536
992.000	566.826	80.005	19.995	103.134	20.154	-2.959	0.549
994.000	567.833	80.005	19.995	103.134	20.158	-3.257	0.506
996.000	568.859	80.008	19.995	103.141	20.153	-2.937	0.489
998.000	569.890	80.005	19.995	103.148	20.156	-3.109	0.505
1000.000	570.947	80.005	19.995	103.136	20.154	-2.984	0.508
1002.000	571.963	80.006	19.995	103.137	20.158	-3.230	0.547
1004.000	573.027	80.007	19.996	103.151	20.154	-3.008	0.524
1006.000	574.090	80.007	19.994	103.142	20.154	-2.993	0.540
1008.000	575.116	80.007	19.994	103.138	20.150	-2.709	0.543
1010.000	576.150	80.007	19.995	103.142	20.152	-2.819	0.483
1012.000	577.140	80.007	19.994	103.156	20.154	-2.997	0.510
1014.000	578.193	80.006	19.995	103.139	20.154	-2.981	0.501
1016.000	579.212	80.005	19.994	103.141	20.155	-3.067	0.526
1018.000	580.256	80.006	19.995	103.144	20.158	-3.231	0.534
1020.000	581.275	80.006	19.995	103.135	20.158	-3.278	0.506
1022.000	582.300	80.006	19.995	103.135	20.158	-3.254	0.534
1024.000	583.312	80.007	19.995	103.134	20.157	-3.198	0.519
1026.000	584.336	80.006	19.995	103.137	20.155	-3.036	0.517
1028.000	585.394	80.009	19.995	103.135	20.153	-2.929	0.534
1030.000	586.393	80.006	19.994	103.147	20.152	-2.804	0.538
1032.000	587.478	80.009	19.994	103.143	20.152	-2.834	0.528
1034.001	588.443	80.007	19.994	103.139	20.154	-3.011	0.516
1036.000	589.519	80.007	19.994	103.138	20.150	-2.705	0.488
1038.000	590.525	80.007	19.994	103.134	20.149	-2.655	0.511
1040.000	591.550	80.007	19.994	103.144	20.148	-2.548	0.512
1042.000	592.563	80.007	19.993	103.136	20.153	-2.921	0.522
1044.000	593.607	80.006	19.994	103.141	20.149	-2.594	0.511
1046.000	594.726	80.007	19.994	103.136	20.147	-2.463	0.520
1048.001	595.684	80.008	19.994	103.139	20.146	-2.447	0.519
1050.000	596.704	80.008	19.994	103.137	20.149	-2.633	0.511
1052.000	597.713	80.008	19.995	103.138	20.149	-2.645	0.521
1054.000	598.716	80.009	19.994	103.132	20.145	-2.370	0.506
1056.001	599.794	80.008	19.996	103.133	20.147	-2.459	0.505
1058.000	600.752	80.008	19.995	103.134	20.149	-2.621	0.475
1060.000	601.912	80.007	19.995	103.129	20.143	-2.217	0.578
1062.000	602.818	80.005	19.995	103.130	20.145	-2.318	0.481
1064.001	603.887	80.005	19.994	103.129	20.148	-2.561	0.516
1066.000	604.919	80.006	19.995	103.128	20.141	-2.033	0.532
1068.000	605.927	80.006	19.995	103.130	20.145	-2.337	0.516
1070.000	606.910	80.007	19.995	103.129	20.147	-2.517	0.500
1072.000	607.910	80.006	19.995	103.128	20.148	-2.544	0.500
1074.000	608.872	80.006	19.994	103.130	20.147	-2.482	0.481
1076.000	609.960	80.006	19.996	103.130	20.147	-2.474	0.490
1078.000	610.899	80.006	19.996	103.130	20.150	-2.697	0.473
1080.000	611.954	80.007	19.996	103.133	20.152	-2.848	0.476
1082.000	612.904	80.005	19.996	103.137	20.152	-2.823	0.446
1084.000	613.986	80.005	19.996	103.132	20.152	-2.838	0.519
1086.000	614.999	80.004	19.996	103.134	20.152	-2.865	0.504
1088.000	616.049	80.005	19.995	103.135	20.150	-2.730	0.490
1090.000	617.061	80.006	19.996	103.138	20.152	-2.809	0.522
1092.000	618.115	80.005	19.995	103.133	20.154	-2.983	0.507
1094.000	619.128	80.006	19.995	103.131	20.152	-2.858	0.514
1096.000	620.164	80.006	19.994	103.137	20.155	-3.026	0.525
1098.001	621.175	80.005	19.994	103.137	20.160	-3.384	0.504
1100.000	622.248	80.008	19.995	103.143	20.161	-3.444	0.521
1102.000	623.249	80.006	19.995	103.139	20.161	-3.459	0.522
1104.000	624.243	80.007	19.994	103.134	20.154	-2.977	0.490
1106.000	625.345	80.007	19.995	103.135	20.156	-3.146	0.542
1108.000	626.325	80.007	19.993	103.130	20.160	-3.417	0.501
1110.000	627.353	80.008	19.994	103.131	20.158	-3.248	0.506
1112.000	628.453	80.007	19.995	103.135	20.161	-3.434	0.513
1114.000	629.450	80.007	19.996	103.131	20.162	-3.517	0.507
1116.000	630.490	80.007	19.995	103.126	20.164	-3.687	0.508
1118.000	631.488	80.008	19.995	103.127	20.166	-3.848	0.490
1120.000	632.508	80.005	19.995	103.128	20.168	-3.933	0.512
1122.000	633.556	80.007	19.995	103.129	20.167	-3.896	0.516
1124.000	634.594	80.007	19.994	103.129	20.171	-4.184	0.529
1126.000	635.619	80.007	19.994	103.130	20.173	-4.275	0.534
1128.000	636.642	80.008	19.994	103.129	20.175	-4.438	0.527
1130.001	637.660	80.008	19.994	103.128	20.175	-4.451	0.517
1132.000	638.708	80.009	19.994	103.129	20.173	-4.277	0.514
1134.000	639.720	80.009	19.993	103.127	20.177	-4.560	0.524
1136.001	640.721	80.009	19.993	103.126	20.174	-4.353	0.511
1138.001	641.782	80.009	19.994	103.126	20.175	-4.465	0.526
1140.000	642.837	80.008	19.993	103.123	20.175	-4.425	0.527
1142.000	643.862	80.006	19.995	103.125	20.179	-4.732	0.475
1144.001	644.909	80.007	19.994	103.123	20.178	-4.653	0.526
1146.000	645.873	80.005	19.995	103.127	20.178	-4.647	0.487
1148.000	646.922	80.006	19.995	103.128	20.177	-4.603	0.526
1150.000	647.933	80.006	19.995	103.128	20.179	-4.740	0.499
1152.000	648.959	80.006	19.995	103.129	20.185	-5.117	0.527
1154.000	649.992	80.008	19.995	103.130	20.186	-5.229	0.511
1156.000	651.043	80.007	19.994	103.136	20.185	-5.155	0.510
1158.000	652.041	80.006	19.995	103.132	20.184	-5.082	0.487
1160.001	653.087	80.007	19.995	103.131	20.182	-4.945	0.522
1162.000	654.117	80.006	19.994	103.129	20.179	-4.755	0.483
1164.000	655.147	80.007	19.995	103.129	20.180	-4.794	0.523
1166.000	656.222	80.005	19.996	103.118	20.180	-4.769	0.531
1168.000	657.185	80.005	19.995	103.127	20.180	-4.794	0.485
1170.000	658.231	80.005	19.996	103.128	20.184	-5.055	0.521
1172.000	659.218	80.005	19.996	103.131	20.182	-4.933	0.525
1174.000	660.253	80.004	19.995	103.127	20.183	-4.989	0.500
1176.001	661.282	80.006	19.995	103.129	20.186	-5.244	0.517
1178.000	662.292	80.003	19.995	103.124	20.185	-5.147	0.513
1180.000	663.316	80.006	19.995	103.127	20.188	-5.333	0.499
1182.000	664.335	80.006	19.995	103.113	20.186	-5.202	0.484
1184.000	665.287	80.007	19.995	103.115	20.185	-5.178	0.550
1186.001	666.353	80.009	19.995	103.114	20.186	-5.199	0.759
1188.000	667.370	80.010	19.994	103.112	20.187	-5.300	0.476
1190.000	668.467	80.009	19.995	103.118	20.189	-5.455	0.494
1192.000	669.498	80.008	19.995	103.123	20.189	-5.450	0.524
1194.001	670.512	80.007	19.994	103.111	20.190	-5.473	0.543
1196.000	671.549	80.008	19.995	103.113	20.191	-5.604	0.522
1198.000	672.543	80.007	19.994	103.108	20.187	-5.256	0.475
1200.000	673.622	80.007	19.995	103.122	20.178	-4.658	0.538
1202.000	674.672	80.007	19.994	103.124	20.190	-5.475	0.528
1204.001	675.704	80.008	19.996	103.127	20.192	-5.647	0.509
1206.000	676.769	80.007	19.995	103.125	20.193	-5.715	0.507
1208.000	677.799	80.009	19.995	103.124	20.194	-5.812	0.519
1210.000	678.889	80.008	19.994	103.127	20.193	-5.726	0.505
1212.001	679.826	80.008	19.993	103.123	20.196	-5.917	0.489
1214.000	680.085	80.008	19.994	103.124	20.192	-5.632	0.299
1216.000	681.985	80.009	19.995	103.109	20.194	-5.803	0.448
1218.001	683.059	80.008	19.994	103.103	20.197	-6.006	0.628
1220.000	684.069	80.008	19.995	103.119	20.195	-5.834	0.497
1222.000	685.132	80.007	19.994	103.117	20.196	-5.908	0.561
1224.000	686.110	80.008	19.994	103.112	20.197	-5.994	0.509
1226.000	687.181	80.006	19.994	103.113	20.202	-6.329	0.498
1228.000	688.146	80.006	19.994	103.109	20.198	-6.083	0.492
1230.000	689.149	80.006	19.995	103.105	20.199	-6.131	0.537
1232.001	690.167	80.004	19.995	103.123	20.199	-6.147	0.515
1234.000	691.183	80.006	19.995	103.121	20.198	-6.079	0.525
1236.000	692.189	80.006	19.995	103.109	20.199	-6.161	0.504
1238.000	693.176	80.008	19.994	103.113	20.199	-6.132	0.516
1240.000	694.209	80.006	19.996	103.107	20.198	-6.057	0.490
1242.000	695.162	80.008	19.996	103.110	20.199	-6.147	0.504
1244.000	696.179	80.006	19.995	103.100	20.200	-6.178	0.521
1246.000	697.149	80.007	19.994	103.110	20.200	-6.172	0.511
1248.000	698.152	80.007	19.995	103.115	20.200	-6.207	0.460
1250.000	699.133	80.006	19.996	103.116	20.201	-6.296	0.514
1252.000	700.150	80.007	19.995	103.116	20.202	-6.307	0.501
1254.000	701.076	80.005	19.995	103.110	20.203	-6.397	0.470
1256.000	702.093	80.006	19.996	103.107	20.203	-6.391	0.529
1258.000	703.053	80.005	19.996	103.101	20.203	-6.404	0.483
1260.000	704.085	80.006	19.995	103.109	20.201	-6.303	0.486
1262.000	705.028	80.005	19.997	103.099	20.205	-6.538	0.477
1264.001	706.050	80.007	19.996	103.111	20.203	-6.437	0.474
1266.000	707.039	80.008	19.996	103.108	20.202	-6.348	0.509
1268.001	708.047	80.008	19.995	103.105	20.204	-6.460	0.509
1270.000	709.030	80.007	19.995	103.096	20.200	-6.205	0.506
1272.001	710.030	80.008	19.996	103.100	20.205	-6.575	0.460
1274.000	711.045	80.007	19.995	103.104	20.203	-6.445	0.498
1276.000	712.049	80.007	19.994	103.105	20.198	-6.048	0.513
1278.000	713.076	80.007	19.993	103.099	20.204	-6.458	0.522
1280.000	714.063	80.008	19.995	103.102	20.204	-6.488	0.500
1282.000	715.061	80.009	19.995	103.112	20.204	-6.510	0.531
1284.001	716.121	80.006	19.993	103.105	20.203	-6.410	0.533
1286.000	717.136	80.007	19.994	103.108	20.208	-6.746	0.487
1288.000	718.112	80.008	19.994	103.096	20.206	-6.594	0.483
1290.000	719.045	80.007	19.994	103.108	20.209	-6.843	0.452
1292.000	720.146	80.008	19.995	103.119	20.210	-6.918	0.564
1294.001	721.169	80.008	19.995	103.116	20.208	-6.763	0.523
1296.000	722.205	80.008	19.995	103.113	20.207	-6.704	0.544
1298.000	723.202	80.007	19.994	103.104	20.207	-6.688	0.495
1300.001	724.250	80.007	19.994	103.107	20.209	-6.864	0.540
1302.001	725.273	80.006	19.994	103.102	20.208	-6.755	0.498
1304.000	726.302	80.006	19.995	103.100	20.209	-6.832	0.532
1306.000	727.354	80.006	19.994	103.101	20.208	-6.779	0.520
1308.001	728.402	80.007	19.994	103.096	20.211	-6.949	0.508
1310.000	729.416	80.008	19.994	103.102	20.211	-6.961	0.507
1312.000	730.441	80.007	19.995	103.093	20.209	-6.858	0.503
1314.000	731.461	80.006	19.995	103.100	20.204	-6.500	0.531
1316.000	732.538	80.006	19.994	103.110	20.207	-6.661	0.549
1318.001	733.588	80.006	19.994	103.097	20.205	-6.578	0.524
1320.000	734.640	80.007	19.994	103.102	20.210	-6.874	0.528
1322.001	735.669	80.006	19.994	103.096	20.207	-6.688	0.518
1324.000	736.689	80.007	19.995	103.094	20.211	-6.995	0.509
1326.001	737.737	80.006	19.996	103.094	20.207	-6.661	0.512
1328.000	738.761	80.007	19.994	103.103	20.210	-6.872	0.484
1330.000	739.824	80.006	19.996	103.089	20.207	-6.685	0.520
1332.000	740.868	80.005	19.996	103.107	20.207	-6.673	0.505
1334.000	741.917	80.005	19.996	103.096	20.209	-6.860	0.503
1336.000	742.953	80.005	19.996	103.093	20.208	-6.781	0.534
1337.001	743.475	80.005	19.995	103.095	20.209	-6.808	0.521