File: 01_Data/Polyester_Bed_Skirt/MCC/Polyester_Bed_Skirt_MCC_30K_min_211209_R3.txt
Sample ID:	C:\MCC\MCC Cal\Test\Polyester_Bed_Skirt_MCC_30K_min_211209_R3.txt
Sample Weight (mg):	4.35
Heating Rate (C/s):	0.5
Combustor Temp (C):	900
N2 Flow Rate (cc/min):	80
O2 Flow Rate (cc/min):	20
Calibration File:	C:\MCC\MCC Cal\Coeff1 JN10440_30_210304.txt.txt
T Correction Coefficients:	0	1.024463	0
Time Shift (s):	14
*
Time (s)	Temperature (C)	N2 flow rate (cc/min)	O2 flow rate (cc/min)	Flow Rate (cc/min)	Oxygen (%)	HRR (W/g)	Heating rate (C/s)
0.000	109.609	80.006	19.995	103.066	20.115	-0.454	-0.010
2.000	109.570	80.007	19.996	103.080	20.111	-0.207	-0.042
4.000	109.573	80.009	19.997	103.071	20.107	0.095	-0.007
6.000	109.564	80.007	19.997	103.078	20.109	-0.057	-0.014
8.001	109.556	80.006	19.996	103.071	20.112	-0.231	-0.001
9.999	109.533	80.006	19.996	103.071	20.109	-0.032	-0.012
12.001	109.550	80.007	19.996	103.066	20.107	0.103	0.037
14.000	109.531	80.007	19.996	103.079	20.111	-0.211	-0.009
15.999	109.530	80.006	19.994	103.094	20.106	0.211	-0.053
18.000	109.506	80.007	19.995	103.113	20.103	0.434	-0.020
20.000	109.554	80.009	19.993	103.164	20.095	0.981	0.003
22.000	109.631	80.010	19.995	103.209	20.091	1.320	0.022
24.000	109.697	80.009	19.994	103.232	20.090	1.409	0.033
26.000	109.784	80.009	19.995	103.267	20.079	2.199	0.053
28.000	109.963	80.007	19.994	103.227	20.078	2.287	0.087
30.000	110.111	80.006	19.994	103.328	20.072	2.687	0.082
32.000	110.384	80.007	19.995	103.316	20.071	2.812	0.117
34.000	110.611	80.006	19.994	103.309	20.071	2.806	0.130
35.999	110.943	80.007	19.994	103.323	20.072	2.682	0.147
38.001	111.267	80.005	19.994	103.323	20.070	2.879	0.152
40.000	111.589	80.006	19.993	103.328	20.065	3.249	0.163
42.000	112.007	80.005	19.996	103.329	20.069	2.932	0.203
43.999	112.408	80.005	19.994	103.326	20.065	3.196	0.220
46.001	112.871	80.007	19.993	103.318	20.067	3.068	0.230
48.000	113.362	80.009	19.994	103.319	20.069	2.959	0.240
49.999	113.891	80.008	19.994	103.324	20.068	3.040	0.275
51.999	114.377	80.006	19.994	103.324	20.065	3.249	0.283
53.999	114.910	80.007	19.995	103.324	20.067	3.062	0.258
55.999	115.493	80.008	19.995	103.321	20.068	3.009	0.297
58.000	116.025	80.007	19.994	103.321	20.069	2.932	0.281
60.000	116.616	80.005	19.995	103.323	20.065	3.194	0.313
61.999	117.200	80.007	19.996	103.325	20.069	2.957	0.335
63.999	117.899	80.007	19.995	103.325	20.066	3.146	0.347
66.001	118.489	80.006	19.995	103.325	20.064	3.324	0.321
67.999	119.110	80.006	19.995	103.327	20.062	3.422	0.320
70.000	119.813	80.005	19.995	103.325	20.066	3.133	0.373
71.999	120.539	80.007	19.997	103.326	20.065	3.243	0.323
73.999	121.194	80.006	19.997	103.327	20.064	3.335	0.359
76.001	121.926	80.007	19.995	103.338	20.068	3.036	0.332
78.000	122.703	80.006	19.992	103.330	20.066	3.189	0.362
79.999	123.450	80.009	19.996	103.329	20.067	3.104	0.398
82.000	124.190	80.008	19.995	103.332	20.065	3.221	0.374
83.999	125.010	80.008	19.996	103.340	20.064	3.301	0.406
85.999	125.773	80.009	19.994	103.337	20.065	3.227	0.386
87.999	126.589	80.006	19.994	103.338	20.065	3.243	0.379
89.999	127.418	80.007	19.995	103.352	20.064	3.297	0.419
92.000	128.228	80.007	19.994	103.342	20.064	3.278	0.420
93.999	129.137	80.006	19.995	103.353	20.062	3.422	0.461
95.999	129.899	80.006	19.995	103.344	20.061	3.498	0.416
97.999	130.762	80.005	19.996	103.337	20.066	3.173	0.455
100.000	131.626	80.008	19.994	103.347	20.067	3.089	0.474
102.000	132.480	80.008	19.995	103.352	20.070	2.857	0.376
103.999	133.409	80.009	19.996	103.346	20.067	3.087	0.452
106.000	134.298	80.010	19.996	103.355	20.063	3.343	0.465
107.999	135.191	80.008	19.994	103.346	20.062	3.485	0.449
110.001	136.088	80.008	19.994	103.354	20.067	3.083	0.471
112.000	137.031	80.009	19.995	103.342	20.073	2.624	0.455
113.999	137.956	80.007	19.994	103.341	20.066	3.186	0.467
116.000	138.859	80.006	19.996	103.349	20.063	3.384	0.441
117.999	139.817	80.007	19.994	103.335	20.063	3.376	0.474
120.000	140.750	80.005	19.995	103.331	20.066	3.128	0.450
122.000	141.667	80.005	19.995	103.331	20.061	3.546	0.429
124.001	142.704	80.006	19.994	103.333	20.065	3.225	0.536
125.999	143.611	80.007	19.994	103.343	20.067	3.091	0.468
127.999	144.650	80.005	19.998	103.344	20.066	3.129	0.487
130.000	145.556	80.007	19.995	103.347	20.068	3.028	0.462
132.000	146.555	80.007	19.995	103.339	20.066	3.168	0.500
134.000	147.574	80.006	19.997	103.336	20.064	3.292	0.492
136.000	148.539	80.007	19.996	103.336	20.062	3.471	0.496
138.000	149.551	80.008	19.995	103.325	20.064	3.278	0.519
140.000	150.564	80.008	19.992	103.326	20.065	3.221	0.498
142.000	151.589	80.007	19.995	103.331	20.063	3.407	0.508
144.000	152.570	80.006	19.994	103.335	20.065	3.255	0.512
146.000	153.576	80.006	19.996	103.326	20.064	3.318	0.483
148.000	154.524	80.005	19.995	103.332	20.066	3.153	0.455
150.000	155.526	80.008	19.993	103.329	20.069	2.928	0.503
152.000	156.553	80.006	19.995	103.325	20.067	3.101	0.524
154.000	157.545	80.006	19.995	103.333	20.066	3.147	0.497
156.000	158.550	80.007	19.997	103.334	20.072	2.719	0.473
158.000	159.556	80.007	19.995	103.314	20.071	2.769	0.486
160.000	160.576	80.008	19.995	103.327	20.072	2.674	0.507
162.000	161.624	80.007	19.997	103.323	20.072	2.723	0.532
164.000	162.605	80.006	19.996	103.326	20.071	2.782	0.512
166.000	163.587	80.008	19.994	103.325	20.072	2.682	0.501
168.000	164.634	80.009	19.997	103.309	20.075	2.521	0.513
170.000	165.686	80.007	19.996	103.320	20.074	2.562	0.530
172.000	166.654	80.006	19.994	103.310	20.075	2.477	0.498
174.000	167.683	80.008	19.992	103.320	20.074	2.556	0.528
176.000	168.658	80.008	19.994	103.319	20.074	2.558	0.500
178.000	169.706	80.007	19.995	103.302	20.074	2.533	0.519
180.000	170.685	80.007	19.996	103.296	20.075	2.493	0.509
182.000	171.655	80.008	19.996	103.297	20.073	2.619	0.495
184.000	172.683	80.009	19.995	103.288	20.076	2.424	0.501
186.000	173.668	80.010	19.994	103.299	20.073	2.619	0.520
188.000	174.666	80.009	19.994	103.288	20.074	2.527	0.501
190.000	175.623	80.011	19.996	103.293	20.077	2.367	0.458
192.000	176.593	80.010	19.996	103.286	20.073	2.625	0.460
194.000	177.661	80.009	19.995	103.295	20.073	2.665	0.500
196.000	178.619	80.007	19.995	103.286	20.075	2.493	0.471
198.000	179.613	80.007	19.997	103.287	20.070	2.822	0.488
200.000	180.552	80.006	19.995	103.287	20.071	2.811	0.461
202.000	181.578	80.007	19.996	103.288	20.072	2.738	0.500
204.000	182.571	80.006	19.995	103.287	20.074	2.529	0.496
206.000	183.553	80.008	19.994	103.291	20.074	2.594	0.497
208.000	184.492	80.005	19.996	103.290	20.072	2.718	0.491
210.000	185.499	80.006	19.995	103.286	20.071	2.809	0.509
212.000	186.476	80.007	19.994	103.288	20.076	2.434	0.512
214.000	187.497	80.008	19.995	103.288	20.072	2.708	0.508
216.000	188.422	80.008	19.994	103.293	20.075	2.515	0.436
218.000	189.445	80.009	19.994	103.289	20.076	2.381	0.500
220.000	190.391	80.005	19.993	103.289	20.074	2.565	0.492
222.000	191.437	80.006	19.995	103.288	20.074	2.534	0.522
224.000	192.363	80.006	19.995	103.289	20.072	2.698	0.477
226.000	193.411	80.006	19.993	103.288	20.080	2.148	0.537
228.000	194.313	80.007	19.995	103.289	20.072	2.712	0.450
230.000	195.348	80.007	19.995	103.269	20.073	2.641	0.516
232.000	196.316	80.003	19.995	103.231	20.075	2.511	0.486
234.000	197.307	80.004	19.996	103.344	20.079	2.208	0.484
236.000	198.249	80.007	19.994	103.288	20.081	2.070	0.451
238.000	199.213	80.007	19.994	103.288	20.077	2.306	0.484
240.000	200.247	80.007	19.993	103.290	20.081	2.056	0.515
242.000	201.173	80.007	19.994	103.289	20.082	1.987	0.460
244.001	202.198	80.008	19.994	103.282	20.079	2.158	0.479
246.000	203.177	80.007	19.994	103.286	20.082	1.979	0.487
248.000	204.166	80.009	19.994	103.286	20.078	2.265	0.486
250.000	205.143	80.007	19.995	103.282	20.080	2.119	0.488
252.000	206.131	80.008	19.994	103.277	20.079	2.186	0.508
254.000	207.132	80.008	19.996	103.279	20.078	2.267	0.502
256.000	208.120	80.009	19.995	103.281	20.075	2.462	0.489
258.000	209.085	80.008	19.995	103.278	20.075	2.480	0.491
260.000	210.039	80.008	19.995	103.279	20.074	2.551	0.489
262.000	211.047	80.007	19.995	103.276	20.079	2.224	0.514
264.000	212.027	80.007	19.994	103.277	20.077	2.361	0.524
266.000	213.003	80.008	19.994	103.277	20.079	2.154	0.521
268.000	213.994	80.009	19.994	103.281	20.085	1.782	0.509
270.000	214.944	80.006	19.995	103.278	20.082	1.983	0.462
272.000	215.935	80.008	19.995	103.271	20.085	1.762	0.472
274.000	216.939	80.008	19.996	103.275	20.086	1.662	0.482
276.000	217.921	80.009	19.994	103.281	20.087	1.612	0.534
278.000	218.891	80.009	19.994	103.281	20.085	1.766	0.523
280.000	219.927	80.008	19.995	103.280	20.085	1.765	0.485
282.000	220.888	80.007	19.995	103.269	20.082	1.974	0.487
284.000	221.906	80.007	19.997	103.281	20.083	1.884	0.486
286.000	222.918	80.006	19.996	103.282	20.085	1.715	0.506
288.000	223.907	80.006	19.995	103.285	20.085	1.756	0.509
290.000	224.876	80.005	19.996	103.266	20.085	1.770	0.464
292.000	225.887	80.005	19.995	103.225	20.085	1.764	0.509
294.000	226.850	80.006	19.995	103.313	20.084	1.802	0.480
296.000	227.879	80.005	19.996	103.287	20.089	1.475	0.507
298.000	228.875	80.005	19.995	103.266	20.088	1.557	0.480
300.000	229.904	80.006	19.995	103.281	20.087	1.622	0.514
302.000	230.882	80.005	19.995	103.282	20.088	1.516	0.516
304.000	231.878	80.007	19.994	103.278	20.092	1.211	0.506
306.000	232.903	80.006	19.996	103.270	20.086	1.692	0.493
308.000	233.953	80.008	19.994	103.263	20.088	1.520	0.520
310.000	234.937	80.007	19.994	103.263	20.091	1.317	0.505
312.000	235.970	80.005	19.995	103.271	20.092	1.197	0.520
314.000	236.945	80.006	19.995	103.264	20.091	1.307	0.509
316.000	238.011	80.008	19.995	103.255	20.090	1.384	0.548
318.000	239.026	80.005	19.995	103.261	20.090	1.404	0.530
320.000	239.994	80.005	19.994	103.257	20.092	1.256	0.500
322.000	240.998	80.008	19.994	103.258	20.090	1.349	0.499
324.000	242.053	80.007	19.995	103.252	20.093	1.159	0.518
326.000	243.024	80.010	19.995	103.260	20.089	1.483	0.480
328.000	244.081	80.010	19.993	103.249	20.092	1.242	0.533
330.000	245.059	80.007	19.994	103.249	20.087	1.591	0.539
332.000	246.035	80.007	19.994	103.249	20.091	1.280	0.469
334.000	247.050	80.009	19.993	103.249	20.092	1.222	0.517
336.000	248.026	80.009	19.994	103.247	20.090	1.384	0.504
338.000	249.060	80.009	19.995	103.247	20.092	1.222	0.526
340.000	250.070	80.007	19.995	103.250	20.091	1.309	0.513
342.000	251.097	80.006	19.994	103.249	20.100	0.657	0.504
344.000	252.053	80.008	19.994	103.251	20.098	0.791	0.503
346.000	253.055	80.007	19.994	103.252	20.098	0.810	0.507
348.000	254.023	80.009	19.994	103.254	20.099	0.694	0.501
350.000	255.007	80.006	19.995	103.252	20.099	0.716	0.487
352.000	256.001	80.009	19.994	103.250	20.098	0.747	0.479
354.000	257.005	80.009	19.994	103.249	20.104	0.333	0.501
356.000	258.005	80.007	19.995	103.248	20.099	0.690	0.502
358.000	258.993	80.008	19.994	103.256	20.097	0.858	0.483
360.000	259.971	80.007	19.995	103.253	20.097	0.838	0.520
362.000	260.968	80.007	19.994	103.249	20.098	0.787	0.499
364.000	261.959	80.005	19.994	103.246	20.100	0.655	0.514
366.000	262.967	80.007	19.995	103.251	20.096	0.897	0.491
368.000	263.965	80.009	19.995	103.252	20.096	0.964	0.486
370.000	264.879	80.007	19.993	103.252	20.100	0.605	0.458
372.000	265.852	80.007	19.995	103.249	20.094	1.065	0.471
374.000	266.850	80.004	19.996	103.251	20.100	0.637	0.478
376.000	267.846	80.005	19.995	103.250	20.094	1.112	0.485
378.000	268.858	80.007	19.995	103.250	20.096	0.946	0.514
380.000	269.834	80.007	19.995	103.247	20.101	0.578	0.496
382.000	270.876	80.006	19.996	103.246	20.096	0.964	0.533
384.000	271.914	80.006	19.995	103.246	20.096	0.897	0.513
386.000	272.866	80.005	19.995	103.245	20.099	0.678	0.461
388.000	273.858	80.005	19.995	103.245	20.099	0.730	0.527
390.000	274.812	80.007	19.997	103.244	20.098	0.777	0.502
392.000	275.851	80.007	19.995	103.246	20.097	0.889	0.492
394.000	276.852	80.008	19.995	103.246	20.097	0.834	0.512
396.000	277.842	80.007	19.995	103.241	20.095	1.021	0.482
398.000	278.893	80.007	19.995	103.247	20.099	0.696	0.520
400.000	279.859	80.007	19.995	103.244	20.097	0.844	0.497
402.000	280.872	80.007	19.994	103.242	20.098	0.767	0.485
404.000	281.879	80.006	19.997	103.247	20.098	0.759	0.512
406.000	282.873	80.008	19.995	103.243	20.100	0.670	0.493
408.000	283.932	80.007	19.994	103.246	20.099	0.674	0.542
410.000	284.892	80.008	19.994	103.240	20.100	0.651	0.472
412.000	285.936	80.008	19.994	103.248	20.099	0.724	0.522
414.000	286.914	80.009	19.994	103.237	20.102	0.521	0.475
416.000	287.929	80.009	19.994	103.245	20.101	0.574	0.485
418.000	288.945	80.008	19.993	103.242	20.106	0.179	0.510
420.000	289.935	80.008	19.995	103.242	20.104	0.308	0.505
422.000	290.990	80.007	19.996	103.243	20.101	0.544	0.492
424.000	292.029	80.008	19.995	103.238	20.102	0.515	0.532
426.000	293.000	80.008	19.994	103.243	20.107	0.124	0.521
428.000	294.021	80.006	19.993	103.238	20.105	0.237	0.483
430.000	295.049	80.007	19.994	103.243	20.103	0.434	0.514
432.000	296.064	80.008	19.993	103.230	20.107	0.120	0.540
434.000	297.064	80.008	19.996	103.233	20.104	0.369	0.517
436.000	298.076	80.008	19.993	103.243	20.103	0.414	0.485
438.000	299.074	80.010	19.995	103.236	20.103	0.400	0.508
440.000	300.098	80.009	19.995	103.242	20.102	0.467	0.511
442.000	301.084	80.009	19.994	103.237	20.102	0.471	0.502
444.000	302.107	80.008	19.996	103.238	20.107	0.093	0.507
446.000	303.115	80.008	19.995	103.233	20.104	0.325	0.512
448.000	304.114	80.006	19.995	103.220	20.108	0.045	0.459
450.000	305.119	80.006	19.995	103.220	20.107	0.101	0.506
452.000	306.112	80.007	19.995	103.216	20.106	0.223	0.503
454.000	307.124	80.006	19.995	103.239	20.108	0.045	0.491
456.000	308.139	80.006	19.994	103.229	20.108	0.075	0.474
458.000	309.157	80.008	19.995	103.233	20.110	-0.079	0.548
460.000	310.148	80.007	19.994	103.234	20.111	-0.156	0.514
462.000	311.179	80.006	19.995	103.225	20.105	0.266	0.523
464.000	312.194	80.007	19.995	103.226	20.109	0.002	0.488
466.000	313.222	80.005	19.995	103.213	20.110	-0.140	0.508
468.000	314.285	80.008	19.993	103.226	20.114	-0.420	0.527
470.000	315.251	80.008	19.994	103.229	20.110	-0.136	0.487
472.000	316.260	80.006	19.995	103.223	20.106	0.160	0.528
474.000	317.271	80.006	19.995	103.221	20.112	-0.247	0.498
476.000	318.296	80.006	19.994	103.236	20.115	-0.458	0.484
478.000	319.332	80.005	19.995	103.218	20.117	-0.653	0.506
480.000	320.374	80.005	19.996	103.226	20.117	-0.600	0.530
482.000	321.398	80.005	19.997	103.217	20.119	-0.805	0.524
484.000	322.348	80.007	19.996	103.223	20.116	-0.550	0.489
486.000	323.383	80.005	19.997	103.218	20.118	-0.712	0.500
488.000	324.396	80.006	19.996	103.218	20.114	-0.438	0.529
490.000	325.412	80.006	19.994	103.219	20.113	-0.300	0.517
492.000	326.468	80.006	19.994	103.219	20.116	-0.534	0.529
494.000	327.479	80.008	19.996	103.215	20.115	-0.473	0.496
496.000	328.465	80.008	19.996	103.214	20.116	-0.576	0.505
498.000	329.432	80.007	19.994	103.217	20.119	-0.803	0.518
500.000	330.469	80.007	19.994	103.226	20.119	-0.769	0.511
502.000	331.445	80.007	19.994	103.233	20.119	-0.756	0.510
504.000	332.422	80.006	19.995	103.214	20.117	-0.604	0.482
506.000	333.450	80.007	19.995	103.209	20.115	-0.483	0.498
508.000	334.498	80.008	19.994	103.219	20.116	-0.556	0.530
510.000	335.456	80.007	19.996	103.213	20.113	-0.308	0.500
512.000	336.496	80.007	19.996	103.217	20.112	-0.219	0.511
514.000	337.491	80.005	19.995	103.150	20.111	-0.146	0.502
516.000	338.513	80.009	19.995	103.211	20.111	-0.215	0.517
518.000	339.484	80.009	19.995	103.275	20.115	-0.450	0.488
520.000	340.483	80.009	19.996	103.216	20.114	-0.406	0.509
522.000	341.485	80.009	19.994	103.214	20.114	-0.398	0.497
524.000	342.457	80.010	19.994	103.209	20.110	-0.091	0.508
526.000	343.489	80.008	19.994	103.208	20.115	-0.471	0.496
528.000	344.447	80.009	19.996	103.226	20.110	-0.124	0.489
530.000	345.477	80.008	19.995	103.209	20.113	-0.316	0.539
532.000	346.463	80.006	19.995	103.209	20.115	-0.493	0.497
534.000	347.453	80.006	19.995	103.212	20.111	-0.187	0.483
536.000	348.496	80.006	19.995	103.213	20.112	-0.282	0.531
538.000	349.493	80.007	19.995	103.209	20.112	-0.252	0.527
540.000	350.500	80.006	19.996	103.217	20.109	-0.039	0.507
542.000	351.486	80.007	19.996	103.218	20.108	0.018	0.480
544.000	352.488	80.005	19.996	103.212	20.106	0.183	0.520
546.000	353.544	80.007	19.996	103.219	20.110	-0.081	0.512
548.000	354.560	80.005	19.995	103.210	20.110	-0.136	0.509
550.000	355.549	80.007	19.995	103.223	20.115	-0.450	0.499
552.000	356.525	80.007	19.995	103.221	20.111	-0.191	0.477
554.000	357.557	80.009	19.996	103.220	20.108	0.039	0.510
556.000	358.565	80.008	19.995	103.220	20.108	0.065	0.507
558.000	359.568	80.006	19.995	103.213	20.112	-0.231	0.503
560.000	360.592	80.004	19.995	103.223	20.108	0.020	0.505
562.000	361.638	80.006	19.996	103.220	20.108	0.024	0.538
564.000	362.677	80.005	19.996	103.220	20.108	0.026	0.525
566.000	363.697	80.005	19.994	103.224	20.104	0.310	0.500
568.000	364.713	80.004	19.995	103.217	20.102	0.450	0.528
570.000	365.727	80.005	19.996	103.219	20.103	0.414	0.506
572.000	366.750	80.005	19.996	103.214	20.099	0.712	0.504
574.000	367.746	80.007	19.996	103.213	20.093	1.130	0.476
576.000	368.769	80.006	19.997	103.213	20.092	1.252	0.517
578.000	369.860	80.008	19.996	103.211	20.090	1.347	0.551
580.000	370.820	80.007	19.996	103.210	20.087	1.601	0.554
582.000	371.863	80.008	19.996	103.230	20.086	1.674	0.518
584.000	372.915	80.007	19.995	103.223	20.084	1.840	0.518
586.000	373.904	80.008	19.993	103.218	20.076	2.430	0.537
588.000	374.868	80.008	19.994	103.234	20.072	2.678	0.511
590.000	375.877	80.006	19.995	103.226	20.071	2.776	0.524
592.000	376.933	80.009	19.995	103.233	20.065	3.194	0.463
594.000	377.997	80.008	19.994	103.236	20.063	3.370	0.511
596.000	379.005	80.008	19.995	103.220	20.050	4.350	0.533
598.000	380.068	80.007	19.995	103.227	20.044	4.770	0.494
600.000	381.013	80.009	19.995	103.244	20.044	4.764	0.432
602.000	382.046	80.008	19.994	103.242	20.039	5.124	0.439
604.000	383.176	80.009	19.995	103.241	20.028	5.978	0.548
606.000	384.217	80.010	19.995	103.242	20.022	6.410	0.641
608.000	385.279	80.009	19.995	103.247	20.011	7.250	0.550
610.000	386.210	80.008	19.995	103.247	20.004	7.738	0.212
612.000	387.171	80.007	19.995	103.255	19.993	8.580	0.524
614.000	388.574	80.007	19.996	103.249	19.982	9.406	0.522
616.000	389.246	80.006	19.995	103.254	19.971	10.156	0.438
618.000	390.346	80.005	19.994	103.256	19.955	11.384	0.484
620.000	391.276	80.005	19.995	103.281	19.944	12.186	0.512
622.000	392.388	80.005	19.994	103.280	19.924	13.688	0.484
624.000	393.328	80.005	19.995	103.284	19.908	14.846	0.496
626.000	394.416	80.006	19.995	103.289	19.891	16.154	0.503
628.000	395.405	80.006	19.994	103.302	19.874	17.388	0.485
630.000	396.494	80.007	19.994	103.301	19.852	19.036	0.469
632.000	397.462	80.006	19.995	103.302	19.833	20.436	0.504
634.000	398.538	80.007	19.995	103.313	19.810	22.146	0.493
636.000	399.481	80.008	19.995	103.328	19.784	24.028	0.500
638.000	400.540	80.007	19.996	103.327	19.763	25.606	0.524
640.000	401.600	80.007	19.995	103.330	19.733	27.838	0.517
642.000	402.714	80.007	19.996	103.351	19.705	29.938	0.567
644.000	403.709	80.006	19.995	103.333	19.686	31.349	0.544
646.000	404.771	80.005	19.994	103.327	19.671	32.417	0.527
648.000	405.801	80.005	19.995	103.354	19.648	34.152	0.498
650.000	406.785	80.007	19.995	103.378	19.619	36.329	0.518
652.000	407.836	80.006	19.994	103.404	19.596	38.010	0.527
654.000	408.869	80.007	19.995	103.414	19.566	40.298	0.518
656.000	409.868	80.007	19.995	103.403	19.537	42.414	0.506
658.000	410.940	80.007	19.994	103.408	19.508	44.600	0.538
660.000	411.950	80.007	19.994	103.433	19.477	46.851	0.514
662.000	412.947	80.008	19.995	103.441	19.444	49.309	0.497
664.000	413.974	80.007	19.994	103.460	19.403	52.418	0.513
666.000	414.931	80.007	19.996	103.479	19.362	55.459	0.488
668.000	415.945	80.007	19.996	103.488	19.318	58.731	0.501
670.000	417.000	80.006	19.996	103.509	19.274	61.998	0.523
672.000	418.027	80.007	19.995	103.514	19.233	65.065	0.521
674.000	418.970	80.007	19.996	103.522	19.190	68.242	0.453
676.000	419.992	80.006	19.995	103.543	19.146	71.561	0.495
678.000	421.025	80.007	19.994	103.570	19.089	75.810	0.496
680.000	422.051	80.007	19.993	103.611	19.031	80.145	0.498
682.000	423.048	80.009	19.994	103.612	18.975	84.368	0.500
684.000	424.064	80.008	19.995	103.612	18.916	88.757	0.527
686.000	424.987	80.008	19.994	103.616	18.860	92.946	0.466
688.000	425.997	80.008	19.994	103.626	18.806	96.987	0.472
690.000	427.017	80.007	19.994	103.678	18.738	102.051	0.486
692.000	427.975	80.007	19.994	103.716	18.676	106.680	0.460
694.000	429.022	80.008	19.995	103.748	18.606	111.954	0.509
696.000	430.040	80.006	19.994	103.764	18.536	117.167	0.487
698.000	431.017	80.008	19.994	103.770	18.463	122.563	0.517
700.000	431.972	80.005	19.995	103.791	18.401	127.240	0.520
702.000	432.982	80.006	19.995	103.825	18.334	132.251	0.492
704.000	433.995	80.007	19.994	103.842	18.271	136.985	0.491
706.000	435.055	80.008	19.995	103.851	18.223	140.652	0.539
708.000	436.047	80.006	19.995	103.863	18.186	143.412	0.476
710.000	437.066	80.006	19.995	103.870	18.150	146.067	0.506
712.000	438.053	80.008	19.994	103.886	18.111	149.011	0.501
714.000	439.072	80.008	19.995	103.929	18.062	152.707	0.490
716.000	440.058	80.007	19.993	103.986	18.009	156.648	0.512
718.000	441.069	80.008	19.994	103.989	17.957	160.505	0.483
720.000	442.060	80.007	19.994	103.984	17.913	163.851	0.486
722.000	443.109	80.007	19.994	103.987	17.874	166.718	0.515
724.000	444.131	80.007	19.995	103.996	17.830	170.031	0.506
726.000	445.151	80.007	19.994	104.028	17.796	172.567	0.502
728.000	446.119	80.007	19.994	104.036	17.771	174.393	0.485
730.000	447.141	80.006	19.995	104.027	17.752	175.822	0.492
732.000	448.109	80.007	19.995	104.029	17.746	176.248	0.495
734.000	449.134	80.005	19.996	104.044	17.744	176.319	0.491
736.000	450.134	80.005	19.995	104.050	17.753	175.662	0.511
738.000	451.213	80.006	19.995	104.032	17.772	174.190	0.504
740.000	452.163	80.007	19.995	104.030	17.810	171.302	0.494
742.000	453.242	80.008	19.995	104.014	17.861	167.469	0.512
744.000	454.214	80.009	19.994	103.993	17.919	163.096	0.512
746.000	455.234	80.009	19.994	103.968	17.992	157.590	0.510
748.000	456.254	80.007	19.996	103.951	18.074	151.417	0.490
750.000	457.295	80.006	19.994	103.919	18.171	144.114	0.479
752.000	458.319	80.006	19.995	103.886	18.271	136.612	0.522
754.000	459.412	80.008	19.994	103.852	18.379	128.536	0.567
756.000	460.435	80.007	19.994	103.821	18.495	119.882	0.521
758.000	461.461	80.006	19.995	103.777	18.619	110.669	0.543
760.000	462.477	80.005	19.995	103.732	18.751	100.831	0.537
762.000	463.501	80.009	19.995	103.694	18.887	90.711	0.517
764.000	464.489	80.008	19.995	103.654	19.010	81.563	0.462
766.000	465.550	80.008	19.995	103.624	19.127	72.871	0.521
768.000	466.602	80.009	19.995	103.601	19.238	64.611	0.548
770.000	467.643	80.009	19.995	103.572	19.330	57.775	0.533
772.000	468.651	80.009	19.994	103.538	19.417	51.248	0.474
774.000	469.676	80.010	19.994	103.499	19.496	45.418	0.490
776.000	470.759	80.009	19.993	103.480	19.563	40.472	0.504
778.000	471.837	80.008	19.995	103.442	19.620	36.215	0.556
780.000	472.829	80.007	19.995	103.421	19.676	32.035	0.501
782.000	473.922	80.007	19.994	103.395	19.722	28.619	0.522
784.000	474.967	80.007	19.995	103.383	19.765	25.486	0.520
786.000	475.994	80.007	19.994	103.363	19.802	22.707	0.520
788.000	477.057	80.008	19.996	103.358	19.836	20.230	0.519
790.000	478.112	80.007	19.995	103.332	19.865	18.058	0.523
792.000	479.086	80.006	19.995	103.325	19.891	16.149	0.475
794.000	480.169	80.008	19.997	103.323	19.914	14.385	0.530
796.000	481.199	80.007	19.995	103.321	19.937	12.713	0.511
798.000	482.212	80.007	19.995	103.310	19.951	11.632	0.487
800.000	483.243	80.007	19.995	103.291	19.966	10.532	0.532
802.000	484.268	80.007	19.996	103.287	19.985	9.150	0.498
804.000	485.300	80.007	19.995	103.280	19.998	8.175	0.529
806.000	486.328	80.006	19.995	103.279	20.008	7.453	0.477
808.000	487.365	80.006	19.994	103.240	20.016	6.847	0.505
810.000	488.397	80.006	19.995	103.223	20.027	6.037	0.522
812.000	489.399	80.007	19.994	103.255	20.040	5.113	0.502
814.000	490.419	80.006	19.994	103.283	20.047	4.581	0.480
816.000	491.470	80.008	19.995	103.291	20.056	3.905	0.533
818.000	492.512	80.006	19.995	103.253	20.062	3.432	0.517
820.000	493.543	80.006	19.995	103.252	20.068	3.000	0.536
822.000	494.560	80.007	19.995	103.247	20.074	2.582	0.489
824.000	495.604	80.006	19.995	103.234	20.077	2.321	0.534
826.000	496.657	80.008	19.995	103.222	20.083	1.886	0.511
828.001	497.698	80.008	19.994	103.216	20.086	1.698	0.528
830.000	498.726	80.009	19.996	103.221	20.086	1.704	0.560
832.000	499.723	80.009	19.995	103.212	20.092	1.203	0.515
834.000	500.768	80.008	19.994	103.212	20.097	0.830	0.534
836.000	501.834	80.008	19.995	103.211	20.097	0.846	0.517
838.000	502.847	80.008	19.994	103.208	20.099	0.688	0.507
840.000	503.866	80.009	19.995	103.209	20.099	0.675	0.516
842.000	504.862	80.007	19.996	103.210	20.098	0.793	0.488
844.000	505.907	80.007	19.995	103.207	20.102	0.471	0.524
846.000	506.959	80.009	19.994	103.210	20.105	0.247	0.520
848.000	507.988	80.008	19.996	103.205	20.104	0.304	0.541
850.000	508.968	80.009	19.995	103.204	20.101	0.568	0.529
852.000	510.023	80.009	19.995	103.202	20.103	0.420	0.544
854.000	510.996	80.008	19.995	103.203	20.105	0.256	0.484
856.000	512.022	80.008	19.996	103.203	20.105	0.254	0.490
858.000	513.063	80.008	19.996	103.204	20.113	-0.337	0.530
860.000	514.102	80.009	19.995	103.201	20.107	0.126	0.521
862.000	515.166	80.008	19.994	103.181	20.111	-0.162	0.547
864.000	516.140	80.006	19.994	103.179	20.112	-0.254	0.488
866.000	517.169	80.006	19.995	103.203	20.114	-0.412	0.521
868.000	518.244	80.007	19.994	103.202	20.114	-0.379	0.537
870.000	519.251	80.007	19.994	103.202	20.114	-0.420	0.502
872.000	520.304	80.006	19.994	103.189	20.113	-0.314	0.512
874.000	521.336	80.006	19.994	103.201	20.114	-0.436	0.503
876.000	522.390	80.007	19.994	103.189	20.113	-0.306	0.540
878.000	523.373	80.006	19.993	103.205	20.113	-0.363	0.505
880.000	524.460	80.007	19.994	103.209	20.114	-0.393	0.482
882.000	525.464	80.005	19.993	103.190	20.115	-0.485	0.511
884.000	526.498	80.006	19.993	103.194	20.117	-0.643	0.508
886.000	527.530	80.006	19.994	103.192	20.119	-0.781	0.507
888.000	528.490	80.006	19.995	103.180	20.120	-0.874	0.485
890.000	529.566	80.007	19.994	103.181	20.119	-0.773	0.530
892.000	530.574	80.006	19.994	103.196	20.123	-1.044	0.496
894.000	531.597	80.007	19.995	103.198	20.118	-0.702	0.499
896.000	532.619	80.005	19.993	103.184	20.121	-0.917	0.535
898.000	533.648	80.009	19.994	103.187	20.120	-0.840	0.515
900.000	534.702	80.007	19.993	103.180	20.121	-0.907	0.527
902.000	535.764	80.007	19.994	103.183	20.121	-0.941	0.542
904.000	536.770	80.007	19.994	103.183	20.121	-0.906	0.507
906.000	537.796	80.008	19.994	103.182	20.118	-0.708	0.548
908.000	538.814	80.008	19.993	103.196	20.122	-0.990	0.491
910.000	539.857	80.008	19.994	103.197	20.121	-0.939	0.523
912.000	540.851	80.009	19.993	103.186	20.124	-1.152	0.503
914.000	541.877	80.008	19.994	103.187	20.122	-0.975	0.486
916.000	542.869	80.006	19.994	103.183	20.123	-1.044	0.555
918.000	543.891	80.007	19.995	103.200	20.123	-1.087	0.484
920.000	544.849	80.007	19.995	103.181	20.120	-0.880	0.496
922.000	545.961	80.007	19.995	103.193	20.120	-0.860	0.542
924.000	546.943	80.007	19.994	103.190	20.119	-0.803	0.518
926.000	547.999	80.008	19.995	103.195	20.119	-0.795	0.527
928.000	549.039	80.008	19.995	103.184	20.121	-0.931	0.533
930.000	550.017	80.009	19.995	103.178	20.122	-0.969	0.523
932.000	551.093	80.008	19.995	103.179	20.123	-1.101	0.507
934.000	552.169	80.009	19.993	103.189	20.122	-0.961	0.543
936.000	553.150	80.009	19.993	103.198	20.121	-0.884	0.486
938.000	554.207	80.009	19.994	103.179	20.120	-0.848	0.499
940.000	555.299	80.009	19.995	103.171	20.120	-0.854	0.553
942.000	556.307	80.007	19.994	103.173	20.117	-0.616	0.481
944.000	557.388	80.006	19.995	103.183	20.118	-0.710	0.526
946.000	558.419	80.006	19.994	103.180	20.119	-0.781	0.494
948.000	559.477	80.005	19.995	103.183	20.121	-0.927	0.505
950.000	560.488	80.004	19.994	103.185	20.119	-0.791	0.499
952.000	561.578	80.005	19.994	103.177	20.120	-0.878	0.513
954.000	562.635	80.005	19.995	103.172	20.122	-1.004	0.534
956.000	563.630	80.005	19.995	103.178	20.122	-0.984	0.491
958.000	564.682	80.004	19.994	103.183	20.122	-1.012	0.496
960.000	565.706	80.007	19.994	103.197	20.124	-1.126	0.516
962.000	566.813	80.005	19.995	103.187	20.122	-0.959	0.532
964.000	567.817	80.006	19.994	103.182	20.121	-0.955	0.506
966.000	568.896	80.006	19.994	103.186	20.118	-0.692	0.528
968.000	569.946	80.007	19.994	103.193	20.121	-0.894	0.533
970.000	571.046	80.007	19.994	103.187	20.118	-0.669	0.530
972.000	572.091	80.006	19.993	103.193	20.114	-0.397	0.568
974.000	573.169	80.006	19.995	103.179	20.119	-0.777	0.565
976.000	574.261	80.006	19.995	103.198	20.117	-0.651	0.550
978.000	575.342	80.006	19.993	103.196	20.120	-0.856	0.541
980.000	576.401	80.007	19.994	103.193	20.118	-0.718	0.540
982.000	577.439	80.006	19.995	103.170	20.116	-0.535	0.504
984.000	578.514	80.006	19.995	103.172	20.117	-0.651	0.541
986.000	579.497	80.007	19.994	103.183	20.117	-0.594	0.512
988.000	580.545	80.009	19.993	103.180	20.114	-0.393	0.521
990.000	581.612	80.027	19.998	103.192	20.113	-0.351	0.535
992.000	582.652	80.008	19.995	103.177	20.114	-0.385	0.524
994.000	583.708	80.008	19.995	103.181	20.114	-0.422	0.535
996.000	584.657	80.006	19.994	103.172	20.117	-0.635	0.506
998.000	585.686	80.006	19.993	103.177	20.115	-0.446	0.509
1000.000	586.713	80.007	19.994	103.177	20.112	-0.276	0.511
1002.000	587.690	80.008	19.993	103.172	20.115	-0.513	0.505
1004.000	588.715	80.007	19.994	103.178	20.112	-0.247	0.499
1006.000	589.706	80.008	19.994	103.181	20.114	-0.422	0.455
1008.000	590.758	80.007	19.995	103.177	20.113	-0.324	0.517
1010.000	591.790	80.008	19.994	103.172	20.113	-0.322	0.521
1012.000	592.766	80.008	19.993	103.180	20.115	-0.444	0.510
1014.000	593.784	80.008	19.995	103.181	20.111	-0.166	0.518
1016.000	594.798	80.008	19.993	103.171	20.111	-0.193	0.506
1018.000	595.819	80.009	19.994	103.173	20.112	-0.229	0.530
1020.000	596.809	80.008	19.995	103.178	20.109	-0.002	0.486
1022.000	597.883	80.008	19.995	103.179	20.110	-0.087	0.512
1024.000	598.824	80.009	19.994	103.174	20.109	-0.002	0.486
1025.999	599.840	80.007	19.995	103.176	20.108	0.032	0.483
1028.000	600.862	80.007	19.994	103.176	20.109	-0.045	0.514
1029.999	601.867	80.006	19.993	103.177	20.109	-0.008	0.508
1031.999	602.864	80.006	19.994	103.170	20.111	-0.144	0.512
1034.001	603.852	80.007	19.996	103.175	20.115	-0.501	0.499
1036.001	604.854	80.007	19.995	103.175	20.113	-0.320	0.484
1037.999	605.847	80.006	19.995	103.171	20.115	-0.476	0.469
1039.999	606.814	80.007	19.995	103.171	20.112	-0.221	0.466
1041.999	607.876	80.007	19.995	103.169	20.114	-0.412	0.496
1044.001	608.883	80.007	19.994	103.170	20.111	-0.182	0.523
1045.999	609.901	80.007	19.996	103.170	20.111	-0.160	0.522
1047.999	610.920	80.007	19.995	103.170	20.114	-0.420	0.500
1050.000	611.902	80.006	19.995	103.166	20.118	-0.665	0.502
1051.999	612.921	80.008	19.996	103.167	20.116	-0.517	0.496
1053.999	613.967	80.007	19.997	103.173	20.114	-0.434	0.482
1055.999	614.971	80.007	19.996	103.166	20.112	-0.247	0.525
1057.999	615.954	80.008	19.994	103.167	20.115	-0.474	0.487
1059.999	616.937	80.007	19.993	103.170	20.117	-0.637	0.484
1061.999	617.997	80.006	19.994	103.171	20.117	-0.633	0.514
1064.000	619.016	80.007	19.994	103.169	20.114	-0.428	0.510
1066.000	620.006	80.007	19.994	103.164	20.117	-0.659	0.534
1067.999	621.022	80.008	19.994	103.158	20.117	-0.659	0.485
1069.999	622.064	80.008	19.993	103.175	20.116	-0.539	0.500
1071.999	623.084	80.008	19.994	103.171	20.118	-0.681	0.503
1073.999	624.098	80.010	19.993	103.165	20.117	-0.636	0.518
1076.001	625.087	80.009	19.994	103.166	20.115	-0.476	0.521
1078.000	626.121	80.008	19.994	103.170	20.115	-0.487	0.493
1080.000	627.086	80.008	19.995	103.172	20.113	-0.318	0.474
1082.000	628.164	80.008	19.995	103.171	20.115	-0.448	0.516
1083.999	629.156	80.007	19.994	103.185	20.112	-0.268	0.484
1086.000	630.197	80.008	19.994	103.115	20.119	-0.793	0.500
1088.000	631.235	80.008	19.995	103.210	20.121	-0.884	0.509
1090.001	632.237	80.008	19.993	103.184	20.118	-0.679	0.538
1091.999	633.274	80.008	19.994	103.169	20.121	-0.939	0.531
1093.999	634.295	80.009	19.994	103.164	20.122	-1.012	0.525
1096.000	635.350	80.010	19.996	103.166	20.123	-1.097	0.511
1097.999	636.430	80.010	19.994	103.167	20.122	-1.014	0.527
1100.000	637.443	80.010	19.994	103.167	20.124	-1.123	0.542
1102.000	638.519	80.010	19.994	103.161	20.125	-1.235	0.530
1104.000	639.512	80.009	19.995	103.167	20.127	-1.332	0.524
1106.000	640.580	80.008	19.995	103.166	20.127	-1.350	0.536
1107.999	641.685	80.008	19.993	103.166	20.129	-1.492	0.536
1109.999	642.730	80.007	19.995	103.166	20.127	-1.381	0.548
1112.000	643.723	80.006	19.995	103.158	20.130	-1.551	0.511
1114.000	644.805	80.007	19.995	103.164	20.130	-1.604	0.512
1116.000	645.866	80.006	19.996	103.162	20.128	-1.446	0.547
1117.999	646.893	80.006	19.995	103.167	20.131	-1.665	0.531
1120.000	647.966	80.007	19.994	103.166	20.129	-1.484	0.537
1121.999	649.037	80.008	19.994	103.167	20.133	-1.790	0.535
1123.999	650.095	80.007	19.993	103.165	20.133	-1.778	0.556
1126.000	651.180	80.006	19.994	103.170	20.129	-1.541	0.522
1127.999	652.245	80.007	19.994	103.171	20.130	-1.598	0.515
1129.999	653.285	80.008	19.994	103.170	20.130	-1.612	0.490
1131.999	654.365	80.008	19.995	103.168	20.131	-1.683	0.556
1133.999	655.426	80.006	19.995	103.164	20.131	-1.675	0.525
1136.001	656.519	80.006	19.994	103.167	20.133	-1.804	0.542
1137.999	657.571	80.006	19.995	103.165	20.132	-1.734	0.532
1140.000	658.591	80.005	19.996	103.163	20.134	-1.867	0.530
1142.000	659.610	80.004	19.994	103.161	20.135	-1.965	0.515
1143.999	660.725	80.006	19.996	103.161	20.134	-1.908	0.545
1145.999	661.743	80.006	19.995	103.166	20.132	-1.758	0.531
1148.000	662.786	80.006	19.995	103.170	20.135	-1.932	0.537
1149.999	663.836	80.007	19.995	103.166	20.134	-1.885	0.524
1151.999	664.872	80.008	19.993	103.165	20.133	-1.821	0.521
1154.000	665.897	80.007	19.996	103.168	20.133	-1.812	0.543
1155.999	666.974	80.009	19.995	103.170	20.135	-1.989	0.547
1158.000	667.981	80.008	19.994	103.166	20.134	-1.847	0.524
1159.999	668.992	80.008	19.993	103.167	20.132	-1.770	0.523
1162.000	670.077	80.009	19.995	103.156	20.135	-1.969	0.530
1164.000	671.105	80.010	19.994	103.159	20.135	-1.968	0.528
1165.999	672.132	80.009	19.993	103.160	20.135	-1.978	0.537
1168.000	673.146	80.007	19.994	103.160	20.135	-1.934	0.511
1169.999	674.178	80.008	19.994	103.147	20.138	-2.159	0.560
1171.999	675.198	80.009	19.996	103.163	20.136	-2.029	0.480
1173.999	676.202	80.008	19.996	103.159	20.140	-2.359	0.494
1175.999	677.197	80.009	19.995	103.149	20.135	-1.944	0.511
1177.999	678.255	80.010	19.994	103.144	20.138	-2.208	0.512
1180.000	679.262	80.010	19.994	103.159	20.134	-1.851	0.524
1181.999	680.287	80.010	19.993	103.146	20.136	-2.035	0.466
1184.000	681.278	80.010	19.993	103.150	20.137	-2.110	0.486
1185.999	682.329	80.010	19.993	103.144	20.134	-1.902	0.544
1188.001	683.374	80.008	19.993	103.157	20.136	-2.043	0.492
1190.000	684.353	80.008	19.994	103.158	20.136	-2.052	0.519
1191.999	685.317	80.005	19.994	103.149	20.140	-2.301	0.482
1193.999	686.369	80.007	19.995	103.153	20.140	-2.301	0.492
1196.000	687.397	80.007	19.994	103.161	20.140	-2.317	0.520
1197.999	688.397	80.006	19.995	103.146	20.143	-2.564	0.516
1200.000	689.434	80.007	19.996	103.151	20.143	-2.528	0.538
1202.000	690.424	80.007	19.994	103.156	20.141	-2.407	0.499
1204.001	691.474	80.007	19.995	103.138	20.146	-2.757	0.532
1206.000	692.480	80.006	19.995	103.160	20.143	-2.564	0.479
1208.000	693.540	80.008	19.995	103.153	20.144	-2.657	0.491
1210.000	694.542	80.008	19.994	103.150	20.141	-2.402	0.488
1212.000	695.562	80.007	19.994	103.149	20.144	-2.592	0.524
1214.000	696.618	80.007	19.995	103.156	20.142	-2.453	0.526
1216.000	697.646	80.007	19.995	103.138	20.140	-2.299	0.512
1218.000	698.667	80.006	19.994	103.137	20.142	-2.501	0.516
1220.001	699.682	80.007	19.994	103.144	20.139	-2.236	0.530
1222.000	700.755	80.008	19.995	103.134	20.139	-2.230	0.545
1224.000	701.715	80.007	19.995	103.138	20.141	-2.396	0.526
1226.000	702.703	80.006	19.996	103.134	20.145	-2.665	0.508
1228.000	703.757	80.007	19.993	103.145	20.144	-2.621	0.519
1230.000	704.745	80.008	19.995	103.151	20.142	-2.473	0.495
1232.000	705.781	80.008	19.996	103.139	20.142	-2.477	0.522
1234.000	706.804	80.007	19.995	103.136	20.141	-2.412	0.519
1236.000	707.779	80.007	19.995	103.141	20.144	-2.623	0.528
1238.000	708.805	80.009	19.996	103.138	20.143	-2.544	0.520
1240.000	709.860	80.008	19.997	103.130	20.141	-2.379	0.523
1242.000	710.868	80.007	19.995	103.133	20.141	-2.390	0.503
1244.000	711.862	80.009	19.996	103.131	20.143	-2.576	0.512
1246.000	712.876	80.008	19.995	103.132	20.144	-2.602	0.485
1248.000	713.838	80.008	19.994	103.131	20.141	-2.395	0.498
1250.000	714.864	80.008	19.994	103.132	20.142	-2.488	0.508
1252.000	715.873	80.007	19.995	103.130	20.145	-2.719	0.506
1254.000	716.856	80.009	19.994	103.133	20.146	-2.763	0.491
1256.000	717.851	80.009	19.994	103.133	20.143	-2.576	0.517
1258.000	718.879	80.010	19.994	103.156	20.144	-2.615	0.482
1260.000	719.880	80.010	19.993	103.091	20.146	-2.745	0.483
1262.000	720.899	80.009	19.994	103.173	20.145	-2.686	0.517
1264.000	721.907	80.010	19.994	103.164	20.146	-2.777	0.504
1266.000	722.861	80.009	19.994	103.131	20.142	-2.447	0.476
1268.000	723.873	80.009	19.995	103.137	20.146	-2.753	0.521
1270.000	724.880	80.008	19.993	103.136	20.143	-2.556	0.486
1272.000	725.881	80.007	19.995	103.147	20.144	-2.639	0.512
1274.000	726.905	80.007	19.995	103.144	20.141	-2.364	0.507
1276.000	727.899	80.007	19.994	103.147	20.141	-2.420	0.509
1278.001	728.933	80.007	19.994	103.141	20.139	-2.284	0.544
1280.000	729.919	80.007	19.995	103.147	20.146	-2.753	0.504
1282.000	730.987	80.007	19.995	103.150	20.145	-2.671	0.537
1284.000	731.990	80.009	19.994	103.151	20.143	-2.551	0.504
1286.000	732.978	80.007	19.995	103.159	20.144	-2.645	0.515
1288.000	734.005	80.008	19.994	103.136	20.145	-2.731	0.511
1290.000	735.014	80.008	19.993	103.134	20.147	-2.850	0.505
1292.000	736.037	80.008	19.995	103.152	20.143	-2.558	0.523
1294.000	737.056	80.007	19.995	103.091	20.144	-2.609	0.501
1296.000	738.076	80.008	19.996	103.158	20.144	-2.645	0.517
1298.000	739.146	80.007	19.996	103.199	20.144	-2.592	0.527
1300.000	740.124	80.006	19.994	103.139	20.147	-2.827	0.499
1302.000	741.151	80.007	19.996	103.132	20.146	-2.756	0.494
1304.000	742.197	80.006	19.995	103.132	20.145	-2.720	0.537
1306.000	743.205	80.007	19.994	103.135	20.144	-2.594	0.493
1306.500	743.456	80.006	19.995	103.135	20.141	-2.418	0.474