File: 01_Data/Vinyl_Tile/Cone/Vinyl_Tile_Cone_HF50Scan_220405_R2.csv
Names,Time,Stack TC,Smoke TC,Exh Press,Smoke Comp,Smoke Meas,CO Meter,CO2 Meter,O2 Meter,Sample Mass,Ext Coeff,Start Test,Flame Verif
Chan Gain,,500,500,1,1,1,1,1,1,1,1,1.0,1.0
Offset,,0,0,0.132686,0,0,0,0,0,0,0,0.0,0.0
Gain,,1,1,25.011,13.1151,13.9355,1,1,1,1.00092,1.01752,1.0,1.0
Units,sec,C,C,Pa,%,%,%,%,%,g,/m,,
Baseline,,32.4135,33.5564,153.069,98.7612,97.7382,0.000580053,0.0594376,21.0292,-836.451,0.0930058,,
4,0.75,31.1816,32.2434,151.001,98.6891,98.7401,0.000531838,0.061986,21.0245,189.304,-0.00460676,0.0,0.0
8,1.75,30.8645,32.242,155.882,98.6895,98.2319,0.000507856,0.0627917,21.0242,189.134,0.0414872,0.0,0.0
12,2.75,31.4519,32.2222,149.575,98.6903,97.8891,0.000499397,0.063868,21.0237,189.014,0.0727598,0.0,0.0
16,3.75,31.4486,32.1499,150.139,98.6964,97.477,0.000503123,0.0650034,21.0228,189.094,0.110956,0.0,0.0
20,4.75,31.2157,32.3255,150.971,98.6823,98.1217,0.000507436,0.0665223,21.0216,189.154,0.0508498,0.0,0.0
24,5.75,30.6442,31.9123,155.692,98.6879,98.5266,0.000523481,0.0677306,21.0208,189.184,0.0146033,0.0,0.0
28,6.75,30.9552,32.3745,153.418,98.6799,97.3711,0.000547227,0.0685481,21.0203,189.124,0.119175,0.0,0.0
32,7.75,31.0273,32.0456,149.577,98.6807,97.6969,0.000573824,0.0689278,21.0199,189.084,0.089435,0.0,0.0
36,8.75,31.0061,32.2287,157.246,98.6819,98.26,0.000593478,0.0690768,21.0197,189.094,0.038249,0.0,0.0
40,9.75,30.9987,32.1643,153.39,98.6975,97.5349,0.000608576,0.0689613,21.0196,189.104,0.105771,0.0,0.0
44,10.75,31.3876,31.8247,150.255,98.6735,97.4332,0.000633911,0.0684895,21.0201,189.094,0.112904,0.0,0.0
48,11.75,31.0978,32.3429,156.409,98.6727,98.0401,0.000660277,0.0678938,21.0206,189.104,0.0574121,0.0,0.0
52,12.75,30.9838,31.8837,152.199,98.6811,97.6505,0.000684251,0.0671449,21.021,189.084,0.0937066,0.0,0.0
56,13.75,30.8452,32.5648,151.516,98.6731,97.6731,0.000697071,0.0663236,21.0212,189.094,0.0909233,0.0,0.0
60,14.75,31.0078,32.3536,155.127,98.6855,97.5655,0.000700791,0.0655383,21.0222,189.094,0.101883,0.0,0.0
64,15.75,30.9875,32.7879,151.271,98.6707,97.3141,0.000695765,0.0647503,21.0231,189.094,0.123566,0.0,0.0
68,16.75,31.1988,32.1826,152.323,98.6791,97.4762,0.00069459,0.0640573,21.0242,189.094,0.109478,0.0,0.0
72,17.75,30.8486,32.2215,149.29,98.6811,97.5935,0.000701703,0.0634595,21.0249,189.094,0.0989179,0.0,0.0
76,18.75,31.2376,32.0186,150.359,98.6867,98.5041,0.000700547,0.063082,21.0254,189.124,0.0165375,0.0,0.0
80,19.75,31.6322,32.0932,154.153,98.6899,97.651,0.000674621,0.0627531,21.0257,189.104,0.0944636,0.0,0.0
84,20.75,31.2313,32.7913,154.426,98.6879,97.8589,0.000636858,0.0626253,21.0259,189.094,0.0752955,0.0,0.0
88,21.75,30.6329,32.806,157.367,98.6827,97.369,0.000597022,0.0627894,21.0252,189.084,0.119622,0.0,0.0
92,22.75,30.9763,32.3715,153.756,98.6875,97.978,0.000560795,0.063073,21.0248,189.074,0.0644058,0.0,0.0
96,23.75,31.4784,32.1166,151.074,98.6851,97.5927,0.000527657,0.0634709,21.0243,189.084,0.0993567,0.0,0.0
100,24.75,31.1566,32.5982,150.044,98.6919,97.5429,0.000471224,0.0639338,21.0234,189.104,0.104525,0.0,0.0
104,25.75,31.2336,32.2788,151.966,98.6919,97.113,0.000424867,0.0642381,21.023,189.094,0.143955,0.0,0.0
108,26.75,31.8972,32.4691,151.956,98.6915,96.9131,0.000361455,0.0643934,21.0234,189.064,0.162307,0.0,0.0
112,27.75,31.0572,32.9791,156.705,98.6851,96.7183,0.000318117,0.0644208,21.0238,189.044,0.179686,0.0,0.0
116,28.75,30.9443,32.7163,153.352,98.6831,96.6928,0.000294416,0.0643019,21.0241,189.074,0.18186,0.0,0.0
120,29.75,30.881,32.5601,151.767,98.6819,95.6126,0.00028893,0.0641366,21.0243,189.054,0.282024,0.0,0.0
124,30.75,31.107,31.9752,150.493,98.6799,95.3451,0.000305264,0.0638689,21.0244,189.044,0.30685,0.0,0.0
128,31.75,31.0495,32.7013,151.1,98.6771,94.0327,0.000331384,0.0635693,21.0245,189.004,0.430309,0.0,0.0
132,32.75,31.2048,32.3987,158.843,98.6919,94.7927,0.000369199,0.0632703,21.0245,189.014,0.359802,0.0,0.0
136,33.75,31.1467,32.3557,153.53,98.6787,92.3371,0.000511505,0.063039,21.0246,189.004,0.592866,0.0,0.0
140,34.75,30.8185,32.1795,151.55,98.6779,92.7985,0.000695824,0.0630532,21.0239,189.004,0.548302,0.0,0.0
144,35.75,31.1961,32.429,152.983,98.6843,90.7198,0.00139369,0.063467,21.0187,188.974,0.751094,0.0,0.0
148,36.75,31.0371,32.2612,154.643,98.6731,92.0373,0.00231834,0.0674688,21.0079,188.894,0.621388,0.0,1.0
152,37.75,31.2034,31.9184,146.426,98.6759,91.3245,0.00364403,0.0740124,20.9897,188.844,0.691034,0.0,1.0
156,38.75,31.4636,32.7547,142.214,98.6719,88.3046,0.0050972,0.086547,20.9673,188.764,0.990811,0.0,1.0
160,39.75,31.7853,32.5089,145.334,98.6831,86.4883,0.00662272,0.100652,20.9473,188.694,1.17733,0.0,1.0
164,40.75,31.6283,32.5647,145.271,98.6823,86.9816,0.00798088,0.115001,20.9271,188.614,1.12649,0.0,1.0
168,41.75,31.9372,32.845,141.663,98.6771,84.0914,0.00927315,0.128719,20.9044,188.484,1.42764,0.0,1.0
172,42.75,32.1483,33.6613,139.051,98.6703,85.5671,0.010363,0.141276,20.8834,188.484,1.27175,0.0,1.0
176,43.75,31.9756,33.3795,146.199,98.6679,84.9373,0.0112425,0.153965,20.8641,188.354,1.33747,0.0,1.0
180,44.75,32.5134,33.7308,141.808,98.6711,83.9698,0.0122463,0.165744,20.8432,188.273,1.44001,0.0,1.0
184,45.75,33.0161,34.2119,146.496,98.6675,83.8316,0.0127478,0.176893,20.8337,188.123,1.45439,0.0,0.0
188,46.75,33.1739,34.3621,147.16,98.6627,82.2449,0.0133932,0.187757,20.8223,187.983,1.62451,0.0,0.0
192,47.75,33.7706,35.1138,147.347,98.6643,83.0406,0.013993,0.20213,20.8125,187.883,1.53872,0.0,0.0
196,48.75,33.8032,35.0925,144.887,98.6787,81.951,0.0146213,0.209905,20.8046,187.783,1.65791,0.0,0.0
200,49.75,34.3681,35.7734,147.325,98.6611,81.9671,0.0151486,0.217099,20.7974,187.643,1.65456,0.0,0.0
204,50.75,34.4799,35.5395,146.067,98.6627,81.2863,0.0156322,0.226456,20.787,187.493,1.72915,0.0,0.0
208,51.75,35.1357,36.6506,146.907,98.6655,81.752,0.0160764,0.234195,20.7763,187.383,1.67842,0.0,0.0
212,52.75,35.0577,37.0613,141.768,98.6623,78.1647,0.0164508,0.241135,20.7668,187.283,2.07863,0.0,0.0
216,53.75,35.8037,37.4267,146.516,98.6543,78.6666,0.016871,0.247533,20.7593,187.152,2.02078,0.0,0.0
220,54.75,36.0884,37.6871,144.409,98.6575,75.4226,0.0172713,0.25339,20.7515,187.062,2.39695,0.0,0.0
224,55.75,36.1082,37.9144,139.583,98.6571,74.4954,0.0176227,0.25828,20.7451,186.892,2.50731,0.0,0.0
228,56.75,36.6399,38.6809,145.895,98.6571,72.9874,0.0178941,0.262263,20.7395,186.782,2.68984,0.0,0.0
232,57.75,37.2728,38.9757,140.153,98.6511,73.5509,0.0180665,0.265476,20.7355,186.642,2.62066,0.0,0.0
236,58.75,37.62,38.9421,141.359,98.6539,73.0508,0.0181383,0.267921,20.7328,186.512,2.68181,0.0,0.0
240,59.75,37.826,39.5624,141.953,98.6515,73.6662,0.0181531,0.269765,20.7311,186.392,2.60672,0.0,0.0
244,60.75,38.0653,39.8877,142.932,98.6491,71.8426,0.0180454,0.271073,20.7299,186.262,2.83023,0.0,0.0
248,61.75,38.1792,40.1008,143.695,98.6411,71.0201,0.0179048,0.27129,20.7293,186.132,2.93228,0.0,0.0
252,62.75,38.7888,40.3881,139.631,98.6379,72.6234,0.0176711,0.270861,20.7294,186.081,2.73273,0.0,0.0
256,63.75,38.7957,40.7659,139.915,98.6407,72.6429,0.0173828,0.270273,20.7296,185.951,2.73058,0.0,0.0
260,64.75,39.1568,40.8837,142.283,98.6379,70.7024,0.0170653,0.269919,20.7298,185.841,2.97201,0.0,0.0
264,65.75,39.0274,40.9864,144.355,98.6399,70.9992,0.0167608,0.269818,20.7295,185.741,2.93479,0.0,0.0
268,66.75,39.6582,41.2415,146.66,98.6359,73.4029,0.0165411,0.270332,20.7284,185.601,2.63726,0.0,0.0
272,67.75,39.6531,41.7304,143.658,98.6343,70.1355,0.0164032,0.271735,20.7266,185.491,3.04353,0.0,0.0
276,68.75,39.8932,42.0013,138.482,98.6283,70.121,0.0163364,0.273568,20.7241,185.351,3.04483,0.0,0.0
280,69.75,40.1408,42.3105,141.261,98.6319,71.0988,0.0163568,0.276086,20.7218,185.281,2.92157,0.0,0.0
284,70.75,40.5974,42.7904,148.445,98.6339,69.5065,0.016469,0.278668,20.7191,185.161,3.1239,0.0,0.0
288,71.75,40.79,42.7597,143.692,98.6255,71.4283,0.016669,0.281086,20.7154,185.04,2.87971,0.0,0.0
292,72.75,40.9025,43.1559,143.474,98.6235,71.2621,0.0169852,0.283828,20.7104,184.92,2.90033,0.0,0.0
296,73.75,41.199,43.6821,137.229,98.6255,69.8408,0.0172504,0.287387,20.7048,184.74,3.08032,0.0,0.0
300,74.75,41.3442,43.7438,142.482,98.6199,68.8916,0.0175131,0.291402,20.6993,184.65,3.20196,0.0,0.0
304,75.75,41.8407,43.9142,141.221,98.6163,71.615,0.017707,0.295685,20.6939,184.53,2.85557,0.0,0.0
308,76.75,41.9622,44.3651,134.399,98.6171,71.6835,0.0178799,0.300583,20.6875,184.36,2.84712,0.0,0.0
312,77.75,42.4532,44.6696,142.665,98.6231,72.2951,0.0180797,0.305801,20.6788,184.27,2.77184,0.0,0.0
316,78.75,42.6984,44.9352,140.796,98.6263,74.2713,0.0183262,0.31189,20.6689,184.13,2.53141,0.0,0.0
320,79.75,42.6483,45.3393,138.466,98.6167,72.8441,0.0185601,0.318203,20.6607,183.99,2.70373,0.0,0.0
324,80.75,43.1553,45.682,138.915,98.6135,73.4803,0.0187672,0.324096,20.6546,183.869,2.62582,0.0,0.0
328,81.75,43.3315,45.6828,139.699,98.6163,74.888,0.0190242,0.328885,20.6482,183.709,2.45671,0.0,0.0
332,82.75,43.6423,46.3355,137.929,98.6131,73.2171,0.0193293,0.332688,20.6424,183.569,2.65782,0.0,0.0
336,83.75,44.1561,46.666,142.201,98.6067,72.7816,0.0195749,0.335826,20.6388,183.429,2.71049,0.0,0.0
340,84.75,44.2488,47.1512,144.271,98.6043,72.4664,0.0199694,0.338241,20.6342,183.309,2.749,0.0,0.0
344,85.75,44.435,47.2925,140.887,98.6067,70.8364,0.0203522,0.340388,20.6302,183.149,2.95229,0.0,0.0
348,86.75,45.1952,47.4854,140.152,98.6047,72.0811,0.020686,0.34169,20.6274,183.029,2.79662,0.0,0.0
352,87.75,45.0269,48.0001,141.272,98.6063,72.2096,0.0209387,0.342796,20.6255,182.879,2.78087,0.0,0.0
356,88.75,45.517,48.2672,138.774,98.6039,72.0199,0.0211249,0.342934,20.6248,182.778,2.80413,0.0,0.0
360,89.75,45.8647,48.3241,136.481,98.6031,73.1137,0.0212226,0.341894,20.6254,182.638,2.66952,0.0,0.0
364,90.75,45.9147,48.8934,143.054,98.6079,73.1745,0.0212089,0.33997,20.6275,182.498,2.66253,0.0,0.0
368,91.75,45.6994,48.9183,144.44,98.6027,75.164,0.0210824,0.336094,20.6336,182.348,2.42264,0.0,0.0
372,92.75,46.3009,49.0938,141.034,98.6035,73.9477,0.0208979,0.331411,20.6403,182.248,2.56832,0.0,0.0
376,93.75,46.6574,49.1761,140.324,98.5923,73.9966,0.0205079,0.326081,20.6487,182.128,2.56141,0.0,0.0
380,94.75,46.5711,49.3473,142.246,98.6103,74.666,0.0200627,0.319218,20.6556,181.998,2.48266,0.0,0.0
384,95.75,46.594,49.521,138.88,98.6027,73.3714,0.0193928,0.313325,20.665,181.918,2.63808,0.0,0.0
388,96.75,46.6422,49.4696,141.291,98.5951,76.2136,0.0186362,0.307383,20.6736,181.808,2.29818,0.0,0.0
392,97.75,46.5618,49.7654,139.592,98.5991,74.3419,0.0178352,0.301731,20.6816,181.737,2.52047,0.0,0.0
396,98.75,46.9718,49.4973,144.358,98.6015,76.9085,0.0171073,0.296645,20.6909,181.597,2.21774,0.0,0.0
400,99.75,47.05,49.7912,143.08,98.5975,74.8276,0.016362,0.292074,20.6982,181.517,2.4622,0.0,0.0
404,100.75,46.559,50.0343,145.005,98.5939,76.3501,0.0157391,0.288069,20.704,181.427,2.28209,0.0,0.0
408,101.75,47.0219,50.0234,144.683,98.5875,77.395,0.0152286,0.284877,20.7082,181.367,2.16019,0.0,0.0
412,102.75,47.1511,50.043,139.787,98.5935,75.5463,0.0146848,0.282203,20.7118,181.257,2.37652,0.0,0.0
416,103.75,47.0389,50.6627,143.392,98.5895,74.9917,0.0141655,0.280211,20.7158,181.167,2.44192,0.0,0.0
420,104.75,47.0834,50.2988,143.031,98.6063,75.8742,0.0138119,0.277536,20.7191,181.097,2.33902,0.0,0.0
424,105.75,47.1681,50.5153,137.41,98.5863,76.2999,0.0133444,0.275289,20.7222,181.027,2.28727,0.0,0.0
428,106.75,47.4727,50.6773,144.413,98.5851,75.867,0.0129116,0.273064,20.7248,180.927,2.33795,0.0,0.0
432,107.75,47.4293,50.6902,140.935,98.5859,75.0364,0.0125274,0.271686,20.7267,180.877,2.43628,0.0,0.0
436,108.75,47.4317,50.4261,146.213,98.5899,75.8559,0.0122226,0.269956,20.728,180.807,2.33969,0.0,0.0
440,109.75,47.3875,50.9706,146.009,98.5911,76.3994,0.0119722,0.268464,20.7288,180.717,2.27607,0.0,0.0
444,110.75,47.8078,50.4324,138.473,98.5827,72.0297,0.0118058,0.267436,20.7293,180.656,2.801,0.0,0.0
448,111.75,47.7832,50.73,143.61,98.5803,73.3987,0.0117093,0.266761,20.7294,180.566,2.63274,0.0,0.0
452,112.75,47.8809,50.5216,145.947,98.5755,74.3845,0.0116539,0.266013,20.7302,180.506,2.51323,0.0,0.0
456,113.75,47.4171,51.1405,145.167,98.5799,73.3676,0.0116243,0.265105,20.7308,180.436,2.63648,0.0,0.0
460,114.75,47.4578,50.8368,142.924,98.5783,72.1713,0.0116131,0.264397,20.7311,180.336,2.78307,0.0,0.0
464,115.75,47.625,50.9105,142.632,98.5911,71.6631,0.0116167,0.263978,20.7314,180.296,2.8473,0.0,0.0
468,116.75,47.7435,50.8958,139.128,98.5955,70.3469,0.0116275,0.263863,20.7307,180.226,3.01316,0.0,0.0
472,117.75,47.8046,51.2463,143.911,98.5751,72.2266,0.0116491,0.264081,20.7302,180.116,2.77595,0.0,0.0
476,118.75,47.9162,51.0947,144.881,98.5875,71.3858,0.0116686,0.264696,20.729,180.056,2.88158,0.0,0.0
480,119.75,47.8163,51.3334,144.707,98.5731,73.3514,0.0116864,0.266019,20.7258,179.976,2.63783,0.0,0.0
484,120.75,47.8295,51.1707,143.429,98.5795,70.4209,0.0116887,0.267536,20.7225,179.936,3.00233,0.0,0.0
488,121.75,48.0597,51.2867,142.707,98.5751,72.4375,0.0116738,0.269132,20.72,179.846,2.74992,0.0,0.0
492,122.75,48.0645,51.4155,137.535,98.5703,71.0601,0.0116493,0.270558,20.7183,179.776,2.92085,0.0,0.0
496,123.75,48.3097,51.3854,141.448,98.5671,71.8745,0.0116025,0.271675,20.7172,179.696,2.81884,0.0,0.0
500,124.75,48.2441,51.4603,138.762,98.5639,71.4462,0.0115589,0.272547,20.7149,179.636,2.87189,0.0,0.0
504,125.75,47.9689,51.7559,141.062,98.5711,69.1085,0.0115394,0.273314,20.7134,179.545,3.16948,0.0,0.0
508,126.75,48.3937,51.6289,138.312,98.5551,68.7151,0.0115371,0.273994,20.7116,179.515,3.21898,0.0,0.0
512,127.75,48.3529,52.1847,137.735,98.5527,69.1178,0.0115305,0.274719,20.7096,179.405,3.1666,0.0,0.0
516,128.75,48.7013,51.6477,140.532,98.5623,68.5556,0.0115097,0.275583,20.7083,179.305,3.24037,0.0,0.0
520,129.75,48.7715,52.0443,144.761,98.5575,69.0876,0.011463,0.276313,20.707,179.255,3.17094,0.0,0.0
524,130.75,48.5367,52.1481,142.852,98.5547,69.8263,0.0114273,0.276637,20.706,179.195,3.07576,0.0,0.0
528,131.75,49.0855,52.2202,140.508,98.5547,70.6071,0.0114185,0.276694,20.7061,179.085,2.9765,0.0,0.0
532,132.75,48.2482,52.0862,141.39,98.5483,67.9674,0.0114132,0.276689,20.7063,179.065,3.31601,0.0,0.0
536,133.75,48.7538,52.3248,144.841,98.5603,69.0264,0.0113805,0.276647,20.7067,178.955,3.17911,0.0,0.0
540,134.75,48.7771,52.1646,142.674,98.5451,69.4801,0.0113234,0.276203,20.7079,178.915,3.11925,0.0,0.0
544,135.75,48.9054,52.259,143.674,98.5527,67.5311,0.0112714,0.275317,20.7099,178.825,3.37389,0.0,0.0
548,136.75,48.8614,52.3195,144.363,98.5294,70.2865,0.0112187,0.273895,20.7125,178.755,3.01485,0.0,0.0
552,137.75,48.9717,52.5525,143.123,98.5367,72.0127,0.0111865,0.27199,20.7164,178.715,2.79894,0.0,0.0
556,138.75,48.9776,52.8448,144.513,98.5306,70.784,0.0111607,0.269608,20.7188,178.635,2.95199,0.0,0.0
560,139.75,48.9113,52.3166,142.299,98.5415,73.1813,0.0111085,0.267415,20.7226,178.555,2.65569,0.0,0.0
564,140.75,49.0353,52.5683,144.502,98.5347,71.9319,0.0110051,0.265375,20.7274,178.474,2.80878,0.0,0.0
568,141.75,49.1283,52.3914,144.092,98.5294,73.5794,0.0108029,0.264135,20.7317,178.424,2.60618,0.0,0.0
572,142.75,49.032,52.5301,143.19,98.527,72.0854,0.0105701,0.261877,20.7354,178.294,2.78906,0.0,0.0
576,143.75,49.1159,52.4853,138.718,98.5258,73.1796,0.0103304,0.259357,20.7386,178.294,2.65448,0.0,0.0
580,144.75,48.9671,52.4221,141.108,98.5246,73.3757,0.0101032,0.257004,20.7425,178.204,2.63049,0.0,0.0
584,145.75,48.5101,52.9128,141.699,98.523,74.9688,0.00987965,0.255053,20.7468,178.144,2.43864,0.0,0.0
588,146.75,49.1054,52.2889,147.146,98.5186,76.5614,0.00965369,0.252372,20.754,178.124,2.2506,0.0,0.0
592,147.75,49.1958,52.6152,146.312,98.5106,78.7831,0.00941205,0.249318,20.7622,178.014,1.99456,0.0,0.0
596,148.75,49.0074,52.2324,144.825,98.5174,77.4788,0.00912499,0.245803,20.7694,177.984,2.14419,0.0,0.0
600,149.75,48.8321,52.2672,143.658,98.5134,79.4606,0.00889455,0.242197,20.7756,177.884,1.91839,0.0,0.0
604,150.75,48.6509,52.3536,140.417,98.5106,78.8681,0.00866089,0.238858,20.781,177.844,1.98493,0.0,0.0
608,151.75,48.6989,52.3041,148.373,98.5034,80.6492,0.00845168,0.235686,20.7858,177.784,1.78496,0.0,0.0
612,152.75,48.8578,52.3208,139.97,98.5034,81.5334,0.00823759,0.232734,20.79,177.714,1.68764,0.0,0.0
616,153.75,48.5195,52.1575,144.996,98.497,81.6703,0.00798654,0.229941,20.7944,177.654,1.67208,0.0,0.0
620,154.75,48.6404,52.1896,144.168,98.4962,84.205,0.00771869,0.227323,20.7999,177.624,1.39921,0.0,0.0
624,155.75,48.4337,52.193,144.835,98.495,84.8097,0.00745636,0.22455,20.8058,177.544,1.33523,0.0,0.0
628,156.75,48.4313,52.3487,144.243,98.4958,85.2226,0.0072212,0.221628,20.8103,177.504,1.29195,0.0,0.0
632,157.75,48.45,52.1089,142.032,98.4842,85.3383,0.00697714,0.21893,20.8147,177.453,1.27879,0.0,0.0
636,158.75,48.4712,51.9661,145.633,98.4846,85.3855,0.00674403,0.216356,20.8191,177.383,1.27389,0.0,0.0
640,159.75,47.9041,51.874,145.093,98.4862,87.799,0.00650977,0.213729,20.8242,177.353,1.02525,0.0,0.0
644,160.75,48.357,51.7887,145.489,98.4822,88.2634,0.00627661,0.211099,20.8298,177.343,0.977804,0.0,0.0
648,161.75,48.0688,51.677,147.711,98.4806,89.634,0.00607871,0.208288,20.8342,177.253,0.840116,0.0,0.0
652,162.75,48.3202,51.2792,144.892,98.4838,89.5422,0.00594229,0.205378,20.8384,177.173,0.849557,0.0,0.0
656,163.75,48.0348,51.2881,148.778,98.473,89.5971,0.00583675,0.202656,20.8419,177.163,0.843111,0.0,0.0
660,164.75,47.9999,51.4973,145.586,98.471,91.0285,0.00579067,0.200243,20.8454,177.123,0.701455,0.0,0.0
664,165.75,47.5999,51.3584,145.079,98.4698,91.0234,0.00578449,0.198279,20.8493,177.083,0.701845,0.0,0.0
668,166.75,47.9268,50.8202,147.951,98.4686,91.1969,0.0057781,0.196083,20.8535,177.043,0.684739,0.0,0.0
672,167.75,47.6615,51.0682,146.816,98.4726,90.9664,0.00574526,0.193668,20.8578,176.993,0.70769,0.0,0.0
676,168.75,47.8107,50.8757,146.117,98.4686,91.6018,0.00570227,0.191302,20.8619,176.963,0.645201,0.0,0.0
680,169.75,47.444,51.3152,143.458,98.4818,92.2929,0.00566489,0.189064,20.8658,176.953,0.579313,0.0,0.0
684,170.75,46.9046,50.7486,151.016,98.4554,92.4324,0.00563498,0.186925,20.8699,176.913,0.56344,0.0,0.0
688,171.75,46.8305,50.9751,145.967,98.4494,92.4809,0.00559589,0.184724,20.873,176.863,0.558215,0.0,0.0
692,172.75,46.8041,50.6144,149.304,98.4554,92.7373,0.00554621,0.182738,20.8757,176.813,0.534043,0.0,0.0
696,173.75,47.0142,50.2671,147.313,98.4558,92.6944,0.00547269,0.1808,20.8785,176.773,0.538214,0.0,0.0
700,174.75,46.7485,50.2682,145.83,98.4446,92.8921,0.00540811,0.178744,20.8814,176.733,0.518177,0.0,0.0
704,175.75,46.9511,50.3225,144.432,98.4462,94.0484,0.00539455,0.17656,20.8842,176.693,0.407902,0.0,0.0
708,176.75,46.6456,49.7545,149.95,98.4554,93.8209,0.00543828,0.174259,20.8868,176.653,0.430356,0.0,0.0
712,177.75,46.697,49.9463,149.033,98.441,94.472,0.00549078,0.171654,20.8901,176.653,0.367321,0.0,0.0
716,178.75,46.1151,50.006,145.105,98.4402,94.1207,0.00555408,0.169339,20.893,176.603,0.400499,0.0,0.0
720,179.75,46.3322,49.498,142.15,98.431,94.048,0.00559561,0.167561,20.8958,176.563,0.406563,0.0,0.0
724,180.75,46.4201,49.5413,146.473,98.4314,94.5358,0.00562483,0.165847,20.8984,176.533,0.360425,0.0,0.0
728,181.75,46.0525,49.1671,147.021,98.429,95.0398,0.00564882,0.164248,20.9009,176.513,0.312753,0.0,0.0
732,182.75,46.338,48.9638,150.162,98.4242,94.5562,0.00566229,0.162485,20.9032,176.493,0.357844,0.0,0.0
736,183.75,45.9447,49.0167,154.155,98.4246,95.0444,0.00564975,0.160787,20.9053,176.453,0.311915,0.0,0.0
740,184.75,45.5534,49.1309,150.632,98.423,94.8169,0.00562395,0.159209,20.907,176.423,0.333161,0.0,0.0
744,185.75,45.6117,48.7258,149.294,98.409,94.8922,0.00557817,0.157689,20.9086,176.393,0.324808,0.0,0.0
748,186.75,45.3694,48.7712,147.052,98.4134,94.9645,0.00555525,0.15646,20.9102,176.362,0.31841,0.0,0.0
752,187.75,45.3673,48.6108,146.782,98.4142,94.634,0.00555337,0.155136,20.912,176.373,0.349594,0.0,0.0
756,188.75,44.9205,48.6935,147.727,98.4086,95.3132,0.00557123,0.154267,20.9139,176.312,0.285257,0.0,0.0
760,189.75,45.1564,48.4759,148.747,98.407,95.374,0.00559603,0.153101,20.9159,176.292,0.279419,0.0,0.0
764,190.75,45.0342,48.4709,150.036,98.403,95.246,0.0056151,0.152,20.9177,176.252,0.291043,0.0,0.0
768,191.75,44.8365,48.407,150.248,98.407,95.6181,0.00562661,0.150941,20.919,176.212,0.256603,0.0,0.0
772,192.75,44.6867,48.1658,147.818,98.4026,95.0708,0.00563189,0.149833,20.9206,176.212,0.307442,0.0,0.0
776,193.75,44.923,47.8685,147.308,98.4018,95.1899,0.00562858,0.148719,20.9216,176.182,0.296197,0.0,0.0
780,194.75,44.5566,47.8523,149.388,98.393,95.5641,0.00562106,0.147788,20.9228,176.152,0.260375,0.0,0.0
784,195.75,44.4727,47.4336,149.37,98.3978,96.2858,0.00561968,0.146874,20.9239,176.162,0.193659,0.0,0.0
788,196.75,44.3772,47.6543,145.773,98.389,95.0899,0.00564032,0.146091,20.9248,176.142,0.304411,0.0,0.0
792,197.75,44.1842,47.2216,149.849,98.3966,95.0997,0.00568552,0.145412,20.9265,176.122,0.304184,0.0,0.0
796,198.75,43.8629,47.0621,149.237,98.3822,95.3796,0.00573461,0.144555,20.9279,176.112,0.276651,0.0,0.0
800,199.75,43.9038,47.496,149.654,98.389,95.525,0.00577768,0.143657,20.9288,176.062,0.263668,0.0,0.0
804,200.75,44.3666,46.4791,147.855,98.3842,96.1557,0.00579718,0.14294,20.9295,176.042,0.204496,0.0,0.0
808,201.75,43.5771,47.0235,148.709,98.3786,96.0187,0.00580495,0.142408,20.9307,176.012,0.216708,0.0,0.0
812,202.75,43.7965,46.4655,148.791,98.3686,96.5427,0.00583445,0.141943,20.9315,175.962,0.167229,0.0,0.0
816,203.75,43.7196,46.7151,154.234,98.367,95.9248,0.00588592,0.141501,20.932,175.982,0.224395,0.0,0.0
820,204.75,43.5934,46.5923,148.753,98.3497,95.4991,0.00595819,0.141108,20.9323,175.952,0.262533,0.0,0.0
824,205.75,43.6017,46.7206,149.619,98.3637,96.7647,0.00599184,0.140642,20.9325,175.942,0.146292,0.0,0.0
828,206.75,43.4567,46.7339,145.5,98.3622,96.3994,0.00598565,0.14015,20.9327,175.942,0.179908,0.0,0.0
832,207.75,43.1392,45.4005,146.756,98.3517,95.7202,0.0059011,0.139708,20.9336,175.922,0.24207,0.0,0.0
836,208.75,42.8773,45.5738,152.01,98.3501,96.5516,0.00581425,0.139217,20.9342,175.872,0.164732,0.0,0.0
840,209.75,42.8754,45.8442,152.073,98.3537,95.9494,0.00568427,0.138955,20.9343,175.882,0.220902,0.0,0.0
844,210.75,42.9258,46.0878,148.973,98.3617,95.4578,0.00554912,0.138881,20.9342,175.842,0.267479,0.0,0.0
848,211.75,42.8647,45.4484,151.503,98.3513,97.329,0.00544342,0.13881,20.9341,175.812,0.0932633,0.0,0.0
852,212.75,43.0383,44.1867,146.325,98.3389,96.1119,0.00539287,0.138586,20.9343,175.822,0.20446,0.0,0.0
856,213.75,42.9023,46.2898,153.499,98.3533,96.1842,0.00538935,0.138223,20.935,175.802,0.199056,0.0,0.0
860,214.75,42.7506,45.5779,144.213,98.3365,96.5116,0.00539387,0.137857,20.9355,175.772,0.167194,0.0,0.0
864,215.75,42.8654,45.4625,153.316,98.3633,96.5418,0.00538291,0.137386,20.9357,175.742,0.166835,0.0,0.0
868,216.75,42.3393,45.2788,147.624,98.3441,96.8948,0.00535935,0.136895,20.9359,175.712,0.132517,0.0,0.0
872,217.75,42.159,45.0915,149.426,98.3353,96.7485,0.00533515,0.136524,20.9361,175.712,0.145205,0.0,0.0
876,218.75,42.2643,45.557,151.317,98.3385,96.393,0.00530966,0.136321,20.9362,175.692,0.178355,0.0,0.0
880,219.75,41.8606,44.8873,145.764,98.3385,96.0396,0.00528939,0.136255,20.9366,175.722,0.21114,0.0,0.0
884,220.75,42.0377,44.8414,148.577,98.3642,96.6401,0.0052794,0.136187,20.937,175.682,0.15783,0.0,0.0
888,221.75,41.6131,45.0976,153.381,98.3762,95.9324,0.00526821,0.136048,20.9367,175.632,0.224519,0.0,0.0
892,222.75,41.8218,44.3529,152.556,98.3874,96.9816,0.00525322,0.135821,20.9368,175.602,0.128452,0.0,0.0
896,223.75,41.7719,44.7024,146.172,98.4038,96.7617,0.00524986,0.135617,20.9374,175.592,0.150198,0.0,0.0
900,224.75,41.6301,44.4198,151.008,98.4246,96.5975,0.00525961,0.135198,20.9379,175.592,0.167241,0.0,0.0
904,225.75,41.6838,44.2952,148.146,98.4442,96.6907,0.00528042,0.13482,20.9381,175.592,0.160418,0.0,0.0
908,226.75,41.6627,44.2208,147.667,98.4702,96.3585,0.00532276,0.134512,20.9383,175.572,0.193489,0.0,0.0
912,227.75,41.5831,44.3552,150.398,98.4858,96.6252,0.00539001,0.134213,20.9384,175.532,0.170239,0.0,0.0
916,228.75,41.6114,44.1637,151.018,98.5002,97.2142,0.00545477,0.134079,20.9387,175.512,0.1173,0.0,0.0
920,229.75,41.097,44.2637,148.804,98.513,96.467,0.00550457,0.134061,20.9395,175.482,0.18733,0.0,0.0
924,230.75,41.3399,43.6982,145.596,98.5371,97.0275,0.00554201,0.13413,20.94,175.452,0.137795,0.0,0.0
928,231.75,40.6701,44.2657,146.543,98.5355,96.797,0.0055696,0.134171,20.9397,175.462,0.158878,0.0,0.0
932,232.75,41.427,43.7435,150.856,98.5703,97.2244,0.00559901,0.134095,20.9397,175.442,0.122709,0.0,0.0
936,233.75,41.1443,44.0094,149.277,98.5775,96.8383,0.00558959,0.13402,20.94,175.422,0.158882,0.0,0.0
940,234.75,40.9854,43.2251,145.795,98.5787,96.9897,0.00552895,0.133948,20.9406,175.422,0.145048,0.0,0.0
944,235.75,40.9658,43.6487,148.143,98.5983,96.5074,0.00544488,0.133847,20.9403,175.422,0.191314,0.0,0.0
948,236.75,40.8042,43.2526,148.228,98.6187,96.9174,0.00534331,0.133806,20.941,175.372,0.155326,0.0,0.0
952,237.75,40.7121,43.1781,148.44,98.6107,97.1181,0.00524736,0.133577,20.9414,175.372,0.136133,0.0,0.0
956,238.75,40.3962,43.5438,151.738,98.6339,97.4396,0.00520245,0.133291,20.9424,175.342,0.108736,0.0,0.0
960,239.75,40.414,43.3566,153.534,98.6487,96.8561,0.00521583,0.133002,20.9431,175.352,0.163683,0.0,0.0
964,240.75,40.4679,43.1652,151.978,98.6595,96.7736,0.00524831,0.132733,20.9436,175.352,0.172267,0.0,0.0
968,241.75,40.7999,42.4901,147.283,98.6647,96.746,0.00528132,0.132526,20.9437,175.332,0.175288,0.0,0.0
972,242.75,40.8148,42.7698,151.361,98.6988,97.4813,0.00527199,0.132453,20.943,175.312,0.110784,0.0,0.0
976,243.75,40.3946,43.1099,147.589,98.6955,96.7341,0.00522573,0.132532,20.942,175.261,0.179175,0.0,0.0
980,244.75,40.3598,43.0114,150.391,98.704,96.3454,0.00517052,0.13261,20.9413,175.241,0.215873,0.0,0.0
984,245.75,39.528,43.1785,149.889,98.7216,97.0003,0.00512461,0.132681,20.9408,175.241,0.156997,0.0,0.0
988,246.75,39.8226,43.2364,143.531,98.7216,96.7855,0.00508809,0.132592,20.9405,175.211,0.17678,0.0,0.0
992,247.75,40.6751,42.4384,151.068,98.7284,97.3469,0.0050741,0.132415,20.9403,175.221,0.125776,0.0,0.0
996,248.75,40.0445,42.7324,147.351,98.7432,96.6201,0.00507797,0.132297,20.9402,175.191,0.194003,0.0,0.0
1000,249.75,40.499,42.1125,152.222,98.754,96.4814,0.00508061,0.13221,20.9401,175.191,0.207796,0.0,0.0
1004,250.75,39.8973,42.5692,146.075,98.7472,96.6124,0.0050491,0.132117,20.9401,175.151,0.195072,0.0,0.0
1008,251.75,39.8583,42.3265,149.346,98.7596,96.7651,0.00496821,0.132005,20.94,175.151,0.182101,0.0,0.0
1012,252.75,39.8713,42.1179,150.135,98.7928,96.9922,0.00484585,0.131951,20.9402,175.111,0.164179,0.0,0.0
1016,253.75,40.4623,41.9151,153.241,98.7796,96.7932,0.00473638,0.131881,20.9409,175.121,0.18132,0.0,0.0
1020,254.75,39.7688,42.319,149.589,98.792,96.9271,0.00465781,0.131723,20.9414,175.091,0.170096,0.0,0.0
1024,255.75,40.2574,42.1405,147.946,98.8004,97.3452,0.0046285,0.13135,20.9419,175.061,0.132442,0.0,0.0
1028,256.75,40.2404,42.2886,150.494,98.814,97.1011,0.00467922,0.13088,20.9427,175.071,0.156082,0.0,0.0
1032,257.75,39.7405,42.2224,147.377,98.8252,96.4602,0.00475081,0.130527,20.9432,175.021,0.216201,0.0,0.0
1036,258.75,39.8378,42.0488,148.84,98.8376,97.1164,0.00481806,0.130235,20.9436,175.021,0.156808,0.0,0.0
1040,259.75,40.092,41.7328,153.07,98.8352,97.1262,0.00485092,0.129947,20.9438,175.021,0.155692,0.0,0.0
1044,260.75,39.6425,41.9669,152.344,98.8496,96.717,0.00484095,0.129757,20.944,175.011,0.194669,0.0,0.0
1048,261.75,39.438,41.7539,148.943,98.8448,96.5129,0.00480208,0.129623,20.9441,175.001,0.213094,0.0,0.0
1052,262.75,39.5619,41.6604,147.192,98.8661,97.1083,0.00473175,0.129494,20.9441,174.961,0.160116,0.0,0.0
1056,263.75,39.7862,42.0255,151.9,98.8661,96.9161,0.0046643,0.129351,20.9442,174.941,0.177802,0.0,0.0
1060,264.75,40.1632,41.6313,150.603,98.8801,97.1126,0.00461378,0.129294,20.9444,174.941,0.16099,0.0,0.0
1064,265.75,39.6686,42.0316,153.064,98.8841,96.692,0.00457217,0.129317,20.9454,174.921,0.200093,0.0,0.0
1068,266.75,39.4221,42.0207,147.546,98.8981,97.1147,0.00452269,0.129298,20.9466,174.901,0.16242,0.0,0.0
1072,267.75,39.8218,41.6549,150.332,98.9141,97.6497,0.00447716,0.128978,20.9474,174.891,0.114829,0.0,0.0
1076,268.75,39.1418,42.0638,150.939,98.9173,97.1751,0.00439243,0.128385,20.9479,174.871,0.158606,0.0,0.0
1080,269.75,39.7562,41.5002,152.823,98.9177,97.0045,0.00429482,0.127765,20.9491,174.851,0.174318,0.0,0.0
1084,270.75,39.5718,41.5511,151.02,98.9313,97.4064,0.00418218,0.127204,20.9498,174.841,0.138645,0.0,0.0
1088,271.75,39.4477,41.1606,148.669,98.9493,97.036,0.00411572,0.126621,20.9502,174.821,0.174276,0.0,0.0
1092,272.75,39.121,41.8333,155.308,98.9485,97.0904,0.00405054,0.126006,20.9505,174.791,0.169198,0.0,0.0
1096,273.75,39.5987,41.1729,151.358,98.9577,97.9959,0.00401841,0.125567,20.9508,174.811,0.0871794,0.0,0.0
1100,274.75,38.9159,41.5677,150.355,98.9561,96.8013,0.00401163,0.12534,20.9509,174.771,0.196509,0.0,0.0
1104,275.75,39.155,40.8984,147.291,98.9601,97.2916,0.0040337,0.125155,20.951,174.741,0.151771,0.0,0.0
1108,276.75,39.3941,41.2815,149.404,98.9777,98.5683,0.00407476,0.124983,20.9511,174.731,0.0369976,0.0,0.0
1112,277.75,38.9095,41.3749,151.117,98.9873,97.6335,0.00410693,0.12485,20.9516,174.711,0.122912,0.0,0.0
1116,278.75,39.2595,41.1426,148.694,98.9833,97.605,0.00413028,0.124735,20.9522,174.711,0.125158,0.0,0.0
1120,279.75,39.151,40.7514,149.627,98.9829,97.0815,0.00412453,0.124575,20.9524,174.691,0.173123,0.0,0.0
1124,280.75,39.5929,41.5305,148.094,98.9849,97.6654,0.0040752,0.124398,20.9526,174.651,0.119781,0.0,0.0
1128,281.75,38.8808,41.1378,148.261,99.0013,96.8778,0.00399128,0.12424,20.9527,174.661,0.193532,0.0,0.0
1132,282.75,39.2046,41.326,149.356,99.0137,97.5612,0.00390015,0.124102,20.9528,174.661,0.131907,0.0,0.0
1136,283.75,39.0642,41.2916,151.247,99.0237,97.2499,0.0038086,0.123782,20.9528,174.651,0.161334,0.0,0.0
1140,284.75,39.1684,41.1827,148.925,99.0277,97.1976,0.00378211,0.123368,20.9535,174.631,0.166497,0.0,0.0
1144,285.75,38.9226,41.2573,145.93,99.0285,97.2393,0.00380057,0.122956,20.9541,174.611,0.162743,0.0,0.0
1148,286.75,38.9769,41.4946,146.468,99.0289,97.3473,0.00382504,0.122507,20.9545,174.581,0.152869,0.0,0.0
1152,287.75,38.7467,41.0908,148.405,99.0438,97.1011,0.00384619,0.122028,20.9547,174.591,0.176809,0.0,0.0
1156,288.75,39.0149,41.3331,148.402,99.0478,97.9397,0.00386407,0.121627,20.9549,174.591,0.100412,0.0,0.0
1160,289.75,38.5176,40.6819,150.061,99.0546,97.2172,0.00387675,0.121218,20.955,174.581,0.167117,0.0,0.0
1164,290.75,38.7112,41.0285,148.706,99.059,97.4668,0.00388731,0.120724,20.9551,174.571,0.144625,0.0,0.0
1168,291.75,38.9733,40.9715,149.493,99.0642,97.6901,0.00388527,0.120292,20.9558,174.541,0.12467,0.0,0.0
1172,292.75,38.8425,41.0985,149.343,99.0682,97.4541,0.00387498,0.119808,20.957,174.541,0.146622,0.0,0.0
1176,293.75,38.6785,40.4524,151.21,99.0834,97.5408,0.0038615,0.11924,20.958,174.521,0.140051,0.0,0.0
1180,294.75,38.1495,41.0726,149.71,99.0702,97.9436,0.0038325,0.118649,20.9587,174.521,0.102083,0.0,0.0
1184,295.75,38.9476,40.9831,147.879,99.0758,97.6399,0.00376869,0.118124,20.9591,174.491,0.130302,0.0,0.0
1188,296.75,38.8523,41.0711,149.892,99.0806,98.0354,0.00367492,0.117798,20.9594,174.481,0.0946541,0.0,0.0
1192,297.75,38.6819,40.4944,151.273,99.079,97.3516,0.00353557,0.117547,20.9595,174.461,0.156987,0.0,0.0
1196,298.75,38.7587,40.8884,152.239,99.0886,97.2482,0.00338802,0.11724,20.9599,174.451,0.167332,0.0,0.0
1200,299.75,38.6898,40.4696,149.588,99.095,96.8965,0.00326599,0.116913,20.9607,174.461,0.200248,0.0,0.0
1204,300.75,38.7672,40.8923,146.408,99.0926,97.696,0.00317801,0.116438,20.9615,174.461,0.126686,0.0,0.0
1208,301.75,38.6631,40.6083,149.066,99.0982,97.2827,0.00314495,0.115904,20.9625,174.441,0.165037,0.0,0.0
1212,302.75,38.2432,40.8057,143.865,99.0942,97.4141,0.00318149,0.115399,20.9632,174.431,0.152628,0.0,0.0
1216,303.75,38.5118,40.28,144.582,99.1166,98.1094,0.00323645,0.114943,20.9637,174.391,0.0911634,0.0,0.0
1220,304.75,38.7203,40.4836,152.283,99.1054,98.0333,0.00338881,0.114188,20.9646,174.361,0.0970815,0.0,0.0
1224,305.75,38.2979,40.4433,151.316,99.1082,98.0163,0.00354349,0.113641,20.9654,174.361,0.0988832,0.0,0.0
1228,306.75,38.5406,40.2939,150.977,99.1198,98.4441,0.00368442,0.113324,20.9659,174.351,0.0610544,0.0,0.0
1232,307.75,38.3393,40.8435,150.83,99.1154,97.2006,0.00377647,0.113121,20.9662,174.341,0.174121,0.0,0.0
1236,308.75,38.4016,40.0429,146.608,99.1286,97.9287,0.00379965,0.112894,20.9665,174.341,0.108703,0.0,0.0
1240,309.75,37.9337,40.9169,149.909,99.1254,97.5727,0.00376654,0.112669,20.9666,174.321,0.140917,0.0,0.0
1244,310.75,38.4329,40.3888,151.816,99.1246,97.8474,0.00373437,0.11243,20.9667,174.301,0.115749,0.0,0.0
1248,311.75,38.5387,40.2085,149.397,99.1326,97.2521,0.0036439,0.112184,20.9668,174.281,0.170946,0.0,0.0
1252,312.75,38.3055,40.2498,147.871,99.1406,97.2333,0.00355995,0.111895,20.9674,174.261,0.173385,0.0,0.0
1256,313.75,38.4041,40.2425,149.402,99.1526,98.8549,0.0035004,0.111486,20.968,174.271,0.0268387,0.0,0.0
1260,314.75,38.1779,40.4397,153.61,99.1422,97.5514,0.00345605,0.110907,20.9684,174.271,0.144375,0.0,0.0
1264,315.75,38.0365,40.1108,150.666,99.147,97.329,0.00340792,0.110155,20.9691,174.251,0.165181,0.0,0.0
1268,316.75,38.2549,40.1873,150.093,99.143,97.6114,0.0033452,0.109452,20.97,174.251,0.138962,0.0,0.0
1272,317.75,38.2407,40.3564,150.477,99.151,97.7624,0.00328526,0.108812,20.9705,174.261,0.125889,0.0,0.0
1276,318.75,38.2344,40.2176,149.968,99.1522,97.2078,0.00322133,0.108232,20.9709,174.251,0.176773,0.0,0.0
1280,319.75,38.2783,40.1943,151.804,99.1594,96.9824,0.00320771,0.107707,20.9719,174.231,0.19814,0.0,0.0
1284,320.75,37.9184,40.133,152.192,99.157,97.8351,0.00324472,0.107136,20.9726,174.201,0.119793,0.0,0.0
1288,321.75,38.0986,39.8689,150.884,99.163,97.5791,0.00335843,0.106642,20.973,174.211,0.14372,0.0,0.0
1292,322.75,38.2039,39.8817,153.211,99.173,97.4502,0.00346437,0.106126,20.9739,174.201,0.156415,0.0,0.0
1296,323.75,37.844,40.1541,147.416,99.1674,98.4024,0.00353611,0.105647,20.9747,174.17,0.0691212,0.0,0.0
1300,324.75,37.8817,40.1605,150.529,99.1642,97.8223,0.00358319,0.105217,20.9752,174.14,0.121605,0.0,0.0
1304,325.75,37.844,39.9157,150.235,99.1646,97.3494,0.00360959,0.104808,20.9762,174.15,0.164895,0.0,0.0
1308,326.75,37.8456,39.8845,149.203,99.1774,98.2187,0.00363363,0.10445,20.9764,174.12,0.086702,0.0,0.0
1312,327.75,37.9936,39.4675,149.102,99.1806,98.0486,0.00366956,0.104176,20.9769,174.15,0.102462,0.0,0.0
1316,328.75,37.7067,39.7474,146.693,99.1794,97.9903,0.00371552,0.103888,20.9775,174.16,0.107659,0.0,0.0
1320,329.75,37.7967,39.639,149.502,99.1838,98.0061,0.0037524,0.103583,20.9778,174.16,0.106623,0.0,0.0
1324,330.75,38.3571,39.6173,150.736,99.1898,97.6263,0.00376092,0.103307,20.9781,174.12,0.141816,0.0,0.0
1328,331.75,37.5676,39.6727,149.353,99.1774,97.6484,0.00375218,0.103082,20.9782,174.1,0.138678,0.0,0.0
1332,332.75,37.8052,39.6534,152.589,99.1746,96.9794,0.00371152,0.102852,20.9783,174.08,0.199783,0.0,0.0
1336,333.75,37.8994,39.4554,152.836,99.1918,97.5353,0.00365799,0.102612,20.9784,174.07,0.150321,0.0,0.0
1340,334.75,37.9195,39.4381,154.514,99.1814,97.4302,0.00359602,0.102379,20.9791,174.07,0.159003,0.0,0.0
1344,335.75,37.3008,39.3239,149.167,99.2035,97.9261,0.00353972,0.1021,20.9797,174.07,0.115671,0.0,0.0
1348,336.75,37.3837,39.826,151.719,99.1922,98.0261,0.0034916,0.101676,20.9807,174.07,0.105559,0.0,0.0
1352,337.75,37.6014,39.3993,150.151,99.1778,98.038,0.00345779,0.101174,20.9816,174.04,0.103178,0.0,0.0
1356,338.75,37.6489,39.6539,152.823,99.1834,97.1223,0.00343932,0.100629,20.9826,174.03,0.187435,0.0,0.0
1360,339.75,37.4954,38.986,151.084,99.1878,97.6395,0.00343143,0.100003,20.9836,174.02,0.140431,0.0,0.0
1364,340.75,37.3367,39.4869,151.446,99.1766,97.8053,0.00342232,0.0993618,20.9842,174.01,0.124274,0.0,0.0
1368,341.75,37.6181,39.3131,152.325,99.1814,97.6697,0.00341234,0.0987089,20.9847,174,0.137095,0.0,0.0
1372,342.75,37.3232,39.2557,152.024,99.1942,97.6539,0.00337946,0.0981295,20.9858,173.99,0.139685,0.0,0.0
1376,343.75,37.3969,38.8877,147.564,99.1802,97.113,0.00335948,0.0977997,20.9867,173.98,0.188006,0.0,0.0
1380,344.75,37.3169,39.1913,147.941,99.1898,97.6127,0.00337318,0.0974062,20.9874,173.97,0.14306,0.0,0.0
1384,345.75,36.6245,38.2722,145.156,99.1886,97.1466,0.00341213,0.0968501,20.9883,173.94,0.185675,0.0,0.0
1388,346.75,37.1382,38.8616,150.648,99.177,98.1877,0.00347043,0.0961576,20.9892,173.91,0.0894876,0.0,0.0
1392,347.75,36.952,38.6503,149.176,99.1882,97.3154,0.00351531,0.0955581,20.9898,173.91,0.17014,0.0,0.0
1396,348.75,37.2567,38.4878,150.562,99.1886,97.0471,0.00359177,0.0950285,20.9906,173.91,0.194823,0.0,0.0
1400,349.75,36.6418,38.8997,150.241,99.1834,97.9886,0.00365089,0.0946098,20.9913,173.92,0.108174,0.0,0.0
1404,350.75,36.8804,38.534,151.289,99.1818,97.2759,0.00366058,0.0942795,20.9917,173.91,0.173192,0.0,0.0
1408,351.75,36.8528,38.6675,150.513,99.1726,97.3452,0.00360875,0.0940318,20.992,173.87,0.166006,0.0,0.0
1412,352.75,36.6718,38.7583,152.696,99.1838,97.4,0.00356049,0.0938665,20.9921,173.86,0.161984,0.0,0.0
1416,353.75,36.7884,38.6481,153.256,99.1706,98.0652,0.00349665,0.0937191,20.9923,173.88,0.100052,0.0,0.0
1420,354.75,36.6256,38.4854,150.981,99.1714,97.9291,0.00346631,0.0935921,20.992,173.87,0.112519,0.0,0.0
1424,355.75,36.366,38.18,152.563,99.1806,98.0244,0.00345908,0.0934899,20.9919,173.88,0.104669,0.0,0.0
1428,356.75,36.8923,38.3267,155.114,99.177,97.3494,0.00344654,0.0933436,20.9918,173.85,0.166011,0.0,0.0
1432,357.75,36.3706,38.1772,150.436,99.1726,97.3477,0.00341279,0.0931471,20.9917,173.83,0.165771,0.0,0.0
1436,358.75,36.8463,38.4583,151.416,99.1734,98.0137,0.0033748,0.0929771,20.9917,173.82,0.104989,0.0,0.0
1440,359.75,36.7657,38.4584,152.422,99.1778,97.1415,0.00335339,0.0928206,20.9917,173.81,0.18517,0.0,0.0
1444,360.75,36.6143,38.1923,151.244,99.165,98.3544,0.00335439,0.0926657,20.9917,173.82,0.0732653,0.0,0.0
1448,361.75,36.7982,38.3759,148.642,99.1682,98.2634,0.00336587,0.092572,20.9921,173.81,0.0818156,0.0,0.0
1452,362.75,36.7162,38.206,148.476,99.1678,97.696,0.00337002,0.0926172,20.9927,173.77,0.133462,0.0,0.0
1456,363.75,36.3781,38.1937,149.189,99.1654,97.9606,0.00335156,0.0928251,20.9931,173.76,0.109111,0.0,0.0
1460,364.75,36.5371,38.6522,147.974,99.169,97.6437,0.00329878,0.0930117,20.9934,173.77,0.138349,0.0,0.0
1464,365.75,36.6235,38.8488,150.42,99.1694,97.6748,0.00324416,0.0930086,20.9936,173.76,0.135548,0.0,0.0
1468,366.75,36.4247,38.0567,151.125,99.1706,97.8028,0.00315909,0.0929814,20.9937,173.77,0.123966,0.0,0.0
1472,367.75,36.3663,38.0089,151.98,99.165,97.8457,0.00307246,0.092863,20.9938,173.77,0.119543,0.0,0.0
1476,368.75,36.3515,37.9449,148.952,99.1562,97.7352,0.00300387,0.0927299,20.9939,173.75,0.128843,0.0,0.0
1480,369.75,36.4066,38.4519,148.311,99.1666,97.5408,0.00296576,0.0925976,20.9939,173.73,0.147547,0.0,0.0
1484,370.75,36.3655,37.9409,149.728,99.1562,96.9076,0.00294311,0.0925253,20.9939,173.72,0.204744,0.0,0.0
1488,371.75,36.4271,37.8771,152.267,99.1546,97.3775,0.00293969,0.0925063,20.9939,173.73,0.161422,0.0,0.0
1492,372.75,36.3065,37.8248,151.958,99.1538,98.5024,0.00293271,0.092476,20.9939,173.73,0.058836,0.0,0.0
1496,373.75,35.8359,38.2507,146.963,99.1406,97.7905,0.00292935,0.0924006,20.9938,173.72,0.12239,0.0,0.0
1500,374.75,36.2167,37.3904,149.287,99.1438,97.0875,0.00293185,0.0922923,20.9938,173.73,0.187073,0.0,0.0
1504,375.75,35.9539,38.1865,149.632,99.1386,97.4481,0.00293894,0.0921881,20.9938,173.7,0.153512,0.0,0.0
1508,376.75,36.6219,37.5179,150.101,99.1366,98.2404,0.00294066,0.0920663,20.9938,173.68,0.0810565,0.0,0.0
1512,377.75,36.4621,37.8822,150.816,99.1366,97.7152,0.00293326,0.0920366,20.9938,173.7,0.128902,0.0,0.0
1516,378.75,35.6212,37.3256,151.97,99.1346,97.7258,0.00292136,0.0920567,20.9938,173.67,0.127751,0.0,0.0
1520,379.75,36.5057,38.3106,153.012,99.1258,97.6654,0.00291176,0.0920212,20.9938,173.65,0.132476,0.0,0.0
1524,380.75,36.2719,37.8027,149.616,99.1462,97.429,0.00290897,0.0920611,20.9938,173.65,0.155949,0.0,0.0
1528,381.75,36.0015,37.6252,146.881,99.1318,97.8713,0.00291336,0.0921123,20.9938,173.62,0.114225,0.0,0.0
1532,382.75,36.4955,38.0091,149.906,99.121,97.5055,0.00292258,0.0921308,20.9938,173.63,0.146669,0.0,0.0
1536,383.75,36.1444,37.5186,152.691,99.1318,97.8747,0.00293263,0.0920538,20.9938,173.62,0.113915,0.0,0.0
1540,384.75,36.0207,37.707,150.907,99.1226,97.6875,0.00293403,0.0919531,20.9938,173.59,0.130167,0.0,0.0
1544,385.75,36.05,37.8124,147.729,99.113,97.7492,0.00291647,0.0919623,20.9938,173.57,0.123669,0.0,0.0
1548,386.75,36.5077,37.4904,148.688,99.1014,97.3452,0.00289071,0.0918695,20.9946,173.6,0.159591,0.0,0.0
1552,387.75,36.4062,37.9129,152.221,99.1062,97.9121,0.00286503,0.0917681,20.9951,173.6,0.108196,0.0,0.0
1556,388.75,35.6818,37.6284,148.117,99.0934,97.739,0.00283528,0.0917497,20.9955,173.58,0.122835,0.0,0.0
1560,389.75,36.135,37.9599,155.333,99.101,97.7335,0.00280415,0.0917119,20.9957,173.54,0.124025,0.0,0.0
1564,390.75,36.4259,37.8132,150.697,99.0826,98.6372,0.00277084,0.0916608,20.9952,173.53,0.040213,0.0,0.0
1568,391.75,35.9836,38.0685,151.9,99.077,97.4358,0.00272856,0.0916231,20.9948,173.54,0.149091,0.0,0.0
1572,392.75,35.9558,37.8288,148.32,99.0694,97.1547,0.00266841,0.0915304,20.9945,173.55,0.174194,0.0,0.0
1576,393.75,35.6615,37.6186,153.139,99.0502,97.6603,0.00262328,0.0914339,20.9942,173.55,0.126129,0.0,0.0
1580,394.75,35.7909,37.7313,152.311,99.0594,97.4647,0.00256899,0.091406,20.9942,173.52,0.144855,0.0,0.0
1584,395.75,36.0299,37.6312,151.278,99.0498,97.6263,0.00250848,0.0914276,20.9943,173.55,0.129202,0.0,0.0
1588,396.75,36.2313,38.0099,147.443,99.0414,99.0927,0.00246848,0.0914973,20.9947,173.52,-0.00462114,0.0,0.0
1592,397.75,36.2417,37.4321,148.874,99.0369,97.7569,0.00245751,0.091588,20.9949,173.51,0.116119,0.0,0.0
1596,398.75,35.9703,37.8238,151.532,99.0289,97.5459,0.00247256,0.0915236,20.995,173.5,0.134679,0.0,0.0
1600,399.75,35.891,37.7641,152.074,99.0033,98.3667,0.002501,0.0914615,20.9951,173.5,0.0575812,0.0,0.0
1604,400.75,36.4691,37.6892,150.5,98.9989,97.9002,0.00252663,0.0914154,20.9952,173.49,0.0996166,0.0,0.0
1608,401.75,36.086,37.4663,149.36,98.9949,98.3569,0.00259021,0.091405,20.9952,173.47,0.0577102,0.0,0.0
1612,402.75,36.2914,37.9072,149.793,98.9861,96.8306,0.00267204,0.0913533,20.9953,173.48,0.196511,0.0,0.0
1616,403.75,36.2767,37.5985,153.244,98.9889,98.1005,0.00274356,0.0912995,20.9953,173.46,0.0804702,0.0,0.0
1620,404.75,35.8383,37.3876,150.897,98.9809,97.7586,0.00277934,0.0913006,20.9953,173.44,0.110913,0.0,0.0
1624,405.75,36.1905,37.378,150.286,98.9725,97.7258,0.00278197,0.0913766,20.9951,173.46,0.113145,0.0,0.0
1628,406.75,36.0431,37.6786,155.361,98.9553,97.4766,0.0027582,0.0914456,20.9949,173.46,0.134384,0.0,0.0
1632,407.75,36.5482,37.2651,150.502,98.9485,97.844,0.00274145,0.0914552,20.9948,173.45,0.100188,0.0,0.0
1636,408.75,36.1376,37.3921,150.419,98.9329,97.1891,0.0027557,0.0913595,20.9946,173.42,0.158725,0.0,0.0
1640,409.75,35.8177,37.14,148.878,98.9313,98.5343,0.0027997,0.0912716,20.9946,173.42,0.0358913,0.0,0.0
1644,410.75,35.8528,37.509,149.979,98.9253,98.2353,0.00285468,0.0911744,20.9945,173.41,0.0624735,0.0,0.0
1648,411.75,35.9876,37.6546,147.82,98.9201,97.7611,0.0029114,0.0910722,20.9945,173.4,0.105192,0.0,0.0
1652,412.75,35.7413,37.4967,152.706,98.9069,97.7067,0.00295652,0.0910105,20.9945,173.4,0.108971,0.0,0.0
1656,413.75,35.8037,37.5143,150.123,98.8945,97.3001,0.00298613,0.0909924,20.9945,173.38,0.145069,0.0,0.0
1660,414.75,35.7716,37.2175,150.906,98.8801,98.015,0.00300204,0.0909806,20.9945,173.4,0.0784296,0.0,0.0
1664,415.75,36.0505,37.0336,150.539,98.8773,97.366,0.00299788,0.0909312,20.9945,173.4,0.137471,0.0,0.0
1668,416.75,35.7776,37.1806,151.908,98.8568,97.2521,0.0029841,0.0908096,20.9945,173.37,0.146082,0.0,0.0
1672,417.75,35.7104,37.3077,150.884,98.8496,98.0112,0.00292763,0.0906923,20.9943,173.37,0.0760319,0.0,0.0
1676,418.75,35.7241,37.5537,152.17,98.8384,97.5247,0.00284663,0.0906331,20.994,173.38,0.119436,0.0,0.0
1680,419.75,36.1673,37.3996,148.591,98.8408,97.4017,0.00277789,0.0905947,20.9944,173.37,0.130909,0.0,0.0
1684,420.75,35.7121,37.5661,150.259,98.8164,97.295,0.00272611,0.090556,20.9949,173.38,0.138491,0.0,0.0
1688,421.75,35.3248,37.4897,152.759,98.8136,97.2576,0.00269805,0.0904805,20.9949,173.36,0.141672,0.0,0.0
1692,422.75,35.3416,37.4062,154.079,98.8012,97.1572,0.00266312,0.0904099,20.9944,173.35,0.149767,0.0,0.0
1696,423.75,36.0356,37.3921,147.331,98.7932,97.7526,0.00263458,0.0904357,20.9941,173.34,0.094513,0.0,0.0
1700,424.75,35.706,37.4168,151.56,98.784,97.6463,0.00261622,0.0905192,20.9938,173.35,0.103395,0.0,0.0
1704,425.75,35.9097,37.232,151.602,98.7672,97.2091,0.00260826,0.0906953,20.9937,173.35,0.141927,0.0,0.0
1708,426.75,35.7403,37.1763,148.446,98.7672,97.9453,0.00260539,0.0907385,20.9936,173.34,0.0745897,0.0,0.0
1712,427.75,36.1434,37.4236,153.421,98.7412,98.2225,0.00261309,0.0906216,20.9933,173.31,0.0470054,0.0,0.0
1716,428.75,35.8695,37.7203,153.741,98.7308,97.0722,0.00263219,0.0904933,20.993,173.31,0.151218,0.0,0.0
1720,429.75,35.7859,37.0784,149.262,98.7096,97.2342,0.00267483,0.0904444,20.9929,173.29,0.134415,0.0,0.0
1724,430.75,36.1768,37.3047,151.39,98.6995,97.4243,0.00272092,0.09046,20.9928,173.29,0.116076,0.0,0.0
1728,431.75,36.3164,37.1335,149.943,98.6907,97.5995,0.00277726,0.0905057,20.9927,173.27,0.099241,0.0,0.0
1732,432.75,35.9476,36.8352,150.015,98.6711,97.6518,0.00280859,0.0905358,20.9927,173.29,0.0926852,0.0,0.0
1736,433.75,35.7872,37.4829,152.954,98.6559,97.8304,0.00281231,0.0905315,20.9926,173.29,0.074998,0.0,0.0
1740,434.75,35.5602,37.3234,147.859,98.6515,97.2716,0.00280677,0.0905869,20.9926,173.26,0.12573,0.0,0.0
1744,435.75,35.4367,37.1851,150.262,98.6443,97.13,0.00277418,0.0905997,20.9926,173.26,0.138082,0.0,0.0
1748,436.75,35.6182,37.2574,150.2,98.6307,97.2686,0.00273497,0.0905776,20.9926,173.25,0.124119,0.0,0.0
1752,437.75,35.7644,36.9479,149.836,98.6271,97.4515,0.00270556,0.0905183,20.9926,173.24,0.107028,0.0,0.0
1756,438.75,35.7402,37.3419,151.803,98.6171,97.4783,0.00267625,0.090441,20.9926,173.23,0.103671,0.0,0.0
1760,439.75,35.8091,37.4241,147.959,98.6251,96.7498,0.00265513,0.0903678,20.9926,173.22,0.17135,0.0,0.0
1764,440.75,35.7559,37.4441,149.774,98.6223,97.4902,0.00261902,0.09037,20.9934,173.2,0.103051,0.0,0.0
1768,441.75,35.6964,37.1025,154.435,98.6147,97.05,0.00258865,0.0904216,20.9942,173.23,0.142753,0.0,0.0
1772,442.75,35.6652,37.4297,150.97,98.6235,97.1087,0.0025668,0.0903585,20.9947,173.25,0.138152,0.0,0.0
1776,443.75,35.9057,37.3728,151.616,98.6223,97.124,0.0025408,0.0902107,20.995,173.21,0.136637,0.0,0.0
1780,444.75,35.4294,37.2421,149.485,98.6215,97.6386,0.00251683,0.0901059,20.9953,173.19,0.0894002,0.0,0.0
1784,445.75,35.5967,36.9253,150.697,98.6279,97.1653,0.00249713,0.0900797,20.9955,173.2,0.133355,0.0,0.0
1788,446.75,35.047,36.9569,149.51,98.6323,97.457,0.00248614,0.0900054,20.9956,173.19,0.106994,0.0,0.0
1792,447.75,35.7896,37.1135,149.47,98.6271,97.1342,0.00248366,0.0900318,20.9956,173.21,0.136134,0.0,0.0
1796,448.75,35.6285,37.0108,151.877,98.6319,97.3031,0.00251081,0.0901085,20.9959,173.2,0.121068,0.0,0.0
1800,449.75,35.7959,37.4034,146.717,98.6507,98.1723,0.00253739,0.0901748,20.9962,173.18,0.0433869,0.0,0.0
1804,450.75,35.6417,37.3167,149.475,98.6431,97.4409,0.00255104,0.0901776,20.9963,173.16,0.109452,0.0,0.0
1808,451.75,35.3698,37.1557,152.375,98.6443,97.9495,0.00255132,0.0901318,20.9964,173.14,0.0630916,0.0,0.0
1812,452.75,35.5242,37.1516,148.788,98.6687,97.9367,0.0025559,0.0900662,20.9965,173.15,0.0664623,0.0,0.0
1816,453.75,35.7339,37.5983,149.368,98.6587,97.9299,0.0025707,0.0899981,20.9965,173.14,0.0661782,0.0,0.0
1820,454.75,35.4064,37.1936,148.569,98.6615,98.0635,,0.0899732,,173.14,0.0542685,0.0,0.0
1824,455.75,35.6049,37.044,149.736,98.6651,98.1575,,0.0899423,,173.13,0.0460443,0.0,0.0
1828,456.75,35.4693,36.8578,152.133,98.6759,97.8024,,0.0898773,,173.13,0.0793693,0.0,0.0
1832,457.75,35.4653,37.0091,148.111,98.6936,98.0941,,,,173.099,0.0543774,0.0,0.0
1836,458.75,35.9296,37.1682,148.129,98.6887,97.696,,,,173.12,0.0902366,0.0,0.0
1840,459.75,35.8853,37.0672,152.13,98.6964,97.8398,,,,173.089,0.077802,0.0,0.0
1844,460.75,35.2704,36.9997,156.884,98.6919,97.4889,,,,173.089,0.109468,0.0,0.0
1848,461.75,35.3616,37.3327,150.206,98.7064,97.5208,,,,173.079,0.107851,0.0,0.0
1852,462.75,35.671,36.6127,146.936,98.7092,97.0556,,,,173.069,0.150789,0.0,0.0
1856,463.75,35.3828,37.3344,150.755,98.714,97.5157,,,,173.069,0.109006,0.0,0.0
1860,464.75,35.5439,37.2549,151.809,98.7088,97.5093,,,,173.069,0.109119,0.0,0.0