File: 01_Data/Vinyl_Tile/Cone/Vinyl_Tile_Cone_HF25Scan_220405_R1.csv
Names,Time,Stack TC,Smoke TC,Exh Press,Smoke Comp,Smoke Meas,CO Meter,CO2 Meter,O2 Meter,Sample Mass,Ext Coeff,Start Test,Flame Verif
Chan Gain,,500,500,1,1,1,1,1,1,1,1,1.0,1.0
Offset,,0,0,0.132686,0,0,0,0,0,0,0,0.0,0.0
Gain,,1,1,25.011,13.1151,13.9355,1,1,1,1.00092,1.01752,1.0,1.0
Units,sec,C,C,Pa,%,%,%,%,%,g,/m,,
Baseline,,17.6858,18.2307,161.457,98.9257,97.6961,0.000581346,0.0700889,21.0052,-833.719,0.111649,,
4,0.75,16.789,17.0993,160.805,98.6151,97.289,0.000567272,0.0714832,21.0019,187.062,0.120834,0.0,0.0
8,1.75,17.5391,17.8569,159.94,98.6183,97.3465,0.000558682,0.0717715,21.0019,186.992,0.115858,0.0,0.0
12,2.75,17.1229,17.3693,162.482,98.6223,97.5497,0.000518343,0.0719429,21.002,186.932,0.0976014,0.0,0.0
16,3.75,17.1376,17.6135,159.889,98.6455,97.2546,0.000465519,0.0719729,21.002,186.942,0.126747,0.0,0.0
20,4.75,17.1308,17.8013,157.529,98.6511,97.2512,0.000418289,0.0718845,21.002,186.952,0.127568,0.0,0.0
24,5.75,17.2216,17.8054,156.094,98.6367,97.5893,0.00039558,0.0717931,21.0023,186.972,0.0952868,0.0,0.0
28,6.75,17.0783,17.5163,158.439,98.6383,97.5676,0.00039873,0.071559,21.003,186.972,0.0974162,0.0,0.0
32,7.75,16.9837,17.5676,159.759,98.6475,97.4868,0.000417442,0.071256,21.0033,186.982,0.105644,0.0,0.0
36,8.75,16.9072,17.6387,159.232,98.6519,97.7275,0.000440556,0.0709578,21.0028,186.952,0.0840315,0.0,0.0
40,9.75,17.2822,17.4495,161.251,98.6635,97.392,0.000480123,0.0706626,21.0032,186.972,0.11578,0.0,0.0
44,10.75,17.1344,17.6924,159.884,98.6595,97.6671,0.000503879,0.070469,21.0034,186.962,0.0902355,0.0,0.0
48,11.75,17.0352,17.5842,162.988,98.6599,96.8838,0.000510654,0.0704007,21.0028,186.962,0.16215,0.0,0.0
52,12.75,16.7887,17.7269,164.342,98.6695,97.6986,0.000512898,0.0703709,21.0023,186.962,0.0882656,0.0,0.0
56,13.75,17.2994,18.0352,159.97,98.6667,97.3843,0.0005352,0.0703782,21.0019,186.972,0.116771,0.0,0.0
60,14.75,16.8587,17.9945,161.359,98.6847,97.4851,0.000590171,0.0704603,21.0017,186.972,0.109167,0.0,0.0
64,15.75,17.4945,18.025,164.932,98.6791,97.9104,0.000654182,0.070602,21.0015,186.962,0.0698074,0.0,0.0
68,16.75,17.355,17.8536,162.292,98.6767,97.6977,0.000753099,0.070866,21.0014,186.972,0.0889946,0.0,0.0
72,17.75,16.4956,17.4718,160.903,98.6879,97.8564,0.000851959,0.0711981,21.0013,186.952,0.0755287,0.0,0.0
76,18.75,17.4837,17.3864,161.492,98.6891,97.631,0.000923854,0.0718143,21.0005,186.962,0.0962195,0.0,0.0
80,19.75,17.4036,17.7943,158.311,98.6939,97.9993,0.000953795,0.0725326,21,186.962,0.0630472,0.0,0.0
84,20.75,16.8456,17.7076,159.16,98.6947,97.44,0.000913679,0.0733632,20.999,186.952,0.1142,0.0,0.0
88,21.75,17.0924,18.1034,163.347,98.7096,98.1439,0.000838844,0.0742026,20.9977,186.942,0.0512994,0.0,0.0
92,22.75,17.1922,17.9235,164.21,98.702,97.9635,0.000760527,0.0751669,20.9968,186.932,0.0670252,0.0,0.0
96,23.75,17.0266,17.916,163.94,98.704,97.7998,0.000685477,0.0761002,20.9962,186.962,0.0821372,0.0,0.0
100,24.75,17.3557,17.3344,162.499,98.7132,97.8789,0.000594398,0.0767874,20.9962,186.952,0.0757534,0.0,0.0
104,25.75,16.9193,17.824,162.324,98.7248,97.9032,0.000541245,0.0772029,20.9963,186.952,0.0745918,0.0,0.0
108,26.75,17.3529,17.8059,160.358,98.7248,97.6867,0.000523722,0.0774342,20.9963,186.952,0.0943478,0.0,0.0
112,27.75,17.2475,17.9635,162.32,98.7236,96.8332,0.000532311,0.0776613,20.9957,186.952,0.172569,0.0,0.0
116,28.75,17.0412,17.6295,161.991,98.7332,97.3248,0.000555307,0.0781556,20.9952,186.942,0.128238,0.0,0.0
120,29.75,16.9742,17.9473,162.037,98.7304,97.7866,0.000593656,0.0786457,20.9948,186.952,0.0857283,0.0,0.0
124,30.75,17.4495,18.0363,160.502,98.7284,97.8343,0.000673779,0.0787513,20.9946,186.952,0.081202,0.0,0.0
128,31.75,17.2694,17.6586,164.378,98.736,97.9886,0.000749818,0.0784664,20.995,186.952,0.0678151,0.0,0.0
132,32.75,17.0478,18.4266,159.701,98.7312,98.1243,0.000819571,0.077631,20.9961,186.952,0.0550331,0.0,0.0
136,33.75,17.3082,18.3736,160.415,98.7364,97.3243,0.000869751,0.0767387,20.9977,186.962,0.128566,0.0,0.0
140,34.75,17.7744,17.9218,164.722,98.736,97.8389,0.000896051,0.0756542,20.9993,186.962,0.0814614,0.0,0.0
144,35.75,17.5918,17.4853,159.24,98.7484,98.1103,0.000894177,0.0746267,21.0007,186.962,0.0578656,0.0,0.0
148,36.75,17.6117,18.0175,159.316,98.7328,97.645,0.000870485,0.0737449,21.0016,186.942,0.0988811,0.0,0.0
152,37.75,17.603,18.1349,158.874,98.7288,97.9372,0.000801174,0.0730594,21.0022,186.952,0.0718522,0.0,0.0
156,38.75,17.1369,17.8134,160.719,98.7264,98.0737,0.000721159,0.0725391,21.0026,186.932,0.0592028,0.0,0.0
160,39.75,17.0845,17.5452,160.347,98.7236,97.6463,0.000667479,0.0720235,21.0028,186.942,0.0979329,0.0,0.0
164,40.75,17.4952,17.9862,160.431,98.708,97.7534,0.000617819,0.071548,21.003,186.952,0.0867305,0.0,0.0
168,41.75,17.5337,17.6933,158.989,98.7088,98.0643,0.000600656,0.0711207,21.0031,186.942,0.0584618,0.0,0.0
172,42.75,17.1911,18.0652,161.268,98.7016,97.3707,0.000611429,0.0708419,21.0032,186.942,0.121167,0.0,0.0
176,43.75,17.3188,17.8219,162.303,98.698,97.5676,0.000625803,0.070548,21.0033,186.932,0.102811,0.0,0.0
180,44.75,17.3525,17.576,167.134,98.6955,97.5212,0.000642369,0.0703585,21.0033,186.932,0.106835,0.0,0.0
184,45.75,17.3974,18.0799,163.201,98.6939,97.4617,0.000652301,0.0702839,21.0033,186.942,0.112142,0.0,0.0
188,46.75,17.2967,18.1905,156.926,98.6827,97.5234,0.000654127,0.0702702,21.0034,186.932,0.105482,0.0,0.0
192,47.75,17.1261,17.9712,166.761,98.6691,97.4826,0.000641434,0.0702115,21.0034,186.932,0.107988,0.0,0.0
196,48.75,17.1891,17.8595,162.462,98.6623,97.9852,0.000617199,0.0702122,21.0034,186.922,0.0614655,0.0,0.0
200,49.75,17.3577,17.8047,163.402,98.6535,97.0756,0.000586571,0.0702232,21.0034,186.922,0.143919,0.0,0.0
204,50.75,17.0036,17.5358,161.524,98.6447,97.9954,0.000562533,0.0702553,21.0034,186.902,0.0589417,0.0,0.0
208,51.75,17.725,17.9773,159.463,98.6379,97.8049,0.000534615,0.0701519,21.0034,186.912,0.0756975,0.0,0.0
212,52.75,17.5572,17.5633,158.171,98.6235,97.4524,0.000503299,0.0700842,21.0034,186.912,0.106626,0.0,0.0
216,53.75,17.6331,17.8337,161.824,98.6135,97.4898,0.000473655,0.0700809,21.0034,186.912,0.102293,0.0,0.0
220,54.75,17.2597,17.851,161.889,98.5967,97.8542,0.000455653,0.0701122,21.0034,186.912,0.0674656,0.0,0.0
224,55.75,17.762,18.0645,164.539,98.5955,97.9125,0.000456056,0.0700581,21.0034,186.912,0.0620435,0.0,0.0
228,56.75,17.4588,17.9209,165.282,98.5831,97.6867,0.000497326,0.0700475,21.0034,186.922,0.0815299,0.0,0.0
232,57.75,17.3935,18.2523,157.376,98.5767,97.3813,0.00056347,0.0700654,21.0034,186.932,0.108893,0.0,0.0
236,58.75,17.1702,18.1279,161.701,98.5559,97.2737,0.000655528,0.0701268,21.0034,186.932,0.116876,0.0,0.0
240,59.75,17.5418,17.6376,166.26,98.5375,96.7728,0.000732495,0.0701672,21.0034,186.922,0.161296,0.0,0.0
244,60.75,17.4829,18.2262,161.275,98.5355,97.5676,0.000759591,0.0701662,21.0034,186.932,0.0881034,0.0,0.0
248,61.75,17.7404,17.9304,159.899,98.521,97.5319,0.000742806,0.0701288,21.0034,186.922,0.0900659,0.0,0.0
252,62.75,17.2985,18.0692,162.253,98.4998,97.4889,0.000682323,0.0700834,21.0034,186.932,0.0920765,0.0,0.0
256,63.75,16.7843,18.1725,162.087,98.4874,97.7016,0.000606868,0.070089,21.0034,186.902,0.0715049,0.0,0.0
260,64.75,17.3863,18.1813,162.379,98.4786,97.3226,0.000523015,0.0700926,21.0034,186.882,0.10539,0.0,0.0
264,65.75,17.5075,18.8584,162.703,98.4722,97.2597,0.000448197,0.0701342,21.0034,186.872,0.110584,0.0,0.0
268,66.75,17.1673,18.3347,159.539,98.4606,97.1904,0.000426534,0.0702308,21.0034,186.862,0.115897,0.0,0.0
272,67.75,17.366,18.0728,162.643,98.445,97.4864,0.000437595,0.0702688,21.0034,186.862,0.0873406,0.0,0.0
276,68.75,16.9229,18.4446,163.153,98.4254,97.4655,0.000499045,0.0702603,21.0034,186.882,0.0874702,0.0,0.0
280,69.75,17.5419,17.7943,159.47,98.4254,97.0998,0.000583913,0.0702559,21.0034,186.892,0.121025,0.0,0.0
284,70.75,17.6588,18.1315,158.311,98.407,97.0407,0.000648942,0.0701524,21.0034,186.872,0.124792,0.0,0.0
288,71.75,17.6999,18.1726,160.995,98.3982,96.7417,0.000748972,0.0700845,21.0036,186.882,0.151535,0.0,0.0
292,72.75,17.0521,18.0707,161.588,98.3842,96.9042,0.000832803,0.070015,21.0038,186.902,0.135288,0.0,0.0
296,73.75,17.572,17.8137,167.727,98.371,96.9688,0.000900108,0.0699695,21.0039,186.902,0.128137,0.0,0.0
300,74.75,17.5679,18.1926,160.382,98.3545,96.8242,0.000925214,0.0699671,21.0043,186.902,0.139968,0.0,0.0
304,75.75,17.7765,18.3038,161.024,98.3397,97.1321,0.000913822,0.0699877,21.0044,186.902,0.110285,0.0,0.0
308,76.75,17.2961,18.2704,159.738,98.3317,97.2282,0.000874045,0.0701271,21.0046,186.902,0.100731,0.0,0.0
312,77.75,17.5086,18.4022,158.503,98.3181,96.6979,0.000806054,0.0702683,21.0047,186.882,0.148312,0.0,0.0
316,78.75,18.2606,18.3259,159.615,98.2933,97.0105,0.000750425,0.0703609,21.0048,186.882,0.117253,0.0,0.0
320,79.75,17.3694,18.4607,163.622,98.2741,96.868,0.00070297,0.0704741,21.0048,186.882,0.128626,0.0,0.0
324,80.75,17.5467,18.2216,162.141,98.2605,96.8863,0.00065079,0.070585,21.0046,186.882,0.125707,0.0,0.0
328,81.75,17.721,18.417,161.334,98.2517,96.8578,0.000601829,0.0706787,21.0039,186.882,0.127531,0.0,0.0
332,82.75,17.8334,18.2179,159.88,98.2333,96.8021,0.000565762,0.0707048,21.0035,186.882,0.130993,0.0,0.0
336,83.75,17.3731,18.0039,164.037,98.2221,96.6511,0.000544122,0.0707468,21.0032,186.882,0.143906,0.0,0.0
340,84.75,17.596,18.444,162.913,98.2113,96.3883,0.000536777,0.070794,21.0024,186.872,0.167229,0.0,0.0
344,85.75,17.3242,18.8484,167.183,98.1808,96.6677,0.000536672,0.0708303,21.002,186.862,0.138628,0.0,0.0
348,86.75,17.8929,18.6344,162.415,98.172,96.188,0.00054699,0.0708249,21.0016,186.862,0.182231,0.0,0.0
352,87.75,17.0424,18.5211,160.473,98.1528,96.8633,0.000556561,0.0707391,21.0013,186.852,0.118036,0.0,0.0
356,88.75,17.24,18.4606,156.598,98.14,95.8554,0.00056284,0.0706677,21.0012,186.832,0.210232,0.0,0.0
360,89.75,17.656,18.2366,162.759,98.1148,95.8261,0.000565744,0.0705703,21.0011,186.802,0.210672,0.0,0.0
364,90.75,17.8954,18.2966,159.931,98.104,95.4544,0.000569226,0.0706308,21.001,186.812,0.244378,0.0,0.0
368,91.75,17.5752,17.9141,160.054,98.0892,95.1669,0.000584167,0.0708274,21.0009,186.832,0.269952,0.0,0.0
372,92.75,17.8299,18.4712,160.525,98.062,95.2222,0.000609599,0.0711162,21.0009,186.832,0.262292,0.0,0.0
376,93.75,17.4317,18.1718,160.458,98.0496,94.9568,0.000640044,0.0713177,21.0009,186.832,0.286071,0.0,0.0
380,94.75,17.4873,17.9449,163.815,98.0436,95.4085,0.000663721,0.0714643,21.0009,186.832,0.243173,0.0,0.0
384,95.75,17.9032,18.3773,160.899,98.04,95.0193,0.00066162,0.0715795,21.0021,186.812,0.279322,0.0,0.0
388,96.75,17.5291,18.0748,164.274,98.0027,94.896,0.000649224,0.0716662,21.0032,186.802,0.287526,0.0,0.0
392,97.75,17.6949,18.4639,158.602,97.9883,95.326,0.000638888,0.0718064,21.0039,186.802,0.245865,0.0,0.0
396,98.75,18.034,17.8349,161.057,97.9875,94.6451,0.000645998,0.0720209,21.0044,186.802,0.309772,0.0,0.0
400,99.75,18.3602,18.3571,162.622,97.9587,94.9194,0.000694365,0.0722474,21.0043,186.792,0.281316,0.0,0.0
404,100.75,17.7522,18.4452,157.694,97.9399,93.5964,0.000783087,0.0725809,21.0039,186.772,0.404886,0.0,0.0
408,101.75,17.9032,18.1722,164.577,97.9227,94.4299,0.000996551,0.0732483,21.0036,186.782,0.32418,0.0,0.0
412,102.75,17.7014,18.0799,167.125,97.9019,94.4911,0.00128215,0.0744818,21.0018,186.762,0.316496,0.0,1.0
416,103.75,17.7817,18.1768,156.529,97.8815,94.3763,0.00157179,0.0777141,20.9974,186.692,0.325489,0.0,1.0
420,104.75,18.098,18.4262,153.133,97.8695,94.5592,0.00190189,0.0824032,20.9902,186.702,0.307116,0.0,1.0
424,105.75,17.8476,18.4114,160.953,97.8542,93.9868,0.00218303,0.0880746,20.9823,186.712,0.359924,0.0,1.0
428,106.75,18.2861,18.8147,159.759,97.837,94.1888,0.00236526,0.0931582,20.9767,186.642,0.339191,0.0,1.0
432,107.75,17.6221,18.6369,159.29,97.8278,93.9234,0.00243194,0.0969255,20.973,186.612,0.363534,0.0,1.0
436,108.75,17.5954,18.5024,158.919,97.809,92.8066,0.00241217,0.0981479,20.9705,186.642,0.468581,0.0,0.0
440,109.75,18.1801,18.7572,159.445,97.783,91.9897,0.00234875,0.097431,20.9698,186.622,0.545126,0.0,0.0
444,110.75,17.8802,18.5516,160.876,97.7798,92.3477,0.00232782,0.0959802,20.9692,186.462,0.510156,0.0,0.0
448,111.75,18.1992,18.4118,155.817,97.787,93.8332,0.00239432,0.0967891,20.9689,186.412,0.36838,0.0,0.0
452,112.75,18.0892,18.5494,159.628,97.7386,94.2266,0.00254039,0.0999654,20.9623,186.412,0.326618,0.0,0.0
456,113.75,18.1643,18.8218,158.97,97.7174,93.1485,0.00270896,0.10433,20.9548,186.402,0.427391,0.0,0.0
460,114.75,18.2314,18.9785,153.527,97.6921,93.4675,0.00293749,0.11037,20.9485,186.302,0.394576,0.0,0.0
464,115.75,18.3253,19.2105,155.898,97.6833,93.9442,0.00318955,0.116129,20.9422,186.322,0.348363,0.0,0.0
468,116.75,18.3212,19.6176,158.22,97.6641,92.4434,0.00341967,0.122038,20.9355,186.272,0.490348,0.0,0.0
472,117.75,18.3455,19.7192,157.336,97.6545,92.9555,0.00366124,0.126798,20.9292,186.232,0.44017,0.0,0.0
476,118.75,18.426,19.2182,153.906,97.6401,92.4834,0.0037917,0.132005,20.9228,186.192,0.484294,0.0,0.0
480,119.75,19.0545,19.9664,155.163,97.6225,92.7199,0.00397433,0.137175,20.9159,186.101,0.459894,0.0,0.0
484,120.75,19.1941,19.5902,153.24,97.6145,92.574,0.00409982,0.143089,20.9115,186.041,0.473214,0.0,0.0
488,121.75,19.2366,19.9315,157.773,97.6161,92.3163,0.00423807,0.146367,20.9059,185.981,0.498243,0.0,0.0
492,122.75,19.1346,19.9521,155.823,97.5961,91.9659,0.00450163,0.15116,20.8998,185.951,0.530359,0.0,0.0
496,123.75,19.287,19.9212,158.755,97.5825,92.0968,0.00474489,0.153699,20.8946,185.891,0.516411,0.0,0.0
500,124.75,19.8746,20.5949,158.739,97.5569,91.9663,0.00500834,0.157156,20.8896,185.771,0.52673,0.0,0.0
504,125.75,19.8273,21.2827,151.348,97.5585,91.5346,0.00526498,0.160602,20.8847,185.731,0.568868,0.0,0.0
508,126.75,19.7743,20.852,154.594,97.5321,90.0257,0.00549672,0.164212,20.879,185.671,0.714809,0.0,0.0
512,127.75,20.2035,20.9009,158.138,97.5421,90.3336,0.00570312,0.167385,20.8734,185.591,0.68525,0.0,0.0
516,128.75,20.4388,21.4406,154.294,97.5148,90.3621,0.00589392,0.170401,20.869,185.511,0.679944,0.0,0.0
520,129.75,20.7499,21.7438,153.437,97.5092,90.7015,0.00607161,0.173258,20.8658,185.431,0.645973,0.0,0.0
524,130.75,20.5583,21.1401,153.628,97.4808,90.2171,0.00626007,0.175536,20.8636,185.371,0.691166,0.0,0.0
528,131.75,21.2165,21.6346,155.369,97.4952,88.4548,0.00644993,0.177386,20.8615,185.321,0.868568,0.0,0.0
532,132.75,21.4365,21.7728,154.785,97.4652,89.2998,0.00663112,0.179416,20.8584,185.261,0.780957,0.0,0.0
536,133.75,21.749,22.1865,153.56,97.4556,89.0774,0.00679583,0.181381,20.8562,185.151,0.802335,0.0,0.0
540,134.75,21.2434,22.7181,150.215,97.45,89.6511,0.00692122,0.183198,20.8542,185.101,0.744522,0.0,0.0
544,135.75,21.4154,22.7371,152.047,97.4548,88.863,0.00701066,0.184911,20.8522,185.01,0.823765,0.0,0.0
548,136.75,22.4403,22.5886,153.017,97.4328,88.5351,0.00705513,0.186467,20.8507,184.92,0.854744,0.0,0.0
552,137.75,21.694,22.9941,152.712,97.4244,88.9289,0.00704778,0.18761,20.85,184.85,0.81436,0.0,0.0
556,138.75,22.4475,23.024,155.063,97.4184,87.4175,0.00700512,0.188365,20.8493,184.75,0.966813,0.0,0.0
560,139.75,21.9257,23.3949,155.998,97.412,87.8377,0.00693344,0.188662,20.8488,184.67,0.923429,0.0,0.0
564,140.75,22.4115,23.5657,156.712,97.406,86.9221,0.00687725,0.188487,20.8485,184.59,1.01641,0.0,0.0
568,141.75,22.7027,23.8959,156.92,97.4012,87.2023,0.00684947,0.188125,20.8506,184.52,0.987235,0.0,0.0
572,142.75,23.0393,24.0205,153.565,97.4032,87.4047,0.00686392,0.187808,20.8526,184.46,0.966723,0.0,0.0
576,143.75,22.9894,24.3349,151.421,97.3872,86.134,0.00690781,0.187483,20.8539,184.36,1.09597,0.0,0.0
580,144.75,22.83,24.3282,155.446,97.3892,85.747,0.00695724,0.187175,20.8547,184.3,1.13635,0.0,0.0
584,145.75,23.2247,24.2208,160.828,97.3768,88.2778,0.0069973,0.186709,20.8553,184.2,0.875585,0.0,0.0
588,146.75,23.4947,24.4619,156.276,97.3788,85.8848,0.00705299,0.186258,20.8556,184.14,1.12106,0.0,0.0
592,147.75,24.3631,24.8812,153.251,97.3716,87.3456,0.00712116,0.185736,20.8558,184.08,0.969862,0.0,0.0
596,148.75,23.852,25.1163,151.474,97.3712,86.4402,0.00721443,0.185211,20.856,183.99,1.06283,0.0,0.0
600,149.75,23.7436,25.0111,156.144,97.3668,87.261,0.00731337,0.184929,20.8561,183.909,0.978075,0.0,0.0
604,150.75,24.0127,24.8572,154.426,97.3652,86.8481,0.00741183,0.184825,20.8562,183.849,1.02027,0.0,0.0
608,151.75,23.949,24.94,151.747,97.3924,85.477,0.00750794,0.184847,20.8558,183.739,1.1648,0.0,0.0
612,152.75,24.1801,25.5588,153.157,97.3635,86.6082,0.00761669,0.184991,20.8549,183.689,1.0448,0.0,0.0
616,153.75,24.1287,25.7308,151.687,97.364,86.0179,0.00774513,0.185204,20.8538,183.609,1.10588,0.0,0.0
620,154.75,24.5403,25.6123,156.256,97.3615,87.8504,0.00790082,0.185364,20.8526,183.549,0.91751,0.0,0.0
624,155.75,23.9033,25.4809,158.932,97.3587,86.7337,0.0080601,0.186102,20.8507,183.459,1.03145,0.0,0.0
628,156.75,24.3084,25.5737,153.502,97.3716,86.2365,0.00822148,0.187512,20.8476,183.419,1.08393,0.0,0.0
632,157.75,24.5219,25.5377,153.372,97.3611,86.4538,0.00835259,0.188813,20.8444,183.329,1.06051,0.0,0.0
636,158.75,24.693,26.5355,156.299,97.3503,87.7496,0.0084455,0.189872,20.8421,183.239,0.926729,0.0,0.0
640,159.75,24.9508,26.523,153.091,97.3611,86.6422,0.00852251,0.190653,20.84,183.189,1.04108,0.0,0.0
644,160.75,24.9503,26.242,150.044,97.3663,87.1015,0.00859829,0.191169,20.8384,183.059,0.994366,0.0,0.0
648,161.75,24.2311,25.8897,153.031,97.3684,88.3629,0.00865013,0.191326,20.8376,183.039,0.866219,0.0,0.0
652,162.75,25.472,26.4977,154.854,97.372,87.7356,0.00869809,0.191233,20.8369,182.939,0.930138,0.0,0.0
656,163.75,25.1215,26.6528,153.4,97.3696,88.1026,0.00873336,0.190853,20.8372,182.909,0.892658,0.0,0.0
660,164.75,25.3646,26.7583,153.428,97.368,87.0318,0.00876085,0.190572,20.8377,182.858,1.00166,0.0,0.0
664,165.75,25.273,26.493,154.453,97.3756,86.8549,0.00877357,0.189837,20.838,182.718,1.02052,0.0,0.0
668,166.75,25.5479,26.949,156.213,97.3728,87.6961,0.00875507,0.189354,20.8391,182.688,0.934236,0.0,0.0
672,167.75,25.6369,26.8313,155.108,97.3792,87.7565,0.00871302,0.188238,20.8397,182.638,0.928678,0.0,0.0
676,168.75,25.8401,27.2362,154.336,97.3868,87.8806,0.00865391,0.187047,20.8408,182.558,0.916754,0.0,0.0
680,169.75,26.2415,26.9968,152.981,97.3864,87.8806,0.00858587,0.185965,20.8421,182.508,0.916717,0.0,0.0
684,170.75,25.9285,27.4435,155.964,97.3936,87.6795,0.00848345,0.185045,20.8433,182.408,0.937832,0.0,0.0
688,171.75,26.0986,27.0212,152.828,97.4052,87.6335,0.00837546,0.184388,20.8441,182.388,0.943572,0.0,0.0
692,172.75,26.1275,27.5458,154.395,97.4224,87.1921,0.00829781,0.184061,20.8439,182.318,0.990223,0.0,0.0
696,173.75,26.1062,28.1253,153.141,97.4104,87.2538,0.00826078,0.183913,20.8437,182.238,0.982813,0.0,0.0
700,174.75,26.2433,27.1839,150.632,97.4208,87.395,0.00826399,0.18394,20.8428,182.188,0.969335,0.0,0.0
704,175.75,26.0131,27.8969,152.197,97.4164,86.5755,0.00826686,0.184148,20.8414,182.118,1.05302,0.0,0.0
708,176.75,26.328,27.7973,158.426,97.414,86.5903,0.00826758,0.184657,20.8406,182.078,1.05127,0.0,0.0
712,177.75,26.3725,27.2558,156.297,97.4272,85.5739,0.00821559,0.185246,20.8397,182.008,1.15787,0.0,0.0
716,178.75,26.363,27.8503,149.597,97.4312,85.394,0.00812886,0.185708,20.8386,181.948,1.17702,0.0,0.0
720,179.75,26.2167,28.0023,150.112,97.4464,84.4121,0.00806053,0.186071,20.8376,181.898,1.28164,0.0,0.0
724,180.75,25.7146,27.3604,157.087,97.4596,85.8487,0.00804314,0.186568,20.8364,181.858,1.13223,0.0,0.0
728,181.75,26.4933,28.2499,153.742,97.4568,85.605,0.00808665,0.187185,20.8353,181.757,1.15734,0.0,0.0
732,182.75,26.6867,27.9658,151.771,97.4676,85.3438,0.00819076,0.187881,20.8341,181.697,1.1856,0.0,0.0
736,183.75,26.6498,28.4527,154.915,97.4852,84.5503,0.00829834,0.188584,20.8325,181.677,1.27059,0.0,0.0
740,184.75,26.6141,28.0779,151.155,97.4856,86.0413,0.00839139,0.189375,20.8314,181.587,1.1146,0.0,0.0
744,185.75,26.6765,28.5667,154.286,97.4952,83.1847,0.00842967,0.190199,20.8305,181.557,1.41684,0.0,0.0
748,186.75,26.5506,28.438,154.902,97.4968,84.4338,0.00832194,0.191021,20.8295,181.497,1.28397,0.0,0.0
752,187.75,27.1775,28.8698,149.752,97.5144,85.4578,0.00818457,0.191614,20.8291,181.457,1.17798,0.0,0.0
756,188.75,27.1029,28.6765,156.749,97.53125,84.5371,0.0080207,0.191923,20.8288,181.377,1.2762,0.0,0.0
760,189.75,26.9543,29.0562,151.226,97.5365,84.2194,0.00791353,0.192023,20.8287,181.317,1.31028,0.0,0.0
764,190.75,27.4878,29.0127,155.395,97.5413,84.481,0.00779133,0.191891,20.8286,181.287,1.28305,0.0,0.0
768,191.75,26.7207,29.3164,150.672,97.5469,85.1065,0.00766782,0.191584,20.8285,181.257,1.21771,0.0,0.0
772,192.75,27.3295,29.3644,152.924,97.5697,83.5254,0.00757081,0.191543,20.8285,181.177,1.38718,0.0,0.0
776,193.75,27.6467,28.7246,153.631,97.5813,85.0521,0.00750033,0.191735,20.8284,181.127,1.22657,0.0,0.0
780,194.75,27.4445,28.3025,153.774,97.5913,84.464,0.00743253,0.191894,20.8284,181.097,1.28942,0.0,0.0
784,195.75,27.7405,29.3808,153.063,97.6005,84.8254,0.00734993,0.191974,20.8276,181.027,1.25214,0.0,0.0
788,196.75,27.4191,28.8613,156.225,97.6169,84.4163,0.00726012,0.19213,20.8271,180.967,1.2968,0.0,0.0
792,197.75,27.3903,28.9212,155.14,97.6293,82.4856,0.00718535,0.192299,20.8267,180.917,1.50445,0.0,0.0
796,198.75,27.4568,29.09,157.243,97.6477,85.2005,0.00711531,0.192365,20.8265,180.887,1.21708,0.0,0.0
800,199.75,27.4175,29.5169,156.317,97.6537,84.3993,0.00708529,0.192389,20.8261,180.807,1.30196,0.0,0.0
804,200.75,27.3667,28.9158,150.38,97.6761,83.0695,0.00709747,0.192485,20.8253,180.777,1.44577,0.0,0.0
808,201.75,27.9933,29.2739,154.551,97.6877,82.3912,0.00709863,0.192715,20.8248,180.737,1.52001,0.0,0.0
812,202.75,27.8563,29.4768,157.894,97.7018,82.7416,0.00705096,0.19294,20.8244,180.706,1.48341,0.0,0.0
816,203.75,27.6347,28.7908,150.044,97.7218,83.7584,0.00692962,0.19317,20.8242,180.636,1.37621,0.0,0.0
820,204.75,27.4874,29.2664,153.995,97.7278,82.7161,0.00678574,0.193354,20.824,180.626,1.48854,0.0,0.0
824,205.75,27.6597,29.5948,156.597,97.7522,83.8792,0.00657654,0.193408,20.8235,180.556,1.36613,0.0,0.0
828,206.75,27.7461,29.6751,154.48,97.7718,84.188,0.00641971,0.193313,20.8228,180.536,1.33513,0.0,0.0
832,207.75,27.7772,29.5873,155.923,97.7894,82.8717,0.00632464,0.193276,20.8223,180.456,1.47738,0.0,0.0
836,208.75,27.8122,29.7005,150.861,97.8178,83.263,0.00627352,0.193545,20.822,180.426,1.43794,0.0,0.0
840,209.75,27.6516,29.8378,152.788,97.835,83.5033,0.0062854,0.193967,20.8221,180.366,1.41379,0.0,0.0
844,210.75,27.9472,29.6608,152.731,97.8394,83.7652,0.00632638,0.19452,20.8227,180.326,1.38623,0.0,0.0
848,211.75,27.7964,30.0198,147.575,97.8618,82.9351,0.00638304,0.195258,20.822,180.266,1.47717,0.0,0.0
852,212.75,28.3727,30.033,154.112,97.8919,82.0441,0.00643983,0.196036,20.8212,180.246,1.57631,0.0,0.0
856,213.75,27.7067,29.9408,148.459,97.9083,84.0706,0.00647387,0.196546,20.8207,180.216,1.36003,0.0,0.0
860,214.75,27.9391,29.8692,153.585,97.9111,83.6334,0.00646896,0.197044,20.8204,180.156,1.40682,0.0,0.0
864,215.75,28.0171,30.0462,150.084,97.9395,82.3133,0.00642716,0.19712,20.8202,180.106,1.55142,0.0,0.0
868,216.75,27.8596,29.4074,154.794,97.9615,83.5879,0.00635438,0.196808,20.8203,180.086,1.41628,0.0,0.0
872,217.75,28.1694,29.8345,154.633,97.9923,85.5097,0.00628104,0.196349,20.8207,180.046,1.21619,0.0,0.0
876,218.75,28.1502,30.0093,155.153,98.0195,83.4424,0.00619566,0.195759,20.8212,180.016,1.43711,0.0,0.0
880,219.75,27.5382,29.6284,155.067,98.0259,83.2409,0.0061169,0.195106,20.8215,179.956,1.45928,0.0,0.0
884,220.75,27.8592,29.434,151.681,98.0516,84.0872,0.00603776,0.194652,20.8223,179.886,1.37132,0.0,0.0
888,221.75,28.0245,30.1017,153.348,98.0724,82.6871,0.00596914,0.194181,20.8237,179.846,1.52307,0.0,0.0
892,222.75,27.7959,30.3289,154.097,98.0948,83.6274,0.00592711,0.193831,20.8247,179.836,1.42419,0.0,0.0
896,223.75,28.4548,29.9452,153.554,98.1068,82.9466,0.00591999,0.193297,20.8254,179.786,1.49825,0.0,0.0
900,224.75,27.8871,30.4304,155.675,98.1348,83.6721,0.00593779,0.192639,20.8261,179.746,1.42306,0.0,0.0
904,225.75,28.0835,29.9683,157.084,98.1564,83.0537,0.00597075,0.191986,20.8271,179.696,1.49124,0.0,0.0
908,226.75,28.4597,30.2146,154.119,98.1744,82.5421,0.00601336,0.191537,20.8278,179.636,1.54803,0.0,0.0
912,227.75,28.2505,30.2236,155.096,98.1989,83.5071,0.00604811,0.19112,20.8282,179.615,1.44651,0.0,0.0
916,228.75,28.4241,30.0949,150.529,98.2053,82.0416,0.00607521,0.190751,20.8285,179.565,1.60512,0.0,0.0
920,229.75,28.4996,29.7389,151.669,98.2317,83.189,0.00609074,0.190035,20.8287,179.505,1.48355,0.0,0.0
924,230.75,27.5283,29.6853,153.568,98.2497,83.2885,0.00608839,0.189115,20.8301,179.525,1.47452,0.0,0.0
928,231.75,28.7364,30.351,153.147,98.2649,84.4274,0.0060756,0.188194,20.8313,179.435,1.35468,0.0,0.0
932,232.75,27.7846,30.2815,154.501,98.2917,82.9538,0.00606194,0.18743,20.8318,179.435,1.51428,0.0,0.0
936,233.75,27.8894,30.1681,155.479,98.3077,83.5317,0.00603552,0.186824,20.8326,179.385,1.45376,0.0,0.0
940,234.75,28.3654,29.9596,158.913,98.3349,83.7691,0.00600234,0.186376,20.8335,179.335,1.43091,0.0,0.0
944,235.75,28.0156,29.9335,154.067,98.3505,84.2109,0.00596932,0.186077,20.8341,179.305,1.38537,0.0,0.0
948,236.75,28.3089,30.6153,155.333,98.3698,83.9698,0.0059273,0.185944,20.8345,179.285,1.41271,0.0,0.0
952,237.75,28.2182,29.6879,150.706,98.3914,84.6664,0.00589259,0.185935,20.8348,179.215,1.34093,0.0,0.0
956,238.75,28.1452,30.3559,150.959,98.4022,83.4641,0.0058572,0.186063,20.8349,179.175,1.46956,0.0,0.0
960,239.75,28.1906,30.2104,149.279,98.4358,82.4664,0.00581664,0.1863,20.8351,179.145,1.57995,0.0,0.0
964,240.75,28.7781,30.3732,157.233,98.4498,83.3017,0.0057409,0.186561,20.8351,179.095,1.49127,0.0,0.0
968,241.75,28.6593,30.0984,156.393,98.4766,85.7372,0.00564629,0.186779,20.8353,179.075,1.23648,0.0,0.0
972,242.75,28.2405,30.2843,152.529,98.4838,82.657,0.00554976,0.186923,20.8356,179.025,1.5637,0.0,0.0
976,243.75,28.3814,30.192,154.945,98.5126,83.761,0.00546817,0.186915,20.8358,178.995,1.44789,0.0,0.0
980,244.75,28.2012,30.5845,154.775,98.5383,85.9201,0.00541303,0.186674,20.8363,178.945,1.22305,0.0,0.0
984,245.75,28.2268,30.0813,153.038,98.5583,85.4804,0.00537685,0.186272,20.8373,178.905,1.27066,0.0,0.0
988,246.75,28.6223,30.4775,152.777,98.5763,84.5303,0.00534564,0.185875,20.8385,178.885,1.37205,0.0,0.0
992,247.75,27.7103,30.3306,157.519,98.5975,85.8708,0.00531162,0.185509,20.8393,178.855,1.23354,0.0,0.0
996,248.75,28.3715,30.0274,153.431,98.6311,84.6413,0.00529072,0.185276,20.8398,178.825,1.3653,0.0,0.0
1000,249.75,28.3474,30.4675,156.352,98.6411,85.326,0.00530177,0.185147,20.8401,178.765,1.29429,0.0,0.0
1004,250.75,28.5355,30.2933,151.724,98.6571,84.6715,0.00533337,0.185088,20.8403,178.745,1.36447,0.0,0.0
1008,251.75,28.6178,30.2327,157.152,98.6867,85.6432,0.00537914,0.18468,20.8405,178.685,1.26529,0.0,0.0
1012,252.75,28.0298,30.6583,151.722,98.698,85.6573,0.00541558,0.184334,20.8406,178.655,1.26484,0.0,0.0
1016,253.75,28.3179,30.686,156.997,98.708,85.5008,0.00540788,0.184106,20.8409,178.625,1.28207,0.0,0.0
1020,254.75,28.0108,30.4214,150.213,98.7248,86.7052,0.00533512,0.18372,20.8416,178.575,1.15874,0.0,0.0
1024,255.75,27.4558,29.7406,156.54,98.7452,86.259,0.00525789,0.183134,20.8428,178.545,1.20663,0.0,0.0
1028,256.75,28.3948,30.1122,155.88,98.7484,85.0138,0.00512088,0.182384,20.8442,178.514,1.3367,0.0,0.0
1032,257.75,28.6525,30.1066,156.582,98.762,85.4672,0.00499586,0.181363,20.8456,178.514,1.29046,0.0,0.0
1036,258.75,28.3905,30.2251,154.256,98.7924,86.8013,0.00488458,0.180446,20.8473,178.444,1.15496,0.0,0.0
1040,259.75,27.6967,29.8938,151.716,98.8028,86.1149,0.00479357,0.179492,20.8492,178.404,1.22677,0.0,0.0
1044,260.75,28.5386,30.2858,157.467,98.8176,87.076,0.00473032,0.178503,20.8505,178.374,1.12904,0.0,0.0
1048,261.75,28.2762,29.8931,155.153,98.8276,86.9301,0.00468902,0.17752,20.8521,178.354,1.14491,0.0,0.0
1052,262.75,28.4179,30.1473,157.362,98.8476,88.4343,0.00466483,0.176548,20.854,178.304,0.993589,0.0,0.0
1056,263.75,27.9393,29.7364,153.952,98.8644,87.537,0.0046557,0.175816,20.8555,178.234,1.08614,0.0,0.0
1060,264.75,28.2827,29.841,154.938,98.8717,87.5859,0.00465712,0.17531,20.8571,178.224,1.0818,0.0,0.0
1064,265.75,28.3259,30.0615,151.909,98.8861,87.3248,0.00466509,0.174849,20.8583,178.174,1.10975,0.0,0.0
1068,266.75,28.003,30.0217,154.451,98.8993,88.9026,0.00467191,0.174363,20.8595,178.154,0.951116,0.0,0.0
1072,267.75,27.5192,29.532,156.973,98.9121,87.6727,0.00467638,0.173887,20.8607,178.104,1.07661,0.0,0.0
1076,268.75,28.1479,30.0491,157.589,98.9237,87.9661,0.00467932,0.173513,20.8617,178.084,1.04784,0.0,0.0
1080,269.75,28.0589,30.0339,154.465,98.9409,89.1246,0.00466775,0.172982,20.8629,178.044,0.932612,0.0,0.0
1084,270.75,27.9914,30.204,158.584,98.9517,89.0106,0.00462193,0.172403,20.8637,178.034,0.945008,0.0,0.0
1088,271.75,27.6893,30.0917,153.875,98.9765,88.7656,0.00455573,0.171821,20.8642,177.994,0.971844,0.0,0.0
1092,272.75,28.2935,29.5165,155.67,98.9857,89.0217,0.00444497,0.171295,20.8653,177.984,0.946969,0.0,0.0
1096,273.75,27.9591,29.9388,157.702,98.9957,89.4775,0.00433218,0.170879,20.8659,177.914,0.902278,0.0,0.0
1100,274.75,28.059,30.2203,154.275,99.0117,90.0491,0.00419091,0.170664,20.8662,177.884,0.846886,0.0,0.0
1104,275.75,28.173,30.3205,153.965,99.0322,91.3849,0.00407133,0.170204,20.8668,177.864,0.717296,0.0,0.0
1108,276.75,27.9577,30.0786,152.42,99.0313,90.4646,0.00399736,0.16956,20.868,177.854,0.807565,0.0,0.0
1112,277.75,28.2031,29.8953,156.675,99.0478,90.7411,0.00396003,0.168972,20.8692,177.804,0.781812,0.0,0.0
1116,278.75,27.948,30.1441,151.102,99.061,91.0885,0.00393306,0.168378,20.8706,177.774,0.748891,0.0,0.0
1120,279.75,27.8772,29.7819,155.659,99.0722,91.3033,0.00391075,0.167718,20.8726,177.734,0.728881,0.0,0.0
1124,280.75,28.0532,29.8148,157.501,99.0858,90.9792,0.00388976,0.16705,20.8745,177.734,0.761843,0.0,0.0
1128,281.75,28.0354,30.1532,154.291,99.0942,92.0305,0.00385128,0.166472,20.8763,177.714,0.660054,0.0,0.0
1132,282.75,28.4483,30.0514,156.774,99.1006,91.1038,0.00381232,0.165832,20.8774,177.704,0.75096,0.0,0.0
1136,283.75,28.1123,29.6829,151.284,99.1146,92.0318,0.00379899,0.165168,20.8782,177.634,0.661768,0.0,0.0
1140,284.75,27.7418,30.0991,153.457,99.1166,92.0518,0.00382757,0.164375,20.8803,177.624,0.660011,0.0,0.0
1144,285.75,27.781,29.9083,152.556,99.141,92.0922,0.00388715,0.163628,20.8817,177.604,0.658292,0.0,0.0
1148,286.75,27.9444,29.8926,156.583,99.1458,92.9112,0.0039507,0.16283,20.8834,177.574,0.57969,0.0,0.0
1152,287.75,27.6284,29.3938,158.631,99.145,93.621,0.00399472,0.162057,20.8845,177.524,0.511691,0.0,0.0
1156,288.75,27.9751,29.585,157.242,99.157,92.9538,0.00401883,0.161287,20.8857,177.524,0.576615,0.0,0.0
1160,289.75,27.7616,29.4169,154.205,99.173,93.3029,0.00401446,0.160633,20.8868,177.474,0.544591,0.0,0.0
1164,290.75,28.015,29.6594,154.087,99.1718,92.9657,0.00401832,0.160127,20.888,177.443,0.576804,0.0,0.0
1168,291.75,26.9225,28.8642,153.722,99.1846,93.684,0.00404777,0.159774,20.8891,177.403,0.509259,0.0,0.0
1172,292.75,27.6284,29.4554,153.108,99.1954,94.2194,0.00412769,0.159451,20.8899,177.413,0.459364,0.0,0.0
1176,293.75,27.8931,29.8428,160.483,99.2007,94.1135,0.00422791,0.158968,20.8903,177.383,0.46987,0.0,0.0
1180,294.75,27.0368,28.7452,154.78,99.2038,94.4244,0.00431176,0.158274,20.8913,177.353,0.440724,0.0,0.0
1184,295.75,27.585,29.5368,154.261,99.2239,94.4746,0.00437952,0.157576,20.8925,177.323,0.437781,0.0,0.0
1188,296.75,27.3755,28.8855,155.714,99.2275,93.8349,0.004406,0.156952,20.8937,177.303,0.498739,0.0,0.0
1192,297.75,27.3859,29.2192,155.153,99.2355,94.1407,0.00436588,0.156309,20.8945,177.283,0.470422,0.0,0.0
1196,298.75,26.4056,28.6974,153.341,99.2479,94.4257,0.00428702,0.155581,20.8952,177.243,0.444563,0.0,0.0
1200,299.75,27.2005,29.1185,157.992,99.2539,96.0617,0.00413663,0.154674,20.8967,177.223,0.29178,0.0,0.0
1204,300.75,26.9589,29.1616,155.288,99.2551,94.1556,0.00398197,0.153639,20.8988,177.183,0.470774,0.0,0.0
1208,301.75,26.8725,29.0558,153.573,99.2683,94.7625,0.0038805,0.152662,20.9002,177.133,0.414617,0.0,0.0
1212,302.75,26.8135,28.6458,155.602,99.2755,95.3451,0.00378036,0.151681,20.9011,177.133,0.360556,0.0,0.0
1216,303.75,27.4146,29.1096,154.203,99.2779,96.04,0.00372347,0.150625,20.902,177.133,0.295955,0.0,0.0
1220,304.75,27.3272,29.0028,154.744,99.2907,95.3961,0.00371674,0.149493,20.9031,177.103,0.357146,0.0,0.0
1224,305.75,27.4896,28.9995,156.118,99.2939,95.337,0.00375874,0.148593,20.9046,177.093,0.362967,0.0,0.0
1228,306.75,27.4498,28.7987,156.039,99.3091,95.8376,0.00382678,0.147662,20.9059,177.043,0.317594,0.0,0.0
1232,307.75,27.0284,28.9392,162.591,99.3147,95.5118,0.00388832,0.146832,20.9072,177.003,0.34849,0.0,0.0
1236,308.75,27.2143,28.9819,156.047,99.3103,96.0281,0.00392117,0.146103,20.9081,177.013,0.299977,0.0,0.0
1240,309.75,26.7457,28.7036,156.462,99.3227,95.898,0.00392557,0.14533,20.9094,176.993,0.313195,0.0,0.0
1244,310.75,26.7548,28.8316,154.048,99.3251,96.0804,0.00389839,0.144466,20.911,176.923,0.296447,0.0,0.0
1248,311.75,26.5695,28.6842,161.03,99.3375,96.1816,0.00385823,0.143698,20.9122,176.923,0.288164,0.0,0.0
1252,312.75,27.1435,28.8314,158.424,99.3379,95.9443,0.0038272,0.143032,20.913,176.883,0.310249,0.0,0.0
1256,313.75,26.9874,28.504,155.886,99.3351,96.5742,0.00381478,0.142267,20.914,176.883,0.251595,0.0,0.0
1260,314.75,26.769,28.599,157.265,99.3451,96.4746,0.0038268,0.141345,20.916,176.853,0.261697,0.0,0.0
1264,315.75,26.7798,28.7542,153.041,99.3427,96.6949,0.00385325,0.140302,20.9179,176.843,0.241122,0.0,0.0
1268,316.75,26.6892,28.742,151.342,99.3539,96.2999,0.0038968,0.13904,20.9191,176.803,0.278674,0.0,0.0
1272,317.75,26.3946,28.4133,160.231,99.3571,96.9637,0.00393564,0.13767,20.9207,176.763,0.217642,0.0,0.0
1276,318.75,26.8097,28.7465,158.403,99.3632,96.0013,0.00395345,0.136334,20.9226,176.723,0.307215,0.0,0.0
1280,319.75,26.6384,28.1841,159.355,99.3639,96.5006,0.00393515,0.135151,20.9238,176.723,0.260986,0.0,0.0
1284,320.75,26.8556,28.2309,156.761,99.3932,97.0968,0.00389346,0.134195,20.9252,176.713,0.208633,0.0,0.0
1288,321.75,26.6255,28.1848,154.511,99.3619,96.427,0.00384706,0.133441,20.9263,176.683,0.267614,0.0,0.0
1292,322.75,26.6218,28.1179,154.999,99.3776,96.6333,0.00380318,0.132793,20.9271,176.663,0.249945,0.0,0.0
1296,323.75,26.6997,28.2935,154.105,99.3788,96.8612,0.00381145,0.131932,20.9275,176.633,0.229023,0.0,0.0
1300,324.75,26.4572,27.7125,157.451,99.388,96.3245,0.00385619,0.131005,20.9285,176.623,0.279443,0.0,0.0
1304,325.75,26.4926,27.8894,149.547,99.3864,96.3024,0.00396689,0.130073,20.9289,176.603,0.281349,0.0,0.0
1308,326.75,26.2282,27.8031,158.757,99.3836,96.9054,0.00406405,0.129038,20.9299,176.563,0.225379,0.0,0.0
1312,327.75,26.0915,28.1019,156.394,99.3888,96.9106,0.00413063,0.128165,20.9312,176.543,0.225377,0.0,0.0
1316,328.75,26.0444,28.0156,156.935,99.4008,96.9208,0.00417532,0.126969,20.9321,176.523,0.225515,0.0,0.0
1320,329.75,25.235,27.2461,157.246,99.3976,96.6388,0.00420463,0.125614,20.9339,176.533,0.251231,0.0,0.0
1324,330.75,26.2231,28.0194,157.02,99.406,96.8042,0.00420615,0.124276,20.9354,176.503,0.23672,0.0,0.0
1328,331.75,25.7675,28.2617,154.743,99.3964,96.8319,0.00417662,0.123151,20.9372,176.483,0.233309,0.0,0.0
1332,332.75,25.932,27.6595,154.846,99.4008,96.7285,0.00412331,0.122049,20.9388,176.463,0.243235,0.0,0.0
1336,333.75,26.1479,28.0632,158.241,99.404,97.0079,0.00406745,0.121327,20.9403,176.443,0.217777,0.0,0.0
1340,334.75,25.812,27.6843,158.896,99.4008,96.774,0.00402843,0.120201,20.9417,176.423,0.239036,0.0,0.0
1344,335.75,25.6769,27.4772,159.706,99.408,96.5912,0.00400669,0.119411,20.9429,176.383,0.256566,0.0,0.0
1348,336.75,25.9539,27.359,157.482,99.4024,96.6928,0.00400382,0.118737,20.9438,176.362,0.246676,0.0,0.0
1352,337.75,25.6577,27.2682,156.127,99.4128,96.3356,0.00400344,0.117917,20.9454,176.352,0.280646,0.0,0.0
1356,338.75,25.2138,27.378,156.881,99.4052,95.7831,0.00399524,0.116186,20.9481,176.342,0.331295,0.0,0.0
1360,339.75,25.6319,27.4202,159.58,99.402,95.6721,0.00395624,0.114057,20.9522,176.332,0.341357,0.0,0.0
1364,340.75,25.3465,27.1774,159.296,99.4136,94.5813,0.00387914,0.1112,20.9573,176.302,0.444751,0.0,0.0
1368,341.75,25.3966,27.0813,163.91,99.4064,94.2879,0.00378154,0.108404,20.9607,176.292,0.47184,0.0,0.0
1372,342.75,25.3986,27.3048,161.408,99.4128,95.2375,0.00370392,0.106127,20.9629,176.282,0.382968,0.0,0.0
1376,343.75,24.6513,27.0969,155.764,99.4092,95.0699,0.00364815,0.104503,20.9644,176.272,0.398362,0.0,0.0
1380,344.75,25.4234,26.591,156.453,99.4164,96.4857,0.00362893,0.103365,20.9653,176.212,0.267072,0.0,0.0
1384,345.75,24.9527,26.7013,162.228,99.3928,95.7521,0.00363128,0.102468,20.9659,176.232,0.333074,0.0,0.0
1388,346.75,24.7848,26.6861,158.97,99.4052,95.8244,0.00363492,0.101859,20.9663,176.212,0.327452,0.0,0.0
1392,347.75,24.5784,26.3187,158.577,99.398,95.7691,0.00363266,0.101252,20.9671,176.172,0.331957,0.0,0.0
1396,348.75,24.8379,26.2173,159.432,99.3988,94.6204,0.00361263,0.100557,20.9683,176.172,0.439731,0.0,0.0
1400,349.75,24.8054,26.2934,159.94,99.3992,95.741,0.00358187,0.0998105,20.9687,176.162,0.33468,0.0,0.0
1404,350.75,24.205,25.7672,159.458,99.4,95.6632,0.00355534,0.099151,20.9698,176.152,0.34201,0.0,0.0
1408,351.75,23.7399,25.8232,162.104,99.408,95.1712,0.0035357,0.0984163,20.9705,176.142,0.388756,0.0,0.0
1412,352.75,23.375,25.2342,162.073,99.392,96.0238,0.00351387,0.0980334,20.971,176.112,0.307707,0.0,0.0
1416,353.75,23.4292,25.9099,162.585,99.3928,94.6604,0.00348837,0.0979202,20.9713,176.112,0.435421,0.0,0.0
1420,354.75,23.773,24.8997,158.912,99.3888,96.2705,0.00345822,0.0978943,20.9721,176.102,0.284521,0.0,0.0
1424,355.75,23.9098,24.7057,155.685,99.3868,95.5467,0.00339822,0.0977739,20.9729,176.062,0.351703,0.0,0.0
1428,356.75,23.4356,25.5466,159.078,99.3768,95.4178,0.00332717,0.0975135,20.9736,176.042,0.36285,0.0,0.0
1432,357.75,23.1823,24.2712,162.046,99.3828,95.8958,0.00327697,0.0970467,20.9746,176.022,0.318787,0.0,0.0
1436,358.75,23.7204,25.0947,159.618,99.388,95.9707,0.00325843,0.0964657,20.9753,176.022,0.31229,0.0,0.0
1440,359.75,22.7918,24.9584,159.974,99.3768,95.5862,0.00329136,0.0957993,20.9757,175.992,0.34711,0.0,0.0
1444,360.75,23.3684,24.6948,161.353,99.376,96.0834,0.00333221,0.0950101,20.976,175.952,0.300736,0.0,0.0
1448,361.75,23.4005,24.1847,156.125,99.3699,95.465,0.0033572,0.0942943,20.977,175.952,0.357824,0.0,0.0
1452,362.75,23.6192,24.5935,158.372,99.376,96.4385,0.00334981,0.0937517,20.9776,175.932,0.26781,0.0,0.0
1456,363.75,23.1207,24.68,159.27,99.3652,95.9167,0.00329568,0.0933309,20.9781,175.932,0.315266,0.0,0.0
1460,364.75,22.9059,24.6693,158.788,99.3599,95.8695,0.00322581,0.0929141,20.9783,175.922,0.319192,0.0,0.0
1464,365.75,22.7881,24.2014,153.673,99.3483,96.4228,0.00315826,0.0925029,20.9785,175.912,0.266785,0.0,0.0
1468,366.75,22.6781,24.4826,159.677,99.3591,96.0719,0.00308617,0.0921441,20.9789,175.902,0.300293,0.0,0.0
1472,367.75,22.6465,23.872,156.446,99.3459,96.1752,0.0030256,0.0917581,20.9797,175.892,0.28951,0.0,0.0
1476,368.75,23.019,24.151,155.266,99.3351,95.6441,0.00299872,0.0913793,20.9802,175.862,0.337972,0.0,0.0
1480,369.75,22.1091,22.9165,158.005,99.3351,96.2879,0.00299405,0.0911308,20.9805,175.842,0.278086,0.0,0.0
1484,370.75,22.2898,24.2626,159.528,99.3215,96.1855,0.00303562,0.0909929,20.9808,175.842,0.28637,0.0,0.0
1488,371.75,22.9022,23.6113,155.537,99.3255,95.98,0.00306289,0.0908628,20.9809,175.822,0.30581,0.0,0.0
1492,372.75,22.9009,23.6236,159.526,99.3135,96.3237,0.00307559,0.0908362,20.9802,175.802,0.272834,0.0,0.0
1496,373.75,22.5467,23.8485,161.717,99.3139,96.4814,0.00306737,0.0908749,20.9798,175.792,0.258262,0.0,0.0
1500,374.75,22.2228,23.6731,158.974,99.3043,96.6558,0.00305248,0.0909794,20.9795,175.792,0.241283,0.0,0.0
1504,375.75,22.2059,23.5156,158.248,99.3191,96.3156,0.00303248,0.0909703,20.9793,175.772,0.274086,0.0,0.0
1508,376.75,22.8805,23.8706,164.342,99.2923,96.3024,0.00299836,0.0908587,20.9792,175.752,0.272898,0.0,0.0
1512,377.75,22.5427,23.3547,155.046,99.2831,96.2981,0.00297598,0.0907641,20.9791,175.752,0.272465,0.0,0.0
1516,378.75,22.5313,23.892,158.881,99.2859,96.3441,0.00296745,0.090708,20.979,175.742,0.268461,0.0,0.0
1520,379.75,22.0993,23.8897,155.699,99.2663,96.3824,0.00296815,0.0906329,20.979,175.732,0.263151,0.0,0.0
1524,380.75,22.2079,23.8063,163.305,99.2719,96.7489,0.00296658,0.0905658,20.9789,175.722,0.229772,0.0,0.0
1528,381.75,22.058,23.5961,159.004,99.2535,96.9229,0.00294252,0.0905416,20.9789,175.722,0.212084,0.0,0.0
1532,382.75,22.1856,23.4334,156.802,99.2463,96.6354,0.00290144,0.0905112,20.9789,175.702,0.23795,0.0,0.0
1536,383.75,21.8897,22.9654,159.451,99.2363,96.9365,0.00285666,0.090486,20.9789,175.702,0.209284,0.0,0.0
1540,384.75,21.8377,23.0163,159.739,99.2255,96.9939,0.00283957,0.0905288,20.9789,175.672,0.203027,0.0,0.0
1544,385.75,22.2477,23.1084,159.913,99.2259,97.1381,0.00285275,0.0906282,20.9789,175.662,0.189806,0.0,0.0
1548,386.75,21.9934,22.9238,161.892,99.2079,97.1814,0.00288924,0.0907165,20.9789,175.662,0.1842,0.0,0.0
1552,387.75,21.4902,23.0276,155.37,99.2095,96.9314,0.00295334,0.0907211,20.9789,175.652,0.207341,0.0,0.0
1556,388.75,21.9288,23.1919,154.549,99.2023,96.3415,0.00301662,0.0907491,20.9789,175.642,0.261174,0.0,0.0
1560,389.75,22.0994,23.4833,162.03,99.1858,97.1797,0.00306281,0.0908177,20.9789,175.632,0.182376,0.0,0.0
1564,390.75,22.1358,23.1281,158.442,99.1726,97.2146,0.00308519,0.0908879,20.9789,175.622,0.177985,0.0,0.0
1568,391.75,21.6764,23.1666,160.474,99.1662,97.1164,0.00309318,0.0909339,20.9789,175.612,0.186432,0.0,0.0
1572,392.75,21.0581,22.5046,161.144,99.1538,96.7523,0.00310736,0.0909443,20.9789,175.592,0.218835,0.0,0.0
1576,393.75,21.833,22.7318,158.922,99.1414,96.7158,0.00313073,0.0908349,20.9789,175.582,0.221093,0.0,0.0
1580,394.75,21.9397,23.2966,162.757,99.1322,97.1857,0.00314985,0.0906805,20.9789,175.592,0.177001,0.0,0.0
1584,395.75,21.9676,23.2761,159.513,99.1302,96.5065,0.00315793,0.0906044,20.9784,175.552,0.239416,0.0,0.0
1588,396.75,20.9616,22.3038,157.438,99.117,97.1797,0.00313642,0.0905722,20.9781,175.542,0.176179,0.0,0.0
1592,397.75,21.7539,22.7011,157.511,99.0978,97.1075,0.00312004,0.0906204,20.9779,175.552,0.181091,0.0,0.0
1596,398.75,21.4579,22.8456,158.358,99.091,96.5822,0.00311896,0.0907221,20.9778,175.532,0.228884,0.0,0.0
1600,399.75,21.642,23.025,162.346,99.0962,97.1011,0.0031319,0.0908277,20.9777,175.502,0.181533,0.0,0.0
1604,400.75,21.137,21.8649,155.881,99.0674,96.988,0.00315209,0.0909414,20.9777,175.502,0.189341,0.0,0.0
1608,401.75,21.9885,22.6558,163.182,99.0594,96.8357,0.00316833,0.0910694,20.9776,175.502,0.202643,0.0,0.0
1612,402.75,21.6577,22.8077,162.604,99.0438,97.0692,0.00317899,0.0911138,20.9776,175.482,0.179741,0.0,0.0
1616,403.75,21.4738,22.8781,161.476,99.0382,96.7915,0.00318403,0.0911072,20.9776,175.472,0.204809,0.0,0.0
1620,404.75,21.0595,22.1068,159.367,99.0197,96.6873,0.00318259,0.0911029,20.9776,175.472,0.212763,0.0,0.0
1624,405.75,21.4253,22.5665,160.525,99.0157,96.9697,0.00316581,0.0911,20.9776,175.462,0.186372,0.0,0.0
1628,406.75,20.8287,22.3329,160.307,99.0057,97.0258,0.00314526,0.0912367,20.9776,175.442,0.180304,0.0,0.0
1632,407.75,21.1859,22.241,159.573,98.9873,96.6737,0.00313564,0.0914052,20.9776,175.452,0.211096,0.0,0.0
1636,408.75,21.3364,22.2341,157.452,98.9849,97.0326,0.00314834,0.0915421,20.9776,175.432,0.177802,0.0,0.0
1640,409.75,21.0165,22.3881,152.591,98.9917,97.5557,0.00317868,0.0916215,20.9776,175.412,0.130428,0.0,0.0
1644,410.75,21.2617,22.4182,159.384,98.9613,97.6254,0.00321505,0.0916694,20.9776,175.392,0.121306,0.0,0.0
1648,411.75,21.7317,22.7213,157.507,98.9493,96.7149,0.00324091,0.0916256,20.9776,175.402,0.20386,0.0,0.0
1652,412.75,21.0888,22.0048,159.979,98.9401,96.8778,0.0032333,0.0915434,20.9776,175.372,0.188009,0.0,0.0
1656,413.75,21.3475,22.404,160.047,98.9249,96.8374,0.00320152,0.0915146,20.9776,175.382,0.190361,0.0,0.0
1660,414.75,21.2869,22.0469,157.828,98.9169,96.7213,0.00317715,0.0915748,20.9776,175.362,0.200345,0.0,0.0
1664,415.75,21.1637,21.9889,157.666,98.8949,97.3681,0.00318485,0.0916495,20.9776,175.352,0.138866,0.0,0.0
1668,416.75,21.3643,22.2287,159.702,98.8877,97.2282,0.00323701,0.0916805,20.9776,175.352,0.151051,0.0,0.0
1672,417.75,20.9471,22.0721,161.288,98.8833,97.3516,0.00328213,0.0916223,20.9776,175.352,0.139339,0.0,0.0
1676,418.75,20.973,21.9042,159.567,98.8737,97.2325,0.00337658,0.0915737,20.978,175.342,0.149396,0.0,0.0
1680,419.75,21.089,21.7674,160.144,98.8652,97.551,0.00343855,0.0915595,20.9779,175.332,0.119444,0.0,0.0
1684,420.75,20.7982,21.6751,150.898,98.8496,96.572,0.00346685,0.0916058,20.9774,175.322,0.208062,0.0,0.0
1688,421.75,21.0279,22.1559,158.36,98.8412,96.763,0.00346552,0.0917643,20.9771,175.312,0.189672,0.0,0.0
1692,422.75,21.1948,21.8459,154.192,98.8332,96.6431,0.003448,0.0919357,20.9769,175.302,0.200018,0.0,0.0
1696,423.75,21.4642,22.4496,154.016,98.8192,97.0564,0.00341592,0.0920984,20.9768,175.271,0.160657,0.0,0.0
1700,424.75,21.051,22.0367,160.379,98.8156,96.8374,0.00337608,0.0921047,20.9767,175.261,0.180497,0.0,0.0
1704,425.75,20.7234,22.3148,159.288,98.8068,97.1121,0.00333092,0.0920837,20.9767,175.261,0.154415,0.0,0.0
1708,426.75,21.3784,21.4284,156.697,98.788,96.8361,0.00329236,0.0921201,20.9766,175.261,0.178119,0.0,0.0
1712,427.75,21.297,22.0722,160.06,98.7836,96.8051,0.00327376,0.0921441,20.9766,175.241,0.180584,0.0,0.0
1716,428.75,20.6126,21.5559,156.923,98.778,96.885,0.00327496,0.0921598,20.9766,175.231,0.172709,0.0,0.0
1720,429.75,20.7865,21.8874,158.114,98.7628,97.1062,0.00327128,0.0921978,20.9766,175.221,0.150984,0.0,0.0
1724,430.75,20.89,22.0968,157.373,98.7652,97.0118,0.00325127,0.0922745,20.9766,175.221,0.159884,0.0,0.0
1728,431.75,20.5132,21.1401,160.31,98.7572,96.84,0.00321757,0.0923887,20.9766,175.201,0.174981,0.0,0.0
1732,432.75,20.8387,21.8352,156.407,98.7404,97.201,0.00318925,0.0924531,20.9768,175.211,0.140245,0.0,0.0
1736,433.75,20.8001,21.833,156.518,98.7216,97.0305,0.00316462,0.0925278,20.9775,175.191,0.154219,0.0,0.0
1740,434.75,20.6085,21.6899,157.55,98.7196,96.8463,0.0031453,0.0926125,20.978,175.191,0.170993,0.0,0.0
1744,435.75,20.4739,21.1327,155.475,98.7268,96.723,0.00312556,0.0927183,20.9783,175.181,0.183018,0.0,0.0
1748,436.75,20.7314,21.5296,158.806,98.7064,97.1823,0.00310758,0.0927877,20.9777,175.171,0.138888,0.0,0.0
1752,437.75,20.8978,21.4839,158.021,98.7064,96.7757,0.00310024,0.0927916,20.9773,175.161,0.176306,0.0,0.0
1756,438.75,20.5112,22.0575,158.139,98.6827,96.9965,0.00309859,0.0927465,20.977,175.161,0.153838,0.0,0.0
1760,439.75,20.2289,21.2633,159.003,98.6763,96.9518,0.00309751,0.0927612,20.9769,175.151,0.157369,0.0,0.0
1764,440.75,21.1224,21.666,159.248,98.6699,97.1462,0.0030968,0.0928853,20.9768,175.151,0.138914,0.0,0.0
1768,441.75,20.8445,21.4428,158.774,98.6635,96.8383,0.00308295,0.0930228,20.977,175.141,0.166669,0.0,0.0
1772,442.75,20.7989,21.6243,156.466,98.6551,97.2384,0.00306047,0.0931131,20.9772,175.131,0.1291,0.0,0.0
1776,443.75,20.5,21.7496,159.145,98.6507,97.2686,0.00304795,0.0931446,20.9773,175.131,0.12593,0.0,0.0
1780,444.75,20.7953,21.3588,157.655,98.6363,97.3745,0.00307768,0.0931011,20.9774,175.121,0.114915,0.0,0.0
1784,445.75,21.1313,21.3054,158.755,98.6379,97.201,0.00314118,0.0930388,20.9775,175.101,0.130979,0.0,0.0
1788,446.75,20.2921,21.9265,160.475,98.6251,96.524,0.00321443,0.092998,20.9775,175.081,0.192207,0.0,0.0
1792,447.75,20.5598,21.3506,162.6,98.6231,97.0449,0.00327589,0.0930004,20.9775,175.071,0.143983,0.0,0.0
1796,448.75,20.3995,21.4948,160.152,98.6131,96.8969,0.00330273,0.0930733,20.9775,175.071,0.156699,0.0,0.0
1800,449.75,20.3259,21.4319,156.617,98.6167,97.2878,0.00328686,0.0931211,20.9775,175.071,0.121096,0.0,0.0
1804,450.75,20.9725,21.0437,159.162,98.6439,96.3755,0.00325852,0.0931524,20.9776,175.061,0.207645,0.0,0.0
1808,451.75,20.484,21.0053,161.268,98.6651,97.7084,0.00324071,0.0932324,20.9776,175.061,0.0869739,0.0,0.0
1812,452.75,20.8011,21.4781,158.226,98.6863,97.1449,0.00323302,0.0933404,20.9776,175.031,0.140516,0.0,0.0
1816,453.75,20.7596,20.952,158.298,98.7164,96.6141,0.00323677,0.093521,20.9778,175.021,0.192129,0.0,0.0
1820,454.75,20.8455,21.0757,157.881,98.7372,97.3248,0.00325947,0.0936265,20.978,175.001,0.1286,0.0,0.0
1824,455.75,20.9259,21.2016,158.69,98.7564,97.5982,0.00329197,0.093618,20.9782,175.011,0.105293,0.0,0.0
1828,456.75,20.8499,21.6571,156.187,98.78,97.1474,0.00332156,0.0935733,20.9782,174.991,0.148748,0.0,0.0
1832,457.75,20.291,21.4651,162.738,98.7996,97.2886,0.00333574,0.0935407,20.9783,175.001,0.137558,0.0,0.0
1836,458.75,20.7822,20.9321,161.27,98.8112,97.426,0.0033277,0.093555,20.9783,174.981,0.126013,0.0,0.0
1840,459.75,20.4838,21.0111,158.249,98.8456,97.4111,,0.0935644,,174.981,0.130484,0.0,0.0
1844,460.75,20.8103,21.083,157.429,98.8412,97.3256,,0.0935454,,174.981,0.137923,0.0,0.0
1848,461.75,20.3353,21.7214,159.245,98.8644,97.4132,,0.0934827,,174.971,0.131989,0.0,0.0
1852,462.75,20.1435,21.2679,157.205,98.8781,97.7139,,,,174.971,0.105711,0.0,0.0
1856,463.75,20.022,21.1434,160.781,98.8845,97.5038,,,,174.951,0.125499,0.0,0.0
1860,464.75,20.7098,21.1477,158.974,98.9157,97.292,,,,174.921,0.147725,0.0,0.0
1864,465.75,20.4431,21.0023,157.297,98.9237,97.3354,,,,174.931,0.144469,0.0,0.0
1868,466.75,19.8111,20.2475,159.851,98.9373,97.1411,,,,174.911,0.163536,0.0,0.0
1872,467.75,20.4254,21.2527,155.437,98.9581,98.5215,,,,174.921,0.0394673,0.0,0.0
1876,468.75,20.8425,20.8364,161.312,98.9733,97.8164,,,,174.921,0.104948,0.0,0.0
1880,469.75,20.4269,21.2254,159.132,98.9853,97.688,,,,174.911,0.117757,0.0,0.0