File: 01_Data/Vinyl_Tile/Cone/Vinyl_Tile_Cone_HF75Scan_220405_R3.csv
Names,Time,Stack TC,Smoke TC,Exh Press,Smoke Comp,Smoke Meas,CO Meter,CO2 Meter,O2 Meter,Sample Mass,Ext Coeff,Start Test,Flame Verif
Chan Gain,,500,500,1,1,1,1,1,1,1,1,1.0,1.0
Offset,,0,0,0.132686,0,0,0,0,0,0,0,0.0,0.0
Gain,,1,1,25.011,13.1151,13.9355,1,1,1,1.00092,1.01752,1.0,1.0
Units,sec,C,C,Pa,%,%,%,%,%,g,/m,,
Baseline,,42.3432,44.0841,147.571,98.9311,97.9457,0.000645508,0.0628361,21.0201,-836.79,0.0894234,,
4,0.75,41.5411,42.9377,147.289,98.5955,97.8793,0.000500234,0.0658629,21.0203,191.026,0.0650681,0.0,0.0
8,1.75,40.9096,42.7996,147.05,98.5991,97.6612,0.000540614,0.0658554,21.0206,190.856,0.085311,0.0,0.0
12,2.75,40.5283,42.792,149.316,98.6035,98.0018,0.000580331,0.0658831,21.0208,190.946,0.0546302,0.0,0.0
16,3.75,41.1059,42.4793,146.776,98.6087,98.3374,0.000606389,0.0659457,21.0209,191.066,0.0245937,0.0,0.0
20,4.75,41.2019,42.5634,145.297,98.6231,97.1946,0.000614963,0.0659594,21.021,191.026,0.130225,0.0,0.0
24,5.75,41.0754,43.1048,145.235,98.6195,97.6714,0.000618555,0.065905,21.021,190.976,0.0862257,0.0,0.0
28,6.75,41.4448,42.7183,146.741,98.6275,97.7143,0.000637037,0.065836,21.0211,190.956,0.0830259,0.0,0.0
32,7.75,41.4795,42.6057,151.639,98.6315,98.0044,0.000693623,0.0657658,21.0211,191.016,0.0569342,0.0,0.0
36,8.75,40.744,42.6728,146.438,98.6215,97.4681,0.000751237,0.0656611,21.0211,191.016,0.105003,0.0,0.0
40,9.75,41.3528,42.9224,145.054,98.6307,97.3141,0.00086857,0.0655375,21.0211,191.006,0.119945,0.0,0.0
44,10.75,41.1493,43.0997,147.601,98.6355,97.2078,0.000987538,0.0654185,21.0211,190.986,0.130137,0.0,0.0
48,11.75,41.1066,42.8846,144.226,98.6483,97.1096,0.00106733,0.0653106,21.0211,190.976,0.140321,0.0,0.0
52,12.75,40.9573,42.5422,148.233,98.6575,96.9658,0.00108185,0.0651206,21.0211,190.986,0.154375,0.0,0.0
56,13.75,41.5,43.0604,146.427,98.6547,96.9986,0.00104203,0.0649666,21.0211,190.976,0.151108,0.0,0.0
60,14.75,41.402,43.5304,150.484,98.6599,94.8514,0.000986861,0.0648479,21.0211,190.946,0.351381,0.0,0.0
64,15.75,41.2842,42.9891,147.882,98.6727,93.3025,0.00101412,0.0647949,21.0203,190.916,0.499492,0.0,0.0
68,16.75,41.4227,42.7974,145.68,98.6707,91.1782,0.00131169,0.0646608,21.019,190.896,0.704872,0.0,0.0
72,17.75,41.4881,42.8464,145.847,98.6703,89.5783,0.0018488,0.0651794,21.0165,190.896,0.862843,0.0,0.0
76,18.75,41.2012,43.1293,147.746,98.6723,88.6925,0.0028997,0.0685859,21.0096,190.836,0.951729,0.0,1.0
80,19.75,41.2349,43.099,140.448,98.6691,77.6599,0.00439101,0.0768341,20.994,190.756,2.13708,0.0,1.0
84,20.75,41.6231,43.0139,139.012,98.6827,83.7159,0.00616451,0.0891841,20.9785,190.586,1.46809,0.0,1.0
88,21.75,41.4937,43.2311,142.174,98.6879,79.3606,0.00784908,0.104075,20.9538,190.506,1.94542,0.0,1.0
92,22.75,41.2326,44.0199,138.977,98.6944,79.361,0.00981172,0.121158,20.9257,190.506,1.94596,0.0,1.0
96,23.75,41.7625,43.9162,138.773,98.6995,77.4439,0.0119712,0.136473,20.8997,190.395,2.16469,0.0,1.0
100,24.75,42.2755,44.0527,134.923,98.7072,76.4283,0.0141742,0.152032,20.8711,190.285,2.2832,0.0,0.0
104,25.75,42.6228,44.3639,140.4,98.7124,76.5938,0.0161738,0.171045,20.8454,190.125,2.26437,0.0,0.0
108,26.75,43.1178,45.1461,133.064,98.7112,76.911,0.0181235,0.191336,20.8146,189.955,2.22737,0.0,0.0
112,27.75,43.5351,45.2853,132.951,98.74,76.9063,0.0195839,0.208131,20.787,189.795,2.23052,0.0,0.0
116,28.75,44.5151,46.2773,135.842,98.7276,75.4957,0.0205908,0.227601,20.7609,189.645,2.39463,0.0,0.0
120,29.75,44.539,46.6821,137.254,98.7396,70.3656,0.0211678,0.244499,20.7381,189.515,3.02382,0.0,0.0
124,30.75,45.0304,46.9016,136.545,98.7472,67.6859,0.0213664,0.25824,20.7232,189.405,3.37106,0.0,0.0
128,31.75,45.4507,47.3613,136.187,98.7488,64.165,0.0214732,0.269575,20.7038,189.264,3.848,0.0,0.0
132,32.75,45.4079,47.7595,137.251,98.7564,65.3477,0.0214147,0.280134,20.6888,189.144,3.68567,0.0,0.0
136,33.75,46.2959,48.3667,134.704,98.7684,65.5765,0.0212785,0.288651,20.6749,189.004,3.65556,0.0,0.0
140,34.75,46.8309,48.8565,138.187,98.7776,68.1882,0.0211395,0.299321,20.6636,188.874,3.30782,0.0,0.0
144,35.75,47.0546,49.2377,135.017,98.7812,66.1647,0.0210303,0.308643,20.6541,188.774,3.57702,0.0,0.0
148,36.75,47.439,49.9088,133.22,98.7852,67.2836,0.0209711,0.317546,20.6453,188.574,3.4277,0.0,0.0
152,37.75,48.0535,50.5651,136.313,98.802,71.1876,0.0209733,0.324873,20.639,188.434,2.92579,0.0,0.0
156,38.75,48.289,50.778,135.955,98.8196,67.1726,0.021022,0.332312,20.6338,188.344,3.44555,0.0,0.0
160,39.75,48.7041,51.2704,137.108,98.8136,68.6938,0.0211648,0.338744,20.6291,188.153,3.24513,0.0,0.0
164,40.75,48.8301,51.7108,137.896,98.8096,69.629,0.0213483,0.34452,20.6259,187.993,3.12408,0.0,0.0
168,41.75,49.4862,52.31,136.637,98.8452,71.3199,0.0215414,0.347867,20.6239,187.883,2.91313,0.0,0.0
172,42.75,49.7254,52.4291,131.846,98.8292,70.4243,0.0216926,0.351225,20.6234,187.703,3.02448,0.0,0.0
176,43.75,50.0923,53.0016,134.665,98.8392,67.7233,0.0217629,0.353398,20.6238,187.583,3.37444,0.0,0.0
180,44.75,50.5709,53.1847,135.483,98.8512,70.3239,0.0217992,0.355061,20.6249,187.423,3.0392,0.0,0.0
184,45.75,51.0118,53.6676,133.365,98.8644,70.3741,0.0216743,0.356388,20.627,187.273,3.03402,0.0,0.0
188,46.75,51.1438,54.0162,135.45,98.8721,72.1169,0.021556,0.357288,20.6288,187.132,2.81637,0.0,0.0
192,47.75,51.4262,54.4294,136.976,98.8853,74.0361,0.0214665,0.357977,20.6299,186.982,2.58312,0.0,0.0
196,48.75,51.5673,54.445,137.418,98.8865,73.3208,0.0214496,0.358508,20.6307,186.842,2.66989,0.0,0.0
200,49.75,51.9026,55.0569,134.678,98.8909,72.7246,0.0215484,0.359923,20.6312,186.732,2.74316,0.0,0.0
204,50.75,52.3034,55.3537,136.033,98.9069,72.7854,0.0217717,0.362185,20.6283,186.552,2.73715,0.0,0.0
208,51.75,52.2915,55.6249,138.086,98.9221,71.7239,0.0221281,0.365624,20.6232,186.412,2.86965,0.0,0.0
212,52.75,52.8183,56.1698,137.306,98.9177,71.1472,0.022548,0.370198,20.6158,186.252,2.9413,0.0,0.0
216,53.75,53.3994,56.498,134.362,98.9297,72.2011,0.0229909,0.375603,20.6072,186.142,2.81115,0.0,0.0
220,54.75,53.8703,56.5882,133.679,98.9405,69.2641,0.0237663,0.381087,20.6012,185.971,3.18279,0.0,0.0
224,55.75,53.4386,56.6108,137.543,98.9477,67.8114,0.0247656,0.385588,20.5942,185.791,3.37264,0.0,0.0
228,56.75,53.8672,57.4288,136.578,98.9641,68.9443,0.025822,0.388246,20.5879,185.621,3.22623,0.0,0.0
232,57.75,53.8007,57.062,140.792,98.9653,67.2606,0.0270511,0.390705,20.5823,185.481,3.44701,0.0,0.0
236,58.75,54.0205,58.0529,137.706,98.9733,66.4585,0.0281924,0.392501,20.5761,185.291,3.55481,0.0,0.0
240,59.75,54.9355,58.1244,134.843,98.9713,68.129,0.0293857,0.394684,20.5689,185.201,3.33305,0.0,0.0
244,60.75,55.0975,58.395,132.792,98.9765,64.7128,0.0302496,0.397463,20.5637,185.01,3.79269,0.0,0.0
248,61.75,55.4558,58.7837,132.959,98.9957,65.7747,0.0313185,0.401944,20.5547,184.87,3.64915,0.0,0.0
252,62.75,55.9669,59.444,135.97,99.0029,66.2693,0.032238,0.406401,20.5444,184.67,3.58293,0.0,0.0
256,63.75,56.1542,59.6751,132.622,99.0113,63.3468,0.0330185,0.4107,20.5322,184.5,3.98625,0.0,0.0
260,64.75,56.551,60.0199,130.783,99.0105,64.1973,0.0336746,0.416555,20.5201,184.27,3.86714,0.0,0.0
264,65.75,56.7067,60.5414,133.189,99.0249,65.8883,0.0341971,0.42202,20.5099,184.14,3.63639,0.0,0.0
268,66.75,57.1101,60.8442,137.1,99.0426,66.9174,0.0345677,0.426259,20.5021,183.949,3.49963,0.0,0.0
272,67.75,57.4915,61.203,134.117,99.0434,64.2811,0.0347954,0.429289,20.497,183.789,3.85845,0.0,0.0
276,68.75,57.8537,61.2001,129.248,99.0518,62.8484,0.034852,0.431059,20.4941,183.639,4.0604,0.0,0.0
280,69.75,58.3215,61.9934,137.78,99.053,63.2719,0.0347121,0.431094,20.4931,183.489,4.00056,0.0,0.0
284,70.75,58.2993,62.0636,132.931,99.0602,62.5783,0.0342527,0.430813,20.4924,183.339,4.09959,0.0,0.0
288,71.75,58.4881,62.6007,135.284,99.0638,64.848,0.0334982,0.425163,20.4992,183.199,3.78192,0.0,0.0
292,72.75,58.4774,63.0997,134.462,99.0738,63.7312,0.0326074,0.418469,20.5117,183.039,3.93788,0.0,0.0
296,73.75,58.582,63.0807,132.354,99.0766,65.8661,0.0314463,0.408935,20.5275,182.879,3.64403,0.0,0.0
300,74.75,59.0775,63.5034,136.426,99.0862,68.2711,0.0300462,0.398008,20.543,182.768,3.32481,0.0,0.0
304,75.75,59.2907,63.5636,135.747,99.0958,68.767,0.0285426,0.386528,20.5576,182.648,3.26108,0.0,0.0
308,76.75,59.3748,63.9706,133.93,99.0926,69.8153,0.0271229,0.375744,20.5733,182.538,3.12575,0.0,0.0
312,77.75,59.445,63.9629,135.428,99.0938,71.1443,0.0257747,0.365308,20.5877,182.398,2.95756,0.0,0.0
316,78.75,59.6456,63.893,134.88,99.1038,69.632,0.0243918,0.353969,20.6051,182.328,3.15023,0.0,0.0
320,79.75,59.7871,64.1811,138.937,99.1066,71.541,0.0230794,0.342711,20.6222,182.208,2.90907,0.0,0.0
324,80.75,59.6195,63.7714,140.292,99.1138,73.8979,0.0219296,0.332925,20.6374,182.138,2.62041,0.0,0.0
328,81.75,59.7515,63.8401,137.468,99.1198,68.6836,0.0208618,0.323989,20.6487,182.028,3.27407,0.0,0.0
332,82.75,59.7067,64.3431,137.716,99.1218,70.1585,0.019901,0.316613,20.6581,181.938,3.08462,0.0,0.0
336,83.75,59.4675,63.8664,139.099,99.1278,69.5741,0.0190818,0.311263,20.665,181.878,3.15981,0.0,0.0
340,84.75,59.6189,64.0925,140.05,99.1154,69.5644,0.0184103,0.307077,20.6695,181.747,3.15995,0.0,0.0
344,85.75,59.9379,64.1393,136.421,99.133,69.3449,0.017863,0.304101,20.6724,181.657,3.18973,0.0,0.0
348,86.75,60.0301,64.2916,133.71,99.1346,68.6015,0.0174184,0.302219,20.6739,181.597,3.28608,0.0,0.0
352,87.75,59.7828,64.331,136.26,99.1414,65.2865,0.0170569,0.301305,20.6746,181.547,3.72877,0.0,0.0
356,88.75,59.3891,63.9247,138.409,99.1458,68.9243,0.0167612,0.300947,20.675,181.447,3.24519,0.0,0.0
360,89.75,60.0092,64.1958,132.4,99.141,66.948,0.0165237,0.30148,20.6728,181.337,3.50442,0.0,0.0
364,90.75,59.7017,64.438,137.443,99.147,66.1103,0.0163561,0.303711,20.6704,181.227,3.61736,0.0,0.0
368,91.75,60.3019,64.6085,130.728,99.155,64.273,0.0162516,0.306613,20.6663,181.127,3.86963,0.0,0.0
372,92.75,60.0769,64.3721,133.246,99.1618,65.6837,0.0162057,0.311064,20.6588,181.027,3.67647,0.0,0.0
376,93.75,60.2747,64.9118,133.843,99.1566,63.673,0.016191,0.314356,20.6514,180.937,3.9535,0.0,0.0
380,94.75,60.1777,64.6519,133.147,99.195,64.2416,0.0161877,0.317379,20.646,180.847,3.87761,0.0,0.0
384,95.75,60.3951,64.5812,141.843,99.1706,60.7437,0.0161879,0.319959,20.6412,180.777,4.37513,0.0,0.0
388,96.75,60.3908,64.5548,136.361,99.1774,63.1482,0.0161928,0.322069,20.637,180.666,4.02924,0.0,0.0
392,97.75,60.5662,65.1292,138.325,99.1882,63.5097,0.016196,0.32363,20.6341,180.606,3.97927,0.0,0.0
396,98.75,60.7322,65.0162,134.91,99.1782,65.3732,0.0161886,0.324439,20.6322,180.526,3.72023,0.0,0.0
400,99.75,60.8977,65.6483,135.73,99.181,63.7921,0.0161574,0.324377,20.6319,180.436,3.93902,0.0,0.0
404,100.75,61.0858,65.6674,136.216,99.1774,64.6426,0.0160886,0.323567,20.6331,180.346,3.82048,0.0,0.0
408,101.75,60.9205,65.4257,134.057,99.1886,63.1716,0.0160041,0.322267,20.6346,180.236,4.02694,0.0,0.0
412,102.75,60.8449,65.4811,136.273,99.1782,66.3484,0.0158576,0.319934,20.6379,180.146,3.58807,0.0,0.0
416,103.75,60.8847,65.8717,133.114,99.1794,63.7836,0.0156788,0.317224,20.6434,180.066,3.94007,0.0,0.0
420,104.75,61.0463,65.7938,134.805,99.1838,62.8097,0.0154579,0.313914,20.6493,179.996,4.07779,0.0,0.0
424,105.75,61.1781,65.7064,132.836,99.1954,65.8466,0.0152325,0.310512,20.6565,179.926,3.65739,0.0,0.0
428,106.75,61.1802,65.6911,135.676,99.193,68.3077,0.0148986,0.307035,20.6635,179.836,3.32965,0.0,0.0
432,107.75,61.2572,65.9839,137.97,99.1914,67.4295,0.0145826,0.303501,20.6714,179.766,3.445,0.0,0.0
436,108.75,61.1439,65.4374,137.835,99.1898,69.7021,0.0142641,0.299579,20.6779,179.696,3.14899,0.0,0.0
440,109.75,61.1779,65.7167,137.01,99.2035,69.7021,0.013972,0.295257,20.6844,179.626,3.15021,0.0,0.0
444,110.75,60.893,65.7948,139.396,99.1994,72.6085,0.0136817,0.2904,20.6923,179.575,2.78523,0.0,0.0
448,111.75,61.0504,65.6144,137.641,99.2055,73.5547,0.0134089,0.285485,20.6993,179.455,2.67021,0.0,0.0
452,112.75,61.5004,65.7145,141.05,99.2051,74.6736,0.0130977,0.280498,20.7088,179.385,2.53542,0.0,0.0
456,113.75,60.9889,65.7041,136.974,99.2219,73.1188,0.0127942,0.275162,20.7167,179.345,2.72474,0.0,0.0
460,114.75,60.9944,65.9445,137.115,99.2087,76.0813,0.0123803,0.269915,20.7254,179.255,2.36905,0.0,0.0
464,115.75,60.9063,65.3677,137.271,99.2151,76.9212,0.0119252,0.264741,20.7336,179.195,2.27163,0.0,0.0
468,116.75,61.1189,65.4362,144.509,99.2171,79.3474,0.0114392,0.260336,20.7412,179.135,1.99463,0.0,0.0
472,117.75,60.7043,65.7048,137.97,99.2207,81.2629,0.0109806,0.255808,20.7503,179.065,1.78205,0.0,0.0
476,118.75,60.8045,65.4936,142.473,99.2175,80.7249,0.0105833,0.251166,20.7594,179.005,1.84105,0.0,0.0
480,119.75,60.6135,65.413,142.636,99.2211,81.8447,0.0101819,0.246851,20.7695,178.975,1.71842,0.0,0.0
484,120.75,60.6447,65.3164,139.509,99.2371,85.0874,0.00977142,0.24252,20.7784,178.905,1.37305,0.0,0.0
488,121.75,60.3392,65.0746,139.173,99.2275,84.7536,0.00940597,0.238211,20.7867,178.855,1.40727,0.0,0.0
492,122.75,60.2804,64.8675,139.849,99.2371,85.8559,0.00894529,0.234049,20.7929,178.785,1.29279,0.0,0.0
496,123.75,60.2489,64.9668,140.679,99.2379,87.8441,0.00863405,0.230132,20.7996,178.785,1.08853,0.0,0.0
500,124.75,60.0257,64.7572,140.085,99.2395,88.6057,0.00824541,0.226418,20.8067,178.735,1.01162,0.0,0.0
504,125.75,59.9509,64.7045,140.14,99.2487,89.1879,0.00791917,0.222987,20.8135,178.685,0.953992,0.0,0.0
508,126.75,59.9867,64.5361,140.209,99.2439,89.2292,0.0076182,0.219366,20.8206,178.605,0.949432,0.0,0.0
512,127.75,59.4318,64.3301,136.396,99.2423,90.7449,0.00735451,0.216166,20.8267,178.585,0.798947,0.0,0.0
516,128.75,59.394,64.0795,140.096,99.2487,91.0136,0.00715096,0.213297,20.8313,178.565,0.773126,0.0,0.0
520,129.75,59.3245,64.0673,140.968,99.2471,90.9218,0.00690384,0.210803,20.8362,178.514,0.781995,0.0,0.0
524,130.75,59.5882,64.1354,142.217,99.2519,91.6541,0.00666296,0.208285,20.8408,178.494,0.710824,0.0,0.0
528,131.75,59.4329,63.7879,142.427,99.2571,92.5791,0.00642304,0.205442,20.8451,178.434,0.621665,0.0,0.0
532,132.75,59.2756,63.5133,139.577,99.2595,93.6057,0.00619937,0.203041,20.8492,178.374,0.523449,0.0,0.0
536,133.75,58.4641,62.6879,139.434,99.2651,92.6548,0.00600797,0.20059,20.8538,178.334,0.61509,0.0,0.0
540,134.75,58.7466,63.4435,136.595,99.2607,92.7063,0.00582505,0.198225,20.8576,178.314,0.609738,0.0,0.0
544,135.75,58.8738,63.5616,143.957,99.2683,93.4148,0.00568131,0.196109,20.8607,178.274,0.542467,0.0,0.0
548,136.75,58.447,62.7415,144.388,99.2651,93.8524,0.00555018,0.193714,20.8636,178.234,0.500465,0.0,0.0
552,137.75,58.4619,62.5996,144.293,99.2711,93.5317,0.00542924,0.191561,20.8666,178.244,0.531552,0.0,0.0
556,138.75,58.4402,63.0025,141.092,99.2739,93.4662,0.0053017,0.189878,20.8697,178.194,0.538056,0.0,0.0
560,139.75,58.2842,62.6881,145.222,99.2771,93.9659,0.0051969,0.188701,20.8726,178.114,0.490753,0.0,0.0
564,140.75,57.4888,62.2023,142.776,99.2767,94.3908,0.00513001,0.18719,20.8753,178.104,0.450451,0.0,0.0
568,141.75,57.9074,62.3972,138.796,99.2867,94.3878,0.00511047,0.185881,20.8776,178.064,0.451632,0.0,0.0
572,142.75,57.5595,61.8471,138.641,99.2983,94.2054,0.00510572,0.184839,20.8791,178.004,0.469945,0.0,0.0
576,143.75,57.0273,61.8141,142.668,99.2975,94.8752,0.00510616,0.183944,20.881,178.004,0.406635,0.0,0.0
580,144.75,56.5658,61.5059,136.922,99.2939,94.5498,0.00508996,0.1829,20.883,177.964,0.436971,0.0,0.0
584,145.75,57.1361,61.4053,142.404,99.2951,94.916,0.00503037,0.181831,20.8845,177.924,0.402579,0.0,0.0
588,146.75,57.0071,61.5235,145.132,99.3123,95.2048,0.00492822,0.180917,20.8863,177.924,0.377013,0.0,0.0
592,147.75,57.1269,61.096,142.033,99.3099,95.1929,0.00482306,0.17995,20.8883,177.904,0.377913,0.0,0.0
596,148.75,56.3509,60.7377,143.552,99.3211,95.5641,0.00474601,0.178816,20.8904,177.844,0.344177,0.0,0.0
600,149.75,56.1774,60.4661,144.687,99.3243,95.2239,0.00469546,0.177652,20.8923,177.854,0.376299,0.0,0.0
604,150.75,56.508,60.996,141.895,99.3219,95.4514,0.00466679,0.176705,20.8943,177.794,0.354781,0.0,0.0
608,151.75,55.901,60.0799,141.166,99.3295,95.5416,0.0046533,0.175926,20.8957,177.764,0.347038,0.0,0.0
612,152.75,56.0276,60.1636,141.956,99.3283,95.5399,0.00465829,0.175328,20.8966,177.744,0.34709,0.0,0.0
616,153.75,56.0769,60.4246,139.952,99.3383,96.0396,0.00466987,0.174576,20.8972,177.674,0.301427,0.0,0.0
620,154.75,56.0615,60.4046,144.034,99.3471,95.8359,0.00467031,0.173847,20.8979,177.664,0.321169,0.0,0.0
624,155.75,56.0249,60.1388,143.536,99.3427,95.7899,0.00464414,0.172811,20.8991,177.644,0.325053,0.0,0.0
628,156.75,55.9762,59.6902,142.917,99.3583,95.707,0.00461288,0.171983,20.9005,177.654,0.334186,0.0,0.0
632,157.75,55.8393,59.2903,140.379,99.3547,96.1791,0.00457439,0.1711,20.9022,177.574,0.289946,0.0,0.0
636,158.75,55.6852,59.5851,145.839,99.3591,96.2016,0.00455812,0.170154,20.9033,177.564,0.28825,0.0,0.0
640,159.75,55.5254,59.4652,138.125,99.3563,95.932,0.00458568,0.169245,20.9042,177.514,0.31305,0.0,0.0
644,160.75,54.9965,59.6465,141.44,99.3575,95.9588,0.00465102,0.168355,20.9054,177.504,0.310665,0.0,0.0
648,161.75,55.0089,59.0321,144.095,99.3543,96.478,0.00474461,0.167495,20.9062,177.474,0.262208,0.0,0.0
652,162.75,54.9649,58.7263,141.908,99.3671,96.3326,0.00484232,0.166849,20.9068,177.464,0.276825,0.0,0.0
656,163.75,54.9097,58.9567,141.566,99.3712,96.1599,0.00492091,0.166363,20.9076,177.443,0.293197,0.0,0.0
660,164.75,54.7082,58.8453,145.833,99.3676,96.4308,0.00496127,0.165823,20.9082,177.433,0.267763,0.0,0.0
664,165.75,54.6479,58.6395,143.208,99.3696,96.4445,0.00495129,0.165224,20.9085,177.353,0.266683,0.0,0.0
668,166.75,54.818,58.6444,147.204,99.3848,96.5482,0.00491426,0.164603,20.9087,177.323,0.258451,0.0,0.0
672,167.75,54.643,58.461,142.195,99.3776,96.0808,0.00484416,0.164011,20.9089,177.313,0.301118,0.0,0.0
676,168.75,54.3007,58.4681,140.546,99.3772,95.838,0.00478962,0.16318,20.9098,177.313,0.323668,0.0,0.0
680,169.75,54.3656,58.2871,141.273,99.3824,96.5363,0.00476676,0.16234,20.9112,177.273,0.259337,0.0,0.0
684,170.75,54.1327,58.1724,142.507,99.3884,96.5342,0.00476772,0.161132,20.9129,177.273,0.260073,0.0,0.0
688,171.75,54.2051,57.7545,145.193,99.396,96.3041,0.00480212,0.160061,20.9141,177.223,0.282054,0.0,0.0
692,172.75,53.6353,57.5416,137.996,99.3904,97.0947,0.00483345,0.15915,20.9153,177.203,0.208577,0.0,0.0
696,173.75,53.7871,57.8686,146.071,99.3964,96.6307,0.00485138,0.158322,20.9165,177.173,0.25187,0.0,0.0
700,174.75,53.8134,57.5225,145.818,99.382,96.6367,0.00485781,0.157597,20.9175,177.133,0.250026,0.0,0.0
704,175.75,53.5791,57.6184,141.864,99.3956,96.666,0.00485883,0.157048,20.9182,177.143,0.248539,0.0,0.0
708,176.75,53.572,57.0839,143.921,99.3808,96.0591,0.00490996,0.156483,20.9186,177.113,0.303421,0.0,0.0
712,177.75,53.265,56.981,142.139,99.3952,96.5044,0.00497867,0.155671,20.9197,177.073,0.263437,0.0,0.0
716,178.75,53.1702,57.0912,145.595,99.3888,97.0709,0.00507709,0.154852,20.9204,177.053,0.210622,0.0,0.0
720,179.75,53.1718,56.9411,140.64,99.3928,97.0734,0.00517347,0.154152,20.9211,177.053,0.210748,0.0,0.0
724,180.75,53.0402,56.699,140.678,99.3984,96.5023,0.00526706,0.153608,20.9221,177.013,0.263921,0.0,0.0
728,181.75,53.0168,56.7378,142.459,99.3936,96.6273,0.00536159,0.153215,20.9228,176.983,0.251932,0.0,0.0
732,182.75,52.757,56.1044,142.359,99.3912,96.4883,0.0054503,0.152568,20.9233,176.983,0.264572,0.0,0.0
736,183.75,52.8785,56.6528,141.105,99.3964,97.0824,0.00553416,0.151859,20.924,176.943,0.210249,0.0,0.0
740,184.75,52.463,56.2009,143.243,99.3876,96.5822,0.00558039,0.151084,20.9247,176.963,0.255559,0.0,0.0
744,185.75,52.8132,56.0882,142.139,99.3964,96.2722,0.00560835,0.150136,20.9255,176.943,0.285046,0.0,0.0
748,186.75,52.9524,56.619,142.299,99.39,96.8319,0.00554535,0.14934,20.9264,176.893,0.232733,0.0,0.0
752,187.75,51.8669,55.7494,145.494,99.3836,96.9195,0.0054566,0.148396,20.927,176.863,0.224087,0.0,0.0
756,188.75,52.3148,55.9753,144.039,99.3904,96.0528,0.0053713,0.147511,20.9274,176.833,0.304876,0.0,0.0
760,189.75,52.54,55.8229,149.849,99.4,96.7447,0.00531534,0.146689,20.9281,176.803,0.241672,0.0,0.0
764,190.75,52.2929,55.9683,140.41,99.3984,97.1853,0.00527684,0.145769,20.93,176.803,0.200972,0.0,0.0
768,191.75,52.093,55.8233,141.486,99.3796,97.4434,0.00524044,0.144798,20.9317,176.793,0.175606,0.0,0.0
772,192.75,51.9742,55.3599,141.509,99.3796,97.3733,0.00520497,0.143909,20.9329,176.743,0.182036,0.0,0.0
776,193.75,51.6427,55.0998,151.948,99.3872,96.4508,0.00518053,0.143163,20.9337,176.733,0.267674,0.0,0.0
780,194.75,52.318,55.513,144.498,99.3784,96.4678,0.00518743,0.142563,20.9342,176.703,0.26531,0.0,0.0
784,195.75,52.4728,55.5098,139.466,99.3663,96.6035,0.005218,0.142042,20.9349,176.693,0.251688,0.0,0.0
788,196.75,52.3255,55.2419,141.671,99.3639,96.8136,0.00525086,0.141828,20.9358,176.673,0.232083,0.0,0.0
792,197.75,51.4406,55.3742,143.049,99.3691,97.9827,0.00527242,0.141457,20.9364,176.643,0.125413,0.0,0.0
796,198.75,51.4992,54.7473,144.458,99.3611,96.877,0.00528656,0.140878,20.9368,176.633,0.225991,0.0,0.0
800,199.75,51.6711,54.7921,142.904,99.3531,96.6426,0.0053083,0.140256,20.937,176.603,0.246888,0.0,0.0
804,200.75,51.5731,54.908,143.736,99.3543,96.8633,0.00533838,0.1396,20.938,176.553,0.226634,0.0,0.0
808,201.75,51.333,54.8512,147.745,99.3447,97.1198,0.00537945,0.138992,20.9386,176.573,0.202172,0.0,0.0
812,202.75,51.1674,54.5561,148.766,99.3491,97.3456,0.00542974,0.138423,20.939,176.543,0.181838,0.0,0.0
816,203.75,51.3582,54.7068,145.469,99.3323,97.0815,0.00547397,0.137789,20.9401,176.533,0.204575,0.0,0.0
820,204.75,51.231,54.3793,144.615,99.3447,97.0747,0.0055065,0.137046,20.9408,176.503,0.206316,0.0,0.0
824,205.75,51.1105,54.3328,142.349,99.3435,97.4974,0.00552582,0.136304,20.9413,176.483,0.167424,0.0,0.0
828,206.75,50.9546,54.4204,142.214,99.3371,97.4243,0.00553226,0.135725,20.9419,176.473,0.173549,0.0,0.0
832,207.75,51.1484,54.1996,145.341,99.3275,97.0671,0.00552748,0.13522,20.9418,176.443,0.205474,0.0,0.0
836,208.75,50.9273,54.2428,146.372,99.3263,97.8036,0.00551013,0.134706,20.9423,176.443,0.13789,0.0,0.0
840,209.75,50.9063,53.8234,146.893,99.3267,97.2244,0.00548425,0.13432,20.9429,176.413,0.190945,0.0,0.0
844,210.75,51.1077,54.2194,143.365,99.3163,96.8923,0.00545795,0.133703,20.9438,176.423,0.220553,0.0,0.0
848,211.75,50.7878,53.6965,146.312,99.3211,97.4868,0.00544078,0.132919,20.9446,176.393,0.166384,0.0,0.0
852,212.75,50.867,53.9349,141.581,99.3111,97.2478,0.00543752,0.132174,20.946,176.373,0.187395,0.0,0.0
856,213.75,50.7503,53.6886,146.346,99.3079,97.4035,0.00545496,0.13143,20.9477,176.322,0.172832,0.0,0.0
860,214.75,50.3591,53.8233,148.024,99.3003,97.1172,0.00549126,0.130639,20.9488,176.312,0.198415,0.0,0.0
864,215.75,50.6523,53.8548,151.038,99.2939,97.2695,0.00552658,0.129736,20.9495,176.312,0.183857,0.0,0.0
868,216.75,50.5738,53.564,143.974,99.2979,97.0249,0.00555107,0.128981,20.9499,176.272,0.206685,0.0,0.0
872,217.75,50.3822,53.2666,144.335,99.2911,97.4434,0.0055595,0.128316,20.9502,176.272,0.167659,0.0,0.0
876,218.75,50.2322,53.4709,146.191,99.2859,97.1279,0.00554725,0.127952,20.9504,176.272,0.196142,0.0,0.0
880,219.75,50.0086,53.3378,147.68,99.2887,96.9943,0.00552318,0.127765,20.9506,176.232,0.208673,0.0,0.0
884,220.75,50.2054,53.0665,145.454,99.2707,97.0734,0.00548426,0.127565,20.9507,176.222,0.199778,0.0,0.0
888,221.75,50.225,53.2897,141.248,99.2711,97.1772,0.0054436,0.127374,20.9507,176.202,0.190279,0.0,0.0
892,222.75,49.8042,53.2623,139.779,99.2691,97.8002,0.00541275,0.127051,20.9516,176.182,0.133056,0.0,0.0
896,223.75,49.9729,53.3126,142.694,99.2631,97.3197,0.0053867,0.126701,20.9529,176.172,0.176483,0.0,0.0
900,224.75,49.8047,52.6059,145.716,99.2611,97.4877,0.00537066,0.126187,20.9538,176.152,0.160909,0.0,0.0
904,225.75,49.6088,52.9094,149.738,99.2563,97.4052,0.00538087,0.125643,20.9544,176.112,0.168034,0.0,0.0
908,226.75,49.8517,53.0514,147.205,99.2399,97.4664,0.00540273,0.125155,20.9548,176.102,0.160949,0.0,0.0
912,227.75,49.6439,52.9666,147.176,99.2363,97.6357,0.00550295,0.124781,20.955,176.072,0.145139,0.0,0.0
916,228.75,49.494,52.6634,144.242,99.2295,97.6263,0.00562074,0.124407,20.9552,176.062,0.145381,0.0,0.0
920,229.75,49.8985,53.0701,146.469,99.2299,97.6527,0.00570723,0.124163,20.9553,176.052,0.143007,0.0,0.0
924,230.75,49.6988,52.5254,144.76,99.2243,97.8917,0.00578382,0.123881,20.9564,176.042,0.120684,0.0,0.0
928,231.75,49.3052,52.5503,143.693,99.2251,98.0499,0.00582567,0.12358,20.9573,176.022,0.106343,0.0,0.0
932,232.75,49.701,52.4936,140.473,99.2135,97.676,0.00584898,0.123314,20.9586,176.022,0.139393,0.0,0.0
936,233.75,49.2457,52.2842,145.66,99.2083,97.3677,0.00586909,0.122655,20.9598,176.022,0.167145,0.0,0.0
940,234.75,49.3515,52.363,142.807,99.2083,97.8576,0.00589123,0.122044,20.9602,175.992,0.122347,0.0,0.0
944,235.75,49.2124,52.2422,145.149,99.1978,97.0381,0.00592241,0.121466,20.9615,175.992,0.196473,0.0,0.0
948,236.75,49.3556,52.1651,147.987,99.2007,97.2763,0.00596269,0.120733,20.9634,176.002,0.174846,0.0,0.0
952,237.75,49.3458,52.173,144.867,99.1918,97.3286,0.00599893,0.120367,20.9641,175.982,0.169256,0.0,0.0
956,238.75,48.9544,51.9356,143.812,99.1798,97.6909,0.00605049,0.119896,20.9648,175.962,0.135009,0.0,0.0
960,239.75,49.1158,52.0719,143.587,99.1762,98.6623,0.0061088,0.119346,20.9653,175.972,0.0463756,0.0,0.0
964,240.75,48.9085,51.93,144.206,99.1702,97.6956,0.00615189,0.118979,20.9656,175.922,0.133716,0.0,0.0
968,241.75,49.0566,51.7928,143.9,99.1722,97.7211,0.00614086,0.118513,20.9658,175.902,0.131565,0.0,0.0
972,242.75,48.991,51.6665,143.446,99.1658,97.6701,0.00608914,0.118187,20.9659,175.892,0.135651,0.0,0.0
976,243.75,48.971,51.7798,145.798,99.1582,97.6994,0.00603716,0.117768,20.9668,175.892,0.132286,0.0,0.0
980,244.75,48.6098,51.4926,143.993,99.151,98.0286,0.00600422,0.117242,20.9674,175.882,0.101617,0.0,0.0
984,245.75,48.7179,51.5758,143.216,99.1418,97.7679,0.00599616,0.116716,20.9686,175.872,0.124555,0.0,0.0
988,246.75,48.2963,51.2301,145.241,99.139,98.2685,0.00602235,0.116331,20.9694,175.852,0.0787228,0.0,0.0
992,247.75,48.7326,51.5299,142.764,99.1394,97.9117,0.00604948,0.116047,20.9696,175.832,0.111226,0.0,0.0
996,248.75,48.8035,51.5609,141.633,99.1198,97.5969,0.00614258,0.115782,20.9697,175.802,0.138195,0.0,0.0
1000,249.75,48.5042,51.0951,146.977,99.117,97.6926,0.00623317,0.115499,20.9698,175.782,0.129197,0.0,0.0
1004,250.75,48.4726,51.5186,142.337,99.1078,98.8175,0.00630168,0.115253,20.9701,175.752,0.026182,0.0,0.0
1008,251.75,48.6521,51.1703,145.92,99.0942,96.9101,0.00633982,0.114941,20.9709,175.742,0.198923,0.0,0.0
1012,252.75,48.5586,51.1598,143.094,99.0886,97.6846,0.00636418,0.114514,20.9714,175.722,0.127375,0.0,0.0
1016,253.75,48.5624,50.9597,147.285,99.077,97.9078,0.00638054,0.11394,20.9713,175.722,0.105952,0.0,0.0
1020,254.75,48.3156,51.2807,137.621,99.0702,97.8304,0.0063961,0.11333,20.9714,175.682,0.112398,0.0,0.0
1024,255.75,48.2409,50.714,141.673,99.0538,97.1602,0.00640289,0.11285,20.9719,175.662,0.17228,0.0,0.0
1028,256.75,48.5734,50.9056,144.171,99.053,98.3684,0.00641092,0.112495,20.9724,175.652,0.0618998,0.0,0.0
1032,257.75,48.3897,51.0887,144.268,99.0382,97.7922,0.00642443,0.11221,20.973,175.622,0.113005,0.0,0.0
1036,258.75,48.7904,51.0395,143.372,99.0322,97.6582,0.00643587,0.112035,20.9733,175.602,0.1247,0.0,0.0
1040,259.75,48.2384,50.7884,142.42,99.0149,98.285,0.0064288,0.111995,20.9736,175.572,0.0660388,0.0,0.0
1044,260.75,48.5154,50.6216,146.798,99.0225,97.227,0.00640939,0.111976,20.9737,175.572,0.163334,0.0,0.0
1048,261.75,48.1695,50.8674,144.164,98.9989,97.9321,0.00638539,0.111786,20.9738,175.582,0.0967089,0.0,0.0
1052,262.75,48.1393,50.5476,147.965,98.9917,97.2002,0.00638549,0.111484,20.9739,175.572,0.163016,0.0,0.0
1056,263.75,47.8091,50.8269,141.611,98.9841,97.9372,0.00639632,0.111186,20.974,175.532,0.0949078,0.0,0.0
1060,264.75,47.9164,50.4329,144.129,98.9693,97.1861,0.00639916,0.111084,20.9744,175.532,0.162283,0.0,0.0
1064,265.75,48.2213,50.3767,148.667,98.9645,97.8636,0.00637228,0.111056,20.9751,175.522,0.0998471,0.0,0.0
1068,266.75,47.8776,50.687,142.807,98.9537,98.0724,0.00631486,0.111029,20.9755,175.522,0.0798481,0.0,0.0
1072,267.75,47.9025,50.4354,143.141,98.9577,98.2885,0.00620797,0.110835,20.9758,175.512,0.0605683,0.0,0.0
1076,268.75,47.8901,50.7334,146.273,98.9477,97.8117,0.00612104,0.110559,20.976,175.502,0.103064,0.0,0.0
1080,269.75,48.0076,50.4117,147.046,98.9365,97.3758,0.00605116,0.110324,20.9761,175.482,0.14192,0.0,0.0
1084,270.75,47.7639,50.1669,145.97,98.9277,97.5816,0.00603249,0.110196,20.9762,175.442,0.122279,0.0,0.0
1088,271.75,47.9534,50.5409,142.617,98.9249,97.2839,0.00603836,0.110111,20.9763,175.412,0.149298,0.0,0.0
1092,272.75,47.6627,50.3408,143.855,98.9093,97.6544,0.00604578,0.11007,20.9763,175.402,0.113968,0.0,0.0
1096,273.75,47.5382,50.3684,148.067,98.9093,97.9521,0.00606946,0.11004,20.9763,175.402,0.0868,0.0,0.0
1100,274.75,47.7825,50.3392,145.601,98.8921,97.7756,0.00611838,0.109987,20.9764,175.412,0.101344,0.0,0.0
1104,275.75,47.8695,50.3271,150.971,98.8873,96.9033,0.00615817,0.109876,20.9764,175.372,0.180891,0.0,0.0
1108,276.75,47.402,50.1767,146.928,98.8693,97.5825,0.00622896,0.109772,20.9761,175.372,0.116928,0.0,0.0
1112,277.75,47.3189,50.0653,145.547,98.8641,97.5629,0.00628743,0.109757,20.9757,175.362,0.118247,0.0,0.0
1116,278.75,47.523,49.9693,142.77,98.8584,97.1636,0.00631827,0.109706,20.9754,175.342,0.154349,0.0,0.0
1120,279.75,47.5536,50.2157,144.922,98.854,97.8087,0.00632238,0.109638,20.9752,175.342,0.0948836,0.0,0.0
1124,280.75,47.5928,50.107,142.064,98.8268,97.8338,0.00631762,0.109467,20.9751,175.342,0.0901365,0.0,0.0
1128,281.75,46.9763,49.7265,144.077,98.8224,97.3788,0.00631676,0.109253,20.975,175.292,0.13135,0.0,0.0
1132,282.75,47.5158,50.0434,143.216,98.8072,97.2104,0.00631781,0.109164,20.975,175.292,0.145426,0.0,0.0
1136,283.75,47.2907,49.7922,145.954,98.7984,97.1117,0.00631492,0.109085,20.9749,175.251,0.153695,0.0,0.0
1140,284.75,47.556,49.9727,143.628,98.7808,97.164,0.00630849,0.109014,20.9749,175.221,0.147297,0.0,0.0
1144,285.75,47.3672,49.8933,146.243,98.7772,97.7615,0.00629814,0.109068,20.9747,175.211,0.0922524,0.0,0.0
1148,286.75,47.2025,49.716,144.134,98.7748,97.5106,0.00629054,0.109246,20.9739,175.201,0.114972,0.0,0.0
1152,287.75,47.2619,49.7871,145.342,98.7528,96.9165,0.00629201,0.109562,20.9737,175.171,0.167531,0.0,0.0
1156,288.75,47.5494,50.1805,146.49,98.7376,97.2223,0.006282,0.109867,20.9741,175.191,0.138039,0.0,0.0
1160,289.75,47.1087,49.8131,143.76,98.734,97.4494,0.00626325,0.110275,20.9743,175.191,0.11689,0.0,0.0
1164,290.75,47.4399,49.7044,145.943,98.7256,97.2486,0.0061422,0.110569,20.9745,175.211,0.134534,0.0,0.0
1168,291.75,47.3971,49.5804,147.057,98.7144,97.3435,0.00600929,0.110559,20.9746,175.171,0.124821,0.0,0.0
1172,292.75,46.7279,49.7546,142.81,98.6907,97.2606,0.00590996,0.110392,20.9747,175.111,0.130292,0.0,0.0
1176,293.75,46.6314,49.6494,146.222,98.6723,97.4902,0.00586967,0.110198,20.9748,175.111,0.107577,0.0,0.0
1180,294.75,46.469,49.0273,145.844,98.6667,97.4757,0.00586361,0.110022,20.9748,175.091,0.108394,0.0,0.0
1184,295.75,46.9684,49.0348,140.527,98.6567,96.4823,0.00586868,0.109819,20.9748,175.081,0.198923,0.0,0.0
1188,296.75,47.2983,48.8067,144.477,98.6483,96.8225,0.00587326,0.109516,20.9748,175.121,0.166745,0.0,0.0
1192,297.75,46.299,48.5588,148.432,98.6491,97.0964,0.00587602,0.109166,20.9748,175.111,0.141605,0.0,0.0
1196,298.75,46.7735,49.0665,142.545,98.6375,97.3639,0.00587682,0.108798,20.9748,175.091,0.115998,0.0,0.0
1200,299.75,46.74,48.8378,143.212,98.6335,97.2431,0.00588448,0.108486,20.9753,175.061,0.126716,0.0,0.0
1204,300.75,46.9092,49.0763,146.635,98.6155,97.1006,0.00589502,0.108432,20.9761,175.041,0.138172,0.0,0.0
1208,301.75,46.4538,48.5965,145.066,98.6003,96.9101,0.00590818,0.108419,20.9764,175.031,0.154325,0.0,0.0
1212,302.75,46.1589,48.8273,141.237,98.5903,97.497,0.00594511,0.108443,20.9767,175.011,0.0995293,0.0,0.0
1216,303.75,46.6843,48.9612,149.124,98.5727,96.6618,0.00598556,0.108353,20.9768,174.981,0.174729,0.0,0.0
1220,304.75,46.9733,49.1359,145.853,98.5655,97.48,0.00606657,0.108227,20.977,174.961,0.0988401,0.0,0.0
1224,305.75,46.6689,48.9607,142.765,98.5587,97.3567,0.00613428,0.107951,20.977,175.021,0.109523,0.0,0.0
1228,306.75,46.4656,49.1778,145.376,98.5475,96.9318,0.00619268,0.107668,20.9771,174.991,0.147544,0.0,0.0
1232,307.75,46.5132,49.0183,144.81,98.5431,97.4885,0.00625339,0.107438,20.9771,175.001,0.0960321,0.0,0.0
1236,308.75,46.278,48.6088,143.76,98.5447,97.4481,0.00631254,0.107236,20.9772,174.971,0.0998755,0.0,0.0
1240,309.75,46.3023,48.5364,141.843,98.5331,96.8059,0.00636269,0.107095,20.9772,174.921,0.157838,0.0,0.0
1244,310.75,46.6836,48.7209,146.289,98.5214,97.0164,0.00639058,0.106986,20.9772,174.901,0.137398,0.0,0.0
1248,311.75,46.4866,49.4058,144.666,98.5102,97.3567,0.00639888,0.106841,20.9772,174.881,0.105137,0.0,0.0
1252,312.75,46.5994,49.1102,146.016,98.5094,97.0896,0.00638522,0.106649,20.9772,174.851,0.129584,0.0,0.0
1256,313.75,46.3317,48.7729,143.213,98.499,96.6677,0.00635642,0.106595,20.9772,174.881,0.167508,0.0,0.0
1260,314.75,46.3794,48.6612,145.214,98.4962,97.0887,0.00630409,0.106635,20.9772,174.861,0.128465,0.0,0.0
1264,315.75,46.5203,48.9158,145.298,98.487,97.4872,0.00622669,0.106622,20.9772,174.831,0.0910718,0.0,0.0
1268,316.75,46.5868,48.8787,145.863,98.463,96.5835,0.00614539,0.106583,20.978,174.791,0.172021,0.0,0.0
1272,317.75,46.1446,48.5904,147.115,98.4806,96.8315,0.00606528,0.106452,20.9785,174.781,0.150734,0.0,0.0
1276,318.75,45.9621,48.4267,142.518,98.4558,97.8653,0.00600017,0.106359,20.9789,174.771,0.0536931,0.0,0.0
1280,319.75,46.5332,48.8074,151.04,98.4514,97.073,0.00595977,0.10629,20.9791,174.741,0.125848,0.0,0.0
1284,320.75,46.5033,48.4876,141.656,98.435,97.1955,0.0059388,0.106247,20.9792,174.721,0.113105,0.0,0.0
1288,321.75,46.3365,48.3901,143.636,98.4162,97.1155,0.00592706,0.106256,20.9793,174.731,0.118745,0.0,0.0
1292,322.75,46.5032,48.8426,140.806,98.4134,97.3452,0.00590688,0.106236,20.9795,174.711,0.0974088,0.0,0.0
1296,323.75,46.1756,48.8425,146.159,98.395,97.6033,0.00587601,0.106071,20.9798,174.701,0.0721012,0.0,0.0
1300,324.75,46.2079,48.6011,146.547,98.3894,97.3894,0.00585193,0.105893,20.9799,174.711,0.0911771,0.0,0.0
1304,325.75,46.0023,48.3129,145.297,98.3822,96.9386,0.00580671,0.10572,20.98,174.691,0.131933,0.0,0.0
1308,326.75,46.4154,48.573,145.335,98.3661,97.2431,0.00578836,0.105556,20.9801,174.681,0.102489,0.0,0.0
1312,327.75,46.2855,48.6238,144.912,98.3533,97.0067,0.00582437,0.105428,20.9801,174.681,0.123056,0.0,0.0
1316,328.75,46.9149,48.6663,144.522,98.3401,96.6035,0.00588546,0.105269,20.9801,174.661,0.159029,0.0,0.0
1320,329.75,45.7618,48.8631,146.617,98.3413,97.1487,0.00594642,0.10508,20.9802,174.631,0.108907,0.0,0.0
1324,330.75,46.0423,48.2004,147.356,98.3125,96.7638,0.00599548,0.10499,20.9795,174.631,0.141721,0.0,0.0
1328,331.75,46.4172,48.4208,144.602,98.2957,97.1797,0.00603142,0.105035,20.9792,174.631,0.101912,0.0,0.0
1332,332.75,46.4442,48.729,147.08,98.2801,97.1355,0.00605673,0.105123,20.9795,174.621,0.104557,0.0,0.0
1336,333.75,46.0072,48.6508,145.484,98.2581,96.444,0.00606419,0.105251,20.9798,174.581,0.166327,0.0,0.0
1340,334.75,46.0827,48.3015,147.996,98.2401,96.7804,0.00605002,0.105425,20.9799,174.611,0.133612,0.0,0.0
1344,335.75,46.4379,48.3956,143.701,98.2221,96.9982,0.00602618,0.105489,20.98,174.601,0.111916,0.0,0.0
1348,336.75,46.2227,48.3139,150.375,98.2113,96.791,0.00600251,0.10547,20.9801,174.591,0.130013,0.0,0.0
1352,337.75,46.113,48.2192,146.338,98.2053,96.9195,0.00596434,0.105457,20.9801,174.531,0.117632,0.0,0.0
1356,338.75,46.1742,48.4772,145.615,98.1884,96.7558,0.00592085,0.105556,20.9801,174.521,0.131195,0.0,0.0
1360,339.75,46.1145,48.3746,143.344,98.1708,97.0688,0.00585152,0.105743,20.9802,174.491,0.100767,0.0,0.0
1364,340.75,46.3267,48.6456,144.528,98.1684,96.5184,0.00578631,0.105885,20.9802,174.501,0.151294,0.0,0.0
1368,341.75,46.1149,48.6089,145.331,98.144,96.7464,0.00573143,0.10593,20.9802,174.441,0.128019,0.0,0.0
1372,342.75,45.9567,48.63,145.113,98.1256,96.0536,0.00572003,0.10587,20.9802,174.501,0.190488,0.0,0.0
1376,343.75,46.3322,48.7282,144.961,98.1108,96.931,0.00573391,0.105632,20.9802,174.521,0.107985,0.0,0.0
1380,344.75,46.4601,48.4416,144.356,98.0948,96.4751,0.00576548,0.105362,20.9806,174.511,0.148607,0.0,0.0
1384,345.75,46.577,48.5479,142.739,98.0792,96.5184,0.00579541,0.10513,20.9813,174.491,0.143174,0.0,0.0
1388,346.75,46.2737,48.6756,143.207,98.0788,96.7451,0.00584541,0.104966,20.9824,174.471,0.122202,0.0,0.0
1392,347.75,45.9252,48.2443,144.335,98.0672,96.6728,0.00590211,0.104859,20.9831,174.441,0.127817,0.0,0.0
1396,348.75,46.0697,48.096,147.685,98.0512,96.9718,0.00594989,0.104839,20.9836,174.431,0.098799,0.0,0.0
1400,349.75,45.9807,48.4926,143.986,98.0512,97.6535,0.005977,0.104906,20.9839,174.421,0.0362718,0.0,0.0
1404,350.75,46.2963,48.4866,142.499,98.0412,96.7736,0.00598836,0.104951,20.9835,174.361,0.116148,0.0,0.0
1408,351.75,46.4108,48.3064,145.383,98.0303,96.7523,0.00599142,0.104916,20.983,174.361,0.117126,0.0,0.0
1412,352.75,45.7532,48.4964,143.719,98.0147,96.3751,0.00599218,0.104896,20.983,174.381,0.150572,0.0,0.0
1416,353.75,46.2072,48.741,146.491,98.0087,96.9701,0.00598541,0.104846,20.983,174.371,0.0950931,0.0,0.0
1420,354.75,45.8113,48.3709,148.365,98.0047,96.979,0.00596715,0.104793,20.9824,174.331,0.0939077,0.0,0.0
1424,355.75,46.4761,48.4812,143.069,97.9911,96.7923,0.00593952,0.104794,20.982,174.351,0.109867,0.0,0.0
1428,356.75,46.2182,48.496,144.663,98.0011,96.7668,0.00589394,0.104745,20.9818,174.341,0.113131,0.0,0.0
1432,357.75,45.9618,48.712,144.969,98.0436,96.1416,0.00584931,0.104652,20.9816,174.291,0.174845,0.0,0.0
1436,358.75,46.2016,48.1863,143.897,98.1396,96.5835,0.00582324,0.104595,20.9815,174.281,0.142658,0.0,0.0
1440,359.75,45.9742,48.8457,141.617,98.2225,97.1049,0.00584001,0.104564,20.9819,174.261,0.102136,0.0,0.0
1444,360.75,46.1918,47.9086,145.025,98.2377,97.3469,0.00588868,0.104503,20.9825,174.261,0.0813032,0.0,0.0
1448,361.75,46.3875,48.3631,147.215,98.2261,96.5163,0.00594323,0.104371,20.9829,174.221,0.156729,0.0,0.0
1452,362.75,45.9241,48.7366,145.275,98.2189,96.635,0.00599613,0.104088,20.9832,174.211,0.145108,0.0,0.0
1456,363.75,45.9099,48.5196,148.885,98.2233,97.1742,0.00603489,0.103877,20.9837,174.221,0.0958395,0.0,0.0
1460,364.75,46.0816,48.4912,144.779,98.2157,97.1181,0.00605769,0.10378,20.984,174.201,0.100306,0.0,0.0
1464,365.75,46.335,48.3684,146.325,98.2049,96.3811,0.00606622,0.103847,20.9841,174.19,0.167317,0.0,0.0
1468,366.75,46.6001,48.8284,143.613,98.182,96.8561,0.00604504,0.103863,20.9843,174.16,0.121359,0.0,0.0
1472,367.75,45.965,48.2091,147.738,98.174,96.7005,0.00600253,0.103797,20.9843,174.17,0.134987,0.0,0.0
1476,368.75,46.4886,48.5913,143.709,98.1628,96.7668,0.00596888,0.103711,20.9844,174.17,0.127846,0.0,0.0
1480,369.75,45.6769,48.5801,143.839,98.1448,97.0347,0.00589073,0.103609,20.9838,174.13,0.10153,0.0,0.0
1484,370.75,46.0443,48.5516,145.101,98.1316,97.2452,0.00583389,0.103489,20.9834,174.14,0.0809858,0.0,0.0
1488,371.75,45.3123,48.1106,146.535,98.1132,96.9999,0.0057635,0.103529,20.9831,174.15,0.101862,0.0,0.0
1492,372.75,46.4278,48.3945,145.132,98.0956,97.2278,0.00570896,0.103574,20.9829,174.1,0.0793092,0.0,0.0
1496,373.75,45.9998,48.3667,143.175,98.0928,96.3934,0.00567418,0.103566,20.9828,174.11,0.155983,0.0,0.0
1500,374.75,45.7649,48.5539,147.129,98.0764,96.9161,0.00565618,0.103511,20.9827,174.12,0.106224,0.0,0.0
1504,375.75,45.3103,47.8807,146.118,98.0572,96.3011,0.00562629,0.103324,20.9826,174.07,0.16129,0.0,0.0
1508,376.75,46.1128,48.5047,145.315,98.0464,96.9492,0.00556826,0.103101,20.9826,174.06,0.100437,0.0,0.0
1512,377.75,45.8315,48.5287,145.222,98.0284,96.379,0.00548955,0.102958,20.9826,174.07,0.151457,0.0,0.0
1516,378.75,46.5213,48.6757,142.681,98.0279,96.3926,0.00541082,0.102994,20.9826,174.05,0.15016,0.0,0.0
1520,379.75,45.8735,47.7962,145.871,98.0067,96.9892,0.00535015,0.103212,20.9825,174.03,0.0931496,0.0,0.0
1524,380.75,45.9225,48.3029,146.105,97.9843,96.7217,0.00531657,0.103481,20.9825,174.02,0.11576,0.0,0.0
1528,381.75,46.2656,48.3657,147.407,97.9663,96.3428,0.00530956,0.103628,20.9825,173.99,0.149154,0.0,0.0
1532,382.75,46.0413,48.6286,143.82,97.9435,96.0515,0.00532676,0.103594,20.9833,174.02,0.174105,0.0,0.0
1536,383.75,46.0932,47.5019,146.707,97.9395,96.7813,0.00536913,0.103428,20.9839,174,0.106183,0.0,0.0
1540,384.75,45.7644,48.0015,144.167,97.9263,96.8693,0.00542624,0.103168,20.9842,173.99,0.0968636,0.0,0.0
1544,385.75,46.2825,48.8457,140.998,97.9175,97.6135,0.0055076,0.102978,20.9844,173.99,0.0277488,0.0,0.0
1548,386.75,45.848,48.5911,144.186,97.9115,96.2169,0.00558985,0.102873,20.9846,173.98,0.155827,0.0,0.0
1552,387.75,46.0601,48.2123,145.735,97.8927,96.2709,0.00567055,0.102844,20.9847,173.95,0.149104,0.0,0.0
1556,388.75,46.1512,48.3121,142.239,97.8863,96.5771,0.0057414,0.102915,20.9847,173.93,0.120176,0.0,0.0
1560,389.75,46.1715,48.0393,144.945,97.8675,96.2663,0.00577471,0.103005,20.9843,173.93,0.147238,0.0,0.0
1564,390.75,46.0066,48.4682,146.344,97.8587,95.9401,0.00576728,0.103088,20.9838,173.92,0.17673,0.0,0.0
1568,391.75,46.0018,48.3228,140.787,97.8398,96.4921,0.00574892,0.103075,20.9834,173.93,0.123806,0.0,0.0
1572,392.75,46.1087,48.3628,142.183,97.8386,96.5367,0.00571549,0.102977,20.9835,173.89,0.119566,0.0,0.0
1576,393.75,45.9284,48.1104,145.483,97.8318,96.4109,0.00571453,0.102954,20.9838,173.88,0.130592,0.0,0.0
1580,394.75,46.08,48.5281,146.86,97.8098,95.9107,0.00573886,0.102911,20.9841,173.89,0.175005,0.0,0.0
1584,395.75,46.0499,48.2791,143.698,97.8174,96.4521,0.00580276,0.102778,20.9842,173.86,0.125459,0.0,0.0
1588,396.75,46.1936,48.2095,149.765,97.797,96.4712,0.0058546,0.102565,20.9843,173.83,0.121826,0.0,0.0
1592,397.75,45.6775,48.1796,148.182,97.7902,97.2223,0.00588541,0.102299,20.9844,173.82,0.051987,0.0,0.0
1596,398.75,45.5043,48.3872,145.39,97.7958,96.5801,0.00589035,0.102204,20.9844,173.81,0.111649,0.0,0.0
1600,399.75,45.4883,48.0071,149.879,97.7718,96.1931,0.00587475,0.102219,20.9844,173.79,0.145295,0.0,0.0
1604,400.75,45.4639,47.657,141.858,97.767,96.6749,0.00584205,0.102333,20.9845,173.78,0.100258,0.0,0.0
1608,401.75,45.8894,47.9293,144.07,97.7642,96.0927,,0.102385,,173.77,0.153917,0.0,0.0
1612,402.75,45.7072,48.1353,142.277,97.7638,95.8461,,0.102348,,173.77,0.176821,0.0,0.0
1616,403.75,45.7447,48.1446,144.638,97.7582,96.3909,,0.102253,,173.75,0.125721,0.0,0.0
1620,404.75,45.6763,48.581,147.062,97.7422,96.4942,,,,173.76,0.114696,0.0,0.0
1624,405.75,46.7216,48.1477,145.858,97.7346,96.4619,,,,173.74,0.116992,0.0,0.0
1628,406.75,45.8321,48.1238,146.944,97.727,95.6836,,,,173.74,0.1886,0.0,0.0
1632,407.75,45.4872,48.3154,144.1,97.717,96.2327,,,,173.74,0.136618,0.0,0.0
1636,408.75,45.9563,48.3706,142.784,97.7138,97.3282,,,,173.73,0.0352915,0.0,0.0
1640,409.75,45.7548,48.0449,142.966,97.7022,96.2909,,,,173.7,0.129864,0.0,0.0
1644,410.75,45.5101,47.9319,144.97,97.6909,95.8703,,,,173.71,0.167912,0.0,0.0
1648,411.75,46.0846,48.2101,146.091,97.7034,96.8544,,,,173.71,0.0778927,0.0,0.0
1649,412,45.9138,48.1254,145.153,97.6897,96.3373,,,,173.69,0.124433,0.0,0.0