File: 01_Data/Vinyl_Tile/Cone/Vinyl_Tile_Cone_HF25Scan_220510_R4.csv
Names,Time,Stack TC,Smoke TC,Exh Press,Smoke Comp,Smoke Meas,CO Meter,CO2 Meter,O2 Meter,Sample Mass,Ext Coeff,Start Test,Flame Verif
Chan Gain,,500,500,1,1,1,1,1,1,1,1,1.0,1.0
Offset,,0,0,0.135316,0,0,0,0,0,0,0,0.0,0.0
Gain,,1,1,25.011,13.8443,15.4071,1,1,1,1.00079,1.02936,1.0,1.0
Units,sec,C,C,Pa,%,%,%,%,%,g,/m,,
Baseline,,19.2954,19.8038,141.806,104.888,103.932,0.000264935,0.0453249,21.0002,-446.498,0.0826347,,
3,0.5,19.0778,19.7347,141.255,104.333,103.356,-0.000107541,0.0492817,20.9956,534.602,0.0849454,0.0,0.0
6,1.25,17.8449,17.9209,144.199,104.35,103.331,-0.000134938,0.0489847,20.9957,534.692,0.0885861,0.0,0.0
9,2,17.1258,17.9245,141.776,104.343,103.353,-0.000145928,0.0486948,20.9958,534.682,0.0861108,0.0,0.0
12,2.75,17.5992,17.8912,146.409,104.338,103.392,-0.000137701,0.048402,20.9959,534.652,0.0822995,0.0,0.0
15,3.5,17.2281,18.2092,146.378,104.329,103.322,-8.88113e-05,0.0481967,20.996,534.642,0.0874967,0.0,0.0
18,4.25,17.2784,17.9491,140.93,104.324,103.283,-1.70602e-05,0.0481203,20.996,534.662,0.0905109,0.0,0.0
21,5,16.7763,17.6938,140.163,104.321,103.394,5.06409e-05,0.0482276,20.996,534.652,0.0806322,0.0,0.0
24,5.75,17.4014,17.8501,141.694,104.321,103.327,0.000114579,0.0485112,20.9958,534.642,0.0864328,0.0,0.0
27,6.5,17.4045,17.9871,139.662,104.318,103.37,0.00018613,0.0489503,20.9953,534.662,0.0824296,0.0,0.0
30,7.25,17.2659,17.2567,144.731,104.316,103.392,0.000233133,0.0496387,20.9949,534.652,0.0803975,0.0,0.0
33,8,17.0352,18.0832,139.698,104.329,103.415,0.000257758,0.050205,20.9946,534.682,0.0794789,0.0,0.0
36,8.75,16.9287,17.5966,143.163,104.331,103.459,0.0002716,0.050728,20.9944,534.682,0.0757309,0.0,0.0
39,9.5,16.9687,18.1855,143.232,104.321,103.338,0.000259357,0.0510956,20.9942,534.682,0.0854786,0.0,0.0
42,10.25,17.6118,17.919,141.775,104.338,103.301,0.000225151,0.0512791,20.9941,534.672,0.0901912,0.0,0.0
45,11,17.6336,18.0047,144.3,104.351,103.492,0.000181839,0.0512783,20.9943,534.682,0.0746186,0.0,0.0
48,11.75,17.8745,18.1771,145.948,104.349,103.444,0.000137269,0.0510738,20.9948,534.682,0.0786936,0.0,0.0
51,12.5,17.6628,18.534,140.841,104.341,103.395,0.000106044,0.0507662,20.9951,534.682,0.0822675,0.0,0.0
54,13.25,17.2359,18.2548,140.736,104.339,103.489,8.54458e-05,0.0504197,20.9954,534.662,0.0738404,0.0,0.0
57,14,17.5259,17.3677,141.537,104.344,103.343,8.30977e-05,0.0499734,20.9956,534.642,0.0870469,0.0,0.0
60,14.75,16.9938,18.0934,141.881,104.352,103.374,0.000103048,0.0495908,20.9958,534.622,0.0850296,0.0,0.0
63,15.5,17.4264,17.7671,141.12,104.345,103.39,0.000142881,0.0492141,20.9962,534.602,0.083044,0.0,0.0
66,16.25,17.5749,18.2076,142.19,104.352,103.408,0.000192213,0.0489395,20.9969,534.592,0.0821096,0.0,0.0
69,17,17.462,18.1601,143.316,104.366,103.425,0.000244444,0.0484682,20.9974,534.602,0.0817192,0.0,0.0
72,17.75,17.5721,18.0756,136.772,104.355,103.447,0.000299714,0.0480025,20.9982,534.602,0.0789219,0.0,0.0
75,18.5,17.3649,17.9078,145.337,104.358,103.457,0.000344829,0.0476109,20.999,534.592,0.0782699,0.0,0.0
78,19.25,17.6118,18.1851,140.074,104.381,103.32,0.000379774,0.0472286,20.9995,534.592,0.0922723,0.0,0.0
81,20,17.2785,17.9523,142.713,104.364,103.371,0.000396809,0.046855,20.9999,534.572,0.0862995,0.0,0.0
84,20.75,17.3008,17.5959,137.653,104.378,103.457,0.000397191,0.0465278,21.0002,534.602,0.0799889,0.0,0.0
87,21.5,17.7136,17.9251,141.786,104.374,103.301,0.000393239,0.0462649,21.0005,534.592,0.0933355,0.0,0.0
90,22.25,17.356,18.1089,140.472,104.385,103.457,0.000389273,0.0460325,21.0006,534.612,0.0806098,0.0,0.0
93,23,17.2776,18.0245,143.512,104.388,103.269,0.000383971,0.0458457,21.0007,534.632,0.0973009,0.0,0.0
96,23.75,17.3504,18.1505,142.769,104.407,103.411,0.000374004,0.0456129,21.0008,534.622,0.086533,0.0,0.0
99,24.5,17.6768,18.3733,140.583,104.404,103.466,0.000358063,0.045416,21.0009,534.642,0.0814792,0.0,0.0
102,25.25,16.8655,18.1143,143.519,104.428,103.406,0.000327542,0.0452537,21.0009,534.642,0.0888164,0.0,0.0
105,26,17.6049,18.4246,141.043,104.434,103.495,0.000305291,0.0451232,21.001,534.622,0.0815294,0.0,0.0
108,26.75,17.2568,18.0387,143.435,104.436,103.493,0.000267398,0.0450688,21.001,534.612,0.0819176,0.0,0.0
111,27.5,17.6599,18.2317,145.935,104.434,103.498,0.000224834,0.0450393,21.001,534.562,0.0812787,0.0,0.0
114,28.25,17.594,18.175,142.635,104.458,103.48,0.000184057,0.0450056,21.001,534.572,0.0849657,0.0,0.0
117,29,17.3988,18.5591,142.147,104.45,103.497,0.00015433,0.0450218,21.001,534.552,0.0827539,0.0,0.0
120,29.75,17.4457,17.5217,139.038,104.454,103.577,0.00013988,0.0450509,21.001,534.592,0.0761429,0.0,0.0
123,30.5,17.2625,18.1721,141.354,104.47,103.536,0.000145731,0.0449947,21.001,534.592,0.0811027,0.0,0.0
126,31.25,17.98,18.1367,140.42,104.472,103.651,0.000172752,0.0449809,21.001,534.612,0.0712489,0.0,0.0
129,32,17.4197,17.9566,138.773,104.474,103.504,0.000244011,0.0449753,21.001,534.592,0.0841798,0.0,0.0
132,32.75,17.1217,18.0756,140.478,104.491,103.456,0.000295959,0.0449589,21.001,534.622,0.0899429,0.0,0.0
135,33.5,17.4512,17.9014,143.818,104.495,103.566,0.000363524,0.0449199,21.001,534.622,0.0806375,0.0,0.0
138,34.25,17.7008,18.1586,143.725,104.516,103.574,0.000445395,0.0448799,21.001,534.572,0.0817651,0.0,0.0
141,35,17.3103,18.3414,142.818,104.536,103.435,0.000511597,0.0448507,21.001,534.572,0.095614,0.0,0.0
144,35.75,17.4763,18.3461,140.582,104.536,103.541,0.000546581,0.0448488,21.001,534.562,0.0863102,0.0,0.0
147,36.5,17.2811,17.85,138.385,104.533,103.594,0.000571763,0.0448478,21.001,534.562,0.0814589,0.0,0.0
150,37.25,17.6099,18.1071,140.68,104.541,103.602,0.000568235,0.0449009,21.001,534.542,0.08146,0.0,0.0
153,38,17.5268,18.0881,144.509,104.544,103.477,0.000547912,0.0449699,21.0011,534.572,0.092659,0.0,0.0
156,38.75,17.8167,17.73,139.965,104.552,103.605,0.000524498,0.0450324,21.001,534.612,0.0822355,0.0,0.0
159,39.5,17.7102,18.1223,142.819,104.564,103.5,0.000505017,0.0451402,21.0009,534.602,0.0923639,0.0,0.0
162,40.25,17.7105,18.0968,140.443,104.567,103.717,0.000489788,0.0452467,21.0008,534.592,0.0736834,0.0,0.0
165,41,17.5911,17.9242,141.23,104.582,103.635,0.000463211,0.045491,21.0007,534.592,0.0821672,0.0,0.0
168,41.75,17.6868,17.7583,140.788,104.587,103.564,0.0004354,0.045778,21.0004,534.602,0.0887567,0.0,0.0
171,42.5,17.9295,18.0876,143.143,104.593,103.507,0.000408993,0.046085,20.9998,534.592,0.0942613,0.0,0.0
174,43.25,17.7978,18.0807,137.747,104.582,103.672,0.000385404,0.0464988,20.9994,534.612,0.0789272,0.0,0.0
177,44,18.0143,18.0751,139.916,104.609,103.634,0.000375082,0.0469744,20.9991,534.582,0.0845466,0.0,0.0
180,44.75,17.7981,18.2178,139.916,104.615,103.722,0.000372632,0.0474801,20.9988,534.562,0.0774365,0.0,0.0
183,45.5,17.4985,18.2467,143.483,104.621,103.52,0.000379524,0.0479649,20.9987,534.612,0.0955597,0.0,0.0
186,46.25,17.9623,17.722,141.774,104.615,103.573,0.000382829,0.0483319,20.9981,534.612,0.0903809,0.0,0.0
189,47,17.2855,18.4095,143.102,104.626,103.783,0.000385238,0.0486053,20.9975,534.582,0.073061,0.0,0.0
192,47.75,17.6114,17.6981,144.231,104.645,103.649,0.000362932,0.0489209,20.9971,534.582,0.0863358,0.0,0.0
195,48.5,17.2553,17.8713,146.054,104.659,103.747,0.000342824,0.0492189,20.9968,534.612,0.0790542,0.0,0.0
198,49.25,17.4834,18.0963,140.926,104.644,103.738,0.000321586,0.049465,20.9968,534.622,0.0785613,0.0,0.0
201,50,17.8868,18.2122,140.23,104.66,103.604,0.000312976,0.0496445,20.9968,534.562,0.091617,0.0,0.0
204,50.75,17.7844,18.2269,138.757,104.662,103.61,0.000309109,0.0497754,20.9968,534.562,0.0912302,0.0,0.0
207,51.5,17.5114,18.1151,138.711,104.66,103.604,0.000306049,0.0497555,20.9968,534.582,0.0915808,0.0,0.0
210,52.25,17.4444,17.986,143.245,104.669,103.472,0.00030165,0.0496052,20.9968,534.602,0.103905,0.0,0.0
213,53,17.8159,18.2219,140.394,104.669,103.45,0.00029157,0.0494163,20.9968,534.592,0.105757,0.0,0.0
216,53.75,17.3267,17.9822,142.147,104.683,103.46,0.000281052,0.0492419,20.9968,534.572,0.106097,0.0,0.0
219,54.5,17.8299,18.2922,145.584,104.681,103.533,0.000267965,0.0490566,20.9974,534.592,0.0995932,0.0,0.0
222,55.25,17.7178,18.4037,140.396,104.684,103.472,0.000264446,0.0488672,20.9978,534.562,0.105181,0.0,0.0
225,56,17.6518,18.032,144.725,104.684,103.425,0.000272692,0.048706,20.9982,534.572,0.109284,0.0,0.0
228,56.75,17.6068,18.3186,142.033,104.695,103.469,0.000292799,0.0485497,20.9984,534.562,0.106374,0.0,0.0
231,57.5,17.8194,18.3805,141.346,104.689,103.586,0.000350444,0.0484358,20.9986,534.522,0.0956161,0.0,0.0
234,58.25,18.0251,18.3307,139.336,104.699,103.654,0.000401356,0.048314,20.9987,534.582,0.0905908,0.0,0.0
237,59,18.1159,18.3577,141.773,104.677,103.402,0.000453671,0.0482253,20.9988,534.552,0.110631,0.0,0.0
240,59.75,17.9411,18.5264,142.296,104.704,103.309,0.000484824,0.0481334,20.9989,534.602,0.12106,0.0,0.0
243,60.5,17.7725,18.2546,142.719,104.697,103.456,0.000495591,0.0480548,20.9989,534.612,0.107624,0.0,0.0
246,61.25,17.5251,18.2003,138.267,104.697,103.525,0.000480601,0.0478426,20.9992,534.542,0.101712,0.0,0.0
249,62,17.6776,17.8921,142.261,104.697,103.455,0.000445556,0.0476879,20.9996,534.562,0.107783,0.0,0.0
252,62.75,17.8884,17.8397,140.993,104.712,103.336,0.000371352,0.0474259,21.0001,534.592,0.119488,0.0,0.0
255,63.5,17.985,18.1553,140.409,104.707,103.366,0.000290219,0.0471497,21.0004,534.582,0.116421,0.0,0.0
258,64.25,17.4577,18.174,137.796,104.713,103.41,0.000201818,0.0469118,21.0007,534.582,0.113035,0.0,0.0
261,65,17.8057,18.5539,140.24,104.708,103.329,0.000124384,0.0467616,21.0009,534.602,0.11974,0.0,0.0
264,65.75,17.238,18.1507,142.971,104.717,103.134,4.24558e-05,0.0465514,21.0015,534.592,0.137531,0.0,0.0
267,66.5,18.0678,18.381,137.66,104.724,103.187,1.05952e-05,0.0463789,21.0019,534.572,0.1335,0.0,0.0
270,67.25,17.9766,18.4023,141.262,104.728,103.405,-2.70263e-05,0.0462802,21.0024,534.512,0.114798,0.0,0.0
273,68,17.8398,18.7155,142.467,104.717,103.207,-5.44524e-05,0.0462555,21.0027,534.522,0.131189,0.0,0.0
276,68.75,18.0695,17.9129,142.683,104.727,103.269,-7.4446e-05,0.0463102,21.003,534.522,0.126558,0.0,0.0
279,69.5,17.7242,18.8281,144.625,104.736,103.184,-7.70128e-05,0.0463165,21.0031,534.532,0.134767,0.0,0.0
282,70.25,17.7154,18.2613,143.198,104.735,103.356,-7.38196e-05,0.0463023,21.0033,534.542,0.119724,0.0,0.0
285,71,18.3658,18.3962,145.096,104.721,103.037,-6.28315e-05,0.0462553,21.0034,534.532,0.146416,0.0,0.0
288,71.75,17.5996,18.4421,137.515,104.727,103.095,-6.85459e-05,0.0461996,21.0034,534.522,0.141745,0.0,0.0
291,72.5,18.2624,17.8868,143.583,104.737,102.818,-9.19566e-05,0.0461224,21.0035,534.522,0.166944,0.0,0.0
294,73.25,17.7638,18.0665,143.225,104.74,102.807,-0.000124191,0.0460854,21.0035,534.532,0.168231,0.0,0.0
297,74,18.2007,18.5702,141.818,104.743,102.948,-0.000159598,0.0460721,21.0036,534.512,0.156028,0.0,0.0
300,74.75,18.0299,18.1227,141.086,104.742,102.431,-0.00018351,0.046061,21.0036,534.512,0.201428,0.0,0.0
303,75.5,18.0469,18.3982,142.737,104.748,102.488,-0.000197695,0.0460406,21.0036,534.502,0.196966,0.0,0.0
306,76.25,18.0691,18.0904,140.31,104.749,102.089,-0.000182775,0.0459678,21.0036,534.512,0.23224,0.0,0.0
309,77,17.5771,18.45,143.716,104.751,101.925,-0.000144037,0.0459147,21.0036,534.512,0.246907,0.0,0.0
312,77.75,18.1686,18.4028,142.875,104.746,102.206,-8.65662e-05,0.045876,21.0036,534.502,0.221673,0.0,0.0
315,78.5,18.2192,18.4153,142.184,104.746,101.644,6.84274e-06,0.0458834,21.0034,534.502,0.27145,0.0,0.0
318,79.25,18.0876,18.4327,141.836,104.762,101.245,0.000107474,0.04595,21.0028,534.512,0.308323,0.0,0.0
321,80,18.1439,17.9949,144.812,104.77,100.794,0.000204224,0.0462695,21.0024,534.512,0.349283,0.0,0.0
324,80.75,18.363,18.3417,142.24,104.775,101.327,0.000291034,0.0466789,21.0015,534.512,0.302121,0.0,0.0
327,81.5,17.8398,18.115,141.574,104.78,99.1703,0.000371209,0.0470526,21.0009,534.512,0.496825,0.0,0.0
330,82.25,18.1647,18.3031,142.385,104.776,99.7006,0.000436858,0.0475769,21.0004,534.512,0.448336,0.0,0.0
333,83,17.5691,18.1075,139.102,104.77,101.186,0.000522144,0.0482691,21,534.482,0.314257,0.0,0.0
336,83.75,18.105,18.4273,141.92,104.778,99.1392,0.000600273,0.0489169,20.9995,534.462,0.49947,0.0,0.0
339,84.5,18.3203,18.4906,137.802,104.774,99.3485,0.000750355,0.0496338,20.9991,534.462,0.480142,0.0,0.0
342,85.25,18.1357,18.5096,146.24,104.802,99.6574,0.000944576,0.0501564,20.9979,534.402,0.454475,0.0,0.0
345,86,18.4369,18.4034,141.091,104.791,99.7302,0.00118883,0.0524988,20.9955,534.402,0.446965,0.0,0.0
348,86.75,18.1254,18.4508,144.459,104.8,101.481,0.00148063,0.0558728,20.9881,534.382,0.290615,0.0,1.0
351,87.5,18.1282,18.5888,139.771,104.795,100.94,0.00180672,0.0599954,20.9813,534.382,0.33846,0.0,1.0
354,88.25,18.209,18.6072,137.467,104.814,100.406,0.00209278,0.0646296,20.974,534.312,0.387884,0.0,1.0
357,89,18.6711,18.5358,138.418,104.824,100.193,0.00250371,0.0704424,20.9661,534.302,0.408011,0.0,1.0
360,89.75,18.4953,18.8525,137.123,104.83,100.01,0.00285367,0.0756476,20.9592,534.262,0.424977,0.0,1.0
363,90.5,18.6731,18.512,141.039,104.828,100.172,0.00323054,0.0810969,20.9505,534.221,0.410209,0.0,1.0
366,91.25,18.9995,19.1849,139.908,104.84,99.1858,0.00356616,0.0868606,20.941,534.181,0.500619,0.0,1.0
369,92,18.0963,18.455,138.622,104.851,100.082,0.00388287,0.091826,20.9315,534.131,0.420267,0.0,1.0
372,92.75,18.9381,18.8864,136.293,104.843,99.663,0.00415692,0.0979326,20.9227,534.031,0.457531,0.0,1.0
375,93.5,18.8639,19.5322,136.68,104.845,99.5704,0.0043099,0.103392,20.9174,534.071,0.466108,0.0,1.0
378,94.25,18.8772,18.8377,135.218,104.856,99.5158,0.00454827,0.108238,20.91,533.981,0.471966,0.0,1.0
381,95,19.3964,19.3114,136.229,104.86,99.5342,0.00476371,0.112515,20.904,533.981,0.470666,0.0,1.0
384,95.75,19.6031,19.5713,134.516,104.864,98.9784,0.00499201,0.116818,20.8984,533.981,0.521588,0.0,0.0
387,96.5,19.3491,19.3962,135.972,104.879,98.1965,0.00524858,0.119961,20.8934,533.851,0.594476,0.0,0.0
390,97.25,19.5775,19.456,137.43,104.881,98.9234,0.00546763,0.123593,20.8882,533.801,0.528026,0.0,0.0
393,98,19.9969,19.5627,137.878,104.888,97.3976,0.00568205,0.127995,20.8831,533.791,0.669034,0.0,0.0
396,98.75,19.6837,20.224,138.658,104.901,98.2515,0.00588268,0.132226,20.8777,533.751,0.591275,0.0,0.0
399,99.5,20.6177,19.8181,138.002,104.91,97.6835,0.00604635,0.135746,20.873,533.691,0.644425,0.0,0.0
402,100.25,20.7449,20.0621,137.592,104.917,97.8857,0.00617308,0.139794,20.8671,533.661,0.626337,0.0,0.0
405,101,20.6987,20.2345,135.242,104.912,97.5472,0.00628144,0.143416,20.8619,533.601,0.657256,0.0,0.0
408,101.75,20.6407,20.6149,131.876,104.916,97.6708,0.00636043,0.146597,20.8578,533.531,0.646144,0.0,0.0
411,102.5,21.0096,20.8974,135.873,104.913,97.5853,0.00643932,0.149354,20.8548,533.491,0.653804,0.0,0.0
414,103.25,20.9848,21.2986,134.392,104.923,98.9253,0.00650803,0.151707,20.8526,533.391,0.531528,0.0,0.0
417,104,21.0655,21.111,136.022,104.945,98.023,0.00655294,0.153569,20.851,533.401,0.616081,0.0,0.0
420,104.75,21.3645,21.0735,135.597,104.936,97.1936,0.00658143,0.15511,20.8498,533.321,0.69208,0.0,0.0
423,105.5,21.4266,21.6266,134.874,104.939,98.5839,0.00656489,0.156196,20.8489,533.261,0.56412,0.0,0.0
426,106.25,21.6352,21.47,135.973,104.948,98.9841,0.00648904,0.156923,20.8512,533.211,0.52831,0.0,0.0
429,107,22.1442,21.6154,135.858,104.96,98.3564,0.0063523,0.15733,20.8533,533.131,0.586769,0.0,0.0
432,107.75,22.0759,21.8789,137.899,104.972,99.1482,0.00621869,0.157627,20.855,533.031,0.515352,0.0,0.0
435,108.5,22.3881,21.9943,131.744,104.974,99.5544,0.00606329,0.157273,20.8582,533.031,0.478613,0.0,0.0
438,109.25,22.632,22.2776,139.142,104.967,99.4147,0.00589925,0.156514,20.8611,532.94,0.49067,0.0,0.0
441,110,22.6715,22.5928,136.999,104.988,99.3696,0.00575804,0.155748,20.8645,532.88,0.496587,0.0,0.0
444,110.75,22.6395,22.4926,135.366,104.989,98.4542,0.00562512,0.154335,20.8682,532.8,0.580303,0.0,0.0
447,111.5,22.966,23.0765,136.761,104.997,99.1326,0.00550728,0.152952,20.8719,532.74,0.518982,0.0,0.0
450,112.25,23.2993,22.6741,136.234,104.994,98.5106,0.0054014,0.151342,20.8752,532.69,0.575493,0.0,0.0
453,113,22.9685,23.0063,136.038,105.02,98.8994,0.00530532,0.149572,20.8782,532.67,0.54221,0.0,0.0
456,113.75,23.7106,23.2566,136.904,105.02,100.115,0.00520534,0.147727,20.8813,532.58,0.431919,0.0,0.0
459,114.5,23.279,23.5318,138.65,105.03,98.7386,0.00510409,0.145871,20.8841,532.56,0.55774,0.0,0.0
462,115.25,23.5193,23.359,134.797,105.031,99.8201,0.00501819,0.14383,20.8866,532.51,0.459492,0.0,0.0
465,116,23.3893,23.2153,136.035,105.038,98.5882,0.00493091,0.14206,20.8884,532.46,0.572237,0.0,0.0
468,116.75,23.5279,23.6838,135.173,105.045,98.3361,0.00485029,0.140522,20.8897,532.39,0.595892,0.0,0.0
471,117.5,23.1884,23.3367,137.346,105.058,98.1499,0.00478043,0.139185,20.8907,532.32,0.614167,0.0,0.0
474,118.25,23.2906,23.5932,137.996,105.046,98.7725,0.00471349,0.137941,20.8914,532.25,0.556024,0.0,0.0
477,119,24.0711,23.3949,141.771,105.074,98.9615,0.00465333,0.13692,20.8919,532.22,0.541196,0.0,0.0
480,119.75,23.6013,23.7208,136.742,105.068,97.8523,0.00460172,0.136156,20.8922,532.18,0.642425,0.0,0.0
483,120.5,23.5244,23.5486,140.754,105.079,97.7291,0.00456058,0.135651,20.8925,532.1,0.654744,0.0,0.0
486,121.25,23.5627,23.9485,135.876,105.085,98.5416,0.00454168,0.135372,20.8925,532.08,0.580532,0.0,0.0
489,122,24.2696,24.3286,138.478,105.084,97.8942,0.00453261,0.135511,20.8921,532.02,0.639908,0.0,0.0
492,122.75,23.9572,24.0177,138.032,105.098,98.3761,0.0045605,0.135867,20.8918,531.96,0.596798,0.0,0.0
495,123.5,23.8724,24.4124,135.232,105.104,98.1814,0.00461306,0.136235,20.8915,531.91,0.615227,0.0,0.0
498,124.25,23.6775,24.0632,136.427,105.113,97.5081,0.00468133,0.136907,20.8908,531.88,0.678124,0.0,0.0
501,125,23.6154,24.3384,138.751,105.113,96.9773,0.00476071,0.137583,20.8897,531.79,0.727416,0.0,0.0
504,125.75,23.8064,24.3417,137.148,105.119,96.8019,0.00483901,0.138395,20.8882,531.769,0.744304,0.0,0.0
507,126.5,24.1832,24.1529,138.484,105.133,97.8321,0.00490943,0.13944,20.8858,531.729,0.649845,0.0,0.0
510,127.25,24.2986,25.1375,137.982,105.144,96.9721,0.00496604,0.140673,20.8841,531.679,0.730547,0.0,0.0
513,128,23.5156,23.558,135.995,105.136,98.4523,0.00500731,0.142044,20.8816,531.619,0.593112,0.0,0.0
516,128.75,24.0988,24.0988,142.271,105.152,96.7845,0.0050547,0.144445,20.8791,531.559,0.748758,0.0,0.0
519,129.5,23.8002,24.2009,133.751,105.149,99.5323,0.00509661,0.14748,20.8763,531.529,0.495686,0.0,0.0
522,130.25,23.4928,24.335,138.203,105.163,98.5247,0.00515065,0.150241,20.8724,531.479,0.588759,0.0,0.0
525,131,24.0955,24.2603,135.594,105.161,98.9921,0.00520006,0.154608,20.8689,531.409,0.545883,0.0,0.0
528,131.75,24.4789,24.3882,132.427,105.178,97.6012,0.00525186,0.158796,20.8632,531.349,0.675096,0.0,0.0
531,132.5,23.9714,24.4505,135.906,105.191,98.1382,0.00528962,0.163873,20.8561,531.269,0.626644,0.0,0.0
534,133.25,24.0125,24.5037,129.044,105.192,97.7,0.00530602,0.168437,20.8465,531.209,0.667126,0.0,0.0
537,134,24.2524,24.5955,139.721,105.183,97.2665,0.00530542,0.174004,20.8371,531.159,0.706555,0.0,0.0
540,134.75,25.2422,24.5321,138.556,105.19,97.7089,0.00529164,0.178831,20.8272,531.159,0.666119,0.0,0.0
543,135.5,24.4919,24.6324,131.276,105.211,96.7319,0.00528335,0.183667,20.8187,531.029,0.758678,0.0,0.0
546,136.25,24.926,25.5588,134.852,105.203,96.8635,0.00527731,0.188845,20.8119,530.999,0.745707,0.0,0.0
549,137,25.3711,25.587,134.555,105.205,97.4757,0.00534523,0.193871,20.8043,530.939,0.689002,0.0,0.0
552,137.75,25.7442,25.5434,131.601,105.21,96.2236,0.0054604,0.198747,20.7968,530.859,0.806175,0.0,0.0
555,138.5,26.0134,25.7719,132.461,105.212,96.233,0.00557235,0.203459,20.7897,530.829,0.805474,0.0,0.0
558,139.25,25.7335,26.47,133.828,105.217,96.1065,0.00574776,0.208567,20.7832,530.729,0.817748,0.0,0.0
561,140,26.2114,25.8552,133.723,105.218,95.5131,0.00592908,0.212935,20.777,530.619,0.873779,0.0,0.0
564,140.75,26.6876,26.2879,131.894,105.217,96.035,0.00610894,0.217219,20.771,530.569,0.824502,0.0,0.0
567,141.5,26.8802,26.3191,133.728,105.235,96.1371,0.0062307,0.221944,20.7669,530.518,0.816436,0.0,0.0
570,142.25,26.562,26.5741,132.772,105.231,95.2028,0.00646405,0.226013,20.7586,530.468,0.904287,0.0,0.0
573,143,26.6983,26.5113,134.647,105.238,95.3975,0.00657318,0.230048,20.7544,530.378,0.886461,0.0,0.0
576,143.75,27.1586,26.9943,130.084,105.247,95.6373,0.00674916,0.234344,20.749,530.298,0.864517,0.0,0.0
579,144.5,27.1017,26.6223,133.667,105.243,94.7227,0.00690794,0.23654,20.7443,530.238,0.950949,0.0,0.0
582,145.25,27.7024,27.4206,131.528,105.247,93.2431,0.00703942,0.242639,20.7365,530.168,1.09344,0.0,0.0
585,146,27.2904,27.6732,130.622,105.234,93.4946,0.00715666,0.245627,20.7287,530.108,1.06806,0.0,0.0
588,146.75,27.6342,27.5453,133.671,105.236,93.7814,0.00725963,0.250077,20.7215,530.038,1.04055,0.0,0.0
591,147.5,28.5824,27.8022,131.832,105.246,93.5021,0.00735729,0.254259,20.7156,529.958,1.06831,0.0,0.0
594,148.25,28.3107,28.5486,130.08,105.25,94.0673,0.00745438,0.25743,20.7112,529.878,1.01426,0.0,0.0
597,149,28.2821,28.4598,130.476,105.256,94.9729,0.00757694,0.259793,20.7078,529.778,0.928259,0.0,0.0
600,149.75,28.4423,28.3083,131.196,105.248,93.9991,0.00766628,0.261495,20.7049,529.688,1.02063,0.0,0.0
603,150.5,29.0733,28.5647,133.207,105.263,94.5746,0.00782797,0.26272,20.7029,529.598,0.966818,0.0,0.0
606,151.25,28.6271,29.0499,129.854,105.25,94.7213,0.00802979,0.263637,20.7013,529.548,0.951736,0.0,0.0
609,152,28.5552,29.1947,130.148,105.26,94.9019,0.00815786,0.264318,20.7002,529.478,0.935338,0.0,0.0
612,152.75,29.2718,29.1484,132.876,105.273,95.2484,0.00837634,0.264754,20.7006,529.408,0.903587,0.0,0.0
615,153.5,29.3304,28.8956,130.733,105.268,96.4639,0.00857871,0.265046,20.7008,529.318,0.788623,0.0,0.0
618,154.25,29.2992,29.2901,130.719,105.28,95.6279,0.00872499,0.265258,20.701,529.258,0.868232,0.0,0.0
621,155,29.7207,29.5628,129.355,105.284,96.383,0.00881783,0.265108,20.7011,529.147,0.797574,0.0,0.0
624,155.75,29.3627,30.0394,130.647,105.277,97.0798,0.00886283,0.264732,20.7025,529.107,0.731949,0.0,0.0
627,156.5,29.8326,29.9709,130.783,105.277,96.7098,0.00882745,0.264005,20.7048,528.997,0.766468,0.0,0.0
630,157.25,30.3269,29.8971,130.703,105.295,96.2147,0.00880165,0.262691,20.707,528.957,0.814299,0.0,0.0
633,158,30.6862,29.9739,132.848,105.285,96.887,0.00866638,0.260822,20.7099,528.857,0.75055,0.0,0.0
636,158.75,30.7481,30.712,128.35,105.279,97.4268,0.00851636,0.258685,20.7133,528.797,0.699912,0.0,0.0
639,159.5,30.965,30.8087,131.772,105.275,98.1843,0.00838507,0.256797,20.7169,528.737,0.629655,0.0,0.0
642,160.25,30.9046,31.1073,129.935,105.292,99.1872,0.00821434,0.254038,20.7205,528.627,0.539305,0.0,0.0
645,161,30.5724,30.9314,130.151,105.291,99.1185,0.008031,0.251432,20.7252,528.587,0.545447,0.0,0.0
648,161.75,30.2742,30.7038,131.227,105.294,99.3804,0.00787565,0.248514,20.7302,528.527,0.521947,0.0,0.0
651,162.5,31.3574,31.5256,130.192,105.278,98.7118,0.00777023,0.244864,20.7339,528.447,0.581523,0.0,0.0
654,163.25,31.3021,31.3937,136.267,105.307,99.3701,0.00760226,0.241566,20.7391,528.357,0.52401,0.0,0.0
657,164,31.7115,31.9051,132.459,105.293,100.127,0.00746012,0.23807,20.7445,528.317,0.454252,0.0,0.0
660,164.75,31.7339,31.7354,131.751,105.288,100.484,0.0072623,0.234308,20.7497,528.247,0.421728,0.0,0.0
663,165.5,31.3152,31.8135,133.292,105.289,100.085,0.00708573,0.231807,20.7547,528.197,0.457664,0.0,0.0
666,166.25,31.4111,31.5643,136.776,105.296,100.482,0.00693273,0.228173,20.7596,528.147,0.422513,0.0,0.0
669,167,31.2152,31.6086,133.071,105.303,99.5535,0.00680329,0.224369,20.765,528.127,0.506964,0.0,0.0
672,167.75,31.8265,32.2406,132.841,105.309,100.264,0.00669297,0.221103,20.7716,528.037,0.443262,0.0,0.0
675,168.5,31.8124,32.2101,132.514,105.302,99.7575,0.00660385,0.216912,20.7781,527.977,0.488366,0.0,0.0
678,169.25,31.5434,32.2622,136.045,105.307,100.334,0.00652993,0.21274,20.7841,527.947,0.436846,0.0,0.0
681,170,31.4923,31.9951,137.412,105.315,100.891,0.00646711,0.208139,20.7903,527.896,0.3875,0.0,0.0
684,170.75,31.2868,31.9953,130.004,105.306,100.523,0.0064213,0.203807,20.7966,527.826,0.419707,0.0,0.0
687,171.5,31.615,32.4538,135.033,105.304,99.7961,0.00634569,0.19977,20.8019,527.806,0.485058,0.0,0.0
690,172.25,31.7085,31.3062,132.825,105.303,100.508,0.0062569,0.195146,20.8077,527.766,0.420806,0.0,0.0
693,173,31.7071,31.9427,130.392,105.309,100.077,0.00616538,0.191775,20.8119,527.706,0.460167,0.0,0.0
696,173.75,31.6658,32.9558,131.987,105.305,100.081,0.00609866,0.18723,20.8159,527.646,0.459424,0.0,0.0
699,174.5,31.7605,31.849,134.915,105.311,99.6287,0.00599875,0.18334,20.8203,527.586,0.500831,0.0,0.0
702,175.25,31.5206,32.616,132.029,105.305,101.111,0.00591744,0.179518,20.8237,527.556,0.366917,0.0,0.0
705,176,31.5016,31.9414,135.982,105.312,100.664,0.00584367,0.175738,20.8274,527.536,0.407595,0.0,0.0
708,176.75,31.3319,31.8962,133.174,105.314,101.332,0.00577224,0.17256,20.8307,527.526,0.348043,0.0,0.0
711,177.5,31.4124,32.1448,140.494,105.317,101.652,0.0057143,0.169512,20.8362,527.456,0.319846,0.0,0.0
714,178.25,31.6776,32.2178,134.102,105.313,100.359,0.00566203,0.166038,20.8409,527.426,0.435111,0.0,0.0
717,179,31.5232,31.7903,137.97,105.322,101.317,0.00561677,0.162635,20.8456,527.406,0.35003,0.0,0.0
720,179.75,31.1229,32.1107,138.005,105.329,101.207,0.00557152,0.15937,20.8502,527.346,0.360462,0.0,0.0
723,180.5,31.3198,31.8826,139.269,105.317,100.648,0.00550678,0.156285,20.8542,527.296,0.409458,0.0,0.0
726,181.25,30.9878,32.1601,136.848,105.329,100.576,0.00544332,0.153168,20.8583,527.246,0.416971,0.0,0.0
729,182,30.9946,32.3247,138.653,105.32,100.444,0.00536925,0.150527,20.8626,527.206,0.428037,0.0,0.0
732,182.75,30.608,32.399,135.422,105.317,100.227,0.00527474,0.148183,20.8661,527.186,0.447333,0.0,0.0
735,183.5,30.9873,32.0833,136.412,105.317,101.126,0.00518835,0.14576,20.8689,527.176,0.366666,0.0,0.0
738,184.25,30.7834,32.0808,134.655,105.317,100.405,0.00509544,0.143287,20.8721,527.146,0.431213,0.0,0.0
741,185,30.597,31.9394,136.219,105.323,100.925,0.00500836,0.141261,20.8748,527.106,0.385159,0.0,0.0
744,185.75,30.0798,31.7288,136.413,105.325,100.341,0.00494488,0.139403,20.8768,527.076,0.437655,0.0,0.0
747,186.5,30.664,31.7227,137.623,105.326,100.276,0.00493027,0.137544,20.8783,527.046,0.443611,0.0,0.0
750,187.25,30.9739,31.9243,137.573,105.326,100.171,0.0049517,0.136055,20.8796,527.006,0.453056,0.0,0.0
753,188,29.9082,31.3789,132.252,105.319,99.5323,0.00499531,0.13474,20.881,526.966,0.510259,0.0,0.0
756,188.75,30.26,31.6495,137.52,105.335,99.293,0.00505156,0.1335,20.882,526.966,0.533373,0.0,0.0
759,189.5,29.9933,31.2114,137.993,105.32,99.6367,0.00510137,0.13247,20.8831,526.906,0.500868,0.0,0.0
762,190.25,29.6959,31.326,135.812,105.331,99.6202,0.0051241,0.131503,20.8842,526.936,0.503302,0.0,0.0
765,191,29.8485,31.5418,136.652,105.329,99.5666,0.00513487,0.1307,20.8849,526.916,0.508052,0.0,0.0
768,191.75,29.565,31.4029,132.422,105.34,98.7913,0.00510749,0.130102,20.8855,526.876,0.579511,0.0,0.0
771,192.5,29.6264,30.3342,140.656,105.327,98.5134,0.00508754,0.129717,20.8859,526.846,0.603894,0.0,0.0
774,193.25,29.9669,31.2261,136.761,105.323,97.7931,0.00503602,0.129436,20.8862,526.796,0.66976,0.0,0.0
777,194,29.4141,31.3226,138.366,105.326,99.529,0.00499847,0.129312,20.8864,526.746,0.511175,0.0,0.0
780,194.75,29.513,30.8296,134.007,105.334,97.9835,0.00497109,0.129221,20.8859,526.736,0.653174,0.0,0.0
783,195.5,29.6711,31.2085,134.867,105.336,96.6087,0.00496521,0.129618,20.8843,526.716,0.780948,0.0,0.0
786,196.25,29.0518,30.5297,137.017,105.331,98.4227,0.00497149,0.130122,20.8832,526.696,0.612505,0.0,0.0
789,197,29.3506,31.3886,136.118,105.331,96.7986,0.00497607,0.130857,20.8819,526.696,0.76274,0.0,0.0
792,197.75,29.3238,30.8209,139.391,105.332,96.958,0.00496829,0.131719,20.8803,526.625,0.747955,0.0,0.0
795,198.5,29.2785,30.9727,137.755,105.32,97.0568,0.00495049,0.132611,20.8784,526.625,0.737751,0.0,0.0
798,199.25,29.4647,30.8356,135.35,105.319,98.4151,0.00493436,0.133478,20.8771,526.585,0.612217,0.0,0.0
801,200,28.539,30.7915,138.992,105.324,95.4741,0.00493864,0.134289,20.8758,526.565,0.886528,0.0,0.0
804,200.75,28.9895,30.4163,135.787,105.348,96.6044,0.00495639,0.135185,20.8745,526.535,0.782356,0.0,0.0
807,201.5,29.295,31.0222,136.073,105.328,97.2444,0.00498267,0.136162,20.873,526.515,0.721002,0.0,0.0
810,202.25,29.0406,30.9439,136.064,105.331,95.5517,0.00501911,0.136963,20.8711,526.445,0.879811,0.0,0.0
813,203,28.8016,30.2275,136.413,105.324,95.5042,0.0050628,0.1377,20.8702,526.425,0.883719,0.0,0.0
816,203.75,28.7005,30.609,134.014,105.329,97.3619,0.00511133,0.138379,20.8692,526.405,0.710167,0.0,0.0
819,204.5,29.105,30.8791,136.251,105.337,95.9518,0.0051714,0.138956,20.868,526.415,0.842585,0.0,0.0
822,205.25,28.8908,31.0872,142.483,105.337,96.6105,0.00523621,0.139517,20.8668,526.365,0.780807,0.0,0.0
825,206,29.2596,30.67,135.829,105.324,96.1944,0.00529242,0.14025,20.8654,526.375,0.818695,0.0,0.0
828,206.75,28.5854,30.3454,136.145,105.331,95.855,0.00535815,0.141025,20.8643,526.355,0.851197,0.0,0.0
831,207.5,27.8744,30.0683,137.349,105.326,94.8845,0.00539914,0.141693,20.8634,526.295,0.942718,0.0,0.0
834,208.25,28.2709,30.1306,138.748,105.33,95.2667,0.00545533,0.142768,20.8619,526.255,0.90674,0.0,0.0
837,209,28.5454,30.2062,138.957,105.323,95.6683,0.0054901,0.143693,20.8607,526.225,0.868146,0.0,0.0
840,209.75,28.3283,30.0357,134.155,105.334,95.6302,0.00550662,0.144611,20.8598,526.205,0.872646,0.0,0.0
843,210.5,28.2006,30.4903,137.836,105.334,97.0831,0.00551602,0.145407,20.8572,526.165,0.736533,0.0,0.0
846,211.25,28.6362,30.2908,134.094,105.326,94.7839,0.00552464,0.146552,20.8541,526.175,0.952226,0.0,0.0
849,212,28.9392,30.5197,136.761,105.329,95.7059,0.00554455,0.147772,20.8517,526.135,0.865103,0.0,0.0
852,212.75,28.7606,30.2167,133.321,105.324,95.2291,0.00556486,0.14921,20.8494,526.085,0.909762,0.0,0.0
855,213.5,28.5829,30.4961,138.179,105.332,95.1614,0.0056156,0.150744,20.8474,526.075,0.916873,0.0,0.0
858,214.25,27.8764,30.0567,134.537,105.329,93.6634,0.00568356,0.152333,20.8451,526.055,1.05993,0.0,0.0
861,215,28.5652,30.4527,135.776,105.315,94.1778,0.00575988,0.153942,20.843,526.015,1.00924,0.0,0.0
864,215.75,28.2519,30.6408,135.951,105.331,94.3231,0.005854,0.155416,20.8406,525.955,0.996664,0.0,0.0
867,216.5,28.4887,30.3732,136.911,105.334,94.0292,0.005939,0.157007,20.8377,525.945,1.02513,0.0,0.0
870,217.25,28.7935,30.4569,137.482,105.333,93.6122,0.00604704,0.158496,20.8355,525.925,1.06516,0.0,0.0
873,218,28.9818,29.8965,140.147,105.326,94.4641,0.00615315,0.160018,20.8335,525.885,0.982735,0.0,0.0
876,218.75,28.7126,29.976,140.077,105.32,93.2191,0.00624216,0.161631,20.8312,525.885,1.10203,0.0,0.0
879,219.5,28.482,30.4433,136.759,105.328,93.1434,0.00631237,0.16344,20.8296,525.865,1.11009,0.0,0.0
882,220.25,29.0483,30.3162,133.762,105.335,92.984,0.00636355,0.165181,20.8272,525.825,1.1261,0.0,0.0
885,221,28.5055,30.1391,130.573,105.318,92.3765,0.00638221,0.166709,20.825,525.795,1.18387,0.0,0.0
888,221.75,28.9705,30.3406,138.656,105.327,93.8726,0.00638786,0.168069,20.8229,525.785,1.03956,0.0,0.0
891,222.5,29.0749,31.1225,133.623,105.332,92.7931,0.00638844,0.169164,20.8208,525.795,1.1444,0.0,0.0
894,223.25,28.1651,30.6392,133.418,105.324,92.2773,0.0063814,0.170214,20.819,525.745,1.19412,0.0,0.0
897,224,28.6698,30.0433,135.08,105.329,92.9943,0.00636394,0.171407,20.8173,525.675,1.12459,0.0,0.0
900,224.75,28.8599,30.0615,135.531,105.316,89.8953,0.00633555,0.17248,20.8148,525.645,1.4295,0.0,0.0
903,225.5,28.8106,30.1554,135.272,105.331,93.0155,0.00629714,0.173356,20.813,525.635,1.12275,0.0,0.0
906,226.25,28.6616,30.6633,133.377,105.321,93.6959,0.00627303,0.174008,20.8117,525.625,1.05604,0.0,0.0
909,227,28.5726,30.1925,131.71,105.32,92.2322,0.0062621,0.174685,20.8107,525.585,1.19817,0.0,0.0
912,227.75,28.9014,30.632,133.291,105.316,92.2999,0.00627774,0.175685,20.8094,525.575,1.19118,0.0,0.0
915,228.5,28.6958,30.7197,133.488,105.32,91.2598,0.00631099,0.176593,20.8074,525.525,1.29383,0.0,0.0
918,229.25,29.2563,30.5299,136.609,105.318,92.9262,0.00635536,0.178064,20.8055,525.485,1.13027,0.0,0.0
921,230,29.203,30.6341,135.963,105.323,91.9797,0.00640637,0.179357,20.804,525.455,1.22314,0.0,0.0
924,230.75,29.4844,31.1152,134.666,105.319,91.3454,0.00645412,0.180679,20.8028,525.445,1.28533,0.0,0.0
927,231.5,28.9742,30.7471,130.825,105.315,89.8685,0.00649342,0.181905,20.8007,525.404,1.43215,0.0,0.0
930,232.25,29.1766,30.515,133.919,105.32,92.195,0.00651142,0.182963,20.7992,525.365,1.20181,0.0,0.0
933,233,28.8971,30.8804,133.313,105.317,91.8974,0.00651407,0.183827,20.7985,525.344,1.23072,0.0,0.0
936,233.75,29.216,30.9734,136.746,105.302,92.4762,0.00650873,0.184685,20.7976,525.334,1.17279,0.0,0.0
939,234.5,29.3069,31.0116,136.368,105.317,92.9337,0.00650418,0.18563,20.7969,525.294,1.12946,0.0,0.0
942,235.25,29.3854,31.2597,134.549,105.293,90.1629,0.00649975,0.186525,20.7958,525.284,1.40071,0.0,0.0
945,236,29.1711,30.7557,137.327,105.301,92.5585,0.00650893,0.187066,20.795,525.224,1.16465,0.0,0.0
948,236.75,29.3867,31.1949,134.675,105.307,90.6589,,0.187751,,525.184,1.35243,0.0,0.0
951,237.5,29.6133,30.9241,134.075,105.305,92.5298,,0.188356,,525.134,1.16774,0.0,0.0
954,238.25,29.5252,31.0581,133.876,105.305,88.5934,,0.189088,,525.134,1.56028,0.0,0.0
957,239,29.5415,31.0311,138.514,105.309,90.8954,,0.189747,,525.094,1.32905,0.0,0.0
960,239.75,29.9534,31.2607,133.085,105.306,90.4577,,,,525.084,1.37235,0.0,0.0
963,240.5,29.4185,31.219,135.195,105.287,92.6422,,,,525.014,1.1553,0.0,0.0
966,241.25,29.387,31.6621,132.417,105.305,90.6208,,,,524.984,1.35601,0.0,0.0
969,242,30.0698,31.3574,132.237,105.303,92.1259,,,,524.964,1.20713,0.0,0.0
972,242.75,29.5117,31.2627,132.501,105.289,91.5809,,,,524.974,1.25947,0.0,0.0
975,243.5,29.7088,31.6063,134.333,105.275,91.8062,,,,524.944,1.23613,0.0,0.0
978,244.25,30.4328,31.0023,142.633,105.298,93.9855,,,,524.944,1.02625,0.0,0.0
981,245,29.7164,31.659,132.427,105.283,91.2274,,,,524.874,1.29393,0.0,0.0
984,245.75,29.7368,31.4886,132.274,105.283,92.645,,,,524.844,1.15466,0.0,0.0
987,246.5,30.4122,31.6289,134.265,105.278,93.7584,,,,524.824,1.04639,0.0,0.0
989,247,29.9654,31.7919,135.436,105.283,94.0433,,,,524.784,1.01939,0.0,0.0