File: 01_Data/Vinyl_Tile/Cone/Vinyl_Tile_Cone_HF25Scan_220405_R2.csv
Names,Time,Stack TC,Smoke TC,Exh Press,Smoke Comp,Smoke Meas,CO Meter,CO2 Meter,O2 Meter,Sample Mass,Ext Coeff,Start Test,Flame Verif
Chan Gain,,500,500,1,1,1,1,1,1,1,1,1.0,1.0
Offset,,0,0,0.132686,0,0,0,0,0,0,0,0.0,0.0
Gain,,1,1,25.011,13.1151,13.9355,1,1,1,1.00092,1.01752,1.0,1.0
Units,sec,C,C,Pa,%,%,%,%,%,g,/m,,
Baseline,,18.7451,19.2229,160.945,98.4564,98.3237,0.000769371,0.0696658,21.0041,-833.785,0.0120638,,
4,0.75,18.1081,18.2282,159.681,98.4786,98.2357,0.000750846,0.0702124,21.0045,191.496,0.0220425,0.0,0.0
8,1.75,18.1603,18.1223,160.768,98.4706,97.7245,0.000770298,0.070362,21.0045,191.446,0.0678837,0.0,0.0
12,2.75,18.097,18.4283,166.402,98.4662,98.6742,0.000775934,0.0704924,21.0045,191.426,-0.0188316,0.0,0.0
16,3.75,17.8211,18.2512,158.613,98.483,98.4879,0.000761183,0.0706599,21.0045,191.416,-0.00044264,0.0,0.0
20,4.75,17.7063,18.2398,160.142,98.4806,98.5011,0.000717595,0.0708403,21.0045,191.426,-0.00185477,0.0,0.0
24,5.75,18.3417,18.5012,164.549,98.481,98.4781,0.000679417,0.0708841,21.0045,191.436,0.000261743,0.0,0.0
28,6.75,17.9819,18.5198,159.706,98.4814,98.7048,0.000672998,0.0709128,21.0045,191.436,-0.0202221,0.0,0.0
32,7.75,17.9935,18.2245,160.17,98.493,98.3548,0.000686906,0.0708924,21.0045,191.436,0.0125348,0.0,0.0
36,8.75,18.1078,19.1498,160.126,98.4818,98.1285,0.000694467,0.0708822,21.0045,191.426,0.0320755,0.0,0.0
40,9.75,17.6626,18.4453,164.69,98.4842,98.4973,0.000661689,0.0708867,21.0043,191.416,-0.00118166,0.0,0.0
44,10.75,18.6,18.8005,157.653,98.479,98.1532,0.00059137,0.0708758,21.0035,191.386,0.0295784,0.0,0.0
48,11.75,18.4395,18.9787,162.757,98.4758,98.3752,0.000525334,0.0708648,21.0031,191.486,0.00912349,0.0,0.0
52,12.75,18.5264,19.1066,164.34,98.4762,98.1464,0.000466961,0.0708753,21.0028,191.426,0.0299432,0.0,0.0
56,13.75,18.0302,18.4132,159.153,98.4882,98.3778,0.0004237,0.070907,21.0025,191.436,0.0100163,0.0,0.0
60,14.75,18.4295,19.0569,161.071,98.4734,98.5844,0.000398437,0.0709278,21.0024,191.436,-0.0100579,0.0,0.0
64,15.75,18.1638,18.9127,164.232,98.4794,98.897,0.000410474,0.0711179,21.0023,191.436,-0.0377698,0.0,0.0
68,16.75,17.9446,18.5735,160.728,98.4898,98.1957,0.000453077,0.0717218,21.0018,191.446,0.0266912,0.0,0.0
72,17.75,18.7898,19.0464,159.78,98.4714,98.3829,0.000511201,0.0727296,21.0007,191.436,0.00802968,0.0,0.0
76,18.75,17.8187,18.261,158.942,98.4734,98.4688,0.000568336,0.0739664,20.9994,191.446,0.000421339,0.0,0.0
80,19.75,18.1214,18.4678,166.589,98.4838,97.9559,0.000630073,0.0752023,20.9979,191.436,0.0479748,0.0,0.0
84,20.75,18.4492,18.9458,157.368,98.493,98.6823,0.000691183,0.0763626,20.9968,191.436,-0.0171321,0.0,0.0
88,21.75,18.1542,18.5371,164.1,98.4858,98.4313,0.000740392,0.0772237,20.9954,191.426,0.00493884,0.0,0.0
92,22.75,18.0401,18.4808,160.067,98.4818,98.2446,0.000773665,0.0776903,20.9945,191.426,0.0215213,0.0,0.0
96,23.75,17.7615,18.7097,162.391,98.4842,98.3769,0.000793058,0.0777953,20.994,191.436,0.00973147,0.0,0.0
100,24.75,17.5327,18.2424,160.427,98.497,98.1524,0.000803808,0.0776676,20.994,191.436,0.0312888,0.0,0.0
104,25.75,18.0398,18.4957,162.947,98.4974,98.4211,0.000833002,0.0775309,20.9949,191.426,0.00691659,0.0,0.0
108,26.75,18.0024,18.3914,158.048,98.4918,98.3901,0.000863111,0.0768676,20.9962,191.426,0.00922447,0.0,0.0
112,27.75,17.6273,18.1227,158.024,98.499,98.5215,0.000893621,0.0760986,20.9979,191.436,-0.00203569,0.0,0.0
116,28.75,18.1641,18.7308,166.69,98.4846,98.2502,0.000918335,0.0753391,20.999,191.426,0.021273,0.0,0.0
120,29.75,17.9395,18.3407,162.903,98.4946,97.8177,0.000927927,0.0746244,20.9998,191.426,0.0615585,0.0,0.0
124,30.75,18.3048,18.3898,162.285,98.4914,98.8269,0.000926904,0.0740336,21.0002,191.426,-0.0303455,0.0,0.0
128,31.75,18.4506,18.56,159.815,98.4958,98.7558,0.000917869,0.0734501,21.0006,191.426,-0.0235302,0.0,0.0
132,32.75,17.992,18.9917,161.816,98.515,98.174,0.000896557,0.0729448,21.001,191.426,0.0309473,0.0,0.0
136,33.75,18.7041,18.6722,156.968,98.5074,98.6389,0.000849783,0.072439,21.0018,191.416,-0.0119015,0.0,0.0
140,34.75,17.9698,18.6308,158.88,98.5082,98.6427,0.000767243,0.0720287,21.0024,191.426,-0.0121753,0.0,0.0
144,35.75,18.3418,18.8781,162.085,98.503,98.3718,0.000666273,0.07166,21.0028,191.416,0.0118994,0.0,0.0
148,36.75,18.116,18.6433,158.949,98.4994,99.0433,0.000553189,0.0712726,21.003,191.416,-0.0491493,0.0,0.0
152,37.75,18.1092,18.9797,162.748,98.5006,98.5895,0.000459195,0.0709686,21.0032,191.416,-0.00805342,0.0,0.0
156,38.75,17.8181,18.8347,160.618,98.4994,98.3314,0.000428326,0.0707496,21.0033,191.396,0.0152385,0.0,0.0
160,39.75,18.3345,18.4515,163.974,98.4986,98.5581,0.000471924,0.0705457,21.004,191.406,-0.00538553,0.0,0.0
164,40.75,18.267,18.8033,161.604,98.4974,98.8562,0.000570009,0.0703674,21.0046,191.406,-0.0324512,0.0,0.0
168,41.75,17.7801,18.657,159.197,98.5122,98.9982,0.000686089,0.0701954,21.005,191.386,-0.043925,0.0,0.0
172,42.75,18.3367,18.8319,159.213,98.5006,98.268,0.000776354,0.0700236,21.0053,191.386,0.0211021,0.0,0.0
176,43.75,18.5455,18.7977,165.947,98.503,98.7984,0.000824129,0.0698756,21.0054,191.406,-0.0267195,0.0,0.0
180,44.75,18.2024,18.4775,160.513,98.5074,98.4824,0.000881571,0.0697889,21.0055,191.396,0.00227138,0.0,0.0
184,45.75,17.8947,18.7973,160.621,98.5102,98.3599,0.000934716,0.0696968,21.0056,191.416,0.0136323,0.0,0.0
188,46.75,17.9858,18.5238,159.525,98.5102,98.1013,0.00097408,0.0696491,21.0057,191.426,0.0371269,0.0,0.0
192,47.75,17.9059,18.8737,166.554,98.5138,98.5334,0.00101023,0.0696123,21.0059,191.406,-0.00177282,0.0,0.0
196,48.75,18.0302,18.3827,163.135,98.5342,98.5615,0.00103302,0.0696058,21.0061,191.396,-0.00246619,0.0,0.0
200,49.75,18.7911,18.6027,162.92,98.519,98.5844,0.00104761,0.0696407,21.0062,191.396,-0.00592319,0.0,0.0
204,50.75,18.1364,18.7836,165.133,98.5086,98.2944,0.00105249,0.0696741,21.0063,191.396,0.0194322,0.0,0.0
208,51.75,18.503,18.4984,167.053,98.513,98.018,0.00104715,0.0696686,21.0063,191.396,0.0449677,0.0,0.0
212,52.75,17.9662,18.6013,159.823,98.5106,98.2566,0.00103551,0.0695877,21.0064,191.396,0.0230508,0.0,0.0
216,53.75,18.0733,19.0334,161.423,98.5154,98.3871,0.0010281,0.0694765,21.0064,191.406,0.0116338,0.0,0.0
220,54.75,18.4194,18.8584,157.155,98.5202,98.5623,0.00102667,0.0693923,21.0066,191.416,-0.00381264,0.0,0.0
224,55.75,17.7524,18.5319,159.082,98.523,98.6436,0.00102893,0.0693868,21.0074,191.416,-0.0109107,0.0,0.0
228,56.75,18.6377,18.665,163.842,98.5174,98.7086,0.00103075,0.0693832,21.0079,191.416,-0.0173043,0.0,0.0
232,57.75,17.877,18.2114,157.694,98.5154,98.4713,0.00103046,0.0694057,21.0081,191.406,0.00399873,0.0,0.0
236,58.75,18.3608,18.7209,162.953,98.5094,98.5576,0.00101454,0.0694454,21.0083,191.406,-0.00436724,0.0,0.0
240,59.75,17.7018,18.5587,159.835,98.5266,98.2544,0.000982482,0.0694714,21.0085,191.396,0.0246956,0.0,0.0
244,60.75,18.0076,18.6261,163.933,98.5146,97.8092,0.000925478,0.0694704,21.0086,191.386,0.064147,0.0,0.0
248,61.75,18.0595,18.6232,162.417,98.5206,98.5666,0.000843174,0.0694453,21.0086,191.376,-0.00416073,0.0,0.0
252,62.75,18.1662,18.9334,158.829,98.5206,98.1239,0.00075505,0.0694464,21.0087,191.386,0.0360185,0.0,0.0
256,63.75,17.974,18.4693,159.811,98.521,98.1689,0.000699215,0.0694472,21.0087,191.376,0.0319557,0.0,0.0
260,64.75,18.4197,18.4623,160.564,98.5178,98.2255,0.000695129,0.0694228,21.0087,191.386,0.0265247,0.0,0.0
264,65.75,18.4331,18.7628,161.744,98.5202,98.3361,0.000769762,0.0693571,21.0087,191.386,0.0167,0.0,0.0
268,66.75,18.4001,18.827,156.286,98.5106,98.4207,0.000854733,0.0693886,21.0088,191.376,0.00815087,0.0,0.0
272,67.75,18.1247,18.7522,162.431,98.5058,98.2085,0.00092815,0.0694485,21.0088,191.386,0.026983,0.0,0.0
276,68.75,18.4032,18.9622,162.603,98.511,98.4666,0.000954236,0.0694787,21.0085,191.376,0.00402319,0.0,0.0
280,69.75,18.3884,18.917,160.234,98.5126,98.362,0.000932336,0.069507,21.008,191.396,0.0136568,0.0,0.0
284,70.75,17.9846,18.8506,159.034,98.5082,98.109,0.000874824,0.0695229,21.0081,191.386,0.0362485,0.0,0.0
288,71.75,18.2065,18.9768,157.893,98.5042,98.3425,0.000808942,0.0695222,21.0082,191.376,0.0146702,0.0,0.0
292,72.75,18.3974,19.128,161.546,98.4998,97.9414,0.000730457,0.0695218,21.0083,191.366,0.050744,0.0,0.0
296,73.75,18.3459,19.1388,161.217,98.5062,98.7371,0.00066855,0.0695411,21.0083,191.366,-0.0208961,0.0,0.0
300,74.75,18.0549,18.6368,158.138,98.5138,97.7836,0.000633809,0.0695728,21.0084,191.366,0.0664032,0.0,0.0
304,75.75,17.8859,18.7703,161.014,98.5054,98.1111,0.000630713,0.0696047,21.0084,191.356,0.0358013,0.0,0.0
308,76.75,18.3137,18.771,161.12,98.5086,97.7751,0.000645511,0.0696112,21.0084,191.366,0.0667084,0.0,0.0
312,77.75,18.314,19.0553,162.736,98.5134,97.901,0.000652306,0.0695657,21.0084,191.366,0.0556591,0.0,0.0
316,78.75,18.4658,19.0369,161.023,98.5126,97.7356,0.000643425,0.069544,21.0084,191.366,0.0706826,0.0,0.0
320,79.75,18.5057,18.3599,161.678,98.507,98.5215,0.000612799,0.0696355,21.0087,191.356,-0.00131043,0.0,0.0
324,80.75,18.0826,18.7284,160.515,98.5078,97.87,0.000579849,0.0697205,21.0089,191.356,0.0579829,0.0,0.0
328,81.75,18.3337,18.8897,161.872,98.5018,97.3711,0.000556106,0.069699,21.009,191.346,0.103049,0.0,0.0
332,82.75,18.4574,19.2655,155.847,98.5002,98.1281,0.000546775,0.0696641,21.0091,191.346,0.0337822,0.0,0.0
336,83.75,18.2604,18.9167,160.194,98.5046,98.3306,0.000584721,0.0696274,21.0092,191.346,0.0157877,0.0,0.0
340,84.75,17.9038,18.9659,159.048,98.5094,97.7207,0.000633864,0.0696511,21.0092,191.346,0.0717519,0.0,0.0
344,85.75,18.4732,19.1233,163.636,98.5078,97.4264,0.000656364,0.0697216,21.0092,191.336,0.0985265,0.0,0.0
348,86.75,18.1064,18.8661,160.734,98.5142,98.0307,0.000657145,0.0697234,21.0092,191.336,0.0439142,0.0,0.0
352,87.75,18.8351,19.1571,156.694,98.5174,97.8717,0.000649572,0.0696656,21.0092,191.346,0.0586975,0.0,0.0
356,88.75,18.5721,18.8106,161.644,98.5186,97.8466,0.000635631,0.0695925,21.0093,191.336,0.0610946,0.0,0.0
360,89.75,18.5276,19.047,161.13,98.5138,97.7113,0.000624576,0.0696688,21.0098,191.326,0.0730057,0.0,0.0
364,90.75,18.5459,19.0411,162.52,98.5218,97.6186,0.000621961,0.0697777,21.0101,191.326,0.0822036,0.0,0.0
368,91.75,18.5392,18.4648,159.905,98.5146,97.4234,0.000623203,0.0698442,21.0103,191.316,0.0994167,0.0,0.0
372,92.75,18.082,18.6716,162.205,98.5162,97.2257,0.000626453,0.0699214,21.0106,191.316,0.117697,0.0,0.0
376,93.75,18.6531,19.0784,161.205,98.5094,96.9467,0.000626713,0.0700415,21.0107,191.296,0.142729,0.0,0.0
380,94.75,18.6337,19.1714,162.773,98.513,96.868,0.000613663,0.070136,21.0103,191.286,0.150301,0.0,0.0
384,95.75,18.5323,18.9439,154.401,98.5186,97.2274,0.000595726,0.0703225,21.01,191.296,0.117758,0.0,0.0
388,96.75,18.053,18.8112,163.43,98.5154,96.3904,0.000588442,0.070484,21.0098,191.276,0.194634,0.0,0.0
392,97.75,18.7813,19.1837,160.057,98.5194,96.5019,0.000594602,0.0706986,21.0097,191.276,0.184685,0.0,0.0
396,98.75,18.2965,18.8875,157.811,98.5198,96.4134,0.000633906,0.0709637,21.0096,191.276,0.192907,0.0,0.0
400,99.75,18.2121,18.6223,163.828,98.5166,97.4103,0.000674939,0.0712622,21.0093,191.276,0.100806,0.0,0.0
404,100.75,18.6759,18.7808,157.191,98.5238,95.6594,0.000742389,0.0718375,21.0086,191.266,0.263347,0.0,0.0
408,101.75,18.4332,18.7522,159.129,98.5114,95.9413,0.000829067,0.0727739,21.0081,191.246,0.235953,0.0,0.0
412,102.75,18.7309,18.895,162.845,98.5266,95.966,0.000984805,0.0741496,21.0053,191.276,0.235037,0.0,0.0
416,103.75,18.6255,19.1235,159.473,98.5234,96.6337,0.00122873,0.0771552,21.0004,191.236,0.172862,0.0,1.0
420,104.75,18.5652,19.191,158.681,98.5303,95.7691,0.00147488,0.0813902,20.9939,191.196,0.253696,0.0,1.0
424,105.75,18.5688,19.3844,157.915,98.5319,95.8286,0.00171824,0.0859788,20.9873,191.216,0.248294,0.0,1.0
428,106.75,18.0669,19.1972,158.516,98.5334,95.5624,0.00196901,0.0904971,20.982,191.166,0.273269,0.0,1.0
432,107.75,17.9532,19.0072,156.994,98.5319,95.5637,0.00220015,0.0946912,20.9757,191.116,0.273005,0.0,0.0
436,108.75,18.6742,18.4236,162.985,98.5246,95.5488,0.00238643,0.0990826,20.9692,191.086,0.273743,0.0,0.0
440,109.75,18.7576,18.8882,162.049,98.5286,95.6632,0.00251057,0.103256,20.965,191.056,0.263425,0.0,0.0
444,110.75,18.5014,19.048,160.136,98.5258,94.9568,0.00267041,0.107379,20.9582,191.026,0.329324,0.0,0.0
448,111.75,18.9585,19.4291,155.914,98.5294,94.8008,0.00281642,0.111965,20.9506,190.976,0.344332,0.0,0.0
452,112.75,18.8619,19.6815,156.331,98.5202,95.0576,0.00300603,0.115479,20.944,190.916,0.319346,0.0,0.0
456,113.75,18.9896,19.1081,152.899,98.527,93.5785,0.00326091,0.120516,20.9387,190.846,0.459939,0.0,0.0
460,114.75,18.9654,19.2705,155.654,98.5395,93.9391,0.00353635,0.125145,20.9346,190.816,0.426731,0.0,0.0
464,115.75,19.1396,19.5539,155.881,98.523,94.2696,0.00377628,0.129319,20.93,190.816,0.393903,0.0,0.0
468,116.75,19.3035,20.1016,157.821,98.5262,94.3215,0.00405502,0.133245,20.9256,190.796,0.389282,0.0,0.0
472,117.75,19.1216,20.4354,153.308,98.5314,93.7541,0.004284,0.137008,20.9207,190.656,0.4436,0.0,0.0
476,118.75,19.7852,20.2873,154.931,98.5363,94.0225,0.00450517,0.140904,20.9144,190.696,0.418525,0.0,0.0
480,119.75,19.4671,20.6244,153.697,98.5298,94.0774,0.00471067,0.145054,20.9083,190.656,0.412738,0.0,0.0
484,120.75,20.3157,20.6978,164.318,98.5391,93.4233,0.0048841,0.149243,20.9032,190.586,0.475844,0.0,0.0
488,121.75,20.469,20.284,153.367,98.5311,92.5748,0.00507144,0.153255,20.8972,190.516,0.556549,0.0,0.0
492,122.75,20.4509,20.939,154.915,98.5355,92.2223,0.00526448,0.156589,20.8924,190.435,0.591003,0.0,0.0
496,123.75,20.4119,21.4062,150.499,98.535,91.5878,0.00547388,0.160444,20.8869,190.335,0.652589,0.0,0.0
500,124.75,20.9013,21.3772,156.368,98.535,92.5361,0.00567228,0.163901,20.8817,190.245,0.560642,0.0,0.0
504,125.75,21.1205,21.4568,154.432,98.5383,92.2091,0.00589312,0.167203,20.8764,190.215,0.592533,0.0,0.0
508,126.75,21.3383,21.8094,151.703,98.5327,91.669,0.00608566,0.170276,20.8711,190.115,0.64446,0.0,0.0
512,127.75,21.2084,21.6521,152.836,98.5439,91.848,0.00622704,0.173597,20.8669,190.045,0.628058,0.0,0.0
516,128.75,21.2449,22.4655,150.627,98.5342,89.5256,0.00635959,0.176753,20.8625,189.975,0.85578,0.0,0.0
520,129.75,21.4922,22.596,156.457,98.5399,90.6335,0.00649405,0.179962,20.8585,189.895,0.746515,0.0,0.0
524,130.75,21.9271,23.0834,154.698,98.5475,92.0573,0.00666473,0.182611,20.854,189.825,0.608076,0.0,0.0
528,131.75,22.3652,23.1459,152.286,98.5419,90.8248,0.00684493,0.185089,20.8498,189.705,0.72787,0.0,0.0
532,132.75,22.0911,23.1217,149.783,98.5507,89.711,0.00701815,0.187446,20.8452,189.645,0.838799,0.0,0.0
536,133.75,22.2886,23.2252,154.456,98.5491,90.1142,0.00716737,0.190025,20.8415,189.585,0.798632,0.0,0.0
540,134.75,22.487,23.4038,153.486,98.5423,89.606,0.00733602,0.192633,20.8379,189.505,0.848495,0.0,0.0
544,135.75,22.6825,23.6808,148.021,98.5451,89.2071,0.00751508,0.195327,20.8343,189.425,0.888573,0.0,0.0
548,136.75,23.1511,24.1943,151.789,98.5487,89.2543,0.00770659,0.198046,20.8307,189.324,0.884178,0.0,0.0
552,137.75,23.0707,24.2076,153.606,98.5507,88.8192,0.00797297,0.200769,20.8273,189.254,0.927971,0.0,0.0
556,138.75,23.486,24.4111,152.645,98.5479,88.5134,0.00817349,0.20339,20.8237,189.144,0.958499,0.0,0.0
560,139.75,23.7014,24.7078,149.1,98.5423,88.6831,0.00853245,0.205646,20.8225,189.104,0.940897,0.0,0.0
564,140.75,23.9547,24.9549,152.193,98.5479,89.0578,0.00884779,0.207206,20.8209,189.004,0.903775,0.0,0.0
568,141.75,24.1741,25.1303,156.491,98.5519,88.2421,0.00909399,0.208451,20.8192,188.924,0.986264,0.0,0.0
572,142.75,24.1319,25.2134,151.134,98.5551,88.2481,0.00928524,0.209552,20.8176,188.814,0.985951,0.0,0.0
576,143.75,24.4094,25.5389,151.982,98.5427,87.4409,0.00945113,0.210359,20.8163,188.674,1.06684,0.0,0.0
580,144.75,24.504,25.6002,148.678,98.5523,86.0536,0.00961202,0.211076,20.8148,188.644,1.21045,0.0,0.0
584,145.75,24.7438,25.9318,151.01,98.5531,86.1361,0.0097541,0.211715,20.8139,188.554,1.20197,0.0,0.0
588,146.75,24.93,25.9443,151.619,98.5535,85.3468,0.00988248,0.212074,20.8133,188.444,1.28418,0.0,0.0
592,147.75,25.4545,26.5754,150.879,98.5559,85.9354,0.00997654,0.211826,20.8129,188.374,1.22305,0.0,0.0
596,148.75,25.4279,26.7886,155.41,98.5539,86.3033,0.0100379,0.211156,20.8136,188.293,1.18474,0.0,0.0
600,149.75,25.1805,26.4463,151.726,98.5443,85.6586,0.0101257,0.209989,20.8147,188.213,1.2508,0.0,0.0
604,150.75,25.4573,26.738,152.512,98.5527,85.8338,0.0102172,0.208769,20.8154,188.133,1.23332,0.0,0.0
608,151.75,25.7095,27.338,155.404,98.5527,84.0935,0.010303,0.20795,20.8161,188.083,1.41614,0.0,0.0
612,152.75,25.3874,26.7994,152.993,98.5527,85.2078,0.0103545,0.207299,20.8171,187.973,1.29866,0.0,0.0
616,153.75,25.2746,26.5234,151.757,98.5515,86.666,0.0103593,0.206979,20.8178,187.913,1.14709,0.0,0.0
620,154.75,25.9964,27.3488,151.809,98.5411,86.5342,0.0103449,0.206636,20.8182,187.823,1.15973,0.0,0.0
624,155.75,26.1374,27.4294,154.961,98.5479,85.0317,0.0102614,0.20625,20.8179,187.743,1.31669,0.0,0.0
628,156.75,26.2088,27.6408,150.874,98.5431,84.7183,0.0101685,0.205836,20.8175,187.673,1.34921,0.0,0.0
632,157.75,25.7268,27.2236,153.619,98.5415,83.5692,0.0100954,0.205418,20.8173,187.573,1.47096,0.0,0.0
636,158.75,26.4341,27.8236,155.385,98.5495,83.573,0.010056,0.205,20.8171,187.513,1.47128,0.0,0.0
640,159.75,26.4576,27.841,153.028,98.5439,85.0283,0.0100381,0.204612,20.8165,187.413,1.31668,0.0,0.0
644,160.75,26.8877,28.1064,157.161,98.5447,84.7366,0.0100315,0.204289,20.8158,187.373,1.34743,0.0,0.0
648,161.75,26.1543,27.6506,156.003,98.5427,84.3134,0.0100281,0.204119,20.8153,187.273,1.39193,0.0,0.0
652,162.75,26.9366,28.3239,150.923,98.5419,82.5268,0.010031,0.204065,20.8154,187.202,1.58302,0.0,0.0
656,163.75,27.1833,28.6305,150.181,98.5479,83.5462,0.0100408,0.204082,20.8164,187.142,1.47399,0.0,0.0
660,164.75,26.5792,28.1245,152.431,98.5427,85.5025,0.0100484,0.204008,20.8171,187.042,1.26693,0.0,0.0
664,165.75,27.0679,28.6206,151.229,98.5379,84.3806,0.010042,0.203752,20.8173,186.962,1.38439,0.0,0.0
668,166.75,27.3192,28.8023,156.275,98.5455,85.4863,0.0100381,0.203415,20.8168,186.892,1.26887,0.0,0.0
672,167.75,26.9813,28.5792,150.307,98.5467,82.5166,0.0100627,0.203464,20.8174,186.822,1.58456,0.0,0.0
676,168.75,27.4453,29.044,148.551,98.5511,82.7339,0.0101133,0.20375,20.8169,186.772,1.56149,0.0,0.0
680,169.75,27.2434,28.7296,157.305,98.5407,83.7682,0.0102121,0.203793,20.8166,186.682,1.44966,0.0,0.0
684,170.75,28.0434,29.4804,152.542,98.5459,82.6697,0.0103329,0.203682,20.8168,186.632,1.56795,0.0,0.0
688,171.75,27.7436,29.3209,154.793,98.5411,81.9557,0.0104407,0.203317,20.8178,186.562,1.64494,0.0,0.0
692,172.75,27.8233,29.393,152.551,98.5575,83.738,0.0105214,0.202898,20.8188,186.512,1.45439,0.0,0.0
696,173.75,28.1424,29.6981,150.858,98.535,84.2981,0.0105683,0.20207,20.8194,186.432,1.39286,0.0,0.0
700,174.75,27.557,29.1782,152.148,98.5415,81.5125,0.0105588,0.201414,20.8199,186.372,1.69337,0.0,0.0
704,175.75,28.1584,29.9109,152.829,98.5407,80.9848,0.0105267,0.200903,20.8201,186.302,1.75127,0.0,0.0
708,176.75,27.8404,29.41,154.132,98.5375,82.8521,0.0104345,0.200568,20.8197,186.222,1.54751,0.0,0.0
712,177.75,27.4235,29.0013,151.835,98.5403,82.5166,0.0103203,0.200454,20.8192,186.172,1.58398,0.0,0.0
716,178.75,27.5748,29.1193,152.355,98.5419,81.7498,0.0102142,0.200745,20.8185,186.132,1.66746,0.0,0.0
720,179.75,27.3281,29.0715,150.036,98.5407,81.3594,0.010126,0.201311,20.8176,186.061,1.71007,0.0,0.0
724,180.75,28.0448,29.6668,155.568,98.5283,83.3519,0.0100429,0.201929,20.8166,185.981,1.493,0.0,0.0
728,181.75,27.9543,29.5899,153.71,98.5363,81.9799,0.00994793,0.202544,20.8156,185.901,1.64186,0.0,0.0
732,182.75,28.3068,30.0321,154.137,98.5283,83.0669,0.00986293,0.202989,20.815,185.841,1.52357,0.0,0.0
736,183.75,28.4164,30.0152,154.639,98.5322,82.9227,0.0097624,0.203297,20.8145,185.811,1.53943,0.0,0.0
740,184.75,28.3468,30.0284,154.529,98.5334,81.7809,0.00966702,0.203632,20.8142,185.731,1.66331,0.0,0.0
744,185.75,28.6511,30.3247,152.006,98.5371,82.5081,0.00951194,0.204199,20.8136,185.661,1.58461,0.0,0.0
748,186.75,28.8611,30.3015,150.722,98.5226,82.8947,0.00932191,0.204718,20.8128,185.621,1.54159,0.0,0.0
752,187.75,29.0122,30.6042,150.833,98.5306,80.5918,0.00912564,0.205099,20.8123,185.561,1.79378,0.0,0.0
756,188.75,28.7509,30.6722,149.998,98.5206,81.4964,0.00890963,0.205278,20.812,185.521,1.69325,0.0,0.0
760,189.75,28.5865,30.4254,149.307,98.5198,83.3944,0.00873301,0.205226,20.8118,185.451,1.48769,0.0,0.0
764,190.75,28.1528,30.2728,152.138,98.5162,83.5143,0.00851638,0.205111,20.8116,185.391,1.47454,0.0,0.0
768,191.75,28.7615,30.3824,152.889,98.517,82.8573,0.00833079,0.205288,20.8115,185.341,1.54511,0.0,0.0
772,192.75,28.3598,30.5035,153.88,98.5214,82.6289,0.00819759,0.205683,20.8115,185.271,1.57014,0.0,0.0
776,193.75,29.1338,30.6324,149.839,98.507,82.2831,0.00813125,0.206077,20.8112,185.221,1.60626,0.0,0.0
780,194.75,28.6837,30.6292,153.304,98.511,83.172,0.00805482,0.206673,20.8105,185.161,1.51073,0.0,0.0
784,195.75,29.197,30.7706,151.764,98.5154,83.8094,0.00794595,0.207228,20.81,185.121,1.44298,0.0,0.0
788,196.75,28.4198,30.35,149.072,98.5102,82.4298,0.00780786,0.207543,20.8097,185.061,1.59065,0.0,0.0
792,197.75,28.8139,30.3881,149.862,98.5074,84.1565,0.00764446,0.207647,20.8094,185.01,1.40537,0.0,0.0
796,198.75,29.2484,30.7032,149.196,98.5118,81.3305,0.00748256,0.20793,20.8093,184.95,1.71064,0.0,0.0
800,199.75,29.3701,30.6746,150.215,98.5062,82.8573,0.00734445,0.208115,20.8092,184.88,1.54413,0.0,0.0
804,200.75,29.298,30.4009,152.806,98.5026,82.6842,0.00721287,0.208207,20.8092,184.84,1.56247,0.0,0.0
808,201.75,29.0795,30.9672,150.815,98.5026,81.4628,0.00709242,0.208236,20.8097,184.77,1.6953,0.0,0.0
812,202.75,29.6144,31.3495,154.383,98.5234,83.4612,0.00698837,0.208103,20.8103,184.73,1.48087,0.0,0.0
816,203.75,29.0868,30.9227,153.436,98.5122,83.9005,0.00691634,0.207774,20.8107,184.68,1.433,0.0,0.0
820,204.75,29.6437,31.4298,152.509,98.5154,83.4692,0.00686797,0.20751,20.8117,184.62,1.47928,0.0,0.0
824,205.75,29.4068,31.2384,152.613,98.5162,81.9969,0.00683767,0.207385,20.8124,184.59,1.6382,0.0,0.0
828,206.75,29.1193,30.9468,149.839,98.5082,84.3313,0.00680577,0.207223,20.8131,184.53,1.38692,0.0,0.0
832,207.75,29.6561,31.4437,147.435,98.5186,84.2756,0.00677516,0.206802,20.8136,184.48,1.39376,0.0,0.0
836,208.75,29.6692,31.5138,152.622,98.509,84.3436,0.00673499,0.206273,20.814,184.43,1.38569,0.0,0.0
840,209.75,29.3037,30.8712,155.108,98.5166,84.1556,0.00667229,0.205837,20.8143,184.4,1.40629,0.0,0.0
844,210.75,29.4949,31.3203,151.633,98.5166,83.1817,0.0066149,0.205514,20.8146,184.35,1.51019,0.0,0.0
848,211.75,29.6437,31.5543,155.625,98.5102,84.182,0.0065205,0.204956,20.8147,184.31,1.40292,0.0,0.0
852,212.75,30.0184,31.8548,153.608,98.5162,84.9564,0.00642455,0.203869,20.8167,184.25,1.32173,0.0,0.0
856,213.75,29.9207,31.7604,150.828,98.5158,84.0782,0.00634731,0.202694,20.819,184.2,1.41443,0.0,0.0
860,214.75,29.6398,31.5204,155.742,98.5138,86.1179,0.00629278,0.201505,20.8208,184.17,1.20031,0.0,0.0
864,215.75,29.9876,31.9276,156.946,98.5206,84.7378,0.00626069,0.200471,20.8223,184.11,1.34512,0.0,0.0
868,216.75,29.9845,31.911,153.196,98.5174,84.1259,0.00623169,0.199747,20.8235,184.05,1.40952,0.0,0.0
872,217.75,29.731,31.622,154.75,98.5038,84.8386,0.00619841,0.199253,20.8243,184.01,1.33299,0.0,0.0
876,218.75,29.9028,31.7935,150.316,98.5266,83.3905,0.00613974,0.198634,20.8248,183.939,1.48872,0.0,0.0
880,219.75,29.8497,31.7946,151.93,98.5214,85.3872,0.00608197,0.19775,20.8259,183.919,1.27705,0.0,0.0
884,220.75,29.7975,31.8024,155.215,98.5226,85.1729,0.00603501,0.196585,20.8273,183.869,1.29959,0.0,0.0
888,221.75,29.4493,31.2193,159.384,98.5319,87.3325,0.00599741,0.195445,20.8296,183.819,1.07694,0.0,0.0
892,222.75,29.7614,31.6778,150.933,98.523,84.9135,0.00594785,0.194406,20.8315,183.819,1.32686,0.0,0.0
896,223.75,29.9583,31.7424,155.508,98.5246,85.6943,0.00587008,0.193364,20.8327,183.749,1.2453,0.0,0.0
900,224.75,29.3824,31.4031,151.336,98.509,87.6165,0.0057716,0.192346,20.8337,183.699,1.04589,0.0,0.0
904,225.75,29.9872,31.8958,154.698,98.519,85.8074,0.00564493,0.191134,20.835,183.659,1.23302,0.0,0.0
908,226.75,29.9237,31.8233,151.572,98.5222,86.2837,0.00549566,0.189851,20.8366,183.619,1.1839,0.0,0.0
912,227.75,29.9192,31.8714,154.613,98.5283,87.4035,0.00537561,0.188597,20.8393,183.589,1.06936,0.0,0.0
916,228.75,29.0854,31.0429,154.935,98.5254,86.4164,0.00529824,0.187005,20.8426,183.559,1.17048,0.0,0.0
920,229.75,29.9604,31.86,153.343,98.5206,88.1741,0.00525867,0.18552,20.8448,183.499,0.990322,0.0,0.0
924,230.75,29.3192,31.3115,154.106,98.5254,87.1304,0.00525302,0.184233,20.8463,183.479,1.09703,0.0,0.0
928,231.75,29.4422,31.3125,155.208,98.5234,87.3979,0.0052493,0.183417,20.8472,183.429,1.06949,0.0,0.0
932,232.75,29.5162,31.4444,151.222,98.505,86.8,0.00523108,0.18287,20.848,183.419,1.1291,0.0,0.0
936,233.75,29.6966,31.7438,150.442,98.5238,87.782,0.00518304,0.182487,20.8487,183.359,1.03039,0.0,0.0
940,234.75,29.4646,31.4656,153.263,98.5214,87.7309,0.00510419,0.18225,20.8491,183.329,1.03536,0.0,0.0
944,235.75,29.6517,31.6599,150.378,98.5262,88.6585,0.00501417,0.182084,20.8493,183.289,0.94193,0.0,0.0
948,236.75,29.2433,31.0985,151.155,98.521,87.8432,0.00493915,0.181858,20.8502,183.279,1.02391,0.0,0.0
952,237.75,29.3089,31.3312,154.705,98.527,87.6365,0.00487676,0.181445,20.8513,183.229,1.04548,0.0,0.0
956,238.75,29.7743,31.8303,152.22,98.5222,88.0894,0.00482722,0.180604,20.8526,183.179,0.999037,0.0,0.0
960,239.75,29.749,31.7045,153.392,98.527,87.8504,0.00478641,0.179137,20.8541,183.149,1.02372,0.0,0.0
964,240.75,28.896,30.8884,154.95,98.5306,88.7503,0.00475101,0.177672,20.8566,183.099,0.933085,0.0,0.0
968,241.75,29.6641,31.6212,151.704,98.5242,87.9746,0.00472356,0.176082,20.8583,183.099,1.01086,0.0,0.0
972,242.75,29.0021,31.022,151.207,98.5283,88.681,0.00469068,0.174626,20.8602,183.069,0.939842,0.0,0.0
976,243.75,29.326,31.3874,152.88,98.5303,88.1928,0.0046366,0.173374,20.8622,183.029,0.989298,0.0,0.0
980,244.75,29.4765,31.2704,152.737,98.527,89.6302,0.00458602,0.172242,20.8639,183.009,0.844703,0.0,0.0
984,245.75,29.3978,31.3855,151.848,98.5298,89.1407,0.00448437,0.170877,20.8655,182.959,0.893836,0.0,0.0
988,246.75,29.5447,31.4765,154.48,98.5359,88.1371,0.00437992,0.16948,20.8674,182.969,0.995444,0.0,0.0
992,247.75,29.331,31.3173,154.096,98.5331,88.226,0.00430273,0.168523,20.8698,182.909,0.986194,0.0,0.0
996,248.75,29.3767,31.4799,149.267,98.5383,88.647,0.00425875,0.167308,20.8717,182.868,0.944173,0.0,0.0
1000,249.75,29.0332,31.0936,155.449,98.5331,89.2823,0.00425057,0.16612,20.8734,182.868,0.879957,0.0,0.0
1004,250.75,29.4656,31.258,158.716,98.5367,90.545,0.00427983,0.164741,20.8752,182.798,0.754941,0.0,0.0
1008,251.75,29.3893,31.2659,151.713,98.5423,89.8399,0.00431812,0.163629,20.8768,182.788,0.825227,0.0,0.0
1012,252.75,29.3512,31.3284,154.157,98.5371,89.3232,0.00437471,0.16282,20.878,182.738,0.876239,0.0,0.0
1016,253.75,29.2579,31.1993,156.92,98.5375,90.1733,0.00440059,0.162085,20.8789,182.698,0.791728,0.0,0.0
1020,254.75,29.4382,31.4557,155.585,98.5395,90.6977,0.00439523,0.161117,20.8802,182.688,0.740157,0.0,0.0
1024,255.75,29.1491,31.1162,155.543,98.5447,90.8427,0.00436494,0.16018,20.8814,182.658,0.726368,0.0,0.0
1028,256.75,29.1028,30.9995,154.677,98.5439,89.8458,0.00433733,0.159413,20.8822,182.618,0.824781,0.0,0.0
1032,257.75,28.2285,30.1943,159.735,98.5479,91.5231,0.0043136,0.15889,20.8827,182.608,0.660052,0.0,0.0
1036,258.75,28.8289,30.6569,158,98.5499,91.6728,0.00428847,0.15836,20.8839,182.558,0.645645,0.0,0.0
1040,259.75,28.8959,30.9641,156.214,98.5555,91.2518,0.00424193,0.15793,20.8849,182.558,0.687241,0.0,0.0
1044,260.75,28.7543,30.4383,156.549,98.5463,90.0036,0.00419462,0.157607,20.8856,182.508,0.809338,0.0,0.0
1048,261.75,28.748,30.9817,157.66,98.5435,91.5908,0.00414169,0.157292,20.886,182.488,0.653061,0.0,0.0
1052,262.75,28.6947,30.8414,154.384,98.5455,91.1867,0.00407634,0.156846,20.8868,182.458,0.692701,0.0,0.0
1056,263.75,29.0739,30.8595,157.643,98.5447,92.8389,0.00399861,0.156242,20.8887,182.448,0.532353,0.0,0.0
1060,264.75,29.0069,31.0358,154.536,98.5475,91.8693,0.00391672,0.155534,20.8904,182.418,0.62632,0.0,0.0
1064,265.75,28.9627,30.5802,157.888,98.5483,91.3237,0.00385097,0.154992,20.8916,182.388,0.679561,0.0,0.0
1068,266.75,28.1829,30.2968,154.544,98.5407,92.9687,0.00378992,0.15443,20.8932,182.348,0.51953,0.0,0.0
1072,267.75,28.4433,30.6746,152.097,98.5503,92.6263,0.00377456,0.15362,20.8942,182.308,0.553328,0.0,0.0
1076,268.75,28.7383,30.5635,154.267,98.5419,92.4809,0.00380656,0.152803,20.8947,182.298,0.566593,0.0,0.0
1080,269.75,28.852,30.5988,155.967,98.5499,92.7479,0.00386005,0.152133,20.8953,182.268,0.541579,0.0,0.0
1084,270.75,28.597,30.6117,157.063,98.5603,92.6204,0.00391477,0.151527,20.8966,182.258,0.554808,0.0,0.0
1088,271.75,28.4061,30.026,152.128,98.5483,92.9869,0.00396128,0.150796,20.8977,182.218,0.518463,0.0,0.0
1092,272.75,28.6474,30.1377,151.861,98.5423,93.5394,0.00399464,0.150202,20.8985,182.208,0.465049,0.0,0.0
1096,273.75,28.3632,30.434,160.26,98.5487,93.5334,0.00401653,0.149758,20.899,182.188,0.466197,0.0,0.0
1100,274.75,28.3705,30.3346,158.57,98.5407,93.8622,0.00400175,0.149337,20.8993,182.158,0.434158,0.0,0.0
1104,275.75,28.0796,29.9766,156.279,98.5763,93.6831,0.00394274,0.149,20.8996,182.128,0.454425,0.0,0.0
1108,276.75,28.4352,30.2369,155.039,98.5447,93.5887,0.00385924,0.148677,20.8999,182.088,0.460561,0.0,0.0
1112,277.75,28.2556,30.1673,157.835,98.5367,93.126,0.00379014,0.148295,20.9007,182.088,0.504073,0.0,0.0
1116,278.75,28.0561,29.8914,157.023,98.5471,93.8035,0.00371379,0.147836,20.9021,182.068,0.44032,0.0,0.0
1120,279.75,27.7907,29.7814,154.427,98.5559,94.2683,0.00367321,0.14743,20.903,182.018,0.396997,0.0,0.0
1124,280.75,28.1224,29.881,152.799,98.5515,94.1815,0.00366673,0.146859,20.9035,181.988,0.404816,0.0,0.0
1128,281.75,28.1501,29.9643,154.295,98.5519,94.0459,0.00366248,0.14626,20.9043,181.968,0.417719,0.0,0.0
1132,282.75,28.1258,29.9055,157.69,98.5607,94.6357,0.0036544,0.145815,20.9052,181.948,0.362709,0.0,0.0
1136,283.75,27.7829,29.757,158.516,98.5563,94.7599,0.00364062,0.145511,20.9063,181.958,0.350606,0.0,0.0
1140,284.75,27.7916,29.6259,152.208,98.5639,94.9177,0.00360853,0.145311,20.9073,181.898,0.336446,0.0,0.0
1144,285.75,27.8509,29.5393,154.281,98.5595,94.7914,0.00355182,0.145284,20.908,181.878,0.347932,0.0,0.0
1148,286.75,27.7838,29.4888,155.298,98.5667,95.6419,0.00349097,0.14524,20.9084,181.878,0.268853,0.0,0.0
1152,287.75,27.5506,29.45,156.231,98.5643,95.6322,0.00340975,0.145159,20.9087,181.838,0.269549,0.0,0.0
1156,288.75,27.4211,29.417,154.202,98.5599,94.9313,0.00334855,0.145107,20.9089,181.828,0.334803,0.0,0.0
1160,289.75,27.8784,29.3908,160.154,98.5675,96.3279,0.00330839,0.14484,20.9097,181.787,0.205138,0.0,0.0
1164,290.75,27.7768,29.5916,156.669,98.5675,94.9041,0.00329098,0.144423,20.9103,181.787,0.338052,0.0,0.0
1168,291.75,27.6937,29.5553,158.618,98.5687,95.8372,0.00327062,0.143697,20.9108,181.727,0.250837,0.0,0.0
1172,292.75,27.5275,29.1142,158.028,98.5771,94.9985,0.00323439,0.142894,20.9115,181.707,0.330047,0.0,0.0
1176,293.75,27.2587,29.0804,160.099,98.5691,95.394,0.00319473,0.141962,20.9123,181.697,0.292239,0.0,0.0
1180,294.75,27.0062,28.7435,153.879,98.5691,96.0264,0.00314043,0.141078,20.9134,181.667,0.233265,0.0,0.0
1184,295.75,27.5854,29.4021,156.368,98.5763,95.9354,0.00310362,0.140214,20.915,181.627,0.242381,0.0,0.0
1188,296.75,27.6623,29.1946,155.734,98.5727,96.3454,0.0030785,0.139443,20.9162,181.637,0.203993,0.0,0.0
1192,297.75,27.455,29.0297,159.047,98.5775,96.2718,0.0030821,0.138902,20.9177,181.597,0.211247,0.0,0.0
1196,298.75,27.0956,28.7591,156.739,98.5759,96.1187,0.00309115,0.138239,20.9188,181.587,0.225307,0.0,0.0
1200,299.75,27.4303,29.1976,156.207,98.5751,96.0417,0.00310589,0.137509,20.9195,181.587,0.232386,0.0,0.0
1204,300.75,27.2377,29.0399,155.39,98.5791,96.0226,0.00311793,0.136718,20.9208,181.537,0.234526,0.0,0.0
1208,301.75,27.1306,28.7961,155.942,98.5911,96.6167,0.00312921,0.136051,20.9225,181.517,0.18056,0.0,0.0
1212,302.75,26.9597,28.5797,153.64,98.5795,95.8852,0.00315865,0.135505,20.9239,181.507,0.24734,0.0,0.0
1216,303.75,26.8481,28.6524,157.703,98.5971,96.6656,0.00321357,0.135019,20.9248,181.447,0.176586,0.0,0.0
1220,304.75,27.1527,28.9461,153.634,98.5855,96.4091,0.00326189,0.134539,20.9257,181.467,0.199245,0.0,0.0
1224,305.75,26.735,28.4461,159.132,98.5843,96.3424,0.00332804,0.134079,20.9273,181.447,0.20532,0.0,0.0
1228,306.75,27.1474,28.7437,158.4,98.5811,96.8701,0.00338933,0.133446,20.9286,181.427,0.156268,0.0,0.0
1232,307.75,27.1119,28.6074,159.39,98.5859,96.3437,0.00344439,0.132975,20.9295,181.407,0.205347,0.0,0.0
1236,308.75,26.8418,28.6417,158.621,98.6003,96.2497,0.00351921,0.132232,20.9301,181.387,0.215362,0.0,0.0
1240,309.75,26.6975,28.463,156.772,98.5867,96.6222,0.00359688,0.131617,20.9305,181.347,0.17965,0.0,0.0
1244,310.75,26.7233,28.4527,152.502,98.5903,95.6968,0.00368831,0.131093,20.9314,181.347,0.265873,0.0,0.0
1248,311.75,26.6953,28.6339,155.891,98.5823,96.4955,0.00376174,0.130636,20.9319,181.307,0.190966,0.0,0.0
1252,312.75,26.7638,28.3757,156.705,98.5923,96.0409,0.00380544,0.130355,20.9321,181.307,0.234022,0.0,0.0
1256,313.75,26.7621,28.3965,157.788,98.5839,96.4219,0.00383411,0.130095,20.9323,181.267,0.197918,0.0,0.0
1260,314.75,26.6505,28.2926,159.844,98.5999,96.8591,0.00387769,0.1297,20.9327,181.247,0.15899,0.0,0.0
1264,315.75,26.4683,28.2267,156.198,98.5923,97.3618,0.00395485,0.12924,20.9335,181.217,0.1121,0.0,0.0
1268,316.75,26.7984,28.1453,153.013,98.5991,96.9505,0.00405461,0.128757,20.9342,181.197,0.150496,0.0,0.0
1272,317.75,26.4882,27.7767,153.927,98.5983,97.1423,0.00415977,0.128185,20.9355,181.187,0.132783,0.0,0.0
1276,318.75,26.3866,28.0111,156.933,98.5987,96.6316,0.00425005,0.127222,20.9369,181.167,0.179873,0.0,0.0
1280,319.75,26.4329,27.8254,157.047,98.6027,96.0217,0.00430562,0.126029,20.9381,181.147,0.236744,0.0,0.0
1284,320.75,26.2609,28.0271,161.215,98.6047,96.4121,0.00433504,0.124635,20.9394,181.127,0.200708,0.0,0.0
1288,321.75,26.3212,27.8389,157.072,98.6123,96.7936,0.00429773,0.123389,20.9409,181.127,0.16615,0.0,0.0
1292,322.75,26.0123,27.5515,155.997,98.6055,96.5503,0.00421205,0.12247,20.9421,181.077,0.187994,0.0,0.0
1296,323.75,26.1567,27.8719,160.94,98.6151,97.1036,0.00414348,0.121786,20.9428,181.067,0.137861,0.0,0.0
1300,324.75,26.0931,27.5689,157.649,98.6171,96.8157,0.00401333,0.121235,20.9436,181.047,0.164547,0.0,0.0
1304,325.75,25.9556,27.6124,160.216,98.6235,96.746,0.00391227,0.120674,20.9441,181.027,0.171558,0.0,0.0
1308,326.75,26.0556,27.5103,160.118,98.6147,97.0956,0.0038594,0.120138,20.9451,181.027,0.138568,0.0,0.0
1312,327.75,25.919,27.4432,156.685,98.6147,96.7834,0.00384263,0.119467,20.9465,180.987,0.167309,0.0,0.0
1316,328.75,25.7409,27.526,155.065,98.6155,96.5865,0.00384751,0.118598,20.9477,180.957,0.185559,0.0,0.0
1320,329.75,25.6896,27.2398,156.481,98.6187,96.5184,0.00385994,0.117477,20.9488,180.917,0.19214,0.0,0.0
1324,330.75,25.3079,26.8943,163.074,98.6247,96.1153,0.00386592,0.116333,20.9502,180.927,0.230043,0.0,0.0
1328,331.75,25.8815,27.3908,157.256,98.6355,95.7874,0.00385616,0.115223,20.9521,180.907,0.261522,0.0,0.0
1332,332.75,25.7852,27.1469,160.073,98.6259,95.7674,0.00383037,0.11419,20.9545,180.887,0.262516,0.0,0.0
1336,333.75,25.2386,26.7692,156.115,98.6235,96.71875,0.0037824,0.113309,20.9561,180.877,0.17407,0.0,0.0
1340,334.75,25.6036,27.1087,158.521,98.6403,96.0366,0.00373389,0.112174,20.9574,180.857,0.238765,0.0,0.0
1344,335.75,25.7736,27.2408,154.747,98.6279,94.9789,0.00366328,0.110871,20.9588,180.827,0.336486,0.0,0.0
1348,336.75,25.9349,27.3431,159.038,98.6247,96.0694,0.0036062,0.109537,20.9601,180.807,0.234309,0.0,0.0
1352,337.75,24.6938,26.3835,161.311,98.6295,95.7606,0.00353683,0.10848,20.9614,180.797,0.263476,0.0,0.0
1356,338.75,25.2415,26.8164,160.769,98.6219,96.1093,0.00347803,0.107559,20.9622,180.787,0.230342,0.0,0.0
1360,339.75,25.3392,26.8749,156.207,98.6183,95.6917,0.00344155,0.106912,20.9627,180.777,0.268885,0.0,0.0
1364,340.75,25.3324,26.8454,160.627,98.6235,95.593,0.00343266,0.106267,20.9635,180.757,0.278563,0.0,0.0
1368,341.75,24.7975,26.3771,156.97,98.6211,96.7787,0.00344173,0.105655,20.9646,180.727,0.16832,0.0,0.0
1372,342.75,25.3114,26.532,157.918,98.6191,95.963,0.00345344,0.104656,20.9659,180.717,0.243685,0.0,0.0
1376,343.75,25.1569,26.447,158.248,98.6179,94.896,0.00345319,0.103464,20.9676,180.706,0.343378,0.0,0.0
1380,344.75,24.8854,26.5378,157.641,98.6351,95.303,0.00342397,0.101976,20.9702,180.686,0.306736,0.0,0.0
1384,345.75,25.0464,26.5975,156.527,98.6123,95.1133,0.00338245,0.100425,20.9722,180.676,0.322453,0.0,0.0
1388,346.75,24.86,26.1384,163.611,98.6147,95.1869,0.00334904,0.0990714,20.9742,180.666,0.315769,0.0,0.0
1392,347.75,24.726,26.3982,158.232,98.6135,94.4086,0.00332211,0.0979813,20.9758,180.656,0.388937,0.0,0.0
1396,348.75,24.8516,26.1647,158.613,98.6115,96.2624,0.00330445,0.0972211,20.9768,180.646,0.215193,0.0,0.0
1400,349.75,24.2252,25.0632,155.082,98.6139,95.1184,0.00329063,0.0963451,20.9774,180.636,0.32212,0.0,0.0
1404,350.75,23.7948,25.8812,166.152,98.6107,94.7956,0.00327263,0.0954931,20.9779,180.596,0.352169,0.0,0.0
1408,351.75,24.1272,25.0091,158.851,98.6327,94.6855,0.00324741,0.0946513,20.9788,180.586,0.364539,0.0,0.0
1412,352.75,23.8108,24.8288,161.714,98.6211,94.6676,0.00321748,0.0938471,20.98,180.576,0.365173,0.0,0.0
1416,353.75,23.8589,25.3689,157.911,98.6159,95.3944,0.00317673,0.0932082,20.9811,180.546,0.296438,0.0,0.0
1420,354.75,23.8686,24.5861,160.844,98.6223,95.1809,0.003132,0.0926544,20.9819,180.546,0.317016,0.0,0.0
1424,355.75,23.8872,24.8417,160.201,98.6047,94.7523,0.00309935,0.0922686,20.9824,180.516,0.355712,0.0,0.0
1428,356.75,23.4107,24.9756,155.212,98.6147,95.0785,0.00311363,0.0919644,20.9827,180.506,0.325944,0.0,0.0
1432,357.75,23.2335,24.7443,156.509,98.6195,95.6836,0.00314757,0.0916402,20.9829,180.506,0.269747,0.0,0.0
1436,358.75,23.4075,25.0102,160.531,98.6175,95.8695,0.0031743,0.0915028,20.9831,180.476,0.252248,0.0,0.0
1440,359.75,23.534,24.6943,158.484,98.6143,95.4353,0.00318513,0.0914542,20.9832,180.466,0.292474,0.0,0.0
1444,360.75,22.908,24.6368,156.704,98.6259,95.9868,0.00318778,0.0914422,20.9832,180.446,0.242087,0.0,0.0
1448,361.75,23.2126,24.7914,156.668,98.6155,95.5416,0.00318281,0.0914092,20.9833,180.436,0.282645,0.0,0.0
1452,362.75,23.623,24.7499,162.491,98.6195,95.8848,0.00317428,0.0913625,20.9833,180.426,0.251002,0.0,0.0
1456,363.75,22.908,24.6172,155.589,98.6191,95.6564,0.00317219,0.0913067,20.9833,180.396,0.272251,0.0,0.0
1460,364.75,22.9828,24.4261,155.156,98.6139,95.8078,0.00318839,0.0912662,20.9833,180.386,0.257664,0.0,0.0
1464,365.75,22.1962,24.105,164.774,98.6235,96.0876,0.00323224,0.0912428,20.9833,180.376,0.232502,0.0,0.0
1468,366.75,23.2041,24.2438,159.918,98.6215,96.555,0.0032933,0.0911918,20.9833,180.346,0.189012,0.0,0.0
1472,367.75,22.2021,23.9689,157.872,98.6415,96.4883,0.00338185,0.0912086,20.9833,180.346,0.196996,0.0,0.0
1476,368.75,22.9036,24.0827,160.002,98.6263,95.7802,0.00345095,0.09132,20.9833,180.336,0.261362,0.0,0.0
1480,369.75,22.988,23.3975,158.093,98.6151,96.1582,0.00348022,0.0914129,20.9832,180.326,0.225186,0.0,0.0
1484,370.75,22.9273,23.6575,158.264,98.6191,96.1085,0.00347283,0.0914396,20.9827,180.296,0.230168,0.0,0.0
1488,371.75,22.2782,24.1379,159.68,98.6211,95.9686,0.00344832,0.0914465,20.9823,180.296,0.243353,0.0,0.0
1492,372.75,22.3237,24.0851,155.472,98.6247,95.6215,0.00342648,0.0913757,20.9821,180.276,0.276012,0.0,0.0
1496,373.75,22.0507,23.576,158.339,98.6255,96.0413,0.00342426,0.0913543,20.982,180.266,0.23699,0.0,0.0
1500,374.75,22.8422,23.8248,156.823,98.6271,97.019,0.00344347,0.0913905,20.9819,180.266,0.146731,0.0,0.0
1504,375.75,22.6844,23.8471,161.424,98.6311,96.4253,0.00348452,0.0913641,20.9818,180.236,0.201879,0.0,0.0
1508,376.75,22.8535,23.6578,159.779,98.6403,96.7558,0.00354277,0.0913216,20.9819,180.216,0.172176,0.0,0.0
1512,377.75,21.7873,23.4792,158.964,98.6327,97.0585,0.00359864,0.0913939,20.9821,180.216,0.1436,0.0,0.0
1516,378.75,22.4967,23.8847,160.202,98.6379,96.8302,0.00365062,0.0914406,20.9823,180.206,0.165096,0.0,0.0
1520,379.75,22.6675,23.6579,156.888,98.6575,96.1608,0.0036964,0.0914706,20.9824,180.186,0.228788,0.0,0.0
1524,380.75,22.2992,23.6663,156.278,98.6527,96.7107,0.00372881,0.0915511,20.9824,180.176,0.177459,0.0,0.0
1528,381.75,22.4459,23.1749,155.661,98.6599,97.0084,0.00373275,0.0916216,20.9825,180.166,0.150679,0.0,0.0
1532,382.75,22.2806,23.5177,158.799,98.6371,97.3256,0.00372374,0.0915926,20.9825,180.146,0.119472,0.0,0.0
1536,383.75,22.186,23.2025,154.116,98.6383,96.8042,0.00362367,0.0915987,20.9825,180.146,0.167525,0.0,0.0
1540,384.75,22.2037,23.6752,158.771,98.6507,96.7396,0.00351331,0.0916529,20.9821,180.136,0.174609,0.0,0.0
1544,385.75,22.3795,23.5409,160.921,98.6435,97.4128,0.00345512,0.0917086,20.9814,180.136,0.11206,0.0,0.0
1548,386.75,22.3573,23.4417,160.388,98.6503,97.2997,0.00347218,0.091803,20.9808,180.116,0.123046,0.0,0.0
1552,387.75,22.3871,23.3641,161.814,98.6547,96.743,0.00354863,0.0918942,20.9803,180.086,0.174658,0.0,0.0
1556,388.75,22.0613,23.0189,158.753,98.6531,96.8753,0.00365347,0.0919707,20.98,180.086,0.162319,0.0,0.0
1560,389.75,21.9076,23.0362,161.779,98.6623,97.3112,0.00375233,0.0920209,20.9798,180.086,0.123079,0.0,0.0
1564,390.75,22.136,23.3204,155.477,98.6519,97.1457,0.00386652,0.0920538,20.9796,180.076,0.137325,0.0,0.0
1568,391.75,21.8107,23.2736,157.755,98.6571,96.9216,0.00392575,0.0920252,20.9795,180.046,0.158411,0.0,0.0
1572,392.75,22.0974,22.3668,153.353,98.6559,97.2291,0.0039225,0.0920658,20.9795,180.046,0.130031,0.0,0.0
1576,393.75,21.9148,23.0934,158.84,98.6579,96.9939,0.00385658,0.0921362,20.9796,180.056,0.151829,0.0,0.0
1580,394.75,21.8473,23.0184,158.377,98.6631,97.0713,0.00378928,0.0922048,20.9796,180.026,0.145179,0.0,0.0
1584,395.75,21.8738,22.8316,158.683,98.6635,96.7621,0.00370261,0.0923488,20.9797,180.016,0.173689,0.0,0.0
1588,396.75,21.7899,23.1561,155.85,98.6699,96.8127,0.00362338,0.0924699,20.9797,179.986,0.169601,0.0,0.0
1592,397.75,22.1059,22.7354,155.302,98.6671,97.4587,0.00356028,0.0925295,20.9797,179.976,0.109988,0.0,0.0
1596,398.75,21.942,22.8392,157.069,98.6551,97.0024,0.00350123,0.0925079,20.9797,179.986,0.150792,0.0,0.0
1600,399.75,21.9817,22.764,158.479,98.6679,96.945,0.00345178,0.0924341,20.9797,179.976,0.157234,0.0,0.0
1604,400.75,21.9946,22.727,157.4,98.6655,97.2193,0.00341894,0.09235,20.9797,179.956,0.131798,0.0,0.0
1608,401.75,21.1921,23.0884,160.905,98.6587,97.2125,0.00340438,0.0924334,20.9797,179.946,0.131807,0.0,0.0
1612,402.75,21.456,22.5533,154.792,98.6907,97.4779,0.00339056,0.092565,20.9797,179.936,0.110371,0.0,0.0
1616,403.75,21.4955,22.5807,158.389,98.6671,97.7577,0.00336723,0.0927016,20.9797,179.926,0.0826495,0.0,0.0
1620,404.75,21.1845,22.1107,157.232,98.6683,97.1113,0.00332376,0.0928018,20.9797,179.926,0.141974,0.0,0.0
1624,405.75,21.7257,22.6624,165.084,98.6939,97.3392,0.00327401,0.0928874,20.9797,179.906,0.123365,0.0,0.0
1628,406.75,21.5745,22.5779,155.23,98.6727,96.9395,0.00323894,0.0929905,20.9798,179.896,0.158179,0.0,0.0
1632,407.75,21.3473,22.8245,163.327,98.6659,97.5497,0.00324637,0.0931138,20.9801,179.896,0.101549,0.0,0.0
1636,408.75,21.6162,22.845,156.442,98.6715,97.3856,0.00330729,0.0932482,20.9802,179.886,0.117088,0.0,0.0
1640,409.75,21.7736,22.5666,161.868,98.6651,97.2448,0.00338508,0.0932626,20.9804,179.856,0.12942,0.0,0.0
1644,410.75,22.0529,22.8003,167.688,98.6627,97.7288,0.00345515,0.0932469,20.9804,179.856,0.0848926,0.0,0.0
1648,411.75,21.2658,22.8747,156.359,98.6779,97.7675,0.00353694,0.0932366,20.9805,179.846,0.0827339,0.0,0.0
1652,412.75,21.4945,22.2892,156.21,98.6683,97.7126,0.00360851,0.0932496,20.9805,179.836,0.0868759,0.0,0.0
1656,413.75,21.4577,22.3916,156.423,98.6651,97.2584,0.00363959,0.0933191,20.9805,179.836,0.128171,0.0,0.0
1660,414.75,21.5595,22.4177,156.271,98.6643,97.9185,0.0036199,0.0934096,20.9805,179.806,0.0677306,0.0,0.0
1664,415.75,21.5782,22.3184,155.071,98.6675,98.3875,0.00360698,0.0934763,20.9806,179.816,0.025364,0.0,0.0
1668,416.75,21.576,22.351,160.578,98.6787,97.4685,0.00352874,0.0935306,20.9803,179.806,0.110143,0.0,0.0
1672,417.75,21.3928,22.5326,164.693,98.6567,97.9933,0.00345997,0.0935483,20.9801,179.786,0.0602227,0.0,0.0
1676,418.75,21.8648,22.2765,157.236,98.6595,97.7513,0.00340252,0.0935996,20.9799,179.776,0.0825441,0.0,0.0
1680,419.75,21.4987,22.2072,161.252,98.6643,97.5804,0.00337021,0.0936856,20.9799,179.766,0.0986033,0.0,0.0
1684,420.75,21.4461,22.4209,159.614,98.6551,97.4796,0.00334032,0.0937896,20.9798,179.756,0.106994,0.0,0.0
1688,421.75,21.284,22.3967,158.351,98.6635,97.8934,0.00332194,0.0938691,20.9798,179.746,0.0699458,0.0,0.0
1692,422.75,20.9746,21.9695,160.932,98.6647,97.2461,0.00331478,0.0939498,20.9798,179.746,0.129267,0.0,0.0
1696,423.75,21.5345,22.0931,159.845,98.6607,97.4996,0.00332609,0.0940443,20.9797,179.756,0.105671,0.0,0.0
1700,424.75,21.1119,22.3292,157.985,98.6699,97.6412,0.00334936,0.094072,20.9797,179.726,0.0935476,0.0,0.0
1704,425.75,21.2412,22.1194,157.171,98.6711,97.5519,0.00340163,0.0941191,20.9797,179.726,0.101825,0.0,0.0
1708,426.75,21.3206,22.3016,159.588,98.6675,97.7318,0.00346539,0.0941805,20.9797,179.716,0.0850549,0.0,0.0
1712,427.75,21.2176,22.1745,155.575,98.6663,97.2053,0.00349879,0.0942539,20.9796,179.716,0.133159,0.0,0.0
1716,428.75,21.29,22.0365,156.258,98.6687,98.0801,0.00350667,0.0943172,20.9794,179.696,0.0534108,0.0,0.0
1720,429.75,21.2611,22.1059,158.859,98.6699,98.0745,0.00347987,0.0943409,20.9792,179.666,0.0540221,0.0,0.0
1724,430.75,20.771,22.2459,161.808,98.6687,98.4479,0.00341933,0.0942925,20.9791,179.666,0.0199959,0.0,0.0
1728,431.75,20.8455,21.6812,159.523,98.6699,97.8189,0.00336377,0.0942279,20.979,179.666,0.0773126,0.0,0.0
1732,432.75,21.6925,22.2162,157.69,98.6855,97.5629,0.00332731,0.0942594,20.9789,179.646,0.102116,0.0,0.0
1736,433.75,21.3641,22.2467,162.707,98.6715,98.1315,0.0033122,0.0943847,20.9785,179.636,0.0489823,0.0,0.0
1740,434.75,20.7683,22.266,157.964,98.6699,97.8296,0.00331521,0.0946149,20.9778,179.626,0.0763432,0.0,0.0
1744,435.75,21.1116,21.4567,163.521,98.6791,98.3926,0.00332708,0.0950426,20.9769,179.615,0.0259507,0.0,0.0
1748,436.75,20.9513,21.7525,157.073,98.6787,97.9674,0.00333851,0.0955194,20.976,179.615,0.0645769,0.0,0.0
1752,437.75,21.317,21.8606,160.718,98.6835,98.0886,0.00335134,0.0959329,20.9754,179.585,0.0539755,0.0,0.0
1756,438.75,20.971,21.8615,161.234,98.6851,98.1987,0.00336369,0.0961287,20.975,179.575,0.0441037,0.0,0.0
1760,439.75,20.4302,21.6022,157.696,98.6871,98.3459,0.0033965,0.0964837,20.9745,179.575,0.0309198,0.0,0.0
1764,440.75,20.9559,21.5481,161.11,98.6859,98.2812,0.0034452,0.0973982,20.9738,179.575,0.0366798,0.0,0.0
1768,441.75,20.566,21.6819,159.18,98.6887,97.742,0.00349134,0.0983501,20.9733,179.555,0.0860413,0.0,0.0
1772,442.75,21.068,22.2898,160.76,98.6903,98.2421,0.00350588,0.0998331,20.9722,179.565,0.0406324,0.0,0.0
1776,443.75,21.0237,22.1715,156.968,98.6835,97.8644,0.00348404,0.101323,20.9715,179.565,0.0743934,0.0,0.0
1780,444.75,20.9459,21.4776,160.461,98.6899,98.2676,0.00343958,0.102361,20.971,179.555,0.0382776,0.0,0.0
1784,445.75,21.1039,21.8383,162.328,98.6795,98.1626,0.00336349,0.102755,20.9707,179.555,0.0468826,0.0,0.0
1788,446.75,20.8329,22.0838,157.31,98.6899,98.1162,0.00328366,0.102492,20.9704,179.545,0.0520399,0.0,0.0
1792,447.75,21.0769,21.6448,160.882,98.6903,98.1519,0.00322456,0.10189,20.9703,179.535,0.0488267,0.0,0.0
1796,448.75,21.2519,21.6047,158.474,98.6947,98.2872,0.00319672,0.101239,20.9704,179.535,0.0369351,0.0,0.0
1800,449.75,20.8929,21.6487,153.703,98.6855,98.4484,0.00319139,0.100543,20.971,179.515,0.0214778,0.0,0.0
1804,450.75,20.8776,21.4441,160.543,98.6959,97.9593,0.00318539,0.0997593,20.972,179.505,0.06687,0.0,0.0
1808,451.75,21.0626,21.4807,157.509,98.6875,97.7488,0.00315913,0.0991048,20.9726,179.495,0.0853121,0.0,0.0
1812,452.75,20.8653,21.9905,154.73,98.6983,98.6882,0.00312607,0.0985584,20.973,179.505,0.000917131,0.0,0.0
1816,453.75,20.6142,21.4126,159.977,98.6895,98.4645,0.00311845,0.0980526,20.9733,179.475,0.0203749,0.0,0.0
1820,454.75,20.6181,21.6497,157.189,98.6835,98.1664,0.00313835,0.0975622,20.9739,179.455,0.0468963,0.0,0.0
1824,455.75,20.4914,21.8592,154.523,98.6995,98.3586,0.00318348,0.0971143,20.9747,179.435,0.0308837,0.0,0.0
1828,456.75,21.1965,21.8809,151.229,98.6939,97.7815,0.00322761,0.0967383,20.9752,179.415,0.0829015,0.0,0.0
1832,457.75,20.8157,21.4307,159.631,98.6972,98.1583,0.00325268,0.0964558,20.9755,179.435,0.0488627,0.0,0.0
1836,458.75,20.63,21.7721,156.833,98.6967,98.6542,,0.0963963,,179.445,0.00384983,0.0,0.0
1840,459.75,20.9581,21.7078,159.06,98.6931,98.2281,,0.0963321,,179.435,0.0421607,0.0,0.0
1844,460.75,20.7596,21.8773,161.65,98.6919,98.186,,0.0963655,,179.425,0.0458791,0.0,0.0
1848,461.75,20.8678,21.3814,160.675,98.6911,98.1617,,,,179.415,0.0480097,0.0,0.0
1852,462.75,20.9435,21.4752,152.423,98.6931,98.2693,,,,179.395,0.0384132,0.0,0.0
1856,463.75,20.53,21.4587,157.636,98.6923,97.5442,,,,179.395,0.104444,0.0,0.0
1860,464.75,21.1633,21.392,158.768,98.6959,98.6338,,,,179.395,0.00562472,0.0,0.0
1864,465.75,20.3913,21.8017,161.75,98.6883,98.0341,,,,179.375,0.0593655,0.0,0.0
1868,466.75,20.1497,21.2918,156.936,98.6871,98.3527,,,,179.375,0.0303026,0.0,0.0
1872,467.75,20.7218,21.1899,162.553,98.6907,98.5109,,,,179.355,0.0162826,0.0,0.0
1876,468.75,20.3815,21.1086,159.09,98.7028,98.1621,,,,179.355,0.0490214,0.0,0.0
1878,469.25,20.8835,21.9239,162.543,98.6779,98.4862,,,,179.345,0.0173595,0.0,0.0