File: 01_Data/Vinyl_Tile/Cone/Vinyl_Tile_Cone_HF50Scan_220510_R4.csv
Names,Time,Stack TC,Smoke TC,Exh Press,Smoke Comp,Smoke Meas,CO Meter,CO2 Meter,O2 Meter,Sample Mass,Ext Coeff,Start Test,Flame Verif
Chan Gain,,500,500,1,1,1,1,1,1,1,1,1.0,1.0
Offset,,0,0,0.135316,0,0,0,0,0,0,0,0.0,0.0
Gain,,1,1,25.011,13.8443,15.4071,1,1,1,1.00079,1.02936,1.0,1.0
Units,sec,C,C,Pa,%,%,%,%,%,g,/m,,
Baseline,,31.9562,32.9152,135.861,104.501,104.338,3.15292e-05,0.0423908,21.0024,-447.084,0.0141208,,
2,0.25,30.7195,32.1007,134.336,104.456,104.2,-9.38314e-05,0.0466329,20.9957,534.161,0.022183,0.0,0.0
4,0.75,30.1371,31.3302,137.685,104.401,104.032,-5.9593e-05,0.0464557,20.9957,533.981,0.0319135,0.0,0.0
6,1.25,28.9158,30.8734,134.666,104.34,104.15,-2.33096e-05,0.0462444,20.9958,534.271,0.0164581,0.0,0.0
8,1.75,29.2142,30.4584,135.57,104.292,104.057,1.05151e-05,0.0460732,20.9958,534.091,0.0203586,0.0,0.0
10,2.25,29.0093,30.0463,140.125,104.226,104.239,4.19047e-05,0.0459074,20.9963,534.241,-0.00108776,0.0,0.0
12,2.75,28.9035,30.7303,138.012,104.174,104.094,6.73303e-05,0.0457731,20.9967,534.081,0.00692502,0.0,0.0
14,3.25,29.192,30.4274,133.442,104.117,104.48,8.7925e-05,0.0456072,20.997,534.231,-0.0314434,0.0,0.0
16,3.75,28.7981,30.5334,133.208,104.056,103.853,0.000104607,0.0454214,20.9972,534.131,0.0176496,0.0,0.0
18,4.25,29.3587,30.2495,138.686,104.001,103.902,0.000118119,0.0452353,20.9974,534.211,0.00855436,0.0,0.0
20,4.75,29.2825,30.6276,130.992,103.944,104.253,0.000114377,0.0450523,20.9975,534.151,-0.026834,0.0,0.0
22,5.25,29.4891,30.3843,134.445,103.893,103.983,0.000107978,0.0449113,20.9981,534.211,-0.00778892,0.0,0.0
24,5.75,29.5298,30.4987,135.852,103.854,103.775,8.9561e-05,0.0448035,20.9985,534.101,0.00685726,0.0,0.0
26,6.25,28.7541,30.342,134.579,103.797,103.925,7.46432e-05,0.0447162,20.9988,534.181,-0.011182,0.0,0.0
28,6.75,29.4233,30.9546,134.596,103.788,103.504,5.41391e-05,0.0446455,20.9991,534.121,0.0247608,0.0,0.0
30,7.25,29.7333,30.2313,133.733,103.724,103.448,3.75308e-05,0.0446153,20.9993,534.111,0.0240544,0.0,0.0
32,7.75,29.2883,30.8168,138.247,103.671,103.707,2.4078e-05,0.0446025,20.9995,534.121,-0.00312531,0.0,0.0
34,8.25,29.192,30.3868,134.733,103.635,103.699,1.31813e-05,0.0446162,20.9996,534.151,-0.00559845,0.0,0.0
36,8.75,29.7418,30.9466,135.216,103.596,103.445,4.35496e-06,0.0446594,20.9998,534.101,0.0132267,0.0,0.0
38,9.25,29.5855,30.3228,137.537,103.557,103.954,-3.4273e-06,0.0447215,20.9999,534.171,-0.034578,0.0,0.0
40,9.75,29.3305,30.6365,136.15,103.532,103.419,-1.03006e-05,0.0447718,20.9999,534.081,0.00988557,0.0,0.0
42,10.25,29.3791,30.6745,139.686,103.486,103.632,-1.5235e-05,0.0448126,21,534.191,-0.0127088,0.0,0.0
44,10.75,29.7719,30.5014,138.244,103.468,103.394,-1.86622e-05,0.0448456,21,534.201,0.00638184,0.0,0.0
46,11.25,29.2683,31.0584,132.599,103.439,103.668,-1.06123e-05,0.0448724,21.0001,534.191,-0.0199558,0.0,0.0
48,11.75,29.5653,30.7341,135.532,103.428,103.151,-4.09191e-06,0.0448655,21.0001,534.191,0.0241693,0.0,0.0
50,12.25,29.4743,30.7801,137.035,103.396,103.254,1.57579e-05,0.0448342,21.0001,534.191,0.0124346,0.0,0.0
52,12.75,29.9581,30.8935,134.557,103.389,103.197,4.49477e-05,0.0448303,21.0002,534.201,0.0167837,0.0,0.0
54,13.25,29.5172,31.0138,140.227,103.38,103.203,6.85915e-05,0.0448464,21.0002,534.201,0.0155513,0.0,0.0
56,13.75,29.8378,30.7659,139.148,103.374,102.759,0.000119058,0.0449165,20.9998,534.191,0.053875,0.0,0.0
58,14.25,29.7204,30.4696,136.225,103.365,102.872,0.000159936,0.0450248,20.9994,534.191,0.0431945,0.0,0.0
60,14.75,29.6858,31.0605,135.845,103.375,103.001,0.000203196,0.0452338,20.9991,534.181,0.032733,0.0,0.0
62,15.25,29.9263,30.6257,134.966,103.359,103.029,0.000247372,0.0455125,20.9989,534.181,0.0289409,0.0,0.0
64,15.75,29.7079,30.6782,137.13,103.372,102.953,0.000285693,0.0458453,20.9987,534.191,0.0366424,0.0,0.0
66,16.25,29.4869,30.3882,139.048,103.391,103.216,0.000319017,0.0462114,20.9982,534.191,0.0152858,0.0,0.0
68,16.75,29.4394,31.1541,138.244,103.406,103.173,0.000340934,0.0465079,20.9977,534.191,0.0203951,0.0,0.0
70,17.25,30.2623,30.9946,137.046,103.418,102.837,0.000354118,0.0468982,20.9969,534.171,0.0508604,0.0,0.0
72,17.75,29.5627,30.9346,135.084,103.443,103.783,0.000364797,0.0473495,20.9962,534.151,-0.0296101,0.0,0.0
74,18.25,29.5414,30.5283,137.436,103.459,102.987,0.000354165,0.047715,20.9954,534.151,0.0412789,0.0,0.0
76,18.75,29.4815,30.6926,136.963,103.493,103.464,0.000345552,0.0481333,20.9946,534.181,0.00251841,0.0,0.0
78,19.25,29.6295,31.2223,138.196,103.509,103.236,0.00032653,0.048465,20.9939,534.201,0.0238794,0.0,0.0
80,19.75,29.7273,30.5411,138.795,103.561,103.601,0.000311123,0.0487273,20.9934,534.201,-0.00348173,0.0,0.0
82,20.25,29.6818,30.9002,134.82,103.585,103.265,0.000302256,0.0489397,20.993,534.181,0.0280031,0.0,0.0
84,20.75,29.9334,30.6674,133.624,103.642,103.05,0.000295073,0.0490574,20.9926,534.201,0.0517401,0.0,0.0
86,21.25,29.6043,31.0528,138.216,103.665,103.22,0.000289256,0.0491527,20.9923,534.201,0.0387895,0.0,0.0
88,21.75,29.3161,30.9063,136.072,103.72,102.855,0.000299001,0.0491484,20.9923,534.181,0.0756242,0.0,0.0
90,22.25,29.4261,30.8658,134.387,103.753,102.942,0.000306894,0.049145,20.9925,534.191,0.0708228,0.0,0.0
92,22.75,29.5607,30.4695,138.036,103.81,102.193,0.000322929,0.0490742,20.9927,534.161,0.141765,0.0,0.0
94,23.25,29.6681,30.8128,136.882,103.84,100.811,0.000335917,0.0490169,20.9928,534.141,0.267301,0.0,0.0
96,23.75,29.6215,30.7347,130.825,103.885,98.7062,0.000368019,0.0489205,20.9929,534.131,0.461771,0.0,0.0
98,24.25,29.6864,30.4747,136.538,103.929,97.4334,0.000413445,0.0487973,20.993,534.111,0.582743,0.0,0.0
100,24.75,29.6005,30.4897,139.617,103.978,96.8094,0.000519592,0.0486976,20.9931,534.101,0.645008,0.0,0.0
102,25.25,29.7262,30.8529,134.999,104.013,96.596,0.00066799,0.0486168,20.9931,534.061,0.668022,0.0,0.0
104,25.75,30.0684,30.6971,137.128,104.069,96.2706,0.00092894,0.0485513,20.9932,534.041,0.703328,0.0,0.0
106,26.25,30.0729,30.9105,135.042,104.105,97.0859,0.00126698,0.0490962,20.9932,533.991,0.630259,0.0,0.0
108,26.75,29.981,31.1976,138.144,104.16,94.7463,0.0015408,0.0495376,20.9924,533.981,0.855322,0.0,0.0
110,27.25,30.2178,31.1335,135.007,104.193,95.4008,0.00176259,0.0514454,20.9917,533.931,0.796018,0.0,0.0
112,27.75,29.4821,30.7231,136.167,104.242,96.7751,0.00256846,0.054386,20.9871,533.931,0.671148,0.0,0.0
114,28.25,30.675,30.7923,132.288,104.277,97.6704,0.00322122,0.0589887,20.9835,533.911,0.59104,0.0,0.0
116,28.75,29.6433,31.2963,133.128,104.328,91.3313,0.00374996,0.0647156,20.9805,533.871,1.20135,0.0,1.0
118,29.25,30.2536,31.2324,130.112,104.36,81.8753,0.00491602,0.0693544,20.9739,533.841,2.19101,0.0,1.0
120,29.75,29.9533,30.752,130.738,104.407,83.6188,0.00541313,0.0731118,20.9692,533.811,2.00477,0.0,1.0
122,30.25,29.8834,31.4322,130.543,104.429,86.2048,0.00646249,0.0821812,20.961,533.811,1.73169,0.0,1.0
124,30.75,30.5974,31.6661,126.962,104.483,85.657,0.00749184,0.0895274,20.9462,533.771,1.79392,0.0,1.0
126,31.25,30.4777,30.8221,127.782,104.499,85.4986,0.00848143,0.097586,20.9341,533.671,1.81203,0.0,1.0
128,31.75,30.6909,31.5927,127.941,104.558,86.2349,0.00942323,0.106011,20.9165,533.621,1.73971,0.0,1.0
130,32.25,30.7016,31.7086,131.589,104.566,86.028,0.0103158,0.112835,20.9022,533.601,1.76209,0.0,1.0
132,32.75,31.1628,31.8374,128.584,104.608,87.2952,0.0111555,0.115744,20.8841,533.571,1.63367,0.0,1.0
134,33.25,31.3081,31.9917,127.949,104.63,87.3963,0.0119429,0.1247,20.8695,533.491,1.62512,0.0,1.0
136,33.75,31.2745,31.677,128.087,104.657,89.2606,0.0126772,0.131953,20.8554,533.421,1.43683,0.0,1.0
138,34.25,31.2493,32.1637,123.747,104.672,88.1227,0.0132719,0.140105,20.8441,533.371,1.55395,0.0,1.0
140,34.75,31.2244,31.6749,127.677,104.696,88.977,0.0140225,0.146707,20.8328,533.371,1.46895,0.0,1.0
142,35.25,31.6066,31.7237,128.829,104.694,88.6841,0.0146305,0.155046,20.8218,533.241,1.49858,0.0,1.0
144,35.75,31.2773,32.8952,130.428,104.721,86.9124,0.015123,0.161801,20.8129,533.211,1.68308,0.0,1.0
146,36.25,31.9995,32.4558,124.436,104.725,85.4205,0.0157793,0.170262,20.8008,533.121,1.83975,0.0,1.0
148,36.75,32.2866,32.5372,129.567,104.729,85.3378,0.0160591,0.177116,20.7957,533.02,1.84883,0.0,1.0
150,37.25,32.4464,32.6804,124.25,104.731,84.4806,0.0166233,0.184634,20.7869,532.96,1.9402,0.0,1.0
152,37.75,32.5076,32.9472,124.458,104.73,85.6702,0.0170803,0.190723,20.7799,532.88,1.81383,0.0,1.0
154,38.25,32.9604,32.3723,131.325,104.731,85.6965,0.0174188,0.195631,20.7741,532.78,1.81113,0.0,1.0
156,38.75,33.448,33.2981,125.885,104.721,87.5256,0.017693,0.199586,20.7694,532.65,1.61957,0.0,0.0
158,39.25,33.4685,33.8672,127.237,104.723,86.3139,0.0178464,0.20279,20.7657,532.57,1.74563,0.0,0.0
160,39.75,33.313,33.5019,127.548,104.702,85.1013,0.017909,0.203533,20.7648,532.54,1.87159,0.0,0.0
162,40.25,34.0905,34.1879,127.525,104.691,86.1456,0.0178878,0.204803,20.7641,532.45,1.76052,0.0,0.0
164,40.75,33.8347,34.3546,128.525,104.656,82.803,0.0178059,0.205723,20.7635,532.37,2.11483,0.0,0.0
166,41.25,34.3981,34.5044,129.048,104.648,80.5644,0.0176659,0.20637,20.7631,532.31,2.36161,0.0,0.0
168,41.75,34.5488,34.8632,129.277,104.612,81.028,0.0174862,0.207618,20.7627,532.29,2.30673,0.0,0.0
170,42.25,34.6282,34.2448,125.763,104.596,79.3537,0.0173406,0.209281,20.7624,532.22,2.49388,0.0,0.0
172,42.75,34.6635,34.6545,125.974,104.552,75.5753,0.0171465,0.210628,20.7621,532.18,2.93053,0.0,0.0
174,43.25,34.9799,35.4424,124.076,104.541,75.3505,0.0169207,0.214863,20.7563,532.05,2.95651,0.0,0.0
176,43.75,35.1305,35.6632,126.029,104.515,76.2829,0.0167015,0.220061,20.7515,531.89,2.84324,0.0,0.0
178,44.25,35.5375,35.5001,125.318,104.497,73.0734,0.0164914,0.225864,20.742,531.85,3.22976,0.0,0.0
180,44.75,35.5874,35.6113,126.81,104.472,71.9304,0.0163211,0.230564,20.7343,531.779,3.37,0.0,0.0
182,45.25,36.0033,36.0243,126.769,104.45,72.6841,0.0161092,0.238276,20.7255,531.74,3.27398,0.0,0.0
184,45.75,35.5542,35.8818,126.23,104.411,70.675,0.0159376,0.244523,20.7161,531.8,3.52368,0.0,0.0
186,46.25,36.2635,36.3398,131.267,104.388,75.1573,0.0157364,0.251373,20.7058,531.619,2.96644,0.0,0.0
188,46.75,36.3997,36.7286,125.508,104.359,74.0547,0.0155734,0.258531,20.6949,531.649,3.09744,0.0,0.0
190,47.25,36.28,36.718,125.169,104.345,72.6479,0.0153702,0.264329,20.6852,531.619,3.26934,0.0,0.0
192,47.75,36.4477,36.7153,125.699,104.308,73.9564,0.0152056,0.270726,20.6765,531.559,3.105,0.0,0.0
194,48.25,37.1432,37.0506,124.333,104.294,78.0099,0.0149896,0.275906,20.6692,531.529,2.62191,0.0,0.0
196,48.75,36.9227,37.1782,127.282,104.253,74.6565,0.0148146,0.281074,20.6631,531.459,3.0151,0.0,0.0
198,49.25,36.7697,37.1492,127.475,104.229,76.9642,0.0146729,0.28526,20.6582,531.429,2.73817,0.0,0.0
200,49.75,37.4613,37.518,125.551,104.209,79.9532,0.0144345,0.289562,20.6542,531.379,2.39238,0.0,0.0
202,50.25,37.4216,37.7188,125.783,104.21,80.469,0.0142414,0.293047,20.6504,531.339,2.33443,0.0,0.0
204,50.75,37.8642,37.8269,124.859,104.194,82.0704,0.0140849,0.296737,20.647,531.269,2.1551,0.0,0.0
206,51.25,37.6159,37.5204,126.528,104.195,80.8672,0.0138751,0.299726,20.6443,531.199,2.28857,0.0,0.0
208,51.75,38.0911,37.2623,123.993,104.205,81.8654,0.0136303,0.302472,20.6429,531.159,2.17864,0.0,0.0
210,52.25,38.3854,38.1093,126.151,104.305,82.5373,0.013354,0.304988,20.6418,531.099,2.11354,0.0,0.0
212,52.75,38.6001,38.2703,122.024,104.404,85.9777,0.0131302,0.307026,20.6409,531.009,1.75336,0.0,0.0
214,53.25,38.1892,38.2832,125.763,104.495,87.4837,0.0128774,0.308677,20.6399,530.949,1.60438,0.0,0.0
216,53.75,38.8003,38.9018,127.478,104.578,87.0267,0.0126726,0.310189,20.6389,530.879,1.65886,0.0,0.0
218,54.25,38.4757,38.9084,128.666,104.648,87.5712,0.0124738,0.311571,20.6381,530.849,1.60856,0.0,0.0
220,54.75,38.991,39.1163,125.43,104.704,88.2788,0.0122832,0.313092,20.6374,530.759,1.54077,0.0,0.0
222,55.25,39.5337,39.5486,126.832,104.783,89.2474,0.0121,0.314684,20.6369,530.709,1.44902,0.0,0.0
224,55.75,39.5875,39.6113,123.38,104.851,90.2268,0.0119256,0.31641,20.6369,530.739,1.35633,0.0,0.0
226,56.25,39.5192,39.7234,123.735,104.895,89.2559,0.0117844,0.3182,20.6369,530.629,1.45784,0.0,0.0
228,56.75,39.8081,39.8186,122.265,104.931,91.7145,0.0116344,0.319951,20.6369,530.569,1.21561,0.0,0.0
230,57.25,39.4163,40.0379,130.725,104.988,92.5777,0.0115129,0.321643,20.6369,530.458,1.13585,0.0,0.0
232,57.75,40.1271,40.072,122.691,105.013,93.1603,0.0114065,0.323063,20.637,530.338,1.08143,0.0,0.0
234,58.25,40.004,40.6134,127.61,105.06,92.9614,0.011313,0.324259,20.637,530.308,1.10472,0.0,0.0
236,58.75,40.377,40.5126,129.97,105.067,93.2078,0.011232,0.325227,20.6372,530.218,1.0814,0.0,0.0
238,59.25,40.8182,40.7154,124.299,105.096,91.8795,0.0111615,0.325772,20.6376,530.148,1.21354,0.0,0.0
240,59.75,40.4565,40.5295,125.683,105.095,93.7654,0.0110994,0.326214,20.6384,530.168,1.03001,0.0,0.0
242,60.25,40.5197,40.6046,124.076,105.11,92.6012,0.011049,0.326429,20.6394,530.098,1.14409,0.0,0.0
244,60.75,40.7803,40.6626,127.457,105.107,93.1391,0.0110029,0.326474,20.6403,530.048,1.0915,0.0,0.0
246,61.25,40.6233,41.5673,129.59,105.112,94.2234,0.0109607,0.326234,20.6422,529.888,0.98743,0.0,0.0
248,61.75,41.3138,41.293,123.38,105.09,94.2775,0.0109232,0.325791,20.6439,529.878,0.980363,0.0,0.0
250,62.25,41.4889,41.8862,122.506,105.073,93.2797,0.0108899,0.325139,20.6469,529.898,1.07498,0.0,0.0
252,62.75,41.4764,41.1549,123.067,105.053,93.1147,0.0108628,0.324347,20.6494,529.828,1.08922,0.0,0.0
254,63.25,41.2525,41.2124,124.906,105.032,92.6727,0.0108436,0.323581,20.6514,529.778,1.13044,0.0,0.0
256,63.75,41.2421,41.452,120.852,104.986,94.0297,0.0108304,0.322847,20.653,529.668,0.995192,0.0,0.0
258,64.25,41.85,42.1833,123.395,104.943,96.4309,0.0108324,0.322252,20.6543,529.588,0.763792,0.0,0.0
260,64.75,42.0726,42.434,125.369,104.887,94.7933,0.0108455,0.322184,20.6554,529.448,0.913656,0.0,0.0
262,65.25,42.3656,42.492,124.599,104.839,95.6895,0.0108742,0.322128,20.6563,529.458,0.824508,0.0,0.0
264,65.75,42.6594,42.2325,126.507,104.773,95.8907,0.0109137,0.322577,20.6565,529.448,0.799896,0.0,0.0
266,66.25,42.127,42.7115,125.88,104.717,95.6095,0.0109604,0.32294,20.6567,529.388,0.821604,0.0,0.0
268,66.75,42.7584,42.8223,126.592,104.632,95.894,0.0110115,0.323385,20.6565,529.278,0.787454,0.0,0.0
270,67.25,42.4499,42.206,130.757,104.561,95.342,0.0110333,0.323881,20.6564,529.207,0.833417,0.0,0.0
272,67.75,42.3473,43.0252,124.453,104.556,95.5964,0.0110781,0.324686,20.6555,529.198,0.808957,0.0,0.0
274,68.25,42.8232,43.7193,123.754,104.603,96.0515,0.0111145,0.325702,20.6541,529.137,0.770082,0.0,0.0
276,68.75,43.6442,43.3173,124.828,104.628,98.7325,0.011135,0.326524,20.6531,529.087,0.52369,0.0,0.0
278,69.25,43.1778,43.6325,123.31,104.658,99.7359,0.0111517,0.328568,20.6504,529.007,0.434943,0.0,0.0
280,69.75,42.6735,44.1981,126.193,104.695,98.7109,0.0111652,0.330224,20.6483,528.907,0.531428,0.0,0.0
282,70.25,43.2469,43.2142,124.875,104.73,99.6207,0.0111621,0.331607,20.6459,528.817,0.451609,0.0,0.0
284,70.75,43.2311,44.2666,122.458,104.76,99.0132,0.0111596,0.333974,20.6433,528.797,0.509388,0.0,0.0
286,71.25,44.1491,44.0392,121.613,104.796,99.97,0.0111665,0.336529,20.6413,528.727,0.425716,0.0,0.0
288,71.75,43.5989,44.3103,124.331,104.834,99.8878,0.011172,0.339173,20.6378,528.647,0.436391,0.0,0.0
290,72.25,43.6432,44.4185,123.937,104.882,99.7871,0.0111946,0.341862,20.635,528.507,0.449603,0.0,0.0
292,72.75,43.8828,43.9764,128.953,104.929,100.121,0.0112292,0.344532,20.6328,528.417,0.423482,0.0,0.0
294,73.25,44.2271,44.8536,119.319,104.956,100.338,0.0112573,0.346695,20.6297,528.397,0.406354,0.0,0.0
296,73.75,44.5637,44.6884,122.899,105.013,100.576,0.0113263,0.34916,20.6271,528.317,0.389796,0.0,0.0
298,74.25,44.4022,45.1889,123.236,105.038,100.8,0.0114238,0.351797,20.6234,528.217,0.371905,0.0,0.0
300,74.75,44.8203,45.3041,125.917,105.081,100.87,0.0115706,0.354503,20.6195,528.227,0.36922,0.0,0.0
302,75.25,44.7656,44.8932,124.725,105.119,98.835,0.0116895,0.357206,20.6156,528.077,0.556554,0.0,0.0
304,75.75,44.1774,45.7344,125.195,105.165,98.686,0.0118561,0.359396,20.6123,528.077,0.574172,0.0,0.0
306,76.25,45.2477,45.9138,125.94,105.19,98.9822,0.0119912,0.361845,20.608,527.917,0.549214,0.0,0.0
308,76.75,44.8276,45.4791,124.16,105.218,99.9743,0.0121005,0.364437,20.6044,527.846,0.461628,0.0,0.0
310,77.25,45.923,45.966,123.419,105.246,99.0325,0.012281,0.367215,20.6016,527.756,0.549448,0.0,0.0
312,77.75,46.1587,45.6589,124.125,105.284,98.2035,0.0125099,0.370076,20.5962,527.756,0.628608,0.0,0.0
314,78.25,45.9876,46.1047,121.819,105.315,97.1644,0.0127597,0.372882,20.5919,527.666,0.727304,0.0,0.0
316,78.75,45.8547,46.1231,124.86,105.343,98.2214,0.0130201,0.375596,20.5866,527.596,0.632001,0.0,0.0
318,79.25,46.0588,46.2856,121.819,105.358,97.6064,0.0132894,0.377794,20.5823,527.566,0.690055,0.0,0.0
320,79.75,46.521,46.3921,122.818,105.386,96.9994,0.0135603,0.379857,20.578,527.446,0.748738,0.0,0.0
322,80.25,46.7391,46.7332,122.734,105.397,96.6726,0.0138178,0.381528,20.5745,527.406,0.780149,0.0,0.0
324,80.75,46.3669,47.0754,126.242,105.416,97.3511,0.0140608,0.383065,20.5708,527.266,0.718628,0.0,0.0
326,81.25,46.897,47.0171,123.524,105.428,97.7437,0.0142576,0.384476,20.5678,527.096,0.683335,0.0,0.0
328,81.75,46.6045,47.2373,123.979,105.426,96.6877,0.0144534,0.385619,20.5653,527.036,0.781242,0.0,0.0
330,82.25,46.6422,47.115,119.026,105.425,97.0774,0.0146119,0.386845,20.5633,527.016,0.744877,0.0,0.0
332,82.75,47.0978,47.5764,127.8,105.422,97.2354,0.0147377,0.387838,20.5617,526.856,0.729941,0.0,0.0
334,83.25,47.0326,47.4845,120.694,105.417,96.927,0.0148397,0.388359,20.5605,526.826,0.758159,0.0,0.0
336,83.75,47.3978,47.9502,120.613,105.421,96.4041,0.0149222,0.388781,20.5594,526.776,0.807324,0.0,0.0
338,84.25,47.614,47.7162,121.479,105.385,96.3924,0.0149735,0.388308,20.559,526.736,0.805384,0.0,0.0
340,84.75,48.1627,48.1805,123.633,105.4,96.572,0.0150151,0.387924,20.5587,526.696,0.789843,0.0,0.0
342,85.25,48.1093,48.5904,124.315,105.361,96.0087,0.0150397,0.386453,20.5591,526.545,0.839296,0.0,0.0
344,85.75,48.5224,48.2603,123.881,105.342,93.4669,0.0150596,0.385261,20.56,526.515,1.07998,0.0,0.0
346,86.25,47.6229,49.1729,123.578,105.315,94.6024,0.0150601,0.383714,20.5612,526.415,0.968591,0.0,0.0
348,86.75,48.1512,48.9935,122.69,105.297,95.7675,0.0150606,0.381936,20.5622,526.455,0.856504,0.0,0.0
350,87.25,48.7292,48.7574,123.122,105.249,94.5685,0.0150428,0.380496,20.5637,526.325,0.966206,0.0,0.0
352,87.75,48.2311,49.5911,122.947,105.228,94.8088,0.0150284,0.378195,20.5655,526.275,0.941446,0.0,0.0
354,88.25,48.3112,49.7924,126.369,105.181,94.7655,0.0150103,0.376332,20.5677,526.235,0.941542,0.0,0.0
356,88.75,48.4652,49.3354,121.51,105.142,92.3694,0.0149956,0.373741,20.5701,526.115,1.16948,0.0,0.0
358,89.25,48.5487,50.0844,123.172,105.086,93.3949,0.0149837,0.371643,20.5727,526.035,1.06496,0.0,0.0
360,89.75,48.8139,49.9013,125.182,105.051,92.2566,0.0149741,0.369085,20.5754,526.005,1.17268,0.0,0.0
362,90.25,48.7428,49.6572,122.083,104.997,93.4711,0.0149663,0.366242,20.5776,525.885,1.04997,0.0,0.0
364,90.75,49.1233,50.1159,124.173,104.948,92.7795,0.0149612,0.362967,20.5808,525.795,1.11275,0.0,0.0
366,91.25,49.1155,50.0297,125.189,104.881,93.6766,0.0149572,0.359439,20.5846,525.805,1.02011,0.0,0.0
368,91.75,49.363,49.8984,127.353,104.829,92.3168,0.0149383,0.355836,20.5886,525.665,1.14767,0.0,0.0
370,92.25,48.7128,49.8961,122.656,104.758,91.888,0.0149231,0.352247,20.5927,525.595,1.18363,0.0,0.0
372,92.75,49.4188,49.716,127.808,104.708,92.2622,0.0148602,0.348698,20.5965,525.535,1.14259,0.0,0.0
374,93.25,49.1034,50.2081,120.433,104.64,91.6247,0.0148093,0.345247,20.5999,525.545,1.1993,0.0,0.0
376,93.75,48.9498,49.6539,126.51,104.585,91.5339,0.0147138,0.342452,20.6034,525.465,1.20354,0.0,0.0
378,94.25,49.0862,49.9619,123.484,104.52,90.8366,0.0146731,0.338911,20.6052,525.404,1.26693,0.0,0.0
380,94.75,49.2719,50.0631,123.174,104.454,91.0289,0.0145425,0.336043,20.6096,525.375,1.24222,0.0,0.0
382,95.25,49.3969,50.6476,122.891,104.376,88.9328,0.0144877,0.332843,20.6108,525.375,1.44581,0.0,0.0
384,95.75,49.9256,50.5036,130.567,104.321,89.1054,0.0143939,0.329462,20.6142,525.314,1.42355,0.0,0.0
386,96.25,49.2441,50.2437,122.37,104.247,87.9516,0.014318,0.32586,20.6182,525.264,1.5348,0.0,0.0
388,96.75,49.3114,50.6965,127.361,104.212,88.1105,0.0141637,0.322165,20.6226,525.214,1.51542,0.0,0.0
390,97.25,49.0497,49.9413,128.3,104.118,87.3483,0.0140387,0.32059,20.6272,525.214,1.58578,0.0,0.0
392,97.75,49.3339,50.1308,126.833,104.065,88.236,0.0139375,0.31431,20.6309,525.184,1.48989,0.0,0.0
394,98.25,49.3766,50.4869,122.287,104.002,87.4132,0.0137604,0.312621,20.6349,525.144,1.56895,0.0,0.0
396,98.75,49.3194,50.6394,130.891,103.962,86.5796,0.013617,0.309732,20.6389,525.064,1.65203,0.0,0.0
398,99.25,49.1384,50.4913,130.135,103.877,87.2058,0.0134418,0.304453,20.6437,525.024,1.57961,0.0,0.0
400,99.75,49.0356,50.294,125.42,103.834,87.3793,0.0132999,0.300177,20.6491,524.984,1.55791,0.0,0.0
402,100.25,49.2931,50.9857,129.874,103.767,87.7028,0.0131298,0.296713,20.6535,524.934,1.51867,0.0,0.0
404,100.75,49.1516,50.9789,122.706,103.728,86.1136,0.0129921,0.292103,20.6596,524.874,1.68041,0.0,0.0
406,101.25,49.4662,50.6386,128.935,103.666,85.9843,0.0128469,0.288369,20.6646,524.774,1.6886,0.0,0.0
408,101.75,49.0936,50.8159,125.71,103.639,85.3561,0.012699,0.284529,20.6713,524.674,1.75249,0.0,0.0
410,102.25,49.1177,50.015,124.144,103.576,87.0695,0.0125792,0.280686,20.6766,524.624,1.56751,0.0,0.0
412,102.75,48.5292,50.2061,126.832,103.557,85.9523,0.0124804,0.276938,20.6799,524.594,1.68246,0.0,0.0
414,103.25,49.2554,50.5299,128.217,103.502,87.2091,0.0123115,0.273331,20.6854,524.644,1.54656,0.0,0.0
416,103.75,48.9049,50.6702,124.703,103.49,84.5154,0.0120906,0.269858,20.6903,524.594,1.82883,0.0,0.0
418,104.25,48.8003,50.8552,125.544,103.446,84.9837,0.0119117,0.266548,20.6947,524.614,1.77506,0.0,0.0
420,104.75,49.5832,51.017,127.041,103.432,85.3655,0.0117668,0.2635,20.6982,524.474,1.73344,0.0,0.0
422,105.25,48.9448,51.1195,127.971,103.41,84.364,0.0115452,0.260701,20.7016,524.524,1.83801,0.0,0.0
424,105.75,48.9894,50.7723,128.026,103.399,84.5944,0.0113657,0.259507,20.7047,524.444,1.81246,0.0,0.0
426,106.25,48.2273,50.358,130.376,103.392,85.0134,0.011148,0.25722,20.7072,524.334,1.76726,0.0,0.0
428,106.75,49.0645,50.454,128.133,103.398,84.8088,0.0109717,0.255145,20.7093,524.334,1.78949,0.0,0.0
430,107.25,48.8284,51.0327,128.541,103.393,85.0143,0.0108016,0.253385,20.7109,524.434,1.7672,0.0,0.0
432,107.75,48.9452,50.8539,127.641,103.393,85.1309,0.0106393,0.251888,20.7123,524.424,1.75483,0.0,0.0
434,108.25,49.1511,50.7995,122.471,103.399,84.262,0.0104798,0.250675,20.7134,524.314,1.84801,0.0,0.0
436,108.75,48.9827,51.2682,131.191,103.41,83.6921,0.0103255,0.249934,20.7138,524.304,1.91028,0.0,0.0
438,109.25,48.7539,51.1165,126.614,103.419,85.0895,0.0102005,0.249334,20.7142,524.254,1.7615,0.0,0.0
440,109.75,48.7171,50.9586,129.055,103.433,85.5315,0.0100639,0.249048,20.714,524.234,1.71598,0.0,0.0
442,110.25,48.6694,50.3978,129.857,103.459,82.8058,0.00995323,0.248994,20.7134,524.234,2.01066,0.0,0.0
444,110.75,48.7654,50.142,128.348,103.476,81.8283,0.00984467,0.248951,20.7123,524.174,2.1194,0.0,0.0
446,111.25,48.9606,51.0259,126.569,103.514,81.186,0.00975675,0.249583,20.7108,524.103,2.19387,0.0,0.0
448,111.75,48.8913,50.8296,127.273,103.532,83.4354,0.00968552,0.250095,20.7095,524.053,1.94864,0.0,0.0
450,112.25,48.2415,50.8532,127.008,103.573,82.4151,0.00961396,0.251406,20.7068,524.043,2.06332,0.0,0.0
452,112.75,48.7208,51.0243,123.566,103.605,81.2547,0.00955599,0.252467,20.7045,524.103,2.19412,0.0,0.0
454,113.25,47.9848,50.5216,125.004,103.633,81.8847,0.0095103,0.254044,20.7018,524.073,2.1268,0.0,0.0
456,113.75,48.2999,50.6795,129.356,103.672,82.9403,0.00947329,0.25532,20.6988,524.053,2.01453,0.0,0.0
458,114.25,48.9609,50.7558,125.344,103.72,81.1484,0.00944715,0.256547,20.696,523.933,2.21598,0.0,0.0
460,114.75,49.1196,50.997,127.594,103.76,83.9639,0.00942597,0.257715,20.6935,523.763,1.91147,0.0,0.0
462,115.25,48.8618,50.8667,129.373,103.812,80.6251,0.0094227,0.25866,20.6912,523.793,2.28238,0.0,0.0
464,115.75,48.7543,51.1819,126.718,103.858,80.8729,0.00942004,0.259823,20.6891,523.833,2.25867,0.0,0.0
466,116.25,49.0364,50.8697,127.303,103.894,81.0685,0.0094444,0.260766,20.6866,523.723,2.23998,0.0,0.0
468,116.75,48.9769,50.9506,127.19,103.928,79.151,0.00946412,0.261931,20.6836,523.733,2.45909,0.0,0.0
470,117.25,48.7881,50.9956,132.636,103.988,81.6576,0.00949938,0.263237,20.6813,523.713,2.18279,0.0,0.0
472,117.75,48.781,50.789,126.427,104.025,80.1709,0.00954529,0.264804,20.6776,523.683,2.35193,0.0,0.0
474,118.25,49.1155,50.7492,128.12,104.081,79.7665,0.00958248,0.266532,20.6747,523.673,2.40243,0.0,0.0
476,118.75,49.2466,50.7442,125.133,104.112,79.4176,0.00964655,0.268532,20.6723,523.643,2.44468,0.0,0.0
478,119.25,48.8592,50.8878,125.14,104.164,79.2079,0.009729,0.270693,20.6703,523.643,2.4731,0.0,0.0
480,119.75,49.3822,50.995,128.489,104.199,81.9538,0.00979578,0.272956,20.667,523.633,2.16838,0.0,0.0
482,120.25,48.4486,50.828,124.05,104.254,81.4822,0.00984988,0.275251,20.6643,523.603,2.22525,0.0,0.0
484,120.75,48.9987,50.9665,120.636,104.291,78.742,0.00992535,0.27711,20.6609,523.593,2.53735,0.0,0.0
486,121.25,49.0801,51.7509,128.732,104.341,80.0994,0.00998648,0.279097,20.6581,523.513,2.38737,0.0,0.0
488,121.75,48.7044,50.875,124.464,104.369,78.5497,0.0100436,0.280706,20.6555,523.503,2.56616,0.0,0.0
490,122.25,49.166,51.3656,124.897,104.42,79.8883,0.0100899,0.28201,20.6529,523.483,2.41803,0.0,0.0
492,122.75,49.0601,51.5139,124.417,104.443,81.0403,0.0101362,0.283065,20.6508,523.433,2.2907,0.0,0.0
494,123.25,49.1487,51.1502,126.068,104.494,80.8056,0.0101738,0.283998,20.6491,523.433,2.3213,0.0,0.0
496,123.75,49.6036,51.2486,125.231,104.5,80.319,0.0102128,0.284754,20.6477,523.373,2.37635,0.0,0.0
498,124.25,49.5191,51.6886,124.27,104.538,76.7197,0.0102523,0.285459,20.6461,523.393,2.79362,0.0,0.0
500,124.75,49.866,51.5343,123.68,104.565,77.0761,0.0102843,0.286031,20.6449,523.313,2.75414,0.0,0.0
502,125.25,49.6685,51.4966,121.852,104.599,79.1576,0.0103304,0.286587,20.6436,523.273,2.51648,0.0,0.0
504,125.75,49.1432,51.2449,125.447,104.618,78.4801,0.0103678,0.287037,20.6425,523.243,2.59574,0.0,0.0
506,126.25,49.4893,51.8419,126.152,104.645,78.9719,0.0104047,0.287542,20.6417,523.233,2.54163,0.0,0.0
508,126.75,49.2047,51.7513,125.759,104.658,77.9144,0.0104406,0.28795,20.6406,523.203,2.66448,0.0,0.0
510,127.25,49.495,51.923,121.563,104.686,78.5878,0.0104718,0.288397,20.6397,523.103,2.58923,0.0,0.0
512,127.75,49.5688,51.9906,126.094,104.683,78.5737,0.0104988,0.288863,20.6389,523.073,2.59059,0.0,0.0
514,128.25,49.9025,52.002,121.958,104.718,76.5735,0.0105193,0.28924,20.6383,523.043,2.82637,0.0,0.0
516,128.75,49.3182,52.0698,127.875,104.706,78.5746,0.0105347,0.289653,20.6376,523.043,2.59242,0.0,0.0
518,129.25,49.5656,52.0407,127.374,104.73,78.4679,0.0105472,0.290082,20.6368,523.043,2.60677,0.0,0.0
520,129.75,50.0841,52.1288,123.056,104.723,78.7081,0.0105485,0.290431,20.6362,522.993,2.57854,0.0,0.0
522,130.25,49.7734,52.3929,122.928,104.732,76.9125,0.0105495,0.29051,20.6357,522.983,2.78773,0.0,0.0
524,130.75,50.0583,52.2035,129.161,104.729,80.3096,0.0105364,0.290575,20.6353,522.923,2.39717,0.0,0.0
526,131.25,50.0007,52.36,127.429,104.742,78.1919,0.0105257,0.29044,20.6349,522.822,2.63964,0.0,0.0
528,131.75,49.8077,52.3858,122.625,104.719,78.0273,0.0104943,0.290331,20.6347,522.772,2.65669,0.0,0.0
530,132.25,50.4619,52.6109,125.473,104.73,77.1184,0.0104688,0.290194,20.6344,522.792,2.7634,0.0,0.0
532,132.75,49.87,52.4436,123.707,104.701,75.6039,0.0104482,0.290038,20.6342,522.762,2.94001,0.0,0.0
534,133.25,50.3397,52.8343,125.713,104.711,78.9018,0.0103947,0.289847,20.6345,522.732,2.55529,0.0,0.0
536,133.75,49.8741,52.4904,124.673,104.682,76.2556,0.0103514,0.289633,20.6348,522.742,2.86084,0.0,0.0
538,134.25,50.4481,52.8613,127.863,104.683,80.2936,0.0102822,0.288963,20.6357,522.682,2.39504,0.0,0.0
540,134.75,50.3004,52.764,123.267,104.648,80.9251,0.0102261,0.28842,20.637,522.562,2.32124,0.0,0.0
542,135.25,50.0807,52.7585,121.002,104.64,81.5363,0.0101707,0.28776,20.6383,522.502,2.25268,0.0,0.0
544,135.75,50.6639,52.4687,127.484,104.616,80.6274,0.0101168,0.287027,20.6396,522.442,2.35178,0.0,0.0
546,136.25,50.0476,52.7546,125.742,104.6,81.3623,0.0100678,0.286433,20.6406,522.532,2.26846,0.0,0.0
548,136.75,50.3573,52.5785,126.008,104.564,79.9579,0.0100234,0.285937,20.6414,522.502,2.42259,0.0,0.0
550,137.25,50.3975,52.0667,125.569,104.542,77.7419,0.00997274,0.285535,20.6421,522.492,2.67443,0.0,0.0
552,137.75,50.1771,52.7515,124.956,104.509,77.6596,0.00991856,0.284802,20.6444,522.422,2.68115,0.0,0.0
554,138.25,50.1399,52.8915,125.621,104.49,79.6955,0.00985472,0.283842,20.6462,522.392,2.44588,0.0,0.0
556,138.75,50.0053,52.9327,126.433,104.463,79.3448,0.00978508,0.282489,20.6499,522.332,2.4834,0.0,0.0
558,139.25,51.1026,53.1682,127.098,104.463,81.462,0.00972866,0.280874,20.6529,522.342,2.24554,0.0,0.0
560,139.75,50.7266,52.8368,121.737,104.425,80.0435,0.00968296,0.278975,20.6553,522.342,2.40095,0.0,0.0
562,140.25,50.6423,53.2719,126.172,104.418,81.8227,0.00956777,0.276906,20.659,522.242,2.20179,0.0,0.0
564,140.75,50.3142,53.0493,123.622,104.383,81.6073,0.00947447,0.275231,20.662,522.212,2.22259,0.0,0.0
566,141.25,50.4324,53.3532,125.652,104.376,82.4946,0.00933471,0.272864,20.6662,522.162,2.12433,0.0,0.0
568,141.75,50.2897,52.8477,128.094,104.348,82.1523,0.0092215,0.270946,20.6696,522.112,2.15946,0.0,0.0
570,142.25,50.816,53.0884,129.103,104.342,83.5647,0.00905944,0.268493,20.6723,522.232,2.00502,0.0,0.0
572,142.75,50.529,53.1855,123.654,104.311,82.1621,0.00892817,0.266506,20.6752,522.122,2.15515,0.0,0.0
574,143.25,50.6411,53.0215,126.887,104.291,82.093,0.00882185,0.264897,20.6782,522.142,2.16104,0.0,0.0
576,143.75,50.5917,52.9397,126.96,104.274,82.3479,0.00863543,0.262757,20.6815,522.152,2.13155,0.0,0.0
578,144.25,50.6856,53.1545,126.149,104.252,82.0549,0.00848444,0.261024,20.685,522.062,2.16186,0.0,0.0
580,144.75,50.3474,53.2004,128.542,104.236,84.9113,0.00833316,0.258952,20.6888,522.052,1.85146,0.0,0.0
582,145.25,50.7824,53.0888,130.063,104.224,85.95,0.00818454,0.257275,20.6926,522.032,1.74065,0.0,0.0
584,145.75,50.3944,52.6748,130.267,104.192,84.5211,0.00804904,0.255916,20.6957,522.052,1.88925,0.0,0.0
586,146.25,50.1424,52.9589,125.031,104.184,84.9522,0.00792566,0.253455,20.7,522.032,1.84261,0.0,0.0
588,146.75,50.528,52.6754,128.157,104.168,85.3655,0.00782573,0.251461,20.7035,522.012,1.79743,0.0,0.0
590,147.25,50.0084,52.4429,130.086,104.157,89.174,0.00772967,0.248613,20.7063,521.982,1.40232,0.0,0.0
592,147.75,49.7193,52.8184,128.455,104.145,88.7302,0.00763825,0.246306,20.7112,521.962,1.44639,0.0,0.0
594,148.25,50.3204,53.29,125.329,104.139,87.8909,0.00755172,0.243641,20.7151,521.942,1.53166,0.0,0.0
596,148.75,49.7747,52.8694,122.369,104.124,89.8897,0.0074704,0.240765,20.721,521.902,1.32733,0.0,0.0
598,149.25,49.8791,53.0931,132.277,104.16,88.4937,0.00740454,0.238437,20.7257,521.812,1.47174,0.0,0.0
600,149.75,49.9067,52.9068,129.519,104.216,90.1046,0.00732125,0.235821,20.7307,521.822,1.31376,0.0,0.0
602,150.25,49.8976,52.8474,128.725,104.265,89.9165,0.00725379,0.233045,20.7357,521.842,1.33683,0.0,0.0
604,150.75,49.9427,52.7832,127.867,104.327,90.0589,0.00717298,0.230313,20.7407,521.812,1.32791,0.0,0.0
606,151.25,49.9557,52.8582,126.673,104.37,91.8189,0.00710752,0.227664,20.7456,521.772,1.15689,0.0,0.0
608,151.75,49.837,52.6998,127.141,104.41,91.4573,0.00703615,0.225518,20.7503,521.782,1.19599,0.0,0.0
610,152.25,49.3336,52.8838,128.88,104.453,92.1325,0.00696183,0.223039,20.7547,521.752,1.1333,0.0,0.0
612,152.75,49.8871,53.2029,131.398,104.456,93.2849,0.00685809,0.221031,20.7592,521.762,1.02128,0.0,0.0
614,153.25,49.6465,53.0587,130.095,104.476,93.1627,0.00677406,0.218807,20.7636,521.742,1.03487,0.0,0.0
616,153.75,49.319,52.3924,128.137,104.501,94.0885,0.006706,0.216467,20.7672,521.732,0.947738,0.0,0.0
618,154.25,49.0141,52.8454,125.914,104.532,94.1402,0.00658876,0.214069,20.771,521.692,0.945476,0.0,0.0
620,154.75,49.2476,52.9574,128.621,104.58,93.7114,0.00649379,0.211673,20.775,521.662,0.99086,0.0,0.0
622,155.25,49.0515,51.6279,127.82,104.624,93.9935,0.00639402,0.209346,20.7782,521.641,0.967475,0.0,0.0
624,155.75,49.4819,52.2436,127.971,104.65,93.5449,0.00629264,0.207114,20.7821,521.581,1.01289,0.0,0.0
626,156.25,48.8752,52.4043,128.727,104.693,95.065,0.00620009,0.205306,20.7852,521.591,0.871095,0.0,0.0
628,156.75,48.9947,52.0409,131.247,104.734,93.6573,0.00611572,0.202964,20.7891,521.551,1.0093,0.0,0.0
630,157.25,48.5003,51.6665,130.656,104.765,94.2474,0.00604217,0.201067,20.7922,521.571,0.955323,0.0,0.0
632,157.75,49.3478,51.8159,129.58,104.807,96.729,0.0059779,0.199069,20.7965,521.541,0.724246,0.0,0.0
634,158.25,48.7074,52.51,130.63,104.831,98.3907,0.00593041,0.197037,20.8,521.531,0.57249,0.0,0.0
636,158.75,49.4693,52.3743,131.753,104.868,95.8108,0.00589605,0.194992,20.8041,521.521,0.815579,0.0,0.0
638,159.25,48.8982,52.0788,128.857,104.883,96.0816,0.00588387,0.192978,20.8074,521.491,0.791436,0.0,0.0
640,159.75,48.2878,51.9526,129.02,104.918,97.2383,0.0058881,0.190903,20.8114,521.471,0.686405,0.0,0.0
642,160.25,48.6771,51.5435,126.99,104.938,98.8943,0.00589152,0.188823,20.8147,521.461,0.535597,0.0,0.0
644,160.75,48.5596,51.6921,129.315,104.964,98.126,0.00591454,0.186666,20.8173,521.461,0.608309,0.0,0.0
646,161.25,48.3614,51.7303,129.277,104.975,98.8886,0.0059514,0.184494,20.8212,521.411,0.539311,0.0,0.0
648,161.75,47.7732,51.4754,129.625,105.01,98.6676,0.00598126,0.182735,20.8243,521.361,0.562527,0.0,0.0
650,162.25,48.3,51.2914,133.894,105.007,99.0739,0.00602655,0.180444,20.8275,521.331,0.525136,0.0,0.0
652,162.75,48.3926,51.4207,134.797,105.031,99.3061,0.00606324,0.178588,20.8308,521.351,0.506063,0.0,0.0
654,163.25,48.0582,51.3751,128.484,105.021,99.2201,0.00610662,0.176177,20.8341,521.311,0.513054,0.0,0.0
656,163.75,48.2491,51.3306,131.642,105.045,99.6734,0.00614175,0.174225,20.8374,521.321,0.473933,0.0,0.0
658,164.25,47.5798,50.7273,127.6,105.049,99.2281,0.00618944,0.172644,20.843,521.291,0.514724,0.0,0.0
660,164.75,47.9047,51.1878,133.508,105.065,100.406,0.00620227,0.170286,20.8447,521.271,0.409593,0.0,0.0
662,165.25,47.5961,50.6489,132.737,105.064,101.137,0.00622668,0.168377,20.8478,521.271,0.344013,0.0,0.0
664,165.75,47.0889,50.8995,126.442,105.086,101.123,0.00624646,0.166128,20.8509,521.251,0.34704,0.0,0.0
666,166.25,47.6537,50.6213,129.493,105.084,100.681,0.00626249,0.164307,20.8541,521.231,0.386489,0.0,0.0
668,166.75,47.5562,50.8786,131.362,105.078,101.474,0.00627873,0.162479,20.8566,521.211,0.315127,0.0,0.0
670,167.25,47.1572,50.7997,132.333,105.071,100.659,0.00629484,0.159913,20.8585,521.261,0.38734,0.0,0.0
672,167.75,47.542,51.0861,134.446,105.101,101.116,0.00630788,0.158862,20.8601,521.241,0.349056,0.0,0.0
674,168.25,46.9948,50.1779,131.079,105.077,102.545,0.00631714,0.157066,20.8613,521.231,0.220244,0.0,0.0
676,168.75,46.4673,50.3197,133.049,105.088,102.438,0.00632346,0.155611,20.8632,521.221,0.230669,0.0,0.0
678,169.25,46.5039,49.5636,133.663,105.059,104.075,0.00633709,0.154433,20.8647,521.211,0.0849891,0.0,0.0
680,169.75,46.9991,49.4204,135.382,105.062,102.617,0.00635578,0.152284,20.8673,521.161,0.212604,0.0,0.0
682,170.25,46.964,49.692,135.01,105.058,102.379,0.0063899,0.150543,20.8693,521.141,0.233197,0.0,0.0
684,170.75,46.6737,50.1917,133.814,105.066,103.194,0.00643463,0.148481,20.8723,521.121,0.162346,0.0,0.0
686,171.25,46.4209,50.1866,131.112,105.043,103.201,0.00647086,0.14681,20.8747,521.091,0.159768,0.0,0.0
688,171.75,45.7643,49.3615,132.681,105.053,103.665,0.0065413,0.145234,20.8771,521.061,0.12009,0.0,0.0
690,172.25,45.9386,49.928,131.038,105.024,103.955,0.00659835,0.143756,20.8795,521.031,0.0923096,0.0,0.0
692,172.75,45.7316,48.7971,135.09,105.02,104.104,0.00667573,0.142558,20.8816,521.101,0.079082,0.0,0.0
694,173.25,45.657,49.2248,134.991,105.01,102.529,0.0067384,0.141122,20.8836,521.011,0.215909,0.0,0.0
696,173.75,45.8713,49.7684,134.034,105.006,103.587,0.00682159,0.139958,20.8856,520.981,0.122855,0.0,0.0
698,174.25,45.6546,49.1943,133.455,104.992,103.206,0.00688898,0.138254,20.8877,520.901,0.15492,0.0,0.0
700,174.75,45.331,49.617,130.155,104.978,104.258,0.00694356,0.136873,20.8894,520.961,0.0620867,0.0,0.0
702,175.25,45.0073,48.9778,134.036,104.951,103.819,0.00701774,0.135398,20.8912,520.931,0.0978716,0.0,0.0
704,175.75,45.7154,48.6706,131.618,104.948,104.656,0.00707782,0.133884,20.8931,521.001,0.0250817,0.0,0.0
706,176.25,44.759,48.9107,129.177,104.914,105.017,0.00712149,0.132435,20.8948,520.971,-0.00881136,0.0,0.0
708,176.75,44.9632,48.8614,133.262,104.909,104.527,0.00715686,0.131061,20.8964,521.021,0.0328992,0.0,0.0
710,177.25,45.013,48.9465,132.91,104.887,104.674,0.00717041,0.129949,20.8978,520.941,0.0183038,0.0,0.0
712,177.75,45.0731,49.0346,134.443,104.878,104.674,0.00716778,0.1285,20.9001,520.991,0.0175798,0.0,0.0
714,178.25,44.7329,48.3684,132.008,104.842,104.806,0.00714792,0.127326,20.9021,520.961,0.00309841,0.0,0.0
716,178.75,44.6407,48.5574,136.337,104.835,104.688,0.00711589,0.126087,20.9041,520.971,0.0126119,0.0,0.0
718,179.25,44.4433,48.4496,131.16,104.801,104.151,0.00707682,0.124825,20.9057,520.891,0.0562094,0.0,0.0
720,179.75,44.4189,47.913,137.181,104.797,104.603,0.00703337,0.123449,20.9078,520.881,0.0167568,0.0,0.0
722,180.25,44.2109,48.4355,129.537,104.765,104.308,0.00699752,0.122016,20.9096,520.871,0.0393971,0.0,0.0
724,180.75,44.3446,48.2074,136.019,104.746,105.001,0.0069679,0.120855,20.9115,520.861,-0.0219248,0.0,0.0
726,181.25,44.1302,47.3658,135.824,104.713,104.535,0.0069439,0.119579,20.913,520.891,0.0153933,0.0,0.0
728,181.75,44.1502,47.3,137.654,104.692,104.519,0.00693823,0.118545,20.9142,520.861,0.0149559,0.0,0.0
730,182.25,43.767,47.6358,136.149,104.656,105.498,0.00694604,0.117484,20.9152,520.811,-0.0723222,0.0,0.0
732,182.75,43.3824,47.7547,132.64,104.643,105.38,0.00695236,0.116559,20.916,520.831,-0.063342,0.0,0.0
734,183.25,43.9876,47.2191,131.902,104.597,104.687,0.00698368,0.11575,20.9167,520.801,-0.00777599,0.0,0.0
736,183.75,43.6968,47.6047,133.512,104.583,104.891,0.00700904,0.115094,20.9172,520.821,-0.0264869,0.0,0.0
738,184.25,44.196,46.4804,133.502,104.55,104.835,0.00705579,0.114396,20.9181,520.791,-0.0245914,0.0,0.0
740,184.75,43.2141,47.1086,137.028,104.557,104.262,0.00709366,0.11383,20.9192,520.831,0.0254939,0.0,0.0
742,185.25,43.3916,46.5254,133.746,104.55,104.828,0.00713682,0.113372,20.9204,520.811,-0.0239433,0.0,0.0
744,185.75,43.8813,46.771,130.441,104.567,105.451,0.00718302,0.112582,20.9215,520.721,-0.0759883,0.0,0.0
746,186.25,43.2031,47.0028,133.751,104.583,104.371,0.00723031,0.111943,20.9226,520.741,0.0183092,0.0,0.0
748,186.75,42.8083,46.3629,135.602,104.577,104.411,0.00727748,0.111202,20.9238,520.741,0.0142682,0.0,0.0
750,187.25,42.7879,46.8822,134.539,104.582,105.526,0.00731636,0.110601,20.9247,520.791,-0.0810774,0.0,0.0
752,187.75,43.266,46.6936,135.722,104.594,104.999,0.00734844,0.109983,20.9259,520.791,-0.0348433,0.0,0.0
754,188.25,42.8322,46.7368,130.834,104.601,105.523,0.00737442,0.109363,20.9268,520.751,-0.079272,0.0,0.0
756,188.75,42.8166,46.0616,132.107,104.615,104.821,0.00737706,0.108744,20.9276,520.741,-0.0177553,0.0,0.0
758,189.25,43.0575,46.2456,131.266,104.624,105.801,0.00736262,0.108137,20.9282,520.721,-0.101009,0.0,0.0
760,189.75,41.9437,46.2097,133.014,104.636,105.272,0.00735093,0.10758,20.9296,520.721,-0.0547718,0.0,0.0
762,190.25,42.6581,46.191,134.193,104.629,105.322,0.00731454,0.107069,20.9307,520.731,-0.0595889,0.0,0.0
764,190.75,42.7181,45.9752,130.649,104.653,105.54,0.00726082,0.106655,20.9324,520.731,-0.0762314,0.0,0.0
766,191.25,42.0519,45.9424,134.626,104.662,105.83,0.00721731,0.106195,20.9337,520.721,-0.100175,0.0,0.0
768,191.75,42.3607,45.3992,134.904,104.671,105.711,0.00715714,0.105711,20.9348,520.721,-0.0892584,0.0,0.0
770,192.25,42.187,45.6709,138.777,104.694,105.565,0.00713148,0.105318,20.9353,520.711,-0.0748318,0.0,0.0
772,192.75,42.1744,46.1121,136.34,104.701,105.412,0.00708303,0.105,20.9361,520.691,-0.0611689,0.0,0.0
774,193.25,42.1509,45.9285,135.069,104.711,105.626,0.00703964,0.104354,20.9372,520.691,-0.0786378,0.0,0.0
776,193.75,42.1338,45.9782,132.44,104.714,105.502,0.00700582,0.10383,20.938,520.651,-0.0676924,0.0,0.0
778,194.25,41.6134,45.6834,135.229,104.732,106.429,0.0069796,0.103267,20.9388,520.651,-0.145095,0.0,0.0
780,194.75,42.0932,46.0149,132.783,104.732,105.547,0.00695901,0.102811,20.9393,520.651,-0.0700212,0.0,0.0
782,195.25,42.2096,45.2574,135.589,104.764,105.664,0.00694293,0.10255,20.9398,520.651,-0.0772231,0.0,0.0
784,195.75,41.4405,44.9898,132.348,104.757,105.625,0.0069299,0.102105,20.9402,520.621,-0.074587,0.0,0.0
786,196.25,41.5333,45.2163,129.629,104.784,105.58,0.00691476,0.101745,20.9405,520.591,-0.0683968,0.0,0.0
788,196.75,41.2287,45.4423,137.224,104.799,106.051,0.00689837,0.101314,20.9412,520.571,-0.107172,0.0,0.0
790,197.25,41.0208,44.7301,134.497,104.811,105.862,0.00687853,0.100965,20.9417,520.571,-0.0900857,0.0,0.0
792,197.75,41.0811,44.9822,135.481,104.808,105.407,0.00685656,0.100502,20.9426,520.551,-0.0514759,0.0,0.0
794,198.25,41.6231,44.8713,137.358,104.835,104.907,0.00683877,0.100127,20.9438,520.531,-0.00622532,0.0,0.0
796,198.75,41.3367,44.8408,134.742,104.858,105.728,0.00679697,0.0997212,20.9447,520.491,-0.0746858,0.0,0.0
798,199.25,41.5929,44.4211,137.787,104.866,105.695,0.00676311,0.0993004,20.9454,520.511,-0.0710664,0.0,0.0
800,199.75,40.5806,44.8957,131.75,104.871,105.705,0.00672325,0.0989595,20.9461,520.481,-0.0715546,0.0,0.0
802,200.25,40.7157,44.4523,134.016,104.89,105.138,0.00669095,0.0985448,20.9465,520.451,-0.0213497,0.0,0.0
804,200.75,40.6444,44.2373,136.322,104.902,105.187,,0.0982088,,520.451,-0.0244527,0.0,0.0
806,201.25,40.296,44.1262,140.253,104.933,105.432,,0.0977704,,520.431,-0.0428024,0.0,0.0
808,201.75,40.5255,43.5403,135.152,104.925,105.286,,0.0974153,,520.531,-0.0310411,0.0,0.0
810,202.25,39.7521,44.3747,135.652,104.951,106.101,,0.0970584,,520.521,-0.0984359,0.0,0.0
812,202.75,40.5946,44.2612,139.287,104.954,106.172,,0.0967693,,520.451,-0.104186,0.0,0.0
814,203.25,40.0067,43.9929,131.555,104.962,106.297,,0.096452,,520.431,-0.114162,0.0,0.0
816,203.75,40.2789,43.1927,132.917,104.971,106.013,,,,520.421,-0.0892421,0.0,0.0
818,204.25,39.7984,43.3171,139.728,105.001,105.92,,,,520.421,-0.0787296,0.0,0.0
820,204.75,39.9158,43.4173,133.217,105.004,105.884,,,,520.38,-0.0753479,0.0,0.0
822,205.25,40.2606,43.9414,132.408,105.029,106.525,,,,520.401,-0.127699,0.0,0.0
824,205.75,40.1085,43.1096,131.963,105.021,106.105,,,,520.481,-0.0927606,0.0,0.0
826,206.25,39.9922,43.059,137.689,105.047,106.414,,,,520.501,-0.116722,0.0,0.0
828,206.75,40.0563,43.3606,135.285,105.062,106.143,,,,520.441,-0.0923658,0.0,0.0
830,207.25,39.48,42.7979,132.586,105.073,105.586,,,,520.451,-0.0439343,0.0,0.0
832,207.75,39.7906,42.709,128.599,105.074,106.162,,,,520.431,-0.0929884,0.0,0.0
834,208.25,39.6194,42.9763,136.094,105.087,105.979,,,,520.38,-0.0763259,0.0,0.0
836,208.75,39.0737,43.0664,136.497,105.084,106.075,,,,520.371,-0.0847557,0.0,0.0
838,209.25,40.1128,42.9028,132.926,105.109,106.958,,,,520.371,-0.157464,0.0,0.0
840,209.75,39.1374,43.1708,134.021,105.112,107.54,,,,520.371,-0.206141,0.0,0.0
842,210.25,39.4458,42.9003,133.91,105.128,106.319,,,,520.391,-0.10169,0.0,0.0
844,210.75,39.1914,43.3139,133.392,105.13,106.251,,,,520.421,-0.0957893,0.0,0.0
846,211.25,39.1201,42.9502,135.86,105.151,106.639,,,,520.411,-0.12692,0.0,0.0