File: 01_Data/Vinyl_Tile/Cone/Vinyl_Tile_Cone_HF75Scan_220510_R4.csv
Names,Time,Stack TC,Smoke TC,Exh Press,Smoke Comp,Smoke Meas,CO Meter,CO2 Meter,O2 Meter,Sample Mass,Ext Coeff,Start Test,Flame Verif
Chan Gain,,500,500,1,1,1,1,1,1,1,1,1.0,1.0
Offset,,0,0,0.135316,0,0,0,0,0,0,0,0.0,0.0
Gain,,1,1,25.011,13.8443,15.4071,1,1,1,1.00079,1.02936,1.0,1.0
Units,sec,C,C,Pa,%,%,%,%,%,g,/m,,
Baseline,,42.5519,44.0722,131.502,105.404,107.563,7.87567e-05,0.0420182,21.0004,-447.809,-0.183009,,
2,0.25,41.5785,43.0631,130.702,105.49,106.878,0.000254973,0.0473226,20.9913,533.951,-0.11796,0.0,0.0
4,0.75,40.3661,42.4098,131.457,105.484,106.973,0.000219455,0.0472993,20.9914,533.821,-0.126562,0.0,0.0
6,1.25,39.9441,41.8875,130.841,105.503,107.665,0.000190684,0.0471991,20.9914,533.901,-0.183203,0.0,0.0
8,1.75,39.5145,41.2991,129.768,105.486,107.605,0.000162568,0.0471179,20.9914,533.861,-0.179641,0.0,0.0
10,2.25,39.8615,41.5547,131.127,105.485,107.957,0.000139794,0.0470114,20.9915,533.891,-0.209174,0.0,0.0
12,2.75,39.8334,41.4194,135.407,105.484,107.636,0.000121347,0.0469252,20.9915,533.881,-0.182349,0.0,0.0
14,3.25,39.6845,41.4258,131.537,105.478,107.107,0.000113371,0.0468146,20.9915,533.891,-0.138369,0.0,0.0
16,3.75,40.0137,41.2271,130.105,105.481,107.263,0.000113181,0.046725,20.9921,533.891,-0.15127,0.0,0.0
18,4.25,39.8456,41.5702,131.519,105.471,107.861,0.000113026,0.0466389,20.9926,533.921,-0.202308,0.0,0.0
20,4.75,40.0048,41.7141,129.622,105.48,107.509,0.000128468,0.0465691,20.9934,533.891,-0.17202,0.0,0.0
22,5.25,39.7679,41.576,131.349,105.472,107.445,0.000140976,0.0465126,20.9942,533.891,-0.16737,0.0,0.0
24,5.75,39.8335,41.129,128.991,105.483,108.082,0.0001487,0.0464811,20.9949,533.881,-0.219776,0.0,0.0
26,6.25,39.9992,41.6103,135.589,105.479,107.135,0.000154956,0.0464685,20.9955,533.891,-0.140679,0.0,0.0
28,6.75,40.0287,41.4789,133.379,105.484,107.25,0.000151287,0.0464582,20.9958,533.881,-0.149905,0.0,0.0
30,7.25,40.1009,41.4067,135.294,105.474,107.883,0.000145014,0.0464371,20.9957,533.901,-0.203905,0.0,0.0
32,7.75,39.813,41.5005,130.252,105.471,107.385,0.000135498,0.04642,20.9957,533.841,-0.16242,0.0,0.0
34,8.25,39.8734,41.7052,130.787,105.475,107.633,0.0001238,0.046449,20.9957,533.841,-0.182833,0.0,0.0
36,8.75,39.5982,41.682,130.215,105.46,107.446,0.000114325,0.0465111,20.9957,533.881,-0.168387,0.0,0.0
38,9.25,40.0699,41.462,130.228,105.48,107.334,0.000168071,0.0465828,20.9957,533.901,-0.157278,0.0,0.0
40,9.75,39.7656,41.5886,132.354,105.469,107.315,0.000321679,0.0466235,20.9957,533.861,-0.156671,0.0,0.0
42,10.25,40.0384,41.5392,135.183,105.474,107.477,0.000545165,0.0467074,20.9952,533.871,-0.1698,0.0,0.0
44,10.75,39.9482,41.5087,131.42,105.462,106.776,0.000726189,0.0467883,20.9949,533.881,-0.111834,0.0,0.0
46,11.25,40.3632,41.3037,127.423,105.459,106.84,0.00118674,0.0468537,20.9932,533.871,-0.117419,0.0,0.0
48,11.75,39.9897,41.4773,135.539,105.452,106.004,0.00184233,0.0474637,20.9906,533.851,-0.0471062,0.0,0.0
50,12.25,40.4774,41.6114,135.657,105.454,104.295,0.00271411,0.0479577,20.9885,533.791,0.0998104,0.0,0.0
52,12.75,40.097,41.8555,128.734,105.454,101.818,0.00372694,0.0499367,20.9803,533.751,0.316843,0.0,1.0
54,13.25,39.9025,41.3723,132.05,105.448,97.3657,0.00493152,0.0515398,20.9736,533.681,0.720062,0.0,0.0
56,13.75,39.7833,42.0575,126.38,105.46,87.6779,0.00625299,0.0563413,20.9577,533.601,1.66736,0.0,0.0
58,14.25,40.0944,42.0703,128.227,105.446,78.8614,0.00732338,0.0602305,20.9448,533.551,2.62316,0.0,1.0
60,14.75,40.7656,41.6506,122.662,105.468,77.0686,0.00882235,0.0656772,20.923,533.521,2.83265,0.0,1.0
62,15.25,40.174,41.7716,123.448,105.449,77.5886,0.010263,0.0721558,20.9054,533.441,2.77026,0.0,1.0
64,15.75,40.7584,41.8445,125.216,105.446,82.0488,0.0109845,0.079098,20.8946,533.351,2.26532,0.0,1.0
66,16.25,41.0433,42.2006,125.779,105.439,80.1135,0.0122182,0.0862464,20.8761,533.321,2.48031,0.0,1.0
68,16.75,41.015,42.2348,124.163,105.438,81.3929,0.0135452,0.0920366,20.8586,533.221,2.33711,0.0,1.0
70,17.25,41.3851,42.6269,123.515,105.427,82.4837,0.01462,0.099832,20.8421,533.211,2.21595,0.0,1.0
72,17.75,41.8442,43.0186,120.283,105.433,80.8381,0.0154907,0.106146,20.8288,533.171,2.3985,0.0,1.0
74,18.25,41.8512,43.1402,122.65,105.429,83.1669,0.0165542,0.113712,20.8164,533.041,2.14169,0.0,1.0
76,18.75,42.3377,43.1502,122.443,105.427,80.5019,0.0174157,0.116937,20.8049,532.98,2.43555,0.0,1.0
78,19.25,42.1615,42.6449,127.612,105.432,83.615,0.0183327,0.123751,20.7955,532.93,2.09339,0.0,1.0
80,19.75,42.2176,42.8898,121.304,105.421,82.2378,0.0192728,0.130439,20.7841,532.84,2.24241,0.0,1.0
82,20.25,42.6788,42.7918,121.81,105.404,82.1424,0.0202649,0.13763,20.7748,532.73,2.25148,0.0,1.0
84,20.75,43.1339,43.5114,122.567,105.41,80.2569,0.0212763,0.145049,20.7629,532.69,2.46163,0.0,1.0
86,21.25,42.8181,43.6327,123.683,105.395,81.9966,0.0223119,0.151059,20.7532,532.59,2.26672,0.0,1.0
88,21.75,43.3624,43.5972,120.315,105.404,79.0532,0.0233456,0.158475,20.738,532.4,2.59757,0.0,1.0
90,22.25,42.7772,44.2247,119.169,105.394,81.1893,0.0243345,0.166774,20.7257,532.35,2.35596,0.0,1.0
92,22.75,43.5733,43.6803,119.124,105.398,78.8487,0.0252718,0.175152,20.7126,532.24,2.62049,0.0,1.0
94,23.25,43.7973,44.5622,120.175,105.386,75.7299,0.0260558,0.183428,20.7021,532.15,2.98388,0.0,1.0
96,23.75,44.2314,44.8922,119.409,105.391,75.5602,0.0267131,0.191498,20.6913,532.04,3.0045,0.0,1.0
98,24.25,44.5951,45.0969,121.756,105.381,74.547,0.0272455,0.199262,20.6826,531.96,3.12554,0.0,1.0
100,24.75,45.114,45.4241,117.522,105.385,69.3293,0.0275171,0.207184,20.6756,531.83,3.78113,0.0,0.0
102,25.25,45.3042,45.8116,124.484,105.39,68.7025,0.0275934,0.21507,20.6699,531.699,3.86356,0.0,0.0
104,25.75,45.5129,45.9639,120.652,105.371,60.9345,0.0276552,0.223341,20.66,531.629,4.94534,0.0,0.0
106,26.25,45.6124,46.1286,121.104,105.354,59.3194,0.0274272,0.231735,20.652,531.579,5.18645,0.0,0.0
108,26.75,46.3496,46.867,116.972,105.372,53.9673,0.0269921,0.238535,20.6389,531.499,6.04175,0.0,0.0
110,27.25,46.4007,46.9418,119.071,105.354,56.5726,0.0266396,0.248475,20.6283,531.399,5.61449,0.0,0.0
112,27.75,47.4045,47.5422,116.987,105.359,53.5413,0.0259893,0.256526,20.614,531.349,6.11222,0.0,0.0
114,28.25,47.1208,47.506,118.274,105.346,55.202,0.0253206,0.263047,20.6024,531.289,5.83525,0.0,0.0
116,28.75,47.7064,47.7583,118.207,105.362,55.7719,0.0246513,0.26833,20.5909,531.229,5.74396,0.0,0.0
118,29.25,47.6466,48.3649,117.364,105.331,58.1233,0.0241091,0.277982,20.5815,531.129,5.36839,0.0,0.0
120,29.75,48.4814,48.4903,120.234,105.344,58.7867,0.0234207,0.285801,20.5735,531.059,5.26704,0.0,0.0
122,30.25,48.5081,48.7154,118.569,105.327,62.78,0.022863,0.293821,20.5665,530.989,4.67216,0.0,0.0
124,30.75,48.8014,49.7632,117.798,105.34,63.3226,0.0223443,0.300317,20.5609,530.909,4.59558,0.0,0.0
126,31.25,49.5105,49.5742,123.351,105.338,64.2837,0.0218638,0.307228,20.5564,530.799,4.45935,0.0,0.0
128,31.75,49.2773,49.4326,118.924,105.321,64.7811,0.0214745,0.312826,20.5527,530.779,4.38826,0.0,0.0
130,32.25,49.6183,50.3252,121.519,105.305,66.8288,0.0210679,0.319262,20.5499,530.709,4.10589,0.0,0.0
132,32.75,50.0846,50.2769,115.661,105.303,64.3359,0.0207386,0.324474,20.5479,530.619,4.44905,0.0,0.0
134,33.25,50.1826,50.2033,120.042,105.299,68.955,0.0204295,0.32961,20.5463,530.559,3.82265,0.0,0.0
136,33.75,50.3813,50.8943,116.242,105.292,69.4299,0.0201792,0.334592,20.545,530.479,3.76003,0.0,0.0
138,34.25,51.0821,51.1028,118.485,105.29,73.4895,0.0199302,0.338627,20.5439,530.388,3.24675,0.0,0.0
140,34.75,51.0839,51.4844,118.732,105.287,75.4634,0.0197286,0.34276,20.543,530.298,3.00717,0.0,0.0
142,35.25,51.1221,51.3334,125.056,105.28,78.3903,0.0195305,0.346107,20.5423,530.258,2.66304,0.0,0.0
144,35.75,51.4264,51.7662,118.307,105.272,79.2912,0.0193389,0.349464,20.5417,530.098,2.55913,0.0,0.0
146,36.25,51.7778,52.0097,120.455,105.25,82.9892,0.0191546,0.352764,20.5413,530.008,2.14565,0.0,0.0
148,36.75,52.0997,52.3552,122.67,105.265,88.5285,0.0189791,0.35625,20.5422,529.938,1.56353,0.0,0.0
150,37.25,51.9612,52.5519,120.852,105.251,86.5584,0.0188196,0.359806,20.543,529.858,1.76551,0.0,0.0
152,37.75,52.1757,52.7604,120.514,105.255,87.2905,0.0186132,0.363443,20.5438,529.768,1.68979,0.0,0.0
154,38.25,52.3455,52.9316,119.97,105.247,87.5641,0.0185577,0.36707,20.5441,529.648,1.66083,0.0,0.0
156,38.75,52.7077,53.1579,117.218,105.255,89.8464,0.0184669,0.370454,20.5445,529.618,1.42919,0.0,0.0
158,39.25,53.1599,53.3474,122.233,105.233,89.9428,0.018397,0.373595,20.5448,529.538,1.41762,0.0,0.0
160,39.75,53.4158,53.8275,119.791,105.239,91.7018,0.0183717,0.376315,20.5451,529.458,1.24329,0.0,0.0
162,40.25,52.9894,54.1271,117.051,105.235,91.7197,0.0183791,0.378676,20.5462,529.358,1.24117,0.0,0.0
164,40.75,53.4809,53.9442,123.27,105.228,91.4173,0.0184192,0.381385,20.547,529.248,1.2704,0.0,0.0
166,41.25,54.2177,54.6646,118.425,105.227,91.0144,0.0184822,0.382103,20.5491,529.198,1.31021,0.0,0.0
168,41.75,54.0077,54.4089,117.143,105.219,92.4583,0.0185589,0.383331,20.5507,529.147,1.1674,0.0,0.0
170,42.25,53.685,54.5568,121.844,105.216,91.7201,0.0186442,0.384106,20.5529,529.067,1.23952,0.0,0.0
172,42.75,54.272,54.7941,119.157,105.215,93.1683,0.0187133,0.384538,20.5556,528.997,1.09793,0.0,0.0
174,43.25,54.945,54.9671,125.527,105.207,90.6424,0.018789,0.384887,20.5582,528.927,1.34548,0.0,0.0
176,43.75,54.5233,55.1235,121.213,105.198,90.6551,0.0188504,0.384672,20.5603,528.857,1.34342,0.0,0.0
178,44.25,54.3821,55.4246,120.749,105.209,92.1677,0.0188908,0.384498,20.562,528.727,1.19499,0.0,0.0
180,44.75,54.9203,55.2432,122.009,105.194,92.0027,0.0189236,0.384091,20.5633,528.667,1.20986,0.0,0.0
182,45.25,55.15,55.607,119.922,105.1875,90.5653,0.0189321,0.383762,20.5644,528.627,1.35146,0.0,0.0
184,45.75,54.8945,55.325,120.857,105.174,91.1954,0.0189227,0.383628,20.5653,528.537,1.2877,0.0,0.0
186,46.25,55.3986,55.2512,122.01,105.182,89.3776,0.0189151,0.38352,20.5661,528.467,1.47015,0.0,0.0
188,46.75,55.4262,55.8064,120.855,105.168,88.0164,0.0188668,0.383548,20.5667,528.397,1.60757,0.0,0.0
190,47.25,55.1191,55.896,120.89,105.166,87.5397,0.0188276,0.383571,20.5671,528.347,1.65647,0.0,0.0
192,47.75,55.4814,56.0828,118.159,105.152,87.4264,0.0187274,0.383746,20.5675,528.247,1.66689,0.0,0.0
194,48.25,55.4544,56.1707,121.294,105.156,87.7268,0.0186462,0.38403,20.5678,528.167,1.63631,0.0,0.0
196,48.75,55.4951,56.4618,121.955,105.147,88.2158,0.0185805,0.38426,20.5681,528.137,1.58529,0.0,0.0
198,49.25,55.4817,56.5766,117.584,105.146,86.9482,0.018384,0.384679,20.5684,528.067,1.71594,0.0,0.0
200,49.75,55.1936,56.6054,120.149,105.136,87.9196,0.0182249,0.385018,20.5687,527.987,1.61472,0.0,0.0
202,50.25,55.9633,56.7869,120.107,105.134,88.7203,0.0179729,0.385093,20.5692,527.927,1.53271,0.0,0.0
204,50.75,56.3933,56.8691,122.378,105.13,88.0954,0.0177689,0.385154,20.5698,527.846,1.5962,0.0,0.0
206,51.25,56.2464,57.067,122.338,105.138,84.9569,0.0175479,0.385204,20.5703,527.816,1.92441,0.0,0.0
208,51.75,55.8295,57.0376,120.713,105.123,86.138,0.0173188,0.384862,20.5707,527.726,1.79851,0.0,0.0
210,52.25,56.8816,57.2837,123.27,105.13,85.6791,0.0171332,0.384586,20.571,527.646,1.84736,0.0,0.0
212,52.75,56.8341,57.6397,120.311,105.109,86.2847,0.0169144,0.384179,20.5713,527.586,1.78195,0.0,0.0
214,53.25,56.7262,58.1075,122.386,105.117,85.753,0.0166755,0.38385,20.5715,527.526,1.83839,0.0,0.0
216,53.75,57.3464,58.1165,120.352,105.099,87.3493,0.0164498,0.383697,20.5716,527.446,1.67032,0.0,0.0
218,54.25,56.6366,57.8663,117.267,105.111,84.8342,0.0162381,0.383675,20.5713,527.376,1.93518,0.0,0.0
220,54.75,56.4972,58.0789,118.264,105.098,84.6743,0.0160667,0.383657,20.5711,527.286,1.95108,0.0,0.0
222,55.25,57.1426,58.0555,120.766,105.111,86.0275,0.0158914,0.383958,20.5707,527.226,1.80905,0.0,0.0
224,55.75,57.2875,58.4388,120.624,105.081,85.1577,0.0157495,0.384201,20.5701,527.136,1.89827,0.0,0.0
226,56.25,57.5941,58.1977,128.192,105.099,84.9024,0.0156099,0.384705,20.5697,527.036,1.92687,0.0,0.0
228,56.75,57.9476,58.217,122.89,105.078,84.0551,0.0154969,0.385388,20.5676,526.956,2.01569,0.0,0.0
230,57.25,57.7863,58.3751,119.685,105.089,83.7058,0.0154025,0.385942,20.5659,526.916,2.0542,0.0,0.0
232,57.75,57.691,58.8731,118.132,105.059,85.642,0.0153237,0.38739,20.5619,526.826,1.84514,0.0,0.0
234,58.25,57.4904,58.5019,121.952,105.083,84.7872,0.0152832,0.388563,20.557,526.746,1.93779,0.0,0.0
236,58.75,57.8999,59.4423,117.554,105.065,83.3019,0.0152503,0.390769,20.5516,526.675,2.09577,0.0,0.0
238,59.25,58.3107,59.2246,121.173,105.084,82.9351,0.0152237,0.392555,20.5473,526.625,2.13728,0.0,0.0
240,59.75,58.1096,59.646,119.013,105.059,82.8505,0.015293,0.394728,20.5428,526.525,2.14436,0.0,0.0
242,60.25,58.4469,59.7683,117.377,105.067,82.3794,0.0153492,0.397141,20.5384,526.485,2.19651,0.0,0.0
244,60.75,58.1979,59.5091,120.643,105.058,83.8031,0.0154987,0.399718,20.5336,526.395,2.04106,0.0,0.0
246,61.25,58.996,59.9406,117.861,105.063,81.7145,0.0156199,0.402365,20.5288,526.275,2.26938,0.0,0.0
248,61.75,58.6325,59.7714,120.029,105.056,83.1161,0.0157216,0.40451,20.5267,526.205,2.1152,0.0,0.0
250,62.25,58.5847,59.0908,115.073,105.061,83.0287,0.0158957,0.407536,20.521,526.165,2.12514,0.0,0.0
252,62.75,58.0548,59.3878,120.904,105.042,82.4038,0.0160834,0.409988,20.5163,526.055,2.19168,0.0,0.0
254,63.25,59.0829,60.3272,117.009,105.04,84.0236,0.0162776,0.413047,20.5112,525.965,2.01573,0.0,0.0
256,63.75,59.8601,60.4528,116.342,105.028,82.7376,0.0164741,0.415525,20.5071,525.915,2.15398,0.0,0.0
258,64.25,59.8273,61.2447,118.946,105.037,84.2554,0.0166687,0.417965,20.5029,525.855,1.9906,0.0,0.0
260,64.75,59.31,61.0409,116.561,105.024,80.8296,0.0168553,0.419209,20.4995,525.805,2.36436,0.0,0.0
262,65.25,60.1978,61.3225,114.508,105.033,81.3628,0.0170326,0.421563,20.4968,525.725,2.30575,0.0,0.0
264,65.75,60.0746,61.3023,117.38,105.019,82.3638,0.0171762,0.423672,20.4945,525.625,2.19407,0.0,0.0
266,66.25,59.7842,60.9944,119.939,105.02,84.5986,0.0173174,0.425381,20.4927,525.515,1.95244,0.0,0.0
268,66.75,59.7086,61.7449,116.548,105.002,80.9458,0.0174541,0.427143,20.4908,525.414,2.34947,0.0,0.0
270,67.25,60.9482,61.2364,116.412,105.009,81.1682,0.0175649,0.42857,20.4893,525.324,2.32531,0.0,0.0
272,67.75,60.4546,61.8835,118.866,104.991,81.4352,0.0176678,0.430017,20.4876,525.244,2.29412,0.0,0.0
274,68.25,60.7564,62.0308,119.64,104.996,84.3405,0.0177511,0.43119,20.4858,525.194,1.97796,0.0,0.0
276,68.75,60.9735,62.2169,114.761,104.986,82.4118,0.017816,0.432312,20.4843,525.134,2.18601,0.0,0.0
278,69.25,60.9356,62.2438,116.438,104.993,81.7785,0.0178685,0.433376,20.4831,525.024,2.25625,0.0,0.0
280,69.75,61.4932,62.3662,118.976,104.972,82.9567,0.0179048,0.434237,20.4822,524.964,2.12534,0.0,0.0
282,70.25,60.8512,62.5179,115.746,104.987,79.7872,0.0179287,0.435073,20.4814,524.914,2.47836,0.0,0.0
284,70.75,61.3316,62.4383,116.457,104.963,81.0812,0.0179397,0.43575,20.4808,524.824,2.33099,0.0,0.0
286,71.25,61.1625,63.0523,114.212,104.974,80.9782,0.0179411,0.436235,20.4803,524.724,2.34341,0.0,0.0
288,71.75,61.6569,63.5802,120.068,104.958,80.815,0.0179423,0.43657,20.4803,524.654,2.36028,0.0,0.0
290,72.25,61.7006,63.1228,116.767,104.96,78.5661,0.0179432,0.436571,20.4808,524.544,2.61529,0.0,0.0
292,72.75,61.2201,63.1597,115.109,104.928,80.1239,0.0179125,0.436326,20.4816,524.484,2.43526,0.0,0.0
294,73.25,61.9707,64.0333,119.888,104.949,81.9609,0.0178876,0.435731,20.4826,524.424,2.23235,0.0,0.0
296,73.75,62.7562,63.9549,114.225,104.929,81.0078,0.0178674,0.434892,20.4835,524.364,2.33629,0.0,0.0
298,74.25,62.4975,63.8387,118.013,104.934,82.0451,0.017834,0.434211,20.4853,524.284,2.22185,0.0,0.0
300,74.75,62.6575,64.0251,119.526,104.921,79.8803,0.0178014,0.43366,20.4878,524.194,2.46216,0.0,0.0
302,75.25,62.8453,64.2495,122.258,104.929,82.6577,0.01777,0.431642,20.4916,524.123,2.15417,0.0,0.0
304,75.75,62.4419,64.162,119.067,104.911,83.316,0.0177446,0.430007,20.4947,524.033,2.08105,0.0,0.0
306,76.25,62.55,64.2584,118.015,104.91,84.1299,0.0177193,0.427914,20.4971,523.943,1.99313,0.0,0.0
308,76.75,63.252,64.7897,117.588,104.898,83.8619,0.017676,0.425526,20.5013,523.873,2.02096,0.0,0.0
310,77.25,62.5684,64.5338,117.623,104.898,82.2312,0.0175911,0.423592,20.5047,523.853,2.19825,0.0,0.0
312,77.75,62.7834,64.7707,119.043,104.892,83.3592,0.0175224,0.420706,20.5097,523.773,2.07469,0.0,0.0
314,78.25,62.5117,64.5181,116.564,104.887,80.3195,0.0174392,0.418369,20.5137,523.683,2.40971,0.0,0.0
316,78.75,63.3089,65.1769,120.404,104.889,83.9846,0.0173469,0.415549,20.5178,523.643,2.00695,0.0,0.0
318,79.25,63.1212,64.9922,116.598,104.88,82.701,0.0172585,0.414347,20.5211,523.563,2.1453,0.0,0.0
320,79.75,62.973,64.5578,120.817,104.87,85.6049,0.0171745,0.411691,20.5251,523.503,1.83281,0.0,0.0
322,80.25,62.8984,64.9839,119.571,104.869,83.4326,0.0171064,0.409,20.5284,523.443,2.06475,0.0,0.0
324,80.75,63.0261,65.1864,121.172,104.862,85.7727,0.0170355,0.406116,20.531,523.363,1.81443,0.0,0.0
326,81.25,63.1986,65.4572,116.706,104.861,83.8656,0.0169638,0.403148,20.5353,523.343,2.01735,0.0,0.0
328,81.75,63.3427,65.1858,121.249,104.86,83.9681,0.0169057,0.400743,20.5388,523.253,2.00621,0.0,0.0
330,82.25,63.4465,65.0076,119.766,104.852,84.499,0.0167908,0.397515,20.5426,523.293,1.94862,0.0,0.0
332,82.75,63.3129,65.5068,118.792,104.852,83.5497,0.0166977,0.394901,20.5464,523.213,2.05071,0.0,0.0
334,83.25,63.72,65.6494,122.242,104.84,83.8257,0.0165143,0.391311,20.5503,523.133,2.01984,0.0,0.0
336,83.75,63.6264,65.5368,119.407,104.834,82.4236,0.0163657,0.388403,20.554,523.033,2.17167,0.0,0.0
338,84.25,63.1209,65.6247,119.188,104.835,82.8867,0.0161012,0.385182,20.5586,522.943,2.12111,0.0,0.0
340,84.75,63.4912,65.8127,117.537,104.827,83.1895,0.015887,0.381794,20.5638,522.832,2.0875,0.0,0.0
342,85.25,63.4445,65.6882,118.421,104.822,83.0381,0.0155364,0.37905,20.5689,522.872,2.10354,0.0,0.0
344,85.75,63.6427,65.8481,120.126,104.828,84.7952,0.0152524,0.375192,20.5739,522.862,1.91502,0.0,0.0
346,86.25,63.7785,65.8019,122.549,104.818,82.2731,0.0148769,0.372067,20.5788,522.792,2.18675,0.0,0.0
348,86.75,63.802,65.4349,124.14,104.8,84.1115,0.0145727,0.368283,20.5837,522.772,1.98567,0.0,0.0
350,87.25,63.7393,65.8405,124.755,104.803,84.6979,0.0141227,0.365219,20.5899,522.722,1.92324,0.0,0.0
352,87.75,63.2154,65.4181,118.111,104.799,83.4589,0.0139395,0.361619,20.5921,522.662,2.05593,0.0,0.0
354,88.25,63.5864,65.7185,123.088,104.79,86.2885,0.0136262,0.358703,20.5957,522.642,1.75407,0.0,0.0
356,88.75,62.8856,65.6303,121.303,104.807,83.4754,0.0132077,0.355325,20.5991,522.582,2.05484,0.0,0.0
358,89.25,63.1267,66.3013,116.892,104.79,83.8774,0.0128687,0.352588,20.6023,522.512,2.01001,0.0,0.0
360,89.75,63.7584,64.9993,124.931,104.794,81.4404,0.0124708,0.349754,20.6055,522.452,2.27657,0.0,0.0
362,90.25,63.6841,65.9996,122.127,104.785,84.1101,0.0121484,0.345688,20.6088,522.402,1.98451,0.0,0.0
364,90.75,63.0086,65.9881,123.325,104.788,83.2548,0.0117947,0.344594,20.6114,522.442,2.07709,0.0,0.0
366,91.25,62.8976,65.7201,122.733,104.757,86.548,0.0115082,0.341539,20.6136,522.312,1.72415,0.0,0.0
368,91.75,63.0617,65.5787,122.531,104.771,83.7871,0.0112002,0.339064,20.6153,522.322,2.01809,0.0,0.0
370,92.25,62.9627,65.7015,124.677,104.757,83.3884,0.0109507,0.336677,20.6167,522.342,2.05996,0.0,0.0
372,92.75,62.9552,66.1256,121.558,104.773,83.3367,0.0107187,0.334744,20.6178,522.242,2.06688,0.0,0.0
374,93.25,63.2688,65.6771,120.841,104.762,84.0984,0.0105039,0.333002,20.6188,522.192,1.98377,0.0,0.0
376,93.75,62.8591,65.3689,123.765,104.752,82.1358,0.0103298,0.331591,20.6195,522.152,2.19615,0.0,0.0
378,94.25,62.7719,65.8514,124.176,104.742,84.4167,0.0101447,0.330162,20.6201,522.182,1.94795,0.0,0.0
380,94.75,63.192,65.5078,118.28,104.77,82.6107,0.00993075,0.329004,20.6208,522.132,2.14562,0.0,0.0
382,95.25,62.8931,65.8052,120.865,104.74,82.7964,0.00987321,0.327605,20.621,522.092,2.1228,0.0,0.0
384,95.75,63.2149,66.0049,122.928,104.754,82.7644,0.00975086,0.326472,20.6213,522.062,2.12752,0.0,0.0
386,96.25,63.0099,65.5225,124.373,104.729,82.1748,0.00965175,0.325554,20.6227,522.062,2.18989,0.0,0.0
388,96.75,62.9663,65.476,120.336,104.732,83.5116,0.0095602,0.324334,20.6238,522.032,2.04448,0.0,0.0
390,97.25,62.8097,66.0257,122.937,104.717,82.7419,0.00947589,0.323346,20.6247,522.022,2.12678,0.0,0.0
392,97.75,62.864,65.7262,123.261,104.734,83.4862,0.00940097,0.322205,20.6254,521.962,2.04738,0.0,0.0
394,98.25,63.0749,65.8767,123.397,104.727,85.0218,0.00933432,0.321631,20.626,521.972,1.88222,0.0,0.0
396,98.75,62.8084,65.553,120.175,104.723,83.4378,0.00928034,0.320649,20.6265,521.932,2.05163,0.0,0.0
398,99.25,62.5441,65.7,121.669,104.706,81.9195,0.00923157,0.319762,20.6265,521.832,2.21602,0.0,0.0
400,99.75,62.4249,65.547,120.488,104.716,84.6391,0.0091934,0.318961,20.6264,521.842,1.92193,0.0,0.0
402,100.25,62.6077,65.6315,121.437,104.716,82.7875,0.00916367,0.318321,20.6262,521.782,2.1217,0.0,0.0
404,100.75,62.918,65.4836,118.845,104.698,79.9847,0.00913959,0.31781,20.6257,521.682,2.43115,0.0,0.0
406,101.25,62.6842,66.0838,125.695,104.696,81.5363,0.00913136,0.317388,20.6254,521.662,2.25749,0.0,0.0
408,101.75,63.0196,66.1458,123.259,104.704,83.3052,0.00913483,0.317038,20.6247,521.662,2.06435,0.0,0.0
410,102.25,62.6228,66.109,120.152,104.689,82.1889,0.0091549,0.316755,20.6241,521.571,2.18485,0.0,0.0
412,102.75,63.0721,65.8607,123.489,104.697,81.8744,0.00918667,0.316462,20.6232,521.541,2.2202,0.0,0.0
414,103.25,62.8989,65.5437,121.929,104.689,80.122,0.00921241,0.316225,20.622,521.501,2.41487,0.0,0.0
416,103.75,62.7027,65.5604,121.577,104.688,79.4675,0.00927238,0.315983,20.6211,521.491,2.48882,0.0,0.0
418,104.25,62.4171,65.8977,122.343,104.67,80.3364,0.00929794,0.315742,20.6207,521.451,2.3891,0.0,0.0
420,104.75,62.8088,65.7694,119.038,104.678,79.349,0.00935296,0.315647,20.62,521.421,2.50142,0.0,0.0
422,105.25,62.7183,66.0093,121.835,104.675,80.7774,0.00940768,0.31566,20.6173,521.421,2.34006,0.0,0.0
424,105.75,63.5174,66.1119,118.787,104.683,81.6388,0.00945201,0.31567,20.615,521.361,2.24501,0.0,0.0
426,106.25,62.6855,66.0748,120.008,104.657,84.3335,0.0094955,0.316249,20.6119,521.281,1.94957,0.0,0.0
428,106.75,62.5252,65.922,120.775,104.67,83.102,0.00952341,0.316718,20.6094,521.281,2.08348,0.0,0.0
430,107.25,62.1868,65.9815,120.983,104.66,81.3529,0.00953944,0.316917,20.6071,521.291,2.27468,0.0,0.0
432,107.75,62.1264,65.9389,122.328,104.664,80.4196,0.00955242,0.317688,20.6051,521.261,2.37927,0.0,0.0
434,108.25,62.5184,65.6906,119.295,104.649,80.6853,0.00953968,0.318312,20.6034,521.251,2.34818,0.0,0.0
436,108.75,62.9027,66.4268,120.284,104.663,83.7692,0.00950844,0.31904,20.6021,521.221,2.01066,0.0,0.0
438,109.25,62.5189,66.6144,119.427,104.641,78.8355,0.00948314,0.319604,20.601,521.121,2.55686,0.0,0.0
440,109.75,62.8695,66.1339,122.885,104.666,82.1833,0.00943994,0.320039,20.6001,521.091,2.18353,0.0,0.0
442,110.25,62.8935,66.1576,119.315,104.632,82.5942,0.00940495,0.320391,20.5994,521.081,2.13558,0.0,0.0
444,110.75,62.8799,66.4392,121.363,104.648,78.3503,0.00937656,0.320526,20.5994,521.051,2.61327,0.0,0.0
446,111.25,63.4649,66.331,121.346,104.633,78.4721,0.00935356,0.320499,20.5998,521.021,2.5979,0.0,0.0
448,111.75,63.3158,66.3744,121.019,104.642,77.6168,0.00933625,0.320186,20.6002,520.981,2.69765,0.0,0.0
450,112.25,63.2482,66.0749,122.457,104.634,81.3953,0.00932343,0.319669,20.6023,520.941,2.26776,0.0,0.0
452,112.75,63.0526,66.6808,122.248,104.626,81.8264,0.00930708,0.31925,20.6039,520.871,2.2194,0.0,0.0
454,113.25,62.9731,66.3768,123.57,104.621,83.5125,0.00928845,0.318264,20.606,520.871,2.0348,0.0,0.0
456,113.75,63.2857,65.9391,120.668,104.637,81.47,0.00927337,0.317465,20.6082,520.861,2.25977,0.0,0.0
458,114.25,63.0563,66.1957,120.42,104.612,81.2871,0.00923469,0.316543,20.6105,520.851,2.27791,0.0,0.0
460,114.75,63.053,66.1234,122.331,104.621,81.2161,0.00920336,0.31555,20.6128,520.771,2.28653,0.0,0.0
462,115.25,63.0579,66.6744,120.321,104.63,81.6868,0.00917798,0.314513,20.6147,520.761,2.23512,0.0,0.0
464,115.75,63.3925,66.5405,122.552,104.621,83.2802,0.00912092,0.313464,20.6166,520.751,2.05987,0.0,0.0
466,116.25,63.0078,66.4056,121.888,104.619,80.1159,0.00907469,0.312614,20.6186,520.701,2.40954,0.0,0.0
468,116.75,63.1086,66.7837,121.612,104.641,81.17,0.0090058,0.311644,20.6207,520.681,2.29337,0.0,0.0
470,117.25,62.9791,66.4107,120.465,104.65,79.2145,0.00895,0.310605,20.6228,520.641,2.51433,0.0,0.0
472,117.75,62.6409,66.5411,119.622,104.669,81.9416,0.00887212,0.309532,20.6245,520.631,2.21035,0.0,0.0
474,118.25,62.6799,66.1162,120.829,104.677,82.0037,0.00880904,0.308454,20.6263,520.591,2.20424,0.0,0.0
476,118.75,63.2469,66.1558,121.202,104.694,82.8091,0.00875795,0.307581,20.6282,520.561,2.11748,0.0,0.0
478,119.25,63.0219,66.7676,121.458,104.698,84.3151,0.00864627,0.306199,20.6301,520.551,1.95507,0.0,0.0
480,119.75,63.1185,66.3342,119.15,104.706,81.2029,0.00855581,0.30508,20.6318,520.471,2.29532,0.0,0.0
482,120.25,62.9832,66.6247,126.351,104.722,84.4651,0.0084489,0.303548,20.6333,520.491,1.9411,0.0,0.0
484,120.75,63.3245,66.2964,122.708,104.724,85.2856,0.00833204,0.302307,20.6366,520.501,1.85399,0.0,0.0
486,121.25,63.0789,66.2888,123.703,104.731,85.0688,0.00828222,0.301301,20.6381,520.471,1.87751,0.0,0.0
488,121.75,63.084,66.2821,121.507,104.741,87.0055,0.0081641,0.299757,20.6419,520.391,1.67509,0.0,0.0
490,122.25,62.8716,66.5015,121.046,104.763,86.9181,0.0080388,0.297848,20.6462,520.371,1.6861,0.0,0.0
492,122.75,63.469,66.3615,120.884,104.766,89.1877,0.00793731,0.295633,20.6497,520.371,1.45364,0.0,0.0
494,123.25,62.5853,66.2653,123.389,104.786,86.7046,0.00777768,0.293235,20.6544,520.31,1.71027,0.0,0.0
496,123.75,62.9038,66.6069,120.729,104.791,88.0465,0.00764838,0.290797,20.6599,520.31,1.57203,0.0,0.0
498,124.25,62.9946,66.2941,125.011,104.798,87.6173,0.00750691,0.289523,20.6643,520.25,1.61678,0.0,0.0
500,124.75,62.9858,66.1092,123.074,104.798,87.6276,0.00735927,0.287344,20.67,520.26,1.61571,0.0,0.0
502,125.25,62.2912,66.5616,123.218,104.812,90.6236,0.00719843,0.285578,20.6747,520.25,1.31339,0.0,0.0
504,125.75,62.7267,66.3465,121.416,104.822,90.587,0.00703103,0.282763,20.6807,520.15,1.31792,0.0,0.0
506,126.25,62.1346,66.4595,123.17,104.829,90.531,0.00685754,0.280483,20.6855,520.14,1.32404,0.0,0.0
508,126.75,62.5365,66.4779,128.665,104.83,90.5649,0.00668291,0.277196,20.6912,520.13,1.32078,0.0,0.0
510,127.25,62.122,66.7067,125.979,104.847,88.1368,0.00654146,0.274533,20.6975,520.14,1.56762,0.0,0.0
512,127.75,62.2555,66.156,123.043,104.838,89.8328,0.00636863,0.271735,20.7036,520.1,1.39475,0.0,0.0
514,128.25,62.5315,65.8652,123.76,104.86,92.3704,0.00622865,0.26889,20.7093,520.08,1.14508,0.0,0.0
516,128.75,62.584,66.0923,121.834,104.861,91.1394,0.00607442,0.266586,20.7153,520.09,1.26636,0.0,0.0
518,129.25,61.893,66.0112,126.061,104.872,95.7238,0.00589623,0.263656,20.724,520.06,0.82418,0.0,0.0
520,129.75,62.0932,65.8296,123.991,104.87,93.0385,0.00582422,0.261283,20.7264,520.02,1.08088,0.0,0.0
522,130.25,61.7715,65.8063,125.307,104.88,95.0984,0.00570109,0.258423,20.7317,520.03,0.884017,0.0,0.0
524,130.75,61.8036,65.7472,121.603,104.89,96.8659,0.00560135,0.256106,20.736,520.02,0.718615,0.0,0.0
526,131.25,61.7739,65.8498,124.1,104.898,96.1164,0.00549346,0.253339,20.7402,519.99,0.789405,0.0,0.0
528,131.75,61.7174,65.209,125.472,104.899,97.2707,0.00540607,0.251098,20.7442,519.93,0.681757,0.0,0.0
530,132.25,61.5292,65.4952,124.041,104.905,96.7746,0.00531677,0.247486,20.7485,519.94,0.72843,0.0,0.0
532,132.75,61.4418,65.3741,125.054,104.916,98.8261,0.00524443,0.246354,20.7529,519.93,0.539934,0.0,0.0
534,133.25,61.1339,65.1062,121.862,104.927,98.9441,0.00517227,0.244417,20.7574,519.9,0.530139,0.0,0.0
536,133.75,61.3766,65.4955,127.435,104.926,97.7178,0.00511382,0.241559,20.7619,519.89,0.642598,0.0,0.0
538,134.25,60.9414,65.0019,125.874,104.939,97.581,0.00504674,0.239244,20.7656,519.84,0.656377,0.0,0.0
540,134.75,61.3341,64.6747,123.703,104.931,99.6649,0.00499241,0.236324,20.7707,519.84,0.46489,0.0,0.0
542,135.25,60.4094,64.5824,124.663,104.947,99.7829,0.00493997,0.233959,20.7749,519.83,0.455584,0.0,0.0
544,135.75,61.1387,65.2124,128.19,104.947,101.876,0.0048899,0.231092,20.78,519.82,0.268122,0.0,0.0
546,136.25,60.92,64.8809,126.269,104.971,100.928,0.00484934,0.228769,20.7841,519.76,0.354637,0.0,0.0
548,136.75,60.8616,64.8607,122.961,104.975,100.834,0.00481526,0.226102,20.7881,519.76,0.36346,0.0,0.0
550,137.25,60.0473,64.98,125.668,104.974,100.754,0.00478765,0.223941,20.792,519.74,0.370511,0.0,0.0
552,137.75,60.4964,64.3051,124.148,104.97,102.364,0.00476283,0.22174,20.7957,519.66,0.227045,0.0,0.0
554,138.25,59.7573,64.3231,124.683,104.989,102.123,0.00474272,0.219551,20.799,519.62,0.24994,0.0,0.0
556,138.75,59.7367,64.3334,125.062,105,102.523,0.00472643,0.217778,20.8024,519.58,0.215576,0.0,0.0
558,139.25,59.6563,63.8539,127.593,105.006,103.634,0.00471324,0.215589,20.8058,519.61,0.118722,0.0,0.0
560,139.75,59.3136,64.0713,124.47,105.005,104.372,0.00470839,0.213816,20.8094,519.61,0.0546358,0.0,0.0
562,140.25,59.5252,64.0961,130.317,105.027,103.618,0.00470971,0.212032,20.8132,519.63,0.122008,0.0,0.0
564,140.75,59.8325,63.3219,123.29,105.016,103.258,0.00472178,0.210273,20.8163,519.59,0.152389,0.0,0.0
566,141.25,59.3916,63.7394,127.671,105.033,104.342,0.00474146,0.208539,20.8188,519.56,0.0595966,0.0,0.0
568,141.75,58.8921,63.5051,127.718,105.024,104.516,0.00475739,0.206856,20.8216,519.55,0.0437547,0.0,0.0
570,142.25,58.7925,63.6038,123.164,105.068,104.386,0.00478524,0.205185,20.824,519.59,0.0587914,0.0,0.0
572,142.75,58.5522,62.9143,126.069,105.045,104.369,0.00480418,0.203553,20.8252,519.54,0.0582577,0.0,0.0
574,143.25,58.7772,63.3758,126.659,105.052,105.919,0.00483657,0.201908,20.8272,519.52,-0.0741779,0.0,0.0
576,143.75,58.5904,63.0821,128.191,105.039,105.357,0.00487711,0.200284,20.8288,519.52,-0.0273533,0.0,0.0
578,144.25,58.5719,63.1914,129.986,105.053,104.872,0.00492281,0.198969,20.8315,519.53,0.0155631,0.0,0.0
580,144.75,58.3755,62.7044,124.745,105.05,105.424,0.00495983,0.197904,20.8336,519.53,-0.0321299,0.0,0.0
582,145.25,58.4424,62.8285,130.544,105.067,105.897,0.00500711,0.196167,20.8358,519.48,-0.0710989,0.0,0.0
584,145.75,58.2855,62.6939,124.053,105.067,106.613,0.00504541,0.195427,20.838,519.42,-0.131876,0.0,0.0
586,146.25,57.8955,63.058,124.995,105.081,105.753,0.0050789,0.193854,20.8402,519.45,-0.0575478,0.0,0.0
588,146.75,58.346,62.106,124.84,105.081,107.03,0.00510603,0.192304,20.8424,519.42,-0.165931,0.0,0.0
590,147.25,58.2948,62.3579,126.466,105.09,105.354,0.00513171,0.191049,20.8447,519.39,-0.0226418,0.0,0.0
592,147.75,57.8504,62.1994,129.793,105.087,106.185,0.00515251,0.189407,20.8469,519.36,-0.0939346,0.0,0.0
594,148.25,57.6844,61.9792,124.446,105.109,107.536,0.00518172,0.188077,20.8497,519.35,-0.20608,0.0,0.0
596,148.75,57.2992,62.093,130.606,105.095,106.455,0.00520538,0.186449,20.8527,519.37,-0.11613,0.0,0.0
598,149.25,57.1504,62.1572,126.307,105.104,106.164,0.00523431,0.18513,20.8552,519.35,-0.0906076,0.0,0.0
600,149.75,57.3589,61.7966,129.113,105.101,106.738,0.00526653,0.183757,20.8572,519.36,-0.139522,0.0,0.0
602,150.25,56.8476,61.8862,126.14,105.108,107.704,0.00529263,0.18237,20.8588,519.33,-0.220309,0.0,0.0
604,150.75,56.649,61.9908,126.526,105.102,107.417,0.00532861,0.180973,20.8606,519.28,-0.196739,0.0,0.0
606,151.25,57.1005,61.3508,126.614,105.117,107.085,0.00535776,0.179595,20.8624,519.29,-0.167523,0.0,0.0
608,151.75,57.1012,61.0781,130.641,105.112,107.068,0.00538335,0.178281,20.8639,519.27,-0.166534,0.0,0.0
610,152.25,57.1424,61.8879,124.405,105.117,106.684,0.00540588,0.177039,20.8656,519.27,-0.133603,0.0,0.0
612,152.75,56.9669,61.2454,128.383,105.123,107.226,0.00542607,0.176033,20.8669,519.27,-0.178789,0.0,0.0
614,153.25,56.2803,60.8468,127.773,105.129,106.991,0.00544419,0.174757,20.8682,519.27,-0.158577,0.0,0.0
616,153.75,56.2726,61.2404,128.576,105.127,107.08,0.00546473,0.173723,20.8693,519.26,-0.166179,0.0,0.0
618,154.25,56.7249,61.1552,129.059,105.138,108.327,0.00548665,0.172886,20.8711,519.22,-0.269814,0.0,0.0
620,154.75,55.9727,60.9691,127.419,105.129,107.209,0.00552069,0.171732,20.8725,519.2,-0.176894,0.0,0.0
622,155.25,56.2429,60.7049,129.363,105.136,108.007,0.00556294,0.17066,20.8737,519.22,-0.243266,0.0,0.0
624,155.75,56.3523,60.6319,124.995,105.13,107.653,0.00559716,0.16967,20.8746,519.21,-0.214131,0.0,0.0
626,156.25,55.8518,60.7544,128.201,105.129,108.259,0.00566702,0.168717,20.8756,519.19,-0.264892,0.0,0.0
628,156.75,56.0784,60.5673,126.617,105.137,107.583,0.00572361,0.167808,20.8766,519.18,-0.207632,0.0,0.0
630,157.25,55.6552,60.6053,126.48,105.148,108.054,0.00578643,0.166899,20.8774,519.13,-0.246141,0.0,0.0
632,157.75,56.1248,60.4196,128.373,105.139,107.975,0.0058526,0.166005,20.8785,519.089,-0.240264,0.0,0.0
634,158.25,55.3878,60.1533,130.852,105.145,108.506,0.00591077,0.165282,20.8794,519.11,-0.284079,0.0,0.0
636,158.75,55.2636,60.2954,130.725,105.14,108.18,0.005962,0.164309,20.8806,519.079,-0.257433,0.0,0.0
638,159.25,55.8988,60.0588,127.136,105.138,108.153,0.00600089,0.163521,20.8815,519.069,-0.255266,0.0,0.0
640,159.75,55.3484,59.983,128.462,105.147,107.145,0.00603003,0.162694,20.8827,519.029,-0.169906,0.0,0.0
642,160.25,55.4258,59.925,128.767,105.131,107.605,0.00604776,0.161854,20.8841,519.019,-0.21007,0.0,0.0
644,160.75,55.2024,59.7094,126.462,105.136,108.648,0.00605683,0.161175,20.8857,519.039,-0.296686,0.0,0.0
646,161.25,55.4217,59.5517,127.756,105.136,107.845,0.00605764,0.160381,20.887,519.049,-0.229732,0.0,0.0
648,161.75,54.213,59.5196,128.932,105.136,107.527,0.00605242,0.159737,20.8882,519.039,-0.203044,0.0,0.0
650,162.25,55.4958,60.0816,130.246,105.136,107.929,0.00604819,0.158988,20.8895,519.019,-0.236778,0.0,0.0
652,162.75,55.1206,59.313,131.649,105.129,108.637,0.00602988,0.15838,20.8907,518.959,-0.296365,0.0,0.0
654,163.25,54.9558,59.5075,127.468,105.127,108.473,0.00601505,0.157574,20.8919,518.979,-0.282899,0.0,0.0
656,163.75,54.7706,59.7361,129.696,105.132,108.108,0.00600303,0.156921,20.8929,518.969,-0.252041,0.0,0.0
658,164.25,54.0118,58.592,128.534,105.116,108.204,0.00598834,0.156078,20.8937,518.949,-0.261389,0.0,0.0
660,164.75,54.2408,58.8146,128.247,105.115,107.067,0.00597644,0.155395,20.8945,518.939,-0.166121,0.0,0.0
662,165.25,54.5418,58.6147,128.989,105.119,108.428,0.0059668,0.154707,20.8954,518.919,-0.279906,0.0,0.0
664,165.75,54.2302,58.8894,131.978,105.114,107.614,0.00596767,0.154028,20.8962,518.869,-0.212308,0.0,0.0
666,166.25,54.5097,58.8402,127.011,105.107,108.075,0.00596838,0.153306,20.897,518.889,-0.251433,0.0,0.0
668,166.75,53.7316,58.6186,126.175,105.136,108.421,0.00598332,0.152565,20.8977,518.859,-0.277795,0.0,0.0
670,167.25,54.2156,58.8969,129.864,105.103,107.083,0.00600836,0.151965,20.8986,518.879,-0.168521,0.0,0.0
672,167.75,54.1983,57.7347,128.466,105.112,107.852,0.00603517,0.15148,20.8994,518.869,-0.232394,0.0,0.0
674,168.25,54.1381,58.2869,127.154,105.085,108.126,0.00606277,0.150884,20.9003,518.859,-0.257601,0.0,0.0
676,168.75,53.7145,58.032,129.994,105.108,107.546,0.00608512,0.150219,20.9012,518.869,-0.207054,0.0,0.0
678,169.25,53.2954,57.7169,129.484,105.075,107.435,0.00610074,0.149553,20.902,518.859,-0.200568,0.0,0.0
680,169.75,53.2114,57.9378,127.437,105.086,107.998,0.0061134,0.1489,20.9026,518.819,-0.246839,0.0,0.0
682,170.25,54.0268,58.0772,131.847,105.06,107.473,,0.14837,,518.829,-0.204999,0.0,0.0
684,170.75,53.7932,58.2136,125.751,105.084,108.471,,0.147785,,518.829,-0.286442,0.0,0.0
686,171.25,52.9347,57.1877,132.35,105.058,107.866,,0.147311,,518.769,-0.238221,0.0,0.0
688,171.75,53.1215,57.2371,125.672,105.065,108.364,,0.146686,,518.729,-0.279226,0.0,0.0
690,172.25,53.1644,56.9512,131.073,105.056,107.617,,0.146179,,518.709,-0.217479,0.0,0.0
692,172.75,53.0703,57.196,129.899,105.045,107.502,,0.145442,,518.719,-0.208756,0.0,0.0
694,173.25,52.9217,57.6281,127.084,105.042,109.173,,,,518.629,-0.348324,0.0,0.0
696,173.75,52.7563,57.2703,130.789,105.046,107.751,,,,518.629,-0.229626,0.0,0.0
698,174.25,52.5193,56.8273,122.415,105.035,107.536,,,,518.629,-0.212474,0.0,0.0
700,174.75,52.4392,57.2746,130.053,105.022,108.864,,,,518.649,-0.324445,0.0,0.0
702,175.25,52.6561,56.9215,131.776,105.009,107.665,,,,518.669,-0.225534,0.0,0.0
704,175.75,52.515,56.9,128.653,105.01,106.696,,,,518.639,-0.143789,0.0,0.0
706,176.25,52.5055,57.0585,130.374,104.991,107.18,,,,518.669,-0.186276,0.0,0.0
708,176.75,52.2328,56.835,127.535,105.014,108.142,,,,518.659,-0.265037,0.0,0.0
710,177.25,51.936,56.4904,132.837,104.978,107.983,,,,518.639,-0.25484,0.0,0.0
712,177.75,51.9396,56.4734,128.113,104.987,109.142,,,,518.639,-0.350518,0.0,0.0
714,178.25,51.9121,56.0816,128.911,104.97,108.204,,,,518.599,-0.273993,0.0,0.0
716,178.75,51.9089,56.0549,131.16,104.964,107.894,,,,518.539,-0.248605,0.0,0.0
718,179.25,51.9847,56.2016,127.237,104.947,107.799,,,,518.559,-0.24211,0.0,0.0
720,179.75,51.6275,56.2622,129.102,104.951,107.212,,,,518.559,-0.192462,0.0,0.0
722,180.25,51.9929,55.9211,129.132,104.929,107.344,,,,518.539,-0.205545,0.0,0.0
724,180.75,51.7999,56.0025,122.817,104.936,108.071,,,,518.529,-0.265866,0.0,0.0
725,181,51.4992,55.6877,128.098,104.929,108.248,,,,518.499,-0.281168,0.0,0.0