File: 01_Data/Vinyl_Tile/Cone/Vinyl_Tile_Cone_HF75Scan_220405_R2.csv
Names,Time,Stack TC,Smoke TC,Exh Press,Smoke Comp,Smoke Meas,CO Meter,CO2 Meter,O2 Meter,Sample Mass,Ext Coeff,Start Test,Flame Verif
Chan Gain,,500,500,1,1,1,1,1,1,1,1,1.0,1.0
Offset,,0,0,0.132686,0,0,0,0,0,0,0,0.0,0.0
Gain,,1,1,25.011,13.1151,13.9355,1,1,1,1.00092,1.01752,1.0,1.0
Units,sec,C,C,Pa,%,%,%,%,%,g,/m,,
Baseline,,42.0838,43.8693,147.49,98.0947,97.0635,0.000413487,0.0610548,21.0218,-836.798,0.0943967,,
4,0.75,40.8598,42.647,152.264,97.8338,96.7864,0.000300034,0.0625741,21.0182,188.634,0.0960774,0.0,0.0
8,1.75,40.5995,42.8987,147.671,97.821,96.7051,0.000276193,0.062911,21.0175,188.574,0.102402,0.0,0.0
12,2.75,40.7116,42.621,151.774,97.813,96.2599,0.000261535,0.0633833,21.017,188.454,0.142863,0.0,0.0
16,3.75,40.4905,42.7616,152.567,97.8202,96.9982,0.000322332,0.0638339,21.0167,188.414,0.0753251,0.0,0.0
20,4.75,40.565,42.3378,149.676,97.7978,95.7521,0.0004334,0.0643282,21.0165,188.444,0.188684,0.0,0.0
24,5.75,40.8925,42.5132,145.812,97.7818,96.5733,0.000591591,0.0648582,21.0163,188.464,0.110999,0.0,0.0
28,6.75,40.7661,42.3988,148.856,97.7806,97.1832,0.000714892,0.0653727,21.0164,188.474,0.0547031,0.0,0.0
32,7.75,40.6955,42.2792,146.851,97.773,97.2414,0.00080325,0.0656741,21.0167,188.464,0.0486595,0.0,0.0
36,8.75,40.754,42.7361,144.224,97.7686,96.5993,0.000827397,0.0657838,21.0169,188.434,0.107396,0.0,0.0
40,9.75,41.4057,42.5692,149.806,97.7558,96.1225,0.000810381,0.0657775,21.0171,188.454,0.150385,0.0,0.0
44,10.75,41.0091,42.7114,147.863,97.7486,96.3505,0.000755785,0.0655762,21.0176,188.464,0.128586,0.0,0.0
48,11.75,40.9678,42.502,144.922,97.7406,96.2671,0.000704809,0.0652404,21.0184,188.444,0.135581,0.0,0.0
52,12.75,41.2428,42.5626,145.268,97.7354,96.8633,0.000678952,0.0648271,21.0188,188.424,0.0799946,0.0,0.0
56,13.75,41.1234,43.0798,147.082,97.7274,94.9853,0.000683505,0.0644194,21.0189,188.424,0.254016,0.0,0.0
60,14.75,41.0896,42.9568,148.288,97.727,92.3694,0.000716934,0.0641168,21.0184,188.404,0.503236,0.0,0.0
64,15.75,40.8697,42.6436,148.704,97.7194,92.554,0.000843371,0.064067,21.018,188.394,0.484724,0.0,0.0
68,16.75,41.1359,42.6789,149.43,97.713,92.1351,0.00107055,0.0644066,21.0162,188.354,0.524628,0.0,0.0
72,17.75,40.9473,42.6571,143.362,97.7054,92.161,0.00186633,0.0653536,21.0141,188.324,0.521421,0.0,0.0
76,18.75,41.0798,42.4786,151.58,97.7086,89.358,0.00275597,0.0686416,21.0083,188.303,0.797392,0.0,1.0
80,19.75,40.6672,42.834,142.878,97.6877,83.9094,0.00405413,0.0756042,20.9926,188.203,1.35703,0.0,1.0
84,20.75,41.3577,43.0387,142.438,97.6809,82.1466,0.00568123,0.0875801,20.9718,188.163,1.54592,0.0,1.0
88,21.75,41.2092,43.2544,141.692,97.6713,82.4337,0.00744916,0.0974679,20.9446,188.013,1.5139,0.0,1.0
92,22.75,41.7268,43.437,145.358,97.6705,82.4873,0.00936394,0.112611,20.9173,187.923,1.50803,0.0,1.0
96,23.75,41.4501,43.1318,137.707,97.6665,78.8056,0.0109796,0.127535,20.8932,188.013,1.9152,0.0,1.0
100,24.75,41.8621,43.5626,142.169,97.6625,79.2135,0.0130352,0.142853,20.8704,187.863,1.86876,0.0,0.0
104,25.75,42.1259,43.5391,138.873,97.6521,75.8329,0.0149412,0.158694,20.8487,187.623,2.25709,0.0,0.0
108,26.75,42.9796,44.5539,136.515,97.6613,77.3291,0.0166919,0.176464,20.8248,187.543,2.08355,0.0,0.0
112,27.75,42.5509,44.3187,139.149,97.6465,77.472,0.0181298,0.192487,20.7986,187.403,2.06572,0.0,0.0
116,28.75,43.2576,45.7838,136.181,97.6417,77.3861,0.0192081,0.208805,20.7768,187.273,2.07518,0.0,0.0
120,29.75,43.5417,45.5066,140.451,97.6425,77.7901,0.0199406,0.224183,20.7577,187.122,2.02878,0.0,0.0
124,30.75,43.861,45.9577,137.475,97.6233,73.2107,0.0204281,0.236724,20.7468,186.992,2.56856,0.0,0.0
128,31.75,44.723,46.6079,135.794,97.6249,69.726,0.0207249,0.246444,20.7384,186.862,3.00399,0.0,0.0
132,32.75,45.0011,47.0175,132.987,97.6301,64.9871,0.0209211,0.255023,20.7291,186.702,3.63269,0.0,0.0
136,33.75,45.0846,47.4253,136.209,97.6109,66.376,0.0210802,0.26428,20.7178,186.612,3.44218,0.0,0.0
140,34.75,45.609,47.9338,140.643,97.6113,63.2035,0.0212536,0.272964,20.7041,186.442,3.87936,0.0,0.0
144,35.75,46.1614,48.5845,135.759,97.6053,61.5929,0.0214147,0.281388,20.691,186.242,4.1092,0.0,0.0
148,36.75,46.6655,49.1248,137.778,97.6073,63.0823,0.0215771,0.290557,20.6786,186.132,3.89613,0.0,0.0
152,37.75,46.9942,49.2517,138.695,97.6161,60.1117,0.0217066,0.299233,20.6682,185.981,4.32746,0.0,0.0
156,38.75,47.8825,50.2939,133.927,97.6025,63.2962,0.0218184,0.307517,20.6594,185.811,3.86547,0.0,0.0
160,39.75,48.0362,50.5581,132.673,97.5913,65.5914,0.0218771,0.31482,20.6523,185.681,3.54652,0.0,0.0
164,40.75,48.4048,51.1684,134.688,97.5961,65.6157,0.0218888,0.320773,20.6465,185.561,3.54366,0.0,0.0
168,41.75,48.5312,51.0952,136.561,97.5917,59.8468,0.0218794,0.325524,20.6423,185.411,4.36465,0.0,0.0
172,42.75,48.5675,51.3471,135.302,97.5937,64.5835,0.0218513,0.329591,20.6395,185.241,3.68496,0.0,0.0
176,43.75,49.4151,52.2241,131.81,97.5889,64.4878,0.0218139,0.332739,20.6382,185.101,3.69775,0.0,0.0
180,44.75,49.5742,52.3136,137.972,97.5805,67.9436,0.0217578,0.334969,20.6378,184.94,3.23105,0.0,0.0
184,45.75,50.0847,52.6401,140.937,97.5781,66.94,0.0216975,0.336927,20.638,184.82,3.36366,0.0,0.0
188,46.75,50.3942,53.0835,139.696,97.5785,68.8592,0.0216246,0.338812,20.6381,184.69,3.11139,0.0,0.0
192,47.75,50.6308,53.3978,136.922,97.5737,65.8279,0.0216074,0.341046,20.6377,184.58,3.51279,0.0,0.0
196,48.75,50.8454,53.851,139.672,97.5761,67.0684,0.0216544,0.343937,20.6359,184.42,3.34637,0.0,0.0
200,49.75,51.4694,54.4283,136.255,97.5681,70.1508,0.0217583,0.346328,20.6324,184.31,2.94458,0.0,0.0
204,50.75,51.6501,53.9701,132.803,97.5717,70.4438,0.0219426,0.350702,20.6277,184.14,2.9077,0.0,0.0
208,51.75,51.6902,55.1204,135.333,97.5733,70.3281,0.0221975,0.356134,20.6242,183.98,2.92252,0.0,0.0
212,52.75,52.3242,55.8504,134.78,97.5733,68.3191,0.0224732,0.362004,20.6199,183.889,3.1812,0.0,0.0
216,53.75,52.7659,55.8464,135.193,97.5649,69.1455,0.0230352,0.367384,20.6173,183.729,3.07312,0.0,0.0
220,54.75,52.7167,55.8778,136.058,97.5617,70.3541,0.0236939,0.371594,20.6158,183.539,2.91816,0.0,0.0
224,55.75,53.1618,56.679,137.061,97.5641,68.8261,0.0244466,0.376119,20.611,183.369,3.11437,0.0,0.0
228,56.75,53.5325,56.7824,131.685,97.5645,72.0539,0.0252163,0.381757,20.598,183.169,2.70533,0.0,0.0
232,57.75,53.9463,57.359,132.271,97.5625,72.2036,0.0261271,0.390311,20.5788,182.979,2.68662,0.0,0.0
236,58.75,54.4559,57.9516,134.617,97.5653,70.639,0.0271067,0.401594,20.5618,182.778,2.88242,0.0,0.0
240,59.75,54.9718,58.3371,130.374,97.5585,68.6853,0.0282162,0.411982,20.5435,182.588,3.13213,0.0,0.0
244,60.75,53.958,59.8574,133.756,97.5689,64.993,0.0294472,0.42204,20.5264,182.408,3.62627,0.0,0.0
248,61.75,55.372,59.1766,133.476,97.5645,64.5363,0.0308354,0.430294,20.5101,182.258,3.68881,0.0,0.0
252,62.75,56.1759,59.8541,129.366,97.5665,62.9896,0.0322251,0.437163,20.4945,182.008,3.90552,0.0,0.0
256,63.75,56.5258,60.1946,133.969,97.5324,63.2426,0.0334966,0.442608,20.4833,181.838,3.86662,0.0,0.0
260,64.75,56.7526,60.3633,131.143,97.5593,59.2879,0.0345802,0.445774,20.4759,181.627,4.44542,0.0,0.0
264,65.75,57.1697,60.8654,130.297,97.5589,60.3443,0.03532,0.446211,20.4715,181.437,4.28775,0.0,0.0
268,66.75,57.6589,61.5023,131.667,97.5573,60.5497,0.0357742,0.444709,20.4698,181.247,4.25727,0.0,0.0
272,67.75,57.9811,61.6035,131.647,97.5529,59.0523,0.0358573,0.441795,20.473,181.107,4.48038,0.0,0.0
276,68.75,57.8822,62.0364,127.924,97.5453,60.9699,0.0356054,0.434924,20.4799,180.967,4.19445,0.0,0.0
280,69.75,58.4896,62.4859,135.788,97.5445,60.9223,0.0351819,0.426977,20.4924,180.777,4.20135,0.0,0.0
284,70.75,58.7186,62.3385,132.068,97.5421,60.4319,0.0342517,0.417213,20.5063,180.646,4.27326,0.0,0.0
288,71.75,58.9633,62.8914,136.663,97.5377,62.176,0.0332721,0.407022,20.5202,180.546,4.01891,0.0,0.0
292,72.75,59.0799,63.0768,134.764,97.5385,60.4655,0.0320646,0.397822,20.532,180.386,4.26797,0.0,0.0
296,73.75,59.2719,63.4801,136.725,97.5369,62.7782,0.0307341,0.388468,20.5445,180.226,3.93281,0.0,0.0
300,74.75,59.4056,63.286,133.389,97.5361,61.5474,0.0294744,0.379755,20.5549,180.116,4.10946,0.0,0.0
304,75.75,59.7917,63.4969,132.992,97.5232,62.6859,0.0284188,0.371497,20.5649,179.996,3.9447,0.0,0.0
308,76.75,59.4717,63.7148,137.426,97.5324,63.0223,0.0270816,0.363019,20.5765,179.866,3.89777,0.0,0.0
312,77.75,59.938,63.9073,138.017,97.5204,61.2374,0.0259325,0.355584,20.5857,179.736,4.15311,0.0,0.0
316,78.75,59.9391,64.139,132.241,97.5108,61.4743,0.0248658,0.349986,20.5939,179.636,4.11777,0.0,0.0
320,79.75,60.2501,64.7314,138.228,97.5012,62.5511,0.0239998,0.344251,20.6007,179.515,3.9619,0.0,0.0
324,80.75,59.878,64.1896,137.07,97.4924,61.9642,0.0231343,0.33952,20.6067,179.375,4.04523,0.0,0.0
328,81.75,60.2394,64.1025,133.479,97.492,61.4467,0.022411,0.33586,20.6107,179.295,4.12006,0.0,0.0
332,82.75,59.7228,64.8245,135.865,97.4908,61.7171,0.0218322,0.333003,20.6133,179.195,4.08075,0.0,0.0
336,83.75,60.2311,64.2481,138.151,97.48,59.1246,0.0213916,0.331006,20.615,179.115,4.46279,0.0,0.0
340,84.75,60.2951,64.8131,134.933,97.48,56.2646,0.0210659,0.329615,20.6153,179.015,4.90533,0.0,0.0
344,85.75,60.5546,65.2058,139,97.4696,60.7437,0.0208385,0.328638,20.6149,178.925,4.22071,0.0,0.0
348,86.75,60.5421,65.3783,133.877,97.4712,57.8884,0.0206611,0.328339,20.6142,178.815,4.65059,0.0,0.0
352,87.75,60.5039,64.8084,135.688,97.462,58.084,0.020496,0.328349,20.6132,178.715,4.61964,0.0,0.0
356,88.75,60.799,65.0652,131.339,97.4636,56.9345,0.0202931,0.328378,20.6125,178.635,4.7982,0.0,0.0
360,89.75,60.8698,65.1858,131.693,97.4548,58.2354,0.0200537,0.328376,20.6105,178.534,4.59574,0.0,0.0
364,90.75,61.1369,65.3572,136.053,97.4516,57.4214,0.0197912,0.329042,20.6084,178.394,4.72109,0.0,0.0
368,91.75,60.6824,65.2288,135.53,97.458,57.0004,0.0195195,0.329776,20.607,178.284,4.78736,0.0,0.0
372,92.75,61.4231,65.9513,135.437,97.4732,56.405,0.019278,0.330108,20.606,178.214,4.88247,0.0,0.0
376,93.75,61.3241,65.7949,134.874,97.4532,56.8239,0.0190267,0.330174,20.6054,178.104,4.8146,0.0,0.0
380,94.75,61.3884,66.0517,135.772,97.4496,56.7575,0.0187499,0.330169,20.6053,178.024,4.82469,0.0,0.0
384,95.75,61.938,66.4772,136.721,97.4456,59.5657,0.0184183,0.32976,20.6062,177.904,4.39331,0.0,0.0
388,96.75,61.6366,66.3846,138.184,97.444,57.7433,0.018061,0.328781,20.6079,177.814,4.67049,0.0,0.0
392,97.75,61.5882,66.1543,136.455,97.4428,59.117,0.0176925,0.327195,20.6123,177.724,4.46053,0.0,0.0
396,98.75,61.5675,66.3479,136,97.4376,58.0113,0.0173323,0.324655,20.616,177.644,4.62858,0.0,0.0
400,99.75,61.6379,66.3492,139.346,97.4404,60.6697,0.0169645,0.322147,20.6214,177.594,4.22891,0.0,0.0
404,100.75,61.9026,66.3832,132.903,97.4448,59.985,0.0165519,0.319461,20.6272,177.484,4.33062,0.0,0.0
408,101.75,61.8219,66.3671,131.203,97.4364,63.7342,0.0160661,0.31748,20.6342,177.413,3.78871,0.0,0.0
412,102.75,61.9596,66.4313,137.409,97.4352,61.584,0.0155484,0.31412,20.642,177.313,4.09492,0.0,0.0
416,103.75,61.8003,66.1753,138.477,97.4444,64.652,0.0150017,0.310567,20.6512,177.213,3.66184,0.0,0.0
420,104.75,62.4139,66.7383,132.21,97.4496,64.6583,0.0144336,0.306603,20.662,177.123,3.66143,0.0,0.0
424,105.75,61.6126,66.2609,141.079,97.4644,67.9449,0.0139161,0.301864,20.6739,177.093,3.22026,0.0,0.0
428,106.75,61.9394,66.6899,136.751,97.4368,66.6623,0.0134036,0.29659,20.6836,177.033,3.38784,0.0,0.0
432,107.75,62.0342,66.657,137.305,97.4416,69.4797,0.0129512,0.292122,20.6912,176.963,3.01879,0.0,0.0
436,108.75,61.9997,66.5065,138.051,97.436,71.655,0.0125064,0.287952,20.6979,176.893,2.74312,0.0,0.0
440,109.75,61.7382,66.3569,134.007,97.4312,70.5731,0.0120286,0.284652,20.7055,176.803,2.87847,0.0,0.0
444,110.75,62.0802,66.763,137.332,97.4516,71.7507,0.0115396,0.280391,20.7137,176.753,2.73264,0.0,0.0
448,111.75,61.9205,66.7137,139.177,97.4484,72.372,0.0110792,0.275951,20.7239,176.653,2.65539,0.0,0.0
452,112.75,61.6006,66.0566,142.296,97.4392,76.1319,0.0106968,0.271218,20.733,176.603,2.20249,0.0,0.0
456,113.75,61.5098,66.2845,135.755,97.4476,77.1794,0.0103397,0.26704,20.7415,176.523,2.08129,0.0,0.0
460,114.75,61.3788,65.6178,141.298,97.4388,77.8602,0.010002,0.263074,20.749,176.453,2.00209,0.0,0.0
464,115.75,60.8761,65.8279,138.992,97.45,78.8494,0.00968782,0.259136,20.756,176.373,1.89043,0.0,0.0
468,116.75,61.4993,66.5631,138.544,97.46,81.0005,0.00936324,0.255412,20.7636,176.302,1.65111,0.0,0.0
472,117.75,60.5158,65.8379,140.596,97.4404,80.5289,0.00903221,0.251782,20.7703,176.232,1.70144,0.0,0.0
476,118.75,60.4939,65.9244,139.084,97.4564,81.9404,0.00871588,0.247869,20.7771,176.162,1.54782,0.0,0.0
480,119.75,61.0902,65.6585,139.616,97.4504,84.3253,0.00844053,0.243938,20.785,176.112,1.29119,0.0,0.0
484,120.75,60.5848,65.1494,139.173,97.452,83.8851,0.00818693,0.240353,20.7918,176.022,1.33805,0.0,0.0
488,121.75,60.2336,65.6251,139.899,97.4588,85.6556,0.00792883,0.236917,20.7963,175.992,1.15225,0.0,0.0
492,122.75,60.272,65.211,141.239,97.462,85.9503,0.00770832,0.23362,20.8009,175.942,1.12189,0.0,0.0
496,123.75,60.7341,64.6965,138.038,97.46,86.2697,0.00747385,0.22991,20.806,175.882,1.0886,0.0,0.0
500,124.75,60.8102,64.8709,140.041,97.4696,86.504,0.00723027,0.226763,20.8117,175.852,1.06527,0.0,0.0
504,125.75,60.1356,64.7126,142.962,97.4684,87.1534,0.00704971,0.222979,20.8172,175.812,0.998403,0.0,0.0
508,126.75,59.6845,64.6965,138.235,97.468,88.1677,0.00678282,0.2194,20.8236,175.772,0.895089,0.0,0.0
512,127.75,59.6044,64.3967,138.717,97.4676,87.514,0.00652838,0.216057,20.8294,175.722,0.961471,0.0,0.0
516,128.75,59.8527,64.4095,143.781,97.4824,89.173,0.00633446,0.21389,20.8346,175.642,0.795209,0.0,0.0
520,129.75,59.6055,64.0848,138.401,97.4812,88.6955,0.00613482,0.210912,20.8385,175.632,0.84303,0.0,0.0
524,130.75,59.5786,63.5041,144.371,97.4796,89.37,0.0059878,0.208636,20.8419,175.562,0.775265,0.0,0.0
528,131.75,59.0436,63.9865,140.507,97.486,90.2834,0.00588455,0.206364,20.846,175.532,0.685082,0.0,0.0
532,132.75,59.339,63.4414,140.876,97.4876,90.0257,0.00581681,0.203951,20.8505,175.492,0.710743,0.0,0.0
536,133.75,59.1466,63.615,143.532,97.4924,90.2575,0.00575654,0.201941,20.8538,175.452,0.688233,0.0,0.0
540,134.75,59.0393,63.5078,140.579,97.4964,91.1672,0.00568309,0.200343,20.8566,175.392,0.599093,0.0,0.0
544,135.75,58.7108,63.1623,143.36,97.4988,90.9082,0.00559996,0.199062,20.8586,175.342,0.624705,0.0,0.0
548,136.75,58.6737,63.2031,140.813,97.506,91.5031,0.0055059,0.197906,20.8601,175.292,0.56714,0.0,0.0
552,137.75,57.9133,63.2638,140.407,97.524,92.1662,0.00543443,0.19644,20.8617,175.251,0.504349,0.0,0.0
556,138.75,58.2778,62.5111,141.677,97.5092,91.2973,0.00538791,0.194858,20.8643,175.211,0.587533,0.0,0.0
560,139.75,58.3074,62.5539,140.606,97.52,91.6626,0.00536219,0.19292,20.8677,175.161,0.552879,0.0,0.0
564,140.75,58.1823,62.3923,138.175,97.5276,93.0852,0.00534532,0.191003,20.8705,175.191,0.416118,0.0,0.0
568,141.75,57.3972,62.4579,143.491,97.5288,92.1019,0.00528912,0.18906,20.8738,175.181,0.51101,0.0,0.0
572,142.75,57.8204,61.8473,144.385,97.5393,92.2555,0.00520428,0.187038,20.8767,175.131,0.497096,0.0,0.0
576,143.75,57.4584,61.7461,145.384,97.5417,93.4837,0.00511704,0.185119,20.8793,175.091,0.379273,0.0,0.0
580,144.75,57.3872,62.0012,143.467,97.5365,92.8402,0.00503223,0.183463,20.8815,175.071,0.440444,0.0,0.0
584,145.75,57.6053,61.8339,141.691,97.5433,93.0324,0.00498044,0.182041,20.8831,175.031,0.422605,0.0,0.0
588,146.75,57.1125,61.6829,140.144,97.5521,92.551,0.00492899,0.180845,20.8847,174.961,0.469718,0.0,0.0
592,147.75,57.1898,61.1251,141.921,97.5613,92.8109,0.00488717,0.180113,20.8856,174.991,0.445536,0.0,0.0
596,148.75,56.6537,61.0589,136.523,97.5585,93.2702,0.00485074,0.179688,20.8862,174.921,0.401218,0.0,0.0
600,149.75,56.6768,61.1878,143.386,97.5745,93.4513,0.00482492,0.179143,20.8866,174.891,0.385363,0.0,0.0
604,150.75,56.9794,60.9504,139.554,97.5793,93.2906,0.00479223,0.178578,20.8877,174.831,0.401168,0.0,0.0
608,151.75,56.3251,60.9588,138.839,97.5849,93.5479,0.00474602,0.178021,20.889,174.841,0.377098,0.0,0.0
612,152.75,56.6386,60.8277,141.805,97.5881,93.1549,0.00471571,0.17718,20.8907,174.781,0.414963,0.0,0.0
616,153.75,56.4416,60.4458,142.255,97.5929,94.3559,0.00472508,0.176181,20.892,174.731,0.301066,0.0,0.0
620,154.75,56.4984,60.4128,144.177,97.5953,94.2921,0.00477025,0.175115,20.8934,174.741,0.307323,0.0,0.0
624,155.75,55.9505,60.0774,136.113,97.6089,93.0384,0.00484235,0.173953,20.895,174.711,0.428038,0.0,0.0
628,156.75,56.1925,60.0766,140.894,97.6065,94.1594,0.00489039,0.172907,20.8964,174.671,0.320916,0.0,0.0
632,157.75,55.7285,60.2678,143.576,97.6173,94.7004,0.00488701,0.171996,20.8973,174.671,0.270773,0.0,0.0
636,158.75,55.424,60.034,144.828,97.6341,93.3739,0.00483469,0.171213,20.8979,174.661,0.398212,0.0,0.0
640,159.75,56.2092,59.9315,146.438,97.6253,93.9732,0.00477164,0.170516,20.8983,174.581,0.34031,0.0,0.0
644,160.75,55.7659,59.6448,141.146,97.6373,94.5703,0.00469878,0.169976,20.8992,174.551,0.284876,0.0,0.0
648,161.75,55.3015,59.7769,145.783,97.6429,93.2829,0.00464198,0.1696,20.9,174.591,0.40772,0.0,0.0
652,162.75,54.9251,59.514,142.67,97.6549,93.5037,0.00461358,0.169252,20.9005,174.531,0.387723,0.0,0.0
656,163.75,55.46,59.7057,145.496,97.6717,93.7797,0.00460583,0.168797,20.9008,174.491,0.362952,0.0,0.0
660,164.75,55.2723,59.5376,141.967,97.6705,93.7214,0.00463191,0.168276,20.901,174.431,0.368388,0.0,0.0
664,165.75,55.0066,59.2385,141.111,97.6697,93.7439,0.00470353,0.167674,20.9011,174.391,0.366169,0.0,0.0
668,166.75,54.826,59.018,146.198,97.6825,94.3682,0.0048061,0.167097,20.9018,174.391,0.308096,0.0,0.0
672,167.75,54.7456,59.0059,139.538,97.6945,94.5792,0.00491033,0.166698,20.9025,174.391,0.289264,0.0,0.0
676,168.75,54.9222,58.504,140.682,97.7094,94.617,0.0049947,0.16613,20.9029,174.341,0.287046,0.0,0.0
680,169.75,54.7644,58.682,139.634,97.701,93.7456,0.00505717,0.165467,20.9034,174.341,0.36886,0.0,0.0
684,170.75,54.4904,58.5012,140.397,97.7074,93.9493,0.00511253,0.164734,20.9043,174.301,0.350071,0.0,0.0
688,171.75,54.6822,58.2954,137.884,97.7174,94.2606,0.00517926,0.164095,20.9049,174.291,0.321459,0.0,0.0
692,172.75,54.3107,58.1291,141.027,97.7202,93.5555,0.00525013,0.163601,20.906,174.241,0.388733,0.0,0.0
696,173.75,54.4234,58.533,139.358,97.7338,94.1497,0.00529306,0.163154,20.9068,174.221,0.333474,0.0,0.0
700,174.75,54.4307,58.3666,144.761,97.727,94.0472,0.00529996,0.162598,20.908,174.221,0.342574,0.0,0.0
704,175.75,54.116,58.0981,144.46,97.7466,94.1981,0.00527515,0.161888,20.9096,174.16,0.33005,0.0,0.0
708,176.75,54.2141,57.7751,143.393,97.7554,94.9475,0.00523221,0.160936,20.9108,174.16,0.260131,0.0,0.0
712,177.75,53.8746,57.9721,142.907,97.7558,94.3708,0.00516698,0.159989,20.9116,174.14,0.314544,0.0,0.0
716,178.75,53.8431,57.7022,143.297,97.7578,95.1707,0.00508628,0.159134,20.9121,174.07,0.239388,0.0,0.0
720,179.75,53.8283,57.4107,146.747,97.7722,95.0542,0.00501353,0.1585,20.9124,174.06,0.251637,0.0,0.0
724,180.75,53.7362,58.224,140.827,97.785,95.1856,0.0049601,0.157902,20.9135,174.04,0.240476,0.0,0.0
728,181.75,53.4731,57.299,141.845,97.7838,94.7723,0.00493686,0.157265,20.9141,173.98,0.279212,0.0,0.0
732,182.75,53.5252,57.3657,141.435,97.7962,94.8952,0.00494238,0.156494,20.915,173.96,0.268777,0.0,0.0
736,183.75,53.7125,57.4364,145.148,97.801,94.805,0.0049798,0.155738,20.9156,173.97,0.277699,0.0,0.0
740,184.75,53.7191,57.2442,146.525,97.7974,94.0731,0.00501183,0.155002,20.9161,173.94,0.346544,0.0,0.0
744,185.75,53.2656,57.4645,142.537,97.8134,94.0255,0.00502893,0.154378,20.9163,173.94,0.352526,0.0,0.0
748,186.75,53.3231,56.6281,141.046,97.8242,94.3338,0.00500718,0.153821,20.9168,173.89,0.324291,0.0,0.0
752,187.75,53.1696,56.8902,142.829,97.8294,94.5341,0.00494787,0.153223,20.9178,173.86,0.305833,0.0,0.0
756,188.75,53.1878,57.0512,144.137,97.8358,95.0602,0.00488094,0.152494,20.9191,173.86,0.256886,0.0,0.0
760,189.75,53.4076,56.9392,140.98,97.8514,94.3653,0.0048205,0.15171,20.9208,173.83,0.323797,0.0,0.0
764,190.75,53.1831,57.1731,147.144,97.8486,94.9079,0.00478723,0.150929,20.9218,173.87,0.272361,0.0,0.0
768,191.75,52.7668,56.2318,146.092,97.8578,94.2385,0.00479898,0.150042,20.9225,173.81,0.336376,0.0,0.0
772,192.75,53.05,56.4478,144.65,97.8522,94.6617,0.00481573,0.149088,20.923,173.8,0.295877,0.0,0.0
776,193.75,52.2644,55.8688,143.92,97.8671,94.663,0.00488304,0.148242,20.9245,173.76,0.297107,0.0,0.0
780,194.75,52.6471,56.1198,145.87,97.8827,94.7837,0.00496777,0.147572,20.9259,173.72,0.28715,0.0,0.0
784,195.75,52.1927,56.0007,144.959,97.8887,95.576,0.00505946,0.146962,20.9267,173.73,0.2134,0.0,0.0
788,196.75,52.7761,56.6359,139.979,97.9035,95.3706,0.00515798,0.146367,20.9279,173.7,0.233953,0.0,0.0
792,197.75,52.0333,55.3259,146.962,97.9227,95.8286,0.00525875,0.145856,20.9289,173.66,0.19294,0.0,0.0
796,198.75,52.5597,55.7511,142.719,97.9323,94.9147,0.00534359,0.145323,20.9298,173.63,0.279348,0.0,0.0
800,199.75,52.3276,55.8598,142.74,97.9443,95.2307,0.00541941,0.144959,20.9309,173.65,0.250778,0.0,0.0
804,200.75,52.7018,55.8959,140.912,97.9643,96.0077,0.00548069,0.144745,20.9316,173.61,0.180073,0.0,0.0
808,201.75,51.9054,55.2642,146.001,97.9627,95.2737,0.00553571,0.144531,20.9321,173.58,0.24843,0.0,0.0
812,202.75,52.1654,55.7568,141.951,97.9731,95.2566,0.00558764,0.144056,20.9327,173.56,0.250972,0.0,0.0
816,203.75,52.3243,55.1624,142.456,97.9847,95.7912,0.0056334,0.143435,20.9336,173.51,0.20208,0.0,0.0
820,204.75,51.9823,55.1939,144.044,97.9951,95.2617,0.00567465,0.142796,20.9342,173.5,0.252499,0.0,0.0
824,205.75,51.9414,55.2382,143.526,98.0031,95.3026,0.00569101,0.142336,20.9353,173.51,0.249405,0.0,0.0
828,206.75,51.81,55.47,141.749,98.0015,95.969,0.0056775,0.141861,20.9361,173.49,0.187063,0.0,0.0
832,207.75,51.8399,55.0783,144.042,98.0183,95.602,0.00563972,0.141293,20.9367,173.46,0.222792,0.0,0.0
836,208.75,51.8026,54.8451,147.575,98.0307,96.0145,0.00558912,0.14062,20.937,173.44,0.185492,0.0,0.0
840,209.75,51.6015,55.1322,144.854,98.0468,95.2494,0.00555244,0.139786,20.9382,173.45,0.258357,0.0,0.0
844,210.75,51.8022,55.0569,144.803,98.0508,95.5726,0.00554309,0.138949,20.9396,173.42,0.228484,0.0,0.0
848,211.75,51.6536,54.8467,144.219,98.0728,95.909,0.00554013,0.138122,20.9406,173.41,0.199128,0.0,0.0
852,212.75,51.2963,54.7923,148.469,98.0692,95.7542,0.00553659,0.137381,20.9412,173.38,0.213218,0.0,0.0
856,213.75,51.6802,54.8275,146.703,98.09,95.5799,0.00551167,0.136768,20.9423,173.33,0.23138,0.0,0.0
860,214.75,51.1926,54.8908,141.355,98.09,96.1565,0.00548855,0.13616,20.9431,173.33,0.17769,0.0,0.0
864,215.75,51.1906,54.557,140.317,98.1104,96.37,0.00548651,0.135591,20.9437,173.31,0.159751,0.0,0.0
868,216.75,51.0676,54.1335,142.855,98.1056,96.2705,0.00553038,0.134896,20.9444,173.28,0.168536,0.0,0.0
872,217.75,51.1268,54.5788,145.209,98.1188,95.9541,0.00559846,0.134291,20.9457,173.28,0.199121,0.0,0.0
876,218.75,50.9952,54.2514,145.101,98.136,95.7313,0.00566077,0.133591,20.9465,173.23,0.22144,0.0,0.0
880,219.75,51.2621,54.4234,147.206,98.156,95.5607,0.00570844,0.132929,20.9477,173.23,0.239173,0.0,0.0
884,220.75,50.4485,54.0239,142.775,98.1496,96.8625,0.00573746,0.132342,20.9486,173.23,0.117823,0.0,0.0
888,221.75,50.997,54.234,150.89,98.1692,96.0213,0.00575649,0.131768,20.9497,173.22,0.197459,0.0,0.0
892,222.75,50.9106,54.2481,144.1,98.1816,96.4147,0.00577611,0.131191,20.9507,173.22,0.162095,0.0,0.0
896,223.75,50.7984,54.2452,145.326,98.1896,96.4262,0.00580339,0.130586,20.9514,173.22,0.16176,0.0,0.0
900,224.75,50.5044,53.562,144.954,98.2037,96.6558,0.00582965,0.130059,20.9519,173.14,0.141802,0.0,0.0
904,225.75,50.3239,53.7039,144.188,98.2217,96.2841,0.00585092,0.129658,20.9522,173.14,0.177828,0.0,0.0
908,226.75,50.9138,53.8812,144.631,98.2297,97.1104,0.00588073,0.129267,20.9524,173.099,0.102283,0.0,0.0
912,227.75,50.6294,53.8583,148.94,98.2353,97.1121,0.00590934,0.128883,20.9525,173.109,0.102636,0.0,0.0
916,228.75,50.167,53.5631,143.741,98.2537,96.3815,0.00593491,0.128631,20.9526,173.069,0.171714,0.0,0.0
920,229.75,50.4374,53.4587,138.34,98.2661,96.1914,0.00595395,0.12855,20.9527,173.079,0.190463,0.0,0.0
924,230.75,50.2915,54.0177,145.375,98.2681,96.5231,0.00595965,0.128524,20.9527,173.099,0.159917,0.0,0.0
928,231.75,50.8022,53.7166,143.214,98.2973,96.5138,0.00593848,0.128368,20.9534,173.069,0.163436,0.0,0.0
932,232.75,50.2915,53.648,145.273,98.2953,96.3109,0.00590334,0.127842,20.954,173.029,0.182035,0.0,0.0
936,233.75,50.3053,52.7779,144.616,98.3021,96.7566,0.00586109,0.127257,20.9543,173.009,0.141443,0.0,0.0
940,234.75,50.7,53.2532,142.669,98.3093,96.4585,0.00582856,0.126619,20.9546,172.999,0.169641,0.0,0.0
944,235.75,49.7429,52.8275,143.596,98.3257,96.6375,0.00584568,0.125869,20.9554,172.979,0.154579,0.0,0.0
948,236.75,50.4513,53.1332,142.159,98.3317,97.3516,0.00592486,0.125215,20.9561,172.929,0.0894171,0.0,0.0
952,237.75,50.059,52.7091,145.493,98.3461,96.6473,0.00603347,0.124663,20.9566,172.929,0.155528,0.0,0.0
956,238.75,50.2457,52.7625,141.863,98.3585,96.5384,0.00612227,0.124364,20.9569,172.879,0.166713,0.0,0.0
960,239.75,49.5435,52.4896,144.464,98.375,97.0875,0.00619474,0.124251,20.9569,172.869,0.117586,0.0,0.0
964,240.75,50.3952,52.9592,145.665,98.389,96.8187,0.00621054,0.124213,20.957,172.849,0.1436,0.0,0.0
968,241.75,49.8207,52.6661,141.543,98.3942,97.1023,0.0062073,0.124268,20.957,172.839,0.11796,0.0,0.0
972,242.75,50.1449,52.9881,146.362,98.4038,96.1293,0.00621053,0.124439,20.957,172.839,0.208722,0.0,0.0
976,243.75,49.4978,52.8028,145.7,98.4242,96.6086,0.00623911,0.124769,20.9566,172.829,0.166184,0.0,0.0
980,244.75,49.1679,52.3732,144.955,98.433,96.8519,0.00632846,0.125427,20.9551,172.839,0.144536,0.0,0.0
984,245.75,49.493,52.5545,141.095,98.4394,96.4074,0.0063909,0.126288,20.9542,172.799,0.186167,0.0,0.0
988,246.75,49.4196,52.496,147.201,98.457,96.9986,0.00645952,0.127108,20.9536,172.799,0.133202,0.0,0.0
992,247.75,49.716,52.8239,145.744,98.4626,97.2257,0.00646445,0.127878,20.9532,172.749,0.112836,0.0,0.0
996,248.75,49.5594,52.575,144.798,98.4702,97.0262,0.00644194,0.128073,20.9529,172.719,0.131856,0.0,0.0
1000,249.75,49.3933,52.1199,145.306,98.4778,97.215,0.00641063,0.127991,20.9528,172.719,0.115192,0.0,0.0
1004,250.75,49.3285,52.6294,148.142,98.4986,97.4226,0.00636579,0.127782,20.9533,172.709,0.0980434,0.0,0.0
1008,251.75,49.3222,52.3575,142.494,98.5034,97.5676,0.0063409,0.127435,20.9538,172.689,0.0852024,0.0,0.0
1012,252.75,49.521,52.6119,146.681,98.5106,97.4264,0.0063586,0.127077,20.9541,172.699,0.0987811,0.0,0.0
1016,253.75,49.0437,52.6361,144.444,98.5319,96.9518,0.00641663,0.12634,20.9546,172.679,0.14429,0.0,0.0
1020,254.75,49.5869,51.9173,142.191,98.5347,97.4715,0.00650751,0.125545,20.9554,172.619,0.0968279,0.0,0.0
1024,255.75,48.8474,51.7027,146.103,98.5415,96.6588,0.0066042,0.124909,20.9568,172.619,0.172176,0.0,0.0
1028,256.75,49.1499,52.3051,144.29,98.5571,96.8315,0.00670403,0.124084,20.9583,172.629,0.157661,0.0,0.0
1032,257.75,49.2754,51.5222,143.936,98.5635,97.4149,0.00679,0.123201,20.9595,172.579,0.104618,0.0,0.0
1036,258.75,48.7182,51.8801,146.366,98.5827,97.6135,0.00684103,0.122389,20.9609,172.589,0.0881803,0.0,0.0
1040,259.75,48.4747,51.9113,144.706,98.5939,96.7592,0.0068625,0.121782,20.9618,172.579,0.16766,0.0,0.0
1044,260.75,49.0957,51.8848,144.473,98.5875,97.8024,0.00688033,0.121271,20.9626,172.549,0.0713656,0.0,0.0
1048,261.75,48.9363,51.6607,145.806,98.6011,97.7437,0.00686563,0.12083,20.9631,172.539,0.077955,0.0,0.0
1052,262.75,48.8833,51.596,148.714,98.6155,96.9675,0.00681578,0.120503,20.9632,172.519,0.150415,0.0,0.0
1056,263.75,48.4862,51.44,144.494,98.6167,96.9441,0.00673859,0.120059,20.9633,172.519,0.152678,0.0,0.0
1060,264.75,48.9158,51.5383,145.484,98.6335,97.5961,0.0066792,0.11973,20.964,172.499,0.0943751,0.0,0.0
1064,265.75,48.8009,51.5728,147.692,98.6367,97.8883,0.00658824,0.119591,20.9646,172.469,0.067984,0.0,0.0
1068,266.75,48.827,51.7702,142.391,98.6383,97.4064,0.00651408,0.119279,20.965,172.409,0.112173,0.0,0.0
1072,267.75,48.5064,51.6005,146.356,98.6427,97.2644,0.00648811,0.119051,20.9653,172.389,0.125597,0.0,0.0
1076,268.75,48.6604,51.4857,146.421,98.6523,97.5863,0.00649582,0.11872,20.966,172.409,0.096971,0.0,0.0
1080,269.75,48.8687,51.2757,144.638,98.6563,97.5804,0.0065802,0.118484,20.9667,172.389,0.0978793,0.0,0.0
1084,270.75,48.8145,51.3087,143.56,98.6555,97.446,0.00669241,0.118326,20.9672,172.389,0.110107,0.0,0.0
1088,271.75,48.4392,51.4319,146.18,98.6751,97.2669,0.00681286,0.118216,20.9675,172.349,0.128295,0.0,0.0
1092,272.75,48.444,51.4603,145.279,98.6719,96.6328,0.00690921,0.117962,20.9677,172.349,0.186383,0.0,0.0
1096,273.75,48.4587,51.1219,140.872,98.6771,96.8884,0.00696488,0.11754,20.9678,172.369,0.163277,0.0,0.0
1100,274.75,48.4162,51.4398,149.562,98.6787,96.9229,0.00699529,0.117188,20.9679,172.319,0.160249,0.0,0.0
1104,275.75,48.4926,50.9445,145.178,98.7011,97.366,0.00701524,0.117033,20.968,172.289,0.121561,0.0,0.0
1108,276.75,48.774,51.3923,145.831,98.6815,97.8542,0.00703551,0.116982,20.968,172.279,0.0751436,0.0,0.0
1112,277.75,48.0683,51.3248,143.216,98.6964,97.3613,0.00705073,0.117049,20.9672,172.279,0.121555,0.0,0.0
1116,278.75,48.509,51.2164,148.72,98.7008,97.8347,0.00706006,0.117171,20.9667,172.259,0.0786648,0.0,0.0
1120,279.75,48.4156,51.0759,143.791,98.7016,97.3805,0.0070656,0.117393,20.9665,172.259,0.120271,0.0,0.0
1124,280.75,48.2312,50.9643,146.105,98.7084,97.3728,0.00707881,0.117574,20.9662,172.209,0.121588,0.0,0.0
1128,281.75,48.348,50.7838,144.865,98.7164,97.5842,0.00709053,0.117642,20.9661,172.199,0.102959,0.0,0.0
1132,282.75,48.1315,50.8322,144.998,98.72,96.9948,0.00708683,0.117757,20.966,172.219,0.157361,0.0,0.0
1136,283.75,48.31,50.9218,146.034,98.726,97.0845,0.00706847,0.117915,20.9659,172.179,0.149649,0.0,0.0
1140,284.75,48.4109,50.8939,144.625,98.7336,97.6378,0.00703619,0.117998,20.9658,172.159,0.0996145,0.0,0.0
1144,285.75,48.143,50.8097,140.373,98.732,97.104,0.00702254,0.118062,20.9662,172.159,0.148395,0.0,0.0
1148,286.75,48.2318,50.9708,143.455,98.7516,97.9725,0.00702654,0.118072,20.9665,172.119,0.0706984,0.0,0.0
1152,287.75,48.2798,50.8621,144.095,98.734,97.7675,0.00706307,0.118062,20.9667,172.119,0.087801,0.0,0.0
1156,288.75,48.1306,50.7353,145.047,98.7296,97.3643,0.00711893,0.118104,20.9668,172.099,0.124286,0.0,0.0
1160,289.75,48.1071,50.6661,143.168,98.7392,97.8696,0.00714481,0.118142,20.9669,172.069,0.078958,0.0,0.0
1164,290.75,48.1407,50.7867,144.491,98.7384,97.4392,0.00713875,0.118228,20.967,172.059,0.118222,0.0,0.0
1168,291.75,48.0726,50.7173,140.525,98.7392,97.3639,0.00707156,0.11837,20.967,172.079,0.125193,0.0,0.0
1172,292.75,48.0117,50.374,144.084,98.7436,97.4086,0.00700561,0.118535,20.967,172.059,0.121498,0.0,0.0
1176,293.75,47.7333,50.955,145.229,98.74,97.3639,0.0069084,0.11868,20.967,172.039,0.125265,0.0,0.0
1180,294.75,47.8769,50.5722,149.815,98.742,96.9135,0.00680874,0.118596,20.9671,172.018,0.166828,0.0,0.0
1184,295.75,47.8929,50.44,143.721,98.7464,98.1111,0.00672912,0.118533,20.9677,172.039,0.0576066,0.0,0.0
1188,296.75,48.1473,50.7313,143.935,98.7548,97.6033,0.00664736,0.118347,20.9683,171.988,0.104682,0.0,0.0
1192,297.75,47.8824,50.6339,143.59,98.7504,97.9406,0.0066028,0.118022,20.9687,171.978,0.0734965,0.0,0.0
1196,298.75,48.0492,50.5224,143.27,98.7492,97.3086,0.00659325,0.117555,20.9689,171.968,0.131168,0.0,0.0
1200,299.75,47.7432,50.1398,149.117,98.7532,97.1895,0.00660481,0.117108,20.9691,171.948,0.142457,0.0,0.0
1204,300.75,48.0975,50.179,141.389,98.7412,97.0743,0.00663188,0.116687,20.9692,171.948,0.151963,0.0,0.0
1208,301.75,48.4768,50.4706,146.305,98.7624,97.6059,0.00667031,0.116385,20.9701,171.938,0.105136,0.0,0.0
1212,302.75,48.0091,50.4056,143.606,98.7388,97.7917,0.00672329,0.116183,20.9707,171.908,0.0860223,0.0,0.0
1216,303.75,47.5852,50.1432,141.701,98.7432,97.3035,0.00680346,0.116069,20.971,171.898,0.131092,0.0,0.0
1220,304.75,48.0966,50.6303,145.277,98.7424,97.4005,0.00688028,0.115994,20.9713,171.878,0.12213,0.0,0.0
1224,305.75,47.3308,49.6929,147.52,98.742,97.4877,0.00693068,0.115843,20.9714,171.868,0.114107,0.0,0.0
1228,306.75,47.647,49.8874,146.391,98.7484,97.7624,0.00694553,0.115624,20.9715,171.848,0.0895698,0.0,0.0
1232,307.75,47.7897,50.2531,147.932,98.7416,97.5489,0.00693416,0.115348,20.9716,171.818,0.108468,0.0,0.0
1236,308.75,47.8024,50.4092,143.719,98.7348,97.2389,0.00687517,0.115042,20.9717,171.838,0.136264,0.0,0.0
1240,309.75,47.7094,50.303,145.656,98.734,97.5753,0.00679556,0.114719,20.9716,171.838,0.105367,0.0,0.0
1244,310.75,47.6228,50.1013,143.352,98.7344,97.6199,0.00674961,0.114473,20.9714,171.798,0.10132,0.0,0.0
1248,311.75,47.5869,50.2058,145.277,98.7308,97.5144,0.0067484,0.11448,20.9712,171.778,0.110642,0.0,0.0
1252,312.75,47.6792,50.1088,146.423,98.7204,97.7556,0.00679458,0.11456,20.9711,171.778,0.0876577,0.0,0.0
1256,313.75,47.646,49.8021,150.718,98.7188,98.0898,0.00687059,0.11441,20.9715,171.758,0.0570452,0.0,0.0
1260,314.75,47.6879,50.4117,143.512,98.7232,98.5636,0.0069375,0.11416,20.9721,171.758,0.0144376,0.0,0.0
1264,315.75,47.8842,50.3002,144.35,98.7168,97.7649,0.00697711,0.113993,20.9725,171.718,0.0864786,0.0,0.0
1268,316.75,47.6952,49.9785,142.023,98.7108,97.3299,0.00698529,0.113919,20.9727,171.698,0.125743,0.0,0.0
1272,317.75,47.3755,49.8914,146.529,98.7088,97.4702,0.00695193,0.113871,20.9729,171.668,0.112702,0.0,0.0
1276,318.75,47.6718,50.1591,146.396,98.7044,97.5387,0.00688442,0.113763,20.973,171.678,0.106036,0.0,0.0
1280,319.75,47.8508,50.2949,138.269,98.702,97.4332,0.00679922,0.113632,20.9733,171.658,0.115475,0.0,0.0
1284,320.75,47.648,50.2447,142.951,98.6964,97.7041,0.00672721,0.113432,20.9736,171.648,0.090186,0.0,0.0
1288,321.75,47.5857,49.7256,146.753,98.7003,97.5906,0.00669158,0.113152,20.9737,171.648,0.100927,0.0,0.0
1292,322.75,47.4927,49.8147,144.512,98.6919,97.5157,0.00667566,0.112935,20.9738,171.648,0.107015,0.0,0.0
1296,323.75,47.3531,50.1899,146.512,98.6907,97.1636,0.00667039,0.112898,20.9739,171.618,0.139196,0.0,0.0
1300,324.75,46.9995,49.3659,141.32,98.6891,97.7709,0.00666817,0.112978,20.974,171.608,0.083437,0.0,0.0
1304,325.75,47.1111,49.5838,144.358,98.6831,97.5013,0.0066632,0.113027,20.974,171.608,0.107544,0.0,0.0
1308,326.75,47.1498,49.414,143.713,98.6879,97.9759,0.00666251,0.113059,20.974,171.628,0.064635,0.0,0.0
1312,327.75,47.3276,49.3327,143.297,98.6839,97.9423,0.00666044,0.113199,20.9741,171.598,0.0673346,0.0,0.0
1316,328.75,46.9855,49.6329,146.122,98.6903,98.0316,0.0066524,0.11338,20.9741,171.578,0.0597777,0.0,0.0
1320,329.75,47.2742,49.2572,143.668,98.6731,97.1542,0.00665849,0.11353,20.9739,171.548,0.138462,0.0,0.0
1324,330.75,47.5866,49.2128,146.818,98.6755,97.6033,0.00668166,0.113597,20.9737,171.538,0.0975162,0.0,0.0
1328,331.75,46.6097,49.2202,142.789,98.6779,98.2638,0.00674361,0.113551,20.9735,171.518,0.0375402,0.0,0.0
1332,332.75,47.3327,49.218,141.53,98.6627,97.8704,0.00685241,0.113451,20.9736,171.518,0.0719683,0.0,0.0
1336,333.75,47.258,49.38,143.415,98.6535,97.124,0.00697233,0.113209,20.9737,171.488,0.139463,0.0,0.0
1340,334.75,46.9749,49.0722,148.627,98.6579,97.3363,0.00708985,0.113049,20.9739,171.488,0.12038,0.0,0.0
1344,335.75,46.3959,49.4244,148.07,98.6575,97.4655,0.0071367,0.112615,20.9739,171.448,0.108496,0.0,0.0
1348,336.75,47.1212,49.2198,142.463,98.6467,97.8593,0.00709546,0.112229,20.9744,171.408,0.0715281,0.0,0.0
1352,337.75,47.0689,49.5476,143.238,98.6511,97.1419,0.00702109,0.111798,20.9751,171.418,0.137604,0.0,0.0
1356,338.75,46.7737,49.1089,145.385,98.6439,96.8527,0.00689812,0.111313,20.9756,171.408,0.163563,0.0,0.0
1360,339.75,46.842,49.3935,143.068,98.6519,96.6852,0.00681048,0.110767,20.9759,171.418,0.179742,0.0,0.0
1364,340.75,47.0123,49.0859,147.272,98.6459,97.3282,0.00677805,0.110388,20.9762,171.408,0.120034,0.0,0.0
1368,341.75,46.867,49.4097,145.49,98.6335,97.1496,0.00678143,0.110094,20.977,171.388,0.135307,0.0,0.0
1372,342.75,46.9739,49.2068,143.642,98.6271,97.6773,0.00679922,0.109845,20.9779,171.338,0.0863701,0.0,0.0
1376,343.75,47.1304,49.4759,145.884,98.6199,97.0768,0.00682454,0.109613,20.9785,171.328,0.14076,0.0,0.0
1380,344.75,46.8543,49.3629,144.727,98.6211,97.2814,0.00684603,0.109418,20.9789,171.328,0.122079,0.0,0.0
1384,345.75,47.415,49.1493,142.294,98.6159,97.1053,0.00686034,0.109242,20.9791,171.308,0.137777,0.0,0.0
1388,346.75,46.9397,49.4822,143.687,98.6191,97.2814,0.00685884,0.109055,20.9793,171.258,0.121899,0.0,0.0
1392,347.75,46.5221,48.5846,145.013,98.6115,97.9784,0.00683698,0.108753,20.9794,171.288,0.0574861,0.0,0.0
1396,348.75,46.9716,49.2907,142.957,98.6063,97.9444,0.00679825,0.108507,20.9795,171.258,0.0601138,0.0,0.0
1400,349.75,46.8023,49.0419,144.219,98.6095,97.0156,0.00677595,0.108385,20.98,171.278,0.14545,0.0,0.0
1404,350.75,47.2572,48.8128,144.504,98.6103,97.1381,0.00672805,0.10833,20.9806,171.248,0.13426,0.0,0.0
1408,351.75,46.6837,49.2089,144.074,98.6047,97.0977,0.00667814,0.10823,20.9811,171.228,0.137467,0.0,0.0
1412,352.75,46.5176,49.2429,141.172,98.6063,97.2376,0.00658973,0.108126,20.9814,171.248,0.124759,0.0,0.0
1416,353.75,46.9133,49.2725,141.952,98.5939,97.352,0.00650004,0.107918,20.9816,171.238,0.113142,0.0,0.0
1420,354.75,46.1148,49.0686,146.214,98.5943,97.2589,0.00642672,0.107503,20.9817,171.208,0.121721,0.0,0.0
1424,355.75,46.7934,49.2608,143.316,98.5939,97.8955,0.00638934,0.107113,20.9817,171.198,0.0634497,0.0,0.0
1428,356.75,46.6743,49.4007,146.468,98.5919,97.7267,0.00638736,0.106852,20.9817,171.178,0.0786753,0.0,0.0
1432,357.75,46.2547,48.7195,143.941,98.5795,97.4894,0.0064164,0.106703,20.9822,171.158,0.0992515,0.0,0.0
1436,358.75,46.6084,48.8246,147.139,98.5895,97.4736,0.00646979,0.106605,20.9826,171.138,0.101599,0.0,0.0
1440,359.75,46.695,49.4391,148.33,98.5855,97.4179,0.00653247,0.106465,20.9823,171.148,0.106339,0.0,0.0
1444,360.75,46.9424,48.9702,146.64,98.5927,97.5974,0.00658582,0.106322,20.9821,171.128,0.0905642,0.0,0.0
1448,361.75,46.362,48.4538,146.94,98.5755,97.7143,0.00661921,0.106305,20.982,171.138,0.0783157,0.0,0.0
1452,362.75,47.0321,49.113,145.052,98.5911,98.5083,0.0066343,0.106393,20.9819,171.138,0.00749707,0.0,0.0
1456,363.75,46.9547,49.2311,144.59,98.5831,97.8866,0.00661914,0.106577,20.9818,171.108,0.063286,0.0,0.0
1460,364.75,46.7751,49.2396,144.876,98.5775,97.4073,0.00657025,0.106767,20.9818,171.128,0.106589,0.0,0.0
1464,365.75,45.9725,48.4689,146.747,98.5663,97.3197,0.00653076,0.10694,20.9818,171.118,0.113604,0.0,0.0
1468,366.75,46.676,48.9749,142.121,98.5707,97.8211,0.0065159,0.107045,20.9818,171.068,0.0681361,0.0,0.0
1472,367.75,46.6941,49.2046,144.664,98.5623,97.7726,0.00651626,0.107006,20.9818,171.038,0.0717994,0.0,0.0
1476,368.75,47.1744,49.4105,144.49,98.5623,97.4464,0.00652001,0.106829,20.9818,171.048,0.101627,0.0,0.0
1480,369.75,46.5179,48.21,144.339,98.5583,96.8217,0.00652122,0.106654,20.9817,171.028,0.15867,0.0,0.0
1484,370.75,46.7967,48.7035,143.327,98.5523,97.2924,0.00652686,0.106462,20.9824,171.008,0.114833,0.0,0.0
1488,371.75,46.5677,49.3963,142.329,98.5467,97.5268,0.00653523,0.106279,20.983,171.008,0.0928547,0.0,0.0
1492,372.75,46.0833,49.0105,144.634,98.5455,96.7375,0.0065229,0.106125,20.9831,171.008,0.165276,0.0,0.0
1496,373.75,46.8438,48.8836,145.983,98.5415,97.8428,0.00645948,0.106015,20.9831,170.998,0.063511,0.0,0.0
1500,374.75,46.5907,49.4355,141.219,98.5395,97.0403,0.00638561,0.105925,20.9832,170.978,0.136838,0.0,0.0
1504,375.75,46.5851,48.4981,144.437,98.5503,97.2376,0.00633108,0.105815,20.9832,170.958,0.119686,0.0,0.0
1508,376.75,46.4428,49.2007,143.319,98.5298,97.5914,0.00630013,0.105842,20.9832,170.958,0.0854164,0.0,0.0
1512,377.75,46.6676,48.7107,142.174,98.5306,97.5859,0.00626229,0.105867,20.9832,170.927,0.085995,0.0,0.0
1516,378.75,46.4571,49.0803,146.363,98.5322,97.0973,0.00620573,0.105738,20.984,170.917,0.130946,0.0,0.0
1520,379.75,46.737,49.2355,144.604,98.513,97.7981,0.00614389,0.105477,20.9845,170.897,0.0650111,0.0,0.0
1524,380.75,46.3719,48.7113,141.991,98.5283,97.2976,0.00607762,0.105261,20.9848,170.907,0.11219,0.0,0.0
1528,381.75,46.6898,48.8779,144.613,98.5098,97.1513,0.00604305,0.105101,20.985,170.877,0.123951,0.0,0.0
1532,382.75,46.5819,48.8159,142.532,98.5194,97.0237,0.00604528,0.104996,20.9851,170.867,0.136551,0.0,0.0
1536,383.75,46.4691,48.6382,142.288,98.513,97.1695,0.00608555,0.104928,20.9846,170.887,0.122562,0.0,0.0
1540,384.75,46.1322,48.5786,144.915,98.5106,97.2325,0.00613116,0.104884,20.9851,170.837,0.116565,0.0,0.0
1544,385.75,46.4546,48.785,144.51,98.5062,97.4064,0.00621419,0.104841,20.9855,170.827,0.100213,0.0,0.0
1548,386.75,46.7226,48.3883,142.955,98.4966,97.1053,0.0062812,0.10475,20.9858,170.797,0.126975,0.0,0.0
1552,387.75,46.4549,48.8459,144.567,98.4986,96.9595,0.0063228,0.104705,20.9859,170.797,0.140575,0.0,0.0
1556,388.75,46.6222,48.4582,145.694,98.4898,97.5068,0.00633169,0.104647,20.986,170.837,0.089534,0.0,0.0
1560,389.75,46.4848,49.222,145.815,98.483,97.7309,0.00630568,0.104574,20.9861,170.797,0.0684265,0.0,0.0
1564,390.75,46.4804,48.9262,145.393,98.4766,97.8185,0.00626545,0.1044,20.9862,170.827,0.0598475,0.0,0.0
1568,391.75,46.5559,48.7708,142.046,98.4778,97.0279,0.00621798,0.104209,20.9862,170.817,0.132388,0.0,0.0
1572,392.75,46.401,48.9415,147.612,98.4686,97.1109,0.00617365,0.104085,20.9862,170.787,0.123929,0.0,0.0
1576,393.75,46.0946,48.681,143.581,98.4682,98.4726,0.00614683,0.103978,20.9869,170.777,-0.000397417,0.0,0.0
1580,394.75,46.2823,48.579,149.166,98.4994,97.1623,0.00614352,0.103857,20.9875,170.737,0.121993,0.0,0.0
1584,395.75,46.4348,48.3021,141.875,98.4634,96.6022,0.00615426,0.103957,20.9878,170.737,0.170329,0.0,0.0
1588,396.75,46.2605,48.6942,142.836,98.4606,97.3044,0.0061616,0.104056,20.9881,170.717,0.105436,0.0,0.0
1592,397.75,46.0913,48.912,145.005,98.4654,96.7464,0.00616612,0.104048,20.9882,170.717,0.1572,0.0,0.0
1596,398.75,46.0558,48.5127,148.153,98.455,96.5078,0.00614642,0.103939,20.9884,170.697,0.178295,0.0,0.0
1600,399.75,46.7241,48.8041,142.639,98.4502,97.0573,0.00610096,0.103854,20.9884,170.667,0.127186,0.0,0.0
1604,400.75,45.8156,48.1969,141.204,98.4466,97.2244,0.00604478,0.103769,20.9885,170.647,0.111503,0.0,0.0
1608,401.75,46.2187,48.8292,151.092,98.4322,96.6052,0.00597623,0.10368,20.988,170.637,0.167224,0.0,0.0
1612,402.75,46.2897,48.4473,149.523,98.4318,98.3854,0.0059259,0.103586,20.9874,170.627,0.00420611,0.0,0.0
1616,403.75,46.3945,48.6333,147.643,98.435,97.4932,0.0058827,0.103465,20.9869,170.627,0.0858095,0.0,0.0
1620,404.75,46.2259,48.2499,144.163,98.4286,97.4566,0.00584726,0.103243,20.9866,170.607,0.0885785,0.0,0.0
1624,405.75,46.6573,48.8661,144.216,98.4234,97.5412,0.00582776,0.103104,20.9864,170.607,0.0803585,0.0,0.0
1628,406.75,46.3967,48.3603,145.644,98.4234,97.2988,0.005818,0.103032,20.9863,170.587,0.102569,0.0,0.0
1632,407.75,46.7656,48.5541,143.098,98.4166,97.0186,0.00582744,0.102964,20.9868,170.567,0.127697,0.0,0.0
1636,408.75,46.3182,48.6223,145.387,98.4134,98.1536,0.00586039,0.102934,20.9874,170.557,0.0235877,0.0,0.0
1640,409.75,46.9865,48.6253,144.242,98.4022,97.0943,0.00593224,0.10282,20.9877,170.577,0.11943,0.0,0.0
1644,410.75,46.4915,48.668,146.315,98.3982,97.6335,0.00602471,0.102697,20.988,170.537,0.0696311,0.0,0.0
1648,411.75,46.4065,49.0491,151.622,98.4006,97.0947,0.00610682,0.102584,20.9881,170.517,0.119245,0.0,0.0
1652,412.75,46.2595,48.9482,146.762,98.3954,97.0088,0.00615965,0.102608,20.9882,170.507,0.126673,0.0,0.0
1656,413.75,46.4931,48.3501,144.368,98.401,96.6273,0.00617652,0.10279,20.9883,170.517,0.162349,0.0,0.0
1660,414.75,46.3352,48.7428,145.622,98.3878,96.5444,0.0061376,0.10308,20.9883,170.517,0.168814,0.0,0.0
1664,415.75,46.5638,48.8113,144.372,98.3922,97.0279,0.00609467,0.103293,20.9883,170.507,0.124622,0.0,0.0
1668,416.75,46.5911,48.624,141.541,98.3854,96.7251,0.00606264,0.103256,20.9884,170.497,0.151903,0.0,0.0
1672,417.75,46.2332,48.604,144.281,98.3814,97.4949,0.00604068,0.103065,20.9884,170.497,0.0807897,0.0,0.0
1676,418.75,46.5689,48.8118,145.818,98.3802,97.1338,0.00602985,0.102748,20.9884,170.457,0.113796,0.0,0.0
1680,419.75,46.5001,49.0553,148.418,98.391,97.2959,0.00602756,0.102495,20.9884,170.457,0.0999007,0.0,0.0
1684,420.75,46.827,48.7559,147.601,98.3798,97.0917,0.00601474,0.102356,20.9884,170.437,0.11763,0.0,0.0
1688,421.75,46.4179,48.0203,147.477,98.3754,96.7919,0.00597689,0.102288,20.9884,170.407,0.144836,0.0,0.0
1692,422.75,46.4799,48.7363,144.081,98.3834,97.0441,0.00589549,0.102174,20.9884,170.427,0.122336,0.0,0.0
1696,423.75,46.4866,49.0507,143.416,98.3798,97.4052,0.00584208,0.102035,20.9884,170.417,0.0888629,0.0,0.0
1700,424.75,46.6268,48.7365,144.891,98.3766,97.0768,0.00574148,0.101934,20.9875,170.397,0.118708,0.0,0.0
1704,425.75,46.5827,48.6097,146.847,98.385,97.2189,0.0056541,0.101885,20.9867,170.387,0.106421,0.0,0.0
1708,426.75,46.271,48.4642,142.625,98.3734,97.4103,0.00558035,0.101833,20.9861,170.377,0.0878136,0.0,0.0
1712,427.75,46.0985,48.7507,142.397,98.3702,97.1598,0.00552535,0.101771,20.9858,170.367,0.110506,0.0,0.0
1716,428.75,46.5632,48.4141,144.451,98.3758,96.9918,0.00548249,0.101685,20.9855,170.357,0.126459,0.0,0.0
1720,429.75,46.765,48.8612,143.708,98.3702,97.719,0.00544634,0.101646,20.9854,170.347,0.0592789,0.0,0.0
1724,430.75,46.3795,49.1287,143.783,98.375,96.9646,0.0054136,0.10157,20.9855,170.337,0.128891,0.0,0.0
1728,431.75,46.3147,48.4796,147.432,98.3661,96.9412,0.00538309,0.101381,20.9862,170.317,0.130246,0.0,0.0
1732,432.75,46.3247,48.2066,145.19,98.3738,96.8527,0.005361,0.10112,20.9866,170.297,0.139084,0.0,0.0
1736,433.75,46.0591,48.8252,145.461,98.3674,96.9705,,0.100883,,170.267,0.127654,0.0,0.0
1740,434.75,46.5583,48.8664,147.129,98.3569,97.1164,,0.100756,,170.297,0.113293,0.0,0.0
1744,435.75,46.4042,48.9744,143.772,98.3565,97.7488,,0.100644,,170.297,0.0553249,0.0,0.0
1748,436.75,46.0018,48.4864,143.714,98.3497,96.9386,,,,170.277,0.128991,0.0,0.0
1752,437.75,46.1445,48.6101,146.758,98.3577,97.1917,,,,170.247,0.10645,0.0,0.0
1756,438.75,46.074,48.2601,144.448,98.3569,97.8827,,,,170.207,0.043137,0.0,0.0
1760,439.75,46.2734,48.7343,141.108,98.3553,97.1138,,,,170.177,0.113383,0.0,0.0
1764,440.75,46.2046,48.6547,148.63,98.3589,96.9709,,,,170.167,0.126852,0.0,0.0
1768,441.75,46.027,48.9988,140.293,98.3573,97.039,,,,170.147,0.120446,0.0,0.0
1772,442.75,46.9062,48.6353,143.142,98.3445,97.2712,,,,170.177,0.0979508,0.0,0.0
1776,443.75,45.9541,48.316,148.501,98.3421,97.3954,,,,170.187,0.0863459,0.0,0.0
1778,444.25,46.5981,48.7774,146.995,98.3285,97.3869,,,,170.177,0.0858896,0.0,0.0