File: 01_Data/Vinyl_Tile/Cone/Vinyl_Tile_Cone_HF50Scan_220405_R3.csv
Names,Time,Stack TC,Smoke TC,Exh Press,Smoke Comp,Smoke Meas,CO Meter,CO2 Meter,O2 Meter,Sample Mass,Ext Coeff,Start Test,Flame Verif
Chan Gain,,500,500,1,1,1,1,1,1,1,1,1.0,1.0
Offset,,0,0,0.132686,0,0,0,0,0,0,0,0.0,0.0
Gain,,1,1,25.011,13.1151,13.9355,1,1,1,1.00092,1.01752,1.0,1.0
Units,sec,C,C,Pa,%,%,%,%,%,g,/m,,
Baseline,,32.6026,33.7346,153.104,99.1389,98.3541,0.000489714,0.0598537,21.0261,-836.425,0.0710039,,
5,1,31.1692,32.6304,151.094,99.167,98.9702,0.000773537,0.0644825,21.0221,192.067,0.0177365,0.0,0.0
10,2.25,31.2499,32.2952,154.392,99.1518,99.2785,0.000798329,0.0656439,21.0209,191.917,-0.0113954,0.0,0.0
15,3.5,30.489,31.8383,152.126,99.1742,97.836,0.000808545,0.0670547,21.0187,191.997,0.121264,0.0,0.0
20,4.75,30.6124,32.6596,151.702,99.1542,98.8779,0.000815238,0.0686996,21.0151,191.927,0.0249099,0.0,0.0
25,6,31.3085,32.3327,150.597,99.135,98.2196,0.000816555,0.0713391,21.012,191.957,0.0828056,0.0,0.0
30,7.25,31.1251,32.0548,151.216,99.1294,99.0272,0.00081208,0.0726299,21.0101,191.917,0.00921172,0.0,0.0
35,8.5,30.9651,32.5463,148.111,99.147,98.5964,0.000779927,0.0733456,21.0096,191.937,0.0497113,0.0,0.0
40,9.75,30.5758,32.6305,153.18,99.1334,98.0966,0.000747595,0.0732379,21.0097,191.937,0.0938371,0.0,0.0
45,11,31.2017,32.4976,156.676,99.1118,99.5622,0.000731335,0.0723622,21.0105,191.937,-0.040465,0.0,0.0
50,12.25,30.8055,32.6647,150.854,99.0994,97.9614,0.000756327,0.0710359,21.0124,191.927,0.103087,0.0,0.0
55,13.5,30.7694,32.1514,152.844,99.0942,97.5451,0.000800743,0.0695328,21.0148,191.927,0.140634,0.0,0.0
60,14.75,30.9168,32.6167,150.355,99.0822,98.1183,0.000838244,0.0679877,21.0162,191.897,0.0872499,0.0,0.0
65,16,31.2862,32.3359,148.474,99.0826,97.9295,0.000852628,0.0667271,21.017,191.907,0.10448,0.0,0.0
70,17.25,31.5047,32.5166,156.659,99.0642,98.4424,0.00084325,0.0657825,21.0181,191.927,0.0561973,0.0,0.0
75,18.5,31.1723,32.5987,154.133,99.0614,97.864,0.000802929,0.0651432,21.0199,191.917,0.10854,0.0,0.0
80,19.75,31.1886,32.3719,155.886,99.0426,98.0716,0.000767391,0.0647211,21.021,191.907,0.0879369,0.0,0.0
85,21,31.3704,32.3375,153.602,99.0414,98.0886,0.00070593,0.0642138,21.0217,191.887,0.0862805,0.0,0.0
90,22.25,30.9325,32.6775,153.498,99.0333,97.688,0.000607669,0.0638747,21.0221,191.897,0.122088,0.0,0.0
95,23.5,31.3124,32.3875,155.9,99.0313,99.017,0.00044532,0.0637336,21.0227,191.897,0.001298,0.0,0.0
100,24.75,30.9089,32.3253,150.888,99.0153,98.3233,0.000333449,0.0636827,21.0231,191.917,0.0625992,0.0,0.0
105,26,31.3374,32.417,153.227,99.0021,98.476,0.000294129,0.0636607,21.0233,191.947,0.04756,0.0,0.0
110,27.25,31.4694,32.4484,154.157,99.0053,98.2846,0.000345311,0.0637249,21.0234,191.947,0.0652118,0.0,0.0
115,28.5,30.9042,32.2921,152.61,98.9981,96.9786,0.000443719,0.0639435,21.0235,191.907,0.183962,0.0,0.0
120,29.75,31.2672,32.1938,151.625,98.9737,96.8485,0.000554319,0.0644552,21.0235,191.867,0.193746,0.0,0.0
125,31,31.1879,32.5319,151.887,98.9621,95.9409,0.000627503,0.0651145,21.0227,191.867,0.276733,0.0,0.0
130,32.25,31.1943,32.4752,151.923,98.9657,94.1161,0.00065453,0.0656813,21.0212,191.857,0.448465,0.0,0.0
135,33.5,30.7155,32.7865,152.863,98.9601,93.2408,0.000709937,0.0660239,21.0199,191.847,0.53135,0.0,0.0
140,34.75,30.7818,32.338,154.726,98.9489,91.1867,0.000938556,0.0661876,21.0187,191.797,0.729167,0.0,0.0
145,36,31.2142,32.276,152.839,98.9293,88.9511,0.0015117,0.067016,21.0154,191.767,0.948959,0.0,0.0
150,37.25,30.9026,32.3069,152.956,98.9297,92.3516,0.00276256,0.0724515,21.0007,191.687,0.614138,0.0,1.0
155,38.5,31.5855,33.0895,146.341,98.9137,89.6217,0.00447677,0.0843024,20.9755,191.587,0.880507,0.0,1.0
160,39.75,31.7954,32.4094,144.561,98.8961,87.0462,0.00631098,0.103867,20.9473,191.496,1.13917,0.0,1.0
165,41,31.7029,32.6303,143.674,98.8893,85.4833,0.00803142,0.122888,20.9196,191.396,1.30027,0.0,1.0
170,42.25,31.9572,33.0884,143.584,98.8989,85.5782,0.00981832,0.139666,20.8972,191.306,1.29124,0.0,1.0
175,43.5,32.5056,33.5177,144.808,98.8825,84.8335,0.0111968,0.154254,20.8783,191.176,1.36777,0.0,1.0
180,44.75,32.8517,33.856,146.038,98.868,83.6419,0.0124551,0.168543,20.8594,191.046,1.49273,0.0,1.0
185,46,33.1083,34.7604,145.412,98.8857,84.1157,0.013464,0.182645,20.8404,190.926,1.44391,0.0,0.0
190,47.25,33.3671,34.9398,146.444,98.8757,84.131,0.0142989,0.195811,20.8208,190.796,1.44138,0.0,0.0
195,48.5,33.6612,35.3128,145.159,98.8713,84.4091,0.0149862,0.208345,20.8014,190.616,1.41152,0.0,0.0
200,49.75,34.1067,35.7681,142.158,98.8536,82.6484,0.0155297,0.220823,20.787,190.435,1.59808,0.0,0.0
205,51,34.8275,36.3309,142.667,98.854,82.3903,0.0160631,0.23318,20.7738,190.275,1.62603,0.0,0.0
210,52.25,35.6273,36.7889,143.436,98.844,81.7928,0.0165105,0.243069,20.7622,190.105,1.6901,0.0,0.0
215,53.5,35.8348,37.4503,139.36,98.828,81.7711,0.0169649,0.252568,20.7506,189.965,1.69102,0.0,0.0
220,54.75,36.0839,37.8678,142.755,98.8168,79.8412,0.0174137,0.260306,20.7409,189.785,1.90319,0.0,0.0
225,56,36.1832,38.5592,143.765,98.8068,79.057,0.0178674,0.265962,20.7335,189.645,1.99038,0.0,0.0
230,57.25,37.3652,39.1395,143.161,98.7972,75.6165,0.0182046,0.269859,20.7288,189.465,2.38666,0.0,0.0
235,58.5,37.1648,38.9872,142.805,98.7784,76.1221,0.0183933,0.272077,20.726,189.324,2.32547,0.0,0.0
240,59.75,37.9421,39.5426,141.844,98.7828,74.0834,0.0183981,0.27254,20.7252,189.164,2.56818,0.0,0.0
245,61,38.2231,39.8367,147.509,98.7936,74.5809,0.0181686,0.271683,20.7268,189.034,2.50941,0.0,0.0
250,62.25,38.6513,40.4504,139.779,98.7668,71.9327,0.0179112,0.27024,20.7277,188.854,2.82968,0.0,0.0
255,63.5,38.5189,40.2601,141.89,98.7516,72.7186,0.0176997,0.268593,20.7289,188.704,2.73131,0.0,0.0
260,64.75,39.1824,40.8348,141.067,98.758,73.4803,0.0175653,0.26733,20.7304,188.584,2.63889,0.0,0.0
265,66,39.2986,41.3409,139.328,98.7492,72.7365,0.0175051,0.266566,20.7319,188.454,2.72891,0.0,0.0
270,67.25,39.7166,41.9396,139.679,98.732,72.876,0.0174572,0.26706,20.7319,188.324,2.71025,0.0,0.0
275,68.5,39.9599,41.9831,144.83,98.7288,73.3587,0.0173807,0.2683,20.7297,188.203,2.65104,0.0,0.0
280,69.75,40.1281,42.6224,142.087,98.738,71.9238,0.0172911,0.270169,20.7276,188.053,2.82818,0.0,0.0
285,71,40.5665,42.6007,142.298,98.728,71.8472,0.0172116,0.272209,20.7259,187.903,2.83678,0.0,0.0
290,72.25,41.506,43.1759,142.777,98.7196,73.1227,0.0171623,0.27461,20.723,187.733,2.67897,0.0,0.0
295,73.5,40.767,43.3458,145.136,98.7316,73.8248,0.017137,0.277263,20.7194,187.653,2.59476,0.0,0.0
300,74.75,41.2344,43.4768,140.629,98.7092,74.751,0.0171206,0.280254,20.715,187.483,2.48144,0.0,0.0
305,76,41.4536,44.1456,137.154,98.7008,73.8337,0.0171232,0.284757,20.708,187.333,2.59089,0.0,0.0
310,77.25,41.6266,43.8323,145.943,98.6843,75.958,0.0171376,0.289428,20.7017,187.152,2.33624,0.0,0.0
315,78.5,42.3856,44.433,138.222,98.6879,75.9678,0.0171977,0.294803,20.6946,187.032,2.33541,0.0,0.0
320,79.75,42.7229,45.074,141.862,98.6895,75.0194,0.01729,0.300701,20.6861,186.852,2.44768,0.0,0.0
325,81,42.9566,45.8244,143.472,98.6671,76.8251,0.0174598,0.307494,20.674,186.692,2.23336,0.0,0.0
330,82.25,43.5172,46.0358,141.214,98.6647,75.0453,0.0177339,0.316103,20.6607,186.522,2.44235,0.0,0.0
335,83.5,43.3953,46.1454,140.264,98.6735,77.1424,0.0181032,0.323911,20.6508,186.322,2.19716,0.0,0.0
340,84.75,44.0482,46.4928,142.335,98.6795,77.6646,0.0185547,0.329525,20.6448,186.182,2.13748,0.0,0.0
345,86,44.1254,47.154,138.441,98.6635,74.6447,0.0191064,0.332848,20.6412,185.991,2.49002,0.0,0.0
350,87.25,44.8569,47.4188,137.733,98.6615,74.0119,0.0196253,0.333984,20.6396,185.831,2.56583,0.0,0.0
355,88.5,45.0672,47.5473,142.904,98.6715,74.8973,0.0200973,0.333583,20.6401,185.701,2.46059,0.0,0.0
360,89.75,45.4286,47.7245,140.463,98.6699,75.0751,0.0203892,0.332021,20.6427,185.531,2.43928,0.0,0.0
365,91,45.8022,48.6938,144.024,98.6659,74.3577,0.0204705,0.328438,20.6481,185.341,2.52463,0.0,0.0
370,92.25,45.8026,48.9991,140.113,98.6659,74.8102,0.0202272,0.323668,20.6551,185.191,2.47048,0.0,0.0
375,93.5,46.0161,48.4471,139.835,98.6711,75.5276,0.0197861,0.317511,20.6658,185.061,2.38576,0.0,0.0
380,94.75,46.0516,49.1469,141.476,98.6587,77.2878,0.0192213,0.310381,20.6768,184.93,2.179,0.0,0.0
385,96,46.6399,49.2991,145.809,98.6451,76.5555,0.0185378,0.302585,20.6877,184.83,2.26275,0.0,0.0
390,97.25,46.0324,49.7355,143.8,98.6403,76.2484,0.0177621,0.294928,20.698,184.66,2.29819,0.0,0.0
395,98.5,46.614,49.2836,146.332,98.6499,77.0662,0.0170655,0.287812,20.7073,184.59,2.20383,0.0,0.0
400,99.75,46.6518,49.6379,146.075,98.6299,77.2062,0.016326,0.281314,20.7173,184.5,2.18583,0.0,0.0
405,101,47.1542,49.8893,147.493,98.6327,75.6658,0.0156084,0.276055,20.7255,184.41,2.36596,0.0,0.0
410,102.25,46.4543,49.6005,146.752,98.6403,78.8295,0.0148679,0.271847,20.731,184.29,2.00106,0.0,0.0
415,103.5,46.3057,49.9994,141.431,98.6327,76.9893,0.0141639,0.268701,20.7352,184.18,2.2112,0.0,0.0
420,104.75,46.7546,49.9859,142.36,98.6319,76.7324,0.0135116,0.265958,20.7377,184.09,2.24095,0.0,0.0
425,106,46.8854,50.0055,141.401,98.6219,76.9859,0.0129243,0.263924,20.7391,183.969,2.21061,0.0,0.0
430,107.25,47.2329,49.8762,146.02,98.6331,77.2568,0.0124778,0.262807,20.7399,183.899,2.18027,0.0,0.0
435,108.5,46.8671,49.9115,144.464,98.6135,76.0528,0.0121668,0.262089,20.7401,183.799,2.31869,0.0,0.0
440,109.75,46.9446,50.1356,142.747,98.6075,74.7982,0.0119743,0.261358,20.7404,183.719,2.46661,0.0,0.0
445,111,46.7294,50.8389,143.797,98.6107,75.5642,0.0118629,0.260392,20.741,183.619,2.37597,0.0,0.0
450,112.25,47.1819,49.9906,141.027,98.6079,74.2577,0.0118015,0.2593,20.7416,183.529,2.53138,0.0,0.0
455,113.5,47.4778,50.4105,141.127,98.5855,74.6145,0.0117884,0.257666,20.7427,183.449,2.48657,0.0,0.0
460,114.75,47.2624,50.4275,144.061,98.5763,76.2808,0.01184,0.256383,20.7433,183.329,2.28861,0.0,0.0
465,116,46.832,50.314,141.513,98.5907,73.4624,0.0119519,0.256198,20.7424,183.249,2.62593,0.0,0.0
470,117.25,46.831,50.9623,142.119,98.5735,70.5629,0.0120986,0.25709,20.74,183.169,2.9838,0.0,0.0
475,118.5,47.5326,50.2256,139.596,98.5523,69.3704,0.0122409,0.258968,20.7363,183.059,3.13401,0.0,0.0
480,119.75,47.469,50.6233,140.621,98.5499,70.648,0.0123812,0.261232,20.7314,182.999,2.97091,0.0,0.0
485,121,47.4103,50.5381,143.306,98.5519,69.4895,0.0125049,0.263495,20.7276,182.899,3.11866,0.0,0.0
490,122.25,47.9763,50.3434,143.815,98.5491,71.9621,0.0125663,0.265692,20.7234,182.778,2.80634,0.0,0.0
495,123.5,47.7327,50.9943,136.606,98.5367,71.4215,0.0125646,0.267882,20.7205,182.678,2.87251,0.0,0.0
500,124.75,47.5407,50.754,144.278,98.5306,68.664,0.0125132,0.269523,20.7188,182.598,3.2234,0.0,0.0
505,126,47.7331,51.0583,143.343,98.5467,69.902,0.0124292,0.270322,20.7177,182.498,3.06536,0.0,0.0
510,127.25,48.4204,51.3866,144.278,98.5367,67.6497,0.0123109,0.270618,20.7171,182.438,3.35678,0.0,0.0
515,128.5,48.0771,51.3498,141.509,98.5214,70.2958,0.0121436,0.270794,20.7176,182.328,3.01293,0.0,0.0
520,129.75,47.7528,51.4591,145.454,98.5242,71.1166,0.0119145,0.270698,20.719,182.248,2.90958,0.0,0.0
525,131,47.9551,51.5989,142.907,98.5174,69.1876,0.0116899,0.270199,20.7201,182.148,3.15441,0.0,0.0
530,132.25,48.1808,51.6601,141.533,98.5078,70.4825,0.0114945,0.269347,20.7208,182.088,2.98803,0.0,0.0
535,133.5,48.2836,51.5455,141.433,98.5006,72.0739,0.0113133,0.267916,20.7229,182.008,2.78809,0.0,0.0
540,134.75,48.071,51.8577,140.954,98.5102,73.6564,0.0111312,0.266321,20.7267,181.918,2.59511,0.0,0.0
545,136,48.5076,51.8428,149.344,98.513,72.1713,0.0109638,0.263939,20.7308,181.808,2.77716,0.0,0.0
550,137.25,48.4891,51.5157,145.59,98.4854,72.2755,0.0108081,0.26176,20.7359,181.737,2.76178,0.0,0.0
555,138.5,48.4464,51.86,137.818,98.4714,74.0047,0.0106496,0.259496,20.7405,181.647,2.54948,0.0,0.0
560,139.75,48.4992,51.4845,144.728,98.477,72.765,0.010477,0.256977,20.7437,181.577,2.70078,0.0,0.0
565,141,47.6896,51.6708,142.901,98.459,73.3285,0.0101939,0.254136,20.7489,181.487,2.63029,0.0,0.0
570,142.25,48.1714,51.6876,146.381,98.4454,75.8125,0.00985649,0.250848,20.7552,181.437,2.3317,0.0,0.0
575,143.5,48.2222,51.8194,144.519,98.429,74.8782,0.00952119,0.247693,20.7616,181.347,2.4409,0.0,0.0
580,144.75,48.3405,51.8947,144.251,98.4182,76.2718,0.0091984,0.244863,20.7673,181.257,2.27533,0.0,0.0
585,146,48.6231,51.7203,145.208,98.4114,78.7993,0.00896236,0.242093,20.7738,181.207,1.98374,0.0,0.0
590,147.25,48.0937,52.0128,142.883,98.3938,78.6359,0.00873288,0.239388,20.7785,181.127,2.00066,0.0,0.0
595,148.5,47.9393,51.9597,141.455,98.3854,78.115,0.00847662,0.236678,20.7822,181.057,2.05922,0.0,0.0
600,149.75,48.3173,51.2704,142.546,98.3706,79.1412,0.00823394,0.234276,20.7858,180.967,1.94139,0.0,0.0
605,151,47.9195,51.2896,147.227,98.3549,79.0514,0.00805321,0.2321,20.7908,180.907,1.9501,0.0,0.0
610,152.25,48.1708,51.5466,144.716,98.3377,81.5538,0.00790492,0.229663,20.7972,180.817,1.67038,0.0,0.0
615,153.5,47.9355,51.5069,145.692,98.3401,83.4271,0.00773522,0.226231,20.803,180.777,1.46789,0.0,0.0
620,154.75,47.5505,51.6045,144.084,98.3293,82.423,0.00755339,0.222673,20.8079,180.696,1.57498,0.0,0.0
625,156,47.894,51.3577,147.802,98.3037,83.5964,0.00738063,0.220162,20.8118,180.676,1.44649,0.0,0.0
630,157.25,47.6788,51.4119,144.563,98.2749,85.1014,0.00720299,0.218085,20.8156,180.596,1.28461,0.0,0.0
635,158.5,47.6021,51.0517,143.981,98.2797,85.8831,0.00702455,0.216132,20.8198,180.516,1.20344,0.0,0.0
640,159.75,47.3904,50.7351,144.971,98.2617,86.9446,0.00684248,0.213085,20.8244,180.466,1.09216,0.0,0.0
645,161,47.544,51.0631,145.647,98.2433,87.2334,0.00671175,0.210056,20.8295,180.426,1.06089,0.0,0.0
650,162.25,47.1268,50.7962,144.477,98.2293,87.3703,0.00658832,0.207401,20.8342,180.326,1.04562,0.0,0.0
655,163.5,47.1908,50.8025,141.954,98.2125,88.3221,0.00648035,0.204707,20.8386,180.276,0.947388,0.0,0.0
660,164.75,47.4192,50.6135,143.365,98.1892,89.4886,0.00636072,0.202067,20.8441,180.236,0.828164,0.0,0.0
665,166,47.6126,49.6889,144.627,98.1556,89.2313,0.00624211,0.199295,20.8492,180.176,0.850805,0.0,0.0
670,167.25,47.0894,49.9267,143.669,98.1624,89.8867,0.00616595,0.196255,20.8532,180.116,0.786111,0.0,0.0
675,168.5,46.8021,50.1797,147.653,98.1452,90.7053,0.00611828,0.193123,20.858,180.046,0.703622,0.0,0.0
680,169.75,44.9518,50.3115,152.478,98.128,91.262,0.00606047,0.190267,20.8621,180.026,0.647445,0.0,0.0
685,171,46.7989,49.7359,146.829,98.1,92.1555,0.00602486,0.187292,20.867,179.986,0.557935,0.0,0.0
690,172.25,46.3841,49.8321,149.868,98.1036,91.9731,0.00600442,0.184406,20.8722,179.926,0.57595,0.0,0.0
695,173.5,46.1673,49.789,146.763,98.0932,92.42,0.00597017,0.181203,20.8769,179.886,0.531733,0.0,0.0
700,174.75,46.1491,49.4153,147.452,98.066,93.1753,0.00592834,0.178121,20.8807,179.826,0.456609,0.0,0.0
705,176,46.6967,48.9696,142.956,98.0496,93.2838,0.00590405,0.175305,20.8834,179.786,0.444733,0.0,0.0
710,177.25,45.8189,49.1441,146.092,98.0416,93.2285,0.00593185,0.172873,20.8863,179.756,0.449295,0.0,0.0
715,178.5,45.7894,49.1235,151.07,98.0368,93.6576,0.00598292,0.170433,20.8894,179.716,0.40787,0.0,0.0
720,179.75,45.7871,49.2618,147.088,97.9955,93.7962,0.00605414,0.167753,20.8919,179.666,0.390915,0.0,0.0
725,181,45.5988,48.5812,149.437,97.9939,94.2492,0.00613127,0.165199,20.895,179.595,0.347772,0.0,0.0
730,182.25,45.4215,48.4383,147.203,97.9907,93.5534,0.00617774,0.162703,20.8987,179.595,0.413614,0.0,0.0
735,183.5,45.3556,48.5309,143.401,97.9631,94.8237,0.00617294,0.160512,20.9018,179.565,0.29072,0.0,0.0
740,184.75,45.13,48.2254,146.603,97.9495,94.8645,0.00612106,0.158702,20.9052,179.525,0.285638,0.0,0.0
745,186,44.8174,48.1613,145.59,97.9531,94.7939,0.00603103,0.156875,20.9084,179.465,0.29261,0.0,0.0
750,187.25,45.0047,47.9233,148.297,97.9547,94.7544,0.0059744,0.154773,20.9126,179.465,0.29648,0.0,0.0
755,188.5,44.8607,48.0639,145.28,97.9379,95.5667,0.00595107,0.15272,20.9158,179.405,0.218761,0.0,0.0
760,189.75,44.5892,47.6923,149.71,97.9251,94.8331,0.00598314,0.150796,20.9176,179.355,0.286373,0.0,0.0
765,191,44.481,47.3843,150.814,97.9219,95.1707,0.00599542,0.149084,20.9189,179.345,0.254357,0.0,0.0
770,192.25,44.338,47.5276,146.705,97.9135,95.6028,0.00602568,0.147516,20.9205,179.315,0.21316,0.0,0.0
775,193.5,43.9929,47.3151,150.535,97.8999,94.8122,0.00606448,0.145883,20.9227,179.255,0.286036,0.0,0.0
780,194.75,43.685,47.2331,145.844,97.8775,94.8777,0.00607408,0.144222,20.9242,179.245,0.277829,0.0,0.0
785,196,43.4727,47.1148,148.081,97.8787,95.8384,0.0060389,0.142837,20.9262,179.215,0.188016,0.0,0.0
790,197.25,43.9721,46.3461,149.585,97.8594,95.2269,0.00599658,0.141892,20.9273,179.195,0.243401,0.0,0.0
795,198.5,43.8335,46.4226,152.242,97.8398,95.5365,0.00598961,0.14108,20.9286,179.175,0.21264,0.0,0.0
800,199.75,43.6608,45.9092,149.437,97.8358,95.4327,0.00602386,0.140203,20.9297,179.145,0.221974,0.0,0.0
805,201,42.9694,46.3684,147.437,97.8326,95.8401,0.00605071,0.139338,20.9312,179.115,0.183659,0.0,0.0
810,202.25,43.0272,45.6061,146.216,97.8242,95.7904,0.00601155,0.138492,20.9321,179.095,0.187527,0.0,0.0
815,203.5,43.1179,46.0258,148.942,97.8074,95.4859,0.00587862,0.137643,20.9343,179.035,0.214411,0.0,0.0
820,204.75,42.9624,45.4881,146.579,97.7998,96.2084,0.00572001,0.136711,20.936,179.025,0.146431,0.0,0.0
825,206,42.7289,45.6511,150.019,97.7886,96.0949,0.00561723,0.135717,20.9379,179.005,0.155949,0.0,0.0
830,207.25,42.398,45.6042,149.054,97.7778,96.6507,0.00561294,0.134619,20.939,178.975,0.103484,0.0,0.0
835,208.5,42.4753,45.3402,144.071,97.771,95.9537,0.00567531,0.133724,20.9397,178.965,0.167466,0.0,0.0
840,209.75,41.8645,45.3495,153.91,97.7698,96.5474,0.00575562,0.133237,20.9401,178.925,0.112301,0.0,0.0
845,211,41.5975,45.1783,146.952,97.7606,96.3934,0.00584379,0.132865,20.9403,178.875,0.125705,0.0,0.0
850,212.25,42.0721,44.466,148.838,97.7322,96.3764,0.00589479,0.132433,20.9409,178.885,0.124685,0.0,0.0
855,213.5,41.456,44.7998,151.438,97.7222,96.0932,0.00585573,0.132026,20.9417,178.875,0.150041,0.0,0.0
860,214.75,41.6403,44.5082,150.15,97.7226,96.3109,0.00576305,0.131612,20.943,178.855,0.129875,0.0,0.0
865,216,41.6386,44.4624,151.27,97.7182,96.4164,0.00567386,0.130931,20.944,178.825,0.119704,0.0,0.0
870,217.25,41.5965,44.5985,148.464,97.7082,96.8463,0.0056213,0.130298,20.9455,178.815,0.0790761,0.0,0.0
875,218.5,41.0927,44.1963,147.398,97.7242,96.0256,0.00560277,0.12972,20.9463,178.775,0.156506,0.0,0.0
880,219.75,40.9053,44.2401,148.116,97.6929,96.379,0.00559729,0.129119,20.9469,178.775,0.120866,0.0,0.0
885,221,41.4152,43.5812,154.757,97.6825,96.4109,0.00558867,0.128498,20.9472,178.735,0.116961,0.0,0.0
890,222.25,40.958,43.5814,152.509,97.6569,96.0825,0.00558118,0.128095,20.9474,178.725,0.145067,0.0,0.0
895,223.5,40.8083,43.5924,146.87,97.6681,95.9137,0.00558168,0.128024,20.9478,178.685,0.161789,0.0,0.0
900,224.75,41.1577,43.4002,143.561,97.6617,95.7912,0.00561814,0.127952,20.9483,178.665,0.17261,0.0,0.0
905,226,40.7336,43.3262,149.446,97.6529,96.4181,0.00569114,0.127698,20.9486,178.655,0.113585,0.0,0.0
910,227.25,40.7746,43.3582,152.434,97.6325,95.8121,0.00576382,0.127062,20.9485,178.645,0.167998,0.0,0.0
915,228.5,40.2137,43.2176,146.109,97.6321,96.0859,0.00574328,0.126626,20.9494,178.615,0.142483,0.0,0.0
920,229.75,40.3018,43.3857,148.901,97.6341,96.4695,0.00560722,0.126465,20.9499,178.575,0.107104,0.0,0.0
925,231,40.3477,42.9531,149.978,97.6077,96.2858,0.00545492,0.12644,20.9502,178.555,0.121702,0.0,0.0
930,232.25,40.4151,43.0604,147.862,97.5989,96.9025,0.00531626,0.12635,20.9503,178.534,0.0639167,0.0,0.0
935,233.5,40.3576,42.7786,150.071,97.6061,96.2952,0.00527311,0.12612,20.9505,178.494,0.120689,0.0,0.0
940,234.75,40.0826,42.5934,151.1,97.5929,96.5159,0.00528479,0.125872,20.9505,178.484,0.0990463,0.0,0.0
945,236,40.2195,42.73,150.66,97.5821,96.7085,0.00529999,0.12562,20.951,178.484,0.0802604,0.0,0.0
950,237.25,40.0505,42.5539,151.393,97.5745,96.1081,0.00529787,0.125175,20.9517,178.474,0.135159,0.0,0.0
955,238.5,40.088,42.175,147.492,97.5777,96.3598,0.00527093,0.124581,20.9522,178.444,0.112101,0.0,0.0
960,239.75,39.741,42.7669,150.937,97.5629,96.8387,0.00519179,0.124167,20.952,178.404,0.0665003,0.0,0.0
965,241,39.7496,42.331,152.507,97.5497,96.6945,0.00508543,0.124542,20.9515,178.414,0.0785889,0.0,0.0
970,242.25,39.343,42.352,147.24,97.5377,96.3738,0.00502341,0.125902,20.9492,178.384,0.107139,0.0,0.0
975,243.5,39.7473,41.7783,149.669,97.5469,96.2067,0.00502302,0.127848,20.9479,178.364,0.123474,0.0,0.0
980,244.75,39.4431,41.7396,152.58,97.5345,95.9209,0.00504614,0.129549,20.9458,178.344,0.148892,0.0,0.0
985,246,39.1509,41.6171,147.599,97.526,96.7136,0.00500885,0.13041,20.9448,178.304,0.0746625,0.0,0.0
990,247.25,39.3124,41.5793,151.95,97.5337,96.6715,0.00492359,0.1304,20.9449,178.294,0.0792449,0.0,0.0
995,248.5,39.3727,41.7482,149.143,97.526,95.9367,0.00486045,0.129749,20.945,178.274,0.146659,0.0,0.0
1000,249.75,39.3448,41.3212,148.504,97.5084,96.968,0.00483873,0.128969,20.9461,178.274,0.0496108,0.0,0.0
1005,251,38.9133,41.8209,148.057,97.5076,96.4551,0.00483276,0.128178,20.9471,178.244,0.0968721,0.0,0.0
1010,252.25,39.2782,41.118,151.018,97.5164,95.8869,0.00480221,0.127174,20.9485,178.214,0.15041,0.0,0.0
1015,253.5,39.1049,40.6037,145.896,97.514,97.6561,0.00473287,0.126184,20.9501,178.204,-0.0129899,0.0,0.0
1020,254.75,39.0319,41.4095,150.468,97.5108,96.165,0.00465158,0.125215,20.951,178.154,0.124045,0.0,0.0
1025,256,39.0294,41.1123,152.141,97.5132,96.0268,0.0045707,0.124387,20.9521,178.154,0.137101,0.0,0.0
1030,257.25,38.5937,40.8452,148.228,97.5088,95.858,0.00450087,0.123487,20.9531,178.144,0.152406,0.0,0.0
1035,258.5,39.4203,41.1691,148.438,97.5064,97.0671,0.00445559,0.122633,20.9537,178.144,0.0403115,0.0,0.0
1040,259.75,39.0691,41.1623,151.622,97.482,96.6979,0.00444276,0.121967,20.9549,178.124,0.0720833,0.0,0.0
1045,261,38.9418,40.6183,154.72,97.4812,96.8523,0.00445587,0.121264,20.9557,178.104,0.0577736,0.0,0.0
1050,262.25,38.8846,40.728,148.766,97.4868,95.8337,0.00445762,0.120619,20.9562,178.084,0.152649,0.0,0.0
1055,263.5,38.5928,40.9222,155.185,97.4796,96.3203,0.00444289,0.120125,20.9565,178.064,0.106791,0.0,0.0
1060,264.75,38.7389,40.7791,148.298,97.4712,96.3203,0.00441633,0.119645,20.9573,178.034,0.106021,0.0,0.0
1065,266,38.1183,40.8685,147.144,97.4764,95.972,0.00440385,0.119198,20.9581,178.014,0.138832,0.0,0.0
1070,267.25,38.2468,40.5456,150.713,97.494,97.0998,0.0044249,0.118915,20.9586,178.004,0.0361648,0.0,0.0
1075,268.5,38.6015,40.7179,151.457,97.4716,96.5878,0.00447966,0.118687,20.9589,178.004,0.0813032,0.0,0.0
1080,269.75,38.7412,40.637,146.148,97.4708,96.1425,0.00450062,0.118362,20.959,177.984,0.122473,0.0,0.0
1085,271,38.5462,40.2173,150.471,97.4724,95.8554,0.00445679,0.117961,20.9591,177.954,0.149308,0.0,0.0
1090,272.25,38.4573,40.2329,152.722,97.4704,96.2671,0.00435299,0.117549,20.9588,177.954,0.110875,0.0,0.0
1095,273.5,38.3188,40.5653,149.54,97.4624,95.9294,0.00426149,0.117268,20.9595,177.924,0.141505,0.0,0.0
1100,274.75,38.1013,40.2529,149.092,97.4564,97.7875,0.00418247,0.117074,20.9599,177.884,-0.0302697,0.0,0.0
1105,276,38.1891,40.2511,153.484,97.4648,96.441,0.00410561,0.116913,20.9602,177.874,0.0942498,0.0,0.0
1110,277.25,38.0209,39.9282,158.529,97.4628,96.1433,0.00403952,0.116769,20.9604,177.894,0.12166,0.0,0.0
1115,278.5,37.818,39.909,148.84,97.4452,96.5257,0.00400744,0.116612,20.9605,177.844,0.0846249,0.0,0.0
1120,279.75,37.7102,40.153,150.314,97.456,96.4113,0.00399052,0.116449,20.9605,177.834,0.0961995,0.0,0.0
1125,281,37.6918,39.7651,151.764,97.4672,96.1289,0.00400307,0.116285,20.9605,177.814,0.123406,0.0,0.0
1130,282.25,37.8598,39.8091,151.628,97.4476,95.955,0.00403262,0.116173,20.9606,177.804,0.137775,0.0,0.0
1135,283.5,37.8674,39.8837,148.991,97.4296,97.13,0.00404992,0.116093,20.9606,177.804,0.0274879,0.0,0.0
1140,284.75,37.3441,39.6485,153.663,97.4464,96.5601,0.00403752,0.115889,20.9606,177.774,0.0815499,0.0,0.0
1145,286,37.5387,40.0325,146.167,97.4484,96.0132,0.00401303,0.115692,20.9606,177.764,0.13243,0.0,0.0
1150,287.25,37.5835,39.8209,151.718,97.4416,96.6099,0.00396881,0.115483,20.9606,177.744,0.0765119,0.0,0.0
1155,288.5,37.5343,39.4302,149.403,97.4384,95.9618,0.00389462,0.115209,20.9606,177.724,0.136299,0.0,0.0
1160,289.75,37.6647,39.4489,151.117,97.4468,95.6258,0.00385711,0.114944,20.9606,177.724,0.168372,0.0,0.0
1165,291,37.4858,39.9141,149.231,97.4432,96.2139,0.0038545,0.114752,20.9608,177.694,0.113313,0.0,0.0
1170,292.25,37.4651,39.4058,154.921,97.432,95.4408,0.00386241,0.114656,20.9617,177.664,0.1843,0.0,0.0
1175,293.5,37.4422,39.5935,147.105,97.4316,95.8852,0.00382484,0.114446,20.9622,177.654,0.142798,0.0,0.0
1180,294.75,37.1717,39.3965,153.203,97.4396,95.9299,0.00372505,0.114203,20.9625,177.644,0.139376,0.0,0.0
1185,296,37.4625,39.005,150.791,97.4408,96.5155,0.00358582,0.114008,20.9635,177.634,0.0851656,0.0,0.0
1190,297.25,37.5163,39.3351,150.691,97.4356,95.7934,0.00347997,0.113732,20.9644,177.624,0.15172,0.0,0.0
1195,298.5,37.1001,39.2058,155.811,97.4288,96.1833,0.00339987,0.113351,20.9651,177.604,0.114834,0.0,0.0
1200,299.75,37.1779,39.03,148.006,97.4372,96.1906,0.00337495,0.112873,20.9657,177.574,0.114933,0.0,0.0
1205,301,37.5997,39.296,153.017,97.428,96.37,0.00339292,0.112081,20.9668,177.554,0.097452,0.0,0.0
1210,302.25,37.0177,39.0922,149.352,97.426,96.0532,0.00342366,0.111368,20.9675,177.554,0.126661,0.0,0.0
1215,303.5,37.2034,39.2776,150.724,97.4396,96.1429,0.00342105,0.110787,20.9685,177.534,0.119574,0.0,0.0
1220,304.75,36.8762,39.0435,152.117,97.4408,96.5414,0.00336912,0.110475,20.9694,177.544,0.0827665,0.0,0.0
1225,306,37.303,39.1161,152.434,97.4328,96.4279,0.00330582,0.110341,20.97,177.504,0.0925367,0.0,0.0
1230,307.25,37.5159,39.02,148.325,97.4228,95.9443,0.0032438,0.110301,20.9703,177.494,0.136491,0.0,0.0
1235,308.5,37.2193,38.9446,150.677,97.444,95.8423,0.00318645,0.110127,20.9705,177.494,0.147934,0.0,0.0
1240,309.75,37.2289,38.8333,149.458,97.444,95.7691,0.00316844,0.109603,20.9714,177.484,0.15475,0.0,0.0
1245,311,38.0302,38.9179,151.371,97.4404,95.6751,0.0031632,0.109015,20.9721,177.474,0.163183,0.0,0.0
1250,312.25,36.615,38.5799,149.465,97.4492,95.8963,0.00316906,0.108554,20.9725,177.453,0.143383,0.0,0.0
1255,313.5,36.8215,39.138,152.754,97.4548,96.4057,0.00318175,0.108282,20.9728,177.453,0.0966005,0.0,0.0
1260,314.75,37.1657,39.0059,149.615,97.454,96.484,0.00320443,0.107863,20.9735,177.433,0.0892854,0.0,0.0
1265,316,37.0382,38.7787,148.989,97.4484,96.1085,0.00325737,0.107303,20.9743,177.403,0.12358,0.0,0.0
1270,317.25,36.9019,38.8395,151.731,97.4584,96.7872,0.00333231,0.10693,20.9748,177.393,0.0616821,0.0,0.0
1275,318.5,36.9768,38.5428,150.942,97.4648,96.1374,0.00340035,0.10674,20.975,177.393,0.122397,0.0,0.0
1280,319.75,36.7997,38.7226,149.171,97.472,96.3241,0.00344226,0.106597,20.975,177.393,0.105739,0.0,0.0
1285,321,36.8026,38.3778,147.579,97.4656,96.4011,0.00340051,0.10644,20.9756,177.353,0.0980235,0.0,0.0
1290,322.25,36.7161,38.3688,149.888,97.4776,96.4355,0.00328849,0.106077,20.9763,177.353,0.0959342,0.0,0.0
1295,323.5,36.5304,38.4343,149.387,97.482,96.4287,0.0031978,0.105708,20.9767,177.343,0.0969668,0.0,0.0
1300,324.75,36.6747,38.6484,148.152,97.4856,95.8673,0.00316614,0.105425,20.9769,177.343,0.14941,0.0,0.0
1305,326,36.7325,38.4705,151.208,97.4828,96.7617,0.00321486,0.104927,20.9771,177.313,0.0662711,0.0,0.0
1310,327.25,36.6402,38.441,152.278,97.5028,97.1559,0.00328412,0.104332,20.9771,177.283,0.0318115,0.0,0.0
1315,328.5,36.6185,38.6058,148.814,97.504,96.8519,0.00334214,0.103928,20.9774,177.273,0.0599014,0.0,0.0
1320,329.75,36.4451,38.2969,149.056,97.4984,96.1183,0.0033686,0.10372,20.9783,177.243,0.127252,0.0,0.0
1325,331,36.6771,38.3853,148.942,97.4948,96.1293,0.0033465,0.103597,20.9788,177.273,0.125895,0.0,0.0
1330,332.25,36.4905,38.4035,151.233,97.5048,96.8821,0.00329664,0.103345,20.9796,177.263,0.0571922,0.0,0.0
1335,333.5,36.7868,38.5828,153.06,97.5216,96.285,0.00321846,0.102956,20.9805,177.233,0.11391,0.0,0.0
1340,334.75,36.4197,38.5178,150.443,97.5268,96.1872,0.0031043,0.102556,20.9811,177.203,0.123457,0.0,0.0
1345,336,36.8177,37.8109,150.731,97.5257,96.4028,0.0029914,0.10217,20.9814,177.183,0.103363,0.0,0.0
1350,337.25,36.5151,38.2638,153.715,97.5373,96.9276,0.0028982,0.101898,20.9816,177.183,0.0559678,0.0,0.0
1355,338.5,35.8411,38.3581,150.612,97.5437,96.9854,0.00284051,0.101702,20.9817,177.193,0.0512296,0.0,0.0
1360,339.75,36.5425,38.2121,150.652,97.5397,96.6626,0.00279454,0.101477,20.9818,177.183,0.0806189,0.0,0.0
1365,341,36.286,38.0082,151.464,97.5497,96.743,0.00276339,0.10123,20.9819,177.153,0.0741159,0.0,0.0
1370,342.25,36.3634,37.972,149.742,97.5605,96.4236,0.0027523,0.100872,20.9818,177.153,0.10462,0.0,0.0
1375,343.5,36.4455,37.8466,146.216,97.5529,96.0783,0.00274375,0.100706,20.9817,177.123,0.135947,0.0,0.0
1380,344.75,36.5051,38.0165,148.1,97.5501,96.5457,0.00271955,0.100758,20.9816,177.123,0.0923766,0.0,0.0
1385,346,36.1501,38.1233,151.406,97.5637,95.9567,0.00269394,0.100729,20.9816,177.123,0.148241,0.0,0.0
1390,347.25,36.384,37.5326,150.985,97.5617,96.783,0.00268588,0.100652,20.9816,177.093,0.0715271,0.0,0.0
1395,348.5,36.5026,38.4439,152.509,97.5581,96.0864,0.00271362,0.100486,20.9816,177.113,0.135672,0.0,0.0
1400,349.75,36.072,37.9782,150.92,97.5673,96.3317,0.00277383,0.100388,20.9816,177.103,0.113749,0.0,0.0
1405,351,36.1173,37.6096,152.683,97.5837,96.3037,0.00283247,0.100275,20.9818,177.063,0.117851,0.0,0.0
1410,352.25,36.3303,37.9839,150.195,97.5869,96.2148,0.00289012,0.09999,20.9827,177.043,0.126386,0.0,0.0
1415,353.5,36.3013,37.9624,151.65,97.5809,96.4555,0.00293569,0.0994466,20.9832,177.043,0.103534,0.0,0.0
1420,354.75,36.1689,37.7376,150.506,97.5881,96.3611,0.0029894,0.0989547,20.9843,177.033,0.112934,0.0,0.0
1425,356,36.0734,37.9975,151.519,97.5981,96.4963,0.00302467,0.0985243,20.9851,176.983,0.101332,0.0,0.0
1430,357.25,36.1575,38.0785,152.991,97.5937,96.4462,0.00303745,0.0982649,20.9855,177.003,0.105571,0.0,0.0
1435,358.5,36.0811,37.5961,150.635,97.6021,95.9099,0.00302278,0.0981765,20.9858,176.983,0.156109,0.0,0.0
1440,359.75,36.1399,37.2396,150.873,97.6057,96.2365,0.00299959,0.0981939,20.985,176.953,0.126094,0.0,0.0
1445,361,35.818,37.7917,148.655,97.6225,96.8778,0.00298439,0.0983541,20.9846,176.953,0.0683483,0.0,0.0
1450,362.25,36.2528,37.1344,145.809,97.6117,96.72,0.00299686,0.0986544,20.9843,176.953,0.0819094,0.0,0.0
1455,363.5,36.0965,37.8788,150.666,97.6121,96.3449,0.0030156,0.0990956,20.9837,176.953,0.116627,0.0,0.0
1460,364.75,35.8561,37.5461,149.491,97.6189,96.7898,0.00302359,0.0995934,20.983,176.953,0.0761332,0.0,0.0
1465,366,35.8492,37.7498,147.052,97.6217,95.9928,0.0030273,0.100041,20.9829,176.933,0.150187,0.0,0.0
1470,367.25,36.105,37.7006,146.047,97.6253,96.4814,0.00303267,0.100266,20.9829,176.913,0.105197,0.0,0.0
1475,368.5,35.9289,37.6189,151.217,97.6281,96.646,0.0030412,0.100263,20.9829,176.913,0.0902408,0.0,0.0
1480,369.75,36.1023,37.6636,146.724,97.6473,96.5657,0.0030285,0.0999279,20.9837,176.893,0.099423,0.0,0.0
1485,371,35.9444,37.7657,153.26,97.6377,96.3381,0.00299955,0.0992558,20.9846,176.893,0.1196,0.0,0.0
1490,372.25,36.4355,37.5753,149.745,97.6393,96.2382,0.003007,0.0985217,20.9852,176.883,0.12901,0.0,0.0
1495,373.5,35.8982,37.6927,151.401,97.6437,97.5914,0.00305063,0.0979641,20.9862,176.883,0.00478145,0.0,0.0
1500,374.75,35.8805,37.2584,151.454,97.6481,96.6124,0.00312542,0.0974601,20.9871,176.863,0.0951731,0.0,0.0
1505,376,35.5747,37.4414,150.661,97.6593,97.016,0.00319321,0.0970834,20.9876,176.873,0.0589892,0.0,0.0
1510,377.25,35.5534,37.335,148.622,97.6541,97.3299,0.003228,0.0969112,20.9879,176.863,0.0296855,0.0,0.0
1515,378.5,35.8528,37.4727,153.336,97.6689,96.5129,0.00323966,0.0967818,20.9881,176.823,0.106274,0.0,0.0
1520,379.75,36.083,37.2725,147.61,97.6829,95.7542,0.00324574,0.0965939,20.9887,176.833,0.177996,0.0,0.0
1525,381,35.952,37.4463,151.651,97.6685,96.8459,0.00322565,0.0963036,20.9893,176.803,0.0754949,0.0,0.0
1530,382.25,35.4749,37.3224,151.326,97.6757,96.1629,0.0031387,0.0959104,20.9895,176.783,0.139324,0.0,0.0
1535,383.5,35.8047,37.3335,146.833,97.6825,96.7494,0.00298219,0.0954718,20.9897,176.783,0.0856767,0.0,0.0
1540,384.75,35.7563,37.4256,151.532,97.6993,96.8315,0.0028412,0.0951286,20.9898,176.773,0.0796435,0.0,0.0
1545,386,35.3933,37.0927,150.991,97.6905,96.7749,0.00274159,0.0949463,20.9898,176.753,0.0840547,0.0,0.0
1550,387.25,35.5733,37.2773,144.571,97.6841,97.2002,0.00268574,0.0948167,20.989,176.743,0.0443314,0.0,0.0
1555,388.5,35.5945,37.3581,150.93,97.7066,96.5167,0.00264876,0.0946723,20.9888,176.723,0.109358,0.0,0.0
1560,389.75,35.9485,37.2934,151.078,97.705,96.6822,0.00264271,0.094587,20.9887,176.723,0.0939256,0.0,0.0
1565,391,36.2191,37.3756,150.662,97.699,96.7621,0.00266066,0.0946411,20.9884,176.743,0.0859992,0.0,0.0
1570,392.25,35.5798,37.2255,150.757,97.7058,96.3254,0.00268809,0.0947877,20.9875,176.703,0.127,0.0,0.0
1575,393.5,35.5122,37.1146,150.794,97.7074,96.4568,0.00271937,0.0949361,20.9881,176.693,0.114978,0.0,0.0
1580,394.75,35.6395,36.7845,153.561,97.7058,96.7655,0.00278578,0.0949447,20.9877,176.693,0.0863069,0.0,0.0
1585,396,34.7427,37.4176,154.379,97.6985,96.37,0.00287195,0.0949112,20.9874,176.693,0.122204,0.0,0.0
1590,397.25,35.2409,37.0272,151.193,97.701,96.7077,0.00293283,0.0949674,20.9879,176.673,0.0912045,0.0,0.0
1595,398.5,35.6257,37.1608,150.781,97.7162,96.9361,0.002959,0.0950129,20.9885,176.693,0.0715418,0.0,0.0
1600,399.75,35.8067,36.9412,153.302,97.7122,96.5533,0.00298337,0.0950044,20.9889,176.683,0.106487,0.0,0.0
1605,401,35.6294,36.9987,147.658,97.7086,97.1283,0.00303518,0.0949048,20.9891,176.663,0.0531643,0.0,0.0
1610,402.25,35.4516,37.0063,154.095,97.7206,96.2424,0.00306861,0.0946065,20.9892,176.653,0.13604,0.0,0.0
1615,403.5,35.5148,37.0531,151.673,97.725,96.2803,0.00303597,0.0942545,20.9893,176.663,0.132932,0.0,0.0
1620,404.75,35.132,36.8181,152.081,97.719,96.1731,0.00295025,0.0936539,20.9902,176.643,0.142325,0.0,0.0
1625,406,35.4139,36.635,150.732,97.7206,96.5784,0.00286444,0.0929937,20.9918,176.623,0.104937,0.0,0.0
1630,407.25,34.8586,36.0475,149.41,97.723,97.116,0.00279386,0.092463,20.9927,176.613,0.0556147,0.0,0.0
1635,408.5,34.8619,37.0622,153.873,97.7294,96.8838,0.00275886,0.0921315,20.9933,176.593,0.0775658,0.0,0.0
1640,409.75,34.9322,36.8396,149.481,97.7166,96.6886,0.00273682,0.0920072,20.9936,176.613,0.0943972,0.0,0.0
1645,411,34.9529,35.913,144.222,97.7158,96.4372,0.00273961,0.0920376,20.9932,176.583,0.117555,0.0,0.0
1650,412.25,35.276,36.2776,148.757,97.7222,96.7481,0.00278349,0.0922253,20.9924,176.583,0.089415,0.0,0.0
1655,413.5,34.5738,36.8688,153.04,97.7318,96.4402,0.00289291,0.0925142,20.9918,176.573,0.118743,0.0,0.0
1660,414.75,34.6535,36.4389,150.936,97.7106,96.6044,0.00299368,0.0927736,20.9915,176.563,0.101625,0.0,0.0
1665,416,34.6894,36.2806,149.833,97.7226,96.8782,0.00305234,0.0929751,20.9912,176.533,0.077454,0.0,0.0
1670,417.25,34.9292,36.6725,149.441,97.7158,96.3972,0.00304254,0.0929921,20.9917,176.543,0.121256,0.0,0.0
1675,418.5,35.0091,36.7656,152.87,97.7122,97.0156,0.00299321,0.0928197,20.9923,176.493,0.0638554,0.0,0.0
1680,419.75,34.7183,36.6082,150.597,97.7138,96.293,0.00296809,0.0924563,20.9927,176.513,0.130727,0.0,0.0
1685,421,35.5725,36.8593,150.314,97.7302,97.2125,0.00295326,0.0919124,20.9929,176.503,0.0474033,0.0,0.0
1690,422.25,34.7378,35.8339,154.349,97.7194,96.5091,0.00291795,0.0915234,20.993,176.473,0.111235,0.0,0.0
1695,423.5,35.2122,36.4306,148.749,97.719,97.2827,0.00282848,0.09125,20.9931,176.473,0.0399397,0.0,0.0
1700,424.75,35.289,35.926,153.801,97.7058,96.6626,0.00270788,0.0909092,20.9932,176.513,0.0958047,0.0,0.0
1705,426,34.9046,36.3162,147.004,97.7166,96.8625,0.00260867,0.0905579,20.9932,176.503,0.0783547,0.0,0.0
1710,427.25,35.1669,36.5034,150.055,97.7182,96.8149,0.00257199,0.0902776,20.9932,176.463,0.0828909,0.0,0.0
1715,428.5,34.5123,36.1066,149.403,97.7042,96.7685,0.00259454,0.0901216,20.9932,176.453,0.0858864,0.0,0.0
1720,429.75,34.7355,36.2768,147.292,97.6973,96.8629,0.00259811,0.0899787,20.9932,176.453,0.0765605,0.0,0.0
1725,431,34.8352,36.1511,152.042,97.707,97.0011,0.0025526,0.0897054,20.9932,176.433,0.0647111,0.0,0.0
1730,432.25,34.9104,36.3369,153.159,97.6993,96.7502,0.00250564,0.0893981,20.9932,176.423,0.087134,0.0,0.0
1735,433.5,34.4862,35.7289,152.698,97.7098,96.2271,0.00248391,0.0893284,20.9932,176.433,0.136473,0.0,0.0
1740,434.75,34.886,36.2736,146.694,97.701,96.5754,0.00249444,0.0893782,20.9939,176.393,0.10342,0.0,0.0
1745,436,35.1004,36.3936,148.185,97.7226,96.0638,0.00252239,0.0893398,20.9951,176.383,0.152803,0.0,0.0
1750,437.25,34.747,36.6025,148.662,97.6998,96.0324,0.00252285,0.0892382,20.9958,176.362,0.153643,0.0,0.0
1755,438.5,34.5403,36.3424,154.613,97.6849,96.5278,0.00248761,0.0890982,20.9962,176.362,0.106361,0.0,0.0
1760,439.75,35.0439,36.8034,149.255,97.6954,96.2195,0.00244309,0.0889953,20.9965,176.362,0.135867,0.0,0.0
1765,441,34.6841,36.4785,147.608,97.7074,97.0377,0.00241643,0.0889718,20.9966,176.352,0.061383,0.0,0.0
1770,442.25,34.5619,36.2355,148.344,97.6885,97.0509,0.0024218,0.0889804,20.9967,176.342,0.0584512,0.0,0.0
1775,443.5,34.8419,36.0951,146.801,97.6841,97.1508,0.0024648,0.0889717,20.9965,176.332,0.0488627,0.0,0.0
1780,444.75,35.0437,36.5283,145.544,97.6978,96.083,0.00254379,0.0889505,20.9953,176.362,0.148759,0.0,0.0
1785,446,34.5862,36.6526,150.929,97.6937,97.0284,0.00261055,0.0889094,20.9946,176.342,0.0610005,0.0,0.0
1790,447.25,35.419,36.0933,148.947,97.6954,96.4291,0.00265431,0.088866,20.9949,176.332,0.116439,0.0,0.0
1795,448.5,34.7539,36.8006,151.123,97.6849,96.6256,0.00266945,0.0887773,20.9953,176.322,0.0973204,0.0,0.0
1800,449.75,35.1721,36.1634,151.23,97.6885,97.5089,0.00267626,0.0886093,20.9956,176.312,0.0164271,0.0,0.0
1805,451,35.3869,36.7157,146.912,97.6937,96.9276,0.00269607,0.0884707,20.9958,176.312,0.0702772,0.0,0.0
1810,452.25,34.7457,36.2591,151.083,97.6901,97.1857,0.0027312,0.0883089,20.9959,176.312,0.0462083,0.0,0.0
1815,453.5,34.4219,36.0837,151.477,97.699,97.0211,0.00275801,0.0881102,20.9959,176.292,0.0621407,0.0,0.0
1820,454.75,34.9463,36.5536,150.896,97.6957,96.2105,0.00276452,0.0878749,20.9959,176.262,0.136732,0.0,0.0
1825,456,34.637,36.2267,151.451,97.6909,96.3249,0.00273847,0.0877316,20.996,176.272,0.125687,0.0,0.0
1830,457.25,34.6812,36.1917,150.148,97.6921,96.433,0.00270847,0.0877483,20.996,176.252,0.115792,0.0,0.0
1835,458.5,35.1751,36.5639,155.147,97.7082,96.3943,0.0026813,0.0878243,20.9965,176.262,0.120837,0.0,0.0
1840,459.75,34.7574,36.0914,152.528,97.711,97.5931,0.00264001,0.0878531,20.9969,176.252,0.0107709,0.0,0.0
1845,461,34.3001,36.2879,153.073,97.7038,96.6924,0.0025978,0.0878025,20.9972,176.232,0.0928737,0.0,0.0
1850,462.25,34.9448,36.3115,154.971,97.717,96.9646,0.00255805,0.0878481,20.9973,176.252,0.0689913,0.0,0.0
1855,463.5,34.9234,36.2916,152.312,97.7006,97.6182,0.00249716,0.0879221,20.9974,176.232,0.00752578,0.0,0.0
1860,464.75,34.9707,36.7048,149.787,97.7166,96.8629,0.00244192,0.0879455,20.9974,176.212,0.0783146,0.0,0.0
1865,466,35.0396,35.9593,150.069,97.7078,97.0075,0.00242052,0.0879295,20.9975,176.212,0.0641977,0.0,0.0
1870,467.25,34.7166,36.4363,151.465,97.7162,96.7872,0.00243942,0.0878652,20.9975,176.192,0.0852572,0.0,0.0
1875,468.5,34.6804,36.3642,154.65,97.725,96.6197,0.00248368,0.0878427,20.9975,176.192,0.101527,0.0,0.0
1880,469.75,35.0635,36.1566,150.181,97.719,96.6767,0.00258853,0.0878341,20.9975,176.172,0.0957153,0.0,0.0
1885,471,34.6792,36.1792,149.445,97.7114,97.0751,0.00269996,0.0878364,20.9975,176.162,0.0583064,0.0,0.0
1890,472.25,34.2562,35.8705,149.82,97.721,96.4015,0.00278323,0.087853,20.9975,176.142,0.121337,0.0,0.0
1895,473.5,34.3515,36.4274,151.264,97.7374,97.0441,0.00279882,0.0878126,20.9975,176.152,0.0635374,0.0,0.0
1900,474.75,34.6929,36.2602,152.499,97.7302,96.7838,0.00276591,0.0878319,20.9975,176.142,0.0868506,0.0,0.0
1905,476,35.0495,35.9124,151.94,97.7198,96.7536,0.00266856,0.0878576,20.9975,176.122,0.0886849,0.0,0.0
1910,477.25,34.5047,36.4996,153.783,97.7362,97.5974,0.00255007,0.0877236,20.9975,176.112,0.0126846,0.0,0.0
1915,478.5,34.6661,36.2633,149.225,97.7446,97.8636,0.0024263,0.0876146,20.9975,176.122,-0.0108622,0.0,0.0
1920,479.75,35.0652,36.1313,152.257,97.7414,96.0426,0.00230665,0.087543,20.9975,176.092,0.156498,0.0,0.0
1925,481,34.5661,35.9541,155.059,97.739,96.8298,0.00218771,0.0875197,20.9975,176.102,0.0834201,0.0,0.0
1930,482.25,34.3968,36.232,155.843,97.749,97.6374,0.00213787,0.0875539,20.9975,176.082,0.010198,0.0,0.0
1935,483.5,34.8012,36.5252,150.181,97.7482,96.894,0.00219894,0.0875661,20.9975,176.082,0.0783431,0.0,0.0
1940,484.75,34.7233,35.785,150.354,97.7434,96.5002,0.00231123,0.087641,20.9976,176.072,0.114254,0.0,0.0
1945,486,35.006,36.6864,152.577,97.7598,97.0756,0.00239676,0.087616,20.9979,176.072,0.0626901,0.0,0.0
1950,487.25,34.6704,35.9686,154.024,97.773,96.6392,0.0023829,0.0874667,20.9981,176.072,0.104105,0.0,0.0
1955,488.5,34.7875,36.1155,147.647,97.7678,96.0051,0.00231497,0.0873433,20.9982,176.062,0.162388,0.0,0.0
1960,489.75,34.9113,36.1121,151.749,97.7658,96.9254,0.00228909,0.0873163,20.9983,176.042,0.077052,0.0,0.0
1965,491,34.7481,36.2106,151.642,97.779,96.1663,0.00234904,0.0872768,20.9983,176.032,0.148439,0.0,0.0
1970,492.25,34.8261,36.3932,149.081,97.7898,96.6511,0.00250047,0.0872584,20.9983,176.022,0.10454,0.0,0.0
1975,493.5,34.7709,36.0511,148.742,97.7762,96.581,0.00264186,0.087272,20.9984,175.992,0.10978,0.0,0.0
1980,494.75,34.5239,36.474,148.708,97.7886,96.6282,0.00272811,0.087215,20.9984,176.012,0.106551,0.0,0.0
1985,496,34.5817,36.2044,147.008,97.7946,97.2516,0.00273215,0.0872339,20.9984,176.002,0.0496955,0.0,0.0
1990,497.25,34.0794,35.9624,151.715,97.805,96.1863,0.00265744,0.0872261,20.9984,175.992,0.148958,0.0,0.0
1995,498.5,34.8123,36.1897,152.58,97.7986,96.7307,0.00254726,0.0871874,20.9984,175.972,0.0980024,0.0,0.0
2000,499.75,34.535,36.1349,149.535,97.8034,97.3805,0.00247321,0.0871441,20.9984,175.982,0.0386802,0.0,0.0
2005,501,34.7719,36.0879,150.952,97.8158,97.0585,0.0024554,0.0870196,20.9984,175.962,0.0693693,0.0,0.0
2010,502.25,35.0758,36.2047,151.787,97.8154,96.8455,0.0024569,0.0870016,20.9984,175.952,0.0889483,0.0,0.0
2015,503.5,34.8512,36.4466,146.344,97.8138,96.9697,0.00245778,0.0870362,20.9983,175.952,0.0773643,0.0,0.0
2020,504.75,34.616,36.2103,149.144,97.819,96.7017,0.00244253,0.0870614,20.998,175.952,0.102535,0.0,0.0
2025,506,35.062,36.161,150.874,97.833,96.6911,0.00238341,0.0870763,20.9982,175.932,0.104793,0.0,0.0
2030,507.25,35.273,36.4062,151.435,97.8306,97.235,0.00228036,0.0870456,20.9989,175.962,0.0545043,0.0,0.0
2035,508.5,34.7801,36.1679,150.147,97.829,96.3343,0.00216177,0.0869086,20.9993,175.942,0.137426,0.0,0.0
2040,509.75,34.5496,36.1649,150.209,97.8422,97.4251,0.00208507,0.0867377,20.9995,175.942,0.0381314,0.0,0.0
2045,511,34.6105,36.3004,149.78,97.849,97.2567,0.00209306,0.0866167,20.9997,175.922,0.0541934,0.0,0.0
2050,512.25,34.9196,35.8798,155.349,97.8554,96.5104,0.00214815,0.0865953,20.9997,175.902,0.123538,0.0,0.0
2055,513.5,34.5492,36.4738,146.444,97.853,97.0836,,0.086622,,175.892,0.0704578,0.0,0.0
2060,514.75,34.9051,36.4527,152.435,97.8639,97.4864,,0.0864291,,175.902,0.0344945,0.0,0.0
2065,516,34.8677,36.2673,152.769,97.8703,96.6086,,,,175.922,0.115808,0.0,0.0
2070,517.25,34.5395,36.092,154.318,97.8703,96.9407,,,,175.882,0.085175,0.0,0.0
2075,518.5,34.7131,35.7691,148.222,97.8827,97.2316,,,,175.862,0.0595632,0.0,0.0
2080,519.75,34.7566,36.0996,150.486,97.8719,96.3305,,,,175.882,0.141688,0.0,0.0
2085,521,34.6437,36.631,149.989,97.8827,96.9084,,,,175.872,0.0892822,0.0,0.0
2090,522.25,34.4129,35.6233,151.148,97.8739,96.814,,,,175.852,0.0971794,0.0,0.0
2095,523.5,34.006,35.5484,149.351,97.8851,96.9063,,,,175.862,0.0896973,0.0,0.0
2096,523.75,34.3961,35.503,150.77,97.8967,97.4974,,,,175.882,0.0364742,0.0,0.0