File: 01_Data/Vinyl_Tile/Cone/Vinyl_Tile_Cone_HF75Scan_220405_R1.csv
Names,Time,Stack TC,Smoke TC,Exh Press,Smoke Comp,Smoke Meas,CO Meter,CO2 Meter,O2 Meter,Sample Mass,Ext Coeff,Start Test,Flame Verif
Chan Gain,,500,500,1,1,1,1,1,1,1,1,1.0,1.0
Offset,,0,0,0.132686,0,0,0,0,0,0,0,0.0,0.0
Gain,,1,1,25.011,13.1151,13.9355,1,1,1,1.00092,1.01752,1.0,1.0
Units,sec,C,C,Pa,%,%,%,%,%,g,/m,,
Baseline,,40.6322,42.7578,147.911,98.865,97.7564,0.00071009,0.059651,21.0256,-836.739,0.100725,,
3,0.5,39.9682,41.6702,151.319,99.0966,97.3005,0.00066698,0.068723,21.0174,182.879,0.163254,0.0,0.0
6,1.25,39.7163,41.7713,151.409,99.077,98.0864,0.000627571,0.0699625,21.0157,183.119,0.0896846,0.0,0.0
9,2,39.8695,42.2396,147.827,99.0866,97.7275,0.000594359,0.0708081,21.0145,182.919,0.123271,0.0,0.0
12,2.75,39.4856,41.8088,149.622,99.085,97.9355,0.000562482,0.0713255,21.0136,182.979,0.104154,0.0,0.0
15,3.5,39.5421,42.0944,150.641,99.081,97.7207,0.000549657,0.0715376,21.013,183.019,0.123388,0.0,0.0
18,4.25,40.0011,41.5989,150.431,99.0738,97.5676,0.000557347,0.0716219,21.0125,182.939,0.136734,0.0,0.0
21,5,39.846,41.8457,148.454,99.0734,98.0384,0.000579831,0.071448,21.0122,183.059,0.0937329,0.0,0.0
24,5.75,39.8702,41.8417,154.265,99.0778,97.0904,0.000612661,0.0712127,21.0126,182.989,0.180852,0.0,0.0
27,6.5,39.9833,41.9591,147.344,99.0738,98.4892,0.000650702,0.0708557,21.0128,183.019,0.0528227,0.0,0.0
30,7.25,39.6773,41.7369,148.432,99.0686,97.6607,0.000702559,0.0703406,21.013,183.029,0.127748,0.0,0.0
33,8,40.0357,41.9221,148.917,99.059,98.2902,0.000754275,0.0698004,21.0136,182.959,0.0695435,0.0,0.0
36,8.75,40.0471,42.0109,151.164,99.0814,97.756,0.0007862,0.0693363,21.0142,182.999,0.1202,0.0,0.0
39,9.5,40.2413,42.2643,145.652,99.067,98.1549,0.000787415,0.0685868,21.0153,182.979,0.0825536,0.0,0.0
42,10.25,39.7629,42.2196,147.405,99.057,97.076,0.000767465,0.0679105,21.0168,182.979,0.180306,0.0,0.0
45,11,40.0412,42.3173,148.424,99.0638,97.6969,0.000726866,0.0671952,21.0178,182.969,0.124012,0.0,0.0
48,11.75,39.7124,42.0129,149.793,99.0654,97.6854,0.000697269,0.0664195,21.0185,182.969,0.125205,0.0,0.0
51,12.5,39.88,42.036,146.627,99.0646,97.3346,0.000670621,0.0656622,21.0191,182.969,0.157249,0.0,0.0
54,13.25,39.4778,41.6077,146.26,99.0498,98.2591,0.000659526,0.0649633,21.0195,182.999,0.0715334,0.0,0.0
57,14,39.778,41.9595,149.328,99.0558,97.2219,0.000665683,0.0643429,21.0196,182.969,0.166796,0.0,0.0
60,14.75,40.0293,41.9485,148.636,99.0686,94.4503,0.000678697,0.0638504,21.0196,182.979,0.426093,0.0,0.0
63,15.5,39.9659,42.15,149.188,99.057,95.5896,0.000712347,0.0634914,21.0196,182.939,0.318024,0.0,0.0
66,16.25,40.0788,42.2582,145.356,99.0518,93.8239,0.000771979,0.0631515,21.019,182.959,0.483974,0.0,0.0
69,17,39.9255,41.672,149.839,99.0622,93.7482,0.000973971,0.0629326,21.0181,182.949,0.492114,0.0,0.0
72,17.75,39.4374,41.8067,147.859,99.0666,92.0169,0.00135067,0.0628223,21.0161,182.909,0.658886,0.0,0.0
75,18.5,39.9024,41.7698,149.401,99.0618,91.7936,0.00188832,0.0637783,21.0127,182.868,0.680137,0.0,0.0
78,19.25,39.5541,42.0187,146.931,99.049,92.1683,0.00256282,0.066662,21.0026,182.828,0.642626,0.0,1.0
81,20,40.3181,42.7096,142.695,99.0538,89.751,0.00333144,0.0715251,20.9952,182.748,0.880272,0.0,1.0
84,20.75,40.4331,42.7427,144.172,99.0482,86.2467,0.0048705,0.0781974,20.9804,182.698,1.23525,0.0,1.0
87,21.5,40.4614,42.2698,144.606,99.0578,83.1954,0.00573441,0.0885802,20.9696,182.678,1.55762,0.0,1.0
90,22.25,40.7271,42.6913,145.734,99.0341,85.9584,0.00673249,0.098371,20.9582,182.658,1.26388,0.0,1.0
93,23,40.0952,41.9154,143.056,99.043,85.5042,0.00810937,0.109308,20.9439,182.598,1.31196,0.0,1.0
96,23.75,39.8574,42.5301,142.01,99.0438,81.6265,0.00921963,0.121453,20.9307,182.418,1.72628,0.0,1.0
99,24.5,40.5153,42.5223,143.041,99.0474,81.3671,0.0111981,0.132085,20.9172,182.498,1.75501,0.0,1.0
102,25.25,40.8882,42.5973,140.018,99.033,79.1144,0.0129038,0.139836,20.9005,182.378,2.00431,0.0,0.0
105,26,41.2439,43.4813,140.336,99.035,76.5572,0.0145975,0.159044,20.8757,182.248,2.29776,0.0,0.0
108,26.75,41.3364,43.44,135.692,99.0241,75.4902,0.0164642,0.168631,20.8483,182.168,2.42206,0.0,0.0
111,27.5,41.7499,43.9271,142.767,99.0289,74.2488,0.017825,0.183074,20.8244,181.978,2.57048,0.0,0.0
114,28.25,41.9378,44.0122,135.169,99.0281,76.6465,0.0194616,0.198976,20.8016,181.878,2.28673,0.0,0.0
117,29,42.1932,44.2493,138.576,99.0273,77.3695,0.0208127,0.213758,20.7811,181.808,2.20287,0.0,0.0
120,29.75,42.7618,45.1271,138.222,99.0189,75.1665,0.0219017,0.225894,20.7634,181.687,2.45993,0.0,0.0
123,30.5,43.059,45.0559,130.946,99.0233,71.86,0.0227582,0.23835,20.7467,181.617,2.86186,0.0,0.0
126,31.25,42.9066,45.8989,135.573,99.0225,68.9673,0.0233788,0.248194,20.7328,181.477,3.22852,0.0,0.0
129,32,43.753,46.0306,141.438,99.0113,67.2304,0.0238038,0.256677,20.7218,181.427,3.45517,0.0,0.0
132,32.75,44.1242,46.5981,135.687,99.0213,65.6752,0.024067,0.264809,20.7101,181.347,3.66497,0.0,0.0
135,33.5,44.1802,46.7045,137.025,99.0177,63.8035,0.0241537,0.272078,20.7009,181.197,3.92271,0.0,0.0
138,34.25,44.5869,46.8645,136.658,99.0169,63.2298,0.0242169,0.278576,20.6931,181.117,4.00325,0.0,0.0
141,35,44.8997,47.6018,140.741,99.0141,64.6371,0.0240844,0.284384,20.6866,180.987,3.80653,0.0,0.0
144,35.75,45.1426,47.7376,138.309,99.0089,64.9246,0.0239103,0.289894,20.681,180.867,3.76645,0.0,0.0
147,36.5,45.2342,48.1887,140.847,99.0033,65.1389,0.0237184,0.294454,20.6761,180.777,3.73653,0.0,0.0
150,37.25,46.0687,48.0774,138.497,99.0221,68.431,0.0235235,0.29898,20.6713,180.656,3.29816,0.0,0.0
153,38,45.9802,48.5987,134.572,98.9961,68.0129,0.0233725,0.302791,20.6688,180.556,3.35051,0.0,0.0
156,38.75,46.4201,49.1384,135.714,99.0097,68.6496,0.0231652,0.307017,20.666,180.416,3.26858,0.0,0.0
159,39.5,46.5927,49.4068,132.19,99.0005,67.0552,0.0229581,0.311022,20.6633,180.326,3.47749,0.0,0.0
162,40.25,46.8465,49.5655,139.182,99.0101,68.2192,0.0227263,0.314721,20.6613,180.266,3.32474,0.0,0.0
165,41,47.0928,49.9769,138.474,98.9957,70.0959,0.0225573,0.317075,20.6598,180.146,3.08121,0.0,0.0
168,41.75,47.3369,50.3166,137.094,98.9877,69.7736,0.022336,0.320434,20.6588,180.036,3.12163,0.0,0.0
171,42.5,47.7228,50.5555,136.763,98.9977,71.1613,0.0221449,0.323101,20.658,179.936,2.94676,0.0,0.0
174,43.25,47.7048,50.5192,136.518,98.9949,72.6604,0.0219547,0.325421,20.6575,179.856,2.76044,0.0,0.0
177,44,48.5278,50.8537,136.31,98.9897,70.719,0.0217432,0.328303,20.6571,179.736,3.00169,0.0,0.0
180,44.75,48.4231,51.3992,136.607,98.9897,69.6792,0.0215734,0.331253,20.6568,179.656,3.1339,0.0,0.0
183,45.5,48.8508,51.6517,137.393,98.9881,72.6719,0.0214231,0.334856,20.6554,179.585,2.75841,0.0,0.0
186,46.25,48.2103,52.0921,130.766,98.9913,71.9701,0.0213099,0.339332,20.6524,179.525,2.8453,0.0,0.0
189,47,48.6187,52.1327,134.942,98.9869,75.9869,0.0212214,0.343384,20.6482,179.355,2.36016,0.0,0.0
192,47.75,49.3818,52.264,133.356,98.9805,72.102,0.0211569,0.348948,20.643,179.265,2.828,0.0,0.0
195,48.5,49.813,52.894,132.623,98.9737,74.8165,0.0211098,0.353004,20.6382,179.165,2.49752,0.0,0.0
198,49.25,49.8804,53.0308,132.887,98.9793,73.7193,0.0210755,0.359248,20.6322,179.085,2.62989,0.0,0.0
201,50,50.3355,53.5129,135.423,98.9825,74.6715,0.0210438,0.364959,20.6271,178.985,2.51563,0.0,0.0
204,50.75,50.5488,53.7156,132.701,98.9821,74.7736,0.0210256,0.369617,20.6222,178.875,2.5034,0.0,0.0
207,51.5,50.3837,53.773,133.468,98.9701,74.2428,0.0210256,0.375125,20.6161,178.785,2.5659,0.0,0.0
210,52.25,51.3789,54.5058,132.247,98.9685,76.356,0.0210774,0.379871,20.6094,178.685,2.31525,0.0,0.0
213,53,51.8665,54.4691,135.589,98.9805,76.732,0.0211399,0.38458,20.6036,178.545,2.27249,0.0,0.0
216,53.75,51.9518,55.2795,134.034,98.9645,76.4517,0.0212278,0.388971,20.5988,178.484,2.30371,0.0,0.0
219,54.5,51.9655,55.222,127.023,98.9565,75.4625,0.0213377,0.3929,20.595,178.334,2.41923,0.0,0.0
222,55.25,52.4002,55.68,134.926,98.9625,75.1538,0.0214373,0.39615,20.5918,178.214,2.45636,0.0,0.0
225,56,52.3125,56.3909,134.411,98.9725,75.2456,0.0216259,0.398943,20.5893,178.074,2.44636,0.0,0.0
228,56.75,52.7584,56.2275,133.72,98.9629,75.9975,0.0218891,0.401817,20.5871,177.954,2.35675,0.0,0.0
231,57.5,53.5901,56.8251,128.81,98.9565,75.4761,0.0222112,0.405344,20.5816,177.874,2.41762,0.0,0.0
234,58.25,53.1683,57.1903,136.592,98.9549,74.0855,0.0227212,0.410233,20.575,177.724,2.58346,0.0,0.0
237,59,54.0025,57.3236,135.368,98.9745,73.8375,0.02331,0.414785,20.5679,177.594,2.61515,0.0,0.0
240,59.75,53.7494,57.8747,128.702,98.9513,74.4746,0.0239458,0.419841,20.5607,177.484,2.53638,0.0,0.0
243,60.5,54.7925,58.177,132.454,98.9577,73.6436,0.0246043,0.424215,20.5523,177.343,2.63711,0.0,0.0
246,61.25,54.2339,58.3391,132.835,98.9541,73.2158,0.0253952,0.428006,20.5453,177.183,2.68879,0.0,0.0
249,62,54.9348,58.7223,130.026,98.9569,72.8143,0.0259716,0.431297,20.5398,177.053,2.73812,0.0,0.0
252,62.75,55.2826,59.1166,133.776,98.9621,71.3854,0.0267815,0.434017,20.5358,176.973,2.91548,0.0,0.0
255,63.5,55.824,59.432,132.824,98.9465,71.228,0.0274643,0.435482,20.5329,176.843,2.93377,0.0,0.0
258,64.25,55.2779,59.9017,127.24,98.9513,73.7682,0.0281201,0.436328,20.5308,176.673,2.62144,0.0,0.0
261,65,56.5079,59.8883,138.951,98.9517,74.5767,0.0287226,0.434517,20.5299,176.543,2.52419,0.0,0.0
264,65.75,56.2214,60.1935,134.059,98.9613,71.9285,0.0292496,0.432208,20.5312,176.413,2.84777,0.0,0.0
267,66.5,57.5873,60.478,133.203,98.9453,70.2635,0.0296931,0.428833,20.5333,176.302,3.05536,0.0,0.0
270,67.25,56.3013,60.8789,132.453,98.9445,71.5279,0.0300584,0.425301,20.5358,176.182,2.8961,0.0,0.0
273,68,56.8024,60.6499,137.986,98.9521,71.7545,0.0303134,0.42227,20.5379,176.052,2.86855,0.0,0.0
276,68.75,57.2684,60.9858,133.979,98.9493,71.9064,0.0304946,0.418804,20.5404,175.922,2.84943,0.0,0.0
279,69.5,57.3616,61.5904,132.186,98.9493,71.3663,0.0306267,0.415501,20.5425,175.792,2.91672,0.0,0.0
282,70.25,57.5801,61.5998,137.039,98.9557,71.4513,0.0305491,0.412318,20.5457,175.662,2.90667,0.0,0.0
285,71,57.8708,60.7745,132.65,98.9601,70.9457,0.0303668,0.409241,20.5492,175.602,2.97046,0.0,0.0
288,71.75,57.6891,62.2494,132.526,98.9617,72.1853,0.0300813,0.406997,20.5526,175.472,2.81598,0.0,0.0
291,72.5,58.0417,61.9754,133.598,98.9513,71.3926,0.0297041,0.404204,20.5563,175.392,2.91361,0.0,0.0
294,73.25,58.4071,62.2081,134.961,98.9533,72.1581,0.0291977,0.401674,20.5594,175.302,2.81859,0.0,0.0
297,74,58.3736,62.3818,131.485,98.9597,71.4173,0.028721,0.399281,20.5619,175.181,2.91128,0.0,0.0
300,74.75,58.8626,62.3646,137.989,98.9737,72.7731,0.0281895,0.396951,20.5637,175.021,2.74469,0.0,0.0
303,75.5,58.9426,62.4739,134.489,98.9657,73.0457,0.0274371,0.394566,20.5665,174.951,2.7106,0.0,0.0
306,76.25,58.8243,63.1931,135.373,98.9825,73.4914,0.0271256,0.392077,20.5681,174.811,2.65782,0.0,0.0
309,77,58.8054,63.1507,135.603,98.9645,74.3985,0.0265796,0.388747,20.5708,174.751,2.5467,0.0,0.0
312,77.75,58.6753,63.6936,134.314,98.9745,72.5664,0.0260319,0.385622,20.5744,174.691,2.77015,0.0,0.0
315,78.5,59.3672,63.1932,135.814,98.9641,73.5811,0.0255123,0.381219,20.5789,174.581,2.64527,0.0,0.0
318,79.25,58.9565,63.1955,136.491,98.9613,71.9978,0.0249474,0.37824,20.584,174.501,2.83917,0.0,0.0
321,80,59.7077,63.9489,133.843,98.9613,73.0329,0.0244149,0.3748,20.5896,174.411,2.71176,0.0,0.0
324,80.75,59.4288,63.8232,136.424,98.9717,73.1469,0.0239013,0.37033,20.5957,174.371,2.69878,0.0,0.0
327,81.5,59.7433,63.7818,137.435,98.9625,73.0189,0.0233182,0.365671,20.6026,174.211,2.71358,0.0,0.0
330,82.25,59.5133,64.0396,138.156,98.9605,73.5245,0.0227526,0.360935,20.6115,174.14,2.6518,0.0,0.0
333,83,59.4981,64.2136,134.52,98.9653,73.5335,0.022221,0.356214,20.618,174.05,2.65115,0.0,0.0
336,83.75,59.4628,63.8744,132.434,98.9645,72.9317,0.0216295,0.350817,20.6252,174,2.72443,0.0,0.0
339,84.5,59.5446,64.1253,138.555,98.9669,73.8005,0.0209738,0.345615,20.6309,173.91,2.61894,0.0,0.0
342,85.25,59.5881,64.621,134.682,98.9533,72.603,0.0204236,0.340803,20.6359,173.86,2.76374,0.0,0.0
345,86,59.626,64.9084,138.035,98.9565,71.5848,0.0198993,0.336474,20.6409,173.78,2.89008,0.0,0.0
348,86.75,59.5512,64.6942,136.657,98.9517,71.0447,0.0193832,0.332665,20.6451,173.72,2.95724,0.0,0.0
351,87.5,59.4288,64.3499,135.742,98.9597,71.1085,0.018904,0.32961,20.6481,173.62,2.94995,0.0,0.0
354,88.25,59.7998,64.5093,138.939,98.9461,70.3698,0.0184761,0.326588,20.6504,173.54,3.04193,0.0,0.0
357,89,59.7168,64.3101,136.794,98.9501,70.7407,0.018072,0.324243,20.652,173.49,2.99538,0.0,0.0
360,89.75,60.2267,64.7153,138.238,98.9489,71.2799,0.0177774,0.322291,20.6532,173.42,2.92749,0.0,0.0
363,90.5,60.1067,64.8304,136.257,98.9561,70.4821,0.0175269,0.320936,20.6536,173.33,3.02861,0.0,0.0
366,91.25,59.9234,64.252,136.974,98.9425,71.8383,0.0173614,0.320122,20.6537,173.27,2.85726,0.0,0.0
369,92,60.0353,64.8384,137.313,98.9377,68.8609,0.0172481,0.319604,20.6533,173.21,3.23464,0.0,0.0
372,92.75,60.2312,64.7829,137.998,98.9425,66.9502,0.0171879,0.319952,20.6523,173.12,3.48624,0.0,0.0
375,93.5,60.1637,64.8316,133.274,98.9489,68.1486,0.0171487,0.320474,20.6504,173.019,3.32846,0.0,0.0
378,94.25,60.6013,64.7694,139.779,98.9293,68.7784,0.0171118,0.321313,20.6478,172.939,3.24458,0.0,0.0
381,95,60.2451,65.1844,135.17,98.9329,69.162,0.0170473,0.321925,20.6453,172.899,3.19526,0.0,0.0
384,95.75,60.4136,65.0429,137.506,98.9293,67.2547,0.0169836,0.323715,20.6422,172.839,3.44455,0.0,0.0
387,96.5,60.3582,65.3825,135.41,98.9353,66.2183,0.0169088,0.325742,20.6374,172.729,3.58371,0.0,0.0
390,97.25,60.8436,64.8278,133.912,98.9325,63.3885,0.0168459,0.328168,20.6339,172.669,3.97327,0.0,0.0
393,98,60.7535,65.463,136.597,98.9261,67.8505,0.0167858,0.330211,20.6301,172.619,3.36554,0.0,0.0
396,98.75,60.5858,65.7125,136.523,98.9325,69.5541,0.0167345,0.332229,20.6273,172.519,3.14477,0.0,0.0
399,99.5,60.9598,65.6426,138.447,98.9481,66.1681,0.016684,0.333699,20.6253,172.499,3.59163,0.0,0.0
402,100.25,61.0156,65.4503,135.324,98.9385,68.2562,0.0166415,0.334381,20.6238,172.419,3.31344,0.0,0.0
405,101,61.0668,65.7084,138.944,98.9329,67.4856,0.0165881,0.334514,20.6237,172.329,3.41428,0.0,0.0
408,101.75,61.2012,65.9909,134.304,98.9469,65.5034,0.0165254,0.33399,20.6244,172.229,3.68164,0.0,0.0
411,102.5,61.3648,65.9091,137.177,98.9505,68.7627,0.0164551,0.332739,20.6257,172.179,3.24854,0.0,0.0
414,103.25,61.0529,66.198,141.643,98.9513,64.8289,0.0163791,0.331395,20.6273,172.129,3.77442,0.0,0.0
417,104,61.3951,66.2534,136.59,98.9329,64.9327,0.0162698,0.329954,20.6289,172.069,3.75848,0.0,0.0
420,104.75,61.0399,66.0206,133.887,98.9405,64.1697,0.0161672,0.328429,20.6309,171.998,3.86466,0.0,0.0
423,105.5,61.2404,66.4865,143.146,98.9441,67.3278,0.0160251,0.32634,20.6332,171.898,3.43618,0.0,0.0
426,106.25,61.6289,65.6899,135.645,98.9481,65.6029,0.0158494,0.324349,20.6353,171.828,3.6682,0.0,0.0
429,107,61.0644,66.3033,132.928,98.9341,67.0607,0.0156906,0.322096,20.6381,171.748,3.47076,0.0,0.0
432,107.75,61.2997,66.3842,136.58,98.9385,68.5301,0.0154388,0.319361,20.6429,171.708,3.2777,0.0,0.0
435,108.5,61.5884,66.5125,137.351,98.9397,68.2651,0.0152608,0.316902,20.6462,171.658,3.31239,0.0,0.0
438,109.25,61.3371,66.3349,134.952,98.9477,67.9092,0.0149916,0.313379,20.6532,171.608,3.35977,0.0,0.0
441,110,61.135,66.3284,134.889,98.9353,70.0168,0.0146285,0.309618,20.6601,171.528,3.08584,0.0,0.0
444,110.75,61.088,66.4194,137.424,98.9369,69.0102,0.0142629,0.305824,20.6659,171.468,3.21524,0.0,0.0
447,111.5,61.5064,66.1738,138.324,98.9265,71.9434,0.0138239,0.303233,20.6726,171.428,2.84278,0.0,0.0
450,112.25,61.2503,66.5932,143.011,98.9353,69.5894,0.0133722,0.299352,20.6784,171.378,3.14049,0.0,0.0
453,113,61.3714,66.2327,138.101,98.9285,72.9555,0.0129273,0.296143,20.6852,171.328,2.71826,0.0,0.0
456,113.75,61.4318,66.4207,137.824,98.9277,73.4897,0.0124485,0.292209,20.6918,171.288,2.65308,0.0,0.0
459,114.5,61.1647,66.2949,137.311,98.9233,73.2821,0.0120094,0.288738,20.6977,171.248,2.67792,0.0,0.0
462,115.25,61.1692,66.2275,139.924,98.9313,74.5499,0.0116085,0.285178,20.704,171.198,2.52556,0.0,0.0
465,116,61.4112,65.44,140.446,98.9377,74.464,0.0111782,0.281438,20.7113,171.158,2.53643,0.0,0.0
468,116.75,61.0658,66.1915,140.223,98.9109,76.6099,0.0107948,0.277774,20.7175,171.108,2.28042,0.0,0.0
471,117.5,61.0576,65.9193,138.446,98.9209,76.416,0.0103961,0.274704,20.7236,171.098,2.30394,0.0,0.0
474,118.25,60.802,65.7372,142.035,98.9365,77.3622,0.0100213,0.271026,20.7281,171.028,2.19551,0.0,0.0
477,119,60.8736,65.9031,139.535,98.9285,79.1072,0.00960413,0.267731,20.7337,170.988,1.99571,0.0,0.0
480,119.75,60.7178,65.9442,140.667,98.9137,80.5671,0.0091647,0.264109,20.7399,170.947,1.83114,0.0,0.0
483,120.5,60.8575,65.6535,138.604,98.9253,79.3721,0.00875852,0.260916,20.7461,170.907,1.96557,0.0,0.0
486,121.25,60.8229,65.6968,136.874,98.9321,80.5106,0.00838739,0.257645,20.7519,170.897,1.83907,0.0,0.0
489,122,60.4549,65.5859,138.956,98.9357,83.2196,0.00805108,0.2542,20.7592,170.857,1.54401,0.0,0.0
492,122.75,60.4442,65.2625,141.287,98.9269,83.7895,0.00770908,0.250839,20.7663,170.807,1.48231,0.0,0.0
495,123.5,60.4284,65.8255,142.394,98.9201,83.4603,0.00741456,0.24771,20.773,170.787,1.51682,0.0,0.0
498,124.25,60.7807,65.4213,138.403,98.9165,83.3718,0.00718059,0.244615,20.779,170.737,1.52596,0.0,0.0
501,125,60.3503,65.078,140.602,98.9261,84.051,0.00696614,0.241673,20.7843,170.657,1.45442,0.0,0.0
504,125.75,60.4359,65.1313,140.205,98.9117,84.6056,0.00677,0.238946,20.7885,170.627,1.39442,0.0,0.0
507,126.5,59.9795,64.9101,140.986,98.9129,86.1332,0.00659094,0.236253,20.7935,170.617,1.23481,0.0,0.0
510,127.25,59.9826,65.0648,136.859,98.9157,85.8589,0.00639248,0.233766,20.798,170.547,1.26353,0.0,0.0
513,128,60.1312,64.8653,138.49,98.9197,86.1451,0.00621821,0.231729,20.8017,170.507,1.23419,0.0,0.0
516,128.75,59.5324,65.2702,140.674,98.9065,87.2721,0.00604056,0.229477,20.8052,170.497,1.11698,0.0,0.0
519,129.5,59.5946,64.4554,142.589,98.9085,89.0752,0.00583631,0.227329,20.8091,170.497,0.934629,0.0,0.0
522,130.25,60.0917,64.8213,141.348,98.9089,88.7167,0.00564131,0.225546,20.8133,170.447,0.970661,0.0,0.0
525,131,59.7848,64.4914,137.25,98.9129,89.0063,0.0054795,0.223441,20.8175,170.427,0.941933,0.0,0.0
528,131.75,59.8022,64.0404,140.177,98.9113,89.7429,0.00532046,0.221224,20.8219,170.387,0.868228,0.0,0.0
531,132.5,59.3466,64.3418,139.481,98.9005,89.2505,0.00517458,0.219035,20.8256,170.367,0.916367,0.0,0.0
534,133.25,59.4328,64.3442,141.079,98.9133,90.2741,0.00500282,0.216958,20.8307,170.337,0.815735,0.0,0.0
537,134,58.9273,64.1141,144.645,98.9153,90.4323,0.00492734,0.214705,20.8334,170.317,0.800288,0.0,0.0
540,134.75,59.1715,63.7881,143.341,98.8993,90.8686,0.00482896,0.212747,20.8368,170.287,0.755881,0.0,0.0
543,135.5,58.848,63.9792,144.671,98.8953,92.0024,0.00474397,0.210498,20.8397,170.267,0.644842,0.0,0.0
546,136.25,58.7914,64.024,145.538,98.8897,91.3228,0.00466748,0.207976,20.8431,170.227,0.710511,0.0,0.0
549,137,58.5212,63.534,142.21,98.9037,91.5082,0.00457454,0.206872,20.8455,170.217,0.693671,0.0,0.0
552,137.75,58.9514,63.0234,143.212,98.9005,91.9931,0.00448857,0.205437,20.8486,170.177,0.64622,0.0,0.0
555,138.5,58.6044,63.4541,141.3,98.8977,92.5332,0.0044574,0.204034,20.8501,170.147,0.593716,0.0,0.0
558,139.25,58.5131,63.1749,140.513,98.8921,92.554,0.00434206,0.202688,20.8526,170.137,0.5912,0.0,0.0
561,140,58.2733,63.1001,140.228,98.9045,93.4696,0.00421048,0.201568,20.8543,170.097,0.504455,0.0,0.0
564,140.75,58.4503,62.6304,142.904,98.9001,93.5475,0.00409117,0.200162,20.8563,170.057,0.496629,0.0,0.0
567,141.5,57.9685,62.931,142.299,98.8973,94.1475,0.00397948,0.199152,20.859,170.037,0.439306,0.0,0.0
570,142.25,58.0831,62.894,144.187,98.8997,93.2991,0.00389025,0.197986,20.8615,170.017,0.520321,0.0,0.0
573,143,57.9063,62.8468,139.738,98.9005,93.206,0.00381185,0.196613,20.8638,169.987,0.529308,0.0,0.0
576,143.75,57.0157,63.1158,141.133,98.8977,93.8503,0.00374235,0.195275,20.8659,169.957,0.467569,0.0,0.0
579,144.5,57.776,62.5596,142.83,98.8925,94.458,0.00368428,0.193987,20.8679,169.947,0.409488,0.0,0.0
582,145.25,57.6066,62.4493,144.667,98.8997,93.1928,0.00363878,0.192758,20.8697,169.917,0.530499,0.0,0.0
585,146,57.2824,61.9392,140.397,98.9049,93.4237,0.00360032,0.191633,20.8713,169.897,0.508879,0.0,0.0
588,146.75,57.5873,61.6733,143.252,98.9101,93.8481,0.00357352,0.190782,20.8724,169.887,0.46889,0.0,0.0
591,147.5,57.4293,61.98,140.972,98.9009,93.8554,0.00355451,0.19011,20.8736,169.867,0.467372,0.0,0.0
594,148.25,57.3051,62.0984,142.26,98.9065,93.8332,0.0035618,0.189286,20.8748,169.846,0.469981,0.0,0.0
597,149,57.0846,61.699,143.416,98.9009,94.5609,0.00358014,0.188478,20.8762,169.816,0.400527,0.0,0.0
600,149.75,56.4566,61.9924,137.945,98.9137,94.3317,0.00361576,0.187534,20.8772,169.786,0.423346,0.0,0.0
603,150.5,57.5451,61.3372,139.163,98.8949,94.341,0.00365938,0.186597,20.878,169.796,0.420762,0.0,0.0
606,151.25,57.1166,61.3532,138.263,98.8953,94.5745,0.00369984,0.185807,20.8792,169.736,0.398737,0.0,0.0
609,152,56.8104,61.2402,141.343,98.8953,94.6464,0.00373303,0.185047,20.8805,169.746,0.391957,0.0,0.0
612,152.75,56.37,61.2461,140.842,98.8985,94.4405,0.00377084,0.184143,20.8823,169.696,0.411677,0.0,0.0
615,153.5,56.985,60.9352,142.815,98.9041,93.7962,0.00381399,0.183221,20.884,169.676,0.473285,0.0,0.0
618,154.25,56.2468,61.0628,140.319,98.8917,94.1348,0.00386216,0.182353,20.8855,169.656,0.440009,0.0,0.0
621,155,56.1745,60.7712,140.794,98.8981,95.3451,0.0039344,0.181661,20.8865,169.616,0.326557,0.0,0.0
624,155.75,56.0118,60.3178,141.604,98.9017,95.2617,0.0040131,0.181132,20.8873,169.636,0.334689,0.0,0.0
627,156.5,55.8836,60.6195,141.891,98.9357,94.418,0.00408157,0.180664,20.8888,169.596,0.417166,0.0,0.0
630,157.25,56.1361,60.6187,141.634,98.9149,95.0138,0.00414564,0.180163,20.8902,169.546,0.359142,0.0,0.0
633,158,56.0938,60.5045,143.959,98.9033,94.2113,0.00418615,0.179546,20.8919,169.576,0.433802,0.0,0.0
636,158.75,56.4682,60.5635,140.456,98.9125,94.7616,0.00421303,0.178783,20.8933,169.546,0.382647,0.0,0.0
639,159.5,56.0877,59.9675,144.09,98.9197,95.0614,0.00423002,0.177668,20.8948,169.526,0.355103,0.0,0.0
642,160.25,55.616,60.3584,144.371,98.9145,94.7489,0.00423794,0.176741,20.8959,169.506,0.384031,0.0,0.0
645,161,55.702,60.4648,141.25,98.9129,94.6774,0.0042411,0.175869,20.8971,169.456,0.390618,0.0,0.0
648,161.75,55.6368,60.1189,140.172,98.9209,95.1848,0.00423894,0.174973,20.8983,169.436,0.343638,0.0,0.0
651,162.5,55.5205,59.6954,146.168,98.9129,95.5246,0.00425506,0.174209,20.8993,169.406,0.311109,0.0,0.0
654,163.25,55.2078,59.9569,141.787,98.9133,94.9177,0.00428052,0.173247,20.9007,169.376,0.368031,0.0,0.0
657,164,55.2152,59.9365,145.473,98.9197,95.488,0.00432255,0.172373,20.9017,169.386,0.315141,0.0,0.0
660,164.75,55.5743,59.7065,143.319,98.9173,95.1227,0.00439215,0.17139,20.9029,169.376,0.349137,0.0,0.0
663,165.5,55.2398,59.2138,145.18,98.9353,96.0749,0.00446402,0.170525,20.9046,169.336,0.26186,0.0,0.0
666,166.25,54.9467,59.414,143.152,98.9093,95.5297,0.00452542,0.169462,20.9058,169.326,0.310308,0.0,0.0
669,167,54.8106,59.3312,146.996,98.9185,95.5862,0.00458884,0.168428,20.9067,169.336,0.305855,0.0,0.0
672,167.75,54.7953,59.2218,145.357,98.9181,95.5088,0.00464498,0.167361,20.9086,169.296,0.31305,0.0,0.0
675,168.5,54.9731,59.2742,143.674,98.9373,95.7768,0.00468927,0.166498,20.91,169.286,0.289779,0.0,0.0
678,169.25,54.7593,58.8416,140.604,98.9273,95.67,0.0047251,0.165499,20.911,169.276,0.29883,0.0,0.0
681,170,54.5445,59.0671,144.883,98.9253,96.063,0.00475993,0.164649,20.9124,169.266,0.262064,0.0,0.0
684,170.75,54.5308,58.6268,143.109,98.9353,95.5628,0.00478903,0.163823,20.9134,169.236,0.309556,0.0,0.0
687,171.5,54.4101,58.702,139.354,98.9493,95.3332,0.00484043,0.162995,20.9146,169.176,0.332295,0.0,0.0
690,172.25,53.9677,59.0006,143.822,98.9413,95.5807,0.00490031,0.162285,20.9162,169.196,0.308429,0.0,0.0
693,173,54.3236,58.526,141.989,98.9401,96.4602,0.00495352,0.161587,20.9175,169.166,0.226569,0.0,0.0
696,173.75,54.1458,58.3882,141.563,98.9497,96.1659,0.00501723,0.160776,20.9184,169.146,0.254708,0.0,0.0
699,174.5,54.0703,58.1319,142.755,98.9649,96.3964,0.00508414,0.159891,20.9199,169.136,0.234713,0.0,0.0
702,175.25,53.5898,58.3295,141.872,98.9629,96.3096,0.00514976,0.158961,20.9214,169.106,0.242568,0.0,0.0
705,176,53.9094,58.3687,143.929,98.9625,95.869,0.00521894,0.157751,20.9227,169.076,0.283458,0.0,0.0
708,176.75,53.8988,57.7342,146.794,98.9557,96.575,0.00528684,0.15687,20.9241,169.056,0.217359,0.0,0.0
711,177.5,53.6023,57.7929,141.6,98.9565,95.8172,0.00534641,0.155839,20.9257,169.046,0.287748,0.0,0.0
714,178.25,53.2436,58.1313,145.594,98.9709,96.8298,0.00539434,0.154945,20.9269,169.036,0.195218,0.0,0.0
717,179,53.3725,57.7359,149.123,98.9665,97.0279,0.00541859,0.154164,20.9277,169.036,0.176571,0.0,0.0
720,179.75,53.4454,57.5171,148.781,98.9801,96.0111,0.00543628,0.15354,20.929,169.016,0.271832,0.0,0.0
723,180.5,53.1193,57.0558,146.677,98.9657,96.5674,0.00544667,0.152718,20.9299,168.996,0.218969,0.0,0.0
726,181.25,52.8388,57.5391,143.193,98.9693,97.4519,0.00545712,0.151833,20.9306,168.956,0.137906,0.0,0.0
729,182,53.0567,57.1322,146.51,98.9753,96.4049,0.00547149,0.150946,20.9317,168.936,0.234863,0.0,0.0
732,182.75,53.1793,57.1265,142.02,98.9797,97.1266,0.0055051,0.150094,20.9325,168.896,0.168691,0.0,0.0
735,183.5,53.0388,56.8788,144.338,98.9733,96.4385,0.00552961,0.149472,20.9331,168.896,0.231573,0.0,0.0
738,184.25,52.5131,56.6734,141.459,98.9761,97.0887,0.00558621,0.148506,20.9337,168.876,0.171846,0.0,0.0
741,185,52.63,56.864,143.213,98.9849,97.594,0.0056578,0.14741,20.9347,168.876,0.126313,0.0,0.0
744,185.75,52.6539,56.7863,144.714,98.9845,97.2172,0.00574548,0.146316,20.9363,168.856,0.160804,0.0,0.0
747,186.5,52.6672,56.4726,141.024,98.9833,96.959,0.00582967,0.145302,20.938,168.856,0.184428,0.0,0.0
750,187.25,52.7774,56.263,143.505,98.9941,97.053,0.0059062,0.144191,20.9393,168.816,0.176754,0.0,0.0
753,188,52.4079,55.8937,145.922,98.9985,96.9875,0.00598791,0.143178,20.9402,168.816,0.183176,0.0,0.0
756,188.75,52.2451,56.0141,144.464,98.9969,96.4836,0.00606713,0.142298,20.9414,168.796,0.22953,0.0,0.0
759,189.5,52.2061,56.1848,145.159,99.0001,97.6952,0.00613115,0.141476,20.9426,168.765,0.118432,0.0,0.0
762,190.25,52.1277,56.0683,145.786,99.0161,96.6154,0.00618049,0.140672,20.9439,168.765,0.219075,0.0,0.0
765,191,52.2687,55.5637,145.554,99.0133,96.8472,0.00621824,0.139802,20.9449,168.725,0.197436,0.0,0.0
768,191.75,52.1938,55.8573,140.389,99.0069,97.864,0.00624643,0.13892,20.9456,168.725,0.103634,0.0,0.0
771,192.5,51.7358,55.5575,148.656,99.0189,96.8417,0.0062681,0.13806,20.9461,168.695,0.19845,0.0,0.0
774,193.25,51.8677,55.4272,141.775,99.0289,97.7224,0.00629284,0.137107,20.9473,168.695,0.118544,0.0,0.0
777,194,51.9767,55.4608,143.026,99.0333,98.2302,0.00631681,0.136274,20.9486,168.665,0.0726817,0.0,0.0
780,194.75,51.8634,55.7531,146.444,99.0257,97.6561,0.00634445,0.135161,20.9495,168.645,0.124318,0.0,0.0
783,195.5,51.6965,55.4878,147.547,99.0209,97.2852,0.0063789,0.134265,20.9507,168.645,0.157843,0.0,0.0
786,196.25,51.5356,55.4658,144.115,99.0374,96.4177,0.00640778,0.133576,20.9517,168.625,0.239275,0.0,0.0
789,197,51.0979,55.3651,140.669,99.0386,96.9301,0.00643307,0.132831,20.9524,168.635,0.192069,0.0,0.0
792,197.75,51.4145,55.1135,143.995,99.0317,97.4349,0.00645603,0.132154,20.953,168.625,0.145093,0.0,0.0
795,198.5,51.3261,54.981,141.527,99.039,96.6601,0.00647814,0.131432,20.9542,168.605,0.217007,0.0,0.0
798,199.25,51.4566,55.0332,146.138,99.0338,97.1747,0.00649425,0.130583,20.9556,168.565,0.169147,0.0,0.0
801,200,51.3337,55.0742,145.847,99.0518,97.3022,0.006506,0.129738,20.9565,168.575,0.15906,0.0,0.0
804,200.75,51.3037,54.8747,142.989,99.0462,97.0551,0.00650703,0.128951,20.9572,168.565,0.181249,0.0,0.0
807,201.5,50.9508,54.8322,145.328,99.0486,97.2805,0.00650458,0.128251,20.9577,168.535,0.160761,0.0,0.0
810,202.25,50.9549,54.7817,146.513,99.0522,97.1287,0.006501,0.1276,20.9585,168.565,0.175026,0.0,0.0
813,203,51.0599,54.484,144.39,99.0646,97.3022,0.00649965,0.127073,20.9593,168.565,0.160213,0.0,0.0
816,203.75,50.6897,54.582,146.202,99.0606,97.1334,0.00649788,0.1266,20.9599,168.555,0.175354,0.0,0.0
819,204.5,50.9807,54.4876,146.206,99.0586,97.1036,0.00649433,0.126015,20.9603,168.535,0.177909,0.0,0.0
822,205.25,50.7302,54.3202,145.158,99.0646,97.1712,0.00648101,0.125487,20.9606,168.545,0.172237,0.0,0.0
825,206,50.8633,54.1123,145.488,99.0806,96.951,0.0064713,0.12472,20.9614,168.525,0.193938,0.0,0.0
828,206.75,50.974,54.1004,144.016,99.0726,97.9716,0.00646601,0.123981,20.9628,168.485,0.0997418,0.0,0.0
831,207.5,50.456,53.9183,143.383,99.063,97.4651,0.00646215,0.123272,20.964,168.485,0.145141,0.0,0.0
834,208.25,50.3261,53.8609,145.964,99.0642,97.7781,0.00649691,0.122684,20.9649,168.395,0.116631,0.0,0.0
837,209,50.4615,53.8618,143.755,99.077,96.6809,0.00654485,0.122072,20.9656,168.425,0.218509,0.0,0.0
840,209.75,50.4709,53.3091,144.676,99.0822,97.5595,0.00660067,0.121549,20.9661,168.435,0.138229,0.0,0.0
843,210.5,49.9638,53.5614,144.803,99.065,97.2559,0.00666058,0.120986,20.9671,168.435,0.164503,0.0,0.0
846,211.25,50.066,53.7238,144.472,99.079,97.8185,0.00671859,0.120509,20.9678,168.395,0.114278,0.0,0.0
849,212,50.0491,53.4045,140.67,99.0914,97.6854,0.00676022,0.120048,20.9683,168.395,0.127549,0.0,0.0
852,212.75,50.3183,53.648,145.985,99.0866,97.8606,0.00678943,0.119692,20.9691,168.375,0.111122,0.0,0.0
855,213.5,50.122,53.6203,142.458,99.0798,97.6195,0.00679189,0.119432,20.9699,168.385,0.132529,0.0,0.0
858,214.25,49.8532,52.9036,139.74,99.0794,97.9423,0.00678564,0.119243,20.9705,168.365,0.103028,0.0,0.0
861,215,50.0721,52.7531,146.414,99.0886,97.8504,0.00674092,0.118944,20.9714,168.345,0.112233,0.0,0.0
864,215.75,50.0446,53.0208,144.666,99.0934,97.8908,0.0066727,0.118608,20.9722,168.355,0.108981,0.0,0.0
867,216.5,49.9599,53.1709,142.956,99.0782,97.2776,0.00659137,0.118161,20.9728,168.335,0.163703,0.0,0.0
870,217.25,49.7315,52.8308,147.066,99.0798,97.5234,0.00650705,0.117667,20.9732,168.295,0.141321,0.0,0.0
873,218,49.8979,52.8774,142.115,99.0794,97.4494,0.00644809,0.117235,20.9735,168.295,0.14806,0.0,0.0
876,218.75,49.4102,52.7729,145.918,99.0802,97.7539,0.00640948,0.11678,20.9738,168.285,0.120286,0.0,0.0
879,219.5,49.7409,52.4756,145.017,99.063,97.8202,0.00638696,0.116378,20.9739,168.265,0.11268,0.0,0.0
882,220.25,48.934,52.6897,145.473,99.0734,97.5064,0.00638664,0.116032,20.9741,168.245,0.142301,0.0,0.0
885,221,49.4595,52.8619,144.232,99.0834,97.4443,0.00638641,0.115743,20.9741,168.215,0.148888,0.0,0.0
888,221.75,49.3816,52.4078,142.901,99.0794,97.9112,0.00640234,0.115504,20.9742,168.225,0.105858,0.0,0.0
891,222.5,49.2838,52.6718,144.932,99.0698,97.6565,0.00641645,0.115288,20.9743,168.215,0.128245,0.0,0.0
894,223.25,49.1595,52.7426,146.268,99.0746,97.389,0.00642781,0.11508,20.9749,168.205,0.15316,0.0,0.0
897,224,49.1798,52.454,146.335,99.0706,97.8007,0.00644325,0.114909,20.9754,168.165,0.11515,0.0,0.0
900,224.75,49.0062,52.2778,144.574,99.0718,97.9346,0.00645583,0.11474,20.9758,168.165,0.103042,0.0,0.0
903,225.5,49.1384,52.4145,144.033,99.0662,98.018,0.00646923,0.114541,20.976,168.175,0.0949426,0.0,0.0
906,226.25,49.1714,52.3102,148.053,99.063,97.8185,0.00648239,0.114314,20.9762,168.135,0.112835,0.0,0.0
909,227,49.0838,52.2464,149.286,99.0574,97.4549,0.00649556,0.11401,20.9763,168.105,0.14557,0.0,0.0
912,227.75,48.8926,52.2725,141.939,99.069,97.8653,0.00650516,0.113769,20.9764,168.095,0.109108,0.0,0.0
915,228.5,48.8379,51.9415,146.771,99.0678,98.2591,0.00651216,0.113579,20.9765,168.095,0.0731556,0.0,0.0
918,229.25,48.8448,51.8735,143.163,99.0562,97.6858,0.00651727,0.11339,20.9766,168.075,0.124339,0.0,0.0
921,230,48.4976,51.8588,146.065,99.0598,97.7756,0.006487,0.113177,20.9771,168.055,0.116468,0.0,0.0
924,230.75,48.4137,51.5831,145.209,99.0694,97.5974,0.00644112,0.112842,20.9776,168.065,0.133614,0.0,0.0
927,231.5,48.5504,51.9179,144.509,99.0634,97.4392,0.00639752,0.112597,20.978,168.045,0.147552,0.0,0.0
930,232.25,48.5561,52.0698,144.98,99.0606,97.9708,0.00634608,0.112375,20.9783,168.035,0.0987369,0.0,0.0
933,233,48.8396,51.6792,145.144,99.0706,97.2771,0.00630858,0.112137,20.9789,167.995,0.163056,0.0,0.0
936,233.75,47.512,51.3358,149.159,99.069,97.7866,0.00628784,0.111784,20.9796,168.005,0.116287,0.0,0.0
939,234.5,48.1152,51.4517,146.076,99.0694,97.6488,0.00628399,0.111401,20.9801,168.015,0.128909,0.0,0.0
942,235.25,48.1207,51.0525,147.077,99.061,98.2566,0.00628514,0.110969,20.9804,167.995,0.0727746,0.0,0.0
945,236,47.9488,50.9001,145.153,99.0798,97.9993,0.00629275,0.110613,20.9807,167.955,0.097873,0.0,0.0
948,236.75,47.8936,51.1243,145.996,99.0646,98.3437,0.00630902,0.110256,20.9809,167.975,0.0651832,0.0,0.0
951,237.5,47.5541,50.908,145.857,99.0794,97.8368,0.00632154,0.109954,20.981,167.965,0.112645,0.0,0.0
954,238.25,47.6803,51.2083,147.748,99.0706,98.721,0.0063318,0.109594,20.9811,167.935,0.0315538,0.0,0.0
957,239,47.8386,50.8197,146.08,99.059,97.7539,0.0063214,0.10925,20.9812,167.925,0.118376,0.0,0.0
960,239.75,48.08,50.7904,147.518,99.0706,97.6395,0.00629378,0.108861,20.9815,167.895,0.129872,0.0,0.0
963,240.5,48.016,50.5359,147.902,99.077,97.5876,0.00624756,0.108478,20.9821,167.905,0.135193,0.0,0.0
966,241.25,47.5911,50.6348,144.619,99.0614,97.8751,0.0062064,0.108143,20.9825,167.875,0.107531,0.0,0.0
969,242,47.602,50.7875,143.965,99.0658,97.8147,0.00617514,0.107846,20.9828,167.895,0.113437,0.0,0.0
972,242.75,47.5834,50.7704,144.93,99.063,98.0567,0.00615182,0.107578,20.9831,167.885,0.0911308,0.0,0.0
975,243.5,47.2828,50.9535,142.543,99.0738,97.5906,0.0061491,0.107324,20.9833,167.875,0.134633,0.0,0.0
978,244.25,47.527,50.624,146.828,99.067,97.6425,0.0061491,0.107123,20.9834,167.845,0.129275,0.0,0.0
981,245,47.9175,50.2735,143.93,99.0594,97.7824,0.00615248,0.106952,20.9835,167.865,0.115809,0.0,0.0
984,245.75,47.985,50.4768,146.727,99.0662,97.8861,0.00614244,0.106702,20.9835,167.845,0.106956,0.0,0.0
987,246.5,47.5485,50.5183,142.852,99.067,97.5042,0.00612761,0.106466,20.9838,167.805,0.141919,0.0,0.0
990,247.25,47.7924,50.2299,143.484,99.081,97.4268,0.0061136,0.106194,20.9844,167.785,0.150269,0.0,0.0
993,248,47.549,50.1435,141.256,99.0674,97.7373,0.00611231,0.105996,20.9849,167.785,0.120646,0.0,0.0
996,248.75,47.5282,50.8571,143.844,99.0746,98.214,0.00611598,0.105851,20.9852,167.745,0.0778653,0.0,0.0
999,249.5,47.7382,50.3871,140.916,99.0794,98.2978,0.00612655,0.105826,20.9854,167.755,0.0706868,0.0,0.0
1002,250.25,47.5069,50.7339,145.182,99.0842,97.9444,0.00612175,0.105821,20.9856,167.745,0.103267,0.0,0.0
1005,251,47.2666,49.8262,144.32,99.0766,98.2446,0.00610323,0.105823,20.9857,167.735,0.0752628,0.0,0.0
1008,251.75,47.3836,50.1026,144.237,99.0794,98.2842,0.00608333,0.105805,20.9858,167.745,0.0719229,0.0,0.0
1011,252.5,47.1004,49.9131,145.501,99.0862,98.0333,0.00606632,0.105694,20.9856,167.725,0.095351,0.0,0.0
1014,253.25,47.1292,49.7111,144.473,99.1018,98.157,0.00605285,0.10555,20.9851,167.715,0.0854965,0.0,0.0
1017,254,47.3831,50.1331,144.103,99.0926,98.2255,0.00606267,0.105407,20.9847,167.715,0.0784433,0.0,0.0
1020,254.75,47.2413,49.9975,143.513,99.0882,97.8513,0.00607048,0.105302,20.9845,167.695,0.112119,0.0,0.0
1023,255.5,47.3028,49.8933,143.422,99.0814,97.7237,0.00607731,0.105187,20.9849,167.695,0.123152,0.0,0.0
1026,256.25,46.9732,49.6449,144.138,99.0854,97.8194,0.0060757,0.105018,20.9852,167.695,0.114777,0.0,0.0
1029,257,46.5099,49.9683,144.664,99.0902,97.8113,0.00606326,0.10486,20.9854,167.674,0.115948,0.0,0.0
1032,257.75,47.4333,49.7901,148.644,99.075,98.3833,0.00603812,0.104585,20.9856,167.674,0.0625327,0.0,0.0
1035,258.5,46.6593,49.7019,144.706,99.081,97.8028,0.00600229,0.104422,20.9855,167.654,0.115894,0.0,0.0
1038,259.25,45.9888,49.7106,145.267,99.0986,97.9393,0.00595752,0.104366,20.985,167.644,0.10503,0.0,0.0
1041,260,46.5179,49.7337,144.623,99.0838,97.7611,0.00590575,0.104366,20.9847,167.644,0.11995,0.0,0.0
1044,260.75,46.9468,49.6755,141.591,99.0918,98.1332,0.00585019,0.104399,20.9844,167.644,0.0867621,0.0,0.0
1047,261.5,47.0229,49.5843,147.979,99.089,98.2731,0.00581343,0.104449,20.9842,167.634,0.0737919,0.0,0.0
1050,262.25,46.5021,49.5643,144.77,99.1086,97.2997,0.00578824,0.104457,20.9841,167.624,0.164413,0.0,0.0
1053,263,46.6276,49.6001,144.921,99.0938,97.9176,0.00578487,0.10448,20.984,167.604,0.106574,0.0,0.0
1056,263.75,46.6071,49.2204,146.2,99.0882,97.6182,0.00579472,0.104547,20.9839,167.584,0.133403,0.0,0.0
1059,264.5,47.0715,49.8383,146.907,99.0966,97.9504,0.00581204,0.104636,20.9839,167.564,0.103842,0.0,0.0
1062,265.25,46.9332,49.5022,144.173,99.099,97.594,0.00582098,0.104729,20.9837,167.564,0.136593,0.0,0.0
1065,266,46.9351,49.3843,146.808,99.1146,97.5719,0.00581476,0.104808,20.9835,167.534,0.140021,0.0,0.0
1068,266.75,47.0245,49.8165,145.652,99.0942,98.0563,0.0057911,0.104866,20.9833,167.534,0.0939814,0.0,0.0
1071,267.5,46.586,49.6385,145.891,99.1038,97.827,0.00574762,0.1049,20.9832,167.494,0.115737,0.0,0.0
1074,268.25,47.1875,49.1735,145.309,99.1106,97.5374,0.00569751,0.104912,20.9831,167.504,0.142813,0.0,0.0
1077,269,46.6919,49.0986,142.52,99.1182,97.9814,0.00564862,0.104809,20.983,167.464,0.102961,0.0,0.0
1080,269.75,46.6641,49.5529,148.369,99.1078,97.8466,0.00561627,0.104649,20.983,167.464,0.114312,0.0,0.0
1083,270.5,47.1377,49.6206,145.064,99.117,97.6408,0.0055983,0.10447,20.9829,167.494,0.133938,0.0,0.0
1086,271.25,46.7353,49.2617,148.207,99.1206,98.3471,0.00560479,0.10434,20.9829,167.464,0.0699225,0.0,0.0
1089,272,46.7905,48.9442,145.016,99.1254,98.0949,0.00563201,0.104252,20.9831,167.434,0.0932717,0.0,0.0
1092,272.75,46.8062,49.4656,144.932,99.1194,98.507,0.00567525,0.1042,20.9837,167.444,0.0553133,0.0,0.0
1095,273.5,46.236,49.2352,144.894,99.1086,98.3344,0.00573041,0.104149,20.9841,167.424,0.0699985,0.0,0.0
1098,274.25,46.4793,48.9915,144.454,99.1262,97.7437,0.00580273,0.104113,20.9844,167.404,0.125364,0.0,0.0
1101,275,46.3314,48.539,143.597,99.137,98.3152,0.00585545,0.104099,20.9842,167.404,0.0742942,0.0,0.0
1104,275.75,46.5418,49.2356,149.185,99.1246,98.038,0.00590636,0.104208,20.9838,167.404,0.0983855,0.0,0.0
1107,276.5,46.4533,49.1666,138.466,99.1302,97.4749,0.0059648,0.104372,20.9844,167.394,0.150301,0.0,0.0
1110,277.25,46.3339,49.3077,145.184,99.143,98.1285,0.00600807,0.104527,20.9849,167.394,0.0917995,0.0,0.0
1113,278,46.5313,49.1646,146.499,99.1326,99.0369,0.00604074,0.104626,20.9855,167.384,0.00861753,0.0,0.0
1116,278.75,46.2225,48.8564,140.593,99.1338,97.8202,0.00607348,0.104673,20.9859,167.364,0.11906,0.0,0.0
1119,279.5,46.3989,48.8668,143.927,99.1206,97.8823,0.00610988,0.104657,20.9861,167.374,0.112208,0.0,0.0
1122,280.25,46.3229,48.7303,146.933,99.1334,97.8053,0.00614175,0.104556,20.9864,167.324,0.120383,0.0,0.0
1125,281,46.2002,49.266,145.49,99.1418,98.1166,0.00619,0.104525,20.9865,167.344,0.0927757,0.0,0.0
1128,281.75,46.2125,48.4988,140.991,99.1442,98.1013,0.00623646,0.104565,20.9866,167.324,0.0943846,0.0,0.0
1131,282.5,45.8401,49.3045,148.237,99.1346,98.4275,0.00627316,0.104669,20.9867,167.304,0.0638913,0.0,0.0
1134,283.25,46.4696,48.4418,146.005,99.1282,97.9555,0.00629653,0.104758,20.9867,167.304,0.106224,0.0,0.0
1137,284,46.1801,48.8761,141.494,99.1506,99.0569,0.00630235,0.104815,20.9868,167.304,0.00843788,0.0,0.0
1140,284.75,46.4951,49.4095,151.282,99.1518,97.9091,0.00628742,0.104831,20.9868,167.284,0.112576,0.0,0.0
1143,285.5,46.6518,48.6163,147.479,99.143,98.1005,0.00625775,0.104803,20.9868,167.254,0.094353,0.0,0.0
1146,286.25,46.0785,49.2657,145.342,99.1498,98.2085,0.00622614,0.104783,20.9869,167.244,0.0851434,0.0,0.0
1149,287,46.2844,48.7214,142.463,99.1566,98.2953,0.00619971,0.104768,20.9869,167.254,0.0778748,0.0,0.0
1152,287.75,46.2468,48.8332,141.539,99.163,98.0915,0.00618169,0.104801,20.9869,167.234,0.0969678,0.0,0.0
1155,288.5,46.4948,48.8649,145.422,99.1534,98.5568,0.00616909,0.104901,20.9869,167.224,0.0538687,0.0,0.0
1158,289.25,46.0586,48.8702,141.053,99.1554,99.0323,0.00615991,0.105033,20.9869,167.244,0.0110929,0.0,0.0
1161,290,46.0785,49.0971,140.425,99.165,97.9631,0.00613893,0.105108,20.9869,167.214,0.108843,0.0,0.0
1164,290.75,46.1504,48.9722,146.568,99.1758,97.8547,0.00612363,0.105124,20.9869,167.214,0.119701,0.0,0.0
1167,291.5,45.6809,49.051,144.048,99.1774,97.6994,0.00609106,0.105077,20.9869,167.184,0.134015,0.0,0.0
1170,292.25,45.9705,49.0929,147.738,99.1682,97.8428,0.00606915,0.104972,20.9871,167.154,0.120103,0.0,0.0
1173,293,45.883,48.2624,143.274,99.1862,98.2591,0.00603312,0.104866,20.9877,167.164,0.0838228,0.0,0.0
1176,293.75,45.9406,48.7813,143.855,99.1914,97.7611,0.00600009,0.104689,20.9881,167.154,0.129643,0.0,0.0
1179,294.5,46.4376,48.8255,144.383,99.1954,98.1651,0.00597245,0.104546,20.9884,167.134,0.0931938,0.0,0.0
1182,295.25,45.9117,48.6674,143.709,99.191,98.2902,0.0059556,0.104455,20.9886,167.114,0.0814361,0.0,0.0
1185,296,45.8526,48.885,145.321,99.1978,98.2583,0.00594893,0.10435,20.9882,167.144,0.0849453,0.0,0.0
1188,296.75,46.2249,48.8823,143.969,99.2179,97.77,0.00595133,0.10431,20.9877,167.124,0.131206,0.0,0.0
1191,297.5,46.3354,48.7338,146.303,99.2111,97.9784,0.00595307,0.104343,20.9873,167.094,0.111589,0.0,0.0
1194,298.25,46.0547,48.7259,146.521,99.2055,99.0097,0.00596185,0.104408,20.9869,167.094,0.0176271,0.0,0.0
1197,299,46.0261,48.6055,143.798,99.2179,97.2359,0.00596858,0.104482,20.9868,167.064,0.180103,0.0,0.0
1200,299.75,46.714,48.4269,147.49,99.2255,97.648,0.00599263,0.104547,20.9866,167.064,0.143038,0.0,0.0
1203,300.5,46.2472,48.6916,145.538,99.2299,97.6263,0.00602104,0.104581,20.9864,167.054,0.145417,0.0,0.0
1206,301.25,46.1794,48.8769,147.04,99.2215,98.3208,0.00604852,0.1046,20.9863,167.034,0.0813928,0.0,0.0
1209,302,46.1404,48.3764,144.171,99.2331,99.0216,0.00606677,0.104609,20.9863,167.044,0.0190383,0.0,0.0
1212,302.75,45.9928,48.593,145.346,99.2515,98.6074,0.00607506,0.10464,20.9862,167.014,0.0581098,0.0,0.0
1215,303.5,46.2126,49.1008,138.56,99.2563,97.91,0.00607172,0.104635,20.9862,167.014,0.121898,0.0,0.0
1218,304.25,45.9622,48.8894,149.972,99.2495,98.1681,0.0060569,0.104604,20.9861,167.004,0.0977835,0.0,0.0
1221,305,46.1315,48.9533,142.03,99.2587,98.0048,0.00602635,0.104557,20.9861,166.994,0.113471,0.0,0.0
1224,305.75,46.0788,48.8874,145.497,99.2595,97.7492,0.0059703,0.104423,20.9867,166.984,0.136851,0.0,0.0
1227,306.5,46.1989,48.6759,145.181,99.2615,97.9206,0.00587776,0.104297,20.9872,166.974,0.121396,0.0,0.0
1230,307.25,46.1782,48.9127,149.139,99.2571,97.9125,0.00579782,0.104179,20.9875,166.974,0.121736,0.0,0.0
1233,308,46.1539,48.273,144.093,99.2695,98.6584,0.00571818,0.104068,20.9877,166.964,0.0551113,0.0,0.0
1236,308.75,46.1809,48.6018,140.774,99.2743,97.9082,0.00566369,0.104038,20.9877,166.964,0.123671,0.0,0.0
1239,309.5,45.8173,48.6457,146.795,99.2831,97.4417,0.00563514,0.104104,20.9872,166.944,0.167094,0.0,0.0
1242,310.25,46.2964,48.8783,143.505,99.2743,97.8959,0.00563343,0.104192,20.9869,166.924,0.124795,0.0,0.0
1245,311,46.2595,48.3859,142.501,99.2763,98.4454,0.00566247,0.104256,20.9867,166.934,0.0750191,0.0,0.0
1248,311.75,46.1682,48.8687,142.594,99.2935,98.0784,0.00569022,0.104303,20.9865,166.914,0.109904,0.0,0.0
1251,312.5,46.5954,48.9105,146.012,99.2923,97.5327,0.00572171,0.104278,20.9864,166.904,0.15959,0.0,0.0
1254,313.25,45.678,48.2922,142.711,99.2943,97.5986,0.00574109,0.104287,20.9863,166.864,0.15374,0.0,0.0
1257,314,46.4164,48.72,144.448,99.2943,97.8483,0.00574022,0.104306,20.9865,166.884,0.130938,0.0,0.0
1260,314.75,46.2343,48.7616,142.976,99.2939,97.8891,0.00572333,0.10422,20.987,166.884,0.12718,0.0,0.0
1263,315.5,45.904,48.4304,145.041,99.3051,97.7611,0.00569416,0.104059,20.9874,166.874,0.139866,0.0,0.0
1266,316.25,46.4893,48.5117,146.804,99.3027,98.0154,0.00565783,0.103901,20.9874,166.844,0.116461,0.0,0.0
1269,317,46.045,48.9661,146.166,99.3003,98.7388,0.00563476,0.103885,20.9871,166.854,0.0506117,0.0,0.0
1272,317.75,46.2105,48.6476,151.206,99.3087,98.1821,0.00561879,0.103973,20.9869,166.824,0.101833,0.0,0.0
1275,318.5,46.1407,49.0202,137.962,99.3195,97.6748,0.00560714,0.104051,20.9869,166.824,0.149047,0.0,0.0
1278,319.25,46.4653,48.6934,146.941,99.3163,98.6521,0.00567529,0.104134,20.9869,166.814,0.0598982,0.0,0.0
1281,320,45.9433,48.5081,144.942,99.3099,98.2098,0.00576,0.104219,20.9869,166.804,0.0994272,0.0,0.0
1284,320.75,46.1026,48.5294,145.654,99.3227,98.5891,0.0058459,0.104317,20.9869,166.804,0.0661698,0.0,0.0
1287,321.5,45.3575,48.6033,147.715,99.3391,97.8891,0.0059243,0.104403,20.9869,166.784,0.131243,0.0,0.0
1290,322.25,46.144,48.9584,143.412,99.3259,98.5904,0.0059808,0.104434,20.9869,166.774,0.0663419,0.0,0.0
1293,323,46.2802,48.7098,146.254,99.3203,97.844,0.00602086,0.104394,20.9869,166.764,0.133665,0.0,0.0
1296,323.75,45.7987,48.2543,145.482,99.3359,97.779,0.00603399,0.104282,20.9868,166.754,0.141005,0.0,0.0
1299,324.5,46.1927,48.6388,142.527,99.3387,98.1911,0.00603355,0.104164,20.9868,166.754,0.103719,0.0,0.0
1302,325.25,45.7074,48.1211,140.286,99.3443,97.5727,0.00602896,0.104058,20.9868,166.734,0.160608,0.0,0.0
1305,326,45.8113,48.1647,143.79,99.3295,97.8479,0.0060081,0.103967,20.9867,166.734,0.134143,0.0,0.0
1308,326.75,45.9281,48.7963,142.555,99.3439,98.0903,0.0059802,0.103894,20.9867,166.734,0.113352,0.0,0.0
1311,327.5,46.1092,48.9562,144.326,99.3455,98.0052,0.00595093,0.103802,20.9867,166.734,0.121238,0.0,0.0
1314,328.25,46.0499,48.8128,142.923,99.3571,97.9244,0.00594585,0.103734,20.9866,166.714,0.129644,0.0,0.0
1317,329,45.6606,48.3821,144.067,99.3411,98.2361,0.00595764,0.103685,20.9864,166.684,0.0998365,0.0,0.0
1320,329.75,45.8137,48.1487,141.027,99.3499,98.2808,0.00598087,0.103669,20.9863,166.664,0.0965721,0.0,0.0
1323,330.5,45.6977,48.4331,143.952,99.3615,98.1558,0.00599901,0.103672,20.9862,166.674,0.108977,0.0,0.0
1326,331.25,45.7774,48.5423,142.043,99.3688,97.8449,0.00601864,0.103698,20.9861,166.654,0.137939,0.0,0.0
1329,332,45.4181,48.038,147.214,99.3559,99.0476,0.0060307,0.103633,20.9865,166.674,0.0277456,0.0,0.0
1332,332.75,45.4977,48.2047,144.476,99.3507,98.0971,0.00603751,0.103551,20.9869,166.634,0.113345,0.0,0.0
1335,333.5,45.9555,48.5972,142.681,99.3624,98.6686,0.0060391,0.103508,20.9873,166.644,0.0625327,0.0,0.0
1338,334.25,45.889,48.6655,144.25,99.3668,97.7887,0.00604026,0.1034,20.9875,166.644,0.142881,0.0,0.0
1341,335,45.7942,48.6019,147.723,99.3547,98.0699,0.00604045,0.103321,20.9877,166.624,0.116182,0.0,0.0
1344,335.75,45.6971,48.4014,143.907,99.3632,98.8324,0.00603946,0.103323,20.9878,166.604,0.0478055,0.0,0.0
1347,336.5,45.7782,48.3848,144.239,99.3699,98.3688,0.0060548,0.103419,20.9875,166.634,0.0903788,0.0,0.0
1350,337.25,46.2881,47.8387,144.453,99.3744,98.5717,0.00607851,0.103653,20.987,166.634,0.0723862,0.0,0.0
1353,338,45.7736,47.917,146.391,99.3788,97.7739,0.00611721,0.103903,20.9867,166.614,0.145319,0.0,0.0
1356,338.75,45.5405,48.0246,142.269,99.3676,98.0431,0.00615794,0.10403,20.9865,166.593,0.119771,0.0,0.0
1359,339.5,45.5125,48.4761,144.133,99.376,98.24,0.00619298,0.104076,20.9863,166.583,0.102618,0.0,0.0
1362,340.25,46.3666,48.3138,145.024,99.3712,98.2748,0.0062273,0.104072,20.9862,166.563,0.099019,0.0,0.0
1365,341,45.702,48.4389,146.923,99.3792,98.1081,0.00625869,0.104084,20.9861,166.553,0.114891,0.0,0.0
1368,341.75,45.6926,48.3186,148.807,99.3704,98.8107,0.00628609,0.104098,20.986,166.543,0.0504118,0.0,0.0
1371,342.5,46.2312,48.4301,145.238,99.3643,98.3276,,0.103996,,166.533,0.0936192,0.0,0.0
1374,343.25,46.2848,48.4526,142.555,99.394,97.8525,,0.103875,,166.503,0.139505,0.0,0.0
1377,344,45.7875,48.1662,143.708,99.3912,98.0575,,0.103746,,166.513,0.120575,0.0,0.0
1380,344.75,45.8435,48.2665,141.926,99.3728,97.776,,0.10369,,166.493,0.144585,0.0,0.0
1383,345.5,46.1013,48.1554,142.553,99.3956,98.2136,,,,166.483,0.106775,0.0,0.0
1386,346.25,46.1589,48.3209,146.999,99.388,97.8938,,,,166.443,0.135204,0.0,0.0
1389,347,46.0304,48.3288,146.475,99.3928,98.066,,,,166.453,0.119945,0.0,0.0
1392,347.75,45.7341,48.1291,148.926,99.3848,98.4509,,,,166.433,0.0842644,0.0,0.0
1395,348.5,45.5623,48.628,146.98,99.3792,98.388,,,,166.423,0.0894697,0.0,0.0
1398,349.25,46.073,48.6642,147.083,99.3832,98.1481,,,,166.423,0.111615,0.0,0.0
1401,350,45.7319,48.1935,144.484,99.4048,97.9963,,,,166.403,0.127373,0.0,0.0
1404,350.75,45.5801,48.5378,143.957,99.3928,97.7998,,,,166.413,0.144209,0.0,0.0
1407,351.5,46.0368,48.566,145.463,99.3976,97.4532,,,,166.393,0.176327,0.0,0.0
1410,352.25,45.8284,48.5547,145.819,99.3964,97.622,,,,166.393,0.16077,0.0,0.0
1413,353,45.781,48.7575,147.202,99.3988,97.8636,,,,166.383,0.138928,0.0,0.0
1414,353.25,46.0827,48.4771,147.347,99.3884,98.2344,,,,166.373,0.104235,0.0,0.0