File: 01_Data/Vinyl_Tile/Cone/Vinyl_Tile_Cone_HF25Scan_220405_R3.csv
Names,Time,Stack TC,Smoke TC,Exh Press,Smoke Comp,Smoke Meas,CO Meter,CO2 Meter,O2 Meter,Sample Mass,Ext Coeff,Start Test,Flame Verif
Chan Gain,,500,500,1,1,1,1,1,1,1,1,1.0,1.0
Offset,,0,0,0.132686,0,0,0,0,0,0,0,0.0,0.0
Gain,,1,1,25.011,13.1151,13.9355,1,1,1,1.00092,1.01752,1.0,1.0
Units,sec,C,C,Pa,%,%,%,%,%,g,/m,,
Baseline,,19.0323,19.6433,160.425,98.6587,99.1552,0.000680336,0.0710297,21.0043,-833.84,-0.0447669,,
4,0.75,18.2471,18.8093,159.272,97.7054,98.3727,0.000496975,0.0796319,20.994,193.408,-0.0607523,0.0,0.0
8,1.75,18.732,19.0753,159.032,97.7058,98.3454,0.000490495,0.0811697,20.992,193.318,-0.0582453,0.0,0.0
12,2.75,18.0642,18.8617,160.309,97.6933,98.7142,0.00048391,0.0822788,20.9908,193.348,-0.0927809,0.0,0.0
16,3.75,18.4806,18.9849,162.692,97.7001,98.6657,0.000519234,0.0828289,20.99,193.418,-0.0877744,0.0,0.0
20,4.75,18.8002,19.2027,160.786,97.6933,98.3327,0.000606334,0.0830549,20.9897,193.448,-0.0582212,0.0,0.0
24,5.75,18.5776,18.9968,159.167,97.707,98.1162,0.000723051,0.0829903,20.9899,193.458,-0.0373076,0.0,0.0
28,6.75,18.2058,18.6707,163.748,97.7026,98.7869,0.000831824,0.0827821,20.9908,193.438,-0.0985122,0.0,0.0
32,7.75,18.001,18.826,157.77,97.7034,98.143,0.000906323,0.0822903,20.9918,193.428,-0.0400738,0.0,0.0
36,8.75,18.1966,18.7922,161.547,97.7006,98.3931,0.000960082,0.0815131,20.9924,193.408,-0.0630425,0.0,0.0
40,9.75,18.4784,19.0905,160.929,97.6861,97.7658,0.00100663,0.080693,20.9945,193.398,-0.00727389,0.0,0.0
44,10.75,18.1913,19.1787,159.587,97.6973,98.4722,0.00104554,0.0797742,20.9958,193.408,-0.0705079,0.0,0.0
48,11.75,18.1316,18.8548,164.897,97.6853,98.0652,0.00106695,0.0787768,20.9973,193.408,-0.0346385,0.0,0.0
52,12.75,18.624,19.1541,164.094,97.6865,98.3616,0.00104921,0.0777355,20.9984,193.408,-0.0614669,0.0,0.0
56,13.75,18.8143,19.4414,161.296,97.6865,98.3055,0.00100815,0.0768706,20.999,193.418,-0.0563713,0.0,0.0
60,14.75,18.1987,18.5406,157.81,97.6865,98.1494,0.000938138,0.0761617,21,193.398,-0.0421892,0.0,0.0
64,15.75,18.3934,18.7444,157.52,97.6797,97.8423,0.000876767,0.0754973,21.001,193.398,-0.0148447,0.0,0.0
68,16.75,18.2076,19.0675,168.234,97.6861,98.4292,0.000838706,0.075036,21.0017,193.398,-0.0676374,0.0,0.0
72,17.75,18.2404,18.8907,154.478,97.6825,98.3863,0.000796094,0.0744326,21.0021,193.408,-0.0640707,0.0,0.0
76,18.75,18.4504,19.1718,162.353,97.6793,98.2502,0.000742221,0.0739616,21.0024,193.398,-0.0520096,0.0,0.0
80,19.75,18.2836,19.0659,158.965,97.6729,98.7044,0.000687749,0.0735616,21.0026,193.408,-0.0937604,0.0,0.0
84,20.75,18.198,18.7966,161.985,97.6737,98.0443,0.000647004,0.0731746,21.0032,193.408,-0.0338027,0.0,0.0
88,21.75,18.0133,19.1345,162.194,97.6841,98.4267,0.000626852,0.0728429,21.0036,193.418,-0.0675891,0.0,0.0
92,22.75,18.435,19.2871,163.162,97.6901,98.5419,0.000630819,0.0725857,21.0039,193.408,-0.0774858,0.0,0.0
96,23.75,18.1596,18.8387,162.548,97.6789,98.49,0.000662078,0.0724523,21.0041,193.408,-0.0738084,0.0,0.0
100,24.75,18.4619,18.91,155.598,97.6737,98.0711,0.000715666,0.0723398,21.0042,193.408,-0.0362414,0.0,0.0
104,25.75,18.6061,18.8112,161.601,97.6697,98.5849,0.000765452,0.0723053,21.0043,193.408,-0.083241,0.0,0.0
108,26.75,18.0407,18.782,161.352,97.6669,98.2978,0.000811184,0.0723128,21.0053,193.408,-0.0574689,0.0,0.0
112,27.75,17.9393,18.4863,162.436,97.6653,97.9589,0.00083608,0.0722838,21.006,193.408,-0.0267857,0.0,0.0
116,28.75,17.9206,18.5329,159.782,97.6601,98.0839,0.000847478,0.0722542,21.0064,193.428,-0.038646,0.0,0.0
120,29.75,18.416,18.7502,159.957,97.6621,98.4352,0.000807896,0.0722597,21.0067,193.408,-0.0703717,0.0,0.0
124,30.75,18.3932,19.2316,153.664,97.6541,98.7069,0.000727395,0.0722135,21.007,193.418,-0.0957112,0.0,0.0
128,31.75,18.4241,19.1243,156.888,97.6489,98.1843,0.000657221,0.0721047,21.0074,193.408,-0.0487989,0.0,0.0
132,32.75,17.9137,18.8968,159.742,97.6497,98.2923,0.000601304,0.0720818,21.0076,193.398,-0.0585398,0.0,0.0
136,33.75,18.3312,18.7855,163.51,97.6473,97.796,0.000564433,0.0721644,21.0078,193.408,-0.0135781,0.0,0.0
140,34.75,17.969,18.5693,160.71,97.6469,98.0316,0.000544878,0.0722383,21.0079,193.398,-0.0350919,0.0,0.0
144,35.75,18.4831,18.7748,161.121,97.6401,98.5096,0.000535005,0.0722611,21.008,193.398,-0.0791303,0.0,0.0
148,36.75,18.526,18.8556,161.927,97.6269,98.4705,0.00055496,0.0722408,21.008,193.398,-0.0767914,0.0,0.0
152,37.75,18.7324,19.2548,163.336,97.6205,98.0992,0.000601112,0.0722025,21.008,193.408,-0.0436609,0.0,0.0
156,38.75,18.246,18.7838,164.604,97.6129,97.7199,0.000653438,0.0722024,21.0081,193.398,-0.00977458,0.0,0.0
160,39.75,18.285,19.2025,161.389,97.6065,98.3271,0.000696459,0.072271,21.0081,193.398,-0.0656574,0.0,0.0
164,40.75,18.0968,18.776,158.622,97.5965,97.9333,0.000725284,0.072358,21.0081,193.398,-0.0307534,0.0,0.0
168,41.75,18.1205,19.0412,161.621,97.5833,98.0631,0.000736777,0.0724177,21.0081,193.398,-0.0437758,0.0,0.0
172,42.75,18.157,19.1915,165.122,97.5885,98.3416,0.000737319,0.072439,21.0081,193.398,-0.0686179,0.0,0.0
176,43.75,17.7747,18.9858,158.397,97.5753,98.22,0.000718757,0.0723824,21.0077,193.408,-0.0587792,0.0,0.0
180,44.75,18.5821,18.8464,162.52,97.5705,98.9893,0.000689023,0.072367,21.007,193.398,-0.128858,0.0,0.0
184,45.75,18.6601,18.4338,161.16,97.5621,98.2196,0.00066803,0.0724098,21.0066,193.398,-0.0599499,0.0,0.0
188,46.75,18.6619,18.8684,160.748,97.5577,98.1137,0.000662072,0.072536,21.0063,193.398,-0.0507243,0.0,0.0
192,47.75,18.6376,18.6938,160.312,97.5445,97.7526,0.000678001,0.0726648,21.0061,193.398,-0.0190256,0.0,0.0
196,48.75,18.1705,18.7342,158.027,97.5457,98.6202,0.000706727,0.0728135,21.006,193.398,-0.0977817,0.0,0.0
200,49.75,18.0255,18.9614,164.423,97.5304,98.0158,0.000740376,0.0729661,21.0058,193.398,-0.0443115,0.0,0.0
204,50.75,18.8359,19.1685,165.476,97.5337,98.4743,0.000792145,0.0731553,21.0055,193.398,-0.0856686,0.0,0.0
208,51.75,18.3769,19.2564,159.947,97.5248,98.4734,0.000849752,0.0733006,21.0052,193.388,-0.0863975,0.0,0.0
212,52.75,17.9421,18.8962,156.367,97.5192,98.5861,0.000890021,0.0734155,21.0048,193.388,-0.0971196,0.0,0.0
216,53.75,18.2592,18.8365,160.476,97.5309,98.4785,0.00090935,0.0734541,21.0045,193.388,-0.0863099,0.0,0.0
220,54.75,18.1785,19.0885,164.582,97.52,98.3795,0.00090638,0.0734453,21.0044,193.378,-0.0783144,0.0,0.0
224,55.75,18.4717,19.2069,161.813,97.5236,98.479,0.000884574,0.0734671,21.0043,193.378,-0.0870083,0.0,0.0
228,56.75,18.2278,18.6364,163.539,97.5096,98.6674,0.000846563,0.0734964,21.0042,193.368,-0.10535,0.0,0.0
232,57.75,17.964,18.7025,161.18,97.5176,98.1749,0.000794871,0.073469,21.0042,193.378,-0.0599564,0.0,0.0
236,58.75,17.8437,18.9347,158.48,97.512,97.9631,0.000737466,0.0733804,21.0041,193.368,-0.0411929,0.0,0.0
240,59.75,18.3472,18.8364,159.641,97.5124,98.7337,0.000673365,0.0733472,21.0041,193.368,-0.111093,0.0,0.0
244,60.75,17.8248,18.6073,163.866,97.5204,97.9589,0.000614946,0.0733005,21.0049,193.378,-0.0400364,0.0,0.0
248,61.75,18.4373,18.8749,161.768,97.5188,98.752,0.000568123,0.0732306,21.0054,193.378,-0.11216,0.0,0.0
252,62.75,18.0869,18.526,160.28,97.5064,98.0622,0.000543648,0.0731938,21.006,193.378,-0.0507291,0.0,0.0
256,63.75,18.2613,18.5058,160.031,97.502,98.1434,0.000536268,0.0731895,21.0064,193.358,-0.0585232,0.0,0.0
260,64.75,18.5557,19.0691,161.546,97.504,97.9504,0.000542439,0.0731004,21.0067,193.358,-0.0407632,0.0,0.0
264,65.75,18.0367,18.8876,158.558,97.5064,98.0516,0.000555767,0.0729329,21.0069,193.358,-0.0497619,0.0,0.0
268,66.75,18.1874,19.0868,159.791,97.5004,97.9861,0.00056638,0.0727201,21.007,193.348,-0.0443474,0.0,0.0
272,67.75,17.8019,18.6863,160.216,97.4952,97.8083,0.000559455,0.0724921,21.0071,193.348,-0.0286161,0.0,0.0
276,68.75,18.1321,18.7278,162.827,97.4856,97.9657,0.000533823,0.0723923,21.0072,193.358,-0.0438437,0.0,0.0
280,69.75,18.183,18.888,161.473,97.4808,97.6084,0.000513617,0.0723767,21.0072,193.358,-0.0116767,0.0,0.0
284,70.75,18.7596,18.992,159.661,97.4848,97.8474,0.000503484,0.0723415,21.0072,193.348,-0.0331384,0.0,0.0
288,71.75,18.273,18.5845,159.635,97.4772,97.85,0.000534279,0.0723184,21.0072,193.338,-0.0340681,0.0,0.0
292,72.75,18.3188,18.8521,158.788,97.4816,97.3664,0.000587366,0.0722286,21.0071,193.328,0.010552,0.0,0.0
296,73.75,18.2129,18.7584,161.72,97.4644,97.2771,0.000661016,0.0721893,21.0065,193.338,0.0171662,0.0,0.0
300,74.75,18.1594,18.711,158.558,97.4644,97.836,0.000726523,0.0721687,21.0062,193.338,-0.0339608,0.0,0.0
304,75.75,18.4702,18.455,159.319,97.458,97.534,0.000775425,0.0721553,21.006,193.338,-0.00695816,0.0,0.0
308,76.75,18.2541,18.8831,157.597,97.4448,98.1077,0.00080751,0.0720469,21.0059,193.378,-0.0605139,0.0,0.0
312,77.75,18.2745,19.1739,160.743,97.444,97.6854,0.000808706,0.0720007,21.0058,193.348,-0.0220848,0.0,0.0
316,78.75,18.3617,18.8509,161.214,97.4384,97.2635,0.000789641,0.0720096,21.0057,193.328,0.016032,0.0,0.0
320,79.75,18.9555,18.6456,160.988,97.428,97.853,0.000763902,0.0720456,21.0057,193.298,-0.0388485,0.0,0.0
324,80.75,18.3336,18.8821,158.954,97.4292,97.9929,0.000738199,0.0720882,21.0056,193.328,-0.0514916,0.0,0.0
328,81.75,18.41,19.0678,161.441,97.4296,97.8262,0.000710314,0.0720723,21.0056,193.328,-0.0362574,0.0,0.0
332,82.75,18.6277,19.4403,161.363,97.4216,97.4664,0.000686807,0.0720029,21.0056,193.308,-0.00410431,0.0,0.0
336,83.75,18.6403,19.0079,156.627,97.414,98.0218,0.000666331,0.0719358,21.0056,193.318,-0.055519,0.0,0.0
340,84.75,18.4316,19.4143,157.162,97.4148,97.2265,0.000650579,0.0719173,21.0056,193.318,0.017265,0.0,0.0
344,85.75,18.0157,18.7937,161.237,97.4016,97.6867,0.000641807,0.0719406,21.0056,193.328,-0.0260883,0.0,0.0
348,86.75,18.1235,18.9044,154.94,97.406,97.1866,0.000673321,0.0718562,21.0056,193.298,0.0201286,0.0,0.0
352,87.75,17.7626,18.3916,161.218,97.4044,97.6773,0.000711559,0.0717224,21.0056,193.308,-0.0249775,0.0,0.0
356,88.75,18.8136,19.3801,164.015,97.3944,96.5367,0.000739417,0.0716823,21.0056,193.328,0.0789453,0.0,0.0
360,89.75,18.7457,19.5491,157.767,97.4024,97.2746,0.000753001,0.0717529,21.0056,193.318,0.0117177,0.0,0.0
364,90.75,18.1208,18.5615,158.525,97.3956,96.8948,0.000760175,0.0718189,21.0056,193.308,0.0460093,0.0,0.0
368,91.75,18.4805,18.9908,161.035,97.3916,97.1823,0.000775703,0.0718511,21.0056,193.308,0.0191986,0.0,0.0
372,92.75,18.386,18.942,159.441,97.3916,97.2674,0.000805644,0.0719135,21.0056,193.298,0.0113904,0.0,0.0
376,93.75,18.7328,18.8635,159.846,97.3752,96.8918,0.000856827,0.0719878,21.0056,193.288,0.0444129,0.0,0.0
380,94.75,18.4684,18.9424,162.367,97.3796,96.39,0.000913894,0.0720655,21.0056,193.288,0.0911634,0.0,0.0
384,95.75,17.9715,18.7965,166.093,97.38,96.8965,0.000965978,0.0721177,21.0058,193.278,0.0444214,0.0,0.0
388,96.75,18.5734,19.2948,159.293,97.376,96.4644,0.000997368,0.0721859,21.006,193.278,0.083945,0.0,0.0
392,97.75,18.1701,18.9572,161.502,97.3591,95.5922,0.0010061,0.0722919,21.0056,193.268,0.163476,0.0,0.0
396,98.75,18.4543,19.1728,160.379,97.3415,95.8401,0.000952238,0.0724851,21.0054,193.268,0.138742,0.0,0.0
400,99.75,18.1182,18.7456,161.309,97.3451,96.3513,0.000890427,0.0727363,21.0052,193.278,0.0915921,0.0,0.0
404,100.75,18.8703,19.2849,158.964,97.3451,96.043,0.000856733,0.0731367,21.0051,193.278,0.1202,0.0,0.0
408,101.75,18.5801,19.2879,161.344,97.3447,95.7529,0.000855113,0.074248,21.0037,193.268,0.147159,0.0,0.0
412,102.75,18.3541,19.6086,157.284,97.3339,95.5901,0.000926762,0.0762891,21.0006,193.258,0.161364,0.0,1.0
416,103.75,18.4421,19.0695,155.415,97.3283,95.3383,0.00110324,0.079504,20.9933,193.218,0.184389,0.0,1.0
420,104.75,18.4818,19.6238,154.235,97.3275,95.9141,0.00134981,0.0852535,20.9866,193.178,0.130569,0.0,1.0
424,105.75,18.7157,19.4067,157.212,97.3199,95.0895,0.0016784,0.0912404,20.9782,193.148,0.20694,0.0,1.0
428,106.75,18.2672,18.8474,155.365,97.3187,94.7263,0.00210995,0.0985057,20.9683,193.138,0.240986,0.0,1.0
432,107.75,18.5266,18.7681,157.21,97.3219,94.1428,0.00256279,0.105415,20.9589,193.078,0.296428,0.0,1.0
436,108.75,18.1367,19.5321,156.792,97.3099,94.142,0.00299864,0.111989,20.9481,193.028,0.295407,0.0,0.0
440,109.75,18.6466,19.1492,159.588,97.3127,93.8609,0.00340344,0.118086,20.9383,192.978,0.322356,0.0,0.0
444,110.75,19.3091,19.3971,153.466,97.3063,94,0.00376784,0.123948,20.9301,192.928,0.308553,0.0,0.0
448,111.75,19.2824,19.85,156.153,97.3015,93.2727,0.00406905,0.129222,20.9239,192.888,0.377434,0.0,0.0
452,112.75,19.2535,19.3339,160.76,97.2895,92.2606,0.00433665,0.134135,20.9187,192.848,0.473719,0.0,0.0
456,113.75,19.4713,20.3467,149.554,97.2975,93.3552,0.00457452,0.138754,20.9125,192.828,0.369175,0.0,0.0
460,114.75,19.6313,20.1213,161.284,97.3051,92.446,0.0047768,0.142738,20.9075,192.778,0.457231,0.0,0.0
464,115.75,19.6574,20.3962,155.938,97.2815,91.8991,0.00494918,0.146822,20.9018,192.708,0.508025,0.0,0.0
468,116.75,19.9947,20.7438,155.859,97.2823,92.5293,0.00509269,0.151455,20.8956,192.627,0.447094,0.0,0.0
472,117.75,20.6934,20.1778,156.527,97.2803,91.8281,0.00524783,0.156187,20.8904,192.597,0.514815,0.0,0.0
476,118.75,20.6339,20.9007,155.546,97.2967,91.649,0.00534962,0.160558,20.8858,192.507,0.533739,0.0,0.0
480,119.75,20.3462,21.6466,148.557,97.2831,92.2699,0.00550911,0.1648,20.8825,192.417,0.472227,0.0,0.0
484,120.75,20.2876,21.9668,151.9,97.2783,91.5338,0.00566581,0.169108,20.8771,192.317,0.543282,0.0,0.0
488,121.75,21.1114,21.9461,156.512,97.2723,90.6705,0.00583432,0.173258,20.8715,192.277,0.627313,0.0,0.0
492,122.75,21.129,21.8244,155.546,97.2759,91.174,0.00602424,0.177437,20.8655,192.197,0.578214,0.0,0.0
496,123.75,21.3216,22.2864,153.299,97.2843,90.5403,0.00622938,0.181641,20.8603,192.127,0.641234,0.0,0.0
500,124.75,21.4282,21.7598,153.195,97.2771,90.0865,0.00644296,0.185127,20.8552,192.067,0.68542,0.0,0.0
504,125.75,21.7941,22.5769,151.258,97.2699,90.7313,0.00663294,0.188631,20.8512,192.017,0.621109,0.0,0.0
508,126.75,21.9169,22.7798,155.387,97.2819,89.3857,0.00684155,0.191322,20.8477,191.917,0.755571,0.0,0.0
512,127.75,21.8376,22.5006,154.779,97.2711,91.0353,0.00707875,0.193991,20.8442,191.837,0.591356,0.0,0.0
516,128.75,22.0772,23.0761,150.752,97.2703,89.8667,0.00731428,0.196268,20.8403,191.737,0.706606,0.0,0.0
520,129.75,22.5821,23.378,147.378,97.2771,90.5586,0.00753739,0.198403,20.8367,191.667,0.638771,0.0,0.0
524,130.75,22.4998,23.5966,150.936,97.2687,90.0993,0.00773638,0.200303,20.8336,191.566,0.683385,0.0,0.0
528,131.75,22.4611,23.5682,152.597,97.2751,90.3549,0.00791272,0.2018,20.8314,191.456,0.658688,0.0,0.0
532,132.75,23.0404,23.9735,154.105,97.2751,89.1816,0.0080626,0.203002,20.8295,191.406,0.775354,0.0,0.0
536,133.75,23.239,24.3124,151.387,97.2923,88.8175,0.00820194,0.204158,20.8271,191.306,0.813442,0.0,0.0
540,134.75,23.3392,24.2539,152.719,97.2779,88.5143,0.00835377,0.205349,20.8251,191.266,0.842643,0.0,0.0
544,135.75,23.1078,24.1492,148.869,97.2871,87.9181,0.00849533,0.206719,20.8226,191.156,0.903815,0.0,0.0
548,136.75,23.7908,24.7927,156.443,97.2731,87.4936,0.00866552,0.208449,20.8194,191.076,0.945723,0.0,0.0
552,137.75,23.7142,24.9805,154.237,97.2815,87.9716,0.00885055,0.210303,20.8157,190.986,0.897863,0.0,0.0
556,138.75,23.9347,25.0301,154.276,97.2839,86.9527,0.00908476,0.212433,20.8126,190.926,1.00207,0.0,0.0
560,139.75,24.0006,25.1096,150.759,97.2863,86.3743,0.00927027,0.214534,20.81,190.826,1.06186,0.0,0.0
564,140.75,24.6298,25.6505,152.624,97.2971,87.1828,0.00939866,0.216094,20.8079,190.786,0.979696,0.0,0.0
568,141.75,24.4054,25.5501,155.827,97.2927,87.0284,0.00946742,0.217083,20.8065,190.686,0.995112,0.0,0.0
572,142.75,25.0263,26.2005,154.66,97.3083,89.219,0.00940659,0.21756,20.8065,190.626,0.774657,0.0,0.0
576,143.75,24.8583,26.0976,149.856,97.2951,87.5893,0.00932756,0.216904,20.8074,190.516,0.937987,0.0,0.0
580,144.75,24.9554,26.1237,155.818,97.2995,85.494,0.00927341,0.216154,20.8087,190.435,1.15451,0.0,0.0
584,145.75,24.8813,26.1085,152.976,97.2991,88.2834,0.00924939,0.214421,20.8111,190.365,0.867907,0.0,0.0
588,146.75,25.2734,26.5952,149.228,97.2903,86.3794,0.00924379,0.212671,20.8129,190.285,1.0617,0.0,0.0
592,147.75,24.9933,26.528,155.41,97.3063,86.3207,0.0092517,0.210856,20.8141,190.235,1.06923,0.0,0.0
596,148.75,25.5295,26.9624,151.966,97.2959,86.8064,0.00926372,0.209561,20.8149,190.155,1.0182,0.0,0.0
600,149.75,25.6346,26.9167,152.886,97.3039,86.2199,0.00926834,0.20892,20.8163,190.075,1.07944,0.0,0.0
604,150.75,25.685,27.0846,151.874,97.3103,85.6126,0.00926743,0.208394,20.8171,189.965,1.14312,0.0,0.0
608,151.75,25.8409,27.2101,152.98,97.3091,85.7662,0.00927583,0.207621,20.8169,189.925,1.12702,0.0,0.0
612,152.75,26.3838,27.6048,155.114,97.3079,85.872,0.0092993,0.206963,20.8168,189.825,1.11589,0.0,0.0
616,153.75,26.0077,27.6027,151.829,97.3047,84.4924,0.00938005,0.206476,20.8167,189.755,1.26016,0.0,0.0
620,154.75,26.4037,27.7663,152.627,97.3115,83.963,0.00949647,0.205959,20.8166,189.675,1.31689,0.0,0.0
624,155.75,25.8086,27.2171,153.162,97.3187,84.5971,0.00964316,0.205472,20.8166,189.605,1.2504,0.0,0.0
628,156.75,26.3695,27.7848,154.638,97.3123,84.7906,0.00978924,0.205115,20.8165,189.515,1.22942,0.0,0.0
632,157.75,27.0484,28.4944,154.653,97.3143,85.6836,0.00989557,0.204934,20.8165,189.425,1.13608,0.0,0.0
636,158.75,26.4145,27.896,153.51,97.3139,84.7008,0.0100289,0.204655,20.8165,189.344,1.23902,0.0,0.0
640,159.75,27.4247,28.8326,157.76,97.3187,83.9047,0.0101812,0.204712,20.8152,189.304,1.32375,0.0,0.0
644,160.75,27.0033,28.4719,152.424,97.3111,83.1439,0.0103395,0.204889,20.8141,189.204,1.40436,0.0,0.0
648,161.75,27.6097,29.3001,153.961,97.3231,83.7189,0.0105011,0.205112,20.8129,189.174,1.34395,0.0,0.0
652,162.75,26.8676,28.4313,152.747,97.3315,81.9497,0.0106351,0.20538,20.8117,189.094,1.53535,0.0,0.0
656,163.75,26.883,28.4521,155.466,97.3247,83.2438,0.0107255,0.205631,20.8109,189.024,1.39488,0.0,0.0
660,164.75,27.1916,28.7232,153.908,97.3171,83.1694,0.0107819,0.205834,20.8097,188.944,1.40217,0.0,0.0
664,165.75,27.9145,29.3788,154.73,97.3235,82.2933,0.0107632,0.205993,20.8097,188.864,1.49727,0.0,0.0
668,166.75,27.0187,28.5485,150.428,97.3263,83.1141,0.0107162,0.206018,20.8101,188.824,1.40895,0.0,0.0
672,167.75,27.9139,29.4955,150.416,97.3251,82.6642,0.0106466,0.2063,20.8103,188.744,1.45729,0.0,0.0
676,168.75,27.8692,29.5803,152.675,97.3331,80.7504,0.0105657,0.206826,20.8098,188.694,1.66709,0.0,0.0
680,169.75,27.7393,29.3483,152.358,97.3303,82.0369,0.0104611,0.207476,20.8085,188.614,1.52575,0.0,0.0
684,170.75,27.6284,29.2385,148.055,97.3279,81.3267,0.0103957,0.208037,20.8074,188.554,1.60314,0.0,0.0
688,171.75,27.7616,29.5059,152.062,97.3247,79.7727,0.0103076,0.208447,20.8063,188.484,1.77504,0.0,0.0
692,172.75,28.0693,29.6598,151.039,97.3311,81.2948,0.0102252,0.208717,20.8056,188.424,1.60693,0.0,0.0
696,173.75,28.0733,29.563,148.415,97.3351,80.7504,0.0101226,0.208801,20.8052,188.364,1.66727,0.0,0.0
700,174.75,28.0818,29.7649,150.926,97.3291,80.7785,0.00998259,0.209057,20.8049,188.283,1.66362,0.0,0.0
704,175.75,28.063,29.7903,155.74,97.3299,82.2036,0.00983679,0.20962,20.8045,188.253,1.5076,0.0,0.0
708,176.75,28.2717,30,150.871,97.3383,80.912,0.0096879,0.210217,20.8035,188.173,1.64972,0.0,0.0
712,177.75,28.353,30.0453,151.757,97.3363,81.7332,0.00957733,0.210666,20.8029,188.123,1.5594,0.0,0.0
716,178.75,28.0318,29.6569,152.999,97.3371,81.7469,0.00940172,0.21088,20.8023,188.043,1.55799,0.0,0.0
720,179.75,28.4913,30.2314,148.539,97.3423,81.9582,0.00923098,0.21083,20.8019,187.993,1.53542,0.0,0.0
724,180.75,28.4444,30.1815,152.728,97.3323,81.9314,0.0090538,0.210614,20.8032,187.933,1.53742,0.0,0.0
728,181.75,28.8468,30.6163,148.115,97.3403,82.56,0.00886707,0.210246,20.8041,187.873,1.46994,0.0,0.0
732,182.75,28.8178,30.4987,150.819,97.3323,80.4727,0.00868406,0.209895,20.8047,187.813,1.69776,0.0,0.0
736,183.75,28.8989,30.437,153.479,97.3483,82.9819,0.00851854,0.209722,20.8051,187.773,1.42518,0.0,0.0
740,184.75,28.9028,30.6783,151.537,97.3463,80.9716,0.00837546,0.209785,20.8049,187.703,1.64389,0.0,0.0
744,185.75,28.9203,30.6732,152.062,97.3459,83.2485,0.00824055,0.210112,20.8044,187.653,1.39632,0.0,0.0
748,186.75,29.1076,30.7655,153.621,97.3459,83.6538,0.00810116,0.210433,20.8041,187.593,1.35298,0.0,0.0
752,187.75,29.0262,30.6648,152.284,97.3495,81.6227,0.00797595,0.210886,20.8039,187.543,1.5727,0.0,0.0
756,188.75,29.0426,30.8282,153.385,97.3495,83.4344,0.00785344,0.211263,20.8037,187.473,1.37675,0.0,0.0
760,189.75,29.0164,30.6799,155.894,97.3467,82.6608,0.00773108,0.211236,20.8036,187.423,1.45964,0.0,0.0
764,190.75,29.0466,30.8128,151.407,97.3427,82.116,0.00761754,0.210996,20.8036,187.373,1.51829,0.0,0.0
768,191.75,29.1472,30.8968,154.531,97.3471,83.4484,0.00750789,0.210477,20.8035,187.313,1.37503,0.0,0.0
772,192.75,29.2175,30.8482,152.58,97.3551,82.1224,0.00739697,0.210116,20.8035,187.283,1.51873,0.0,0.0
776,193.75,28.8789,30.5442,152.646,97.3632,83.0406,0.00730166,0.20981,20.8043,187.223,1.42023,0.0,0.0
780,194.75,29.5442,31.0063,152.195,97.3507,83.7554,0.00721652,0.209655,20.8048,187.172,1.34258,0.0,0.0
784,195.75,29.1472,31.3622,149.365,97.3487,82.3912,0.00709695,0.209867,20.8051,187.132,1.48898,0.0,0.0
788,196.75,29.3482,31.2085,150.893,97.3515,82.9955,0.0069558,0.210106,20.8056,187.082,1.42401,0.0,0.0
792,197.75,29.2633,31.0051,150.271,97.3571,83.072,0.00679265,0.209913,20.8065,187.022,1.41629,0.0,0.0
796,198.75,29.1459,31.2393,151.51,97.3563,83.1971,0.00665612,0.209375,20.8073,186.992,1.4028,0.0,0.0
800,199.75,29.5304,31.2222,153.171,97.3547,84.6647,0.00655561,0.208718,20.8083,186.942,1.24657,0.0,0.0
804,200.75,29.0579,30.7964,151.393,97.3531,84.64,0.00649266,0.208367,20.8093,186.892,1.24903,0.0,0.0
808,201.75,29.5109,31.4699,148.317,97.3499,84.6443,0.00645618,0.20803,20.8105,186.852,1.24828,0.0,0.0
812,202.75,29.1407,31.2521,152.722,97.3615,84.9037,0.00642091,0.207568,20.8113,186.762,1.22204,0.0,0.0
816,203.75,29.8701,31.7489,153.205,97.3704,84.3942,0.00638188,0.207096,20.8118,186.722,1.27656,0.0,0.0
820,204.75,29.7923,31.6518,151.258,97.3736,84.5001,0.0063268,0.20655,20.8121,186.702,1.26566,0.0,0.0
824,205.75,29.8899,31.6726,151.835,97.372,84.8072,0.00627479,0.205989,20.8131,186.672,1.23314,0.0,0.0
828,206.75,29.935,31.9248,152.392,97.376,84.1093,0.0062452,0.205445,20.8138,186.642,1.30726,0.0,0.0
832,207.75,30.0149,31.7975,147.227,97.3708,84.8777,0.0062462,0.204687,20.8155,186.572,1.22561,0.0,0.0
836,208.75,29.7567,31.7183,153.005,97.3848,85.2609,0.00625937,0.203735,20.8172,186.542,1.18669,0.0,0.0
840,209.75,29.9002,31.7115,156.752,97.388,86.3505,0.0062696,0.202585,20.8189,186.482,1.07364,0.0,0.0
844,210.75,29.4268,31.41,153.105,97.392,85.1116,0.0062554,0.201567,20.8208,186.432,1.20299,0.0,0.0
848,211.75,29.8817,31.6585,153.647,97.388,84.919,0.00618715,0.199916,20.8229,186.392,1.22285,0.0,0.0
852,212.75,29.9069,31.8788,151.819,97.3952,85.9405,0.00609651,0.19833,20.8246,186.332,1.11678,0.0,0.0
856,213.75,30.1269,31.9724,156.964,97.396,85.0262,0.00599647,0.197154,20.8262,186.322,1.21232,0.0,0.0
860,214.75,29.949,31.8083,150.014,97.4016,85.6271,0.00592142,0.19564,20.8278,186.272,1.14998,0.0,0.0
864,215.75,29.8063,31.7558,153.566,97.4052,85.4825,0.00587521,0.19417,20.83,186.222,1.16539,0.0,0.0
868,216.75,30.084,32.0765,159.054,97.4092,85.5552,0.00584942,0.192829,20.832,186.202,1.15817,0.0,0.0
872,217.75,29.8987,31.8285,154.171,97.4012,85.9401,0.00583024,0.191473,20.8339,186.152,1.11737,0.0,0.0
876,218.75,29.9279,31.9087,153.789,97.4124,86.248,0.00581587,0.190074,20.836,186.132,1.08648,0.0,0.0
880,219.75,29.7292,31.7405,154.547,97.4152,87.4864,0.00580418,0.188664,20.8382,186.081,0.959489,0.0,0.0
884,220.75,29.8582,31.7581,157.119,97.416,87.1976,0.0057889,0.187261,20.8404,186.051,0.989071,0.0,0.0
888,221.75,29.7059,31.6961,150.187,97.418,86.8213,0.00574199,0.186135,20.8425,186.011,1.02786,0.0,0.0
892,222.75,29.9017,31.8901,156.086,97.422,85.9826,0.00568287,0.184947,20.8444,185.981,1.11486,0.0,0.0
896,223.75,29.8841,31.79,156.676,97.4328,86.3671,0.00551991,0.183721,20.8456,185.911,1.07603,0.0,0.0
900,224.75,29.6773,31.7081,153.6,97.4268,85.6386,0.00532957,0.182574,20.8469,185.871,1.15109,0.0,0.0
904,225.75,29.3924,31.1409,159.983,97.436,87.9636,0.00514791,0.181443,20.8485,185.831,0.912847,0.0,0.0
908,226.75,29.8127,31.7862,150.359,97.4332,87.5578,0.00498152,0.18022,20.8504,185.821,0.953852,0.0,0.0
912,227.75,29.5193,31.5518,157.052,97.4464,88.0091,0.004862,0.178828,20.8524,185.771,0.909183,0.0,0.0
916,228.75,29.3257,31.1988,156.022,97.4492,89.1101,0.00479927,0.177425,20.8541,185.751,0.798469,0.0,0.0
920,229.75,29.6683,31.537,153.28,97.4532,88.9166,0.00477119,0.176217,20.856,185.711,0.818238,0.0,0.0
924,230.75,29.4806,31.3736,155.742,97.4616,87.7063,0.00478429,0.175313,20.8572,185.681,0.941338,0.0,0.0
928,231.75,29.5951,31.449,154.539,97.4656,86.8515,0.00478387,0.174327,20.8587,185.661,1.02912,0.0,0.0
932,232.75,29.0774,31.0607,153.444,97.4824,88.5879,0.00475523,0.173188,20.8603,185.611,0.853974,0.0,0.0
936,233.75,29.7987,31.6627,158.434,97.47,88.7065,0.00470753,0.171868,20.8616,185.601,0.840892,0.0,0.0
940,234.75,29.4779,31.392,150.803,97.47,89.2743,0.00466201,0.170316,20.8642,185.561,0.783947,0.0,0.0
944,235.75,29.4969,31.6136,154.141,97.4776,88.1371,0.00461142,0.168927,20.867,185.521,0.899069,0.0,0.0
948,236.75,29.0282,30.935,156.327,97.4864,88.8711,0.00457823,0.167628,20.8696,185.491,0.82585,0.0,0.0
952,237.75,29.2164,31.2361,152.796,97.4868,88.7218,0.00456176,0.166303,20.8714,185.461,0.84089,0.0,0.0
956,238.75,29.2211,31.1431,157.921,97.4932,89.1871,0.00454353,0.165133,20.8728,185.411,0.794793,0.0,0.0
960,239.75,29.0808,31.0482,154.317,97.4976,87.7573,0.0045118,0.16412,20.8746,185.411,0.939444,0.0,0.0
964,240.75,29.3202,31.2661,155.489,97.508,89.1403,0.00447319,0.163197,20.8765,185.351,0.800832,0.0,0.0
968,241.75,29.2085,31.2537,153.546,97.512,89.2037,0.00445228,0.162045,20.8786,185.351,0.794855,0.0,0.0
972,242.75,29.3953,31.3381,154.388,97.5016,89.8195,0.00444198,0.160691,20.8805,185.331,0.732498,0.0,0.0
976,243.75,29.3574,31.1366,157.122,97.5272,90.3187,0.00442885,0.159455,20.8826,185.281,0.685366,0.0,0.0
980,244.75,29.1728,31.0424,155.002,97.5353,89.4074,0.00436538,0.158203,20.8844,185.271,0.77662,0.0,0.0
984,245.75,29.2015,30.9734,159.432,97.53125,89.7944,0.00426125,0.157104,20.8859,185.231,0.737703,0.0,0.0
988,246.75,28.975,30.7248,155.082,97.5473,90.4212,0.00415656,0.156198,20.8872,185.241,0.677074,0.0,0.0
992,247.75,28.8372,30.7104,156.978,97.5501,90.4476,0.00403879,0.155272,20.889,185.201,0.674729,0.0,0.0
996,248.75,29.0209,30.7766,156.384,97.5593,91.3586,0.00393404,0.154251,20.891,185.181,0.586126,0.0,0.0
1000,249.75,28.8782,30.7513,157.024,97.5633,90.4931,0.00385391,0.153192,20.8926,185.151,0.671448,0.0,0.0
1004,250.75,28.5935,30.4897,153.802,97.5633,90.9018,0.00379632,0.152083,20.8937,185.111,0.631228,0.0,0.0
1008,251.75,28.7768,30.6831,152.238,97.5753,90.7636,0.00375927,0.151046,20.8955,185.101,0.645908,0.0,0.0
1012,252.75,28.504,30.3823,154.53,97.5841,91.7052,0.00372543,0.150158,20.8969,185.071,0.554598,0.0,0.0
1016,253.75,28.4975,30.2842,156.736,97.5825,91.3224,0.00366519,0.149371,20.8985,185.04,0.591782,0.0,0.0
1020,254.75,28.5767,30.237,159.112,97.5841,91.7664,0.00358989,0.148428,20.9001,185,0.548639,0.0,0.0
1024,255.75,28.3409,30.1624,158.22,97.5925,92.1198,0.00350877,0.147238,20.9015,184.99,0.515101,0.0,0.0
1028,256.75,28.2708,30.0804,154.408,97.5945,92.4094,0.00341575,0.146216,20.9025,184.96,0.487267,0.0,0.0
1032,257.75,28.2423,30.2759,156.955,97.6033,92.1636,0.00335472,0.145476,20.9031,184.95,0.511845,0.0,0.0
1036,258.75,28.1985,29.9481,158.086,97.6029,92.0114,0.00328118,0.144878,20.9045,184.94,0.526565,0.0,0.0
1040,259.75,28.0779,30.0697,158.682,97.6257,93.4475,0.00322177,0.144303,20.9062,184.91,0.390413,0.0,0.0
1044,260.75,28.2868,29.9085,157.906,97.6265,92.5774,0.00316333,0.143599,20.9081,184.88,0.473984,0.0,0.0
1048,261.75,28.4005,30.2385,154.696,97.6217,92.2384,0.00311111,0.142775,20.9098,184.88,0.506284,0.0,0.0
1052,262.75,28.1673,30.1875,158.585,97.6225,92.5357,0.00306617,0.141877,20.9111,184.86,0.477637,0.0,0.0
1056,263.75,28.0243,29.9334,156.304,97.6373,92.6642,0.00303369,0.140996,20.912,184.83,0.466611,0.0,0.0
1060,264.75,27.5355,29.4224,153.044,97.6469,93.482,0.00301238,0.140034,20.9133,184.82,0.389062,0.0,0.0
1064,265.75,28.0329,29.9587,153.882,97.6493,93.4475,0.00299839,0.139326,20.9147,184.81,0.392571,0.0,0.0
1068,266.75,28.0093,29.9081,158.292,97.6553,93.7622,0.00299625,0.138528,20.9163,184.78,0.363112,0.0,0.0
1072,267.75,28.0794,29.6473,154.86,97.6545,93.3119,0.00300377,0.137522,20.9182,184.75,0.406014,0.0,0.0
1076,268.75,27.6274,29.1879,157.373,97.6593,94.2666,0.00301235,0.136315,20.9203,184.73,0.315592,0.0,0.0
1080,269.75,27.8787,29.6484,159.802,97.6677,93.6721,0.00302373,0.135074,20.922,184.69,0.372833,0.0,0.0
1084,270.75,27.4862,29.6732,154.24,97.6797,93.7588,0.00304988,0.134074,20.9233,184.68,0.365667,0.0,0.0
1088,271.75,27.2925,29.1429,158.738,97.6805,94.819,0.00308102,0.133364,20.9248,184.66,0.265377,0.0,0.0
1092,272.75,27.4587,28.9698,154.804,97.6978,94.1084,0.00312601,0.132846,20.9257,184.66,0.334096,0.0,0.0
1096,273.75,27.6039,29.4477,155.952,97.6937,94.7684,0.00313989,0.132302,20.9264,184.64,0.27135,0.0,0.0
1100,274.75,27.345,28.9982,159.086,97.6965,94.6804,0.00310504,0.131563,20.9277,184.61,0.2799,0.0,0.0
1104,275.75,26.9469,28.7582,159.204,97.7062,95.7274,0.00304398,0.130635,20.9292,184.58,0.182615,0.0,0.0
1108,276.75,27.0893,28.788,156.334,97.7142,94.4431,0.00299156,0.129633,20.9311,184.59,0.303907,0.0,0.0
1112,277.75,26.8594,28.7813,155.786,97.7306,95.0827,0.00297156,0.128813,20.9331,184.57,0.245161,0.0,0.0
1116,278.75,26.8017,28.4964,156.987,97.7306,95.226,0.00297113,0.127968,20.9344,184.55,0.231718,0.0,0.0
1120,279.75,27.2518,29.0466,156.81,97.7314,95.1291,0.00298881,0.127082,20.9352,184.53,0.240884,0.0,0.0
1124,280.75,26.648,28.3836,157.568,97.7358,96.0757,0.00299409,0.12622,20.9358,184.51,0.152903,0.0,0.0
1128,281.75,26.9282,28.4692,159.174,97.741,96.5133,0.0029766,0.125399,20.9361,184.5,0.112815,0.0,0.0
1132,282.75,26.6714,28.3421,157.643,97.7466,95.9065,0.00294447,0.124659,20.9362,184.49,0.169628,0.0,0.0
1136,283.75,26.7186,28.3909,154.672,97.7682,95.7487,0.00291546,0.12412,20.9367,184.47,0.186298,0.0,0.0
1140,284.75,26.753,28.487,157.154,97.7646,96.2539,0.00289374,0.123333,20.9382,184.46,0.138996,0.0,0.0
1144,285.75,26.014,27.7371,159.581,97.7742,95.872,0.00288265,0.122486,20.9392,184.44,0.175356,0.0,0.0
1148,286.75,26.7873,28.4669,154.337,97.7786,96.373,0.0028947,0.121509,20.9398,184.41,0.129239,0.0,0.0
1152,287.75,26.5028,28.2461,155.657,97.7858,96.2913,0.0029289,0.120473,20.9407,184.41,0.137463,0.0,0.0
1156,288.75,26.5383,28.2471,155.898,97.7982,96.6975,0.00297107,0.119674,20.9416,184.37,0.101028,0.0,0.0
1160,289.75,26.3774,28.1511,157.929,97.797,97.0602,0.0030078,0.119042,20.9426,184.35,0.0674962,0.0,0.0
1164,290.75,26.4804,27.9799,158.938,97.7978,96.7902,0.00303702,0.118373,20.9439,184.36,0.0924377,0.0,0.0
1168,291.75,26.265,27.8959,158.633,97.8146,96.4823,0.00305549,0.11768,20.9455,184.35,0.12241,0.0,0.0
1172,292.75,26.1887,27.8664,156.829,97.8086,96.3913,0.00306461,0.116895,20.9472,184.31,0.130285,0.0,0.0
1176,293.75,26.1183,27.8548,155.917,97.8378,96.7532,0.00307044,0.116024,20.9483,184.29,0.099503,0.0,0.0
1180,294.75,25.8578,27.4094,156.005,97.8262,96.5044,0.00307006,0.115225,20.949,184.3,0.121423,0.0,0.0
1184,295.75,25.861,27.3162,157.533,97.8266,96.652,0.00303279,0.114574,20.9494,184.28,0.107822,0.0,0.0
1188,296.75,25.8322,27.3357,157.907,97.8306,96.3807,0.002958,0.113776,20.9502,184.25,0.133278,0.0,0.0
1192,297.75,25.7997,27.3514,155.312,97.8322,97.0671,0.002877,0.113262,20.9515,184.25,0.0700841,0.0,0.0
1196,298.75,25.5776,27.1613,156.949,97.8402,96.6277,0.00282696,0.112552,20.9527,184.23,0.111302,0.0,0.0
1200,299.75,25.6982,27.342,159.642,97.8402,97.4069,0.00281594,0.111826,20.9535,184.22,0.039623,0.0,0.0
1204,300.75,25.4168,26.9479,157.415,97.8478,97.1721,0.00287235,0.111108,20.9548,184.21,0.0618543,0.0,0.0
1208,301.75,25.2968,26.7839,159.638,97.8494,97.369,0.00295995,0.110529,20.9556,184.21,0.0439322,0.0,0.0
1212,302.75,25.5325,27.1117,157.286,97.853,96.8344,0.00304434,0.109947,20.957,184.18,0.0933991,0.0,0.0
1216,303.75,24.8644,26.5616,155.327,97.8454,96.7626,0.00309971,0.109206,20.9579,184.17,0.0993325,0.0,0.0
1220,304.75,25.1484,26.713,158.435,97.8466,97.1206,0.00310767,0.108244,20.9586,184.15,0.0664729,0.0,0.0
1224,305.75,25.4129,26.7903,161.273,97.8546,96.8157,0.00307954,0.107233,20.9593,184.12,0.09527,0.0,0.0
1228,306.75,25.2473,26.6234,160.917,97.8486,96.6958,0.00303577,0.106343,20.9598,184.1,0.105786,0.0,0.0
1232,307.75,24.8244,26.3756,158.274,97.8546,96.8017,0.0030038,0.105599,20.9601,184.1,0.0965637,0.0,0.0
1236,308.75,25.1834,26.626,158.72,97.8615,96.3904,0.00300038,0.10485,20.9607,184.11,0.135185,0.0,0.0
1240,309.75,25.1748,26.4741,158.2,97.8711,96.3181,0.00299722,0.104087,20.9625,184.1,0.142758,0.0,0.0
1244,310.75,25.1187,26.5236,163.124,97.8538,96.3755,0.00299884,0.102785,20.9645,184.1,0.135869,0.0,0.0
1248,311.75,24.4614,25.9105,158.103,97.8578,96.3734,0.00301646,0.102096,20.9664,184.08,0.136431,0.0,0.0
1252,312.75,24.7935,26.1204,152.911,97.8639,96.5159,0.00304809,0.101332,20.9676,184.05,0.123794,0.0,0.0
1256,313.75,24.7787,26.2807,159.322,97.8522,96.7443,0.003091,0.100579,20.9692,184.04,0.10164,0.0,0.0
1260,314.75,24.3389,25.8082,156.395,97.8478,96.8166,0.00315612,0.0998586,20.9703,184.02,0.0945709,0.0,0.0
1264,315.75,24.7846,25.9727,156.644,97.855,96.4423,0.00320703,0.0993262,20.9714,184.01,0.129796,0.0,0.0
1268,316.75,24.5472,25.9589,155.685,97.8634,96.7421,0.00320541,0.09878,20.9725,183.99,0.102859,0.0,0.0
1272,317.75,24.2103,25.8714,160.392,97.8606,97.2019,0.00313939,0.0981069,20.9734,183.99,0.0602893,0.0,0.0
1276,318.75,23.5126,25.491,160.65,97.8554,95.0831,0.00303656,0.0971232,20.9749,183.98,0.25652,0.0,0.0
1280,319.75,23.8166,24.9012,155.93,97.845,95.7168,0.00293776,0.0961568,20.9764,183.969,0.196284,0.0,0.0
1284,320.75,23.5399,25.0354,156.74,97.8602,96.4806,0.00286696,0.0952212,20.9774,183.98,0.12673,0.0,0.0
1288,321.75,23.279,25.1251,164.009,97.8446,96.1374,0.00283833,0.0944063,20.978,183.949,0.157112,0.0,0.0
1292,322.75,23.5487,25.0109,159.042,97.8374,96.5423,0.00285967,0.0937712,20.9791,183.959,0.118946,0.0,0.0
1296,323.75,23.3524,25.0308,159.408,97.833,96.4538,0.00288929,0.0932951,20.9799,183.949,0.126726,0.0,0.0
1300,324.75,23.4376,24.6931,157.594,97.845,96.0647,0.00287709,0.0930084,20.9805,183.919,0.163904,0.0,0.0
1304,325.75,23.5818,24.5186,157.246,97.8354,95.8448,0.00281142,0.0928679,20.9809,183.899,0.18348,0.0,0.0
1308,326.75,22.7191,24.0459,159.6,97.8358,96.2896,0.00272003,0.0927578,20.9811,183.889,0.142186,0.0,0.0
1312,327.75,23.5737,24.4184,160.184,97.8378,96.5975,0.00265063,0.0926069,20.9813,183.889,0.113873,0.0,0.0
1316,328.75,22.997,24.5144,160.553,97.8222,96.1748,0.00262232,0.0924975,20.9812,183.859,0.151594,0.0,0.0
1320,329.75,22.6378,24.71,162.047,97.8182,97.4528,0.00264476,0.0924435,20.9809,183.849,0.033408,0.0,0.0
1324,330.75,22.9615,24.5666,159.389,97.8178,96.3704,0.00269864,0.0924372,20.9807,183.839,0.133056,0.0,0.0
1328,331.75,22.4588,24.6099,159.448,97.817,96.2008,0.00276397,0.0925044,20.9803,183.839,0.148713,0.0,0.0
1332,332.75,23.5294,23.5869,158.16,97.8034,96.2752,0.00285858,0.0925736,20.9793,183.819,0.140568,0.0,0.0
1336,333.75,22.9509,24.059,157.276,97.8126,96.498,0.00292602,0.0925688,20.9789,183.799,0.120772,0.0,0.0
1340,334.75,22.5647,24.3471,161.818,97.7998,97.07,0.00299975,0.0925405,20.9786,183.789,0.066852,0.0,0.0
1344,335.75,22.9406,24.1968,161.921,97.7958,96.9407,0.00305929,0.0927876,20.9784,183.779,0.0783832,0.0,0.0
1348,336.75,22.5145,23.5792,160.63,97.8114,96.5882,0.0030671,0.0930029,20.9782,183.759,0.112327,0.0,0.0
1352,337.75,22.7078,23.6907,159.889,97.7942,96.4602,0.00304234,0.0932438,20.9781,183.729,0.122593,0.0,0.0
1356,338.75,22.3689,23.2141,161.117,97.7882,96.1612,0.00301278,0.0934356,20.978,183.739,0.149753,0.0,0.0
1360,339.75,22.7097,23.7364,163.555,97.7842,96.3887,0.00299724,0.0935761,20.978,183.729,0.128294,0.0,0.0
1364,340.75,22.8242,23.4819,156.148,97.7826,96.9552,0.00300428,0.0937039,20.978,183.719,0.0758452,0.0,0.0
1368,341.75,22.4997,23.7472,155.598,97.781,96.9722,0.00302549,0.0937877,20.978,183.719,0.0741338,0.0,0.0
1372,342.75,22.4754,23.587,157.153,97.7838,96.7732,0.00307598,0.0938678,20.9779,183.709,0.0927273,0.0,0.0
1376,343.75,22.2942,23.61,156.443,97.7862,96.3079,0.00312818,0.0939456,20.9779,183.699,0.135961,0.0,0.0
1380,344.75,22.6413,23.4247,161.19,97.7742,96.8434,0.00317035,0.0939767,20.9779,183.679,0.0853806,0.0,0.0
1384,345.75,22.3134,23.6427,160.041,97.7822,96.7013,0.00318685,0.0939502,20.9779,183.679,0.0992126,0.0,0.0
1388,346.75,21.9601,23.1206,158.883,97.791,97.1538,0.00318205,0.093913,20.9779,183.669,0.0583487,0.0,0.0
1392,347.75,21.9907,23.4959,158.654,97.7586,97.076,0.00315657,0.0939692,20.9779,183.639,0.0625422,0.0,0.0
1396,348.75,22.156,23.7728,162.342,97.7498,97.2406,0.00312948,0.0940623,20.9779,183.629,0.046618,0.0,0.0
1400,349.75,21.9963,23.2565,155.141,97.747,96.4512,0.00308638,0.0941234,20.9779,183.629,0.119108,0.0,0.0
1404,350.75,22.1246,22.7087,158.74,97.7602,97.5765,0.00309679,0.0941635,20.9779,183.609,0.0167828,0.0,0.0
1408,351.75,22.0692,23.0028,166.496,97.755,96.9399,0.0031276,0.0941396,20.9779,183.599,0.0747342,0.0,0.0
1412,352.75,22.1117,22.9227,158.315,97.7614,96.9458,0.00315387,0.0942427,20.9779,183.589,0.0747711,0.0,0.0
1416,353.75,22.0567,23.2609,156.643,97.7638,97.2912,0.00315477,0.0943423,20.9779,183.579,0.0432525,0.0,0.0
1420,354.75,21.6917,23.108,160.467,97.7482,97.181,0.00313674,0.0944831,20.9779,183.569,0.0519384,0.0,0.0
1424,355.75,21.9385,22.8283,156.166,97.7434,97.6318,0.00311792,0.0945504,20.9779,183.559,0.0101927,0.0,0.0
1428,356.75,21.7613,22.9462,158.705,97.7326,96.8944,0.00314591,0.0945799,20.9778,183.539,0.076878,0.0,0.0
1432,357.75,21.9575,22.9486,156.455,97.7434,97.2606,0.00320672,0.0945635,20.9775,183.529,0.044199,0.0,0.0
1436,358.75,22.0365,23.2725,158.676,97.733,96.6248,0.0032712,0.0946283,20.9774,183.529,0.101787,0.0,0.0
1440,359.75,21.8135,23.1616,158.543,97.7194,96.7813,0.00329786,0.0947091,20.9773,183.519,0.0860982,0.0,0.0
1444,360.75,22.0046,22.8837,158.175,97.7178,97.2457,0.00328407,0.094812,20.9772,183.509,0.043226,0.0,0.0
1448,361.75,21.3627,23.0215,159.889,97.7166,97.5655,0.00324599,0.094918,20.9771,183.479,0.0138108,0.0,0.0
1452,362.75,21.6347,23.042,159.417,97.7214,97.3022,0.00320497,0.0950518,20.9771,183.489,0.0383655,0.0,0.0
1456,363.75,21.5597,22.8764,156.24,97.7186,96.999,0.00315275,0.0951733,20.9771,183.469,0.065967,0.0,0.0
1460,364.75,21.6251,22.7299,158.405,97.7214,97.1666,0.00308916,0.0952237,20.9771,183.459,0.050818,0.0,0.0
1464,365.75,21.0952,22.424,154.089,97.7178,96.5074,0.00303982,0.0952148,20.9771,183.439,0.111247,0.0,0.0
1468,366.75,21.801,22.7545,155.063,97.7278,97.0696,0.00295828,0.0952802,20.9771,183.439,0.0603146,0.0,0.0
1472,367.75,21.5999,22.9271,158.187,97.717,97.0734,0.00288913,0.0953808,20.9773,183.429,0.0589755,0.0,0.0
1476,368.75,21.8626,22.3999,161.204,97.725,96.5197,0.00285956,0.0954468,20.9775,183.419,0.110764,0.0,0.0
1480,369.75,20.8344,21.7398,161.125,97.7254,96.9714,0.00289815,0.0954894,20.9777,183.419,0.0691318,0.0,0.0
1484,370.75,21.4318,22.319,162.806,97.7362,97.1338,0.00294962,0.0956313,20.9777,183.419,0.055179,0.0,0.0
1488,371.75,21.3967,22.4186,157.829,97.7246,96.8765,0.00296688,0.0958951,20.9778,183.399,0.0777925,0.0,0.0
1492,372.75,21.5367,22.3784,158.234,97.7222,97.2508,0.002973,0.0960836,20.977,183.379,0.0431603,0.0,0.0
1496,373.75,20.9588,21.7718,159.718,97.721,97.07,0.00293243,0.0961465,20.9765,183.359,0.059653,0.0,0.0
1500,374.75,21.0121,22.3764,163.333,97.7146,96.9216,0.00289689,0.0961698,20.9762,183.339,0.0727261,0.0,0.0
1504,375.75,21.0586,22.2095,161.305,97.709,97.1602,0.00288694,0.0961852,20.976,183.339,0.05027,0.0,0.0
1508,376.75,21.5156,22.6176,156.337,97.707,97.0062,0.00289643,0.0961953,20.9759,183.339,0.064241,0.0,0.0
1512,377.75,21.45,22.2903,157.201,97.6998,97.4064,0.00291924,0.0962019,20.9759,183.319,0.0268376,0.0,0.0
1516,378.75,20.9099,22.6268,159.276,97.7058,96.6541,0.00293097,0.0961696,20.9761,183.309,0.096591,0.0,0.0
1520,379.75,21.1841,22.3,161.941,97.697,97.5646,0.00292783,0.0960592,20.9762,183.309,0.0120971,0.0,0.0
1524,380.75,21.3602,22.0386,157.16,97.6769,97.2559,0.00291154,0.0959881,20.9763,183.299,0.0385594,0.0,0.0
1528,381.75,21.434,22.3151,159.789,97.6717,97.5463,0.00290604,0.0960409,20.9763,183.279,0.0114669,0.0,0.0
1532,382.75,21.1106,22.4823,160.617,97.6673,97.0092,0.00291509,0.0961816,20.9764,183.279,0.0603474,0.0,0.0
1536,383.75,21.0665,22.2461,158.955,97.6649,97.2444,0.00294563,0.096315,20.9764,183.269,0.0385159,0.0,0.0
1540,384.75,20.7468,22.2113,159.208,97.6533,97.696,0.00296701,0.0964277,20.9764,183.249,-0.00390365,0.0,0.0
1544,385.75,21.0905,22.2792,157.259,97.6457,96.7277,0.00296381,0.0965209,20.9764,183.239,0.0843129,0.0,0.0
1548,386.75,21.6099,22.441,157.537,97.6377,97.7003,0.0029592,0.0965713,20.9764,183.209,-0.0057193,0.0,0.0
1552,387.75,20.9982,22.1975,159.22,97.6385,97.1198,0.00298633,0.0965582,20.9765,183.209,0.0475451,0.0,0.0
1556,388.75,20.8124,22.0846,161.147,97.6325,96.3411,0.00305283,0.0965748,20.9764,183.179,0.118849,0.0,0.0
1560,389.75,21.1001,22.2025,158.613,97.6161,97.4502,0.00311645,0.0966035,20.9761,183.179,0.0151801,0.0,0.0
1564,390.75,21.2859,22.0793,156.789,97.6265,97.4553,0.00318053,0.0966207,20.9759,183.159,0.0156645,0.0,0.0
1568,391.75,20.9418,21.9535,159.399,97.6157,97.6399,0.00322704,0.0965564,20.9758,183.149,-0.00221236,0.0,0.0
1572,392.75,21.3094,22.074,159.293,97.6273,96.3509,0.00326649,0.096435,20.9757,183.149,0.117467,0.0,0.0
1576,393.75,21.2967,21.7556,162.048,97.6101,97.7875,0.00329766,0.0963618,20.9757,183.129,-0.0162047,0.0,0.0
1580,394.75,21.4629,22.2683,159.417,97.6065,96.8957,0.00331425,0.0963656,20.9757,183.129,0.0652392,0.0,0.0
1584,395.75,21.0666,22.3385,155.434,97.6025,96.5299,0.00331851,0.096454,20.9756,183.109,0.0986265,0.0,0.0
1588,396.75,20.6356,21.8581,157.771,97.5953,97.1904,0.00330863,0.0965478,20.9754,183.099,0.0371079,0.0,0.0
1592,397.75,21.0294,22.0486,161.05,97.5937,97.1177,0.00331095,0.0966093,20.9752,183.089,0.0436421,0.0,0.0
1596,398.75,20.8562,21.9406,158.916,97.6001,97.594,0.0033361,0.0965703,20.975,183.069,0.000559653,0.0,0.0
1600,399.75,20.8031,22.0057,162.178,97.5701,97.3988,0.00337594,0.0965095,20.9747,183.069,0.0156846,0.0,0.0
1604,400.75,21.3134,22.0539,158.295,97.5673,96.8633,0.00341299,0.0964584,20.9745,183.059,0.0646297,0.0,0.0
1608,401.75,20.3016,21.4755,159.218,97.5657,96.9348,0.00343613,0.0965993,20.9743,183.039,0.0579026,0.0,0.0
1612,402.75,21.1452,21.7843,160.468,97.5749,97.2121,0.00342407,0.0966918,20.9742,183.029,0.033249,0.0,0.0
1616,403.75,21.2304,22.0133,155.347,97.5569,97.4392,0.00338192,0.0967776,20.9742,183.019,0.0107751,0.0,0.0
1620,404.75,20.5667,21.4469,159.19,97.5581,97.1576,0.00330816,0.0968591,20.9742,182.999,0.0367105,0.0,0.0
1624,405.75,20.352,21.7755,159.595,97.5593,97.1215,0.00324329,0.0968874,20.9741,182.999,0.040142,0.0,0.0
1628,406.75,21.029,21.4864,160.876,97.5517,97.0071,0.00319915,0.0969853,20.9741,182.979,0.0499663,0.0,0.0
1632,407.75,21.2639,22.2557,164.204,97.5561,97.4902,0.00317018,0.0970114,20.9741,182.979,0.00602772,0.0,0.0
1636,408.75,21.1965,22.0278,157.729,97.5469,96.9522,0.00315325,0.096943,20.9741,182.969,0.0545762,0.0,0.0
1640,409.75,20.4984,21.8219,158.071,97.5425,97.366,0.0031533,0.0968279,20.9743,182.959,0.0161594,0.0,0.0
1644,410.75,20.8219,21.4672,161.895,97.5385,97.2478,0.00314347,0.0967142,20.9745,182.939,0.0266371,0.0,0.0
1648,411.75,20.8363,21.7724,157.555,97.5521,96.9773,0.00311177,0.0966456,20.9747,182.939,0.0527423,0.0,0.0
1652,412.75,21.181,21.6581,154.935,97.5365,97.5872,0.00307982,0.0966597,20.9747,182.919,-0.00463977,0.0,0.0
1656,413.75,20.2474,21.6574,160.321,97.5357,97.2146,0.00304171,0.0967582,20.9748,182.919,0.0294267,0.0,0.0
1660,414.75,21.3187,22.0652,159.241,97.5288,96.7979,0.00302506,0.0968824,20.9749,182.919,0.0671509,0.0,0.0
1664,415.75,20.9212,21.774,156.676,97.5216,97.0615,0.00303198,0.0969592,20.9749,182.899,0.0422115,0.0,0.0
1668,416.75,21.4185,21.8758,161.111,97.5156,96.7672,0.00304919,0.0970302,20.9749,182.889,0.0687654,0.0,0.0
1672,417.75,20.4973,22.1331,161.396,97.5164,96.7953,0.00308158,0.0971165,20.9749,182.868,0.06625,0.0,0.0
1676,418.75,20.7727,22.054,159.714,97.5048,97.5714,0.00311631,0.0972631,20.9749,182.848,-0.00609408,0.0,0.0
1680,419.75,20.8807,21.8561,160.212,97.51,97.6276,0.0031581,0.0973807,20.9749,182.858,-0.0107519,0.0,0.0
1684,420.75,21.2882,21.738,158.353,97.4912,96.689,0.00320115,0.0974578,20.9749,182.848,0.0737518,0.0,0.0
1688,421.75,20.6875,21.3496,160.78,97.4972,96.9943,0.00321376,0.0974528,20.9749,182.828,0.0461586,0.0,0.0
1692,422.75,20.8774,21.9285,155.46,97.5024,96.6226,0.00317515,0.0973905,20.9749,182.828,0.0809047,0.0,0.0
1696,423.75,20.9012,22.1098,156.4,97.4908,97.5395,0.00312871,0.0973245,20.9749,182.818,-0.00445826,0.0,0.0
1700,424.75,20.6802,22.1009,154.275,97.4924,96.689,0.00309257,0.0972626,20.9749,182.798,0.0738616,0.0,0.0
1704,425.75,21.2299,21.7463,159.297,97.4864,97.3545,0.00308118,0.0972114,20.9749,182.798,0.0120833,0.0,0.0
1708,426.75,20.4739,22.2006,159.567,97.4752,97.2618,0.0030874,0.0971811,20.9749,182.788,0.0195606,0.0,0.0
1712,427.75,21.0942,21.7439,167.847,97.4784,97.4902,,0.0971255,,182.768,-0.00107951,0.0,0.0
1716,428.75,21.2088,21.851,157.145,97.4764,97.2584,,0.0970638,,182.758,0.0199832,0.0,0.0
1720,429.75,21.0145,21.6356,161.003,97.4892,97.5629,,0.0971027,,182.738,-0.00674519,0.0,0.0
1724,430.75,21.046,21.9274,159.496,97.4904,97.4166,,,,182.728,0.00675817,0.0,0.0
1728,431.75,21.091,21.7135,155.332,97.4776,96.6924,,,,182.728,0.072191,0.0,0.0
1732,432.75,20.846,21.5549,157.888,97.4788,96.5223,,,,182.718,0.088018,0.0,0.0
1736,433.75,20.9291,21.903,155.058,97.4856,97.5234,,,,182.708,-0.00345552,0.0,0.0
1740,434.75,20.7212,21.6695,162.058,97.4828,97.6408,,,,182.688,-0.0144493,0.0,0.0
1744,435.75,21.027,21.9947,161.294,97.4748,97.062,,,,182.678,0.0378856,0.0,0.0
1748,436.75,20.5656,21.7366,161.289,97.4752,97.2512,,,,182.658,0.0205363,0.0,0.0
1752,437.75,20.5948,21.6629,154.491,97.4776,97.2372,,,,182.658,0.0220436,0.0,0.0