File: 01_Data/Vinyl_Tile/Cone/Vinyl_Tile_Cone_HF50Scan_220405_R1.csv
Names,Time,Stack TC,Smoke TC,Exh Press,Smoke Comp,Smoke Meas,CO Meter,CO2 Meter,O2 Meter,Sample Mass,Ext Coeff,Start Test,Flame Verif
Chan Gain,,500,500,1,1,1,1,1,1,1,1,1.0,1.0
Offset,,0,0,0.132686,0,0,0,0,0,0,0,0.0,0.0
Gain,,1,1,25.011,13.1151,13.9355,1,1,1,1.00092,1.01752,1.0,1.0
Units,sec,C,C,Pa,%,%,%,%,%,g,/m,,
Baseline,,32.4506,33.9354,153.054,99.2572,98.2603,0.000821199,0.060544,21.0234,-836.48,0.090175,,
5,1,31.2574,33.0094,154.019,99.2959,98.7512,0.000946038,0.0641242,21.0213,183.929,0.0491018,0.0,0.0
10,2.25,31.1812,32.3075,152.455,99.3079,97.5136,0.000856389,0.0652899,21.0204,183.719,0.162744,0.0,0.0
15,3.5,31.0305,32.1224,151.935,99.2999,98.4828,0.000758831,0.066582,21.0185,183.699,0.0737497,0.0,0.0
20,4.75,30.7766,32.4843,158.922,99.3091,98.5321,0.00071172,0.068737,21.016,183.639,0.0701073,0.0,0.0
25,6,31.3724,32.434,155.002,99.3187,98.0252,0.000719174,0.0709287,21.0131,183.599,0.117008,0.0,0.0
30,7.25,30.9444,32.8694,150.894,99.3343,97.9767,0.000729724,0.0727571,21.0108,183.559,0.122827,0.0,0.0
35,8.5,31.2243,32.4151,152.751,99.3255,98.274,0.000722185,0.0736124,21.0094,183.569,0.0949963,0.0,0.0
40,9.75,31.2553,32.7327,151.133,99.3383,97.8891,0.000695408,0.0736013,21.01,183.559,0.131172,0.0,0.0
45,11,30.9837,32.3804,148,99.3499,97.7254,0.000667659,0.0727298,21.0115,183.559,0.147157,0.0,0.0
50,12.25,31.2029,32.7839,153.487,99.3515,98.8796,0.000662169,0.0715664,21.0126,183.529,0.0425006,0.0,0.0
55,13.5,31.6094,32.2025,155.098,99.3511,97.7892,0.00064951,0.0706142,21.0133,183.559,0.141439,0.0,0.0
60,14.75,31.0844,32.2889,151.568,99.3595,98.3986,0.00059933,0.0701003,21.0138,183.569,0.0867431,0.0,0.0
65,16,31.3598,32.2818,154.514,99.368,97.5098,0.0005294,0.0701701,21.0136,183.579,0.168489,0.0,0.0
70,17.25,31.3323,32.7706,151.308,99.3756,98.3369,0.000465237,0.0711859,21.0118,183.579,0.0937771,0.0,0.0
75,18.5,31.2328,32.7913,154.389,99.372,97.7747,0.000409866,0.07312,21.0092,183.569,0.14463,0.0,0.0
80,19.75,30.5918,32.5625,155.33,99.3716,98.7886,0.000440358,0.074908,21.0075,183.539,0.052517,0.0,0.0
85,21,31.0235,32.222,150.448,99.3888,98.3705,0.000537151,0.0766516,21.0065,183.549,0.0919143,0.0,0.0
90,22.25,30.8256,32.6142,154.074,99.3876,98.6882,0.00063904,0.0771641,21.0064,183.529,0.0630282,0.0,0.0
95,23.5,30.9189,32.7599,151.813,99.3876,98.1792,0.000717967,0.0769103,21.0079,183.509,0.109188,0.0,0.0
100,24.75,31.2991,32.7839,153.256,99.4024,98.2774,0.000747578,0.0759725,21.0094,183.499,0.10159,0.0,0.0
105,26,31.1936,32.6291,153.56,99.4072,97.7483,0.00073395,0.0746996,21.0107,183.489,0.1502,0.0,0.0
110,27.25,31.3316,32.4968,156.258,99.4052,97.4732,0.000689218,0.0735287,21.0123,183.509,0.175181,0.0,0.0
115,28.5,31.3412,32.7495,154.702,99.4044,97.4987,0.000652436,0.0720983,21.0139,183.489,0.172772,0.0,0.0
120,29.75,30.9917,32.4425,156.623,99.4216,97.3516,0.000626168,0.0707206,21.0163,183.489,0.187798,0.0,0.0
125,31,30.9245,32.686,153.001,99.4288,95.8967,0.000607566,0.0694429,21.0177,183.509,0.32284,0.0,0.0
130,32.25,31.1663,32.6514,156.497,99.4228,96.1514,0.000593537,0.0684014,21.0185,183.479,0.298623,0.0,0.0
135,33.5,31.1617,32.6138,152.881,99.424,95.5339,0.000609492,0.0677884,21.019,183.489,0.356237,0.0,0.0
140,34.75,31.0077,32.9476,151.329,99.4316,93.9574,0.000704935,0.0675353,21.0193,183.459,0.505439,0.0,0.0
145,36,31.1998,32.9264,150.79,99.4376,93.0376,0.000855926,0.0677007,21.0178,183.429,0.593792,0.0,0.0
150,37.25,31.4324,32.5855,152.87,99.4352,91.4776,0.00116725,0.0682423,21.0151,183.399,0.744497,0.0,0.0
155,38.5,30.6571,32.8618,145.988,99.4356,89.8629,0.00181587,0.0691544,21.0084,183.339,0.903496,0.0,0.0
160,39.75,31.4429,33.0716,151.222,99.4532,93.0622,0.0029039,0.0740078,20.9953,183.299,0.592827,0.0,1.0
165,41,31.3467,32.7415,147.756,99.4448,87.8708,0.00437888,0.0857739,20.9726,183.179,1.1044,0.0,1.0
170,42.25,31.1515,33.3851,144.274,99.4376,85.4051,0.00606734,0.101563,20.9413,183.079,1.3578,0.0,1.0
175,43.5,31.619,33.3937,144.806,99.4476,86.9403,0.00778306,0.11931,20.9097,183.009,1.19968,0.0,1.0
180,44.75,31.614,33.1983,147.186,99.4416,87.2461,0.00939539,0.136936,20.8824,182.929,1.1678,0.0,1.0
185,46,32.2786,33.9128,144.324,99.4404,85.8363,0.0109401,0.15298,20.859,182.798,1.3131,0.0,1.0
190,47.25,32.8509,34.3555,144.81,99.4392,84.8408,0.0123533,0.168355,20.8423,182.758,1.41712,0.0,1.0
195,48.5,33.2927,34.5586,141.812,99.4504,82.1636,0.0134697,0.184087,20.8261,182.508,1.70431,0.0,1.0
200,49.75,33.5594,35.3324,141.145,99.4528,86.5618,0.0142502,0.200741,20.8087,182.348,1.23909,0.0,0.0
205,51,33.9876,35.6835,145.815,99.4392,87.1266,0.0146804,0.213835,20.7933,182.188,1.17982,0.0,0.0
210,52.25,34.4637,35.6053,141.703,99.4404,86.7966,0.0148756,0.226131,20.7835,182.038,1.2138,0.0,0.0
215,53.5,35.0331,36.6766,146.396,99.4512,83.7291,0.0149629,0.233855,20.7778,181.868,1.53592,0.0,0.0
220,54.75,35.3392,37.4632,141.744,99.4496,79.552,0.014991,0.238789,20.7744,181.777,1.99255,0.0,0.0
225,56,35.7818,37.9706,143.233,99.4464,75.6743,0.0150199,0.242934,20.7678,181.637,2.43829,0.0,0.0
230,57.25,36.2426,38.0529,141.585,99.4508,73.3234,0.0151305,0.247301,20.7596,181.527,2.72037,0.0,0.0
235,58.5,36.5756,38.4839,141.03,99.4488,75.0645,0.0153975,0.251849,20.7523,181.367,2.51073,0.0,0.0
240,59.75,37.0217,38.8024,143.569,99.4492,75.3839,0.0157289,0.25552,20.7479,181.237,2.47287,0.0,0.0
245,61,36.9272,39.3478,150.06,99.4376,74.6579,0.0161493,0.258636,20.7436,181.077,2.55819,0.0,0.0
250,62.25,37.1911,39.2742,146.742,99.4524,71.3025,0.0165374,0.262955,20.7361,180.957,2.96997,0.0,0.0
255,63.5,37.2848,40.5181,142.246,99.4476,70.9809,0.0167437,0.267186,20.7276,180.817,3.00988,0.0,0.0
260,64.75,38.0372,40.1381,141.373,99.434,71.4398,0.0168045,0.273319,20.7203,180.696,2.95114,0.0,0.0
265,66,38.0112,41.0192,144.225,99.4364,75.0657,0.0167386,0.278591,20.7143,180.536,2.50946,0.0,0.0
270,67.25,39.0519,40.7566,139.915,99.4532,72.8245,0.0166464,0.282916,20.7093,180.376,2.78152,0.0,0.0
275,68.5,39.305,41.5451,144.732,99.454,73.994,0.0164577,0.286301,20.7064,180.276,2.63939,0.0,0.0
280,69.75,39.2171,41.7833,140.981,99.4536,72.7412,0.0162972,0.289223,20.7046,180.166,2.79178,0.0,0.0
285,71,39.7675,42.0111,143.661,99.4452,73.0338,0.0161903,0.291631,20.7028,180.026,2.75519,0.0,0.0
290,72.25,39.9317,42.41,141.198,99.452,73.7555,0.0160906,0.294517,20.7015,179.876,2.66804,0.0,0.0
295,73.5,40.4966,42.6408,144.052,99.4452,73.653,0.0160028,0.296765,20.7006,179.706,2.67984,0.0,0.0
300,74.75,40.6714,43.3057,139.319,99.436,74.5018,0.0159438,0.298871,20.6992,179.555,2.57673,0.0,0.0
305,76,41.097,43.509,144.216,99.4488,76.0537,0.0159376,0.30051,20.6982,179.405,2.39387,0.0,0.0
310,77.25,41.204,43.3707,142.945,99.452,72.5324,0.0159785,0.302477,20.6969,179.275,2.81729,0.0,0.0
315,78.5,41.6128,44.2629,145.845,99.4332,77.0769,0.0160932,0.305406,20.6934,179.165,2.27319,0.0,0.0
320,79.75,42.3711,44.4407,139.498,99.4376,78.2043,0.016261,0.310192,20.6868,179.005,2.14398,0.0,0.0
325,81,41.8197,44.919,138.226,99.4504,78.818,0.016512,0.314806,20.6808,178.845,2.07536,0.0,0.0
330,82.25,42.5441,45.1269,143.917,99.4476,78.6542,0.0168201,0.320062,20.6755,178.645,2.09367,0.0,0.0
335,83.5,42.4444,45.7854,142.995,99.44,81.9693,0.0170378,0.324787,20.671,178.545,1.72451,0.0,0.0
340,84.75,43.272,45.8444,142.212,99.4392,81.9837,0.0171827,0.329536,20.6642,178.394,1.72286,0.0,0.0
345,86,43.5916,46.1039,143.4,99.4448,81.8021,0.0172043,0.333379,20.6579,178.244,1.74316,0.0,0.0
350,87.25,43.5101,46.4389,143.717,99.4416,82.3091,0.0171442,0.3384,20.6518,178.104,1.68773,0.0,0.0
355,88.5,43.9818,47.2966,137.794,99.4364,82.1334,0.0170342,0.343422,20.6467,177.914,1.70633,0.0,0.0
360,89.75,44.4605,47.1357,141.926,99.4344,83.5913,0.0168987,0.347923,20.6409,177.784,1.54911,0.0,0.0
365,91,44.5033,47.6198,135.343,99.436,83.4012,0.0167948,0.351793,20.6359,177.594,1.56958,0.0,0.0
370,92.25,44.9619,48.1233,139.258,99.4424,83.8992,0.0167329,0.355031,20.6319,177.433,1.51702,0.0,0.0
375,93.5,45.5376,48.1012,133.408,99.426,84.1488,0.0167054,0.357737,20.6295,177.263,1.48902,0.0,0.0
380,94.75,45.6224,48.7007,138.493,99.4368,85.8631,0.0166666,0.35921,20.6288,177.133,1.30999,0.0,0.0
385,96,45.849,49.0185,143.174,99.4408,85.4293,0.0165796,0.358842,20.6296,176.983,1.35555,0.0,0.0
390,97.25,46.4726,49.0463,140.8,99.4344,85.3545,0.0164602,0.35686,20.6319,176.833,1.3628,0.0,0.0
395,98.5,46.5605,49.3145,141.716,99.4312,85.1282,0.0163537,0.353435,20.636,176.653,1.38621,0.0,0.0
400,99.75,46.2564,49.5568,140.556,99.4416,83.9324,0.0162831,0.348915,20.6418,176.543,1.51342,0.0,0.0
405,101,46.5151,50.1298,144.374,99.4384,81.8855,0.0162324,0.343351,20.6497,176.383,1.73349,0.0,0.0
410,102.25,46.9226,50.2702,143.294,99.4248,82.0756,0.0161832,0.336581,20.6588,176.252,1.71158,0.0,0.0
415,103.5,47.2614,50.153,144.735,99.4364,79.5282,0.0159833,0.326749,20.6681,176.152,1.99403,0.0,0.0
420,104.75,47.1393,50.4037,142.501,99.4304,81.8702,0.0156576,0.321087,20.6782,176.002,1.73444,0.0,0.0
425,106,46.9716,50.5187,141.569,99.452,81.7345,0.015229,0.312954,20.6883,175.942,1.75119,0.0,0.0
430,107.25,47.5064,50.5305,144.326,99.416,80.8427,0.0147553,0.305537,20.6972,175.812,1.84588,0.0,0.0
435,108.5,47.0922,50.4882,141.345,99.44,79.5762,0.0142864,0.298474,20.7056,175.732,1.98897,0.0,0.0
440,109.75,47.4917,50.9755,141.775,99.4356,78.6849,0.0138644,0.292588,20.7112,175.642,2.08912,0.0,0.0
445,111,47.9431,50.8229,144.675,99.426,79.188,0.0134441,0.287887,20.7155,175.522,2.03137,0.0,0.0
450,112.25,47.6215,51.04,141.206,99.4216,79.4635,0.0130098,0.28377,20.7199,175.412,1.99996,0.0,0.0
455,113.5,47.2283,50.5427,142.482,99.4348,79.3377,0.0125664,0.279975,20.7246,175.362,2.0153,0.0,0.0
460,114.75,47.2707,50.7219,145.719,99.4288,78.4616,0.0121822,0.276228,20.729,175.251,2.11387,0.0,0.0
465,116,47.844,50.9724,141.634,99.4156,78.0278,0.0119094,0.272913,20.7322,175.191,2.16216,0.0,0.0
470,117.25,47.846,51.0378,141.288,99.424,77.9997,0.0117211,0.270171,20.7342,175.081,2.16613,0.0,0.0
475,118.5,47.3346,50.5538,142.629,99.4352,77.546,0.0115628,0.268339,20.7348,174.981,2.21921,0.0,0.0
480,119.75,47.9467,51.0615,142.05,99.4428,77.1505,0.0114273,0.267327,20.7353,174.891,2.26554,0.0,0.0
485,121,47.9912,51.2006,146.342,99.4232,79.9377,0.0112946,0.266829,20.7349,174.801,1.947,0.0,0.0
490,122.25,47.4726,51.1139,143.71,99.424,75.07,0.011193,0.266901,20.7332,174.721,2.50784,0.0,0.0
495,123.5,47.8401,51.4826,144.522,99.4184,76.5121,0.0111162,0.267218,20.7314,174.601,2.3375,0.0,0.0
500,124.75,47.7749,51.8223,138.916,99.4196,74.6043,0.0110628,0.267964,20.7294,174.491,2.56299,0.0,0.0
505,126,47.8381,51.1802,141.83,99.4124,75.9235,0.0110497,0.268738,20.7275,174.391,2.40589,0.0,0.0
510,127.25,48.3156,51.5729,141.225,99.4184,74.219,0.0110604,0.269478,20.7255,174.321,2.6091,0.0,0.0
515,128.5,48.2179,51.5567,145.332,99.428,73.1209,0.0110703,0.270057,20.7242,174.231,2.743,0.0,0.0
520,129.75,47.9423,51.7868,141.699,99.426,74.8982,0.0110604,0.270288,20.7235,174.15,2.52847,0.0,0.0
525,131,47.9198,52.2282,142.55,99.4188,73.8116,0.0110309,0.270387,20.724,174.07,2.65826,0.0,0.0
530,132.25,48.5206,51.8114,143.301,99.4196,74.5112,0.0110306,0.270282,20.7243,173.97,2.57414,0.0,0.0
535,133.5,48.5837,51.9911,142.887,99.418,73.801,0.0110728,0.269747,20.7249,173.88,2.65948,0.0,0.0
540,134.75,48.785,51.6234,140.272,99.4236,74.1204,0.0111103,0.268672,20.7258,173.77,2.62144,0.0,0.0
545,136,48.5878,51.9464,142.055,99.404,73.1188,0.0111027,0.267333,20.7269,173.69,2.7411,0.0,0.0
550,137.25,48.5851,51.8818,146.425,99.4156,73.1299,0.0110559,0.266067,20.7279,173.61,2.74079,0.0,0.0
555,138.5,48.5177,52.3815,144.214,99.4224,73.3072,0.010991,0.265007,20.7285,173.48,2.71979,0.0,0.0
560,139.75,48.1895,52.3066,144.004,99.4084,72.6047,0.0109438,0.263951,20.7293,173.42,2.80448,0.0,0.0
565,141,48.6787,52.61,142.38,99.4224,75.4621,0.0108976,0.2627,20.7315,173.37,2.4612,0.0,0.0
570,142.25,48.4183,52.6159,143.435,99.4272,71.7596,0.0108216,0.261329,20.734,173.25,2.91066,0.0,0.0
575,143.5,48.9942,52.29,147.175,99.4396,73.9698,0.0107113,0.259907,20.7366,173.15,2.64102,0.0,0.0
580,144.75,48.6187,52.7598,142.786,99.4116,73.4637,0.0105975,0.258396,20.7383,173.089,2.69978,0.0,0.0
585,146,49.072,52.3454,142.871,99.416,77.048,0.0104998,0.256938,20.7409,172.989,2.27499,0.0,0.0
590,147.25,48.794,52.5863,142.35,99.432,75.2933,0.0104195,0.255163,20.7432,172.909,2.48205,0.0,0.0
595,148.5,48.5664,52.771,143.146,99.4196,74.4942,0.0103234,0.253013,20.7469,172.869,2.57617,0.0,0.0
600,149.75,48.7513,52.4521,141.818,99.4116,75.8117,0.01024,0.251042,20.7514,172.749,2.41898,0.0,0.0
605,151,48.6505,52.1921,144.484,99.4204,76.8936,0.0101591,0.248572,20.7561,172.729,2.29329,0.0,0.0
610,152.25,48.5632,52.1833,140.938,99.4236,76.5636,0.0100069,0.245763,20.7612,172.629,2.33197,0.0,0.0
615,153.5,48.7373,52.4184,144.587,99.4168,77.3342,0.00980965,0.24271,20.765,172.589,2.24197,0.0,0.0
620,154.75,48.6283,52.48,145.119,99.4036,78.9872,0.00951435,0.239446,20.7709,172.499,2.05201,0.0,0.0
625,156,48.5531,51.835,148.872,99.4124,80.6922,0.00918985,0.236891,20.7764,172.439,1.86219,0.0,0.0
630,157.25,48.4042,52.0641,144.329,99.4192,81.5627,0.00885903,0.233818,20.7815,172.389,1.76702,0.0,0.0
635,158.5,48.7721,52.2469,145.456,99.406,81.7337,0.00852861,0.230798,20.7867,172.309,1.74715,0.0,0.0
640,159.75,48.0806,51.8008,149.485,99.4016,82.5264,0.008188,0.227488,20.7931,172.249,1.6606,0.0,0.0
645,161,47.9976,51.9375,141.494,99.4104,83.3323,0.00784006,0.223702,20.799,172.209,1.57465,0.0,0.0
650,162.25,48.1795,52.1194,145.816,99.4208,84.8084,0.00750966,0.219936,20.8056,172.159,1.41887,0.0,0.0
655,163.5,48.4863,51.8673,145.536,99.4052,84.7833,0.0072579,0.216315,20.8108,172.079,1.42011,0.0,0.0
660,164.75,48.3533,51.5071,144.4,99.41,85.7704,0.00695498,0.212578,20.8167,172.049,1.31722,0.0,0.0
665,166,47.8333,51.8568,147.98,99.4136,87.9585,0.00671628,0.209723,20.8215,171.958,1.09271,0.0,0.0
670,167.25,47.9957,51.5772,145.362,99.402,86.9961,0.006399,0.20575,20.8282,171.928,1.18986,0.0,0.0
675,168.5,48.1064,51.3214,147.465,99.3936,87.9317,0.00606222,0.202583,20.8362,171.868,1.09363,0.0,0.0
680,169.75,47.8809,50.9516,148.408,99.4004,89.3882,0.00575331,0.198344,20.844,171.828,0.947599,0.0,0.0
685,171,47.7709,51.4933,145.293,99.4092,89.8416,0.00552668,0.194684,20.85,171.808,0.903237,0.0,0.0
690,172.25,47.8027,51.005,148.383,99.3972,90.798,0.0053988,0.191463,20.8552,171.688,0.80764,0.0,0.0
695,173.5,47.4479,50.9983,145.574,99.3996,91.6516,0.00534214,0.188803,20.8594,171.678,0.724344,0.0,0.0
700,174.75,47.0889,51.1647,148.324,99.4024,91.7098,0.0052848,0.187066,20.8619,171.658,0.718923,0.0,0.0
705,176,47.2038,50.9277,144.529,99.3996,92.0709,0.00517658,0.186331,20.8642,171.578,0.683601,0.0,0.0
710,177.25,47.2299,50.4837,144.865,99.3864,91.9378,0.00505162,0.185962,20.8666,171.618,0.695328,0.0,0.0
715,178.5,47.2762,50.5625,156.781,99.388,94.2577,0.00492802,0.185001,20.87,171.598,0.473046,0.0,0.0
720,179.75,46.3198,49.9129,149.104,99.3956,93.3705,0.00484753,0.182999,20.8734,171.548,0.558131,0.0,0.0
725,181,46.3493,50.3015,149.001,99.3964,93.473,0.00482383,0.180541,20.877,171.518,0.548411,0.0,0.0
730,182.25,46.2375,50.2404,147.898,99.3888,94.017,0.00483105,0.177581,20.8807,171.468,0.49594,0.0,0.0
735,183.5,46.3826,49.5586,150.694,99.3764,93.9868,0.00483626,0.174904,20.8841,171.418,0.497692,0.0,0.0
740,184.75,46.7466,49.8241,147.204,99.3928,94.8216,0.00482267,0.172429,20.8872,171.408,0.420237,0.0,0.0
745,186,46.0429,49.3971,146.541,99.3716,94.0888,0.00477972,0.170334,20.8894,171.358,0.487573,0.0,0.0
750,187.25,46.0302,49.1789,152.341,99.3708,95.6339,0.00470946,0.168192,20.8919,171.308,0.342125,0.0,0.0
755,188.5,45.4273,48.8786,145.447,99.3888,95.1631,0.00462256,0.166403,20.8948,171.298,0.38779,0.0,0.0
760,189.75,45.4449,49.0535,148.14,99.3772,95.4497,0.00456491,0.165094,20.897,171.248,0.359903,0.0,0.0
765,191,45.2576,48.9037,149.433,99.3563,95.6607,0.00454157,0.164027,20.8991,171.218,0.338331,0.0,0.0
770,192.25,45.3259,48.5856,150.217,99.3559,96.1387,0.00456527,0.16296,20.9013,171.218,0.293805,0.0,0.0
775,193.5,45.0404,48.286,148.131,99.3539,95.9218,0.00460176,0.161767,20.9034,171.178,0.313783,0.0,0.0
780,194.75,45.1602,48.37,145.309,99.3671,95.6607,0.00461284,0.160303,20.9065,171.158,0.339301,0.0,0.0
785,196,45.1654,48.0643,147.705,99.3423,95.6879,0.00463586,0.158201,20.9099,171.118,0.334532,0.0,0.0
790,197.25,44.5164,47.9454,148.675,99.3315,96.0345,0.00468332,0.156096,20.9134,171.098,0.301289,0.0,0.0
795,198.5,44.4364,47.4539,144.938,99.3323,96.0315,0.00474608,0.153902,20.9172,171.058,0.301638,0.0,0.0
800,199.75,44.2924,47.5354,152.196,99.3307,96.7566,0.00478431,0.151761,20.9198,170.998,0.234354,0.0,0.0
805,201,44.7929,47.1327,148.169,99.3159,95.9558,0.00478257,0.149618,20.9213,170.988,0.307202,0.0,0.0
810,202.25,44.3055,47.3456,148.993,99.3111,96.4066,0.00476116,0.147666,20.9228,170.998,0.264937,0.0,0.0
815,203.5,43.873,47.0548,150.258,99.3259,96.3152,0.00476728,0.146,20.9248,170.947,0.274737,0.0,0.0
820,204.75,43.7155,47.2267,149.539,99.3015,96.931,0.00481111,0.144604,20.9261,170.927,0.215659,0.0,0.0
825,206,43.7982,46.6779,147.186,99.2875,97.2163,0.00486918,0.143292,20.9279,170.897,0.188161,0.0,0.0
830,207.25,43.8617,46.9205,149.982,99.2871,96.7285,0.00492225,0.142189,20.9289,170.897,0.233022,0.0,0.0
835,208.5,43.4234,46.5232,152.303,99.2891,96.5372,0.00495162,0.141078,20.9305,170.887,0.250879,0.0,0.0
840,209.75,43.2677,46.8778,149.379,99.2703,96.1961,0.00496288,0.139902,20.932,170.857,0.280778,0.0,0.0
845,211,43.478,46.4533,148.142,99.2511,96.1761,0.0049948,0.13865,20.9331,170.817,0.280906,0.0,0.0
850,212.25,43.3986,46.0938,150.501,99.2471,96.8442,0.00504862,0.137703,20.9336,170.777,0.218756,0.0,0.0
855,213.5,43.1816,46.1991,146.321,99.2423,96.9331,0.00510069,0.137022,20.9349,170.757,0.210137,0.0,0.0
860,214.75,43.3367,45.8111,150.288,99.2183,96.766,0.00511515,0.136369,20.9359,170.727,0.223379,0.0,0.0
865,216,42.9118,45.9121,149.702,99.2091,97.1912,0.00505022,0.135776,20.9366,170.737,0.18341,0.0,0.0
870,217.25,43.0381,45.1468,151.483,99.2059,96.8327,0.00494738,0.135053,20.937,170.697,0.216106,0.0,0.0
875,218.5,42.7176,45.4262,150.446,99.193,97.016,0.00486117,0.13465,20.9372,170.677,0.198074,0.0,0.0
880,219.75,42.6321,45.375,148.791,99.1746,96.3288,0.00481094,0.134494,20.9374,170.667,0.259871,0.0,0.0
885,221,42.6751,44.7799,147.574,99.165,96.6477,0.00477688,0.134605,20.9375,170.657,0.229501,0.0,0.0
890,222.25,41.6946,44.5895,147.229,99.1622,96.9629,0.00472708,0.134757,20.9375,170.637,0.200194,0.0,0.0
895,223.5,41.9864,45.0231,147.357,99.1482,96.7851,0.00466415,0.134675,20.9375,170.617,0.215311,0.0,0.0
900,224.75,42.2141,45.0396,151.163,99.1178,97.312,0.00459464,0.134291,20.9382,170.607,0.164111,0.0,0.0
905,226,41.8851,44.6366,150.387,99.1026,96.928,0.00452951,0.133684,20.9389,170.587,0.198035,0.0,0.0
910,227.25,41.7068,44.5393,148.574,99.1082,97.3192,0.0045071,0.132892,20.9401,170.557,0.162583,0.0,0.0
915,228.5,41.5353,44.3667,152.784,99.089,96.9718,0.00454063,0.132138,20.941,170.547,0.192776,0.0,0.0
920,229.75,41.7102,44.5947,150.932,99.0674,97.1372,0.004568,0.131571,20.9415,170.497,0.175615,0.0,0.0
925,231,41.7658,44.2686,153.589,99.0558,96.4538,0.00455136,0.130932,20.943,170.497,0.237588,0.0,0.0
930,232.25,41.1794,44.3265,150.497,99.0602,96.6686,0.00449521,0.129985,20.9446,170.487,0.218132,0.0,0.0
935,233.5,41.2517,44.2561,147.383,99.0221,96.9305,0.00444748,0.129074,20.9455,170.447,0.19055,0.0,0.0
940,234.75,41.4406,44.198,145.567,99.0085,97.0194,0.00441336,0.12824,20.946,170.427,0.181143,0.0,0.0
945,236,41.3071,43.9683,149.043,98.9965,96.5801,0.00446011,0.127642,20.946,170.387,0.220569,0.0,0.0
950,237.25,41.1459,43.9144,150.819,98.9933,97.0237,0.00453586,0.127256,20.9459,170.377,0.179381,0.0,0.0
955,238.5,40.8441,43.8733,150.935,98.9625,97.3567,0.00459366,0.126974,20.9461,170.367,0.146021,0.0,0.0
960,239.75,40.6568,44.0355,149.712,98.9449,97.0118,0.0046424,0.126754,20.9469,170.307,0.176109,0.0,0.0
965,241,40.9138,43.7348,154.259,98.9361,96.5588,0.00467796,0.126462,20.9474,170.307,0.217084,0.0,0.0
970,242.25,41.1563,43.35,148.006,98.9009,96.6184,0.0046852,0.126107,20.9477,170.287,0.208403,0.0,0.0
975,243.5,40.8517,43.4515,148.36,98.8769,97.0564,0.00465299,0.125847,20.9479,170.227,0.165862,0.0,0.0
980,244.75,40.0035,43.6069,149.497,98.8664,96.7409,0.00459226,0.125591,20.948,170.237,0.193989,0.0,0.0
985,246,40.7311,43.2777,150.87,98.838,97.0913,0.00453548,0.125318,20.9483,170.217,0.15915,0.0,0.0
990,247.25,40.6823,43.0774,162.001,98.8356,96.6354,0.00449731,0.124959,20.9486,170.227,0.200942,0.0,0.0
995,248.5,40.5881,42.9864,149.851,98.7992,96.8927,0.00446734,0.124449,20.9497,170.187,0.173919,0.0,0.0
1000,249.75,40.2614,43.6323,148.141,98.774,97.0152,0.00444918,0.124186,20.9504,170.207,0.160366,0.0,0.0
1005,251,40.6714,42.6233,149.436,98.7556,96.504,0.00442938,0.124039,20.9508,170.157,0.205857,0.0,0.0
1010,252.25,40.3616,42.6964,149.56,98.7256,97.2538,0.0043999,0.123778,20.9514,170.147,0.134065,0.0,0.0
1015,253.5,39.8558,42.5053,145.183,98.7008,96.5516,0.00436546,0.123384,20.9523,170.117,0.196495,0.0,0.0
1020,254.75,40.6235,42.6173,148.33,98.6851,97.0543,0.00433533,0.122946,20.9529,170.117,0.148734,0.0,0.0
1025,256,40.2327,42.6511,147.389,98.6727,96.9254,0.00428813,0.122463,20.9532,170.117,0.159471,0.0,0.0
1030,257.25,40.1306,42.6577,147.266,98.6471,96.1476,0.00420416,0.122035,20.9538,170.097,0.22907,0.0,0.0
1035,258.5,40.0464,42.4532,147.573,98.6307,96.6439,0.00410352,0.121713,20.9545,170.067,0.181631,0.0,0.0
1040,259.75,39.6348,41.6048,147.115,98.6131,97.1776,0.00400747,0.121524,20.955,170.027,0.130881,0.0,0.0
1045,261,40.0235,41.9276,144.522,98.5999,96.1055,0.00392044,0.121411,20.9552,169.997,0.228706,0.0,0.0
1050,262.25,39.8341,42.1759,149.095,98.5591,96.6086,0.00385938,0.121294,20.9554,170.007,0.178406,0.0,0.0
1055,263.5,39.1964,42.1221,146.995,98.5367,96.1459,0.00387058,0.121314,20.9557,169.987,0.219228,0.0,0.0
1060,264.75,39.6817,42.8654,148.33,98.5286,97.1496,0.0039201,0.121319,20.9566,169.957,0.125813,0.0,0.0
1065,266,39.8031,42.1584,150.747,98.4946,96.2276,0.00397976,0.121208,20.9572,169.937,0.207844,0.0,0.0
1070,267.25,39.8491,41.6688,154.285,98.4702,96.2501,0.00400896,0.120947,20.9573,169.937,0.20354,0.0,0.0
1075,268.5,39.5579,41.8914,145.865,98.4638,96.3738,0.00401372,0.120506,20.9572,169.897,0.191491,0.0,0.0
1080,269.75,39.5107,41.3889,147.345,98.4486,96.0825,0.00398465,0.120012,20.9576,169.867,0.217132,0.0,0.0
1085,271,39.7209,41.9097,150.659,98.4326,96.5814,0.00391067,0.119485,20.9583,169.856,0.169461,0.0,0.0
1090,272.25,39.0984,41.4789,148.729,98.4158,96.803,0.00373521,0.119004,20.9596,169.867,0.147483,0.0,0.0
1095,273.5,39.8921,41.7742,149.89,98.3962,96.259,0.0035615,0.118469,20.9605,169.856,0.195998,0.0,0.0
1100,274.75,39.3919,41.7718,150.468,98.3882,96.8442,0.00342876,0.117806,20.961,169.816,0.141175,0.0,0.0
1105,276,39.5844,41.3047,150.292,98.3557,96.626,0.00337136,0.117162,20.9613,169.826,0.158364,0.0,0.0
1110,277.25,39.0755,41.1703,152.672,98.3501,96.057,0.00338271,0.1167,20.9617,169.816,0.210572,0.0,0.0
1115,278.5,39.0561,41.2507,152.344,98.3481,95.9405,0.00342108,0.11627,20.9627,169.796,0.221225,0.0,0.0
1120,279.75,39.0804,41.6559,154.733,98.3285,96.0655,0.0034549,0.115931,20.9632,169.756,0.207821,0.0,0.0
1125,281,38.8319,41.7264,148.44,98.3105,95.7899,0.00348683,0.115674,20.963,169.786,0.231827,0.0,0.0
1130,282.25,39.1971,41.6057,147.534,98.3101,96.4491,0.00353187,0.115502,20.9628,169.756,0.170579,0.0,0.0
1135,283.5,39.1767,41.4559,148.749,98.2957,96.1017,0.00357804,0.115409,20.9627,169.716,0.201482,0.0,0.0
1140,284.75,39.0571,41.0775,146.963,98.2709,96.5895,0.00362841,0.115341,20.9622,169.686,0.15404,0.0,0.0
1145,286,38.9911,40.8806,151.318,98.2513,96.692,0.00366042,0.115486,20.9614,169.696,0.142792,0.0,0.0
1150,287.25,38.6534,41.4694,148.704,98.2409,95.9758,0.00366698,0.115693,20.961,169.666,0.208202,0.0,0.0
1155,288.5,38.8087,41.3561,150.898,98.2417,96.3704,0.0036881,0.115821,20.9607,169.656,0.171647,0.0,0.0
1160,289.75,38.9055,41.1493,148.457,98.2229,95.861,0.00374058,0.11584,20.9613,169.606,0.21725,0.0,0.0
1165,291,38.9681,40.7236,147.468,98.2149,96.0349,0.00379621,0.11558,20.9618,169.626,0.200342,0.0,0.0
1170,292.25,38.8446,40.9681,150.399,98.2189,96.057,0.00379509,0.115205,20.9624,169.586,0.198651,0.0,0.0
1175,293.5,38.9891,40.7104,151.317,98.2117,96.2467,0.00374619,0.114288,20.9634,169.586,0.180389,0.0,0.0
1180,294.75,38.2976,40.5899,148.905,98.1832,96.7766,0.00366038,0.113206,20.9653,169.576,0.1288,0.0,0.0
1185,296,38.1167,40.5573,151.896,98.1732,96.6711,0.003551,0.112139,20.967,169.566,0.137622,0.0,0.0
1190,297.25,39.5668,41.0579,152.008,98.1704,96.5176,0.00344173,0.111211,20.9681,169.566,0.151555,0.0,0.0
1195,298.5,38.6054,40.3731,148.946,98.1604,96.5401,0.00337761,0.110349,20.9687,169.496,0.14856,0.0,0.0
1200,299.75,38.6646,40.4832,146.439,98.1396,96.2539,0.00338615,0.109539,20.969,169.526,0.173169,0.0,0.0
1205,301,38.1952,39.9174,149.316,98.1264,96.3921,0.0034602,0.108891,20.9693,169.506,0.15916,0.0,0.0
1210,302.25,38.6012,40.6268,147.526,98.1072,96.6975,0.00351802,0.10866,20.9694,169.516,0.129182,0.0,0.0
1215,303.5,38.5003,40.6006,149.085,98.0904,96.939,0.00354769,0.109246,20.9695,169.506,0.105384,0.0,0.0
1220,304.75,38.6735,40.0183,148.983,98.0728,96.3573,0.0035432,0.110498,20.9695,169.476,0.15751,0.0,0.0
1225,306,38.6163,40.5556,148.496,98.072,96.7047,0.00350067,0.112049,20.9683,169.446,0.12531,0.0,0.0
1230,307.25,38.4161,40.4838,148.35,98.0604,96.4057,0.00342631,0.113602,20.9669,169.436,0.15189,0.0,0.0
1235,308.5,38.5637,40.1485,145.227,98.0404,96.1846,0.00334841,0.11484,20.9661,169.436,0.170567,0.0,0.0
1240,309.75,38.443,40.2961,151.796,98.038,96.8659,0.00328564,0.115262,20.9658,169.396,0.107349,0.0,0.0
1245,311,38.2596,40.2278,150.668,98.0231,96.5682,0.0032501,0.114916,20.966,169.386,0.133474,0.0,0.0
1250,312.25,38.2361,40.106,148.416,98.0103,95.8971,0.00323053,0.114055,20.9669,169.376,0.194551,0.0,0.0
1255,313.5,38.1407,40.2417,147.593,97.9959,96.242,0.00321081,0.112662,20.9688,169.406,0.161195,0.0,0.0
1260,314.75,38.5326,39.7941,147.635,97.9911,96.0047,0.00320236,0.111303,20.9716,169.376,0.182793,0.0,0.0
1265,316,38.0864,40.3126,151.342,97.9875,96.6392,0.00320943,0.109362,20.9742,169.376,0.123668,0.0,0.0
1270,317.25,37.8884,40.0689,149.136,97.9723,95.5709,0.00325564,0.107623,20.9766,169.366,0.221499,0.0,0.0
1275,318.5,38.1761,39.9046,147.622,97.9623,96.3415,0.0033321,0.106105,20.9789,169.356,0.148909,0.0,0.0
1280,319.75,37.5463,40.164,147.506,97.9527,95.8282,0.00339728,0.104725,20.9804,169.316,0.195716,0.0,0.0
1285,321,37.7878,40.1443,148.719,97.9475,95.9299,0.00337532,0.10349,20.9816,169.336,0.18578,0.0,0.0
1290,322.25,37.8809,39.7484,151.924,97.9395,96.6669,0.00330564,0.10252,20.9824,169.316,0.11674,0.0,0.0
1295,323.5,37.7863,39.4736,152.759,97.9247,96.4968,0.00322552,0.10195,20.9829,169.306,0.13111,0.0,0.0
1300,324.75,37.7298,39.2144,149.108,97.9499,95.8393,0.00317097,0.101687,20.9831,169.276,0.19443,0.0,0.0
1305,326,37.4131,39.2173,149.979,97.9215,96.4985,0.00314356,0.101697,20.9833,169.266,0.130661,0.0,0.0
1310,327.25,37.4949,39.476,155.084,97.9167,96.7817,0.00313359,0.101784,20.9827,169.266,0.104064,0.0,0.0
1315,328.5,37.3263,39.493,151.107,97.9035,96.5027,0.00308852,0.101794,20.9824,169.246,0.128626,0.0,0.0
1320,329.75,38.4088,39.6644,149.62,97.8955,96.5686,0.00303355,0.10167,20.9822,169.246,0.121802,0.0,0.0
1325,331,37.7774,39.4394,148.213,97.9015,96.4972,0.00298764,0.101674,20.9825,169.196,0.128954,0.0,0.0
1330,332.25,37.5284,39.4323,152.975,97.8803,96.1778,0.00297726,0.101581,20.9832,169.186,0.156611,0.0,0.0
1335,333.5,38.0414,39.7492,146.971,97.8867,96.0549,0.0029889,0.10146,20.9836,169.176,0.168608,0.0,0.0
1340,334.75,37.2709,39.776,150.558,97.8927,96.0847,0.00301913,0.101363,20.9838,169.196,0.166391,0.0,0.0
1345,336,37.681,39.0881,151.313,97.8687,96.2667,0.00304506,0.101456,20.9839,169.196,0.147308,0.0,0.0
1350,337.25,37.6703,39.0921,153.119,97.8667,96.1442,0.00309048,0.101717,20.984,169.156,0.158488,0.0,0.0
1355,338.5,37.201,39.2247,146.502,97.8723,96.063,0.00312935,0.101956,20.9831,169.126,0.166544,0.0,0.0
1360,339.75,37.513,39.0337,147.585,97.8739,96.1178,0.00312143,0.102096,20.9836,169.136,0.161593,0.0,0.0
1365,341,37.396,39.3865,150.713,97.8735,96.0213,0.00305629,0.102263,20.983,169.126,0.170527,0.0,0.0
1370,342.25,37.7457,39.0245,152.159,97.8587,96.1204,0.00296505,0.102294,20.9828,169.106,0.159971,0.0,0.0
1375,343.5,37.1274,39.017,149.256,97.8546,96.2552,0.0028923,0.102067,20.984,169.066,0.147095,0.0,0.0
1380,344.75,37.1734,38.787,149.228,97.8538,96.2633,0.00282642,0.101438,20.985,169.096,0.146273,0.0,0.0
1385,346,37.4678,38.896,149.536,97.8338,95.8997,0.00276969,0.100672,20.9863,169.086,0.178226,0.0,0.0
1390,347.25,37.2572,39.1346,151.587,97.8402,95.9388,0.00273871,0.0998559,20.9871,169.066,0.175169,0.0,0.0
1395,348.5,37.2491,38.9551,150.671,97.8366,96.313,0.00271981,0.098996,20.9878,169.066,0.14009,0.0,0.0
1400,349.75,37.2186,39.1289,150.746,97.8306,96.3407,0.00271088,0.0980087,20.9882,169.056,0.136981,0.0,0.0
1405,351,37.1617,38.8738,147.096,97.797,96.3266,0.00269712,0.0971418,20.9891,169.026,0.135214,0.0,0.0
1410,352.25,37.1011,38.7566,148.308,97.7986,96.6354,0.00272443,0.0963455,20.9899,169.016,0.106796,0.0,0.0
1415,353.5,37.0722,38.8143,153.096,97.8054,96.763,0.00281636,0.0956888,20.9904,169.016,0.0956416,0.0,0.0
1420,354.75,36.8503,39.1549,150.6,97.7978,96.2331,0.0029751,0.0951573,20.9914,168.986,0.143961,0.0,0.0
1425,356,37.3198,38.4036,150.481,97.795,96.5295,0.00313684,0.0947681,20.9922,168.966,0.116254,0.0,0.0
1430,357.25,37.2254,38.5138,150.627,97.803,96.0213,0.00326135,0.0944484,20.9927,168.946,0.164101,0.0,0.0
1435,358.5,37.0888,38.6355,154.962,97.7982,96.1497,0.00332086,0.0941555,20.993,168.966,0.151731,0.0,0.0
1440,359.75,36.8427,38.776,148.857,97.771,96.416,0.00331311,0.0939826,20.9932,168.936,0.124568,0.0,0.0
1445,361,36.9591,38.6387,150.779,97.7646,96.0591,0.0032433,0.0938408,20.9933,168.926,0.157075,0.0,0.0
1450,362.25,36.7133,38.6096,146.741,97.7654,95.7908,0.00318417,0.0936952,20.9934,168.926,0.182117,0.0,0.0
1455,363.5,36.3023,38.7901,154.949,97.7622,96.6439,0.00316978,0.0935017,20.9934,168.916,0.102686,0.0,0.0
1460,364.75,36.7914,38.2531,151.888,97.7422,96.3322,0.00317224,0.0933373,20.9934,168.896,0.129696,0.0,0.0
1465,366,36.359,38.3439,150.885,97.7422,97.0637,0.00312979,0.0933055,20.9935,168.896,0.0621777,0.0,0.0
1470,367.25,36.6661,38.2655,152.277,97.7442,96.1429,0.00298495,0.0933011,20.9927,168.886,0.14743,0.0,0.0
1475,368.5,36.9146,37.9675,151.515,97.7354,95.6181,0.00283085,0.0933284,20.9928,168.886,0.19548,0.0,0.0
1480,369.75,36.9446,38.3258,157.209,97.7262,96.3432,0.00270977,0.0932847,20.9931,168.866,0.127209,0.0,0.0
1485,371,36.6142,38.4868,150.129,97.7238,96.6286,0.00264269,0.0932137,20.9933,168.846,0.100592,0.0,0.0
1490,372.25,36.5946,38.1792,149.946,97.7098,95.8933,0.00261315,0.0932864,20.9933,168.846,0.167492,0.0,0.0
1495,373.5,36.833,38.177,147.988,97.6985,96.5567,0.00262161,0.0934293,20.9933,168.836,0.10493,0.0,0.0
1500,374.75,36.7391,38.0444,149.69,97.6841,96.5014,0.00267416,0.0934507,20.9935,168.816,0.108726,0.0,0.0
1505,376,36.2689,38.1883,149.235,97.697,95.8065,0.00273788,0.0932377,20.9937,168.826,0.174401,0.0,0.0
1510,377.25,36.5766,38.0329,151.84,97.6809,96.7022,0.00279073,0.0931207,20.9938,168.806,0.0898869,0.0,0.0
1515,378.5,36.6739,38.2614,148.787,97.6601,96.5112,0.00281795,0.0930465,20.9939,168.786,0.105627,0.0,0.0
1520,379.75,36.2199,38.1275,152.747,97.6505,96.6847,0.00279293,0.0929507,20.9939,168.786,0.0887155,0.0,0.0
1525,381,36.2217,37.7062,149.93,97.6629,95.5275,0.00270022,0.0928088,20.9939,168.755,0.197321,0.0,0.0
1530,382.25,36.1842,37.2747,147.682,97.6581,95.838,0.00259098,0.0925311,20.994,168.765,0.167921,0.0,0.0
1535,383.5,35.9282,37.6624,154.493,97.6365,96.211,0.00251343,0.092195,20.994,168.745,0.131279,0.0,0.0
1540,384.75,35.9793,37.0535,151.084,97.6341,96.3849,0.00244775,0.0919776,20.9937,168.745,0.114937,0.0,0.0
1545,386,35.9722,37.2719,150.8,97.6349,96.2233,0.00239451,0.0917495,20.9943,168.735,0.129988,0.0,0.0
1550,387.25,35.9038,37.6918,146.759,97.6161,95.7704,0.00236023,0.0914136,20.9948,168.725,0.17038,0.0,0.0
1555,388.5,35.9054,37.9545,152.477,97.6017,95.9579,0.00234981,0.091187,20.995,168.715,0.151601,0.0,0.0
1560,389.75,36.0713,37.6411,156.004,97.6049,96.5754,0.00236553,0.0909801,20.9952,168.695,0.0946404,0.0,0.0
1565,391,35.7103,37.6628,149.194,97.6113,96.3339,0.00238463,0.090663,20.9953,168.695,0.117579,0.0,0.0
1570,392.25,35.827,37.2415,152.143,97.5973,95.7721,0.0024369,0.0904252,20.9954,168.685,0.168502,0.0,0.0
1575,393.5,35.5331,37.4202,152.619,97.5881,96.0719,0.00250182,0.0902921,20.9954,168.695,0.13976,0.0,0.0
1580,394.75,36.123,37.3509,150.763,97.5953,95.8784,0.00256687,0.0902434,20.9954,168.665,0.158415,0.0,0.0
1585,396,35.0329,37.0397,155.197,97.5965,96.1548,0.00260687,0.0902737,20.9959,168.635,0.132829,0.0,0.0
1590,397.25,35.0509,37.3211,145.873,97.5753,96.3509,0.00263538,0.0904045,20.9967,168.625,0.112709,0.0,0.0
1595,398.5,35.5918,37.6117,149.906,97.5701,95.7819,0.00266475,0.0905372,20.9971,168.625,0.165101,0.0,0.0
1600,399.75,36.0828,37.3794,149.633,97.5713,96.2905,0.00268085,0.0906005,20.9974,168.625,0.117938,0.0,0.0
1605,401,35.8444,37.5937,152.435,97.5689,96.0753,0.00266739,0.0905724,20.9975,168.605,0.137687,0.0,0.0
1610,402.25,35.785,37.3911,149.681,97.5605,96.003,0.00259601,0.0906027,20.9976,168.605,0.143638,0.0,0.0
1615,403.5,36.0832,37.4291,152.818,97.5557,96.0694,0.00251459,0.0906811,20.9977,168.595,0.137032,0.0,0.0
1620,404.75,35.9733,37.176,151.806,97.5653,95.7632,0.00246214,0.0906829,20.9977,168.585,0.166405,0.0,0.0
1625,406,35.9537,37.5043,152.913,97.5553,96.5159,0.00247409,0.0905608,20.9977,168.585,0.0956058,0.0,0.0
1630,407.25,35.2267,37.3861,152.172,97.5405,95.8963,0.00252398,0.0903258,20.9978,168.565,0.151737,0.0,0.0
1635,408.5,36.3452,37.113,153.562,97.5417,96.6596,0.0025603,0.0900771,20.9982,168.545,0.0810765,0.0,0.0
1640,409.75,35.5558,37.2189,152.444,97.5421,95.7649,0.00259317,0.0900004,20.999,168.555,0.164122,0.0,0.0
1645,411,35.4957,37.6173,148.699,97.5401,96.6303,0.0026463,0.0898488,20.9994,168.515,0.0836394,0.0,0.0
1650,412.25,35.985,37.4295,152.631,97.5329,95.6509,0.00269246,0.0897155,20.9997,168.525,0.17391,0.0,0.0
1655,413.5,35.6766,37.238,147.91,97.5248,96.2335,0.00271999,0.0897052,20.9998,168.525,0.118974,0.0,0.0
1660,414.75,35.0551,37.1895,150.572,97.534,96.0515,0.00270164,0.0896068,20.9999,168.515,0.136715,0.0,0.0
1665,416,35.6721,37.0976,153.901,97.5192,96.3828,0.00263388,0.0894515,21,168.505,0.104627,0.0,0.0
1670,417.25,35.603,37.0929,150.655,97.5088,95.3323,0.00254749,0.0893514,21,168.475,0.201485,0.0,0.0
1675,418.5,35.6747,37.2854,150.997,97.5293,96.6613,0.00246645,0.0893018,21.0001,168.495,0.0797837,0.0,0.0
1680,419.75,35.6998,36.8625,154.145,97.526,96.2182,0.00233268,0.0891588,20.9999,168.495,0.120504,0.0,0.0
1685,421,35.4885,37.0532,145.73,97.5056,96.3373,0.00224106,0.0890293,20.9997,168.475,0.107596,0.0,0.0
1690,422.25,35.9504,37.4278,147.515,97.5084,95.6972,0.00218366,0.0888775,20.9996,168.455,0.16735,0.0,0.0
1695,423.5,35.3834,37.1499,148.175,97.5128,95.5803,0.00213964,0.0888035,20.9995,168.455,0.178668,0.0,0.0
1700,424.75,35.465,37.0477,153.286,97.512,96.4683,0.00208817,0.0887451,20.9995,168.445,0.0960553,0.0,0.0
1705,426,35.4723,37.4431,147.542,97.5008,96.2986,0.00201205,0.0886874,20.9995,168.435,0.110743,0.0,0.0
1710,427.25,35.0893,36.5241,149.374,97.4912,96.1174,0.00193906,0.088721,20.9995,168.405,0.126671,0.0,0.0
1715,428.5,35.5634,37.1414,152.41,97.5048,96.5695,0.00189301,0.0887014,20.9995,168.405,0.086036,0.0,0.0
1720,429.75,36.0418,37.4057,148.902,97.4992,95.5441,0.0018769,0.0886696,20.9995,168.455,0.180798,0.0,0.0
1725,431,35.8014,36.8845,152.418,97.5016,97.2304,0.00190102,0.0885612,20.9995,168.405,0.0248675,0.0,0.0
1730,432.25,35.4093,37.1204,153.452,97.4956,95.9732,0.00194782,0.088557,21.0002,168.415,0.140473,0.0,0.0
1735,433.5,35.3448,36.8752,151.31,97.5128,95.8508,0.00202308,0.0884947,21.0004,168.375,0.153446,0.0,0.0
1740,434.75,35.6175,37.07,148.6,97.5004,96.629,0.00211115,0.0882592,21,168.395,0.0801317,0.0,0.0
1745,436,35.793,36.7793,147.721,97.4816,95.9873,0.0021911,0.0879768,20.9998,168.375,0.137884,0.0,0.0
1750,437.25,35.8185,37.1409,148.766,97.4876,96.3968,0.00227252,0.087873,20.9998,168.355,0.100433,0.0,0.0
1755,438.5,35.5287,37.0589,155.178,97.4928,95.7381,0.0023184,0.0879916,21,168.345,0.162115,0.0,0.0
1760,439.75,34.6992,36.7634,152.75,97.4772,96.0345,0.00231509,0.0881468,21.0001,168.375,0.133093,0.0,0.0
1765,441,35.3053,36.5968,153.924,97.4832,96.3619,0.00229196,0.0883334,21.0002,168.355,0.10326,0.0,0.0
1770,442.25,35.4392,37.0771,151.371,97.4752,96.2242,0.00227831,0.0885843,21.0002,168.335,0.115299,0.0,0.0
1775,443.5,35.4735,36.983,153.549,97.4716,95.4272,0.00227375,0.0888114,21.0002,168.315,0.189201,0.0,0.0
1780,444.75,35.5584,36.8601,150.33,97.4692,96.0119,0.00226173,0.0888451,20.9995,168.305,0.134455,0.0,0.0
1785,446,35.6074,36.9524,150.392,97.468,96.8089,0.00224396,0.0887471,20.9988,168.295,0.0605619,0.0,0.0
1790,447.25,35.4877,36.9911,152.602,97.466,95.767,0.00223183,0.0885385,20.9979,168.295,0.156963,0.0,0.0
1795,448.5,35.1493,37.0327,151.768,97.4496,95.932,0.00220023,0.0883711,20.9971,168.285,0.140095,0.0,0.0
1800,449.75,35.4361,37.1457,150.787,97.4464,96.0153,0.00215576,0.0882392,20.9967,168.275,0.132049,0.0,0.0
1805,451,35.7511,36.8838,152.751,97.4604,95.8235,0.00214504,0.088181,20.9972,168.275,0.15118,0.0,0.0
1810,452.25,35.3602,37.0744,154.087,97.4564,95.8878,0.00215502,0.0881514,20.9977,168.255,0.144834,0.0,0.0
1815,453.5,35.0398,36.871,152.367,97.4404,95.6781,0.00212653,0.0882534,20.998,168.225,0.162905,0.0,0.0
1820,454.75,35.3181,37.0488,147.232,97.4376,96.2552,0.00206046,0.0883434,20.9981,168.235,0.108973,0.0,0.0
1825,456,35.4642,37.0558,149.591,97.4508,95.7738,0.0019894,0.0884105,20.9982,168.215,0.154937,0.0,0.0
1830,457.25,35.4618,36.8174,151.408,97.4468,95.1091,0.00195616,0.0885056,20.9983,168.245,0.216733,0.0,0.0
1835,458.5,35.4479,36.675,151.171,97.4284,95.437,0.0019707,0.0885318,20.9985,168.205,0.184328,0.0,0.0
1840,459.75,35.5063,37.0919,155.4,97.4392,96.08,0.00203355,0.0884796,20.9988,168.185,0.125382,0.0,0.0
1845,461,35.2016,36.9236,152.623,97.4388,96.2135,0.00211798,0.0884054,20.999,168.195,0.112949,0.0,0.0
1850,462.25,35.3014,36.59,150.748,97.4388,96.1948,0.00216698,0.0883258,20.9991,168.205,0.114685,0.0,0.0
1855,463.5,35.3466,37.1862,150.179,97.4308,96.2556,0.00217784,0.0882185,20.9991,168.195,0.108311,0.0,0.0
1860,464.75,35.3995,36.5998,150.992,97.4264,96.3513,0.00215027,0.0880488,20.9992,168.185,0.099039,0.0,0.0
1865,466,35.4169,36.7174,149.378,97.4344,96.6784,0.00208142,0.0879479,20.9995,168.175,0.0695277,0.0,0.0
1870,467.25,34.824,36.5569,147.95,97.416,96.5074,0.00205671,0.087956,20.9997,168.165,0.0836394,0.0,0.0
1875,468.5,35.2574,36.6372,152.793,97.4168,95.9124,0.00206552,0.0878605,20.9999,168.155,0.138909,0.0,0.0
1880,469.75,35.204,36.8722,147.327,97.4352,96.4649,0.00214119,0.087785,21,168.155,0.0893338,0.0,0.0
1885,471,35.5636,36.453,150.712,97.4296,96.0745,0.00220006,0.0878379,21,168.175,0.125016,0.0,0.0
1890,472.25,35.2789,36.7917,147.992,97.4188,95.8776,0.00221319,0.0878088,21,168.145,0.142338,0.0,0.0
1895,473.5,35.0599,37.1017,150.123,97.4152,96.1008,0.002179,0.0878214,21.0001,168.125,0.121247,0.0,0.0
1900,474.75,34.8995,36.8514,149.278,97.4276,96.0315,0.00212988,0.087866,21.0001,168.095,0.128824,0.0,0.0
1905,476,35.3189,36.9212,151.677,97.4404,96.4049,0.00208851,0.0879929,21.0001,168.085,0.0953595,0.0,0.0
1910,477.25,35.1479,36.7818,153.921,97.4196,96.1727,0.00205829,0.0881456,21.0001,168.085,0.114978,0.0,0.0
1915,478.5,35.506,36.993,153.373,97.4276,95.7023,0.00204352,0.0881926,21.0001,168.075,0.159471,0.0,0.0
1920,479.75,35.4195,36.6825,152.289,97.436,96.026,0.00202434,0.0881399,21.0001,168.055,0.130109,0.0,0.0
1925,481,35.5091,37.0872,150.786,97.4308,96.1616,0.00199123,0.0880795,21.0001,168.075,0.11703,0.0,0.0
1930,482.25,34.9511,36.8856,150.095,97.426,95.656,0.001974,0.0880534,21.0001,168.045,0.163649,0.0,0.0
1935,483.5,34.8829,37.1267,151.073,97.4368,96.2416,0.00202877,0.0880732,21.0001,168.055,0.110162,0.0,0.0
1940,484.75,35.3533,36.9794,151.202,97.4416,96.0455,0.00212309,0.0881792,21.0001,168.065,0.128802,0.0,0.0
1945,486,35.4477,36.5912,145.701,97.4404,96.5099,0.00228,0.088212,21.0001,168.025,0.0856398,0.0,0.0
1950,487.25,35.037,36.8279,151.532,97.4444,96.0698,0.00237744,0.0882022,21.0001,168.025,0.126807,0.0,0.0
1955,488.5,35.2667,36.5807,147.473,97.45,96.1055,0.00241299,0.0881134,21.0001,167.995,0.124003,0.0,0.0
1960,489.75,34.6858,36.546,151.426,97.4596,96.1969,0.00241014,0.0881113,21.0009,167.995,0.116394,0.0,0.0
1965,491,35.1923,37.0741,154.776,97.4584,95.8423,,0.088142,,168.025,0.149254,0.0,0.0
1970,492.25,35.0699,36.7502,148.261,97.4452,96.3475,,0.088162,,168.005,0.101117,0.0,0.0
1975,493.5,35.5045,36.8765,152.264,97.4712,96.0443,,,,167.995,0.131634,0.0,0.0
1980,494.75,35.291,36.6693,152.035,97.4704,96.4134,,,,167.975,0.0973215,0.0,0.0
1985,496,35.197,36.7248,147.024,97.4644,96.174,,,,167.965,0.118965,0.0,0.0
1990,497.25,35.5431,36.8792,148.425,97.4736,96.3449,,,,167.945,0.103956,0.0,0.0
1995,498.5,35.3478,36.7797,153.934,97.4956,96.1081,,,,167.955,0.127943,0.0,0.0
2000,499.75,35.1124,36.6074,150.246,97.4828,96.0387,,,,167.945,0.13321,0.0,0.0
2004,500.75,35.494,36.6764,152.018,97.498,95.832,,,,167.955,0.153833,0.0,0.0