File: 01_Data/PET/MCC/PET_MCC_30K_min_210927_R2.txt
Sample ID:	C:\MCC\MCC Cal\Test\PET_MCC_30K_min_210927_R2.txt
Sample Weight (mg):	4.49
Heating Rate (C/s):	0.5
Combustor Temp (C):	900
N2 Flow Rate (cc/min):	80
O2 Flow Rate (cc/min):	20
Calibration File:	C:\MCC\MCC Cal\Coeff1 JN10440_30_210304.txt.txt
T Correction Coefficients:	0	1.024463	0
Time Shift (s):	14
*
Time (s)	Temperature (C)	N2 flow rate (cc/min)	O2 flow rate (cc/min)	Flow Rate (cc/min)	Oxygen (%)	HRR (W/g)	Heating rate (C/s)
0.000	108.173	79.998	19.996	99.914	20.104	0.220	0.021
2.000	108.205	80.000	19.998	99.920	20.108	-0.034	0.034
4.000	108.158	80.001	19.996	99.915	20.105	0.174	0.009
6.000	108.149	80.000	19.995	99.918	20.104	0.229	-0.022
8.000	108.130	79.999	19.994	99.925	20.102	0.370	0.012
10.000	108.128	80.000	19.995	99.940	20.105	0.148	-0.018
12.000	108.133	79.999	19.996	99.937	20.102	0.387	0.012
14.000	108.144	80.000	19.995	99.948	20.098	0.685	0.027
16.000	108.152	79.999	19.994	99.953	20.099	0.592	0.021
18.000	108.177	79.998	19.995	99.957	20.094	0.964	0.013
20.000	108.195	79.999	19.997	99.977	20.093	1.019	-0.012
22.000	108.299	80.000	19.997	100.007	20.093	1.038	0.051
24.000	108.316	79.999	19.995	100.019	20.086	1.480	0.042
26.000	108.393	80.000	19.996	100.024	20.087	1.401	0.029
28.000	108.496	80.001	19.995	100.036	20.084	1.615	0.023
30.000	108.636	80.000	19.995	100.045	20.081	1.819	0.061
32.000	108.803	80.001	19.994	100.033	20.082	1.760	0.062
34.000	108.992	79.999	19.995	100.053	20.077	2.111	0.082
36.000	109.175	80.000	19.994	100.079	20.075	2.288	0.098
38.000	109.362	79.998	19.994	100.093	20.071	2.508	0.088
40.000	109.607	79.998	19.993	100.106	20.069	2.673	0.100
42.000	109.894	79.996	19.995	100.116	20.067	2.842	0.117
44.000	110.129	79.998	19.996	100.117	20.067	2.845	0.139
46.000	110.497	79.997	19.995	100.126	20.064	3.031	0.202
48.000	110.856	79.997	19.995	100.128	20.067	2.803	0.202
50.000	111.224	79.997	19.995	100.112	20.065	2.948	0.180
52.000	111.624	79.996	19.995	100.112	20.066	2.917	0.177
54.000	111.978	79.997	19.996	100.121	20.062	3.141	0.180
56.000	112.427	79.996	19.997	100.132	20.061	3.225	0.198
58.000	112.884	79.997	19.997	100.143	20.061	3.223	0.203
60.001	113.343	79.999	19.995	100.147	20.063	3.109	0.227
62.000	113.846	79.999	19.995	100.147	20.059	3.407	0.265
64.000	114.376	79.998	19.995	100.145	20.057	3.544	0.275
66.000	114.883	79.998	19.996	100.147	20.057	3.516	0.255
68.000	115.441	79.997	19.994	100.147	20.059	3.371	0.253
70.000	116.033	79.998	19.995	100.147	20.058	3.464	0.302
72.000	116.575	79.995	19.996	100.148	20.058	3.478	0.296
74.000	117.172	79.997	19.997	100.146	20.054	3.704	0.310
76.000	117.801	79.997	19.995	100.148	20.056	3.609	0.270
78.000	118.397	79.997	19.995	100.148	20.059	3.401	0.296
80.000	119.030	79.998	19.996	100.149	20.060	3.337	0.297
82.000	119.644	79.998	19.996	100.153	20.056	3.565	0.280
84.000	120.302	79.999	19.996	100.155	20.061	3.267	0.330
86.000	120.940	79.999	19.995	100.156	20.060	3.324	0.301
88.000	121.634	80.000	19.997	100.148	20.057	3.497	0.338
90.000	122.332	79.999	19.995	100.147	20.055	3.639	0.376
92.000	123.055	80.000	19.995	100.151	20.054	3.707	0.364
94.000	123.737	79.999	19.995	100.155	20.058	3.447	0.324
96.000	124.462	79.998	19.996	100.152	20.056	3.590	0.372
98.000	125.277	79.999	19.994	100.151	20.057	3.517	0.406
100.000	125.946	79.997	19.996	100.150	20.056	3.607	0.355
102.000	126.657	79.999	19.996	100.152	20.060	3.316	0.376
104.000	127.408	79.998	19.995	100.151	20.057	3.484	0.389
106.000	128.165	79.999	19.996	100.154	20.057	3.529	0.382
108.000	128.931	80.000	19.994	100.149	20.059	3.358	0.379
110.001	129.685	80.000	19.996	100.152	20.054	3.685	0.356
112.000	130.480	80.000	19.995	100.157	20.056	3.595	0.411
114.000	131.303	80.000	19.994	100.159	20.055	3.679	0.433
116.000	132.044	79.999	19.995	100.160	20.056	3.613	0.401
118.000	132.841	79.998	19.995	100.163	20.052	3.888	0.397
120.000	133.651	79.998	19.995	100.127	20.055	3.622	0.365
122.000	134.486	79.998	19.996	100.175	20.053	3.804	0.435
124.000	135.312	79.998	19.995	100.180	20.054	3.742	0.428
126.000	136.078	79.997	19.996	100.155	20.053	3.789	0.404
128.000	136.922	79.998	19.995	100.152	20.052	3.831	0.424
130.000	137.750	79.999	19.996	100.150	20.051	3.943	0.439
132.000	138.655	79.997	19.996	100.150	20.052	3.873	0.439
134.000	139.408	79.998	19.995	100.151	20.053	3.782	0.380
136.000	140.266	79.996	19.997	100.151	20.050	3.980	0.429
138.000	141.153	79.997	19.996	100.148	20.052	3.846	0.421
140.000	141.987	79.998	19.997	100.151	20.053	3.819	0.428
142.000	142.808	79.996	19.998	100.150	20.052	3.877	0.397
144.000	143.693	79.997	19.997	100.154	20.048	4.118	0.426
146.000	144.614	79.998	19.997	100.150	20.053	3.768	0.470
148.000	145.475	79.997	19.997	100.161	20.051	3.939	0.428
150.000	146.339	79.998	19.997	100.153	20.054	3.719	0.407
152.000	147.197	79.997	19.996	100.151	20.051	3.924	0.436
154.000	148.076	79.997	19.996	100.104	20.049	4.038	0.428
156.000	148.953	79.997	19.995	100.201	20.049	4.046	0.418
158.000	149.881	79.996	19.994	100.155	20.051	3.922	0.448
160.000	150.767	79.997	19.995	100.154	20.050	4.034	0.466
162.000	151.670	79.998	19.996	100.152	20.049	4.099	0.461
164.000	152.600	79.998	19.995	100.156	20.048	4.163	0.462
166.000	153.439	79.999	19.996	100.173	20.047	4.221	0.439
168.000	154.402	79.998	19.995	100.165	20.046	4.251	0.454
170.000	155.269	79.999	19.996	100.153	20.048	4.151	0.431
172.000	156.192	79.998	19.995	100.154	20.047	4.177	0.427
174.000	157.115	79.998	19.995	100.175	20.048	4.156	0.462
176.000	158.010	79.997	19.995	100.182	20.048	4.128	0.432
178.000	158.994	79.997	19.996	100.160	20.046	4.249	0.480
180.000	159.936	79.996	19.995	100.160	20.048	4.163	0.481
182.000	160.852	79.997	19.996	100.170	20.050	3.983	0.462
184.000	161.772	79.997	19.993	100.172	20.048	4.148	0.456
186.000	162.780	79.997	19.994	100.169	20.047	4.220	0.494
188.000	163.705	79.999	19.995	100.152	20.051	3.945	0.488
190.000	164.677	79.999	19.994	100.152	20.052	3.869	0.498
192.000	165.628	80.001	19.995	100.148	20.051	3.912	0.482
194.000	166.637	79.999	19.995	100.154	20.053	3.804	0.489
196.000	167.592	80.001	19.994	100.152	20.053	3.770	0.489
198.000	168.545	79.999	19.994	100.149	20.050	3.989	0.486
200.000	169.558	80.000	19.996	100.152	20.047	4.188	0.499
202.000	170.497	79.998	19.996	100.148	20.053	3.823	0.451
204.000	171.499	79.998	19.996	100.151	20.053	3.812	0.504
206.000	172.521	79.997	19.995	100.152	20.052	3.859	0.497
208.000	173.488	79.997	19.996	100.151	20.052	3.842	0.514
210.000	174.449	79.997	19.996	100.148	20.053	3.821	0.477
212.000	175.451	79.997	19.996	100.145	20.054	3.726	0.526
214.000	176.439	79.998	19.996	100.145	20.052	3.836	0.483
216.000	177.399	79.998	19.994	100.147	20.050	3.994	0.493
218.000	178.414	79.997	19.995	100.148	20.051	3.895	0.493
220.000	179.398	79.998	19.995	100.147	20.050	4.026	0.497
222.000	180.390	79.998	19.998	100.147	20.049	4.040	0.495
224.000	181.447	79.997	19.995	100.147	20.048	4.123	0.531
226.000	182.436	79.999	19.995	100.147	20.048	4.123	0.531
228.000	183.453	79.997	19.995	100.145	20.050	4.028	0.521
230.000	184.424	79.997	19.996	100.148	20.050	3.981	0.499
232.000	185.449	79.996	19.996	100.149	20.051	3.907	0.516
234.000	186.437	79.996	19.997	100.146	20.049	4.091	0.522
236.000	187.464	79.997	19.997	100.148	20.055	3.682	0.521
238.000	188.477	79.995	19.997	100.145	20.055	3.663	0.518
240.000	189.433	79.997	19.995	100.148	20.053	3.795	0.467
242.000	190.475	79.996	19.997	100.141	20.053	3.775	0.482
244.000	191.486	79.996	19.996	100.143	20.058	3.473	0.497
246.000	192.520	79.997	19.996	100.138	20.057	3.544	0.530
248.000	193.570	79.998	19.996	100.140	20.053	3.770	0.530
250.000	194.537	79.999	19.995	100.145	20.049	4.085	0.486
252.000	195.574	79.998	19.995	100.145	20.053	3.789	0.521
254.000	196.563	79.999	19.995	100.132	20.053	3.790	0.504
256.000	197.531	79.999	19.995	100.141	20.051	3.910	0.471
258.000	198.570	79.998	19.996	100.142	20.055	3.646	0.523
260.000	199.540	79.997	19.995	100.142	20.057	3.496	0.461
262.000	200.554	79.998	19.996	100.144	20.054	3.739	0.484
264.000	201.521	79.997	19.996	100.141	20.058	3.417	0.483
266.000	202.562	79.998	19.996	100.131	20.056	3.565	0.523
268.000	203.550	79.998	19.996	100.143	20.056	3.604	0.492
270.000	204.577	79.998	19.995	100.143	20.058	3.471	0.530
272.000	205.581	80.000	19.995	100.139	20.057	3.523	0.496
274.000	206.618	80.000	19.996	100.135	20.056	3.596	0.525
276.000	207.625	79.999	19.995	100.141	20.054	3.702	0.513
278.000	208.599	80.000	19.996	100.137	20.052	3.858	0.475
280.000	209.609	79.999	19.995	100.129	20.049	4.099	0.537
282.000	210.563	79.999	19.994	100.134	20.051	3.894	0.495
284.000	211.593	79.999	19.994	100.130	20.048	4.122	0.483
286.000	212.588	79.998	19.996	100.112	20.048	4.103	0.482
288.000	213.569	79.998	19.994	100.124	20.048	4.120	0.471
290.000	214.562	79.998	19.994	100.115	20.054	3.752	0.483
292.000	215.545	79.996	19.995	100.120	20.055	3.621	0.500
294.000	216.494	79.996	19.994	100.115	20.052	3.889	0.494
296.000	217.542	79.996	19.995	100.121	20.054	3.695	0.499
298.000	218.496	79.997	19.995	100.132	20.054	3.702	0.452
300.000	219.502	79.996	19.996	100.116	20.053	3.805	0.492
302.000	220.512	79.997	19.997	100.115	20.051	3.910	0.502
304.000	221.498	79.998	19.996	100.125	20.056	3.588	0.495
306.000	222.493	79.998	19.995	100.125	20.054	3.735	0.486
308.000	223.499	79.997	19.996	100.113	20.055	3.662	0.487
310.000	224.563	79.997	19.995	100.120	20.058	3.461	0.520
312.000	225.548	79.997	19.995	100.126	20.057	3.520	0.507
314.000	226.520	79.997	19.996	100.121	20.056	3.596	0.486
316.000	227.508	79.996	19.995	100.113	20.056	3.592	0.481
318.000	228.529	79.996	19.995	100.118	20.057	3.487	0.434
320.000	229.569	79.997	19.997	100.111	20.054	3.708	0.523
322.000	230.547	79.997	19.996	100.126	20.057	3.535	0.510
324.000	231.568	79.996	19.996	100.109	20.059	3.374	0.464
326.000	232.551	79.998	19.997	100.115	20.058	3.434	0.435
328.000	233.571	79.996	19.997	100.110	20.057	3.535	0.525
330.000	234.566	79.997	19.996	100.105	20.056	3.609	0.522
332.000	235.535	79.999	19.997	100.106	20.057	3.542	0.501
334.000	236.520	79.997	19.996	100.106	20.060	3.283	0.482
336.000	237.499	79.999	19.996	100.107	20.056	3.601	0.496
338.000	238.499	79.999	19.996	100.104	20.055	3.636	0.506
340.000	239.472	79.999	19.996	100.106	20.056	3.567	0.474
342.000	240.477	79.999	19.994	100.100	20.056	3.569	0.482
344.000	241.445	79.998	19.997	100.108	20.055	3.618	0.514
346.000	242.432	79.999	19.995	100.111	20.057	3.514	0.497
348.000	243.440	79.999	19.995	100.108	20.054	3.723	0.535
350.000	244.430	79.997	19.995	100.108	20.052	3.850	0.478
352.000	245.417	80.000	19.995	100.108	20.055	3.658	0.486
354.000	246.395	79.999	19.994	100.113	20.052	3.888	0.472
356.000	247.372	79.999	19.996	100.106	20.052	3.848	0.495
358.000	248.339	79.999	19.995	100.109	20.052	3.858	0.483
360.000	249.340	80.000	19.995	100.108	20.053	3.787	0.520
362.000	250.364	80.000	19.994	100.110	20.052	3.866	0.474
364.000	251.334	80.000	19.995	100.109	20.054	3.746	0.493
366.000	252.319	79.999	19.994	100.108	20.056	3.554	0.468
368.000	253.298	79.998	19.995	100.106	20.053	3.769	0.462
370.000	254.284	79.998	19.995	100.106	20.051	3.947	0.477
372.000	255.288	79.997	19.995	100.111	20.051	3.913	0.520
374.000	256.251	79.997	19.995	100.114	20.056	3.592	0.482
376.000	257.247	79.997	19.994	100.110	20.056	3.592	0.494
378.000	258.261	79.997	19.996	100.111	20.056	3.564	0.500
380.000	259.267	79.997	19.994	100.110	20.057	3.510	0.498
382.000	260.271	79.997	19.995	100.112	20.056	3.565	0.512
384.000	261.236	79.999	19.995	100.112	20.051	3.947	0.484
386.000	262.214	79.998	19.995	100.110	20.054	3.711	0.502
388.000	263.207	79.998	19.995	100.110	20.056	3.605	0.500
390.000	264.229	79.997	19.995	100.106	20.055	3.662	0.517
392.000	265.244	79.997	19.996	100.094	20.056	3.579	0.507
394.000	266.250	79.998	19.995	100.103	20.056	3.611	0.513
396.000	267.244	79.996	19.996	100.105	20.054	3.725	0.501
398.000	268.231	79.997	19.995	100.105	20.059	3.398	0.494
400.000	269.257	79.998	19.996	100.107	20.054	3.747	0.507
402.000	270.258	79.996	19.996	100.107	20.055	3.647	0.505
404.000	271.281	79.996	19.995	100.103	20.054	3.727	0.533
406.000	272.308	79.997	19.996	100.102	20.053	3.810	0.521
408.000	273.324	79.998	19.996	100.108	20.058	3.430	0.496
410.000	274.323	79.999	19.995	100.104	20.052	3.825	0.527
412.000	275.337	79.998	19.996	100.104	20.054	3.745	0.517
414.000	276.336	79.998	19.994	100.106	20.058	3.453	0.500
416.000	277.333	80.000	19.997	100.106	20.053	3.765	0.504
418.000	278.342	80.001	19.996	100.106	20.049	4.086	0.490
420.000	279.358	79.999	19.996	100.104	20.052	3.877	0.516
422.000	280.361	79.999	19.996	100.100	20.054	3.748	0.536
424.000	281.313	79.996	19.996	100.106	20.056	3.548	0.470
426.000	282.307	79.996	19.997	100.119	20.052	3.833	0.484
428.000	283.311	79.997	19.997	100.053	20.055	3.672	0.508
430.000	284.339	79.998	19.997	100.143	20.051	3.943	0.511
432.000	285.307	79.998	19.995	100.125	20.054	3.744	0.474
434.000	286.283	79.999	19.995	100.108	20.055	3.655	0.477
436.000	287.355	79.997	19.995	100.109	20.054	3.698	0.507
438.000	288.354	80.000	19.995	100.110	20.054	3.732	0.482
440.000	289.346	79.999	19.996	100.109	20.056	3.586	0.456
442.000	290.376	79.999	19.995	100.110	20.051	3.893	0.535
444.000	291.413	80.000	19.995	100.109	20.051	3.901	0.514
446.000	292.422	79.999	19.993	100.107	20.050	4.025	0.530
448.000	293.412	80.000	19.994	100.108	20.049	4.082	0.487
450.000	294.445	79.999	19.994	100.109	20.054	3.744	0.530
452.000	295.424	79.998	19.995	100.102	20.053	3.762	0.510
454.000	296.480	79.997	19.996	100.093	20.053	3.761	0.505
456.000	297.473	79.998	19.994	100.105	20.046	4.268	0.513
458.000	298.464	79.998	19.995	100.103	20.052	3.863	0.509
460.000	299.448	79.999	19.995	100.104	20.047	4.237	0.518
462.000	300.511	79.998	19.995	100.100	20.049	4.040	0.507
464.000	301.507	79.999	19.995	100.099	20.057	3.514	0.503
466.000	302.549	79.997	19.995	100.097	20.048	4.108	0.482
468.000	303.488	79.998	19.995	100.103	20.049	4.072	0.486
470.000	304.429	79.997	19.994	100.105	20.055	3.670	0.434
472.000	305.525	79.998	19.994	100.104	20.055	3.645	0.510
474.000	306.509	79.998	19.993	100.108	20.055	3.656	0.407
476.000	307.410	79.996	19.995	100.099	20.052	3.852	0.562
478.000	308.488	79.999	19.995	100.101	20.051	3.916	0.476
480.000	309.584	79.996	19.995	100.105	20.051	3.943	0.697
482.000	310.569	79.997	19.995	100.107	20.049	4.064	0.812
484.000	311.637	79.995	19.996	100.106	20.048	4.144	0.449
486.000	312.734	79.996	19.995	100.107	20.050	4.011	0.461
488.000	313.684	79.998	19.997	100.107	20.047	4.191	0.524
490.000	314.639	79.995	19.996	100.100	20.054	3.732	0.435
492.000	315.708	79.997	19.995	100.099	20.050	4.003	0.501
494.000	316.711	79.997	19.995	100.098	20.056	3.607	0.528
496.000	317.629	79.997	19.995	100.102	20.050	4.008	0.507
498.000	318.649	79.998	19.995	100.093	20.053	3.804	0.473
500.000	319.604	79.999	19.996	100.099	20.048	4.112	0.468
502.000	320.654	79.997	19.993	100.101	20.052	3.829	0.511
504.000	321.646	79.996	19.994	100.093	20.053	3.802	0.478
506.000	322.681	79.997	19.996	100.103	20.053	3.768	0.531
508.000	323.618	79.997	19.996	100.107	20.050	3.985	0.507
510.000	324.612	79.997	19.995	100.099	20.044	4.381	0.510
512.000	325.615	79.998	19.994	100.108	20.050	4.026	0.515
514.000	326.590	79.996	19.995	100.100	20.050	4.026	0.505
516.000	327.651	79.996	19.996	100.096	20.052	3.852	0.506
518.000	328.659	79.998	19.997	100.101	20.049	4.066	0.542
520.000	329.618	80.000	19.997	100.102	20.052	3.863	0.478
522.000	330.606	80.002	19.998	100.099	20.050	4.021	0.485
524.000	331.613	80.001	19.995	100.100	20.048	4.127	0.518
526.000	332.624	80.000	19.995	100.102	20.050	3.988	0.501
528.000	333.587	80.000	19.995	100.104	20.047	4.207	0.500
530.000	334.623	80.000	19.994	100.103	20.051	3.945	0.489
532.000	335.640	79.998	19.994	100.102	20.047	4.177	0.501
534.000	336.661	79.998	19.996	100.101	20.046	4.304	0.469
536.000	337.649	79.996	19.994	100.101	20.047	4.220	0.499
538.000	338.679	79.997	19.995	100.104	20.043	4.455	0.502
540.000	339.670	79.999	19.995	100.104	20.045	4.328	0.515
542.000	340.649	79.999	19.994	100.106	20.047	4.229	0.501
544.000	341.680	79.998	19.995	100.107	20.044	4.442	0.533
546.000	342.608	79.998	19.994	100.106	20.048	4.120	0.449
548.000	343.614	79.997	19.995	100.102	20.045	4.380	0.495
550.000	344.647	79.996	19.995	100.104	20.046	4.253	0.514
552.000	345.605	79.999	19.995	100.098	20.045	4.363	0.478
554.000	346.671	79.999	19.995	100.107	20.043	4.486	0.520
556.000	347.671	79.997	19.995	100.108	20.043	4.509	0.500
558.000	348.684	79.997	19.994	100.109	20.041	4.646	0.500
560.000	349.668	79.997	19.995	100.108	20.043	4.473	0.519
562.000	350.744	79.997	19.994	100.108	20.040	4.663	0.529
564.000	351.753	80.000	19.995	100.109	20.044	4.420	0.520
566.000	352.759	79.999	19.995	100.110	20.039	4.788	0.514
568.000	353.813	79.996	19.993	100.109	20.040	4.678	0.537
570.000	354.797	79.997	19.994	100.109	20.041	4.634	0.469
572.000	355.822	80.000	19.995	100.110	20.038	4.853	0.517
574.000	356.813	79.998	19.995	100.111	20.043	4.480	0.484
576.000	357.861	79.997	19.996	100.111	20.037	4.919	0.520
578.000	358.858	79.999	19.996	100.112	20.036	4.966	0.522
580.000	359.863	80.000	19.995	100.109	20.034	5.143	0.481
582.000	360.939	79.999	19.994	100.108	20.033	5.158	0.528
584.000	361.958	79.999	19.996	100.106	20.035	5.065	0.504
586.000	362.921	79.996	19.995	100.102	20.032	5.228	0.495
588.000	363.964	80.000	19.996	100.105	20.033	5.168	0.547
590.000	364.968	79.998	19.995	100.106	20.032	5.251	0.530
592.000	365.985	79.998	19.996	100.103	20.031	5.320	0.502
594.000	366.972	79.999	19.995	100.102	20.026	5.650	0.506
596.000	368.003	79.996	19.995	100.107	20.026	5.684	0.511
598.000	369.019	79.997	19.995	100.109	20.020	6.103	0.493
600.000	370.061	80.000	19.995	100.108	20.014	6.495	0.528
602.000	371.088	80.000	19.995	100.109	20.009	6.818	0.499
604.000	372.109	80.003	19.995	100.107	20.002	7.355	0.540
606.000	373.177	80.003	19.996	100.106	19.999	7.579	0.545
608.000	374.173	80.000	19.995	100.106	19.995	7.791	0.487
610.000	375.223	80.000	19.997	100.104	19.992	8.060	0.499
612.000	376.251	79.998	19.996	100.110	19.983	8.646	0.541
614.000	377.247	79.998	19.996	100.114	19.983	8.691	0.479
616.000	378.254	79.997	19.995	100.108	19.976	9.115	0.519
618.000	379.243	79.998	19.996	100.112	19.967	9.777	0.474
620.000	380.306	79.996	19.997	100.123	19.961	10.224	0.541
622.000	381.337	79.998	19.996	100.127	19.958	10.383	0.523
624.000	382.337	79.995	19.995	100.135	19.946	11.230	0.519
626.000	383.333	79.996	19.995	100.133	19.932	12.201	0.506
628.000	384.422	79.999	19.995	100.139	19.926	12.611	0.516
630.000	385.457	79.999	19.995	100.144	19.910	13.764	0.505
632.000	386.490	79.998	19.994	100.149	19.896	14.711	0.502
634.000	387.542	79.997	19.993	100.144	19.880	15.818	0.521
636.000	388.554	79.998	19.996	100.150	19.865	16.870	0.501
638.000	389.586	79.999	19.994	100.152	19.846	18.193	0.524
640.000	390.630	79.998	19.994	100.150	19.828	19.461	0.512
642.000	391.637	79.999	19.995	100.158	19.804	21.130	0.518
644.000	392.672	79.998	19.995	100.160	19.780	22.830	0.508
646.000	393.688	79.997	19.995	100.166	19.758	24.327	0.532
648.000	394.694	79.997	19.996	100.181	19.730	26.266	0.518
650.000	395.729	79.997	19.994	100.180	19.701	28.330	0.505
652.000	396.751	79.996	19.995	100.185	19.668	30.604	0.505
654.000	397.764	79.996	19.995	100.188	19.637	32.782	0.507
656.000	398.783	79.999	19.995	100.185	19.607	34.883	0.514
658.000	399.810	80.000	19.995	100.189	19.576	37.045	0.549
660.000	400.794	80.000	19.994	100.218	19.535	39.876	0.521
662.000	401.764	79.998	19.994	100.224	19.493	42.790	0.471
664.000	402.802	80.000	19.994	100.231	19.445	46.181	0.515
666.000	403.793	79.999	19.995	100.254	19.399	49.375	0.494
668.000	404.783	79.999	19.994	100.256	19.343	53.287	0.500
670.000	405.755	80.001	19.994	100.262	19.291	56.915	0.490
672.000	406.766	80.000	19.995	100.263	19.239	60.583	0.519
674.000	407.738	79.999	19.994	100.264	19.187	64.173	0.485
676.000	408.738	79.998	19.996	100.284	19.128	68.318	0.510
678.000	409.723	80.000	19.995	100.303	19.067	72.598	0.515
680.000	410.775	79.999	19.996	100.319	18.997	77.469	0.523
682.000	411.733	79.997	19.995	100.345	18.923	82.687	0.510
684.000	412.720	79.998	19.994	100.371	18.855	87.430	0.465
686.000	413.773	80.000	19.995	100.365	18.778	92.797	0.511
688.000	414.705	79.999	19.995	100.364	18.700	98.274	0.486
690.000	415.654	79.999	19.994	100.387	18.615	104.226	0.488
692.000	416.682	79.999	19.996	100.409	18.538	109.570	0.535
694.000	417.666	79.999	19.996	100.426	18.448	115.922	0.466
696.000	418.660	79.999	19.995	100.426	18.372	121.211	0.507
698.000	419.675	79.997	19.996	100.452	18.285	127.349	0.490
700.000	420.687	79.996	19.995	100.475	18.206	132.907	0.499
702.000	421.688	79.997	19.996	100.480	18.113	139.363	0.509
704.000	422.657	79.997	19.995	100.502	18.024	145.658	0.477
706.000	423.654	79.996	19.996	100.522	17.937	151.747	0.504
708.000	424.675	79.997	19.996	100.529	17.836	158.836	0.514
710.000	425.653	79.998	19.996	100.568	17.743	165.389	0.476
712.000	426.667	79.997	19.996	100.578	17.653	171.686	0.511
714.000	427.647	79.997	19.996	100.585	17.566	177.884	0.464
716.000	428.615	79.998	19.995	100.612	17.484	183.660	0.468
718.000	429.682	79.998	19.995	100.614	17.414	188.542	0.513
720.000	430.691	79.998	19.995	100.634	17.333	194.200	0.496
722.000	431.683	79.998	19.994	100.657	17.247	200.307	0.519
724.000	432.735	79.998	19.994	100.698	17.156	206.731	0.538
726.000	433.691	79.998	19.995	100.738	17.075	212.406	0.504
728.000	434.763	79.998	19.994	100.731	17.003	217.511	0.496
730.000	435.815	79.998	19.995	100.717	16.933	222.443	0.535
732.000	436.834	79.997	19.995	100.749	16.869	226.907	0.529
734.000	437.851	79.996	19.995	100.784	16.811	231.010	0.541
736.000	438.882	79.997	19.996	100.795	16.768	234.030	0.521
738.000	439.889	79.998	19.995	100.799	16.736	236.346	0.513
740.000	440.899	79.998	19.996	100.830	16.718	237.635	0.516
742.000	441.880	80.000	19.996	100.826	16.717	237.684	0.449
744.000	442.933	79.999	19.995	100.836	16.730	236.804	0.515
746.000	443.965	79.998	19.994	100.861	16.765	234.384	0.518
748.000	444.939	79.999	19.995	100.861	16.798	232.032	0.501
750.000	445.964	79.999	19.995	100.891	16.845	228.602	0.540
752.000	446.982	79.999	19.994	100.884	16.901	224.598	0.501
754.000	448.020	80.000	19.995	100.889	16.960	220.460	0.521
756.000	449.012	79.998	19.994	100.901	17.019	216.370	0.499
758.000	450.039	79.998	19.994	100.912	17.102	210.540	0.529
760.000	451.059	79.998	19.995	100.873	17.205	203.233	0.515
762.000	452.054	79.999	19.996	100.804	17.320	195.107	0.488
764.000	453.116	79.998	19.995	100.810	17.419	188.149	0.506
766.000	454.091	79.998	19.995	100.819	17.523	180.787	0.519
768.000	455.135	79.998	19.995	100.822	17.627	173.478	0.494
770.000	456.188	80.000	19.995	100.797	17.730	166.190	0.555
772.000	457.173	79.999	19.995	100.752	17.840	158.415	0.504
774.000	458.227	80.000	19.994	100.715	17.943	151.187	0.523
776.000	459.257	80.001	19.995	100.684	18.062	142.874	0.513
778.000	460.253	79.999	19.995	100.647	18.165	135.565	0.534
780.000	461.251	80.000	19.994	100.611	18.287	127.053	0.506
782.000	462.261	79.998	19.995	100.579	18.414	118.149	0.485
784.000	463.255	79.996	19.994	100.535	18.538	109.445	0.504
786.000	464.254	79.997	19.996	100.502	18.676	99.782	0.497
788.000	465.236	79.998	19.995	100.485	18.807	90.659	0.487
790.000	466.265	79.997	19.995	100.434	18.928	82.163	0.541
792.000	467.216	79.997	19.995	100.409	19.054	73.422	0.469
794.000	468.229	79.995	19.995	100.377	19.171	65.230	0.479
796.000	469.249	79.999	19.996	100.350	19.280	57.635	0.510
798.000	470.267	79.997	19.995	100.320	19.369	51.398	0.525
800.000	471.286	79.998	19.996	100.287	19.454	45.477	0.506
802.000	472.261	79.998	19.996	100.275	19.518	41.016	0.524
804.000	473.322	79.998	19.997	100.254	19.584	36.429	0.514
806.000	474.313	79.997	19.997	100.237	19.640	32.514	0.494
808.000	475.356	79.998	19.996	100.216	19.677	29.941	0.523
810.000	476.401	79.997	19.995	100.189	19.724	26.678	0.531
812.000	477.398	79.997	19.994	100.181	19.753	24.681	0.517
814.000	478.414	79.998	19.995	100.172	19.784	22.523	0.492
816.000	479.412	79.996	19.995	100.151	19.807	20.885	0.518
818.000	480.416	79.997	19.996	100.152	19.828	19.437	0.494
820.000	481.484	79.998	19.994	100.150	19.850	17.891	0.563
822.000	482.458	79.995	19.994	100.141	19.864	16.913	0.507
824.000	483.491	79.998	19.995	100.138	19.885	15.457	0.504
826.000	484.462	79.997	19.994	100.144	19.897	14.670	0.477
828.000	485.489	79.999	19.995	100.137	19.907	13.947	0.490
830.000	486.515	79.998	19.994	100.141	19.916	13.322	0.519
832.000	487.568	79.998	19.994	100.124	19.924	12.754	0.524
834.000	488.548	79.999	19.995	100.115	19.938	11.758	0.488
836.000	489.585	79.997	19.994	100.113	19.943	11.408	0.503
838.000	490.589	79.999	19.996	100.113	19.941	11.569	0.501
840.000	491.622	79.998	19.996	100.113	19.950	10.945	0.493
842.000	492.630	79.998	19.994	100.110	19.949	10.994	0.515
844.000	493.651	79.999	19.995	100.111	19.957	10.487	0.503
846.000	494.716	79.997	19.995	100.108	19.968	9.733	0.546
848.000	495.762	79.999	19.994	100.107	19.970	9.553	0.500
850.000	496.736	79.999	19.995	100.107	19.968	9.718	0.501
852.000	497.766	80.001	19.995	100.106	19.973	9.359	0.490
854.000	498.785	80.000	19.993	100.105	19.980	8.861	0.520
856.000	499.809	80.000	19.995	100.106	19.985	8.544	0.520
858.000	500.853	80.001	19.995	100.103	19.981	8.812	0.515
860.000	501.870	80.000	19.995	100.102	19.988	8.281	0.503
862.000	502.909	79.998	19.995	100.105	19.985	8.508	0.539
864.000	503.888	79.997	19.998	100.099	19.989	8.233	0.498
866.000	504.943	79.998	19.996	100.100	19.982	8.745	0.530
868.000	505.989	79.999	19.995	100.095	19.987	8.404	0.524
870.000	506.971	79.997	19.996	100.101	19.994	7.882	0.488
872.000	507.958	79.999	19.995	100.102	19.994	7.871	0.502
874.000	509.024	79.999	19.996	100.100	19.991	8.128	0.508
876.000	510.085	79.998	19.996	100.102	19.990	8.203	0.536
878.000	511.090	79.998	19.996	100.096	19.995	7.822	0.510
880.000	512.095	79.998	19.994	100.103	19.999	7.529	0.501
882.000	513.067	79.997	19.995	100.094	19.995	7.824	0.500
884.000	514.198	79.999	19.996	100.078	19.995	7.819	0.535
886.000	515.217	79.997	19.996	100.086	19.999	7.555	0.527
888.000	516.235	79.997	19.995	100.087	19.995	7.821	0.509
890.000	517.273	79.996	19.995	100.093	19.999	7.576	0.501
892.000	518.291	79.995	19.997	100.103	20.002	7.334	0.510
894.000	519.327	79.995	19.995	100.087	19.997	7.698	0.522
896.000	520.388	79.997	19.995	100.103	19.999	7.546	0.520
898.000	521.387	79.996	19.996	100.079	20.004	7.194	0.513
900.000	522.412	79.997	19.995	100.078	20.006	7.082	0.484
902.000	523.496	79.997	19.996	100.072	19.995	7.811	0.542
904.000	524.524	79.997	19.994	100.083	20.000	7.496	0.523
906.000	525.508	79.998	19.994	100.085	19.999	7.569	0.479
908.000	526.587	79.998	19.994	100.077	20.000	7.506	0.535
910.000	527.638	80.000	19.996	100.093	20.004	7.167	0.537
912.000	528.654	80.001	19.995	100.077	20.002	7.341	0.523
914.000	529.700	80.000	19.994	100.074	19.999	7.531	0.536
916.000	530.724	79.999	19.994	100.074	20.001	7.379	0.526
918.000	531.701	79.996	19.994	100.087	20.007	6.969	0.506
920.000	532.773	79.998	19.995	100.095	20.002	7.307	0.513
922.000	533.800	79.997	19.996	100.083	20.005	7.095	0.535
924.000	534.838	79.999	19.996	100.085	20.002	7.321	0.519
926.000	535.889	79.998	19.995	100.079	20.006	7.058	0.536
928.000	536.896	79.999	19.995	100.073	20.004	7.181	0.492
930.000	537.946	80.001	19.995	100.075	20.012	6.608	0.541
932.000	538.999	80.002	19.995	100.077	20.009	6.834	0.523
934.000	539.990	80.000	19.995	100.081	20.010	6.785	0.512
936.000	541.008	80.001	19.994	100.079	20.004	7.197	0.496
938.000	542.038	80.001	19.994	100.080	20.006	7.082	0.477
940.000	543.090	79.999	19.994	100.084	20.005	7.143	0.538
942.000	544.076	80.001	19.994	100.068	20.005	7.124	0.521
944.000	545.069	79.999	19.993	100.069	20.004	7.196	0.510
946.000	546.084	79.997	19.993	100.077	20.007	6.958	0.497
948.000	547.127	79.998	19.996	100.086	20.010	6.809	0.484
950.000	548.159	79.997	19.995	100.097	20.009	6.823	0.504
952.000	549.148	79.997	19.996	100.087	20.009	6.866	0.506
954.000	550.144	79.997	19.996	100.084	20.010	6.807	0.495
956.000	551.193	79.997	19.995	100.086	20.005	7.159	0.527
958.000	552.256	79.997	19.995	100.074	20.006	7.034	0.522
960.000	553.245	79.997	19.996	100.071	20.003	7.259	0.523
962.000	554.239	79.998	19.995	100.075	20.007	6.977	0.500
964.000	555.243	79.997	19.995	100.084	20.006	7.028	0.503
966.000	556.268	79.997	19.995	100.096	20.009	6.847	0.491
968.000	557.294	79.997	19.994	100.092	20.006	7.024	0.500
970.000	558.317	79.997	19.996	100.075	20.005	7.132	0.524
972.000	559.311	79.997	19.995	100.082	20.006	7.023	0.483
974.000	560.311	79.997	19.996	100.084	20.002	7.305	0.477
976.000	561.330	79.996	19.995	100.070	20.003	7.264	0.509
978.000	562.335	79.998	19.996	100.070	20.005	7.142	0.499
980.000	563.358	79.997	19.997	100.075	20.005	7.132	0.489
982.000	564.359	79.997	19.997	100.085	20.003	7.283	0.508
984.000	565.333	79.997	19.997	100.086	20.004	7.174	0.483
986.000	566.392	79.996	19.997	100.070	20.001	7.374	0.521
988.000	567.384	79.999	19.995	100.074	20.003	7.295	0.510
990.000	568.429	79.999	19.996	100.093	20.000	7.470	0.488
992.000	569.400	79.999	19.996	100.097	20.006	7.086	0.497
994.000	570.456	79.999	19.994	100.080	20.005	7.116	0.499
996.000	571.433	79.999	19.995	100.075	20.002	7.337	0.510
998.000	572.445	79.999	19.995	100.094	20.006	7.082	0.507
1000.000	573.516	80.000	19.994	100.096	20.004	7.190	0.532
1002.000	574.536	79.999	19.995	100.103	20.004	7.198	0.522
1004.000	575.558	80.000	19.994	100.093	20.007	7.015	0.487
1006.000	576.595	79.999	19.994	100.084	20.001	7.428	0.534
1008.000	577.622	79.999	19.994	100.083	20.004	7.220	0.525
1010.000	578.615	79.998	19.994	100.085	20.003	7.298	0.512
1012.000	579.647	79.998	19.993	100.096	20.003	7.249	0.490
1014.000	580.691	80.000	19.994	100.105	19.998	7.586	0.510
1016.000	581.640	80.000	19.995	100.103	19.998	7.601	0.498
1018.000	582.698	79.998	19.994	100.096	19.998	7.591	0.512
1020.000	583.657	80.000	19.994	100.087	19.995	7.848	0.489
1022.000	584.702	80.000	19.994	100.087	20.000	7.471	0.480
1024.000	585.686	79.998	19.994	100.098	19.998	7.627	0.514
1026.000	586.716	79.999	19.995	100.090	19.997	7.659	0.517
1028.000	587.706	79.997	19.994	100.084	19.997	7.650	0.538
1030.000	588.698	79.997	19.993	100.088	19.995	7.826	0.494
1032.001	589.705	79.999	19.995	100.088	19.997	7.697	0.494
1034.000	590.725	79.996	19.995	100.100	19.999	7.564	0.494
1036.000	591.765	79.997	19.994	100.090	19.998	7.634	0.562
1038.000	592.765	79.999	19.995	100.091	19.995	7.815	0.544
1040.000	593.792	79.999	19.996	100.094	19.999	7.539	0.525
1042.000	594.768	79.998	19.995	100.090	19.995	7.830	0.482
1044.001	595.799	79.997	19.996	100.091	19.995	7.824	0.486
1046.000	596.820	79.998	19.996	100.090	19.992	8.012	0.520
1048.000	597.856	79.998	19.995	100.097	19.995	7.857	0.508
1050.001	598.853	79.998	19.996	100.092	19.997	7.711	0.494
1052.000	599.855	79.998	19.996	100.091	19.996	7.726	0.497
1054.000	600.896	79.997	19.995	100.088	19.993	7.946	0.504
1056.001	601.878	79.997	19.996	100.093	19.996	7.787	0.464
1058.000	602.874	79.997	19.995	100.090	19.988	8.286	0.473
1060.000	603.903	79.997	19.995	100.099	19.993	7.941	0.500
1062.000	604.910	79.997	19.996	100.095	19.998	7.612	0.522
1064.000	605.935	79.998	19.996	100.099	19.995	7.807	0.500
1066.000	606.948	79.997	19.995	100.097	19.995	7.827	0.495
1068.000	607.993	79.997	19.996	100.103	19.993	7.943	0.484
1070.000	609.022	79.999	19.996	100.101	19.990	8.201	0.513
1072.000	610.026	79.998	19.995	100.101	19.994	7.867	0.502
1074.000	611.072	79.999	19.995	100.088	19.995	7.831	0.514
1076.000	612.089	79.998	19.996	100.090	19.993	7.996	0.517
1078.000	613.083	79.998	19.995	100.100	20.002	7.368	0.523
1080.000	614.130	79.998	19.995	100.100	19.994	7.907	0.482
1082.000	615.144	79.998	19.995	100.104	20.001	7.375	0.504
1084.000	616.206	79.998	19.995	100.104	19.998	7.637	0.523
1086.000	617.245	79.997	19.996	100.098	20.000	7.491	0.543
1088.000	618.234	79.997	19.995	100.100	19.998	7.628	0.535
1090.000	619.239	79.999	19.994	100.102	19.995	7.797	0.516
1092.000	620.281	79.999	19.994	100.099	19.996	7.732	0.524
1094.000	621.305	79.998	19.994	100.098	19.997	7.682	0.526
1096.000	622.304	79.998	19.994	100.107	19.996	7.775	0.517
1098.000	623.303	80.001	19.993	100.108	19.992	8.022	0.513
1100.001	624.327	79.998	19.994	100.108	19.993	7.958	0.492
1102.000	625.316	80.000	19.994	100.106	19.993	7.942	0.497
1104.000	626.336	80.002	19.995	100.104	19.996	7.766	0.508
1106.000	627.331	80.000	19.994	100.091	19.995	7.811	0.487
1108.000	628.329	79.999	19.994	100.093	19.996	7.736	0.482
1110.000	629.349	79.998	19.996	100.101	19.997	7.678	0.491
1112.000	630.301	79.998	19.994	100.094	19.993	7.985	0.488
1114.000	631.344	79.998	19.994	100.094	19.997	7.694	0.529
1116.001	632.356	79.997	19.994	100.096	20.002	7.339	0.483
1118.000	633.402	79.998	19.995	100.103	20.000	7.476	0.504
1120.000	634.418	79.999	19.995	100.094	19.999	7.516	0.515
1122.000	635.415	79.997	19.994	100.083	19.997	7.690	0.498
1124.000	636.504	79.999	19.995	100.084	20.000	7.463	0.534
1126.000	637.510	79.997	19.995	100.105	19.998	7.592	0.515
1128.000	638.545	79.999	19.995	100.100	20.002	7.339	0.521
1130.000	639.543	79.999	19.993	100.101	20.000	7.484	0.503
1132.001	640.568	79.999	19.993	100.106	20.001	7.412	0.509
1134.001	641.586	79.998	19.993	100.102	20.001	7.412	0.520
1136.000	642.599	79.997	19.994	100.107	20.005	7.095	0.506
1138.000	643.634	79.996	19.995	100.105	20.006	7.057	0.548
1140.000	644.626	79.997	19.995	100.104	20.001	7.420	0.499
1142.000	645.625	79.997	19.995	100.107	20.004	7.202	0.474
1144.000	646.687	79.997	19.996	100.106	20.006	7.070	0.513
1146.000	647.670	79.998	19.995	100.109	20.002	7.341	0.515
1148.000	648.680	79.996	19.995	100.109	20.003	7.302	0.544
1150.000	649.718	79.997	19.995	100.104	19.998	7.596	0.533
1152.000	650.705	79.998	19.995	100.094	20.000	7.471	0.496
1154.001	651.714	79.999	19.993	100.103	19.999	7.579	0.458
1156.000	652.770	79.999	19.994	100.107	19.999	7.575	0.519
1158.001	653.750	79.998	19.994	100.110	20.002	7.317	0.506
1160.000	654.804	79.999	19.995	100.109	20.002	7.316	0.514
1162.001	655.799	79.997	19.995	100.110	19.998	7.603	0.494
1164.000	656.821	79.998	19.995	100.107	20.003	7.288	0.477
1166.000	657.863	79.998	19.996	100.109	20.000	7.499	0.518
1168.000	658.874	79.997	19.996	100.103	20.001	7.432	0.503
1170.000	659.900	79.997	19.995	100.105	19.998	7.618	0.534
1172.000	660.997	79.997	19.995	100.097	20.003	7.246	0.519
1174.000	661.952	79.999	19.997	100.105	20.000	7.493	0.512
1176.000	662.955	79.999	19.996	100.105	20.001	7.387	0.489
1178.000	663.979	80.000	19.995	100.104	20.001	7.400	0.506
1180.000	665.023	80.001	19.995	100.102	19.999	7.541	0.507
1182.000	666.016	80.000	19.994	100.104	20.002	7.364	0.487
1184.000	667.085	80.001	19.994	100.106	19.998	7.617	0.461
1186.000	668.066	80.001	19.995	100.106	20.000	7.467	0.503
1188.000	669.071	80.000	19.995	100.102	19.999	7.522	0.521
1190.000	670.122	80.000	19.995	100.106	19.994	7.863	0.529
1192.000	671.131	79.997	19.995	100.106	20.000	7.489	0.516
1194.000	672.160	79.997	19.996	100.105	19.998	7.627	0.529
1196.000	673.187	79.999	19.994	100.107	19.997	7.698	0.538
1198.000	674.202	79.998	19.995	100.109	20.001	7.379	0.522
1200.000	675.259	79.998	19.994	100.106	19.999	7.548	0.514
1202.001	676.258	79.997	19.995	100.107	20.001	7.385	0.509
1204.001	677.284	79.997	19.994	100.097	20.002	7.326	0.480
1206.000	678.320	79.997	19.995	100.097	20.000	7.446	0.506
1208.000	679.318	79.997	19.994	100.106	20.003	7.268	0.505
1210.001	680.377	80.000	19.995	100.108	20.001	7.406	0.523
1212.000	681.390	79.995	19.995	100.104	19.997	7.666	0.528
1214.000	682.380	79.999	19.994	100.109	20.004	7.167	0.486
1216.001	683.388	79.999	19.995	100.109	20.004	7.220	0.493
1218.000	684.446	80.000	19.995	100.111	20.000	7.463	0.494
1220.001	685.481	79.999	19.996	100.108	19.999	7.562	0.535
1222.000	686.462	80.000	19.995	100.106	20.001	7.404	0.498
1224.000	687.519	79.998	19.996	100.100	19.999	7.531	0.504
1226.000	688.503	79.998	19.995	100.111	20.004	7.179	0.500
1228.000	689.571	79.997	19.994	100.108	19.998	7.644	0.521
1230.001	690.568	79.997	19.995	100.107	20.000	7.442	0.511
1232.000	691.572	80.001	19.995	100.110	19.999	7.561	0.488
1234.000	692.582	80.000	19.996	100.111	19.999	7.571	0.502
1236.000	693.643	80.001	19.995	100.108	20.000	7.468	0.495
1238.001	694.654	80.000	19.995	100.097	20.001	7.402	0.496
1240.000	695.680	80.002	19.995	100.102	19.996	7.774	0.488
1242.000	696.708	79.998	19.995	100.103	20.002	7.318	0.501
1244.000	697.730	80.000	19.995	100.104	20.000	7.499	0.496
1246.000	698.767	79.999	19.995	100.107	20.001	7.389	0.505
1248.000	699.763	80.001	19.994	100.105	20.000	7.491	0.534
1250.000	700.780	79.999	19.994	100.103	19.998	7.620	0.523
1252.000	701.817	80.000	19.995	100.106	19.997	7.675	0.508
1254.000	702.824	79.999	19.995	100.100	19.997	7.662	0.503
1256.000	703.846	79.999	19.994	100.107	19.996	7.768	0.524
1258.000	704.839	80.000	19.994	100.103	19.990	8.144	0.472
1260.000	705.894	80.000	19.998	100.105	19.997	7.690	0.566
1262.000	706.873	79.999	19.995	100.104	19.995	7.856	0.527
1264.000	707.861	80.000	19.996	100.105	19.998	7.624	0.493
1266.000	708.938	80.000	19.995	100.104	19.999	7.524	0.548
1268.000	709.912	80.000	19.994	100.104	19.997	7.692	0.525
1270.000	710.923	80.000	19.995	100.104	20.001	7.429	0.525
1272.001	711.936	79.999	19.995	100.104	20.000	7.475	0.501
1274.000	712.933	79.998	19.996	100.108	19.999	7.524	0.494
1276.000	713.990	79.998	19.995	100.106	20.001	7.376	0.502
1278.000	715.032	79.998	19.994	100.105	19.998	7.583	0.542
1280.000	716.094	79.997	19.996	100.106	20.003	7.283	0.532
1282.000	717.094	79.999	19.995	100.110	20.000	7.484	0.504
1284.000	718.130	79.999	19.994	100.110	20.000	7.499	0.509
1286.000	719.136	79.998	19.995	100.109	19.999	7.526	0.482
1288.000	720.190	79.998	19.994	100.110	20.001	7.397	0.531
1290.000	721.225	80.002	19.995	100.108	20.002	7.334	0.490
1292.000	722.250	79.997	19.995	100.110	19.999	7.524	0.511
1294.000	723.309	79.997	19.995	100.109	20.000	7.508	0.520
1296.000	724.266	80.001	19.994	100.109	19.998	7.617	0.498
1298.000	725.302	79.998	19.996	100.110	19.999	7.579	0.494
1300.000	726.347	79.999	19.995	100.109	20.001	7.437	0.525
1302.001	727.359	79.999	19.995	100.108	20.000	7.501	0.529
1304.000	728.306	80.000	19.994	100.108	19.998	7.596	0.482
1306.000	729.318	79.998	19.995	100.106	19.999	7.528	0.490
1308.000	730.335	80.000	19.996	100.105	20.000	7.510	0.538
1310.000	731.341	79.998	19.995	100.108	20.002	7.354	0.502
1312.000	732.376	79.998	19.995	100.111	20.001	7.436	0.528
1314.001	733.364	79.999	19.995	100.106	19.999	7.565	0.522
1316.000	734.403	79.998	19.994	100.108	19.996	7.778	0.523
1318.000	735.404	80.000	19.995	100.108	19.999	7.541	0.501
1320.000	736.403	79.999	19.995	100.106	19.996	7.734	0.494
1322.001	737.394	80.001	19.995	100.105	19.997	7.711	0.520
1324.000	738.395	79.998	19.995	100.105	19.996	7.730	0.480
1326.000	739.396	79.999	19.995	100.103	19.995	7.793	0.512
1328.000	740.431	79.999	19.996	100.104	19.993	7.952	0.499
1330.000	741.397	80.000	19.994	100.105	19.995	7.837	0.472
1332.000	742.439	80.000	19.995	100.104	19.998	7.649	0.521
1334.000	743.471	79.999	19.994	100.106	19.996	7.738	0.493