File: 01_Data/PET/MCC/PET_MCC_30K_min_210922_R1.txt
Sample ID:	C:\MCC\MCC Cal\Test\PET_MCC_30K_min_210922_R1.txt
Sample Weight (mg):	4.35
Heating Rate (C/s):	0.5
Combustor Temp (C):	900
N2 Flow Rate (cc/min):	80
O2 Flow Rate (cc/min):	20
Calibration File:	C:\MCC\MCC Cal\Coeff1 JN10440_30_210304.txt.txt
T Correction Coefficients:	0	1.024463	0
Time Shift (s):	14
*
Time (s)	Temperature (C)	N2 flow rate (cc/min)	O2 flow rate (cc/min)	Flow Rate (cc/min)	Oxygen (%)	HRR (W/g)	Heating rate (C/s)
0.000	106.392	80.007	19.996	100.009	20.171	-0.240	-0.014
2.000	106.384	80.006	19.996	100.006	20.170	-0.179	-0.015
4.000	106.359	80.007	19.995	100.016	20.166	0.109	-0.016
6.000	106.406	80.004	19.996	100.018	20.164	0.271	0.008
8.000	106.423	80.005	19.996	100.018	20.166	0.086	0.000
10.001	106.405	80.006	19.997	100.019	20.159	0.589	-0.024
12.000	106.412	80.006	19.997	100.040	20.156	0.831	0.020
14.000	106.455	80.007	19.996	100.086	20.153	1.001	0.008
16.000	106.486	80.006	19.996	100.104	20.153	1.049	0.008
18.000	106.563	80.005	19.996	100.117	20.150	1.254	0.042
20.001	106.612	80.007	19.996	100.136	20.152	1.123	0.026
22.000	106.773	80.008	19.996	100.137	20.146	1.539	0.068
24.000	106.874	80.008	19.996	100.166	20.145	1.627	0.065
26.000	107.009	80.006	19.996	100.161	20.141	1.902	0.086
28.000	107.180	80.006	19.995	100.147	20.141	1.867	0.095
30.000	107.358	80.007	19.995	100.148	20.138	2.127	0.076
32.001	107.600	80.007	19.996	100.171	20.137	2.215	0.134
34.000	107.864	80.007	19.996	100.175	20.138	2.135	0.130
36.000	108.098	80.006	19.997	100.164	20.138	2.115	0.100
38.000	108.369	80.007	19.997	100.172	20.138	2.094	0.115
40.001	108.647	80.006	19.995	100.190	20.139	2.043	0.128
42.000	108.968	80.007	19.994	100.195	20.135	2.357	0.146
44.000	109.309	80.008	19.995	100.204	20.133	2.471	0.188
46.001	109.644	80.009	19.996	100.208	20.131	2.645	0.164
48.000	110.004	80.010	19.995	100.208	20.134	2.379	0.168
50.000	110.391	80.010	19.995	100.213	20.130	2.688	0.194
52.001	110.797	80.010	19.995	100.212	20.126	2.987	0.192
54.000	111.274	80.010	19.994	100.215	20.124	3.090	0.245
56.001	111.716	80.010	19.995	100.235	20.123	3.200	0.228
58.000	112.180	80.010	19.995	100.234	20.122	3.296	0.227
60.001	112.701	80.006	19.996	100.253	20.119	3.478	0.240
62.000	113.226	80.006	19.996	100.260	20.118	3.566	0.308
64.001	113.773	80.005	19.996	100.255	20.123	3.218	0.275
66.001	114.339	80.007	19.995	100.254	20.116	3.697	0.307
68.001	114.940	80.008	19.996	100.271	20.116	3.689	0.317
70.000	115.539	80.006	19.995	100.290	20.113	3.923	0.307
72.001	116.161	80.007	19.996	100.287	20.118	3.581	0.340
74.000	116.813	80.008	19.995	100.287	20.118	3.530	0.310
76.001	117.480	80.007	19.995	100.288	20.119	3.513	0.311
78.000	118.224	80.008	19.996	100.289	20.120	3.413	0.357
80.000	118.903	80.008	19.994	100.281	20.116	3.720	0.366
82.000	119.624	80.009	19.996	100.276	20.118	3.581	0.362
84.000	120.322	80.007	19.995	100.280	20.116	3.687	0.333
86.000	121.119	80.007	19.995	100.277	20.120	3.377	0.413
88.001	121.928	80.007	19.996	100.288	20.114	3.865	0.399
90.001	122.736	80.005	19.997	100.275	20.115	3.742	0.401
92.001	123.572	80.007	19.996	100.275	20.110	4.136	0.433
94.000	124.315	80.006	19.997	100.294	20.120	3.406	0.357
96.000	125.182	80.005	19.996	100.293	20.118	3.551	0.411
98.000	125.999	80.006	19.996	100.290	20.116	3.726	0.415
100.001	126.837	80.007	19.996	100.289	20.116	3.691	0.413
102.000	127.692	80.006	19.995	100.281	20.111	4.031	0.401
104.000	128.525	80.008	19.996	100.281	20.114	3.855	0.427
106.000	129.456	80.009	19.994	100.292	20.115	3.755	0.452
108.000	130.317	80.009	19.996	100.295	20.118	3.558	0.431
110.000	131.248	80.008	19.995	100.293	20.117	3.659	0.473
112.001	132.138	80.008	19.995	100.297	20.119	3.487	0.472
114.000	133.011	80.008	19.996	100.297	20.117	3.653	0.442
116.000	133.936	80.007	19.996	100.294	20.118	3.584	0.445
118.000	134.878	80.005	19.996	100.285	20.118	3.570	0.465
120.001	135.820	80.006	19.996	100.266	20.116	3.681	0.473
122.000	136.754	80.006	19.996	100.253	20.115	3.797	0.447
124.001	137.761	80.008	19.996	100.252	20.115	3.747	0.502
126.001	138.639	80.008	19.997	100.253	20.117	3.659	0.453
128.000	139.615	80.009	19.997	100.265	20.117	3.616	0.500
130.000	140.571	80.009	19.997	100.288	20.118	3.539	0.458
132.000	141.520	80.011	19.996	100.291	20.124	3.154	0.471
134.000	142.460	80.008	19.996	100.289	20.121	3.305	0.474
136.001	143.470	80.008	19.997	100.277	20.120	3.407	0.474
138.000	144.466	80.008	19.996	100.271	20.119	3.446	0.501
140.000	145.403	80.010	19.995	100.262	20.116	3.722	0.447
142.000	146.391	80.007	19.995	100.241	20.118	3.519	0.476
144.000	147.425	80.005	19.997	100.244	20.120	3.378	0.478
146.000	148.373	80.007	19.995	100.257	20.119	3.493	0.510
148.000	149.463	80.006	19.995	100.259	20.117	3.627	0.543
150.000	150.391	80.006	19.996	100.272	20.123	3.219	0.516
152.000	151.341	80.007	19.995	100.284	20.118	3.555	0.475
154.000	152.299	80.007	19.996	100.273	20.120	3.405	0.463
156.000	153.318	80.008	19.997	100.260	20.120	3.436	0.507
158.000	154.268	80.009	19.995	100.248	20.117	3.649	0.479
160.000	155.227	80.007	19.996	100.241	20.116	3.700	0.486
162.000	156.204	80.007	19.995	100.256	20.116	3.714	0.490
164.000	157.150	80.008	19.995	100.264	20.122	3.231	0.489
166.000	158.193	80.007	19.995	100.266	20.117	3.606	0.469
168.000	159.186	80.007	19.995	100.262	20.117	3.627	0.506
170.000	160.106	80.005	19.995	100.272	20.120	3.391	0.471
172.000	161.122	80.008	19.995	100.276	20.119	3.494	0.444
174.000	162.103	80.006	19.996	100.255	20.125	3.064	0.485
176.000	163.077	80.006	19.995	100.250	20.122	3.236	0.461
178.000	164.053	80.007	19.996	100.249	20.124	3.094	0.502
180.000	165.084	80.006	19.994	100.231	20.120	3.425	0.505
182.000	166.033	80.008	19.995	100.250	20.122	3.268	0.475
184.000	167.003	80.008	19.995	100.220	20.119	3.504	0.522
186.000	168.040	80.006	19.994	100.251	20.126	3.006	0.528
188.000	169.007	80.008	19.995	100.227	20.124	3.137	0.499
190.000	170.014	80.009	19.997	100.261	20.127	2.888	0.498
192.000	170.987	80.008	19.996	100.256	20.126	2.984	0.483
194.000	171.935	80.008	19.995	100.252	20.125	3.042	0.480
196.000	172.919	80.009	19.996	100.245	20.127	2.894	0.474
198.000	173.906	80.008	19.996	100.238	20.125	3.075	0.484
200.000	174.850	80.007	19.996	100.233	20.126	2.960	0.467
202.000	175.740	80.007	19.995	100.214	20.126	2.984	0.430
204.000	176.765	80.007	19.996	100.211	20.131	2.598	0.460
206.000	177.743	80.008	19.995	100.213	20.129	2.793	0.463
208.000	178.697	80.009	19.995	100.212	20.125	3.013	0.478
210.000	179.681	80.009	19.995	100.213	20.124	3.144	0.482
212.000	180.649	80.011	19.994	100.214	20.127	2.887	0.484
214.000	181.613	80.010	19.995	100.215	20.125	3.022	0.481
216.000	182.612	80.010	19.997	100.221	20.128	2.829	0.479
218.000	183.582	80.008	19.996	100.221	20.130	2.694	0.481
220.000	184.520	80.009	19.996	100.222	20.127	2.941	0.480
222.000	185.520	80.009	19.996	100.235	20.132	2.515	0.477
224.000	186.514	80.006	19.997	100.246	20.127	2.901	0.483
226.000	187.505	80.007	19.996	100.250	20.127	2.878	0.511
228.000	188.461	80.007	19.996	100.253	20.130	2.663	0.490
230.000	189.430	80.007	19.996	100.280	20.130	2.712	0.489
232.000	190.429	80.007	19.995	100.269	20.132	2.571	0.516
234.000	191.408	80.008	19.995	100.250	20.129	2.749	0.515
236.000	192.434	80.008	19.995	100.251	20.128	2.832	0.479
238.000	193.396	80.007	19.995	100.254	20.131	2.645	0.470
240.000	194.453	80.007	19.994	100.256	20.126	2.972	0.512
242.000	195.435	80.008	19.996	100.256	20.128	2.810	0.482
244.000	196.495	80.007	19.995	100.219	20.125	3.023	0.502
246.000	197.509	80.008	19.994	100.215	20.126	2.996	0.517
248.000	198.504	80.006	19.995	100.241	20.131	2.592	0.493
250.000	199.531	80.008	19.996	100.228	20.130	2.719	0.519
252.000	200.548	80.007	19.995	100.223	20.129	2.726	0.515
254.000	201.599	80.007	19.996	100.221	20.131	2.629	0.529
256.000	202.642	80.007	19.995	100.226	20.128	2.828	0.495
258.000	203.663	80.007	19.995	100.214	20.127	2.908	0.482
260.000	204.687	80.006	19.994	100.221	20.131	2.610	0.503
262.000	205.672	80.007	19.995	100.230	20.132	2.574	0.505
264.000	206.700	80.007	19.996	100.219	20.134	2.433	0.483
266.000	207.722	80.009	19.995	100.225	20.137	2.213	0.517
268.000	208.709	80.010	19.995	100.240	20.137	2.201	0.502
270.000	209.744	80.009	19.995	100.240	20.136	2.281	0.526
272.000	210.760	80.009	19.995	100.228	20.134	2.406	0.467
274.000	211.789	80.010	19.996	100.205	20.129	2.732	0.504
276.000	212.774	80.009	19.997	100.210	20.132	2.579	0.478
278.000	213.835	80.009	19.995	100.214	20.131	2.650	0.511
280.000	214.835	80.008	19.996	100.209	20.127	2.878	0.510
282.000	215.827	80.006	19.996	100.215	20.130	2.699	0.502
284.000	216.880	80.006	19.995	100.210	20.132	2.570	0.536
286.000	217.883	80.006	19.996	100.205	20.127	2.912	0.488
288.000	218.837	80.007	19.997	100.210	20.133	2.486	0.499
290.000	219.843	80.009	19.996	100.212	20.129	2.738	0.493
292.000	220.854	80.009	19.995	100.211	20.132	2.560	0.463
294.000	221.855	80.010	19.996	100.209	20.132	2.541	0.523
296.000	222.844	80.009	19.996	100.208	20.133	2.465	0.511
298.000	223.811	80.008	19.995	100.215	20.138	2.133	0.492
300.000	224.821	80.009	19.995	100.211	20.133	2.455	0.507
302.000	225.844	80.009	19.995	100.200	20.133	2.480	0.504
304.000	226.794	80.008	19.995	100.210	20.138	2.119	0.475
306.000	227.837	80.007	19.996	100.208	20.133	2.483	0.514
308.000	228.870	80.007	19.996	100.210	20.137	2.154	0.506
310.000	229.843	80.005	19.996	100.209	20.137	2.152	0.486
312.000	230.842	80.007	19.998	100.206	20.133	2.470	0.489
314.000	231.853	80.005	19.996	100.196	20.135	2.308	0.481
316.000	232.836	80.007	19.997	100.184	20.136	2.226	0.508
318.000	233.777	80.005	19.997	100.184	20.138	2.082	0.482
320.000	234.752	80.007	19.997	100.192	20.137	2.174	0.441
322.000	235.740	80.005	19.997	100.183	20.138	2.094	0.458
324.001	236.724	80.006	19.996	100.181	20.133	2.507	0.481
326.000	237.750	80.009	19.996	100.185	20.132	2.529	0.493
328.000	238.723	80.009	19.996	100.211	20.137	2.195	0.536
330.000	239.626	80.007	19.995	100.215	20.139	2.066	0.472
332.000	240.630	80.008	19.996	100.213	20.135	2.296	0.490
334.000	241.568	80.006	19.995	100.205	20.133	2.461	0.494
336.000	242.599	80.007	19.996	100.206	20.132	2.527	0.482
338.000	243.609	80.006	19.997	100.214	20.135	2.314	0.506
340.000	244.579	80.008	19.995	100.205	20.138	2.148	0.504
342.000	245.524	80.006	19.996	100.191	20.137	2.154	0.494
344.000	246.525	80.007	19.995	100.199	20.136	2.230	0.492
346.000	247.492	80.007	19.997	100.217	20.133	2.503	0.488
348.000	248.499	80.006	19.996	100.208	20.134	2.369	0.505
350.000	249.486	80.007	19.997	100.203	20.138	2.111	0.504
352.001	250.522	80.007	19.996	100.207	20.137	2.191	0.498
354.000	251.537	80.007	19.995	100.202	20.135	2.344	0.498
356.000	252.509	80.009	19.996	100.186	20.136	2.285	0.471
358.000	253.540	80.008	19.997	100.199	20.137	2.179	0.522
360.000	254.493	80.008	19.995	100.208	20.136	2.253	0.481
362.001	255.510	80.007	19.996	100.201	20.135	2.355	0.494
364.000	256.509	80.008	19.995	100.207	20.137	2.212	0.485
366.000	257.507	80.007	19.994	100.194	20.139	2.045	0.518
368.000	258.537	80.008	19.995	100.200	20.136	2.281	0.502
370.000	259.535	80.008	19.995	100.195	20.136	2.226	0.527
372.000	260.486	80.008	19.996	100.186	20.136	2.247	0.471
374.000	261.516	80.008	19.995	100.182	20.137	2.187	0.513
376.000	262.475	80.007	19.996	100.187	20.140	1.984	0.486
378.000	263.518	80.009	19.997	100.193	20.137	2.187	0.497
380.000	264.515	80.011	19.995	100.176	20.140	1.984	0.539
382.000	265.494	80.009	19.997	100.176	20.137	2.163	0.496
384.000	266.442	80.011	19.996	100.176	20.136	2.243	0.463
386.000	267.500	80.007	19.995	100.181	20.136	2.271	0.504
388.000	268.480	80.009	19.996	100.190	20.137	2.164	0.485
390.000	269.505	80.006	19.996	100.175	20.136	2.242	0.508
392.000	270.467	80.006	19.996	100.174	20.136	2.244	0.496
394.000	271.526	80.008	19.996	100.174	20.136	2.241	0.517
396.000	272.499	80.008	19.996	100.179	20.138	2.109	0.507
398.000	273.465	80.007	19.997	100.183	20.139	2.019	0.522
400.000	274.460	80.007	19.996	100.187	20.141	1.914	0.492
402.000	275.481	80.008	19.996	100.186	20.139	2.072	0.493
404.000	276.475	80.007	19.995	100.184	20.140	1.955	0.494
406.000	277.415	80.007	19.996	100.174	20.142	1.836	0.485
408.000	278.437	80.006	19.998	100.177	20.140	1.937	0.491
410.000	279.440	80.008	19.996	100.175	20.136	2.249	0.514
412.000	280.413	80.008	19.996	100.179	20.138	2.120	0.485
414.000	281.391	80.007	19.996	100.177	20.143	1.767	0.491
416.000	282.369	80.008	19.997	100.179	20.137	2.195	0.505
418.000	283.387	80.006	19.998	100.177	20.140	2.003	0.517
420.000	284.357	80.007	19.997	100.175	20.137	2.171	0.516
422.000	285.356	80.006	19.995	100.177	20.138	2.148	0.500
424.000	286.322	80.008	19.995	100.177	20.137	2.216	0.487
426.000	287.318	80.006	19.996	100.177	20.143	1.734	0.493
428.000	288.236	80.005	19.996	100.178	20.140	1.986	0.471
430.000	289.242	80.006	19.996	100.178	20.135	2.306	0.480
432.000	290.218	80.006	19.994	100.179	20.135	2.356	0.491
434.000	291.199	80.008	19.995	100.176	20.135	2.347	0.468
436.000	292.237	80.008	19.996	100.178	20.136	2.243	0.482
438.000	293.173	80.009	19.995	100.177	20.136	2.257	0.489
440.000	294.206	80.009	19.995	100.177	20.137	2.189	0.492
442.000	295.181	80.010	19.997	100.173	20.139	2.074	0.493
444.000	296.156	80.010	19.995	100.173	20.136	2.247	0.481
446.000	297.126	80.010	19.995	100.174	20.141	1.922	0.478
448.000	298.183	80.008	19.994	100.178	20.146	1.510	0.508
450.000	299.152	80.009	19.995	100.184	20.142	1.797	0.508
452.000	300.139	80.009	19.995	100.179	20.142	1.838	0.505
454.000	301.110	80.007	19.996	100.179	20.141	1.906	0.512
456.000	302.129	80.011	19.995	100.180	20.144	1.670	0.475
458.000	303.113	80.009	19.994	100.177	20.139	2.007	0.495
460.000	304.145	80.011	19.996	100.175	20.139	2.015	0.496
462.000	305.142	80.011	19.995	100.181	20.141	1.894	0.515
464.000	306.162	80.011	19.995	100.175	20.141	1.884	0.501
466.000	307.161	80.009	19.995	100.174	20.138	2.095	0.483
468.000	308.158	80.009	19.996	100.175	20.143	1.783	0.522
470.000	309.121	80.007	19.996	100.170	20.143	1.732	0.465
472.000	310.164	80.006	19.995	100.173	20.144	1.695	0.551
474.000	311.152	80.006	19.997	100.176	20.142	1.810	0.497
476.000	312.164	80.008	19.995	100.166	20.140	1.959	0.486
478.000	313.219	80.008	19.996	100.167	20.141	1.916	0.519
480.000	314.266	80.006	19.996	100.174	20.140	1.970	0.521
482.000	315.224	80.007	19.996	100.178	20.139	2.035	0.490
484.000	316.243	80.006	19.997	100.178	20.137	2.167	0.497
486.000	317.244	80.006	19.993	100.175	20.140	2.001	0.504
488.000	318.234	80.007	19.996	100.179	20.140	1.999	0.495
490.000	319.183	80.007	19.996	100.182	20.141	1.890	0.451
492.000	320.196	80.005	19.996	100.177	20.139	2.075	0.521
494.000	321.183	80.006	19.996	100.175	20.139	2.023	0.488
496.000	322.196	80.006	19.994	100.168	20.138	2.126	0.505
498.000	323.186	80.006	19.997	100.148	20.141	1.880	0.455
500.000	324.156	80.006	19.996	100.148	20.140	1.962	0.504
502.000	325.160	80.007	19.996	100.143	20.139	2.071	0.514
504.000	326.171	80.004	19.997	100.161	20.140	1.993	0.524
506.000	327.189	80.006	19.998	100.167	20.134	2.430	0.502
508.000	328.159	80.006	19.997	100.161	20.134	2.403	0.498
510.000	329.188	80.006	19.999	100.150	20.136	2.253	0.514
512.000	330.155	80.004	19.997	100.163	20.138	2.087	0.514
514.000	331.167	80.009	19.997	100.168	20.138	2.103	0.505
516.000	332.160	80.010	19.994	100.171	20.141	1.873	0.506
518.000	333.195	80.010	19.995	100.162	20.140	1.945	0.503
520.000	334.246	80.009	19.994	100.164	20.146	1.560	0.514
522.000	335.247	80.007	19.995	100.159	20.137	2.189	0.519
524.000	336.298	80.009	19.994	100.161	20.139	2.036	0.524
526.000	337.231	80.008	19.995	100.169	20.125	3.037	0.497
528.000	338.290	80.009	19.995	100.164	20.138	2.122	0.510
530.000	339.270	80.007	19.996	100.165	20.140	1.960	0.499
532.000	340.309	80.008	19.995	100.167	20.120	3.388	0.497
534.000	341.327	80.006	19.996	100.165	20.136	2.250	0.501
536.000	342.331	80.011	19.994	100.160	20.134	2.377	0.472
538.000	343.313	80.007	19.997	100.170	20.140	2.003	0.475
540.000	344.335	80.011	19.994	100.173	20.141	1.886	0.502
542.000	345.384	80.009	19.995	100.170	20.132	2.571	0.524
544.000	346.406	80.009	19.993	100.148	20.136	2.233	0.512
546.000	347.377	80.010	19.992	100.142	20.132	2.575	0.527
548.000	348.380	80.028	19.999	100.168	20.136	2.272	0.516
550.000	349.372	80.026	19.999	100.179	20.138	2.095	0.494
552.000	350.431	80.028	19.995	100.170	20.136	2.245	0.544
554.000	351.374	80.027	19.998	100.168	20.133	2.460	0.475
556.000	352.432	80.023	19.994	100.167	20.134	2.434	0.497
558.000	353.449	80.009	19.995	100.147	20.128	2.805	0.527
560.000	354.453	80.008	19.995	100.145	20.134	2.403	0.490
562.000	355.472	80.006	19.995	100.167	20.135	2.337	0.507
564.000	356.469	80.008	19.996	100.172	20.130	2.676	0.469
566.001	357.456	80.004	19.997	100.164	20.129	2.743	0.506
568.000	358.528	80.007	19.997	100.178	20.126	3.006	0.532
570.000	359.564	80.008	19.994	100.170	20.114	3.817	0.500
572.000	360.561	80.007	19.994	100.174	20.130	2.723	0.485
574.000	361.637	80.006	19.996	100.163	20.117	3.650	0.530
576.000	362.700	80.008	19.995	100.170	20.120	3.437	0.541
578.001	363.776	80.010	19.997	100.166	20.121	3.338	0.521
580.000	364.804	80.008	19.997	100.163	20.111	4.054	0.518
582.000	365.880	80.006	19.996	100.165	20.107	4.333	0.542
584.000	366.994	80.010	19.995	100.177	20.101	4.783	0.577
586.000	368.010	80.009	19.996	100.183	20.100	4.875	0.514
588.000	369.129	80.005	19.997	100.180	20.090	5.575	0.552
590.000	370.200	80.006	19.995	100.191	20.087	5.803	0.535
592.000	371.297	80.005	19.997	100.180	20.086	5.874	0.575
594.000	372.369	80.008	19.993	100.178	20.088	5.701	0.510
596.000	373.519	80.006	19.995	100.175	20.081	6.190	0.544
598.000	374.623	80.008	19.998	100.175	20.074	6.711	0.554
600.000	375.684	80.006	19.996	100.176	20.061	7.638	0.554
602.000	376.793	80.007	19.997	100.177	20.060	7.683	0.574
604.001	377.917	80.008	20.000	100.185	20.050	8.467	0.567
606.000	379.000	80.010	19.994	100.188	20.043	8.962	0.521
608.000	380.155	80.009	19.997	100.180	20.034	9.591	0.571
610.001	381.267	80.005	19.997	100.181	20.027	10.066	0.543
612.001	382.372	80.009	19.995	100.191	20.012	11.186	0.574
614.000	383.430	80.007	19.995	100.188	20.001	11.967	0.505
616.000	384.538	80.005	19.996	100.192	19.978	13.602	0.538
618.000	385.659	80.007	19.995	100.204	19.965	14.530	0.515
620.000	386.752	80.007	19.996	100.217	19.941	16.313	0.557
622.000	387.857	80.002	19.995	100.215	19.923	17.609	0.557
624.000	388.944	80.010	19.994	100.212	19.901	19.187	0.558
626.001	390.007	80.004	19.994	100.220	19.881	20.598	0.502
628.000	391.063	80.010	19.995	100.224	19.864	21.805	0.515
630.000	392.162	80.005	19.994	100.228	19.824	24.723	0.554
632.000	393.225	80.010	19.996	100.250	19.799	26.487	0.548
634.000	394.296	80.007	19.994	100.253	19.776	28.178	0.513
636.000	395.333	80.006	19.994	100.253	19.732	31.302	0.527
638.000	396.400	80.003	19.994	100.253	19.695	33.981	0.530
640.000	397.413	80.003	20.001	100.260	19.656	36.796	0.524
642.000	398.480	80.005	19.993	100.277	19.627	38.869	0.561
644.000	399.457	80.009	19.994	100.260	19.577	42.499	0.521
646.000	400.544	80.006	19.996	100.253	19.537	45.367	0.559
648.000	401.494	80.006	19.996	100.255	19.494	48.475	0.481
650.000	402.509	80.010	19.994	100.254	19.445	51.998	0.506
652.000	403.511	80.008	19.995	100.284	19.395	55.597	0.492
654.000	404.477	80.006	19.998	100.325	19.349	58.917	0.453
656.000	405.491	80.016	19.994	100.350	19.291	63.101	0.459
658.000	406.489	80.004	19.995	100.369	19.237	67.040	0.474
660.000	407.437	80.007	19.996	100.365	19.156	72.836	0.460
662.000	408.446	80.010	19.994	100.371	19.081	78.224	0.496
664.000	409.446	80.004	19.996	100.390	19.006	83.648	0.493
666.000	410.398	80.008	19.995	100.406	18.925	89.555	0.515
668.000	411.347	80.004	19.996	100.412	18.845	95.367	0.534
670.000	412.283	80.007	19.996	100.412	18.775	100.397	0.443
672.000	413.292	80.007	19.996	100.410	18.692	106.380	0.476
674.000	414.218	80.011	19.998	100.445	18.607	112.527	0.488
676.000	415.150	80.010	19.995	100.472	18.528	118.228	0.430
678.000	416.072	80.012	20.000	100.499	18.436	124.867	0.493
680.000	417.055	80.009	19.995	100.532	18.346	131.419	0.483
682.000	418.028	80.008	19.996	100.523	18.253	138.170	0.486
684.000	418.953	80.016	19.995	100.541	18.158	145.061	0.464
686.001	419.925	80.007	19.994	100.567	18.070	151.421	0.491
688.000	420.870	80.010	19.996	100.569	17.984	157.670	0.462
690.000	421.863	80.010	19.995	100.592	17.905	163.399	0.495
692.000	422.791	80.009	19.993	100.608	17.809	170.345	0.476
694.000	423.748	80.003	20.000	100.638	17.730	176.118	0.468
696.000	424.751	80.006	19.997	100.651	17.642	182.521	0.492
698.000	425.659	80.007	19.996	100.672	17.573	187.520	0.457
700.000	426.608	80.006	19.996	100.681	17.497	193.030	0.419
702.000	427.575	80.008	19.996	100.692	17.430	197.904	0.466
704.000	428.546	80.017	19.996	100.736	17.343	204.242	0.478
706.000	429.590	80.007	19.997	100.759	17.272	209.490	0.464
708.000	430.479	80.010	19.996	100.762	17.207	214.176	0.454
710.000	431.466	80.009	19.994	100.767	17.145	218.703	0.498
712.000	432.492	80.010	19.993	100.787	17.087	222.946	0.511
714.000	433.441	80.009	19.996	100.822	17.034	226.817	0.490
716.000	434.458	80.016	19.994	100.858	16.988	230.144	0.525
718.000	435.443	80.008	19.994	100.865	16.946	233.152	0.479
720.000	436.435	80.005	19.995	100.894	16.910	235.865	0.491
722.000	437.425	80.012	19.997	100.901	16.903	236.312	0.544
724.000	438.387	80.008	19.996	100.898	16.910	235.896	0.488
726.000	439.336	80.008	19.996	100.914	16.929	234.382	0.493
728.000	440.393	80.007	19.994	100.918	16.965	231.717	0.560
730.000	441.316	80.006	19.995	100.930	17.016	228.031	0.439
732.000	442.363	80.008	19.995	100.944	17.077	223.645	0.522
734.000	443.375	80.005	19.994	100.948	17.161	217.575	0.518
736.001	444.386	80.007	19.994	100.933	17.267	209.794	0.513
738.000	445.427	80.006	19.995	100.880	17.379	201.561	0.506
740.000	446.460	80.006	19.995	100.880	17.493	193.288	0.515
742.000	447.514	80.011	19.991	100.876	17.603	185.305	0.507
744.000	448.544	80.007	19.996	100.916	17.699	178.341	0.518
746.000	449.560	80.006	19.995	100.887	17.816	169.816	0.512
748.000	450.612	80.008	19.995	100.823	17.935	161.176	0.523
750.000	451.627	80.007	19.995	100.784	18.048	152.945	0.541
752.000	452.672	80.007	19.995	100.760	18.164	144.495	0.506
754.000	453.659	80.007	19.995	100.728	18.278	136.249	0.490
756.000	454.734	80.008	19.995	100.700	18.398	127.539	0.545
758.000	455.751	80.007	19.994	100.682	18.523	118.491	0.535
760.000	456.777	80.007	19.995	100.633	18.645	109.707	0.482
762.000	457.783	80.007	19.996	100.597	18.763	101.168	0.506
764.000	458.856	80.009	19.996	100.568	18.893	91.777	0.513
766.000	459.870	80.008	19.996	100.538	19.027	82.091	0.523
768.000	460.875	80.011	19.995	100.498	19.134	74.349	0.520
770.000	461.912	80.007	19.995	100.464	19.257	65.489	0.513
772.000	462.909	80.006	19.996	100.431	19.351	58.728	0.483
774.000	463.929	80.007	19.996	100.398	19.448	51.760	0.485
776.000	464.895	80.010	19.996	100.373	19.531	45.756	0.482
778.000	465.946	80.008	19.995	100.351	19.605	40.452	0.529
780.000	466.990	80.010	19.995	100.332	19.660	36.455	0.495
782.000	467.971	80.010	19.995	100.322	19.724	31.838	0.505
784.000	468.944	80.010	19.996	100.292	19.770	28.600	0.494
786.000	469.940	80.009	19.995	100.259	19.813	25.452	0.478
788.000	470.959	80.009	19.995	100.253	19.846	23.077	0.476
790.000	471.970	80.010	19.995	100.253	19.874	21.113	0.506
792.000	473.034	80.011	19.996	100.220	19.907	18.684	0.543
794.000	474.010	80.010	19.996	100.207	19.926	17.347	0.493
796.000	475.030	80.009	19.997	100.211	19.949	15.668	0.495
798.000	476.055	80.007	19.995	100.211	19.963	14.660	0.508
800.000	477.065	80.009	19.996	100.210	19.984	13.198	0.480
802.000	478.056	80.006	19.997	100.193	19.995	12.405	0.494
804.000	479.051	80.007	19.993	100.191	20.017	10.783	0.483
806.000	480.072	80.008	19.996	100.213	20.025	10.214	0.503
808.000	481.044	80.007	19.996	100.213	20.038	9.301	0.496
810.000	481.997	80.006	19.995	100.190	20.043	8.919	0.494
812.000	483.019	80.008	19.994	100.184	20.055	8.057	0.504
814.000	484.019	80.007	19.995	100.174	20.061	7.631	0.488
816.000	485.008	80.007	19.994	100.178	20.060	7.688	0.504
818.000	486.010	80.011	19.995	100.174	20.069	7.105	0.493
820.000	486.993	80.008	19.996	100.174	20.076	6.600	0.474
822.001	488.011	80.009	19.996	100.177	20.085	5.899	0.475
824.000	488.989	80.007	19.996	100.178	20.086	5.880	0.478
826.000	490.031	80.009	19.997	100.173	20.092	5.411	0.502
828.000	490.999	80.009	19.993	100.178	20.092	5.414	0.459
830.000	492.039	80.007	19.994	100.179	20.096	5.158	0.512
832.000	493.004	80.007	19.995	100.182	20.101	4.741	0.515
834.000	494.036	80.010	19.995	100.167	20.103	4.655	0.503
836.000	495.036	80.007	19.996	100.159	20.104	4.530	0.523
838.000	496.015	80.007	19.995	100.164	20.109	4.200	0.511
840.000	497.042	80.009	19.995	100.139	20.109	4.228	0.500
842.000	498.013	80.009	19.995	100.137	20.113	3.885	0.514
844.000	499.022	80.013	19.994	100.154	20.115	3.743	0.483
846.000	500.032	80.011	19.994	100.149	20.112	3.970	0.522
848.000	501.033	80.010	19.995	100.139	20.117	3.639	0.485
850.000	502.030	80.011	19.996	100.142	20.115	3.752	0.502
852.000	503.060	80.010	19.994	100.142	20.111	4.072	0.502
854.000	504.042	80.009	19.997	100.155	20.113	3.903	0.496
856.000	505.066	80.008	19.998	100.144	20.116	3.701	0.497
858.000	506.091	80.009	19.996	100.147	20.113	3.877	0.517
860.000	507.080	80.011	19.996	100.164	20.117	3.631	0.491
862.000	508.133	80.010	19.995	100.147	20.119	3.475	0.505
864.000	509.174	80.007	19.994	100.152	20.119	3.455	0.500
866.000	510.216	80.008	19.995	100.146	20.120	3.428	0.537
868.000	511.205	80.010	19.995	100.140	20.123	3.159	0.459
870.000	512.242	80.010	19.998	100.138	20.120	3.397	0.524
872.000	513.300	80.011	19.995	100.141	20.121	3.366	0.521
874.000	514.341	80.011	19.996	100.138	20.117	3.608	0.567
876.000	515.383	80.009	19.995	100.135	20.118	3.536	0.546
878.000	516.424	80.009	19.995	100.138	20.117	3.596	0.535
880.000	517.447	80.009	19.996	100.137	20.118	3.540	0.541
882.000	518.520	80.008	19.996	100.136	20.117	3.643	0.539
884.000	519.573	80.005	19.995	100.139	20.114	3.806	0.543
886.000	520.612	80.005	19.995	100.145	20.114	3.834	0.534
888.000	521.610	80.006	19.996	100.145	20.118	3.573	0.484
890.000	522.650	80.005	19.996	100.143	20.119	3.512	0.499
892.001	523.711	80.007	19.995	100.147	20.119	3.463	0.535
894.000	524.738	80.006	19.998	100.171	20.117	3.621	0.546
896.000	525.768	80.005	19.997	100.163	20.117	3.589	0.492
898.000	526.781	80.007	19.995	100.146	20.118	3.533	0.509
900.000	527.856	80.007	19.995	100.141	20.121	3.364	0.518
902.000	528.907	80.006	19.996	100.150	20.120	3.438	0.547
904.000	529.934	80.008	19.996	100.138	20.115	3.744	0.500
906.000	530.984	80.008	19.994	100.130	20.118	3.567	0.514
908.000	532.015	80.008	19.994	100.126	20.120	3.413	0.503
910.000	533.069	80.008	19.996	100.134	20.120	3.395	0.505
912.000	534.092	80.009	19.996	100.135	20.120	3.412	0.525
914.000	535.102	80.007	19.995	100.137	20.118	3.539	0.506
916.000	536.207	80.007	19.997	100.143	20.117	3.656	0.517
918.000	537.241	80.008	19.995	100.147	20.119	3.473	0.541
920.000	538.313	80.009	19.995	100.139	20.117	3.615	0.567
922.000	539.327	80.008	19.996	100.140	20.120	3.404	0.525
924.000	540.382	80.008	19.996	100.137	20.116	3.701	0.488
926.000	541.405	80.011	19.996	100.136	20.118	3.559	0.537
928.000	542.430	80.010	19.997	100.139	20.121	3.362	0.526
930.000	543.480	80.008	19.993	100.135	20.125	3.081	0.540
932.001	544.465	80.007	19.998	100.126	20.118	3.543	0.510
934.000	545.460	80.010	19.996	100.131	20.121	3.311	0.516
936.000	546.496	80.010	19.994	100.136	20.121	3.354	0.517
938.000	547.512	80.008	19.995	100.139	20.121	3.301	0.550
940.000	548.505	80.006	19.994	100.139	20.121	3.327	0.508
942.000	549.515	80.008	19.994	100.138	20.121	3.325	0.507
944.000	550.556	80.010	19.995	100.138	20.118	3.561	0.536
946.000	551.545	80.009	19.994	100.138	20.118	3.535	0.496
948.000	552.566	80.009	19.994	100.135	20.119	3.504	0.510
950.000	553.553	80.008	19.995	100.139	20.120	3.440	0.497
952.000	554.637	80.010	19.996	100.140	20.120	3.401	0.534
954.000	555.700	80.010	19.995	100.139	20.118	3.547	0.545
956.000	556.676	80.010	19.995	100.137	20.120	3.438	0.512
958.000	557.684	80.008	19.994	100.139	20.116	3.658	0.499
960.000	558.749	80.009	19.994	100.139	20.119	3.446	0.532
962.000	559.781	80.008	19.995	100.138	20.119	3.498	0.529
964.000	560.785	80.007	19.994	100.130	20.120	3.440	0.536
966.000	561.841	80.007	19.995	100.130	20.117	3.597	0.512
968.000	562.896	80.008	19.996	100.137	20.118	3.514	0.524
970.000	563.873	80.007	19.995	100.136	20.119	3.481	0.509
972.000	564.903	80.008	19.996	100.137	20.117	3.588	0.508
974.000	565.950	80.007	19.996	100.135	20.117	3.656	0.525
976.000	566.993	80.008	19.997	100.129	20.120	3.434	0.518
978.000	568.012	80.007	19.995	100.134	20.118	3.576	0.528
980.000	569.044	80.007	19.997	100.135	20.115	3.767	0.515
982.000	570.085	80.004	19.996	100.146	20.115	3.738	0.563
984.000	571.147	80.007	19.998	100.135	20.113	3.904	0.518
986.000	572.183	80.005	19.996	100.134	20.116	3.687	0.518
988.000	573.204	80.007	19.997	100.123	20.120	3.411	0.502
990.001	574.259	80.008	19.996	100.135	20.118	3.537	0.501
992.000	575.330	80.007	19.999	100.143	20.121	3.365	0.545
994.000	576.383	80.009	19.996	100.146	20.118	3.516	0.521
996.000	577.382	80.006	19.995	100.140	20.118	3.519	0.501
998.000	578.372	80.006	19.994	100.137	20.117	3.607	0.464
1000.000	579.419	80.008	19.994	100.138	20.115	3.736	0.518
1002.000	580.404	80.007	19.996	100.134	20.116	3.668	0.489
1004.000	581.413	80.006	19.995	100.131	20.112	3.953	0.498
1006.000	582.440	80.007	19.993	100.133	20.116	3.722	0.521
1008.000	583.428	80.007	19.995	100.124	20.113	3.931	0.502
1010.000	584.387	80.008	19.994	100.136	20.117	3.646	0.464
1012.000	585.375	80.008	19.994	100.131	20.116	3.707	0.498
1014.000	586.364	80.009	19.996	100.131	20.116	3.727	0.485
1016.000	587.329	80.008	19.995	100.132	20.117	3.600	0.497
1018.000	588.281	80.007	19.996	100.137	20.116	3.695	0.472
1020.000	589.293	80.009	19.996	100.138	20.117	3.588	0.542
1022.000	590.251	80.007	19.994	100.138	20.116	3.703	0.500
1024.000	591.238	80.007	19.996	100.140	20.117	3.607	0.509
1026.000	592.225	80.007	19.994	100.140	20.117	3.598	0.494
1028.000	593.180	80.009	19.995	100.138	20.116	3.689	0.469
1030.000	594.152	80.009	19.994	100.140	20.117	3.652	0.494
1032.000	595.124	80.011	19.996	100.140	20.114	3.820	0.468
1034.000	596.090	80.010	19.994	100.125	20.116	3.722	0.460
1036.000	597.071	80.012	19.997	100.130	20.116	3.716	0.489
1038.000	598.002	80.010	19.995	100.130	20.112	3.947	0.471
1040.000	598.974	80.004	19.990	100.125	20.117	3.646	0.472
1042.001	599.907	80.011	19.993	100.129	20.116	3.660	0.457
1044.000	600.899	80.009	19.995	100.134	20.113	3.888	0.467
1046.000	601.902	80.005	19.999	100.134	20.116	3.720	0.487
1048.001	602.798	80.007	19.995	100.130	20.118	3.526	0.441
1050.001	603.831	80.008	19.998	100.130	20.115	3.740	0.502
1052.001	604.784	80.008	19.996	100.126	20.117	3.643	0.477
1054.000	605.748	80.009	19.997	100.133	20.117	3.625	0.458
1056.001	606.725	80.008	19.997	100.136	20.116	3.658	0.491
1058.000	607.702	80.008	19.995	100.135	20.114	3.820	0.510
1060.001	608.746	80.008	19.996	100.136	20.112	3.956	0.542
1062.000	609.717	80.008	19.997	100.135	20.115	3.791	0.505
1064.000	610.763	80.008	19.996	100.139	20.116	3.701	0.504
1066.000	611.770	80.008	19.997	100.136	20.113	3.912	0.537
1068.000	612.836	80.009	19.995	100.136	20.111	4.021	0.508
1070.000	613.852	80.007	19.997	100.137	20.115	3.736	0.525
1072.000	614.886	80.007	19.995	100.135	20.118	3.561	0.528
1074.000	615.899	80.004	19.997	100.136	20.114	3.824	0.523
1076.001	616.995	80.006	19.997	100.139	20.116	3.668	0.536
1078.000	617.986	80.005	19.997	100.137	20.117	3.615	0.524
1080.000	619.005	80.006	19.997	100.137	20.121	3.303	0.504
1082.000	620.047	80.005	19.996	100.136	20.120	3.434	0.508
1084.001	621.050	80.004	19.997	100.132	20.115	3.775	0.514
1086.000	622.081	80.005	19.996	100.134	20.116	3.680	0.502
1088.000	623.084	80.007	19.996	100.140	20.119	3.459	0.510
1090.001	624.097	80.007	19.996	100.134	20.120	3.423	0.495
1092.001	625.119	80.007	19.995	100.135	20.118	3.529	0.522
1094.000	626.130	80.009	19.996	100.139	20.116	3.662	0.541
1096.001	627.089	80.009	19.996	100.137	20.117	3.642	0.482
1098.000	628.086	80.007	19.993	100.133	20.116	3.660	0.505
1100.000	629.121	80.007	19.995	100.119	20.116	3.695	0.518
1102.000	630.096	80.006	19.997	100.107	20.114	3.835	0.511
1104.000	631.089	80.008	19.994	100.123	20.112	3.997	0.487
1106.000	632.075	80.006	19.999	100.110	20.117	3.635	0.485
1108.000	633.079	80.009	19.996	100.126	20.112	3.960	0.524
1110.001	634.077	80.010	19.994	100.136	20.114	3.871	0.512
1112.000	635.088	80.010	19.993	100.131	20.117	3.638	0.514
1114.000	636.099	80.007	19.996	100.132	20.114	3.823	0.482
1116.000	637.098	80.008	19.995	100.133	20.116	3.661	0.543
1118.001	638.101	80.009	19.995	100.134	20.118	3.572	0.511
1120.000	639.147	80.009	19.994	100.133	20.120	3.414	0.524
1122.001	640.141	80.009	19.996	100.124	20.123	3.219	0.509
1124.000	641.145	80.011	19.994	100.099	20.119	3.441	0.490
1126.001	642.131	80.011	19.994	100.108	20.122	3.244	0.498
1128.000	643.094	80.008	19.995	100.119	20.120	3.437	0.459
1130.001	644.127	80.008	19.994	100.134	20.122	3.275	0.527
1132.000	645.094	80.007	19.994	100.132	20.120	3.410	0.485
1134.000	646.087	80.005	19.995	100.129	20.124	3.086	0.489
1136.000	647.118	80.007	19.994	100.123	20.119	3.443	0.513
1138.001	648.101	80.007	19.994	100.117	20.121	3.315	0.502
1140.000	649.101	80.010	19.992	100.112	20.121	3.350	0.505
1142.000	650.048	80.006	19.996	100.116	20.124	3.131	0.474
1144.000	651.046	80.007	19.996	100.120	20.116	3.689	0.473
1146.000	652.034	80.006	19.995	100.118	20.121	3.368	0.489
1148.000	653.014	80.007	19.997	100.135	20.124	3.134	0.532
1150.000	653.990	80.007	19.996	100.125	20.122	3.257	0.489
1152.000	655.025	80.006	19.996	100.131	20.123	3.223	0.531
1154.000	656.024	80.006	19.997	100.134	20.122	3.266	0.501
1156.000	657.061	80.007	19.996	100.139	20.121	3.352	0.491
1158.000	658.106	80.006	19.996	100.139	20.116	3.664	0.531
1160.000	659.202	80.006	19.994	100.141	20.119	3.485	0.547
1162.000	660.287	80.005	19.995	100.135	20.118	3.568	0.532
1164.000	661.414	80.006	19.996	100.132	20.118	3.554	0.560
1166.001	662.536	80.006	19.999	100.135	20.119	3.508	0.550
1168.000	663.701	80.002	19.999	100.132	20.117	3.637	0.600
1170.000	664.836	80.006	19.997	100.134	20.115	3.795	0.572
1172.000	665.887	80.001	19.997	100.162	20.118	3.545	0.461
1174.001	667.118	80.007	19.998	100.169	20.117	3.656	0.546
1176.000	668.297	80.009	19.995	100.149	20.118	3.578	0.569
1178.000	669.510	80.010	19.997	100.139	20.119	3.507	0.606
1180.001	670.665	80.010	19.997	100.141	20.122	3.258	0.586
1182.000	671.881	80.009	19.996	100.132	20.118	3.573	0.601
1184.000	672.999	80.008	19.996	100.132	20.116	3.684	0.550
1186.001	674.202	80.007	19.994	100.132	20.115	3.736	0.576
1188.001	675.439	80.013	19.993	100.155	20.121	3.313	0.640
1190.000	676.558	80.008	19.993	100.173	20.121	3.320	0.582
1192.000	677.753	80.007	19.995	100.155	20.122	3.277	0.609
1194.000	678.914	80.011	19.992	100.158	20.122	3.287	0.613
1196.000	680.118	80.009	19.997	100.148	20.125	3.012	0.571
1198.001	681.278	80.007	19.998	100.135	20.120	3.420	0.550
1200.000	682.411	80.010	19.994	100.111	20.119	3.511	0.570
1202.000	683.566	80.010	19.995	100.111	20.118	3.543	0.594
1204.001	684.705	80.006	19.995	100.129	20.119	3.488	0.564
1206.000	685.867	80.008	19.992	100.119	20.122	3.265	0.570
1208.000	687.021	80.009	19.996	100.133	20.119	3.494	0.600
1210.001	688.130	80.008	19.994	100.137	20.121	3.311	0.558
1212.000	689.246	80.006	19.994	100.121	20.117	3.650	0.533
1214.000	690.346	80.010	19.995	100.127	20.120	3.369	0.535
1216.000	691.450	80.009	19.997	100.120	20.118	3.550	0.569
1218.000	692.574	80.006	19.996	100.119	20.122	3.233	0.560
1220.001	693.680	80.006	19.997	100.137	20.123	3.190	0.553
1222.000	694.786	80.013	19.990	100.133	20.121	3.344	0.555
1224.000	695.884	80.002	19.996	100.136	20.120	3.388	0.549
1226.000	696.953	80.006	19.996	100.113	20.122	3.260	0.514
1228.000	698.062	80.006	19.995	100.121	20.123	3.223	0.568
1230.000	699.129	80.006	19.995	100.124	20.124	3.127	0.550
1232.000	700.197	80.008	19.995	100.133	20.122	3.294	0.518
1234.000	701.223	80.012	19.998	100.115	20.120	3.376	0.489
1236.000	702.261	80.006	19.994	100.127	20.122	3.242	0.525
1238.000	703.346	80.007	19.996	100.133	20.121	3.309	0.557
1240.000	704.387	80.005	19.996	100.106	20.119	3.496	0.513
1242.000	705.421	80.006	19.997	100.103	20.118	3.574	0.541
1244.000	706.453	80.007	19.998	100.102	20.118	3.545	0.529
1246.000	707.512	80.005	19.998	100.112	20.115	3.761	0.556
1248.000	708.539	80.012	19.993	100.135	20.120	3.438	0.545
1250.000	709.582	80.006	19.991	100.142	20.119	3.496	0.526
1252.000	710.629	80.010	19.994	100.135	20.119	3.498	0.519
1254.000	711.712	80.007	19.997	100.137	20.118	3.529	0.550
1256.000	712.702	80.006	19.997	100.137	20.119	3.488	0.499
1258.000	713.787	80.008	19.997	100.137	20.120	3.395	0.537
1260.001	714.840	80.008	19.997	100.121	20.119	3.512	0.542
1262.000	715.912	80.008	19.996	100.121	20.116	3.716	0.540
1264.001	716.972	80.007	19.996	100.131	20.117	3.648	0.531
1266.000	718.064	80.008	19.996	100.135	20.116	3.672	0.561
1268.000	719.092	80.008	19.997	100.135	20.118	3.516	0.512
1270.000	720.165	80.007	19.997	100.136	20.117	3.638	0.519
1272.000	721.262	80.008	19.997	100.132	20.118	3.545	0.580
1274.001	722.245	80.007	19.995	100.130	20.122	3.256	0.540
1276.000	723.354	80.009	19.996	100.137	20.120	3.371	0.486
1278.000	724.431	80.008	19.997	100.136	20.120	3.398	0.540
1280.000	725.477	80.009	19.995	100.135	20.122	3.294	0.535
1282.000	726.490	80.010	19.994	100.124	20.118	3.525	0.517
1284.000	727.541	80.008	19.994	100.119	20.120	3.373	0.498
1286.001	728.573	80.010	19.995	100.105	20.124	3.152	0.540
1288.000	729.592	80.012	19.995	100.107	20.121	3.321	0.513
1290.000	730.589	80.010	19.994	100.110	20.120	3.372	0.471
1292.000	731.648	80.008	19.996	100.106	20.118	3.575	0.508
1294.000	732.640	80.010	19.993	100.112	20.122	3.240	0.462
1296.000	733.697	80.003	19.995	100.109	20.122	3.240	0.510
1298.000	734.693	80.007	19.996	100.103	20.120	3.386	0.499
1300.000	735.669	80.008	19.993	100.097	20.118	3.513	0.505
1302.000	736.629	80.009	19.995	100.098	20.117	3.594	0.495
1304.000	737.625	80.007	19.996	100.099	20.118	3.557	0.506
1306.000	738.644	80.006	19.996	100.102	20.111	4.016	0.511
1308.000	739.736	80.007	19.995	100.101	20.114	3.842	0.486
1310.000	740.652	80.008	19.999	100.100	20.129	2.792	0.513
1312.001	741.705	80.016	19.995	100.100	20.131	2.628	0.541
1314.000	742.544	80.010	19.995	100.099	20.126	3.003	0.546