File: 01_Data/PET/MCC/PET_MCC_30K_min_210927_R3.txt
Sample ID:	C:\MCC\MCC Cal\Test\PET_MCC_30K_min_210927_R3.txt
Sample Weight (mg):	4
Heating Rate (C/s):	0.5
Combustor Temp (C):	900
N2 Flow Rate (cc/min):	80
O2 Flow Rate (cc/min):	20
Calibration File:	C:\MCC\MCC Cal\Coeff1 JN10440_30_210304.txt.txt
T Correction Coefficients:	0	1.024463	0
Time Shift (s):	14
*
Time (s)	Temperature (C)	N2 flow rate (cc/min)	O2 flow rate (cc/min)	Flow Rate (cc/min)	Oxygen (%)	HRR (W/g)	Heating rate (C/s)
0.000	108.061	80.000	19.994	100.082	20.124	0.100	-0.018
2.000	108.042	79.997	19.995	100.071	20.127	-0.134	-0.019
4.000	108.111	79.999	19.995	100.070	20.124	0.089	0.042
6.000	108.050	79.998	19.994	100.074	20.121	0.268	0.002
8.000	108.009	80.000	19.994	100.073	20.124	0.100	-0.040
10.000	108.030	79.997	19.995	100.068	20.127	-0.179	-0.010
12.000	107.992	79.996	19.995	100.066	20.125	-0.006	-0.014
14.000	108.009	79.996	19.995	100.079	20.125	-0.026	-0.023
16.000	107.999	79.995	19.995	100.080	20.127	-0.190	-0.006
18.000	108.018	79.995	19.995	100.078	20.126	-0.058	0.008
20.000	107.993	79.996	19.995	100.091	20.124	0.068	-0.016
22.000	108.038	79.996	19.996	100.105	20.121	0.333	0.031
24.000	108.051	79.996	19.995	100.121	20.117	0.636	0.010
26.000	108.081	79.997	19.994	100.136	20.121	0.339	0.011
28.000	108.082	79.998	19.995	100.144	20.114	0.879	0.025
30.000	108.161	79.997	19.995	100.182	20.111	1.089	0.063
32.000	108.212	79.997	19.994	100.235	20.108	1.296	0.008
34.000	108.359	79.998	19.996	100.233	20.101	1.863	0.093
36.000	108.465	79.999	19.995	100.250	20.099	2.047	0.051
38.001	108.637	79.996	19.997	100.234	20.100	1.979	0.101
40.000	108.844	79.997	19.996	100.250	20.096	2.261	0.127
42.000	109.058	79.997	19.996	100.262	20.097	2.165	0.110
44.000	109.330	79.996	19.996	100.262	20.096	2.225	0.118
46.000	109.599	79.997	19.996	100.267	20.093	2.490	0.135
48.000	109.915	79.994	19.996	100.279	20.090	2.703	0.146
50.000	110.253	79.996	19.996	100.275	20.093	2.516	0.173
52.000	110.590	79.995	19.995	100.296	20.094	2.448	0.187
54.000	110.940	79.998	19.994	100.289	20.090	2.708	0.201
56.000	111.355	79.999	19.993	100.302	20.088	2.875	0.192
58.000	111.771	79.998	19.994	100.303	20.085	3.099	0.235
60.000	112.209	80.001	19.994	100.312	20.088	2.884	0.221
62.000	112.679	79.998	19.995	100.330	20.084	3.234	0.221
64.000	113.144	79.996	19.995	100.338	20.084	3.202	0.228
66.000	113.693	79.997	19.996	100.333	20.081	3.413	0.267
68.000	114.251	79.997	19.993	100.333	20.083	3.303	0.270
70.000	114.802	79.997	19.995	100.337	20.082	3.339	0.287
72.000	115.381	79.999	19.995	100.345	20.078	3.629	0.274
74.000	115.994	79.999	19.995	100.340	20.078	3.687	0.318
76.000	116.643	79.999	19.995	100.343	20.080	3.488	0.334
78.000	117.280	79.998	19.995	100.344	20.079	3.565	0.328
80.000	118.007	80.001	19.994	100.367	20.077	3.758	0.355
82.000	118.662	80.001	19.995	100.347	20.078	3.655	0.334
84.000	119.353	80.003	19.994	100.343	20.075	3.921	0.351
86.000	120.096	80.001	19.995	100.340	20.076	3.837	0.354
88.000	120.857	79.998	19.994	100.344	20.073	4.027	0.372
90.000	121.632	80.000	19.994	100.345	20.072	4.110	0.388
92.000	122.439	79.998	19.995	100.351	20.072	4.140	0.429
94.000	123.208	79.997	19.994	100.360	20.072	4.138	0.394
96.000	124.030	79.998	19.995	100.354	20.078	3.692	0.405
98.000	124.819	79.998	19.995	100.347	20.073	4.077	0.391
100.000	125.714	79.997	19.995	100.350	20.073	4.085	0.428
102.001	126.570	79.998	19.995	100.348	20.071	4.198	0.446
104.000	127.419	79.998	19.995	100.348	20.071	4.189	0.446
106.000	128.278	79.998	19.995	100.364	20.071	4.198	0.414
108.000	129.183	79.997	19.996	100.365	20.073	4.044	0.441
110.001	130.067	79.998	19.996	100.366	20.077	3.758	0.454
112.000	131.033	79.997	19.995	100.355	20.076	3.786	0.454
114.000	131.936	79.996	19.994	100.349	20.075	3.869	0.451
116.000	132.845	79.997	19.993	100.361	20.076	3.857	0.466
118.000	133.783	79.998	19.995	100.361	20.076	3.859	0.466
120.000	134.719	79.995	19.996	100.362	20.076	3.831	0.485
122.000	135.703	79.996	19.995	100.371	20.080	3.510	0.488
124.000	136.677	79.995	19.996	100.353	20.079	3.608	0.464
126.000	137.659	79.996	19.997	100.369	20.077	3.728	0.482
128.000	138.640	79.995	19.995	100.368	20.075	3.939	0.480
130.000	139.643	79.996	19.996	100.369	20.077	3.721	0.477
132.000	140.616	79.996	19.996	100.356	20.078	3.674	0.508
134.000	141.599	79.997	19.996	100.357	20.077	3.738	0.486
136.000	142.649	79.997	19.996	100.359	20.080	3.497	0.516
138.000	143.643	79.999	19.996	100.363	20.082	3.379	0.500
140.000	144.656	79.999	19.996	100.351	20.079	3.608	0.520
142.000	145.659	79.999	19.994	100.344	20.076	3.804	0.486
144.000	146.660	79.999	19.994	100.346	20.081	3.458	0.487
146.000	147.648	79.997	19.995	100.351	20.081	3.441	0.487
148.000	148.708	79.999	19.995	100.341	20.082	3.377	0.515
150.000	149.751	79.997	19.994	100.340	20.083	3.309	0.539
152.000	150.817	79.998	19.995	100.340	20.081	3.434	0.548
154.000	151.785	79.998	19.995	100.337	20.080	3.505	0.523
156.000	152.815	79.999	19.994	100.340	20.077	3.707	0.503
158.000	153.842	79.999	19.995	100.341	20.081	3.407	0.509
160.000	154.862	80.000	19.995	100.336	20.084	3.176	0.505
162.000	155.832	79.999	19.995	100.337	20.080	3.496	0.498
164.000	156.876	79.999	19.995	100.330	20.083	3.259	0.497
166.000	157.859	79.998	19.995	100.326	20.086	3.056	0.509
168.000	158.825	79.998	19.995	100.318	20.084	3.180	0.443
170.000	159.840	79.997	19.994	100.323	20.088	2.883	0.498
172.000	160.871	79.998	19.994	100.327	20.088	2.862	0.485
174.000	161.899	79.996	19.994	100.318	20.087	2.988	0.489
176.000	162.912	79.997	19.994	100.314	20.086	3.067	0.502
178.000	163.932	79.997	19.996	100.312	20.089	2.791	0.513
180.000	164.992	79.996	19.994	100.325	20.088	2.913	0.542
182.000	165.967	79.997	19.994	100.319	20.087	2.989	0.498
184.000	166.939	79.999	19.995	100.320	20.088	2.870	0.451
186.000	167.956	79.995	19.995	100.322	20.093	2.520	0.488
188.000	168.958	79.996	19.996	100.316	20.092	2.577	0.496
190.000	169.923	79.997	19.995	100.314	20.083	3.245	0.460
192.000	170.941	79.995	19.994	100.307	20.089	2.793	0.487
194.000	171.904	79.998	19.995	100.306	20.092	2.575	0.492
196.000	172.896	79.996	19.994	100.306	20.089	2.791	0.499
198.000	173.891	79.997	19.995	100.304	20.087	2.998	0.488
200.000	174.865	79.998	19.995	100.302	20.090	2.757	0.475
202.000	175.842	79.997	19.996	100.302	20.088	2.853	0.505
204.000	176.788	79.996	19.994	100.302	20.090	2.707	0.472
206.000	177.788	79.995	19.995	100.302	20.094	2.415	0.494
208.000	178.763	79.997	19.995	100.307	20.090	2.699	0.483
210.000	179.762	79.998	19.996	100.303	20.090	2.707	0.498
212.000	180.701	79.998	19.995	100.301	20.093	2.483	0.477
214.000	181.725	79.997	19.996	100.300	20.087	2.927	0.521
216.000	182.707	79.998	19.995	100.296	20.091	2.628	0.509
218.000	183.666	79.999	19.996	100.297	20.090	2.707	0.470
220.000	184.656	79.997	19.997	100.297	20.093	2.460	0.472
222.000	185.692	79.998	19.995	100.294	20.093	2.522	0.530
224.000	186.651	79.999	19.995	100.298	20.091	2.678	0.505
226.000	187.621	79.997	19.995	100.299	20.092	2.575	0.469
228.000	188.609	79.997	19.995	100.300	20.090	2.725	0.485
230.000	189.569	79.998	19.994	100.300	20.091	2.669	0.484
232.000	190.533	79.999	19.995	100.300	20.097	2.214	0.520
234.000	191.523	79.998	19.994	100.303	20.094	2.428	0.483
236.000	192.493	79.999	19.995	100.304	20.097	2.167	0.476
238.000	193.463	79.999	19.994	100.304	20.097	2.201	0.472
240.000	194.401	79.998	19.995	100.302	20.094	2.402	0.469
242.000	195.432	79.999	19.994	100.301	20.095	2.302	0.465
244.000	196.384	79.999	19.995	100.301	20.097	2.182	0.476
246.000	197.369	79.998	19.995	100.294	20.098	2.096	0.495
248.000	198.334	79.998	19.995	100.302	20.098	2.114	0.480
250.000	199.375	79.996	19.994	100.299	20.099	1.992	0.526
252.000	200.361	79.997	19.995	100.301	20.100	1.932	0.498
254.000	201.320	79.996	19.995	100.302	20.095	2.317	0.482
256.000	202.324	79.996	19.996	100.290	20.097	2.199	0.508
258.000	203.311	79.998	19.995	100.297	20.097	2.212	0.513
260.000	204.285	79.996	19.995	100.293	20.098	2.075	0.475
262.000	205.300	79.998	19.994	100.301	20.097	2.165	0.497
264.000	206.302	79.999	19.994	100.300	20.098	2.137	0.502
266.000	207.304	79.997	19.995	100.283	20.094	2.378	0.536
268.000	208.251	79.999	19.995	100.283	20.096	2.276	0.486
270.000	209.287	79.998	19.995	100.269	20.095	2.302	0.521
272.000	210.261	79.998	19.995	100.276	20.093	2.464	0.512
274.000	211.253	79.998	19.994	100.297	20.096	2.274	0.476
276.000	212.212	79.996	19.995	100.290	20.098	2.088	0.474
278.000	213.195	79.998	19.995	100.298	20.098	2.070	0.495
280.000	214.174	79.996	19.996	100.300	20.098	2.081	0.482
282.000	215.183	79.997	19.994	100.295	20.104	1.650	0.481
284.000	216.160	79.996	19.996	100.291	20.103	1.727	0.486
286.000	217.152	79.996	19.995	100.277	20.101	1.874	0.480
288.000	218.147	79.999	19.995	100.267	20.101	1.878	0.510
290.000	219.134	79.998	19.995	100.272	20.098	2.088	0.487
292.000	220.131	80.000	19.995	100.273	20.098	2.077	0.499
294.000	221.134	79.998	19.996	100.279	20.097	2.182	0.477
296.000	222.169	79.998	19.995	100.273	20.101	1.861	0.499
298.000	223.194	79.998	19.995	100.278	20.100	1.972	0.537
300.000	224.160	79.998	19.995	100.274	20.101	1.861	0.487
302.000	225.169	79.998	19.996	100.290	20.095	2.369	0.487
304.000	226.173	79.998	19.996	100.286	20.101	1.898	0.511
306.000	227.165	79.997	19.997	100.280	20.097	2.162	0.488
308.000	228.160	79.997	19.995	100.265	20.097	2.149	0.496
310.000	229.193	79.996	19.995	100.264	20.101	1.849	0.544
312.000	230.180	79.998	19.996	100.269	20.104	1.648	0.493
314.000	231.211	79.997	19.996	100.272	20.102	1.823	0.517
316.000	232.186	79.997	19.995	100.268	20.098	2.088	0.481
318.000	233.236	79.999	19.996	100.265	20.103	1.688	0.539
320.000	234.153	80.000	19.994	100.271	20.097	2.179	0.509
322.000	235.229	79.999	19.995	100.277	20.098	2.111	0.509
324.000	236.229	80.001	19.996	100.266	20.099	1.991	0.515
326.000	237.253	79.999	19.995	100.275	20.104	1.609	0.499
328.000	238.249	79.998	19.995	100.279	20.101	1.850	0.509
330.000	239.231	79.999	19.995	100.262	20.104	1.594	0.481
332.000	240.196	79.997	19.994	100.268	20.102	1.795	0.482
334.000	241.209	79.998	19.995	100.265	20.102	1.780	0.463
336.000	242.234	79.997	19.995	100.265	20.103	1.712	0.525
338.000	243.270	79.996	19.995	100.264	20.106	1.462	0.516
340.000	244.295	79.998	19.995	100.263	20.103	1.729	0.530
342.000	245.291	79.997	19.995	100.270	20.103	1.703	0.520
344.000	246.296	79.997	19.996	100.270	20.098	2.062	0.478
346.000	247.306	79.997	19.995	100.265	20.099	2.030	0.488
348.000	248.263	79.999	19.996	100.259	20.103	1.731	0.480
350.000	249.266	79.997	19.995	100.269	20.103	1.697	0.517
352.000	250.363	79.997	19.994	100.266	20.107	1.426	0.555
354.000	251.376	79.997	19.995	100.262	20.105	1.588	0.492
356.000	252.331	79.997	19.994	100.263	20.105	1.575	0.473
358.000	253.330	79.996	19.994	100.259	20.104	1.648	0.510
360.000	254.349	79.996	19.995	100.263	20.103	1.731	0.516
362.000	255.351	79.997	19.994	100.266	20.106	1.498	0.509
364.000	256.402	79.997	19.995	100.264	20.105	1.569	0.500
366.000	257.413	79.996	19.995	100.272	20.107	1.407	0.532
368.000	258.399	79.997	19.995	100.267	20.103	1.733	0.522
370.000	259.398	79.998	19.995	100.265	20.108	1.296	0.475
372.000	260.414	79.998	19.995	100.264	20.107	1.430	0.489
374.000	261.395	79.999	19.996	100.264	20.105	1.515	0.516
376.000	262.380	79.999	19.994	100.260	20.105	1.522	0.510
378.000	263.404	79.998	19.995	100.264	20.105	1.518	0.486
380.000	264.366	79.999	19.995	100.262	20.105	1.554	0.487
382.000	265.400	79.997	19.995	100.267	20.103	1.707	0.515
384.000	266.396	79.998	19.996	100.266	20.106	1.490	0.517
386.000	267.389	79.998	19.996	100.264	20.104	1.592	0.493
388.000	268.384	79.997	19.996	100.262	20.107	1.421	0.504
390.000	269.389	79.997	19.996	100.261	20.106	1.464	0.499
392.000	270.403	79.998	19.995	100.261	20.109	1.229	0.509
394.000	271.400	79.999	19.996	100.263	20.108	1.280	0.513
396.000	272.365	79.999	19.995	100.261	20.107	1.419	0.442
398.000	273.378	79.999	19.995	100.261	20.109	1.276	0.477
400.000	274.405	79.999	19.996	100.256	20.105	1.571	0.484
402.000	275.395	79.998	19.995	100.257	20.106	1.451	0.509
404.000	276.364	80.000	19.996	100.254	20.107	1.398	0.466
406.000	277.400	79.998	19.996	100.255	20.108	1.355	0.482
408.000	278.413	79.997	19.995	100.260	20.107	1.434	0.493
410.000	279.395	79.998	19.995	100.258	20.109	1.261	0.486
412.000	280.353	79.996	19.995	100.261	20.109	1.210	0.470
414.000	281.391	79.997	19.995	100.252	20.110	1.127	0.503
416.000	282.309	79.997	19.994	100.252	20.110	1.140	0.488
418.000	283.376	79.998	19.994	100.257	20.108	1.319	0.479
420.000	284.393	79.997	19.994	100.259	20.112	1.035	0.494
422.000	285.353	79.997	19.995	100.250	20.112	1.024	0.490
424.000	286.369	79.998	19.995	100.264	20.113	0.958	0.507
426.000	287.357	79.997	19.996	100.259	20.109	1.264	0.502
428.000	288.351	79.997	19.997	100.264	20.108	1.313	0.480
430.000	289.380	79.998	19.996	100.260	20.115	0.771	0.515
432.000	290.377	79.998	19.996	100.262	20.111	1.108	0.516
434.000	291.356	79.996	19.995	100.255	20.113	0.922	0.502
436.000	292.374	79.997	19.995	100.263	20.112	0.990	0.532
438.000	293.371	79.996	19.995	100.266	20.114	0.843	0.494
440.000	294.383	79.996	19.994	100.266	20.114	0.879	0.502
442.000	295.374	79.996	19.994	100.264	20.113	0.935	0.458
444.000	296.423	79.996	19.995	100.266	20.114	0.815	0.492
446.000	297.425	79.997	19.995	100.266	20.116	0.679	0.509
448.000	298.424	79.998	19.995	100.264	20.110	1.125	0.522
450.000	299.433	79.999	19.995	100.260	20.113	0.939	0.521
452.000	300.445	80.000	19.995	100.259	20.110	1.180	0.516
454.000	301.404	80.001	19.996	100.262	20.110	1.176	0.468
456.000	302.418	79.999	19.996	100.262	20.112	1.022	0.487
458.000	303.449	79.998	19.995	100.263	20.114	0.860	0.530
460.000	304.460	79.998	19.996	100.262	20.116	0.685	0.523
462.000	305.440	80.000	19.995	100.248	20.115	0.788	0.502
464.000	306.418	79.999	19.996	100.257	20.113	0.935	0.469
466.000	307.483	79.999	19.995	100.256	20.113	0.928	0.514
468.000	308.456	79.999	19.995	100.255	20.113	0.898	0.498
470.000	309.506	79.999	19.996	100.257	20.108	1.306	0.500
472.000	310.500	79.999	19.995	100.255	20.113	0.937	0.526
474.000	311.503	80.000	19.996	100.260	20.112	1.033	0.489
476.000	312.527	80.001	19.995	100.252	20.109	1.206	0.561
478.000	313.513	80.000	19.996	100.248	20.111	1.054	0.490
480.000	314.548	79.999	19.996	100.260	20.112	0.982	0.527
482.000	315.520	80.000	19.995	100.262	20.112	1.031	0.484
484.000	316.517	79.998	19.995	100.259	20.110	1.142	0.460
486.000	317.558	79.997	19.995	100.246	20.114	0.854	0.519
488.000	318.572	79.998	19.997	100.231	20.114	0.832	0.506
490.000	319.580	79.996	19.996	100.250	20.116	0.676	0.520
492.000	320.574	79.996	19.995	100.259	20.116	0.696	0.513
494.000	321.574	79.998	19.996	100.238	20.116	0.711	0.516
496.000	322.534	79.996	19.995	100.245	20.113	0.933	0.497
498.000	323.568	79.995	19.994	100.240	20.114	0.839	0.495
500.000	324.559	79.997	19.995	100.248	20.112	1.011	0.499
502.000	325.626	79.998	19.994	100.249	20.115	0.758	0.507
504.000	326.628	79.997	19.994	100.249	20.115	0.809	0.525
506.000	327.654	79.997	19.995	100.257	20.115	0.804	0.532
508.000	328.638	79.998	19.996	100.247	20.112	0.977	0.494
510.000	329.656	79.998	19.995	100.245	20.117	0.619	0.518
512.000	330.647	79.998	19.994	100.237	20.114	0.888	0.505
514.000	331.663	79.998	19.995	100.243	20.110	1.195	0.520
516.000	332.670	79.997	19.995	100.233	20.115	0.741	0.513
518.000	333.735	79.997	19.995	100.241	20.114	0.828	0.523
520.000	334.703	79.998	19.995	100.241	20.112	1.011	0.493
522.000	335.726	79.997	19.995	100.236	20.113	0.956	0.521
524.000	336.711	79.997	19.994	100.243	20.116	0.662	0.517
526.000	337.721	79.998	19.995	100.243	20.117	0.610	0.490
528.000	338.767	79.997	19.995	100.248	20.114	0.815	0.515
530.000	339.766	79.999	19.995	100.233	20.112	0.979	0.507
532.000	340.789	80.000	19.995	100.236	20.113	0.952	0.528
534.000	341.784	80.000	19.996	100.231	20.111	1.095	0.522
536.000	342.785	80.000	19.994	100.244	20.113	0.954	0.469
538.000	343.799	79.998	19.993	100.233	20.114	0.836	0.505
540.000	344.814	80.000	19.995	100.227	20.112	1.003	0.497
542.000	345.810	79.999	19.996	100.238	20.113	0.947	0.521
544.000	346.875	79.999	19.996	100.240	20.115	0.766	0.537
546.000	347.828	79.998	19.997	100.235	20.113	0.900	0.512
548.000	348.816	80.000	19.996	100.238	20.116	0.721	0.509
550.000	349.818	79.998	19.997	100.229	20.114	0.832	0.469
552.000	350.821	79.997	19.997	100.231	20.114	0.847	0.475
554.000	351.850	79.997	19.996	100.236	20.114	0.870	0.505
556.000	352.896	80.000	19.996	100.232	20.113	0.962	0.519
558.000	353.925	80.000	19.996	100.227	20.110	1.125	0.527
560.000	354.917	79.999	19.996	100.230	20.110	1.144	0.476
562.000	355.903	79.998	19.995	100.225	20.111	1.075	0.462
564.000	356.927	79.997	19.996	100.224	20.108	1.299	0.495
566.000	357.951	79.997	19.995	100.229	20.110	1.139	0.504
568.000	358.939	79.997	19.995	100.232	20.110	1.195	0.511
570.000	359.941	79.997	19.995	100.242	20.109	1.269	0.486
572.000	360.962	79.995	19.995	100.229	20.109	1.270	0.527
574.000	361.992	79.996	19.996	100.227	20.109	1.278	0.536
576.000	362.951	79.998	19.996	100.228	20.109	1.212	0.489
578.000	363.977	79.995	19.995	100.232	20.105	1.579	0.489
580.000	365.014	79.995	19.995	100.230	20.107	1.421	0.516
582.000	366.035	79.997	19.997	100.227	20.105	1.572	0.471
584.000	367.093	79.997	19.996	100.229	20.101	1.882	0.507
586.000	368.087	79.997	19.996	100.223	20.101	1.897	0.519
588.000	369.130	79.997	19.995	100.227	20.099	2.003	0.512
590.000	370.141	79.997	19.996	100.228	20.097	2.157	0.495
592.000	371.165	79.997	19.995	100.225	20.096	2.291	0.521
594.000	372.179	79.996	19.995	100.229	20.095	2.368	0.506
596.000	373.198	79.997	19.994	100.232	20.093	2.501	0.500
598.000	374.244	79.997	19.995	100.226	20.094	2.420	0.501
600.000	375.212	79.997	19.996	100.225	20.088	2.906	0.490
602.000	376.291	79.997	19.997	100.224	20.082	3.320	0.493
604.000	377.360	79.997	19.996	100.229	20.079	3.602	0.528
606.000	378.330	79.997	19.995	100.235	20.072	4.144	0.515
608.000	379.395	79.997	19.996	100.230	20.066	4.569	0.520
610.000	380.412	79.998	19.996	100.239	20.062	4.928	0.503
612.000	381.405	80.000	19.996	100.243	20.056	5.365	0.481
614.000	382.483	79.998	19.996	100.236	20.044	6.336	0.530
616.000	383.496	79.998	19.995	100.235	20.041	6.559	0.521
618.000	384.506	79.998	19.995	100.244	20.031	7.351	0.492
620.000	385.522	79.999	19.994	100.260	20.016	8.480	0.510
622.000	386.541	79.998	19.995	100.255	20.008	9.139	0.506
624.000	387.603	79.999	19.995	100.247	19.997	9.961	0.522
626.000	388.640	79.999	19.995	100.254	19.983	11.133	0.513
628.000	389.607	79.997	19.995	100.262	19.969	12.172	0.487
630.000	390.640	79.999	19.994	100.264	19.953	13.427	0.519
632.000	391.674	80.000	19.996	100.263	19.943	14.231	0.503
634.000	392.638	79.999	19.995	100.266	19.922	15.854	0.492
636.000	393.695	80.000	19.995	100.264	19.901	17.521	0.496
638.000	394.716	80.000	19.995	100.264	19.884	18.818	0.495
640.000	395.726	79.999	19.996	100.263	19.866	20.240	0.501
642.000	396.741	79.998	19.996	100.260	19.839	22.349	0.498
644.000	397.738	79.998	19.996	100.268	19.820	23.818	0.496
646.000	398.734	79.998	19.996	100.277	19.788	26.382	0.508
648.000	399.757	79.996	19.995	100.287	19.765	28.176	0.508
650.000	400.716	79.997	19.997	100.292	19.736	30.442	0.490
652.000	401.697	79.997	19.995	100.300	19.704	32.939	0.517
654.000	402.704	79.997	19.995	100.302	19.670	35.598	0.475
656.000	403.699	79.997	19.995	100.310	19.636	38.240	0.492
658.000	404.654	79.997	19.996	100.317	19.602	40.905	0.467
660.000	405.638	79.997	19.995	100.338	19.560	44.191	0.490
662.000	406.651	79.997	19.996	100.339	19.519	47.403	0.523
664.000	407.642	79.997	19.996	100.339	19.478	50.642	0.501
666.000	408.613	79.998	19.997	100.343	19.432	54.295	0.501
668.000	409.626	79.996	19.998	100.365	19.381	58.289	0.501
670.000	410.627	79.996	19.996	100.378	19.330	62.291	0.522
672.000	411.606	79.996	19.996	100.386	19.266	67.266	0.492
674.000	412.584	79.995	19.996	100.400	19.210	71.660	0.489
676.000	413.530	79.997	19.996	100.408	19.145	76.802	0.472
678.000	414.568	79.996	19.996	100.425	19.081	81.848	0.498
680.000	415.512	79.995	19.995	100.431	19.016	86.962	0.513
682.000	416.523	79.995	19.995	100.452	18.946	92.408	0.513
684.000	417.519	79.997	19.995	100.466	18.874	98.099	0.522
686.000	418.538	79.995	19.994	100.485	18.799	104.023	0.513
688.000	419.490	79.997	19.993	100.501	18.724	109.920	0.473
690.000	420.498	79.997	19.994	100.524	18.636	116.761	0.475
692.000	421.489	79.998	19.994	100.535	18.551	123.493	0.484
694.000	422.480	79.998	19.995	100.547	18.465	130.293	0.490
696.000	423.475	79.998	19.994	100.555	18.383	136.757	0.492
698.000	424.472	79.997	19.994	100.557	18.300	143.253	0.501
700.000	425.415	79.998	19.995	100.574	18.223	149.352	0.510
702.000	426.432	79.997	19.995	100.588	18.141	155.816	0.481
704.000	427.435	80.000	19.995	100.615	18.058	162.392	0.511
706.000	428.484	79.998	19.994	100.643	17.979	168.559	0.531
708.000	429.442	79.998	19.996	100.641	17.897	175.029	0.504
710.000	430.445	80.000	19.996	100.661	17.820	181.154	0.494
712.000	431.473	79.998	19.996	100.690	17.745	187.039	0.457
714.000	432.489	80.001	19.995	100.703	17.667	193.204	0.538
716.000	433.497	80.000	19.995	100.719	17.594	198.969	0.505
718.000	434.577	80.001	19.995	100.733	17.525	204.430	0.531
720.000	435.554	80.001	19.995	100.743	17.458	209.791	0.513
722.000	436.601	79.998	19.995	100.771	17.400	214.306	0.534
724.000	437.600	79.998	19.997	100.773	17.349	218.368	0.521
726.000	438.605	79.997	19.995	100.799	17.301	222.150	0.497
728.000	439.642	79.997	19.996	100.796	17.254	225.883	0.527
730.000	440.641	79.996	19.996	100.832	17.217	228.892	0.530
732.000	441.602	79.997	19.996	100.848	17.191	230.888	0.497
734.000	442.612	79.997	19.996	100.845	17.182	231.565	0.492
736.000	443.624	79.996	19.996	100.850	17.180	231.696	0.465
738.000	444.659	79.996	19.996	100.869	17.187	231.167	0.487
740.000	445.639	79.997	19.996	100.898	17.204	229.793	0.463
742.000	446.658	79.996	19.995	100.911	17.238	227.155	0.507
744.000	447.729	79.996	19.995	100.894	17.289	223.121	0.545
746.000	448.666	79.997	19.994	100.872	17.354	217.930	0.479
748.000	449.698	79.996	19.995	100.857	17.430	211.921	0.447
750.000	450.754	79.996	19.996	100.870	17.496	206.685	0.514
752.000	451.793	79.996	19.995	100.885	17.597	198.692	0.520
754.000	452.730	79.995	19.996	100.870	17.684	191.796	0.479
756.000	453.830	79.995	19.995	100.864	17.761	185.686	0.557
758.000	454.736	79.995	19.996	100.834	17.850	178.698	0.505
760.000	455.852	79.995	19.996	100.815	17.945	171.156	0.495
762.000	456.849	79.995	19.996	100.802	18.039	163.777	0.419
764.000	457.643	79.997	19.996	100.768	18.143	155.517	-0.006
766.000	459.464	79.998	19.996	100.739	18.243	147.655	0.684
768.000	460.271	79.998	19.996	100.715	18.354	138.924	0.298
770.000	460.995	79.999	19.995	100.689	18.451	131.211	0.614
772.000	462.050	79.999	19.996	100.660	18.569	121.932	0.549
774.000	463.048	79.999	19.995	100.640	18.682	113.031	0.503
776.000	464.097	80.000	19.997	100.606	18.794	104.225	0.453
778.000	465.070	79.999	19.996	100.569	18.911	95.079	0.493
780.000	466.194	79.997	19.995	100.539	19.027	85.935	0.462
782.000	467.277	79.998	19.996	100.505	19.137	77.347	0.555
784.000	468.324	79.998	19.994	100.470	19.251	68.423	0.518
786.000	469.349	79.998	19.995	100.442	19.357	60.073	0.557
788.000	470.391	79.999	19.996	100.417	19.451	52.757	0.557
790.000	471.472	79.999	19.995	100.394	19.537	45.965	0.525
792.000	472.474	79.998	19.995	100.364	19.611	40.188	0.508
794.000	473.530	79.998	19.995	100.338	19.672	35.386	0.511
796.000	474.640	79.998	19.994	100.334	19.735	30.492	0.529
798.000	475.680	80.000	19.995	100.314	19.776	27.265	0.505
800.000	476.749	79.999	19.995	100.297	19.824	23.553	0.533
802.000	477.787	79.998	19.995	100.277	19.861	20.660	0.523
804.000	478.830	79.997	19.996	100.264	19.888	18.499	0.542
806.000	479.946	79.996	19.995	100.265	19.917	16.220	0.564
808.000	480.932	79.998	19.994	100.257	19.939	14.535	0.531
810.000	482.037	79.997	19.993	100.245	19.963	12.657	0.520
812.000	483.122	79.995	19.993	100.241	19.977	11.522	0.546
814.000	484.148	79.997	19.995	100.233	19.997	9.979	0.514
816.000	485.193	79.997	19.995	100.235	20.012	8.783	0.531
818.000	486.237	79.996	19.995	100.237	20.026	7.717	0.517
820.000	487.309	79.995	19.994	100.233	20.040	6.640	0.511
822.000	488.350	79.995	19.994	100.231	20.046	6.132	0.498
824.000	489.405	79.996	19.995	100.227	20.058	5.223	0.537
826.000	490.449	79.995	19.994	100.224	20.066	4.611	0.512
828.000	491.506	79.996	19.994	100.204	20.068	4.477	0.520
830.000	492.538	79.997	19.995	100.197	20.072	4.106	0.509
832.000	493.588	79.997	19.996	100.195	20.083	3.248	0.496
834.000	494.683	79.996	19.995	100.186	20.089	2.775	0.554
836.000	495.689	79.996	19.995	100.194	20.093	2.450	0.515
838.000	496.698	79.997	19.996	100.190	20.092	2.549	0.506
840.000	497.725	79.996	19.996	100.195	20.098	2.094	0.506
842.000	498.748	79.995	19.994	100.194	20.099	2.028	0.505
844.000	499.786	79.998	19.996	100.190	20.103	1.706	0.497
846.000	500.829	79.997	19.997	100.185	20.107	1.405	0.495
848.000	501.864	79.997	19.996	100.183	20.106	1.469	0.547
850.000	502.848	79.998	19.996	100.182	20.110	1.177	0.502
852.000	503.885	79.998	19.994	100.184	20.114	0.877	0.532
854.000	504.885	79.999	19.995	100.185	20.115	0.755	0.524
856.000	505.908	79.998	19.995	100.182	20.116	0.674	0.523
858.000	506.943	79.998	19.994	100.187	20.110	1.137	0.516
860.000	507.968	79.998	19.994	100.184	20.115	0.783	0.548
862.000	508.947	79.997	19.995	100.185	20.114	0.827	0.483
864.000	510.002	79.999	19.994	100.190	20.114	0.872	0.514
866.000	510.983	79.998	19.995	100.187	20.117	0.606	0.528
868.000	511.986	79.998	19.994	100.186	20.120	0.386	0.499
870.000	512.964	80.000	19.995	100.190	20.118	0.537	0.486
872.000	513.970	80.000	19.994	100.191	20.118	0.525	0.514
874.000	514.986	80.000	19.994	100.185	20.120	0.382	0.512
876.000	516.048	79.999	19.994	100.185	20.122	0.224	0.517
878.000	517.052	79.998	19.994	100.189	20.119	0.433	0.482
880.000	518.066	79.999	19.995	100.190	20.123	0.179	0.544
882.000	519.100	79.996	19.995	100.186	20.120	0.373	0.504
884.000	520.138	79.996	19.995	100.187	20.121	0.320	0.506
886.000	521.161	79.997	19.996	100.186	20.120	0.384	0.528
888.000	522.147	79.995	19.994	100.188	20.124	0.085	0.513
890.000	523.197	79.996	19.995	100.187	20.127	-0.200	0.484
892.000	524.227	79.997	19.994	100.185	20.124	0.038	0.511
894.000	525.265	79.999	19.996	100.184	20.121	0.267	0.530
896.000	526.296	79.997	19.994	100.194	20.126	-0.126	0.538
898.000	527.328	79.997	19.995	100.189	20.124	0.041	0.547
900.000	528.390	79.998	19.995	100.187	20.126	-0.102	0.515
902.000	529.448	79.998	19.996	100.186	20.126	-0.053	0.565
904.000	530.451	79.996	19.995	100.183	20.127	-0.192	0.515
906.000	531.454	79.997	19.995	100.172	20.126	-0.066	0.494
908.000	532.490	79.996	19.995	100.183	20.129	-0.290	0.465
910.000	533.503	79.997	19.995	100.184	20.130	-0.392	0.517
912.000	534.534	79.997	19.994	100.175	20.125	-0.038	0.530
914.000	535.595	79.996	19.995	100.183	20.126	-0.122	0.517
916.000	536.659	79.997	19.997	100.185	20.126	-0.053	0.500
918.000	537.668	79.998	19.996	100.183	20.125	-0.004	0.517
920.000	538.692	79.997	19.996	100.184	20.120	0.390	0.522
922.000	539.725	79.997	19.996	100.182	20.122	0.254	0.490
924.000	540.711	79.997	19.995	100.179	20.127	-0.158	0.478
926.000	541.722	79.998	19.995	100.188	20.123	0.181	0.524
928.000	542.733	79.997	19.994	100.191	20.123	0.130	0.509
930.000	543.749	79.997	19.995	100.185	20.123	0.115	0.513
932.000	544.746	79.997	19.996	100.185	20.124	0.092	0.491
934.000	545.761	79.997	19.995	100.186	20.124	0.062	0.494
936.000	546.734	79.997	19.996	100.199	20.127	-0.196	0.493
938.000	547.803	79.996	19.996	100.135	20.122	0.232	0.489
940.000	548.829	79.997	19.996	100.213	20.123	0.111	0.509
942.000	549.796	79.997	19.995	100.217	20.124	0.077	0.510
944.000	550.825	79.997	19.996	100.188	20.124	0.090	0.519
946.000	551.814	79.997	19.994	100.189	20.125	-0.013	0.506
948.000	552.865	79.998	19.995	100.187	20.129	-0.329	0.498
950.000	553.859	79.999	19.995	100.187	20.129	-0.301	0.512
952.000	554.900	79.999	19.994	100.190	20.135	-0.819	0.518
954.000	555.900	79.999	19.994	100.197	20.136	-0.866	0.514
956.000	556.930	80.001	19.994	100.213	20.139	-1.094	0.501
958.000	557.960	79.999	19.994	100.201	20.141	-1.299	0.513
960.000	559.016	79.999	19.994	100.203	20.145	-1.536	0.529
962.000	560.014	79.998	19.995	100.194	20.144	-1.472	0.510
964.000	561.047	79.998	19.996	100.185	20.140	-1.147	0.509
966.000	562.077	79.997	19.996	100.188	20.137	-0.930	0.526
968.000	563.084	79.997	19.995	100.186	20.136	-0.906	0.534
970.000	564.114	79.996	19.996	100.190	20.133	-0.601	0.531
972.000	565.121	79.997	19.994	100.189	20.138	-0.996	0.487
974.000	566.127	79.998	19.995	100.186	20.129	-0.341	0.456
976.000	567.156	79.999	19.995	100.184	20.131	-0.459	0.500
978.000	568.190	80.000	19.995	100.184	20.128	-0.277	0.536
980.000	569.162	79.998	19.995	100.186	20.124	0.085	0.504
982.000	570.219	79.998	19.994	100.184	20.124	0.079	0.524
984.000	571.263	79.998	19.994	100.184	20.121	0.318	0.533
986.000	572.286	79.998	19.994	100.184	20.122	0.218	0.525
988.000	573.297	79.998	19.994	100.185	20.125	-0.041	0.513
990.000	574.379	79.997	19.995	100.187	20.122	0.235	0.583
992.000	575.408	79.996	19.995	100.190	20.120	0.377	0.514
994.000	576.423	79.996	19.995	100.190	20.119	0.465	0.517
996.000	577.407	79.997	19.997	100.187	20.119	0.495	0.501
998.000	578.445	79.996	19.996	100.187	20.118	0.533	0.514
1000.000	579.484	79.997	19.996	100.188	20.116	0.704	0.532
1002.000	580.543	79.998	19.996	100.175	20.112	1.011	0.537
1004.000	581.569	79.997	19.995	100.179	20.111	1.064	0.503
1006.000	582.582	79.998	19.995	100.183	20.115	0.806	0.496
1008.000	583.621	79.998	19.995	100.181	20.116	0.727	0.497
1010.000	584.592	79.998	19.996	100.182	20.113	0.894	0.496
1012.000	585.630	79.998	19.995	100.190	20.109	1.203	0.494
1014.000	586.665	80.000	19.996	100.188	20.109	1.226	0.498
1016.000	587.693	79.997	19.994	100.182	20.114	0.879	0.492
1018.000	588.733	79.997	19.994	100.185	20.110	1.124	0.523
1020.000	589.789	79.996	19.996	100.184	20.107	1.365	0.529
1022.000	590.829	79.997	19.995	100.183	20.113	0.957	0.524
1024.000	591.830	79.999	19.996	100.184	20.115	0.793	0.504
1026.000	592.804	79.998	19.995	100.179	20.110	1.169	0.471
1028.000	593.859	79.999	19.994	100.179	20.110	1.175	0.533
1030.000	594.901	80.000	19.997	100.170	20.109	1.201	0.510
1032.000	595.943	80.000	19.995	100.163	20.113	0.953	0.525
1034.000	596.913	80.001	19.995	100.174	20.116	0.723	0.503
1036.000	597.948	79.999	19.995	100.176	20.114	0.817	0.513
1038.000	598.963	79.999	19.994	100.180	20.113	0.898	0.508
1040.000	599.953	79.999	19.994	100.181	20.117	0.621	0.482
1042.000	600.976	79.998	19.995	100.178	20.114	0.830	0.470
1044.000	602.001	79.999	19.996	100.182	20.114	0.810	0.496
1046.000	603.028	79.998	19.995	100.168	20.115	0.759	0.501
1048.000	604.068	79.996	19.996	100.178	20.113	0.919	0.546
1050.000	605.071	79.997	19.994	100.183	20.110	1.139	0.490
1052.000	606.121	79.997	19.996	100.186	20.112	1.036	0.545
1054.001	607.135	79.997	19.995	100.185	20.111	1.062	0.515
1056.001	608.150	79.998	19.995	100.186	20.116	0.712	0.508
1058.000	609.171	79.997	19.995	100.183	20.111	1.085	0.504
1060.001	610.217	79.998	19.995	100.186	20.114	0.833	0.527
1062.000	611.222	79.999	19.993	100.185	20.115	0.779	0.516
1064.000	612.235	79.997	19.995	100.183	20.117	0.646	0.500
1066.000	613.255	79.997	19.997	100.176	20.114	0.859	0.509
1068.000	614.303	79.996	19.994	100.183	20.121	0.296	0.528
1070.000	615.327	79.997	19.995	100.143	20.114	0.819	0.523
1072.001	616.407	79.997	19.994	100.197	20.114	0.849	0.531
1074.000	617.425	79.998	19.995	100.232	20.118	0.565	0.528
1076.000	618.447	79.997	19.994	100.188	20.115	0.755	0.528
1078.000	619.495	79.997	19.994	100.190	20.119	0.431	0.515
1080.000	620.540	79.998	19.996	100.195	20.114	0.881	0.500
1082.000	621.551	79.999	19.995	100.189	20.118	0.548	0.510
1084.000	622.611	79.998	19.995	100.186	20.117	0.621	0.506
1086.000	623.648	80.000	19.995	100.184	20.115	0.746	0.539
1088.000	624.659	80.000	19.995	100.182	20.115	0.804	0.501
1090.000	625.655	79.999	19.996	100.177	20.117	0.631	0.497
1092.000	626.695	80.000	19.995	100.180	20.117	0.627	0.524
1094.000	627.709	80.000	19.995	100.175	20.115	0.755	0.489
1096.000	628.711	79.998	19.996	100.182	20.117	0.625	0.524
1098.000	629.747	79.998	19.995	100.183	20.119	0.456	0.502
1100.001	630.742	80.001	19.995	100.178	20.119	0.463	0.487
1102.001	631.816	79.998	19.995	100.177	20.119	0.490	0.533
1104.000	632.834	79.998	19.994	100.172	20.118	0.561	0.504
1106.000	633.840	79.998	19.995	100.179	20.118	0.510	0.502
1108.000	634.883	80.000	19.996	100.177	20.118	0.542	0.501
1110.000	635.907	80.000	19.995	100.175	20.118	0.531	0.528
1112.000	636.941	80.000	19.996	100.174	20.118	0.567	0.523
1114.000	637.985	80.001	19.996	100.159	20.118	0.561	0.511
1116.000	639.030	79.998	19.995	100.168	20.117	0.631	0.545
1118.000	640.026	79.999	19.996	100.181	20.121	0.271	0.504
1120.000	641.046	79.999	19.995	100.178	20.116	0.663	0.509
1122.000	642.060	79.997	19.995	100.183	20.121	0.316	0.534
1124.000	643.040	79.998	19.995	100.186	20.119	0.433	0.490
1126.000	644.066	79.997	19.995	100.185	20.123	0.139	0.497
1128.000	645.053	79.998	19.994	100.188	20.120	0.392	0.490
1130.000	646.080	79.997	19.994	100.186	20.122	0.203	0.512
1132.001	647.070	79.997	19.993	100.188	20.120	0.382	0.502
1134.000	648.084	79.998	19.993	100.185	20.122	0.230	0.508
1136.000	649.119	79.999	19.993	100.180	20.122	0.252	0.488
1138.000	650.121	79.998	19.994	100.186	20.120	0.382	0.549
1140.000	651.171	79.998	19.995	100.177	20.119	0.439	0.515
1142.000	652.146	79.997	19.996	100.182	20.118	0.525	0.490
1144.000	653.212	79.998	19.995	100.182	20.125	-0.026	0.506
1146.000	654.184	79.999	19.995	100.179	20.121	0.303	0.495
1148.000	655.261	79.999	19.994	100.174	20.122	0.222	0.571
1150.001	656.262	79.999	19.994	100.180	20.121	0.311	0.520
1152.000	657.336	79.997	19.996	100.184	20.121	0.314	0.538
1154.001	658.325	79.999	19.996	100.186	20.126	-0.115	0.521
1156.000	659.412	79.996	19.995	100.189	20.124	0.049	0.543
1158.000	660.417	79.999	19.995	100.184	20.125	-0.019	0.539
1160.000	661.473	79.999	19.994	100.184	20.128	-0.250	0.543
1162.000	662.519	80.000	19.994	100.184	20.127	-0.136	0.532
1164.000	663.500	79.999	19.993	100.183	20.125	0.013	0.514
1166.000	664.528	79.999	19.993	100.185	20.126	-0.058	0.505
1168.000	665.556	80.000	19.994	100.182	20.121	0.267	0.539
1170.000	666.594	80.001	19.995	100.184	20.126	-0.075	0.539
1172.000	667.580	80.000	19.995	100.180	20.123	0.126	0.486
1174.000	668.653	80.000	19.996	100.178	20.125	0.026	0.509
1176.000	669.680	79.998	19.995	100.173	20.123	0.107	0.545
1178.000	670.681	79.999	19.995	100.173	20.126	-0.111	0.503
1180.000	671.670	79.998	19.995	100.184	20.129	-0.296	0.523
1182.000	672.715	79.997	19.994	100.186	20.120	0.367	0.537
1184.001	673.735	79.998	19.995	100.186	20.125	0.023	0.542
1186.000	674.774	79.998	19.994	100.187	20.129	-0.314	0.537
1188.000	675.810	80.000	19.996	100.185	20.125	-0.015	0.520
1190.000	676.792	80.000	19.995	100.185	20.126	-0.117	0.500
1192.000	677.917	80.001	19.995	100.185	20.126	-0.058	0.576
1194.000	678.820	79.998	19.995	100.185	20.128	-0.247	0.475
1196.000	679.883	79.999	19.995	100.184	20.125	-0.019	0.504
1198.000	680.832	79.997	19.994	100.184	20.130	-0.397	0.491
1200.000	681.871	79.996	19.996	100.184	20.122	0.220	0.498
1202.000	682.885	79.996	19.994	100.187	20.127	-0.200	0.503
1204.000	683.924	79.996	19.995	100.187	20.127	-0.192	0.516
1206.001	684.904	79.997	19.997	100.191	20.128	-0.252	0.491
1208.000	685.908	79.996	19.996	100.187	20.131	-0.480	0.525
1210.000	686.916	79.998	19.996	100.185	20.131	-0.454	0.507
1212.000	687.959	79.997	19.995	100.184	20.129	-0.360	0.519
1214.000	688.946	79.996	19.995	100.181	20.125	0.013	0.472
1216.000	689.999	79.998	19.995	100.175	20.125	0.013	0.543
1218.000	690.973	79.999	19.995	100.173	20.126	-0.081	0.456
1220.000	692.004	79.998	19.995	100.179	20.121	0.296	0.505
1222.001	693.024	79.998	19.995	100.184	20.124	0.030	0.524
1224.000	694.046	79.998	19.994	100.184	20.127	-0.175	0.554
1226.000	695.038	79.996	19.994	100.198	20.131	-0.488	0.450
1228.000	696.069	79.998	19.996	100.190	20.127	-0.149	0.515
1230.000	697.079	79.996	19.994	100.185	20.127	-0.147	0.483
1232.000	698.110	79.997	19.995	100.185	20.124	0.062	0.503
1234.000	699.150	79.999	19.995	100.186	20.127	-0.145	0.507
1236.000	700.145	79.998	19.995	100.183	20.124	0.070	0.524
1238.001	701.158	79.998	19.996	100.186	20.123	0.147	0.485
1240.000	702.201	79.998	19.995	100.185	20.124	0.075	0.516
1242.000	703.228	79.997	19.995	100.186	20.125	-0.030	0.506
1244.000	704.227	79.999	19.994	100.184	20.121	0.284	0.507
1246.000	705.268	80.000	19.994	100.185	20.122	0.209	0.499
1248.000	706.255	79.999	19.993	100.180	20.123	0.115	0.511
1250.000	707.317	80.000	19.994	100.188	20.122	0.200	0.542
1252.000	708.299	79.999	19.995	100.190	20.129	-0.305	0.494
1254.000	709.349	79.998	19.993	100.193	20.125	0.011	0.519
1256.000	710.401	79.999	19.994	100.192	20.119	0.491	0.512
1258.000	711.423	79.997	19.992	100.188	20.124	0.073	0.493
1260.000	712.478	79.998	19.994	100.191	20.122	0.228	0.509
1262.000	713.500	79.999	19.995	100.188	20.125	-0.019	0.527
1264.000	714.543	79.999	19.995	100.189	20.124	0.062	0.520
1266.001	715.600	79.999	19.994	100.191	20.127	-0.183	0.536
1268.000	716.622	79.999	19.995	100.191	20.119	0.439	0.527
1270.000	717.646	79.999	19.994	100.187	20.126	-0.100	0.501
1272.000	718.654	80.000	19.995	100.186	20.119	0.478	0.491
1274.000	719.709	80.000	19.995	100.182	20.121	0.307	0.532
1276.000	720.737	79.999	19.996	100.182	20.117	0.629	0.522
1278.000	721.772	79.998	19.996	100.183	20.122	0.260	0.530
1280.000	722.761	79.999	19.995	100.191	20.125	-0.006	0.500
1282.000	723.749	79.998	19.994	100.182	20.116	0.721	0.497
1284.001	724.792	79.997	19.996	100.181	20.119	0.478	0.499
1286.000	725.809	79.998	19.996	100.186	20.118	0.544	0.473
1288.000	726.862	79.997	19.995	100.197	20.117	0.606	0.503
1290.000	727.856	79.997	19.996	100.195	20.123	0.154	0.491
1292.000	728.852	79.997	19.996	100.195	20.122	0.207	0.461
1294.000	729.919	79.998	19.997	100.188	20.119	0.454	0.518
1296.000	730.912	79.995	19.994	100.201	20.124	0.041	0.503
1298.000	731.912	79.997	19.996	100.195	20.123	0.177	0.498
1300.000	732.975	79.999	19.997	100.198	20.123	0.183	0.506
1302.000	733.956	79.997	19.996	100.182	20.116	0.706	0.520
1304.000	734.996	79.998	19.996	100.187	20.119	0.471	0.484
1306.000	736.023	79.998	19.994	100.187	20.119	0.478	0.497
1308.000	736.974	79.996	19.995	100.191	20.117	0.587	0.502
1310.000	738.000	79.996	19.995	100.188	20.116	0.729	0.472
1312.000	739.036	79.998	19.995	100.188	20.118	0.544	0.521
1314.000	739.999	79.996	19.996	100.188	20.111	1.071	0.488
1316.000	741.003	79.997	19.995	100.187	20.114	0.877	0.520
1318.000	741.998	79.997	19.995	100.196	20.121	0.316	0.497
1320.000	743.030	79.998	19.995	100.188	20.112	0.970	0.506
1321.000	743.498	79.998	19.994	100.186	20.121	0.320	0.492