File: 01_Data/Polyester_Bed_Skirt/STA/N2/3K_min/Polyester_Bed_Skirt_STA_N2_3KData_220525_R1.csv
##Temp./Â°C,Time/min,DSC(subtr.2)/(mW/mg),Mass loss(subtr.2)/mg,Sensit./(uV/mW)
50.201,10.01667,0.00895743,-0.01482,1.05675
50.801,11.0787,0.02719239,-0.01281335,1.05668
51.401,11.43781,0.04245692,-0.01881521,1.05662
52.001,11.72552,0.04868842,-0.01858479,1.05655
52.601,11.98429,0.0557655,-0.02079586,1.05648
53.201,12.22837,0.0580554,-0.01949421,1.05641
53.801,12.46343,0.06193713,-0.02228141,1.05634
54.401,12.69266,0.06108683,-0.01954528,1.05627
55.001,12.91734,0.06400959,-0.02089475,1.0562
55.601,13.1405,0.06464095,-0.02020117,1.05613
56.201,13.36253,0.06319222,-0.02016821,1.05606
56.801,13.58359,0.06293652,-0.01987046,1.05599
57.401,13.80144,0.06450817,-0.02020846,1.05592
58.001,14.0173,0.0661896,-0.0215585,1.05584
58.601,14.2306,0.06553802,-0.02152055,1.05577
59.201,14.4422,0.06781376,-0.02151998,1.0557
59.801,14.65281,0.06742545,-0.02149281,1.05562
60.401,14.8631,0.06704396,-0.02421334,1.05555
61.001,15.073,0.06816297,-0.02284,1.05547
61.601,15.28166,0.06783574,-0.02282282,1.05539
62.201,15.4893,0.06804158,-0.02151334,1.05532
62.801,15.6965,0.06946522,-0.02323182,1.05524
63.401,15.9022,0.07231393,-0.02190432,1.05516
64.001,16.10647,0.07273866,-0.02305893,1.05508
64.601,16.3105,0.07315542,-0.02295773,1.055
65.201,16.5134,0.07204932,-0.0229387,1.05492
65.801,16.71709,0.07450896,-0.02425462,1.05484
66.401,16.9211,0.07461533,-0.02428867,1.05476
67.001,17.1246,0.07452652,-0.02318612,1.05468
67.601,17.32836,0.07403797,-0.02563284,1.0546
68.201,17.53143,0.07308303,-0.02427845,1.05451
68.801,17.7337,0.07183543,-0.02426472,1.05443
69.401,17.93506,0.07382088,-0.0249251,1.05435
70.001,18.1354,0.07395046,-0.02392172,1.05426
70.601,18.3352,0.07407423,-0.02360211,1.05418
71.201,18.53602,0.07338661,-0.02491689,1.05409
71.801,18.73661,0.07204314,-0.02525664,1.054
72.401,18.9378,0.07264523,-0.02785525,1.05392
73.001,19.13939,0.07035112,-0.02515265,1.05383
73.601,19.34064,0.07113421,-0.02525031,1.05374
74.201,19.54187,0.06961059,-0.02527156,1.05365
74.801,19.74302,0.06863101,-0.02557295,1.05356
75.401,19.94463,0.06699444,-0.02525017,1.05347
76.001,20.14633,0.06863869,-0.0265598,1.05338
76.601,20.34732,0.06934057,-0.02525006,1.05329
77.201,20.5483,0.07046826,-0.02587422,1.0532
77.801,20.7487,0.07016922,-0.02656896,1.05311
78.401,20.94885,0.06995427,-0.02657007,1.05302
79.001,21.14919,0.06767898,-0.02625095,1.05292
79.601,21.34872,0.06680785,-0.02526936,1.05283
80.201,21.54893,0.06816197,-0.02657151,1.05273
80.801,21.74939,0.0654578,-0.02490029,1.05264
81.401,21.9502,0.06763097,-0.02492,1.05254
82.001,22.14965,0.06512966,-0.02624013,1.05245
82.601,22.34858,0.06521743,-0.02621761,1.05235
83.201,22.54745,0.06546234,-0.02658483,1.05225
83.801,22.74697,0.06616436,-0.02723139,1.05216
84.401,22.94736,0.06601332,-0.02722915,1.05206
85.001,23.14692,0.06512926,-0.02656944,1.05196
85.601,23.3466,0.06472832,-0.03097674,1.05186
86.201,23.5458,0.06377264,-0.02707172,1.05176
86.801,23.74488,0.0636281,-0.02671189,1.05166
87.401,23.94518,0.06208317,-0.02710511,1.05155
88.001,24.1454,0.06256616,-0.02844017,1.05145
88.601,24.34597,0.06385145,-0.02711984,1.05135
89.201,24.54524,0.06384491,-0.02843003,1.05125
89.801,24.7446,0.06216368,-0.02841369,1.05114
90.401,24.94456,0.06173559,-0.02853471,1.05104
91.001,25.14527,0.05983381,-0.02976668,1.05093
91.601,25.34664,0.05978736,-0.02958033,1.05083
92.201,25.54713,0.06078514,-0.02941893,1.05072
92.801,25.7471,0.06147077,-0.02942524,1.05061
93.401,25.94596,0.06273984,-0.03073062,1.05051
94.001,26.14451,0.06292893,-0.03074002,1.0504
94.601,26.34405,0.06419522,-0.02971873,1.05029
95.201,26.54298,0.06541722,-0.0284302,1.05018
95.801,26.74212,0.06582408,-0.02947268,1.05007
96.401,26.9404,0.06338234,-0.02976018,1.04996
97.001,27.13816,0.06451809,-0.03107023,1.04985
97.601,27.33663,0.06474051,-0.02980475,1.04974
98.201,27.53558,0.06408638,-0.02981452,1.04962
98.801,27.73307,0.06368657,-0.03008963,1.04951
99.401,27.9312,0.06780098,-0.0308359,1.0494
100.001,28.1287,0.06675203,-0.02843017,1.04928
100.601,28.32615,0.06755616,-0.02974984,1.04917
101.201,28.5253,0.06691394,-0.03002692,1.04905
101.801,28.72268,0.06844883,-0.02978881,1.04894
102.401,28.92183,0.06776444,-0.0297522,1.04882
103.001,29.1201,0.0695336,-0.03106989,1.0487
103.601,29.31875,0.06883367,-0.03130578,1.04859
104.201,29.51747,0.06970378,-0.03107,1.04847
104.801,29.7156,0.07079047,-0.02975467,1.04835
105.401,29.9137,0.07237725,-0.03099958,1.04823
106.001,30.1114,0.07187888,-0.03006971,1.04811
106.601,30.3092,0.07189916,-0.03137478,1.04799
107.201,30.5065,0.07416616,-0.03077851,1.04787
107.801,30.70435,0.07314018,-0.03063942,1.04774
108.401,30.9024,0.07394282,-0.03074991,1.04762
109.001,31.09961,0.07355382,-0.03074507,1.0475
109.601,31.29744,0.07592356,-0.03008552,1.04738
110.201,31.49553,0.0740567,-0.02958207,1.04725
110.801,31.6934,0.0752336,-0.02952661,1.04713
111.401,31.89145,0.07685981,-0.03070327,1.047
112.001,32.08965,0.07774204,-0.02975206,1.04687
112.601,32.28696,0.07925398,-0.03073984,1.04675
113.201,32.4852,0.07703887,-0.03074205,1.04662
113.801,32.683,0.07852553,-0.03073503,1.04649
114.401,32.87943,0.07870868,-0.02976658,1.04636
115.001,33.07714,0.0796825,-0.02990308,1.04623
115.601,33.27378,0.08051163,-0.0297507,1.0461
116.201,33.47128,0.08028163,-0.0297356,1.04597
116.801,33.6694,0.08163317,-0.0297383,1.04584
117.401,33.86671,0.08273432,-0.02974996,1.04571
118.001,34.06516,0.08434789,-0.03041303,1.04558
118.601,34.263,0.08570166,-0.03088694,1.04544
119.201,34.46086,0.0843904,-0.03237773,1.04531
119.801,34.65837,0.08639578,-0.03270284,1.04518
120.401,34.85584,0.08632615,-0.03238942,1.04504
121.001,35.0538,0.08620848,-0.03209848,1.04491
121.601,35.2523,0.08656017,-0.03238253,1.04477
122.201,35.451,0.08739658,-0.03106664,1.04463
122.801,35.64922,0.08624744,-0.03234758,1.0445
123.401,35.8476,0.08807243,-0.03470916,1.04436
124.001,36.04557,0.08857729,-0.03341453,1.04422
124.601,36.2433,0.08748294,-0.03339864,1.04408
125.201,36.4409,0.08857094,-0.03404557,1.04394
125.801,36.63675,0.09066589,-0.03403,1.0438
126.401,36.83318,0.09142768,-0.03402999,1.04366
127.001,37.02961,0.09217557,-0.03271338,1.04352
127.601,37.22697,0.09053602,-0.03239009,1.04337
128.201,37.4244,0.09159749,-0.03253698,1.04323
128.801,37.62223,0.09308523,-0.033827,1.04309
129.401,37.81928,0.09211701,-0.0327069,1.04294
130.001,38.0156,0.09243181,-0.03403,1.0428
130.601,38.21244,0.0947627,-0.03403,1.04265
131.201,38.40886,0.09268404,-0.03351123,1.04251
131.801,38.60638,0.09399149,-0.03466004,1.04236
132.401,38.80344,0.09313082,-0.03433142,1.04221
133.001,39.00145,0.09432477,-0.03568708,1.04207
133.601,39.1997,0.09538044,-0.03436982,1.04192
134.201,39.39738,0.0969904,-0.0322061,1.04177
134.801,39.59497,0.09905357,-0.03373498,1.04162
135.401,39.79195,0.09860019,-0.03436252,1.04147
136.001,39.98827,0.0998193,-0.03305151,1.04132
136.601,40.18398,0.09773829,-0.03567978,1.04117
137.201,40.37976,0.09866471,-0.03304007,1.04101
137.801,40.57675,0.09819031,-0.03402817,1.04086
138.401,40.7744,0.09809499,-0.03370877,1.04071
139.001,40.97206,0.09935748,-0.03218773,1.04055
139.601,41.16887,0.09915567,-0.03444536,1.0404
140.201,41.36542,0.10044,-0.03578921,1.04024
140.801,41.56176,0.10016,-0.03677966,1.04009
141.401,41.7577,0.09969032,-0.03422755,1.03993
142.001,41.9537,0.10084,-0.03415124,1.03977
142.601,42.149,0.10061,-0.03547001,1.03961
143.201,42.34538,0.10105,-0.03415761,1.03946
143.801,42.54146,0.10163,-0.03547054,1.0393
144.401,42.73823,0.10086,-0.03315363,1.03914
145.001,42.93528,0.10129,-0.03555006,1.03898
145.601,43.13215,0.10241,-0.03413873,1.03881
146.201,43.32828,0.10257,-0.03427809,1.03865
146.801,43.5244,0.10345,-0.03537338,1.03849
147.401,43.72068,0.10176,-0.03578869,1.03833
148.001,43.9176,0.10197,-0.03578941,1.03816
148.601,44.11391,0.10142,-0.03579147,1.038
149.201,44.3098,0.1007,-0.03677999,1.03783
149.801,44.50529,0.10115,-0.03644803,1.03767
150.401,44.7014,0.10182,-0.03554328,1.0375
151.001,44.8975,0.10315,-0.03546396,1.03734
151.601,45.09319,0.10535,-0.03675921,1.03717
152.201,45.28921,0.10474,-0.03485435,1.037
152.801,45.4855,0.10513,-0.03612811,1.03683
153.401,45.6816,0.10467,-0.03711003,1.03666
154.001,45.87788,0.10667,-0.03603007,1.03649
154.601,46.0736,0.10569,-0.03708906,1.03632
155.201,46.2699,0.10607,-0.03612597,1.03615
155.801,46.46602,0.106,-0.0351426,1.03598
156.401,46.66257,0.10493,-0.03644053,1.03581
157.001,46.85908,0.1058,-0.0364502,1.03563
157.601,47.05567,0.10595,-0.03744685,1.03546
158.201,47.25213,0.10786,-0.03709309,1.03528
158.801,47.44839,0.1068,-0.03710976,1.03511
159.401,47.64452,0.10782,-0.03706342,1.03493
160.001,47.84069,0.10835,-0.03711,1.03476
160.601,48.0371,0.10897,-0.03578111,1.03458
161.201,48.2327,0.10887,-0.03575785,1.0344
161.801,48.4294,0.10867,-0.03809903,1.03422
162.401,48.62596,0.10902,-0.03577726,1.03404
163.001,48.82183,0.10929,-0.03579,1.03387
163.601,49.01778,0.10966,-0.0358526,1.03368
164.201,49.21308,0.11095,-0.03579115,1.0335
164.801,49.40804,0.10963,-0.03542614,1.03332
165.401,49.6028,0.11213,-0.03480065,1.03314
166.001,49.79813,0.11028,-0.03611999,1.03296
166.601,49.99366,0.11282,-0.03742926,1.03277
167.201,50.18969,0.11137,-0.0363569,1.03259
167.801,50.38589,0.1125,-0.03576076,1.0324
168.401,50.58077,0.11221,-0.03645236,1.03222
169.001,50.77568,0.11051,-0.03776207,1.03203
169.601,50.97038,0.11004,-0.03723613,1.03185
170.201,51.16505,0.11304,-0.03777032,1.03166
170.801,51.3606,0.11176,-0.0390899,1.03147
171.401,51.5554,0.11182,-0.0390891,1.03128
172.001,51.7504,0.11145,-0.03743478,1.03109
172.601,51.9456,0.11309,-0.03711,1.0309
173.201,52.14026,0.11152,-0.0384379,1.03071
173.801,52.33592,0.11088,-0.03710986,1.03052
174.401,52.53114,0.11202,-0.03843001,1.03033
175.001,52.7262,0.11223,-0.03843021,1.03014
175.601,52.92159,0.11206,-0.03678638,1.02994
176.201,53.1168,0.11306,-0.03908899,1.02975
176.801,53.3119,0.11275,-0.03774017,1.02956
177.401,53.5072,0.11149,-0.03871284,1.02936
178.001,53.70273,0.11367,-0.03780129,1.02916
178.601,53.89771,0.11405,-0.03844363,1.02897
179.201,54.0927,0.11433,-0.03843117,1.02877
179.801,54.28679,0.1161,-0.03973843,1.02857
180.401,54.48049,0.11711,-0.03908,1.02837
181.001,54.6746,0.11577,-0.03908165,1.02818
181.601,54.8687,0.1153,-0.04009998,1.02798
182.201,55.06338,0.11814,-0.04106635,1.02778
182.801,55.2589,0.11635,-0.04100987,1.02757
183.401,55.45469,0.11759,-0.0403992,1.02737
184.001,55.6504,0.11742,-0.03940961,1.02717
184.601,55.84516,0.11756,-0.04061122,1.02697
185.201,56.04145,0.11793,-0.03878785,1.02676
185.801,56.23731,0.119,-0.04217539,1.02656
186.401,56.4342,0.11858,-0.04205007,1.02635
187.001,56.6306,0.11918,-0.04204005,1.02615
187.601,56.8261,0.11708,-0.04359839,1.02594
188.201,57.0211,0.11711,-0.0436659,1.02574
188.801,57.2156,0.11764,-0.04128004,1.02553
189.401,57.4103,0.11732,-0.04128177,1.02532
190.001,57.60558,0.11876,-0.0426,1.02511
190.601,57.80036,0.11933,-0.0412789,1.0249
191.201,57.99579,0.11784,-0.04227,1.02469
191.801,58.19086,0.11915,-0.04269448,1.02448
192.401,58.38567,0.11863,-0.03959821,1.02427
193.001,58.58079,0.12106,-0.04095654,1.02406
193.601,58.7755,0.11999,-0.04127999,1.02384
194.201,58.96929,0.11913,-0.04063169,1.02363
194.801,59.16369,0.12045,-0.04161253,1.02342
195.401,59.3582,0.12158,-0.04156273,1.0232
196.001,59.5526,0.12113,-0.04195758,1.02299
196.601,59.74709,0.12192,-0.04194,1.02277
197.201,59.9422,0.12134,-0.04194,1.02255
197.801,60.1372,0.12155,-0.04147262,1.02234
198.401,60.333,0.12168,-0.04324436,1.02212
199.001,60.52704,0.12352,-0.04326,1.0219
199.601,60.72087,0.12275,-0.04326,1.02168
200.201,60.9137,0.12466,-0.04324045,1.02146
200.801,61.10736,0.12562,-0.04181712,1.02124
201.401,61.30155,0.12689,-0.04590662,1.02102
202.001,61.49646,0.12534,-0.04194008,1.0208
202.601,61.6918,0.12691,-0.04326337,1.02057
203.201,61.88736,0.12343,-0.04321363,1.02035
203.801,62.0822,0.12491,-0.04592455,1.02013
204.401,62.2771,0.12425,-0.04326022,1.0199
205.001,62.4723,0.12575,-0.04397337,1.01967
205.601,62.6678,0.1248,-0.04322719,1.01945
206.201,62.86305,0.12616,-0.04391921,1.01922
206.801,63.05829,0.12531,-0.04253408,1.01899
207.401,63.2524,0.12701,-0.04391986,1.01877
208.001,63.44744,0.12632,-0.04490008,1.01854
208.601,63.6417,0.12856,-0.04456999,1.01831
209.201,63.8354,0.12948,-0.04580316,1.01808
209.801,64.02946,0.13044,-0.04527465,1.01785
210.401,64.22195,0.13158,-0.0439128,1.01762
211.001,64.41577,0.13332,-0.0452095,1.01738
211.601,64.60934,0.13312,-0.04423313,1.01715
212.201,64.80349,0.13059,-0.04447549,1.01692
212.801,64.99735,0.13147,-0.0454363,1.01668
213.401,65.19139,0.13269,-0.0452342,1.01645
214.001,65.38582,0.13284,-0.04470981,1.01621
214.601,65.58026,0.1316,-0.04568348,1.01598
215.201,65.77513,0.13134,-0.04425392,1.01574
215.801,65.96992,0.13077,-0.04291589,1.0155
216.401,66.16513,0.13183,-0.04423643,1.01527
217.001,66.36073,0.13318,-0.04423948,1.01503
217.601,66.5555,0.13361,-0.04424001,1.01479
218.201,66.75029,0.13304,-0.04555973,1.01455
218.801,66.94459,0.13291,-0.04423967,1.01431
219.401,67.1391,0.13454,-0.04417698,1.01407
220.001,67.3345,0.13357,-0.04621967,1.01382
220.601,67.52903,0.13355,-0.0438568,1.01358
221.201,67.72318,0.13419,-0.04522859,1.01334
221.801,67.91802,0.13507,-0.04456224,1.01309
222.401,68.112,0.13446,-0.04561996,1.01285
223.001,68.30545,0.13422,-0.04423913,1.0126
223.601,68.49922,0.13406,-0.04556001,1.01236
224.201,68.69315,0.13783,-0.04617105,1.01211
224.801,68.88717,0.13621,-0.04471348,1.01186
225.401,69.08199,0.13609,-0.04469502,1.01162
226.001,69.27525,0.13515,-0.04611836,1.01137
226.601,69.46904,0.13699,-0.04404183,1.01112
227.201,69.66377,0.13726,-0.04600986,1.01087
227.801,69.8583,0.1372,-0.04601065,1.01062
228.401,70.0542,0.13937,-0.04592162,1.01037
229.001,70.249,0.13963,-0.04500757,1.01011
229.601,70.44458,0.13823,-0.04732541,1.00986
230.201,70.63981,0.14109,-0.04779114,1.00961
230.801,70.83481,0.14391,-0.04707085,1.00935
231.401,71.0285,0.14123,-0.04763235,1.0091
232.001,71.22219,0.14049,-0.04755959,1.00884
232.601,71.41553,0.14175,-0.04631288,1.00859
233.201,71.60855,0.14349,-0.04769793,1.00833
233.801,71.8023,0.14545,-0.04690992,1.00807
234.401,71.9967,0.14414,-0.04658227,1.00782
235.001,72.1918,0.14662,-0.04824034,1.00756
235.601,72.3857,0.1483,-0.04929984,1.0073
236.201,72.57984,0.14891,-0.04797995,1.00704
236.801,72.77401,0.14927,-0.04857175,1.00678
237.401,72.96865,0.15083,-0.04798,1.00652
238.001,73.1634,0.15083,-0.0467649,1.00625
238.601,73.3582,0.15133,-0.04666686,1.00599
239.201,73.55233,0.15166,-0.04797902,1.00573
239.801,73.7467,0.15445,-0.04783204,1.00546
240.401,73.94144,0.15597,-0.04811526,1.0052
241.001,74.1361,0.15736,-0.04798,1.00493
241.601,74.3305,0.15927,-0.04667061,1.00467
242.201,74.52486,0.16224,-0.04667314,1.0044
242.801,74.71932,0.16028,-0.04666128,1.00413
243.401,74.9135,0.16296,-0.04666094,1.00386
244.001,75.10789,0.16544,-0.04765,1.00359
244.601,75.3022,0.16748,-0.04765223,1.00333
245.201,75.49643,0.16882,-0.04795324,1.00306
245.801,75.69168,0.17184,-0.04781504,1.00278
246.401,75.8866,0.17416,-0.04798265,1.00251
247.001,76.0813,0.17813,-0.0476768,1.00224
247.601,76.27577,0.18196,-0.04698838,1.00197
248.201,76.4708,0.18541,-0.04698966,1.00169
248.801,76.66625,0.19208,-0.04665891,1.00142
249.401,76.86158,0.19637,-0.04903704,1.00114
250.001,77.05679,0.20159,-0.04963534,1.00087
250.601,77.2515,0.20889,-0.04865598,1.00059
251.201,77.4461,0.21814,-0.04864,1.00032
251.801,77.64068,0.23004,-0.0486006,1.00004
252.401,77.8348,0.24017,-0.04834137,0.99976
253.001,78.02911,0.25392,-0.04963046,0.99948
253.601,78.22301,0.268,-0.04833677,0.9992
254.201,78.41747,0.29703,-0.05060384,0.99892
254.801,78.61243,0.32973,-0.04833663,0.99864
255.401,78.80766,0.36054,-0.04864,0.99836
256.001,79.00259,0.38588,-0.04866885,0.99808
256.601,79.19889,0.40052,-0.04863676,0.99779
257.201,79.39477,0.40756,-0.04963008,0.99751
257.801,79.5915,0.41048,-0.04700718,0.99723
258.401,79.78665,0.406,-0.04929919,0.99694
259.001,79.98174,0.40021,-0.04963071,0.99665
259.601,80.17626,0.38843,-0.04832596,0.99637
260.201,80.37061,0.3714,-0.04971452,0.99608
260.801,80.5647,0.35104,-0.05029112,0.99579
261.401,80.7588,0.32641,-0.04932665,0.99551
262.001,80.9521,0.29946,-0.04930021,0.99522
262.601,81.14546,0.27445,-0.04932098,0.99493
263.201,81.33841,0.2519,-0.0505965,0.99464
263.801,81.5317,0.23537,-0.05019204,0.99434
264.401,81.72537,0.21705,-0.04866335,0.99405
265.001,81.9191,0.20666,-0.04929993,0.99376
265.601,82.1134,0.19411,-0.0493,0.99347
266.201,82.30816,0.18634,-0.04930252,0.99317
266.801,82.503,0.17461,-0.04930205,0.99288
267.401,82.69705,0.17103,-0.04797874,0.99258
268.001,82.8913,0.16724,-0.04927536,0.99229
268.601,83.08535,0.16525,-0.0493,0.99199
269.201,83.27945,0.15965,-0.04857621,0.99169
269.801,83.4738,0.15769,-0.04995509,0.9914
270.401,83.66785,0.1547,-0.0486457,0.9911
271.001,83.86228,0.15255,-0.04863267,0.9908
271.601,84.05654,0.15295,-0.04841089,0.9905
272.201,84.25081,0.15223,-0.0499543,0.9902
272.801,84.444,0.1522,-0.05035321,0.9899
273.401,84.6378,0.14839,-0.05096297,0.98959
274.001,84.83145,0.15004,-0.04895984,0.98929
274.601,85.02496,0.14947,-0.04918968,0.98899
275.201,85.21851,0.14987,-0.05027959,0.98868
275.801,85.4122,0.14746,-0.04928956,0.98838
276.401,85.60643,0.14605,-0.04929192,0.98807
277.001,85.80168,0.1466,-0.05167081,0.98777
277.601,85.997,0.1444,-0.05179299,0.98746
278.201,86.19079,0.14406,-0.05159999,0.98715
278.801,86.3853,0.14512,-0.05025962,0.98685
279.401,86.5792,0.1428,-0.04962,0.98654
280.001,86.7735,0.1444,-0.04962148,0.98623
280.601,86.96848,0.14513,-0.05094,0.98592
281.201,87.16325,0.14537,-0.05173295,0.98561
281.801,87.3588,0.1446,-0.0496227,0.9853
282.401,87.55476,0.14119,-0.05021617,0.98498
283.001,87.75057,0.14615,-0.05126997,0.98467
283.601,87.94605,0.14424,-0.05229165,0.98436
284.201,88.14014,0.14516,-0.05051778,0.98404
284.801,88.33487,0.14479,-0.05228408,0.98373
285.401,88.52889,0.14655,-0.05291927,0.98341
286.001,88.72369,0.14881,-0.05300094,0.9831
286.601,88.91847,0.14582,-0.05027986,0.98278
287.201,89.11256,0.14846,-0.05159846,0.98246
287.801,89.30674,0.14768,-0.05292817,0.98215
288.401,89.50056,0.14866,-0.0516,0.98183
289.001,89.69465,0.14668,-0.05158989,0.98151
289.601,89.8891,0.14773,-0.05253717,0.98119
290.201,90.0839,0.14783,-0.05094014,0.98087
290.801,90.28014,0.14571,-0.0532495,0.98054
291.401,90.4757,0.14633,-0.05192917,0.98022
292.001,90.67204,0.14745,-0.05324874,0.9799
292.601,90.86752,0.14557,-0.05391611,0.97958
293.201,91.06276,0.14627,-0.05126828,0.97925
293.801,91.2581,0.14491,-0.05199747,0.97893
294.401,91.45317,0.14799,-0.05257505,0.9786
295.001,91.6485,0.14665,-0.05324998,0.97827
295.601,91.84329,0.1472,-0.05325272,0.97795
296.201,92.03883,0.14754,-0.05456999,0.97762
296.801,92.23392,0.14763,-0.05456944,0.97729
297.401,92.4293,0.15029,-0.05424,0.97696
298.001,92.624,0.14985,-0.05423999,0.97663
298.601,92.81846,0.14889,-0.05292142,0.9763
299.201,93.0132,0.1507,-0.05395156,0.97597
299.801,93.20734,0.15207,-0.05490063,0.97564
300.401,93.4022,0.15183,-0.05403202,0.97531
301.001,93.59707,0.15121,-0.05490003,0.97497
301.601,93.79181,0.15235,-0.0548653,0.97464
302.201,93.9871,0.15195,-0.05625321,0.97431
302.801,94.18202,0.15041,-0.0549,0.97397
303.401,94.3771,0.15177,-0.0549007,0.97364
304.001,94.57145,0.1527,-0.05523108,0.9733
304.601,94.7668,0.15294,-0.05621063,0.97296
305.201,94.96217,0.15199,-0.05523017,0.97262
305.801,95.15847,0.15176,-0.05489749,0.97229
306.401,95.3549,0.15304,-0.05762712,0.97195
307.001,95.5504,0.15181,-0.05760844,0.97161
307.601,95.7467,0.15316,-0.05533361,0.97127
308.201,95.94285,0.15227,-0.05795735,0.97093
308.801,96.1389,0.15404,-0.05665002,0.97058
309.401,96.33488,0.15261,-0.05665,0.97024
310.001,96.53062,0.15498,-0.05641448,0.9699
310.601,96.7256,0.1538,-0.0566543,0.96955
311.201,96.92098,0.15213,-0.05781471,0.96921
311.801,97.11623,0.15301,-0.05665001,0.96887
312.401,97.31134,0.15484,-0.05655452,0.96852
313.001,97.50655,0.15444,-0.05772351,0.96817
313.601,97.70139,0.15419,-0.05568059,0.96783
314.201,97.89623,0.1548,-0.05829005,0.96748
314.801,98.09148,0.15434,-0.05829,0.96713
315.401,98.2868,0.1535,-0.05731382,0.96678
316.001,98.48195,0.15597,-0.05698001,0.96643
316.601,98.67689,0.15596,-0.05935972,0.96608
317.201,98.8722,0.15569,-0.05862049,0.96573
317.801,99.0675,0.15557,-0.05927463,0.96538
318.401,99.26349,0.15439,-0.05697423,0.96502
319.001,99.45886,0.15658,-0.05926478,0.96467
319.601,99.65442,0.15528,-0.05929014,0.96432
320.201,99.84956,0.15656,-0.05928147,0.96396
320.801,100.044,0.15768,-0.06014505,0.96361
321.401,100.2392,0.15846,-0.06027951,0.96325
322.001,100.4342,0.15768,-0.06027201,0.9629
322.601,100.629,0.1566,-0.05968939,0.96254
323.201,100.824,0.15672,-0.05990596,0.96218
323.801,101.019,0.15686,-0.05896827,0.96182
324.401,101.214,0.15957,-0.05895787,0.96146
325.001,101.4098,0.15695,-0.06024155,0.9611
325.601,101.605,0.15711,-0.06126999,0.96074
326.201,101.8,0.15869,-0.06191004,0.96038
326.801,101.996,0.15768,-0.06191985,0.96002
327.401,102.191,0.15656,-0.06231633,0.95966
328.001,102.387,0.15532,-0.06323,0.95929
328.601,102.582,0.15688,-0.06327483,0.95893
329.201,102.7789,0.15617,-0.06256862,0.95856
329.801,102.974,0.15572,-0.06297054,0.9582
330.401,103.17,0.15617,-0.06354999,0.95783
331.001,103.365,0.15536,-0.06389987,0.95747
331.601,103.561,0.15802,-0.06391814,0.9571
332.201,103.756,0.15701,-0.06487972,0.95673
332.801,103.952,0.15613,-0.06421372,0.95636
333.401,104.147,0.15683,-0.06654197,0.95599
334.001,104.343,0.15858,-0.06492169,0.95562
334.601,104.538,0.15556,-0.06620202,0.95525
335.201,104.733,0.15742,-0.0681797,0.95488
335.801,104.929,0.15549,-0.06586669,0.95451
336.401,105.124,0.1567,-0.06686003,0.95414
337.001,105.319,0.15672,-0.06685985,0.95376
337.601,105.514,0.15671,-0.06919281,0.95339
338.201,105.709,0.15919,-0.06916999,0.95302
338.801,105.906,0.15922,-0.06961465,0.95264
339.401,106.102,0.1581,-0.07113987,0.95227
340.001,106.299,0.15871,-0.06982311,0.95189
340.601,106.495,0.16009,-0.07210486,0.95151
341.201,106.692,0.16109,-0.07378691,0.95113
341.801,106.889,0.16246,-0.07258309,0.95075
342.401,107.086,0.16073,-0.07180048,0.95038
343.001,107.283,0.16478,-0.07245845,0.95
343.601,107.48,0.1652,-0.07371601,0.94962
344.201,107.676,0.16578,-0.07377488,0.94923
344.801,107.873,0.16905,-0.07441469,0.94885
345.401,108.0681,0.16883,-0.07607987,0.94847
346.001,108.263,0.16979,-0.07608283,0.94809
346.601,108.4576,0.17192,-0.07677511,0.9477
347.201,108.653,0.17167,-0.07646901,0.94732
347.801,108.849,0.17444,-0.07707036,0.94693
348.401,109.045,0.17373,-0.07871989,0.94655
349.001,109.241,0.17502,-0.07967288,0.94616
349.601,109.437,0.17239,-0.08003016,0.94577
350.201,109.633,0.17462,-0.08134374,0.94539
350.801,109.83,0.17411,-0.08103108,0.945
351.401,110.026,0.17703,-0.08133753,0.94461
352.001,110.222,0.17678,-0.08172952,0.94422
352.601,110.418,0.17651,-0.08407564,0.94383
353.201,110.614,0.17861,-0.08529988,0.94344
353.801,110.809,0.1788,-0.08562878,0.94305
354.401,111.0059,0.18167,-0.08789849,0.94265
355.001,111.203,0.18225,-0.08957985,0.94226
355.601,111.3992,0.18512,-0.0909003,0.94187
356.201,111.5959,0.18499,-0.09083567,0.94147
356.801,111.792,0.18901,-0.09288005,0.94108
357.401,111.988,0.1881,-0.09424132,0.94068
358.001,112.185,0.19049,-0.09584126,0.94029
358.601,112.381,0.1919,-0.0984212,0.93989
359.201,112.577,0.19192,-0.09978855,0.93949
359.801,112.773,0.19021,-0.10103,0.93909
360.401,112.969,0.18862,-0.10372,0.93869
361.001,113.166,0.19111,-0.10509,0.93829
361.601,113.362,0.19151,-0.1077,0.93789
362.201,113.557,0.19254,-0.10904,0.93749
362.801,113.753,0.19455,-0.11162,0.93709
363.401,113.949,0.19467,-0.11427,0.93669
364.001,114.144,0.19524,-0.11701,0.93629
364.601,114.34,0.19343,-0.11956,0.93588
365.201,114.536,0.19062,-0.12116,0.93548
365.801,114.733,0.1907,-0.1248,0.93507
366.401,114.93,0.19081,-0.12833,0.93467
367.001,115.126,0.19131,-0.13101,0.93426
367.601,115.323,0.19323,-0.13505,0.93386
368.201,115.52,0.19426,-0.13764,0.93345
368.801,115.717,0.19461,-0.14163,0.93304
369.401,115.914,0.19465,-0.14447,0.93263
370.001,116.111,0.19585,-0.1486,0.93222
370.601,116.306,0.19534,-0.15104,0.93181
371.201,116.503,0.19865,-0.15498,0.9314
371.801,116.698,0.20113,-0.16127,0.93099
372.401,116.894,0.20367,-0.16567,0.93058
373.001,117.09,0.20461,-0.17043,0.93017
373.601,117.285,0.20377,-0.17494,0.92975
374.201,117.482,0.20635,-0.18148,0.92934
374.801,117.679,0.20742,-0.18817,0.92892
375.401,117.875,0.21032,-0.19364,0.92851
376.001,118.072,0.21037,-0.20037,0.92809
376.601,118.269,0.21132,-0.20503,0.92768
377.201,118.466,0.21272,-0.21219,0.92726
377.801,118.663,0.21604,-0.21953,0.92684
378.401,118.86,0.21636,-0.2277,0.92642
379.001,119.057,0.21712,-0.23315,0.92601
379.601,119.254,0.21975,-0.24276,0.92559
380.201,119.452,0.22017,-0.25197,0.92517
380.801,119.65,0.22048,-0.26118,0.92474
381.401,119.847,0.22504,-0.26934,0.92432
382.001,120.045,0.22778,-0.27984,0.9239
382.601,120.242,0.23043,-0.28837,0.92348
383.201,120.4396,0.23163,-0.29936,0.92305
383.801,120.637,0.23736,-0.30957,0.92263
384.401,120.834,0.23855,-0.32194,0.92221
385.001,121.03,0.23993,-0.33368,0.92178
385.601,121.227,0.24537,-0.34673,0.92135
386.201,121.423,0.24966,-0.35812,0.92093
386.801,121.619,0.24986,-0.37259,0.9205
387.401,121.816,0.25453,-0.38739,0.92007
388.001,122.012,0.25671,-0.40196,0.91964
388.601,122.2094,0.25628,-0.41561,0.91921
389.201,122.406,0.25755,-0.42984,0.91878
389.801,122.604,0.25912,-0.44744,0.91835
390.401,122.8015,0.26336,-0.46408,0.91792
391.001,122.999,0.26804,-0.48134,0.91749
391.601,123.195,0.27014,-0.49996,0.91706
392.201,123.392,0.27383,-0.51702,0.91663
392.801,123.588,0.27482,-0.5377,0.91619
393.401,123.785,0.27526,-0.55759,0.91576
394.001,123.982,0.27993,-0.57816,0.91532
394.601,124.179,0.2849,-0.60013,0.91489
395.201,124.3771,0.29514,-0.62151,0.91445
395.801,124.575,0.30091,-0.64617,0.91401
396.401,124.773,0.30317,-0.67154,0.91358
397.001,124.972,0.30132,-0.69637,0.91314
397.601,125.1707,0.30578,-0.72256,0.9127
398.201,125.37,0.31448,-0.74953,0.91226
398.801,125.568,0.3164,-0.7773,0.91182
399.401,125.765,0.31792,-0.80728,0.91138
400.001,125.961,0.32177,-0.83623,0.91094
400.601,126.157,0.32566,-0.86598,0.9105
401.201,126.354,0.33009,-0.89848,0.91006
401.801,126.551,0.33175,-0.93151,0.90961
402.401,126.746,0.33477,-0.96395,0.90917
403.001,126.943,0.33559,-0.99792,0.90872
403.601,127.139,0.33484,-1.03328,0.90828
404.201,127.3373,0.33072,-1.06977,0.90783
404.801,127.535,0.33396,-1.10791,0.90739
405.401,127.733,0.33792,-1.14502,0.90694
406.001,127.9305,0.34032,-1.18659,0.90649
406.601,128.129,0.34123,-1.22458,0.90605
407.201,128.326,0.34336,-1.26372,0.9056
407.801,128.523,0.34384,-1.30563,0.90515
408.401,128.72,0.34695,-1.34745,0.9047
409.001,128.916,0.34732,-1.39208,0.90425
409.601,129.1129,0.3518,-1.43615,0.9038
410.201,129.309,0.35176,-1.48204,0.90334
410.801,129.505,0.35219,-1.52755,0.90289
411.401,129.703,0.35313,-1.57362,0.90244
412.001,129.9008,0.35376,-1.62069,0.90199
412.601,130.099,0.35451,-1.66935,0.90153
413.201,130.297,0.35499,-1.71817,0.90108
413.801,130.495,0.35296,-1.76674,0.90062
414.401,130.692,0.35301,-1.81599,0.90017
415.001,130.889,0.35264,-1.86388,0.89971
415.601,131.086,0.35193,-1.91399,0.89925
416.201,131.284,0.349,-1.96381,0.89879
416.801,131.482,0.34699,-2.0121,0.89833
417.401,131.68,0.34282,-2.06203,0.89788
418.001,131.878,0.34095,-2.1118,0.89742
418.601,132.076,0.33854,-2.16037,0.89696
419.201,132.274,0.33416,-2.21034,0.89649
419.801,132.472,0.33163,-2.25658,0.89603
420.401,132.67,0.32759,-2.30222,0.89557
421.001,132.867,0.3242,-2.34874,0.89511
421.601,133.064,0.31795,-2.3944,0.89465
422.201,133.2608,0.31463,-2.4366,0.89418
422.801,133.457,0.30657,-2.47677,0.89372
423.401,133.653,0.30307,-2.51761,0.89325
424.001,133.85,0.29603,-2.55567,0.89279
424.601,134.046,0.29123,-2.59346,0.89232
425.201,134.243,0.28382,-2.62823,0.89185
425.801,134.44,0.27988,-2.66235,0.89138
426.401,134.637,0.27187,-2.69325,0.89092
427.001,134.833,0.26661,-2.7235,0.89045
427.601,135.03,0.25911,-2.74984,0.88998
428.201,135.226,0.25236,-2.77575,0.88951
428.801,135.424,0.24681,-2.79922,0.88904
429.401,135.621,0.23923,-2.8228,0.88857
430.001,135.819,0.23235,-2.84384,0.8881
430.601,136.018,0.22432,-2.86415,0.88762
431.201,136.216,0.21938,-2.88102,0.88715
431.801,136.414,0.21227,-2.8991,0.88668
432.401,136.613,0.20571,-2.91537,0.8862
433.001,136.811,0.20231,-2.93062,0.88573
433.601,137.009,0.19386,-2.94517,0.88525
434.201,137.206,0.19074,-2.95832,0.88478
434.801,137.403,0.18829,-2.97194,0.8843
435.401,137.6,0.18464,-2.98283,0.88382
436.001,137.798,0.18086,-2.99329,0.88334
436.601,137.997,0.17652,-3.00482,0.88287
437.201,138.195,0.17355,-3.01389,0.88239
437.801,138.393,0.17081,-3.02558,0.88191
438.401,138.59,0.16651,-3.03325,0.88143
439.001,138.788,0.16569,-3.0407,0.88095
439.601,138.985,0.16052,-3.05028,0.88047
440.201,139.183,0.15662,-3.05757,0.87998
440.801,139.381,0.15195,-3.06508,0.8795
441.401,139.58,0.14996,-3.0728,0.87902
442.001,139.777,0.14583,-3.08055,0.87854
442.601,139.975,0.14333,-3.0866,0.87805
443.201,140.173,0.14089,-3.09113,0.87757
443.801,140.37,0.13569,-3.0977,0.87708
444.401,140.568,0.13418,-3.1043,0.87659
445.001,140.767,0.12858,-3.10961,0.87611
445.601,140.9649,0.12681,-3.11315,0.87562
446.201,141.163,0.12307,-3.11778,0.87513
446.801,141.361,0.12149,-3.12285,0.87465
447.401,141.56,0.11812,-3.12783,0.87416
448.001,141.7595,0.11305,-3.13226,0.87367
448.601,141.959,0.11181,-3.13588,0.87318
449.201,142.158,0.10664,-3.1389,0.87269
449.801,142.357,0.1026,-3.14236,0.8722
450.401,142.556,0.10131,-3.1458,0.8717
451.001,142.754,0.09953879,-3.15106,0.87121
451.601,142.953,0.09626499,-3.15507,0.87072
452.201,143.151,0.09624163,-3.15778,0.87023
452.801,143.349,0.09616296,-3.15902,0.86973
453.401,143.546,0.09680135,-3.16281,0.86924
454.001,143.742,0.09724164,-3.16654,0.86874
454.601,143.939,0.09762223,-3.16851,0.86825
455.201,144.136,0.09541956,-3.17071,0.86775
455.801,144.332,0.09520265,-3.17416,0.86725
456.401,144.53,0.09406812,-3.17589,0.86676
457.001,144.727,0.09810431,-3.17732,0.86626
457.601,144.925,0.10285,-3.18034,0.86576
458.201,145.123,0.10683,-3.18419,0.86526
458.801,145.322,0.10201,-3.18537,0.86476
459.401,145.52,0.09724383,-3.188,0.86426
460.001,145.718,0.09237259,-3.18801,0.86376
460.601,145.916,0.08684301,-3.19196,0.86326
461.201,146.115,0.08027783,-3.19318,0.86276
461.801,146.3132,0.07420061,-3.19491,0.86225
462.401,146.5123,0.07024139,-3.19724,0.86175
463.001,146.711,0.06662811,-3.19792,0.86125
463.601,146.911,0.06202228,-3.20052,0.86074
464.201,147.11,0.05978307,-3.20035,0.86024
464.801,147.309,0.05925625,-3.20381,0.85973
465.401,147.508,0.05541946,-3.20459,0.85923
466.001,147.707,0.05407771,-3.20654,0.85872
466.601,147.905,0.04927086,-3.20768,0.85821
467.201,148.103,0.04721876,-3.20987,0.85771
467.801,148.302,0.04443961,-3.21077,0.8572
468.401,148.5,0.04421201,-3.2127,0.85669
469.001,148.6975,0.04177066,-3.21468,0.85618
469.601,148.896,0.04142094,-3.21503,0.85567
470.201,149.094,0.03749139,-3.21767,0.85516
470.801,149.292,0.03885717,-3.21867,0.85465
471.401,149.491,0.03572645,-3.21996,0.85414
472.001,149.689,0.03687382,-3.21856,0.85363
472.601,149.888,0.03467678,-3.21993,0.85311
473.201,150.087,0.0334108,-3.22227,0.8526
473.801,150.286,0.03204995,-3.22223,0.85209
474.401,150.486,0.03081351,-3.22357,0.85157
475.001,150.685,0.03082895,-3.22423,0.85106
475.601,150.885,0.03115375,-3.22555,0.85054
476.201,151.0841,0.02917332,-3.22722,0.85003
476.801,151.284,0.0303077,-3.22916,0.84951
477.401,151.483,0.02674369,-3.22818,0.84899
478.001,151.682,0.028275,-3.23049,0.84848
478.601,151.88,0.0256896,-3.23047,0.84796
479.201,152.079,0.02738383,-3.23281,0.84744
479.801,152.278,0.02684669,-3.23412,0.84692
480.401,152.477,0.02685714,-3.23312,0.8464
481.001,152.676,0.02638976,-3.23448,0.84588
481.601,152.876,0.02724652,-3.23705,0.84536
482.201,153.075,0.02509496,-3.23708,0.84484
482.801,153.274,0.02415998,-3.23708,0.84432
483.401,153.473,0.02777938,-3.23707,0.8438
484.001,153.672,0.02677022,-3.23864,0.84327
484.601,153.871,0.02796085,-3.23971,0.84275
485.201,154.069,0.02761083,-3.23971,0.84223
485.801,154.2681,0.02890756,-3.24136,0.8417
486.401,154.467,0.03016964,-3.24235,0.84118
487.001,154.666,0.02871583,-3.24235,0.84065
487.601,154.864,0.02820686,-3.24134,0.84013
488.201,155.062,0.02904486,-3.2424,0.8396
488.801,155.26,0.0316879,-3.24531,0.83907
489.401,155.458,0.02907469,-3.24519,0.83854
490.001,155.656,0.02830637,-3.24531,0.83802
490.601,155.855,0.0265117,-3.24566,0.83749
491.201,156.055,0.02830613,-3.24766,0.83696
491.801,156.2542,0.02949722,-3.24827,0.83643
492.401,156.455,0.02650826,-3.24662,0.8359
493.001,156.655,0.02625731,-3.24932,0.83537
493.601,156.856,0.02545886,-3.25025,0.83484
494.201,157.057,0.02912253,-3.25058,0.83431
494.801,157.257,0.02726371,-3.25058,0.83377
495.401,157.457,0.02071615,-3.25221,0.83324
496.001,157.656,0.02960532,-3.25321,0.83271
496.601,157.855,0.03090716,-3.25486,0.83217
497.201,158.053,0.03182309,-3.25373,0.83164
497.801,158.251,0.03192584,-3.25483,0.83111
498.401,158.449,0.0321363,-3.25513,0.83057
499.001,158.647,0.03328898,-3.25486,0.83003
499.601,158.846,0.03186165,-3.25716,0.8295
500.201,159.045,0.0321752,-3.25667,0.82896
500.801,159.244,0.03201585,-3.25881,0.82842
501.401,159.443,0.03282679,-3.25881,0.82789
502.001,159.643,0.03189126,-3.26017,0.82735
502.601,159.842,0.03312241,-3.26013,0.82681
503.201,160.041,0.03385489,-3.26078,0.82627
503.801,160.2403,0.03266972,-3.26013,0.82573
504.401,160.439,0.03247783,-3.26013,0.82519
505.001,160.639,0.03514404,-3.2621,0.82465
505.601,160.838,0.03466962,-3.2621,0.82411
506.201,161.037,0.03527265,-3.26205,0.82357
506.801,161.237,0.03787925,-3.26309,0.82302
507.401,161.436,0.03761457,-3.26261,0.82248
508.001,161.636,0.03721549,-3.26211,0.82194
508.601,161.836,0.0371045,-3.26441,0.82139
509.201,162.036,0.03669004,-3.26441,0.82085
509.801,162.236,0.03763539,-3.26474,0.8203
510.401,162.435,0.03783288,-3.26474,0.81976
511.001,162.634,0.03775836,-3.2647,0.81921
511.601,162.8324,0.03778946,-3.26671,0.81867
512.201,163.031,0.04084604,-3.26671,0.81812
512.801,163.23,0.0395706,-3.26624,0.81757
513.401,163.429,0.03972962,-3.26723,0.81703
514.001,163.628,0.03991893,-3.26705,0.81648
514.601,163.827,0.04045516,-3.26968,0.81593
515.201,164.026,0.04067815,-3.26968,0.81538
515.801,164.224,0.03941467,-3.2677,0.81483
516.401,164.423,0.04004492,-3.26912,0.81428
517.001,164.623,0.03896684,-3.26895,0.81373
517.601,164.824,0.03855907,-3.27004,0.81318
518.201,165.025,0.03790449,-3.27129,0.81263
518.801,165.226,0.03968311,-3.27198,0.81207
519.401,165.427,0.04062033,-3.27066,0.81152
520.001,165.627,0.03884015,-3.27061,0.81097
520.601,165.828,0.03991564,-3.2733,0.81042
521.201,166.0279,0.03712849,-3.2733,0.80986
521.801,166.2269,0.03980918,-3.2723,0.80931
522.401,166.425,0.03922993,-3.27346,0.80875
523.001,166.625,0.03667857,-3.27399,0.8082
523.601,166.824,0.03898522,-3.27463,0.80764
524.201,167.025,0.03812427,-3.2733,0.80708
524.801,167.224,0.03870817,-3.27462,0.80653
525.401,167.422,0.03818974,-3.27462,0.80597
526.001,167.6202,0.03851246,-3.27462,0.80541
526.601,167.819,0.03828213,-3.27461,0.80485
527.201,168.018,0.04163785,-3.27689,0.8043
527.801,168.217,0.0386571,-3.27659,0.80374
528.401,168.416,0.03891477,-3.27626,0.80318
529.001,168.616,0.03962072,-3.27531,0.80262
529.601,168.816,0.0386714,-3.27659,0.80206
530.201,169.015,0.03859199,-3.27659,0.8015
530.801,169.215,0.03773722,-3.27758,0.80093
531.401,169.415,0.04089609,-3.27626,0.80037
532.001,169.615,0.03840556,-3.27791,0.79981
532.601,169.815,0.04036911,-3.2789,0.79925
533.201,170.015,0.04069976,-3.2792,0.79868
533.801,170.215,0.0369634,-3.27923,0.79812
534.401,170.416,0.03922843,-3.27956,0.79756
535.001,170.616,0.04063258,-3.28056,0.79699
535.601,170.816,0.0389678,-3.27989,0.79643
536.201,171.0157,0.0423109,-3.28052,0.79586
536.801,171.216,0.03880608,-3.28252,0.79529
537.401,171.417,0.03910258,-3.2812,0.79473
538.001,171.619,0.03950211,-3.28318,0.79416
538.601,171.819,0.03828078,-3.28324,0.79359
539.201,172.018,0.03795584,-3.28252,0.79303
539.801,172.217,0.03678864,-3.28253,0.79246
540.401,172.416,0.03709438,-3.28319,0.79189
541.001,172.614,0.03707659,-3.28384,0.79132
541.601,172.814,0.03453513,-3.28384,0.79075
542.201,173.014,0.03543855,-3.28449,0.79018
542.801,173.214,0.03684909,-3.28416,0.78961
543.401,173.415,0.03469909,-3.2845,0.78904
544.001,173.615,0.0351014,-3.28579,0.78847
544.601,173.816,0.03460726,-3.28582,0.78789
545.201,174.017,0.03342992,-3.28581,0.78732
545.801,174.217,0.03634399,-3.28583,0.78675
546.401,174.418,0.03714704,-3.28713,0.78618
547.001,174.618,0.03540249,-3.28845,0.7856
547.601,174.818,0.03786358,-3.28977,0.78503
548.201,175.017,0.03719016,-3.28878,0.78446
548.801,175.216,0.03593313,-3.29011,0.78388
549.401,175.415,0.03496771,-3.28949,0.7833
550.001,175.616,0.03570162,-3.29039,0.78273
550.601,175.8158,0.03654126,-3.29043,0.78215
551.201,176.017,0.0385031,-3.29175,0.78158
551.801,176.216,0.03829004,-3.28944,0.781
552.401,176.4155,0.03924255,-3.29209,0.78042
553.001,176.615,0.04273332,-3.29208,0.77984
553.601,176.815,0.03989143,-3.29471,0.77927
554.201,177.014,0.04061214,-3.29372,0.77869
554.801,177.215,0.04094514,-3.29369,0.77811
555.401,177.414,0.04135036,-3.29372,0.77753
556.001,177.614,0.04093528,-3.29263,0.77695
556.601,177.815,0.04265091,-3.29635,0.77637
557.201,178.016,0.04245284,-3.29668,0.77579
557.801,178.216,0.0435408,-3.29668,0.77521
558.401,178.416,0.04256682,-3.29732,0.77463
559.001,178.617,0.04720801,-3.29735,0.77404
559.601,178.817,0.04528172,-3.29768,0.77346
560.201,179.0176,0.04435938,-3.29669,0.77288
560.801,179.217,0.04216382,-3.29866,0.7723
561.401,179.417,0.04437492,-3.29801,0.77171
562.001,179.617,0.04100198,-3.29768,0.77113
562.601,179.818,0.04279376,-3.29926,0.77054
563.201,180.018,0.04112382,-3.29998,0.76996
563.801,180.218,0.0415225,-3.30099,0.76937
564.401,180.418,0.04130516,-3.30031,0.76879
565.001,180.618,0.04141949,-3.30163,0.7682
565.601,180.818,0.04291329,-3.30031,0.76762
566.201,181.018,0.04277546,-3.30163,0.76703
566.801,181.219,0.04286105,-3.30295,0.76644
567.401,181.421,0.0454754,-3.30252,0.76585
568.001,181.622,0.04122763,-3.30459,0.76527
568.601,181.824,0.04303376,-3.30393,0.76468
569.201,182.025,0.04576852,-3.30195,0.76409
569.801,182.226,0.04724496,-3.30492,0.7635
570.401,182.425,0.04323122,-3.30492,0.76291
571.001,182.624,0.04627908,-3.30425,0.76232
571.601,182.824,0.0457391,-3.30591,0.76173
572.201,183.0241,0.04461052,-3.30558,0.76114
572.801,183.224,0.04582555,-3.30558,0.76055
573.401,183.424,0.04393419,-3.30822,0.75996
574.001,183.6244,0.04680715,-3.30822,0.75936
574.601,183.825,0.0441919,-3.30812,0.75877
575.201,184.026,0.04358264,-3.3092,0.75818
575.801,184.227,0.0446246,-3.3092,0.75759
576.401,184.429,0.05543934,-3.30997,0.75699
577.001,184.631,0.05798654,-3.30953,0.7564
577.601,184.831,0.05762921,-3.30854,0.7558
578.201,185.031,0.05781326,-3.30988,0.75521
578.801,185.23,0.06011525,-3.31084,0.75462
579.401,185.428,0.05934339,-3.31119,0.75402
580.001,185.628,0.06015398,-3.31132,0.75342
580.601,185.829,0.05980586,-3.31085,0.75283
581.201,186.029,0.06144608,-3.31082,0.75223
581.801,186.231,0.06078505,-3.31217,0.75163
582.401,186.431,0.06162613,-3.31349,0.75104
583.001,186.6315,0.06321196,-3.31315,0.75044
583.601,186.831,0.06322318,-3.3135,0.74984
584.201,187.032,0.06193121,-3.31347,0.74924
584.801,187.232,0.06405771,-3.31473,0.74865
585.401,187.434,0.06222547,-3.3148,0.74805
586.001,187.635,0.06130332,-3.3148,0.74745
586.601,187.837,0.06468875,-3.31611,0.74685
587.201,188.037,0.06478696,-3.31538,0.74625
587.801,188.237,0.06781168,-3.31573,0.74565
588.401,188.438,0.0643955,-3.31572,0.74505
589.001,188.637,0.06719748,-3.31712,0.74445
589.601,188.838,0.06404768,-3.31708,0.74384
590.201,189.039,0.06518831,-3.3171,0.74324
590.801,189.2392,0.06694257,-3.31776,0.74264
591.401,189.44,0.06713313,-3.31743,0.74204
592.001,189.641,0.06892157,-3.31743,0.74143
592.601,189.8424,0.06748753,-3.31743,0.74083
593.201,190.043,0.06910099,-3.31875,0.74023
593.801,190.244,0.06983432,-3.31842,0.73962
594.401,190.445,0.06996287,-3.31705,0.73902
595.001,190.6466,0.06864467,-3.31865,0.73841
595.601,190.849,0.07113791,-3.31941,0.73781
596.201,191.0509,0.06964087,-3.3188,0.7372
596.801,191.252,0.07359633,-3.32007,0.7366
597.401,191.453,0.07266724,-3.32007,0.73599
598.001,191.654,0.07469167,-3.32117,0.73539
598.601,191.855,0.07172416,-3.32138,0.73478
599.201,192.057,0.07395083,-3.32299,0.73417
599.801,192.259,0.07388183,-3.32316,0.73357
600.401,192.46,0.07465044,-3.32175,0.73296
601.001,192.661,0.07519942,-3.32369,0.73235
601.601,192.861,0.07467364,-3.32353,0.73174
602.201,193.061,0.07577422,-3.32435,0.73113
602.801,193.261,0.07424545,-3.32434,0.73052
603.401,193.4624,0.07405857,-3.32377,0.72991
604.001,193.663,0.07402959,-3.32436,0.72931
604.601,193.8648,0.07277391,-3.32436,0.7287
605.201,194.066,0.07353493,-3.32567,0.72808
605.801,194.267,0.07519886,-3.32566,0.72747
606.401,194.468,0.07695135,-3.32434,0.72686
607.001,194.668,0.08004474,-3.327,0.72625
607.601,194.868,0.07820331,-3.32567,0.72564
608.201,195.068,0.08053093,-3.32567,0.72503
608.801,195.268,0.08031642,-3.32834,0.72442
609.401,195.469,0.08104456,-3.32863,0.7238
610.001,195.671,0.0824788,-3.32698,0.72319
610.601,195.8728,0.08413871,-3.3283,0.72258
611.201,196.075,0.08593701,-3.32835,0.72196
611.801,196.277,0.08669508,-3.3283,0.72135
612.401,196.478,0.08903983,-3.32968,0.72074
613.001,196.68,0.0896179,-3.33099,0.72012
613.601,196.881,0.08886135,-3.32831,0.71951
614.201,197.083,0.09080736,-3.32897,0.71889
614.801,197.284,0.09389827,-3.32962,0.71828
615.401,197.486,0.09236776,-3.33093,0.71766
616.001,197.687,0.09089459,-3.33093,0.71705
616.601,197.887,0.09346152,-3.33061,0.71643
617.201,198.088,0.09409021,-3.32962,0.71581
617.801,198.289,0.09705502,-3.33097,0.7152
618.401,198.49,0.09874358,-3.33028,0.71458
619.001,198.691,0.10063,-3.33028,0.71396
619.601,198.891,0.10065,-3.33028,0.71334
620.201,199.091,0.10256,-3.33161,0.71273
620.801,199.291,0.10102,-3.33027,0.71211
621.401,199.492,0.10135,-3.33292,0.71149
622.001,199.694,0.10073,-3.33427,0.71087
622.601,199.896,0.10411,-3.33528,0.71025
623.201,200.099,0.10562,-3.33424,0.70963
623.801,200.301,0.10653,-3.3349,0.70901
624.401,200.501,0.1047,-3.33292,0.70839
625.001,200.701,0.10614,-3.33424,0.70777
625.601,200.9025,0.10776,-3.33292,0.70715
626.201,201.104,0.10522,-3.33555,0.70653
626.801,201.307,0.10692,-3.33456,0.70591
627.401,201.508,0.10453,-3.33291,0.70529
628.001,201.7095,0.10401,-3.33215,0.70467
628.601,201.91,0.10764,-3.33619,0.70404
629.201,202.11,0.1073,-3.33591,0.70342
629.801,202.311,0.10689,-3.33555,0.7028
630.401,202.511,0.10563,-3.33423,0.70218
631.001,202.7111,0.10712,-3.33521,0.70155
631.601,202.912,0.10734,-3.33654,0.70093
632.201,203.112,0.10872,-3.33621,0.70031
632.801,203.313,0.11315,-3.33621,0.69968
633.401,203.512,0.1121,-3.33587,0.69906
634.001,203.713,0.11183,-3.33582,0.69844
634.601,203.914,0.11259,-3.33461,0.69781
635.201,204.117,0.11183,-3.33719,0.69719
635.801,204.32,0.11503,-3.33723,0.69656
636.401,204.523,0.11517,-3.33704,0.69593
637.001,204.726,0.11367,-3.33755,0.69531
637.601,204.928,0.11275,-3.33811,0.69468
638.201,205.13,0.11634,-3.33686,0.69406
638.801,205.331,0.11683,-3.33686,0.69343
639.401,205.533,0.11882,-3.33686,0.6928
640.001,205.733,0.11762,-3.33555,0.69218
640.601,205.934,0.1184,-3.3372,0.69155
641.201,206.136,0.11661,-3.33719,0.69092
641.801,206.339,0.11837,-3.3372,0.69029
642.401,206.5435,0.11981,-3.33819,0.68967
643.001,206.747,0.11664,-3.33818,0.68904
643.601,206.95,0.11797,-3.33851,0.68841
644.201,207.151,0.11697,-3.33884,0.68778
644.801,207.352,0.11854,-3.33917,0.68715
645.401,207.552,0.12303,-3.3378,0.68652
646.001,207.752,0.12201,-3.33785,0.68589
646.601,207.952,0.12162,-3.3395,0.68526
647.201,208.153,0.12046,-3.33931,0.68463
647.801,208.353,0.11899,-3.33852,0.684
648.401,208.554,0.12209,-3.33983,0.68337
649.001,208.755,0.12351,-3.34114,0.68274
649.601,208.957,0.12375,-3.33854,0.68211
650.201,209.158,0.12414,-3.33851,0.68148
650.801,209.36,0.12517,-3.33983,0.68085
651.401,209.562,0.12636,-3.33983,0.68022
652.001,209.7645,0.12726,-3.34123,0.67959
652.601,209.967,0.12825,-3.3418,0.67896
653.201,210.169,0.13042,-3.34173,0.67832
653.801,210.372,0.12828,-3.34108,0.67769
654.401,210.575,0.13004,-3.34046,0.67706
655.001,210.777,0.12932,-3.34115,0.67643
655.601,210.978,0.13148,-3.3415,0.67579
656.201,211.18,0.13216,-3.3428,0.67516
656.801,211.381,0.13303,-3.34049,0.67453
657.401,211.5839,0.13397,-3.3418,0.67389
658.001,211.786,0.13365,-3.34182,0.67326
658.601,211.988,0.13334,-3.34247,0.67262
659.201,212.189,0.13409,-3.34115,0.67199
659.801,212.39,0.13307,-3.34379,0.67135
660.401,212.592,0.13264,-3.34279,0.67072
661.001,212.794,0.13345,-3.34247,0.67009
661.601,212.996,0.12968,-3.34253,0.66945
662.201,213.198,0.13115,-3.34315,0.66881
662.801,213.4,0.13374,-3.34246,0.66818
663.401,213.601,0.13291,-3.34246,0.66754
664.001,213.803,0.13318,-3.34375,0.66691
664.601,214.004,0.13382,-3.3451,0.66627
665.201,214.206,0.1309,-3.34377,0.66563
665.801,214.408,0.13038,-3.34315,0.665
666.401,214.6104,0.13102,-3.34377,0.66436
667.001,214.813,0.13509,-3.3451,0.66372
667.601,215.016,0.13619,-3.34378,0.66309
668.201,215.22,0.13715,-3.34374,0.66245
668.801,215.423,0.13439,-3.34379,0.66181
669.401,215.625,0.13462,-3.34546,0.66117
670.001,215.8259,0.13395,-3.34543,0.66054
670.601,216.027,0.13071,-3.34541,0.6599
671.201,216.2289,0.13052,-3.34642,0.65926
671.801,216.431,0.13352,-3.34511,0.65862
672.401,216.6345,0.1312,-3.34508,0.65798
673.001,216.837,0.13493,-3.34642,0.65734
673.601,217.039,0.13686,-3.34643,0.65671
674.201,217.24,0.13446,-3.34522,0.65607
674.801,217.441,0.13271,-3.34657,0.65543
675.401,217.643,0.13422,-3.34708,0.65479
676.001,217.843,0.13403,-3.34714,0.65415
676.601,218.044,0.13417,-3.34466,0.65351
677.201,218.244,0.13704,-3.34665,0.65287
677.801,218.444,0.13597,-3.34674,0.65223
678.401,218.645,0.13623,-3.34688,0.65159
679.001,218.847,0.13277,-3.34751,0.65095
679.601,219.05,0.13478,-3.34708,0.65031
680.201,219.2532,0.13488,-3.34742,0.64966
680.801,219.457,0.13792,-3.34741,0.64902
681.401,219.66,0.13699,-3.34838,0.64838
682.001,219.862,0.1343,-3.34708,0.64774
682.601,220.065,0.13342,-3.34773,0.6471
683.201,220.267,0.13647,-3.34907,0.64646
683.801,220.47,0.13256,-3.34741,0.64582
684.401,220.672,0.13252,-3.34839,0.64517
685.001,220.875,0.13289,-3.34837,0.64453
685.601,221.079,0.13237,-3.34971,0.64389
686.201,221.281,0.12987,-3.34969,0.64325
686.801,221.485,0.13257,-3.3497,0.6426
687.401,221.687,0.13389,-3.35069,0.64196
688.001,221.889,0.13624,-3.3507,0.64132
688.601,222.091,0.13651,-3.34939,0.64067
689.201,222.293,0.14012,-3.35013,0.64003
689.801,222.496,0.13902,-3.34972,0.63939
690.401,222.698,0.13699,-3.34837,0.63874
691.001,222.9,0.13703,-3.35004,0.6381
691.601,223.102,0.13753,-3.34997,0.63746
692.201,223.303,0.13897,-3.35103,0.63681
692.801,223.5049,0.13887,-3.34972,0.63617
693.401,223.707,0.13924,-3.35168,0.63552
694.001,223.909,0.13956,-3.35193,0.63488
694.601,224.11,0.13914,-3.35095,0.63424
695.201,224.311,0.13896,-3.35202,0.63359
695.801,224.513,0.13808,-3.34968,0.63295
696.401,224.714,0.13952,-3.35164,0.6323
697.001,224.915,0.13735,-3.3517,0.63166
697.601,225.116,0.14011,-3.35037,0.63101
698.201,225.318,0.13743,-3.35143,0.63037
698.801,225.521,0.13675,-3.35169,0.62972
699.401,225.724,0.14003,-3.35181,0.62908
700.001,225.927,0.13625,-3.35037,0.62843
700.601,226.129,0.13414,-3.35135,0.62778
701.201,226.331,0.13096,-3.35037,0.62714
701.801,226.534,0.13021,-3.35169,0.62649
702.101,226.635,0.12877,-3.35136,0.62617