File: 01_Data/Wood_Stud/Cone/Wood_Stud_Cone_HF50Scan_221004_R2.csv
Names,Time,Stack TC,Smoke TC,Exh Press,Smoke Comp,Smoke Meas,CO Meter,CO2 Meter,O2 Meter,Sample Mass,Ext Coeff,Start Test,Flame Verif
Chan Gain,,500,500,1,1,1,1,1,1,1,1,1.0,1.0
Offset,,0,0,0.136221,0,0,0,0,0,0,0,0.0,0.0
Gain,,1,1,25.011,13.9274,292.346,1,1,1,1.00091,1.04463,1.0,1.0
Units,sec,C,C,Pa,%,%,%,%,%,g,/m,,
Baseline,,34.2429,35.56,151.68,104.483,105.848,0.000509548,0.0608702,20.9574,-443.393,-0.118807,,
20,4.75,32.4632,33.855,148.927,104.231,104.214,0.000609064,0.0632525,20.9545,225.574,0.00145055,0.0,0.0
40,9.75,32.4976,33.8472,150.036,104.17,104.803,0.00075679,0.0632684,20.9549,225.404,-0.0555246,0.0,0.0
60,14.75,32.9736,33.736,150.978,104.033,102.403,0.00148307,0.0644817,20.9549,225.234,0.144744,0.0,0.0
80,19.75,33.769,34.5774,131.313,103.823,117.775,0.00269075,0.217396,20.7594,224.563,-1.15537,0.0,1.0
100,24.75,39.1323,38.2519,126.733,103.516,112.351,0.00422575,0.5552,20.3849,223.563,-0.750463,0.0,0.0
120,29.75,45.3915,44.4251,129.322,103.347,113.073,0.00497171,0.611289,20.3008,222.642,-0.824239,0.0,0.0
140,34.75,48.1606,48.2421,135.944,103.445,112.021,0.00458511,0.521282,20.405,221.881,-0.729823,0.0,0.0
160,39.75,50.3417,51.2804,135.355,103.547,113.314,0.00401955,0.457388,20.4893,221.16,-0.826006,0.0,0.0
180,44.75,51.7544,53.0109,136.591,103.696,113.198,0.00410755,0.427064,20.5271,220.49,-0.80343,0.0,0.0
200,49.75,52.8771,54.6194,135.438,103.857,112.645,0.00400945,0.409557,20.5482,219.839,-0.744319,0.0,0.0
220,54.75,54.3403,56.0106,139.669,103.962,113.671,0.0036888,0.395055,20.5642,219.199,-0.818145,0.0,0.0
240,59.75,54.8175,57.4166,139.517,104.013,113.921,0.00369962,0.381793,20.5814,218.558,-0.833767,0.0,0.0
260,64.75,55.5752,58.4679,138.603,104.027,113.466,0.00360768,0.372477,20.5928,217.977,-0.795859,0.0,0.0
280,69.75,55.9549,59.1238,138.561,104.012,115.295,0.00344156,0.358117,20.6097,217.407,-0.943695,0.0,0.0
300,74.75,55.6835,59.1348,139.768,103.987,114.849,0.0033846,0.348144,20.6215,216.836,-0.910382,0.0,0.0
320,79.75,56.3593,59.8333,138.722,103.943,114.144,0.00329351,0.342539,20.6287,216.316,-0.857871,0.0,0.0
340,84.75,55.8801,60.4036,139.788,103.825,112.948,0.00322635,0.335528,20.6372,215.765,-0.771812,0.0,0.0
360,89.75,56.0421,60.436,137.215,103.69,113.582,0.00293706,0.327616,20.6476,215.235,-0.834958,0.0,0.0
380,94.75,55.8313,59.9755,145.371,103.509,113.163,0.00271609,0.319307,20.6567,214.725,-0.817044,0.0,0.0
400,99.75,55.7584,60.3838,137.739,103.326,115.313,0.00282839,0.31439,20.6611,214.254,-1.00579,0.0,0.0
420,104.75,56.2179,60.4395,139.324,103.175,113.948,0.00260924,0.309327,20.6672,213.764,-0.910021,0.0,0.0
440,109.75,55.5583,60.2383,135.382,102.998,114.438,0.00243948,0.304373,20.6733,213.293,-0.965152,0.0,0.0
460,114.75,55.0111,59.7421,138.14,102.852,114.635,0.00244774,0.300087,20.6788,212.813,-0.993835,0.0,0.0
480,119.75,55.1194,60.0915,137.833,102.761,113.439,0.00221826,0.294549,20.6855,212.352,-0.905914,0.0,0.0
500,124.75,54.6481,59.5875,140.583,102.732,116.089,0.00208504,0.289428,20.6931,211.882,-1.12007,0.0,0.0
520,129.75,54.7324,59.7898,140.087,102.764,113.064,0.00208752,0.286826,20.6969,211.452,-0.875291,0.0,0.0
540,134.75,54.6313,59.4257,137.732,102.872,115.607,0.00226197,0.2836,20.6993,210.981,-1.0695,0.0,0.0
560,139.75,54.2949,59.3414,138.866,103.001,114.447,0.00202708,0.283991,20.6983,210.551,-0.965639,0.0,0.0
580,144.75,54.3873,58.8862,141.449,103.167,113.296,0.00184476,0.281506,20.7003,210.13,-0.858214,0.0,0.0
600,149.75,53.999,58.7928,142.858,103.357,115.839,0.00198587,0.278243,20.7042,209.73,-1.04473,0.0,0.0
620,154.75,53.8559,58.5752,144.271,103.562,115.679,0.00190534,0.27634,20.7069,209.26,-1.01391,0.0,0.0
640,159.75,53.4203,58.3526,139.38,103.775,116.526,0.00176809,0.273449,20.7109,208.839,-1.06195,0.0,0.0
660,164.75,53.4748,58.3662,139.602,103.993,116.205,0.00166486,0.27031,20.7126,208.449,-1.01742,0.0,0.0
680,169.75,53.4366,58.1442,144.684,104.223,116.16,0.001819,0.270347,20.7142,208.028,-0.993703,0.0,0.0
700,174.75,53.3888,58.0921,145.025,104.379,116.91,0.0019561,0.272139,20.7153,207.608,-1.03893,0.0,0.0
720,179.75,52.9632,57.5137,139.605,104.497,117.472,0.00184922,0.272095,20.7155,207.168,-1.07251,0.0,0.0
740,184.75,52.9601,57.5359,139.898,104.6,117.008,0.00191187,0.270336,20.7168,206.767,-1.02716,0.0,0.0
760,189.75,53.1191,57.4575,140.015,104.654,116.33,0.00175879,0.270194,20.7163,206.347,-0.969251,0.0,0.0
780,194.75,52.6487,57.0337,138.696,104.676,117.543,0.00180857,0.268713,20.7183,205.967,-1.06236,0.0,0.0
800,199.75,53.0605,57.2683,142.409,104.673,117.142,0.00188487,0.270201,20.7174,205.536,-1.03127,0.0,0.0
820,204.75,52.9023,57.2219,143.596,104.633,115.304,0.00174481,0.266284,20.7209,205.146,-0.88986,0.0,0.0
840,209.75,52.8265,56.9538,140.866,104.569,116.812,0.00187838,0.262042,20.7268,204.745,-1.01449,0.0,0.0
860,214.75,52.3515,56.9552,142.314,104.49,116.705,0.00183455,0.258852,20.7293,204.355,-1.01302,0.0,0.0
880,219.75,52.4234,56.339,144.356,104.39,116.348,0.00172441,0.256956,20.7321,203.925,-0.993722,0.0,0.0
900,224.75,52.6399,56.6541,140.141,104.286,116.785,0.00182426,0.255248,20.7329,203.534,-1.03723,0.0,0.0
920,229.75,52.2652,56.6879,143.475,104.153,116.785,0.00165779,0.254982,20.7333,203.164,-1.04897,0.0,0.0
940,234.75,52.5751,56.7307,140.65,104.034,116.624,0.00182349,0.255507,20.7329,202.754,-1.04683,0.0,0.0
960,239.75,52.5615,56.4682,141.936,103.914,116.972,0.00193677,0.254273,20.7358,202.393,-1.0847,0.0,0.0
980,244.75,52.2722,56.2624,143.452,103.818,116.722,0.00195483,0.251808,20.7388,201.993,-1.07358,0.0,0.0
1000,249.75,52.1884,56.164,140.67,103.76,117.57,0.00191787,0.253584,20.7369,201.663,-1.14502,0.0,0.0
1020,254.75,51.665,55.827,142.924,103.954,117.231,0.00184862,0.251113,20.7398,201.282,-1.10138,0.0,0.0
1040,259.75,51.5849,55.6498,139.323,104.093,116.615,0.00172669,0.250003,20.7391,200.932,-1.04089,0.0,0.0
1060,264.75,51.5007,55.6175,143.376,104.205,116.785,0.00189212,0.248978,20.7401,200.492,-1.04441,0.0,0.0
1080,269.75,51.6142,55.6881,140.154,104.246,116.473,0.00198949,0.247615,20.7431,200.131,-1.01625,0.0,0.0
1100,274.75,51.6111,55.5315,141.707,104.24,115.768,0.00171404,0.245556,20.7445,199.791,-0.961151,0.0,0.0
1120,279.75,51.5234,55.3598,138,104.183,117.445,0.00165329,0.245377,20.7447,199.411,-1.09801,0.0,0.0
1140,284.75,51.8464,55.1402,142.241,104.087,117.623,0.00180498,0.242882,20.7478,199.07,-1.1203,0.0,0.0
1160,289.75,51.3872,55.093,143.546,103.927,115.714,0.00178936,0.243973,20.7482,198.72,-0.984454,0.0,0.0
1180,294.75,51.1774,54.7759,141.221,103.707,117.124,0.00194813,0.243249,20.7478,198.33,-1.11488,0.0,0.0
1200,299.75,51.0285,54.7618,143.891,103.452,116.437,0.00204376,0.242775,20.7484,198.019,-1.0835,0.0,0.0
1220,304.75,51.1741,54.8217,142.151,103.373,115.268,0.00173221,0.241432,20.7514,197.619,-0.998059,0.0,0.0
1240,309.75,51.0976,54.7435,142.774,103.416,116.999,0.00189139,0.241623,20.7517,197.279,-1.13079,0.0,0.0
1260,314.75,51.0871,54.3541,140.882,103.49,116.205,0.00171006,0.240349,20.7523,196.898,-1.06187,0.0,0.0
1280,319.75,50.8527,54.7042,143.085,103.581,117.606,0.00143807,0.237685,20.7533,196.558,-1.16362,0.0,0.0
1300,324.75,51.0144,54.3259,141.855,103.656,115.625,0.00152842,0.235906,20.7565,196.228,-1.00133,0.0,0.0
1320,329.75,51.0027,54.168,140.232,103.767,118.052,0.00132104,0.234817,20.7568,195.897,-1.18185,0.0,0.0
1340,334.75,51.1319,54.163,138.682,103.846,115.67,0.00158259,0.234056,20.7578,195.537,-0.988081,0.0,0.0
1360,339.75,50.3509,54.3099,142.261,103.92,116.981,0.00159829,0.233276,20.7581,195.227,-1.08483,0.0,0.0
1380,344.75,50.342,54.0513,145.415,103.976,115.902,0.0016459,0.23102,20.7598,194.867,-0.99497,0.0,0.0
1400,349.75,50.7642,54.0513,138.904,103.999,117.641,0.00156907,0.228282,20.7641,194.546,-1.12943,0.0,0.0
1420,354.75,50.7663,53.6268,141.542,104.03,116.187,0.00134361,0.228257,20.7646,194.186,-1.01272,0.0,0.0
1440,359.75,49.7038,53.6139,143.601,104.023,116.731,0.00143222,0.228976,20.7646,193.856,-1.05622,0.0,0.0
1460,364.75,50.0666,53.7164,144.562,103.993,118.114,0.0018485,0.229193,20.7646,193.485,-1.16679,0.0,0.0
1480,369.75,49.8911,53.2494,143.478,103.931,117.24,0.00191932,0.228691,20.7644,193.175,-1.10418,0.0,0.0
1500,374.75,50.0917,53.3756,141.59,103.869,117.365,0.00210611,0.230473,20.762,192.795,-1.11937,0.0,0.0
1520,379.75,49.7621,53.5069,143.075,103.801,117.115,0.0018413,0.231593,20.7622,192.474,-1.10588,0.0,0.0
1540,384.75,50.142,53.1878,140.047,103.714,116.214,0.00173696,0.232233,20.7602,192.124,-1.04273,0.0,0.0
1560,389.75,49.7928,52.7603,143.797,103.628,117.356,0.00155188,0.231515,20.76,191.794,-1.13992,0.0,0.0
1580,394.75,49.9132,53.066,142.092,103.543,116.499,0.00164758,0.233047,20.7599,191.463,-1.08036,0.0,0.0
1600,399.75,50.0711,53.349,137.78,103.449,116.829,0.00162402,0.232035,20.7589,191.093,-1.11464,0.0,0.0
1620,404.75,50.0355,53.1879,144.413,103.344,114.572,0.0017341,0.234122,20.7568,190.753,-0.945133,0.0,0.0
1640,409.75,50.2421,53.3046,139.116,103.236,114.18,0.00190437,0.235807,20.7559,190.412,-0.923298,0.0,0.0
1660,414.75,49.8323,53.2922,140.483,103.119,115.375,0.00201109,0.232725,20.7578,190.052,-1.02912,0.0,0.0
1680,419.75,49.7992,53.0612,137.049,103.015,115.348,0.0016233,0.234311,20.7565,189.692,-1.03626,0.0,0.0
1700,424.75,49.9043,53.1353,140.912,102.904,116.116,0.00151248,0.234393,20.7574,189.352,-1.10684,0.0,0.0
1720,429.75,49.9495,53.0888,142.852,102.807,115.732,0.00135994,0.235756,20.7556,189.021,-1.08515,0.0,0.0
1740,434.75,50.2941,53.2412,139.154,102.743,117.133,0.00164913,0.235302,20.7553,188.671,-1.20111,0.0,0.0
1760,439.75,50.0222,53.1231,139.554,102.699,116.91,0.00187214,0.233404,20.757,188.341,-1.18755,0.0,0.0
1780,444.75,50.4392,53.3228,144.529,102.699,114.67,0.00191371,0.234453,20.7573,187.98,-1.01037,0.0,0.0
1800,449.75,49.9855,53.1958,152.547,102.728,114.581,0.00154226,0.233075,20.7577,187.65,-1.00066,0.0,0.0
1820,454.75,50.0848,53.795,141.722,102.794,115.884,0.00161163,0.232132,20.7599,187.32,-1.09829,0.0,0.0
1840,459.75,50.0425,52.7478,142.009,102.851,116.696,0.0017429,0.23074,20.7594,186.999,-1.15723,0.0,0.0
1860,464.75,49.9333,52.869,141.208,102.922,116.357,0.00150965,0.229712,20.7595,186.679,-1.12421,0.0,0.0
1880,469.75,50.0391,53.4176,144.595,102.989,115.438,0.00151608,0.231438,20.7608,186.319,-1.04561,0.0,0.0
1900,474.75,50.1072,53.1165,142.201,103.064,115.527,0.00165832,0.231741,20.7612,185.998,-1.046,0.0,0.0
1920,479.75,50.2028,53.7348,145.886,103.136,115.777,0.00167213,0.230403,20.7622,185.638,-1.05941,0.0,0.0
1940,484.75,49.5004,52.6185,143.214,103.223,114.09,0.00169058,0.229416,20.7634,185.318,-0.917267,0.0,0.0
1960,489.75,50.0201,52.9473,145.094,103.296,116.107,0.00158651,0.229179,20.7628,184.998,-1.07135,0.0,0.0
1980,494.75,50.3751,53.4429,140.363,103.345,117.472,0.00177215,0.229051,20.765,184.647,-1.17408,0.0,0.0
2000,499.75,49.4741,53.0115,139.287,103.415,116.481,0.00186868,0.228833,20.7654,184.327,-1.09028,0.0,0.0
2020,504.75,50.3047,53.0287,143.288,103.456,116.972,0.00166054,0.227813,20.7651,183.997,-1.12515,0.0,0.0
2040,509.75,49.9333,53.2164,144.984,103.528,117.008,0.00156036,0.229421,20.7641,183.686,-1.12159,0.0,0.0
2060,514.75,49.8466,53.2199,144.324,103.574,116.089,0.00130694,0.228454,20.7635,183.326,-1.04527,0.0,0.0
2080,519.75,50.2092,53.142,142.79,103.653,116.339,0.00163047,0.22915,20.7637,183.036,-1.05798,0.0,0.0
2100,524.75,50.0155,52.8566,139.709,103.721,115.643,0.00203371,0.228107,20.7651,182.695,-0.996994,0.0,0.0
2120,529.75,49.8107,52.8397,145.319,103.82,116.687,0.00184381,0.228102,20.7653,182.375,-1.07055,0.0,0.0
2140,534.75,49.782,52.6443,140.32,103.86,118.221,0.00193933,0.228779,20.7633,182.025,-1.18682,0.0,0.0
2160,539.75,49.9484,53.0453,141.944,103.917,117.124,0.00182965,0.228545,20.7656,181.725,-1.09627,0.0,0.0
2180,544.75,49.727,53.0203,143.461,103.968,116.392,0.00173807,0.228317,20.7681,181.384,-1.03439,0.0,0.0
2200,549.75,49.5974,52.7126,139.162,103.978,116.847,0.00177841,0.227615,20.7679,181.044,-1.06929,0.0,0.0
2220,554.75,49.6679,53.1062,144.592,104.005,115.812,0.00147427,0.22695,20.7679,180.724,-0.985366,0.0,0.0
2240,559.75,49.3289,52.5906,142.241,103.999,116.731,0.00180778,0.227852,20.7677,180.363,-1.05827,0.0,0.0
2260,564.75,50.1437,53.1971,144.219,103.999,117.57,0.00171824,0.227735,20.7681,180.043,-1.12395,0.0,0.0
2280,569.75,50.0025,53.0518,143.993,103.988,115.598,0.00141487,0.226016,20.77,179.723,-0.96987,0.0,0.0
2300,574.75,49.7177,52.7188,137.755,103.962,117.579,0.00160467,0.227576,20.7684,179.383,-1.12783,0.0,0.0
2320,579.75,49.896,52.7391,141.795,103.954,115.652,0.00183467,0.223762,20.7716,179.062,-0.977184,0.0,0.0
2340,584.75,50.1175,52.7182,146.118,103.924,116.142,0.00163966,0.224201,20.7729,178.762,-1.0186,0.0,0.0
2360,589.75,49.6049,52.7364,143.691,103.928,116.99,0.00130279,0.224264,20.7715,178.452,-1.08489,0.0,0.0
2380,594.75,49.8105,52.9591,143.941,103.957,117.445,0.0014886,0.222599,20.7719,178.131,-1.11784,0.0,0.0
2400,599.75,49.6276,52.5373,140.484,103.992,116.446,0.00149679,0.222755,20.772,177.781,-1.03651,0.0,0.0
2420,604.75,49.5178,52.4411,144.478,104.013,116.91,0.00209416,0.221465,20.7715,177.461,-1.07104,0.0,0.0
2440,609.75,49.5686,52.4537,139.689,104.023,117.499,0.00199837,0.22052,20.771,177.15,-1.11621,0.0,0.0
2460,614.75,49.7898,52.487,144.584,104.03,116.651,0.0019631,0.221712,20.7706,176.84,-1.04927,0.0,0.0
2480,619.75,49.5272,51.9898,140.495,104.044,117.659,0.00203958,0.219918,20.7725,176.54,-1.12689,0.0,0.0
2500,624.75,49.3797,52.6374,140.21,104.088,116.134,0.00177099,0.219959,20.7728,176.22,-1.00344,0.0,0.0
2520,629.75,49.3268,52.2431,141.029,104.135,116.606,0.00196384,0.220372,20.7725,175.899,-1.03656,0.0,0.0
2540,634.75,49.0024,52.0787,145.105,104.172,118.373,0.00175316,0.220365,20.7722,175.599,-1.17105,0.0,0.0
2560,639.75,49.6591,52.4496,139.204,104.244,117.383,0.001706,0.218501,20.7742,175.269,-1.08775,0.0,0.0
2580,644.75,49.0084,51.4984,141.231,104.308,117.418,0.00193233,0.219587,20.7745,174.969,-1.08493,0.0,0.0
2600,649.75,49.3461,52.1903,146.552,104.375,117.079,0.00200496,0.220136,20.7735,174.658,-1.0525,0.0,0.0
2620,654.75,49.1618,52.148,148.592,104.441,116.009,0.00191399,0.222425,20.7715,174.308,-0.962505,0.0,0.0
2640,659.75,49.1888,52.252,138.179,104.481,117.659,0.00184208,0.220907,20.7728,173.988,-1.08845,0.0,0.0
2660,664.75,49.3139,52.2616,143.935,104.514,117.356,0.00181412,0.223409,20.7706,173.687,-1.06197,0.0,0.0
2680,669.75,49.1216,51.9599,143.465,104.551,116.963,0.00174201,0.224645,20.7696,173.367,-1.02798,0.0,0.0
2700,674.75,49.265,51.9437,139.378,104.581,118.864,0.00158449,0.226172,20.7678,173.027,-1.17302,0.0,0.0
2720,679.75,49.2307,52.4159,141.348,104.623,117.534,0.00157832,0.225553,20.7679,172.686,-1.06635,0.0,0.0
2740,684.75,49.3281,52.506,140.45,104.633,116.829,0.00178116,0.226445,20.768,172.356,-1.01031,0.0,0.0
2760,689.75,49.3732,52.5065,144.536,104.654,118.078,0.00175824,0.228,20.7654,172.046,-1.10589,0.0,0.0
2780,694.75,49.8824,52.5072,142.924,104.659,118.462,0.00165566,0.228721,20.7647,171.716,-1.13521,0.0,0.0
2800,699.75,49.8028,52.5574,141.814,104.66,116.606,0.00136653,0.229304,20.7646,171.355,-0.990453,0.0,0.0
2820,704.75,49.5799,53.0081,143.939,104.652,117.16,0.00137135,0.229707,20.7646,171.035,-1.03453,0.0,0.0
2840,709.75,49.8024,52.5629,142.066,104.638,118.426,0.00165427,0.22947,20.7626,170.715,-1.13427,0.0,0.0
2860,714.75,49.8289,52.6751,139.64,104.596,117.561,0.00174646,0.230828,20.7616,170.374,-1.07079,0.0,0.0
2880,719.75,50.1376,52.5609,141.792,104.551,117.168,0.00167806,0.231942,20.762,170.034,-1.04408,0.0,0.0
2900,724.75,50.1107,52.9179,140.103,104.507,117.383,0.00154968,0.230301,20.7636,169.704,-1.06465,0.0,0.0
2920,729.75,49.9833,52.6666,139.209,104.448,117.668,0.00179179,0.2281,20.7662,169.373,-1.09209,0.0,0.0
2940,734.75,49.6551,52.5987,142.975,104.365,118.81,0.00171927,0.228889,20.7642,169.043,-1.18791,0.0,0.0
2960,739.75,49.724,52.6528,142.843,104.302,116.901,0.00187562,0.230725,20.7623,168.703,-1.04498,0.0,0.0
2980,744.75,50.0934,52.7189,141.959,104.229,116,0.00214988,0.228676,20.7644,168.363,-0.980465,0.0,0.0
3000,749.75,50.1003,52.85,143.576,104.175,115.821,0.00205068,0.226916,20.7665,168.032,-0.971105,0.0,0.0
3020,754.75,50.0521,52.877,143.149,104.117,116.562,0.00196709,0.226164,20.7678,167.742,-1.03459,0.0,0.0
3040,759.75,50.126,53.2625,142.569,104.057,115.563,0.00195112,0.225101,20.7693,167.422,-0.960975,0.0,0.0
3060,764.75,50.011,53.1651,145.529,104.004,116.473,0.00170713,0.223464,20.7705,167.081,-1.03753,0.0,0.0
3080,769.75,49.7448,52.492,141.241,103.952,115.812,0.00179209,0.221729,20.772,166.771,-0.990049,0.0,0.0
3100,774.75,49.2724,52.2862,145.119,103.896,117.186,0.00194283,0.219519,20.7755,166.481,-1.10307,0.0,0.0
3120,779.75,49.5102,52.6578,143.046,103.842,116.312,0.00187307,0.218707,20.7759,166.151,-1.03917,0.0,0.0
3140,784.75,49.8357,52.6391,143.419,103.797,115.393,0.00206051,0.217746,20.7754,165.86,-0.970459,0.0,0.0
3160,789.75,49.4403,52.2309,139.193,103.789,115.848,0.00206022,0.218561,20.7742,165.55,-1.00723,0.0,0.0
3180,794.75,49.6086,52.5774,142.343,103.951,116.517,0.00153868,0.220495,20.7745,165.22,-1.04568,0.0,0.0
3200,799.75,49.3189,52.3772,143.05,104.056,116.464,0.00171056,0.218933,20.7759,164.899,-1.0323,0.0,0.0
3220,804.75,49.6739,52.5054,144.075,104.17,116.776,0.00186535,0.218116,20.7774,164.589,-1.04673,0.0,0.0
3240,809.75,49.5474,51.8725,144.489,104.215,117.356,0.00180878,0.218831,20.7776,164.269,-1.08816,0.0,0.0
3260,814.75,49.3577,51.8649,146.134,104.245,116.499,0.00175067,0.217881,20.7775,163.979,-1.01847,0.0,0.0
3280,819.75,49.0344,52.2304,143.885,104.267,116.749,0.00174909,0.217664,20.7775,163.668,-1.03615,0.0,0.0
3300,824.75,49.1768,51.8764,145.104,104.232,116.214,0.00212619,0.218004,20.7788,163.348,-0.997102,0.0,0.0
3320,829.75,49.0438,51.8128,147.38,104.19,116.455,0.00185613,0.216259,20.7804,163.068,-1.01978,0.0,0.0
3340,834.75,49.3128,52.35,143.574,104.094,116.232,0.00163437,0.2194,20.7772,162.707,-1.01066,0.0,0.0
3360,839.75,49.5636,52.2598,144.398,103.983,116.151,0.00172497,0.217762,20.7763,162.407,-1.01406,0.0,0.0
3380,844.75,49.0905,52.0545,140.064,103.843,116.945,0.00198852,0.218175,20.7757,162.097,-1.08886,0.0,0.0
3400,849.75,48.8383,51.8087,146.391,103.691,116.66,0.00221072,0.220375,20.7731,161.767,-1.0799,0.0,0.0
3420,854.75,48.9382,51.4803,142.11,103.537,116.954,0.00225068,0.220045,20.7719,161.476,-1.1166,0.0,0.0
3440,859.75,49.3407,52.0119,140.32,103.424,116.232,0.00188553,0.221419,20.771,161.166,-1.06978,0.0,0.0
3460,864.75,49.1571,52.0047,141.589,103.354,116.82,0.00181459,0.221019,20.7736,160.836,-1.1223,0.0,0.0
3480,869.75,49.2356,52.2573,146.248,103.373,115.875,0.00208368,0.221349,20.7731,160.525,-1.0462,0.0,0.0
3500,874.75,49.5654,52.3885,141.447,103.393,116.062,0.00157062,0.219129,20.775,160.185,-1.05916,0.0,0.0
3520,879.75,49.0471,52.4277,145.321,103.413,116.446,0.00176605,0.221281,20.7737,159.895,-1.08763,0.0,0.0
3540,884.75,49.6143,51.8716,141.872,103.429,114.983,0.00178435,0.221833,20.773,159.555,-0.970401,0.0,0.0
3560,889.75,49.2981,52.3297,147.344,103.457,115.241,0.00168117,0.219666,20.7746,159.244,-0.988475,0.0,0.0
3580,894.75,49.8979,52.4089,139.022,103.482,116.08,0.00200609,0.219777,20.7761,158.954,-1.0527,0.0,0.0
3600,899.75,49.4547,52.108,145.746,103.509,115.928,0.00211273,0.219788,20.7773,158.644,-1.03838,0.0,0.0
3620,904.75,49.2307,52.4823,143.117,103.524,114.064,0.00191081,0.217864,20.7774,158.333,-0.888441,0.0,0.0
3640,909.75,49.2696,52.3397,143.507,103.55,115.991,0.00184951,0.214022,20.7807,158.003,-1.03967,0.0,0.0
3660,914.75,48.5139,51.841,143.64,103.59,116.731,0.00194225,0.213821,20.7819,157.713,-1.09445,0.0,0.0
3680,919.75,49.4115,52.2095,141.5,103.619,115.634,0.00198175,0.213344,20.7814,157.413,-1.00534,0.0,0.0
3700,924.75,49.1004,52.2581,147.492,103.648,115.438,0.00182273,0.211318,20.7817,157.142,-0.987218,0.0,0.0
3720,929.75,49.0171,52.2031,144.706,103.684,116.348,0.00162312,0.209115,20.785,156.832,-1.05594,0.0,0.0
3740,934.75,49.1048,52.0765,145.5,103.723,116.125,0.00177787,0.208872,20.7865,156.572,-1.03494,0.0,0.0
3760,939.75,48.3446,51.1178,143.919,103.764,115.295,0.00191765,0.207949,20.7864,156.282,-0.965552,0.0,0.0
3780,944.75,48.259,51.3472,142.617,103.783,115.357,0.00190088,0.207076,20.7878,155.961,-0.9689,0.0,0.0
3800,949.75,48.9871,51.3131,144.469,103.815,115.081,0.00187941,0.207053,20.7866,155.701,-0.94409,0.0,0.0
3820,954.75,48.3133,51.2434,144.145,103.836,115.946,0.00216998,0.205055,20.7892,155.391,-1.01083,0.0,0.0
3840,959.75,48.2844,51.0829,143.696,103.856,115.438,0.0022694,0.202914,20.7911,155.111,-0.968824,0.0,0.0
3860,964.75,47.6992,51.4166,143.757,103.852,114.617,0.00196043,0.203957,20.7893,154.82,-0.903775,0.0,0.0
3880,969.75,47.7141,51.1494,148.239,103.859,115.197,0.00219173,0.206187,20.7883,154.52,-0.949383,0.0,0.0
3900,974.75,47.6334,51.0953,145.747,103.859,115.518,0.00197834,0.206672,20.7882,154.25,-0.974895,0.0,0.0
3920,979.75,47.8675,50.7793,140.052,103.863,115.705,0.00231424,0.205398,20.7914,154.02,-0.989446,0.0,0.0
3940,984.75,48.1636,51.0156,140.844,103.862,116.276,0.00228674,0.205984,20.7904,153.689,-1.03463,0.0,0.0
3960,989.75,48.0047,50.9991,139.758,103.83,115.393,0.00218611,0.205691,20.7909,153.429,-0.967533,0.0,0.0
3980,994.75,47.8207,50.8848,140.98,103.842,114.403,0.00215335,0.206165,20.7909,153.119,-0.88754,0.0,0.0
4000,999.75,48.0374,50.9017,146.17,103.842,114.367,0.00186008,0.206671,20.7881,152.868,-0.884681,0.0,0.0
4020,1004.75,47.9197,50.5178,146.817,103.823,115.857,0.00215357,0.207446,20.7877,152.558,-1.00494,0.0,0.0
4040,1009.75,47.9683,50.8251,142.333,103.818,115.554,0.00220113,0.207174,20.7868,152.278,-0.981327,0.0,0.0
4060,1014.75,47.8285,50.6486,139.19,103.797,115.045,0.00225573,0.208958,20.7852,151.998,-0.942786,0.0,0.0
4080,1019.75,47.7595,50.3565,147.53,103.79,115.812,0.00236925,0.208135,20.7861,151.687,-1.00433,0.0,0.0
4100,1024.75,48.2225,50.2512,145.891,103.766,114.599,0.00209368,0.206753,20.7873,151.447,-0.909964,0.0,0.0
4120,1029.75,47.8801,50.4415,142.374,103.757,115.687,0.00222929,0.206119,20.7888,151.147,-0.997374,0.0,0.0
4140,1034.75,48.0259,50.775,144.057,103.753,115.045,0.002097,0.207932,20.7866,150.857,-0.94669,0.0,0.0
4160,1039.75,47.833,50.5145,140.246,103.753,117.035,0.00182199,0.207659,20.7872,150.586,-1.1038,0.0,0.0
4180,1044.75,47.389,50.5115,145.162,103.763,116.303,0.00209663,0.207741,20.786,150.286,-1.04548,0.0,0.0
4200,1049.75,47.9459,50.2971,140.624,103.763,116.365,0.00224915,0.208622,20.7857,150.026,-1.0504,0.0,0.0
4220,1054.75,47.4972,50.0324,143.696,103.769,115.215,0.0021188,0.208452,20.7855,149.726,-0.958755,0.0,0.0
4240,1059.75,47.7925,50.1736,143.466,103.782,115.625,0.00199642,0.208531,20.7849,149.455,-0.990174,0.0,0.0
4260,1064.75,47.3811,50.3782,142.317,103.812,116.026,0.00201458,0.207686,20.7862,149.175,-1.01935,0.0,0.0
4280,1069.75,47.5049,50.027,143.397,103.837,115.348,0.00207555,0.210569,20.7832,148.865,-0.963426,0.0,0.0
4300,1074.75,48.2401,50.4892,149.316,103.86,116.178,0.00188454,0.209223,20.7837,148.605,-1.02704,0.0,0.0
4320,1079.75,47.4133,49.8525,140.266,103.876,116.312,0.00225456,0.208927,20.7849,148.284,-1.03617,0.0,0.0
4340,1084.75,47.6672,50.4448,144.781,103.906,116.018,0.00207696,0.207008,20.7856,148.024,-1.01035,0.0,0.0
4360,1089.75,47.4592,50.4694,138.675,103.924,115.902,0.00215623,0.209375,20.7825,147.724,-0.999578,0.0,0.0
4380,1094.75,47.5044,50.6299,140.93,103.937,114.644,0.00220231,0.209597,20.7836,147.434,-0.898379,0.0,0.0
4400,1099.75,47.8384,50.715,145.373,103.954,115.206,0.00200198,0.207197,20.7863,147.163,-0.941771,0.0,0.0
4420,1104.75,47.722,50.5213,147.426,103.959,114.305,0.00188741,0.20793,20.7867,146.883,-0.869367,0.0,0.0
4440,1109.75,48.0636,50.4015,139.119,103.967,114.135,0.00193841,0.208974,20.7867,146.603,-0.855018,0.0,0.0
4460,1114.75,48.0034,50.235,140.592,103.978,114.84,0.00184562,0.208436,20.7867,146.343,-0.910495,0.0,0.0
4480,1119.75,47.6719,50.7109,142.35,103.969,117.579,0.00209853,0.207779,20.7864,146.062,-1.12723,0.0,0.0
4500,1124.75,47.7289,50.2889,145.007,103.975,115.375,0.00184529,0.207428,20.7882,145.792,-0.953333,0.0,0.0
4520,1129.75,47.9733,50.7059,144.655,103.977,116.365,0.00169879,0.206809,20.7888,145.482,-1.0315,0.0,0.0
4540,1134.75,47.7167,50.4809,146.451,103.976,114.492,0.00201172,0.206089,20.7889,145.232,-0.882801,0.0,0.0
4560,1139.75,47.4592,49.9712,143.574,103.979,116.16,0.00205469,0.205949,20.7902,144.961,-1.01514,0.0,0.0
4580,1144.75,47.3329,50.0769,144.416,103.978,116.178,0.0020735,0.205854,20.7903,144.671,-1.01666,0.0,0.0
4600,1149.75,47.7573,50.2408,145.01,103.965,117.088,0.0020671,0.205315,20.7905,144.431,-1.08924,0.0,0.0
4620,1154.75,47.7814,50.2393,145.842,103.965,115.286,0.00219471,0.204058,20.7905,144.131,-0.947182,0.0,0.0
4640,1159.75,47.8119,50.3306,140.548,103.968,114.911,0.00242056,0.204666,20.7905,143.86,-0.917049,0.0,0.0
4660,1164.75,47.6345,50.0099,144.168,103.977,115.429,0.00222992,0.20291,20.792,143.56,-0.957434,0.0,0.0
4680,1169.75,47.0574,49.7458,148.976,103.977,114.394,0.00223983,0.202294,20.794,143.35,-0.874906,0.0,0.0
4700,1174.75,47.537,50.1259,145.642,103.995,116.294,0.00226917,0.203701,20.7921,143.07,-1.02427,0.0,0.0
4720,1179.75,47.1181,49.7457,140.848,103.979,116.357,0.00199464,0.202254,20.7929,142.839,-1.03061,0.0,0.0
4740,1184.75,47.4186,50.1595,140.983,103.976,116.633,0.00203832,0.202037,20.794,142.549,-1.05259,0.0,0.0
4760,1189.75,47.2729,49.8634,142.242,103.981,117.65,0.0023096,0.202122,20.7949,142.279,-1.13174,0.0,0.0
4780,1194.75,47.3783,49.7807,145.233,103.98,114.198,0.00206833,0.204258,20.793,142.009,-0.85887,0.0,0.0
4800,1199.75,46.9214,49.6929,145.351,103.974,113.751,0.00192735,0.201384,20.7945,141.718,-0.823605,0.0,0.0
4820,1204.75,47.4025,49.9383,145.307,103.961,117.097,0.00212188,0.201585,20.7937,141.458,-1.09032,0.0,0.0
4840,1209.75,47.1831,50.1585,144.213,103.963,114.777,0.00240743,0.203839,20.7908,141.188,-0.906821,0.0,0.0
4860,1214.75,47.2906,49.7139,145.484,103.97,114.84,0.00220402,0.20259,20.7942,140.938,-0.911168,0.0,0.0
4880,1219.75,47.2948,49.7949,140.238,103.983,116.758,0.00245343,0.204486,20.7926,140.647,-1.0618,0.0,0.0
4900,1224.75,47.1325,50.2157,144.468,103.973,115.5,0.00234784,0.206418,20.7899,140.377,-0.963473,0.0,0.0
4920,1229.75,46.964,49.5388,142.099,103.984,116.919,0.00214256,0.206987,20.7882,140.127,-1.07432,0.0,0.0
4940,1234.75,47.5958,50.257,141.382,103.982,116.321,0.00217156,0.205839,20.7909,139.837,-1.0275,0.0,0.0
4960,1239.75,47.7645,50.1045,143.665,103.978,115.259,0.00212222,0.206805,20.79,139.586,-0.943892,0.0,0.0
4980,1244.75,47.469,49.9453,142.387,103.976,115.857,0.00219391,0.206185,20.7896,139.286,-0.99148,0.0,0.0
5000,1249.75,47.7,49.8371,142.911,103.974,117.079,0.00221063,0.205276,20.7908,139.046,-1.0878,0.0,0.0
5020,1254.75,47.0807,50.4078,142.219,103.965,117.311,0.00237806,0.205641,20.791,138.766,-1.10672,0.0,0.0
5040,1259.75,47.5526,49.9591,145.937,103.96,115.197,0.00215581,0.204607,20.791,138.495,-0.940499,0.0,0.0
5060,1264.75,47.4687,50.0514,142.193,103.951,115.375,0.00200619,0.205816,20.7908,138.205,-0.955431,0.0,0.0
5080,1269.75,47.5101,49.6714,143.551,103.948,115.375,0.00181138,0.206105,20.7902,137.965,-0.95573,0.0,0.0
5100,1274.75,47.4766,49.7299,143.08,103.933,115.839,0.00186792,0.206878,20.7895,137.675,-0.993852,0.0,0.0
5120,1279.75,47.4352,50.1396,141.189,103.906,116.865,0.0018712,0.206791,20.7912,137.374,-1.07705,0.0,0.0
5140,1284.75,47.2721,49.9363,142.835,103.889,114.706,0.00215668,0.205977,20.7916,137.094,-0.907642,0.0,0.0
5160,1289.75,47.6196,50.1636,143.409,103.865,115.045,0.00225303,0.208515,20.7901,136.864,-0.936785,0.0,0.0
5180,1294.75,47.5955,50.3466,148.602,103.83,116.517,0.00246848,0.206637,20.7899,136.564,-1.05641,0.0,0.0
5200,1299.75,47.6371,49.6383,143.871,103.803,116.053,0.00211502,0.205452,20.7908,136.283,-1.02225,0.0,0.0
5220,1304.75,47.7153,50.0714,143.466,103.75,116.758,0.00186048,0.205036,20.7928,136.043,-1.08242,0.0,0.0
5240,1309.75,47.7585,50.2462,142.703,103.704,115.438,0.00186671,0.206515,20.7924,135.763,-0.982222,0.0,0.0
5260,1314.75,47.676,50.473,144.45,103.653,114.421,0.00178991,0.206779,20.7924,135.483,-0.905674,0.0,0.0
5280,1319.75,47.8871,50.1719,145.938,103.601,114.322,0.00207817,0.206619,20.7905,135.202,-0.902359,0.0,0.0
5300,1324.75,47.9886,49.8932,142.798,103.524,113.653,0.00214214,0.208414,20.7885,134.932,-0.855413,0.0,0.0
5320,1329.75,47.6835,50.0811,143.337,103.469,115.589,0.00189593,0.2068,20.7885,134.662,-1.01508,0.0,0.0
5340,1334.75,48.0812,50.3008,143.258,103.397,114.296,0.00197625,0.207481,20.7894,134.392,-0.918276,0.0,0.0
5360,1339.75,47.6874,50.2906,141.025,103.319,115.215,0.00224054,0.209324,20.7877,134.081,-0.998588,0.0,0.0
5380,1344.75,47.6363,50.6712,145.548,103.239,113.323,0.00229427,0.207473,20.7881,133.821,-0.854,0.0,0.0
5400,1349.75,47.6006,50.5379,143.198,103.179,115.143,0.00199442,0.207195,20.79,133.541,-1.00536,0.0,0.0
5420,1354.75,47.4819,50.0231,140.256,103.11,114.269,0.00182534,0.208238,20.7888,133.261,-0.941591,0.0,0.0
5440,1359.75,47.1972,50.2565,142.679,103.066,115.348,0.0018648,0.207074,20.7904,133,-1.03168,0.0,0.0
5460,1364.75,47.66,50.4465,147.441,103.011,114.189,0.00195042,0.20732,20.7913,132.74,-0.943955,0.0,0.0
5480,1369.75,47.6115,50.518,141.587,102.968,114.947,0.00182507,0.206274,20.7915,132.47,-1.00847,0.0,0.0
5500,1374.75,47.5408,50.1634,142.828,102.885,114.403,0.00196949,0.207573,20.7897,132.2,-0.972358,0.0,0.0
5520,1379.75,47.6571,50.5589,140.754,102.822,115.197,0.00192226,0.209239,20.7875,131.93,-1.04134,0.0,0.0
5540,1384.75,47.4269,50.3384,140.392,102.771,114.18,0.00183898,0.209713,20.7879,131.649,-0.964664,0.0,0.0
5560,1389.75,47.9004,50.4428,141.594,102.729,114.528,0.00191409,0.208836,20.7892,131.409,-0.996223,0.0,0.0
5580,1394.75,47.417,50.7805,144.727,102.698,113.18,0.00198321,0.208815,20.7879,131.159,-0.890601,0.0,0.0
5600,1399.75,47.8771,50.7919,147.005,102.672,114.626,0.00197053,0.209622,20.7868,130.839,-1.00915,0.0,0.0
5620,1404.75,47.6408,50.4907,143.68,102.659,113.172,0.00192957,0.209544,20.7866,130.588,-0.893368,0.0,0.0
5640,1409.75,48.1388,50.7605,146.315,102.647,112.717,0.00217851,0.21181,20.7832,130.298,-0.857515,0.0,0.0
5660,1414.75,48.3255,50.9499,144.143,102.657,115.652,0.00214786,0.212238,20.7821,130.048,-1.09217,0.0,0.0
5680,1419.75,48.0186,50.8314,140.902,102.641,114.349,0.00203166,0.21424,20.7801,129.748,-0.989786,0.0,0.0
5700,1424.75,47.6051,50.7272,144.193,102.662,116.071,0.00220449,0.213079,20.781,129.477,-1.12492,0.0,0.0
5720,1429.75,48.0031,50.6247,140.093,102.659,114.313,0.00221869,0.212931,20.7805,129.227,-0.985333,0.0,0.0
5740,1434.75,48.0337,50.9375,143.505,102.677,114.233,0.00224957,0.213701,20.779,128.927,-0.9773,0.0,0.0
5760,1439.75,48.3569,50.7149,139.709,102.704,114.733,0.00218518,0.2148,20.7793,128.677,-1.01494,0.0,0.0
5780,1444.75,48.5273,51.1351,143.704,102.738,114.01,0.00223532,0.215211,20.7802,128.366,-0.954006,0.0,0.0
5800,1449.75,48.2514,50.8593,141.129,102.777,114.724,0.00223153,0.215294,20.7811,128.106,-1.00767,0.0,0.0
5820,1454.75,48.2329,50.7244,142.292,102.834,115.652,0.00185739,0.21515,20.7822,127.806,-1.07637,0.0,0.0
5840,1459.75,48.3241,50.9393,142.869,102.897,114.84,0.00172988,0.217887,20.7788,127.536,-1.00625,0.0,0.0
5860,1464.75,48.0783,51.0663,146.977,102.966,114.661,0.00206137,0.218501,20.7781,127.245,-0.985831,0.0,0.0
5880,1469.75,48.3756,51.2655,146.467,103.029,114.751,0.00201458,0.218269,20.7769,126.955,-0.987361,0.0,0.0
5900,1474.75,48.9501,51.8006,142.778,103.084,114.974,0.00194598,0.218929,20.7758,126.705,-1.00028,0.0,0.0
5920,1479.75,49.0012,51.4041,142.222,103.131,113.966,0.00189086,0.218035,20.7784,126.395,-0.915421,0.0,0.0
5940,1484.75,48.9398,51.736,147.736,103.185,114.456,0.00199344,0.219843,20.7771,126.114,-0.949958,0.0,0.0
5960,1489.75,48.8013,51.2812,143.633,103.24,114.902,0.00199517,0.219952,20.7751,125.834,-0.980696,0.0,0.0
5980,1494.75,48.8849,51.464,143.539,103.302,115.812,0.00180899,0.220908,20.7737,125.524,-1.04748,0.0,0.0
6000,1499.75,49.0985,51.5276,143.575,103.365,116.294,0.00163826,0.223375,20.7709,125.233,-1.07994,0.0,0.0
6020,1504.75,48.8924,51.588,143.439,103.415,116.428,0.0018824,0.223218,20.7703,124.973,-1.08611,0.0,0.0
6040,1509.75,48.7528,51.5328,140.384,103.472,115.937,0.00195347,0.223334,20.7711,124.653,-1.04229,0.0,0.0
6060,1514.75,49.2658,52.0925,153.974,103.551,115.893,0.00186806,0.22407,20.7699,124.373,-1.03176,0.0,0.0
6080,1519.75,48.8249,51.9446,143.336,103.647,117.258,0.00189254,0.224369,20.7698,124.082,-1.1306,0.0,0.0
6100,1524.75,49.601,51.5347,145.742,103.708,115.643,0.0018103,0.223834,20.7698,123.782,-0.99812,0.0,0.0
6120,1529.75,49.4543,51.388,142.081,103.782,115.714,0.00187439,0.22319,20.7716,123.502,-0.99728,0.0,0.0
6140,1534.75,49.238,52.426,142.887,103.816,116.223,0.00168232,0.225433,20.7676,123.212,-1.03442,0.0,0.0
6160,1539.75,49.5621,52.2136,141.444,103.857,115.259,0.00174411,0.223261,20.7687,122.921,-0.954536,0.0,0.0
6180,1544.75,49.5472,52.0837,140.524,103.914,116.473,0.00202511,0.223577,20.7691,122.661,-1.04551,0.0,0.0
6200,1549.75,48.8846,51.5977,139.307,103.951,117.829,0.00195904,0.227885,20.765,122.311,-1.14832,0.0,0.0
6220,1554.75,49.1329,51.6726,143.796,103.962,116.963,0.00186595,0.22778,20.7652,122.051,-1.07976,0.0,0.0
6240,1559.75,49.8151,52.2833,143.933,103.974,115.607,0.00214052,0.22677,20.7663,121.77,-0.971888,0.0,0.0
6260,1564.75,49.5805,52.17,142.059,103.982,116.91,0.0021297,0.227299,20.7649,121.47,-1.07384,0.0,0.0
6280,1569.75,49.4149,52.3532,140.543,103.986,118.471,0.00190332,0.229638,20.7634,121.17,-1.195,0.0,0.0
6300,1574.75,49.5934,52.2834,140.452,104.003,116.134,0.00179567,0.229096,20.7635,120.859,-1.01093,0.0,0.0
6320,1579.75,49.1075,52.6473,137.31,104.025,117.133,0.00189343,0.229626,20.7633,120.569,-1.08753,0.0,0.0
6340,1584.75,49.8787,53.1247,144.18,104.053,116.856,0.00183231,0.229255,20.7639,120.249,-1.0634,0.0,0.0
6360,1589.75,50.099,52.9063,141.905,104.061,116.321,0.00171144,0.229687,20.7639,119.949,-1.02057,0.0,0.0
6380,1594.75,50.1957,52.7028,144.751,104.098,117.909,0.00172996,0.2294,20.7639,119.668,-1.14157,0.0,0.0
6400,1599.75,50.0311,52.626,140.519,104.111,117.57,0.00193687,0.230317,20.7621,119.408,-1.11407,0.0,0.0
6420,1604.75,50.1007,52.8814,142.978,104.148,116.615,0.00216758,0.229049,20.7624,119.088,-1.03611,0.0,0.0
6440,1609.75,49.9577,52.9645,140.39,104.147,117.829,0.00206524,0.23248,20.761,118.808,-1.13103,0.0,0.0
6460,1614.75,50.4262,53.4425,144.258,104.155,117.534,0.00180702,0.230948,20.7599,118.517,-1.10736,0.0,0.0
6480,1619.75,50.3383,53.4316,138.945,104.189,117.766,0.00160797,0.232062,20.7597,118.227,-1.12251,0.0,0.0
6500,1624.75,50.4468,53.2595,141.907,104.216,116.419,0.00179288,0.234182,20.7585,117.907,-1.01469,0.0,0.0
6520,1629.75,50.1935,52.8645,143.889,104.197,116.08,0.00200666,0.233661,20.7611,117.566,-0.989572,0.0,0.0
6540,1634.75,50.3868,53.0162,146.403,104.186,117.659,0.0020995,0.234645,20.7606,117.276,-1.11436,0.0,0.0
6560,1639.75,50.7899,53.1279,138.98,104.197,116.651,0.00191159,0.234433,20.76,116.946,-1.03457,0.0,0.0
6580,1644.75,50.6293,53.2378,141.42,104.209,116.499,0.00207853,0.236486,20.7581,116.626,-1.02164,0.0,0.0
6600,1649.75,50.6262,53.4795,142.931,104.24,118.078,0.00210343,0.237978,20.7552,116.375,-1.14225,0.0,0.0
6620,1654.75,50.6043,53.641,149.177,104.277,117.472,0.00173213,0.240402,20.7526,116.025,-1.0918,0.0,0.0
6640,1659.75,50.7139,53.777,139.586,104.288,119.747,0.00214591,0.242119,20.7502,115.705,-1.26663,0.0,0.0
6660,1664.75,51.0087,53.8749,142.124,104.314,118.846,0.00203001,0.243124,20.7478,115.415,-1.19507,0.0,0.0
6680,1669.75,51.072,54.0087,138.59,104.345,118.293,0.00196045,0.244968,20.7458,115.064,-1.14967,0.0,0.0
6700,1674.75,51.1108,54.0015,139.898,104.353,119.131,0.00205294,0.246427,20.7443,114.754,-1.21365,0.0,0.0
6720,1679.75,51.2699,54.1001,143.217,104.373,116.758,0.00211981,0.248378,20.7418,114.454,-1.02755,0.0,0.0
6740,1684.75,51.2268,54.4789,144.054,104.404,116.767,0.0020664,0.249935,20.7407,114.083,-1.02553,0.0,0.0
6760,1689.75,51.7553,54.7175,146.24,104.4,116.963,0.00209453,0.252459,20.7361,113.743,-1.04126,0.0,0.0
6780,1694.75,51.6821,54.7962,139.082,104.407,118.337,0.00186363,0.254721,20.7349,113.413,-1.14764,0.0,0.0
6800,1699.75,52.1561,54.9392,141.93,104.406,118.4,0.00184897,0.255894,20.7335,113.092,-1.15258,0.0,0.0
6820,1704.75,51.9771,55.0435,143.676,104.427,118.864,0.00186198,0.257737,20.7316,112.752,-1.18659,0.0,0.0
6840,1709.75,52.1208,55.2886,141.919,104.428,117.552,0.00196799,0.259039,20.7303,112.362,-1.08481,0.0,0.0
6860,1714.75,52.596,55.6879,140.824,104.415,119.604,0.00189299,0.263427,20.7265,112.011,-1.24451,0.0,0.0
6880,1719.75,53.116,55.4894,139.574,104.42,120.345,0.00185426,0.265667,20.7235,111.691,-1.30062,0.0,0.0
6900,1724.75,53.0256,55.6098,141.095,104.433,117.151,0.00162745,0.267463,20.7224,111.281,-1.05298,0.0,0.0
6920,1729.75,53.3571,56.165,138.195,104.44,118.346,0.00156783,0.269891,20.7194,110.89,-1.14542,0.0,0.0
6940,1734.75,53.1609,55.9523,140.191,104.45,117.909,0.00188209,0.27423,20.7146,110.51,-1.11068,0.0,0.0
6960,1739.75,53.8609,56.5634,139.314,104.468,119.078,0.00187977,0.277159,20.7105,110.11,-1.19946,0.0,0.0
6980,1744.75,53.3752,56.5039,140.373,104.473,119.372,0.00189557,0.280197,20.7062,109.739,-1.22165,0.0,0.0
7000,1749.75,53.5565,56.7703,140.354,104.482,119.149,0.00166646,0.284703,20.7027,109.379,-1.20372,0.0,0.0
7020,1754.75,54.2203,57.1886,140.47,104.493,119.345,0.00194611,0.284157,20.702,108.969,-1.2178,0.0,0.0
7040,1759.75,54.3003,57.5515,137.539,104.515,119.675,0.00195746,0.285013,20.7035,108.548,-1.24121,0.0,0.0
7060,1764.75,54.4065,57.6369,140.337,104.522,117.695,0.0019874,0.286055,20.7003,108.168,-1.08769,0.0,0.0
7080,1769.75,54.9898,57.9156,140.437,104.52,117.026,0.00211694,0.287066,20.6966,107.788,-1.03563,0.0,0.0
7100,1774.75,54.6957,57.7087,138.274,104.511,118.89,0.00224102,0.286201,20.6971,107.377,-1.18127,0.0,0.0
7120,1779.75,54.6652,58.5099,136.298,104.49,119.399,0.001957,0.28572,20.6987,106.957,-1.22221,0.0,0.0
7140,1784.75,55.1433,58.2529,138.874,104.462,118.248,0.00195373,0.285961,20.6975,106.567,-1.13591,0.0,0.0
7160,1789.75,55.0396,58.0964,140.067,104.45,119.435,0.00189464,0.287855,20.6949,106.186,-1.22845,0.0,0.0
7180,1794.75,55.0115,58.7295,140.704,104.416,116.812,0.00236069,0.288082,20.693,105.776,-1.02799,0.0,0.0
7200,1799.75,55.5333,58.6971,137.334,104.39,119.765,0.00235577,0.286788,20.6944,105.436,-1.259,0.0,0.0
7220,1804.75,55.294,58.5196,139.613,104.351,117.418,0.00229168,0.286823,20.6951,105.025,-1.08109,0.0,0.0
7240,1809.75,55.257,58.9021,137.765,104.322,117.472,0.0021521,0.287964,20.6949,104.675,-1.08784,0.0,0.0
7260,1814.75,55.4736,59.5234,138.457,104.277,121.487,0.00203048,0.286432,20.6975,104.234,-1.3997,0.0,0.0
7280,1819.75,55.4247,58.9547,140.924,104.239,116.606,0.00215402,0.288383,20.6958,103.864,-1.02737,0.0,0.0
7300,1824.75,55.2707,58.8628,138.164,104.209,118.293,0.0022343,0.288007,20.695,103.454,-1.16162,0.0,0.0
7320,1829.75,55.3569,58.9945,136.496,104.19,118.444,0.00219378,0.283851,20.6991,103.093,-1.17497,0.0,0.0
7340,1834.75,55.4542,58.9242,138.634,104.155,117.481,0.00228179,0.283962,20.6984,102.723,-1.10326,0.0,0.0
7360,1839.75,54.9971,58.869,140.814,104.101,118.043,0.00228006,0.286603,20.6973,102.273,-1.15175,0.0,0.0
7380,1844.75,55.2774,58.818,137.529,104.057,116.713,0.00222286,0.283381,20.699,101.962,-1.05182,0.0,0.0
7400,1849.75,55.5429,59.0786,144.683,104.01,117.73,0.00234424,0.283783,20.6994,101.592,-1.13541,0.0,0.0
7420,1854.75,55.1922,59.1069,136.554,103.98,119.354,0.00233357,0.282347,20.6993,101.222,-1.26359,0.0,0.0
7440,1859.75,55.3994,58.9872,138.414,103.965,117.338,0.00202133,0.28409,20.6962,100.831,-1.10885,0.0,0.0
7460,1864.75,55.6573,59.1311,141.279,103.962,116.767,0.00218216,0.284753,20.6951,100.461,-1.06437,0.0,0.0
7480,1869.75,55.5654,59.063,142.442,103.964,120.246,0.00235981,0.287484,20.6901,100.071,-1.33325,0.0,0.0
7500,1874.75,55.7264,59.7844,137.426,103.971,117.668,0.00245117,0.286411,20.6905,99.7103,-1.13407,0.0,0.0
7520,1879.75,56.241,59.3577,138.993,103.962,118.605,0.00233554,0.288457,20.6882,99.34,-1.20752,0.0,0.0
7540,1884.75,55.5298,59.5791,141.898,103.976,117.98,0.0021469,0.287236,20.6871,98.9496,-1.1579,0.0,0.0
7560,1889.75,55.8073,59.5208,138.282,103.953,117.918,0.00222915,0.289106,20.6873,98.5793,-1.15507,0.0,0.0
7580,1894.75,55.2619,59.2072,136.359,103.954,118.364,0.00255421,0.288433,20.6876,98.229,-1.18956,0.0,0.0
7600,1899.75,56.0397,59.4159,138.916,103.952,119.015,0.00261288,0.29015,20.685,97.8286,-1.24003,0.0,0.0
7620,1904.75,55.7955,59.4456,141.276,103.953,117.035,0.00241626,0.28817,20.6885,97.4983,-1.08614,0.0,0.0
7640,1909.75,55.6187,59.4093,140.499,103.949,119.667,0.00238939,0.287959,20.6888,97.098,-1.29026,0.0,0.0
7660,1914.75,55.9193,59.4367,135.511,103.994,119.336,0.00243878,0.290427,20.6862,96.7677,-1.26098,0.0,0.0
7680,1919.75,56.0349,59.3051,137.168,104.021,119.515,0.00276343,0.290998,20.6846,96.3873,-1.27235,0.0,0.0
7700,1924.75,56.1433,59.2839,138.671,104.096,116.99,0.00270538,0.289135,20.6869,96.057,-1.07007,0.0,0.0
7720,1929.75,56.153,59.3273,140.367,104.14,120.014,0.00286938,0.290472,20.6838,95.6667,-1.3001,0.0,0.0
7740,1934.75,56.077,59.6608,135.998,104.184,118.765,0.00287672,0.293636,20.678,95.3063,-1.20034,0.0,0.0
7760,1939.75,56.1869,59.6512,139.296,104.231,119.363,0.0029835,0.293259,20.6773,94.916,-1.2422,0.0,0.0
7780,1944.75,56.4381,59.8108,141.128,104.25,117.418,0.00296228,0.293178,20.6776,94.5657,-1.09001,0.0,0.0
7800,1949.75,56.3098,59.9002,136.75,104.282,120.71,0.0030835,0.291971,20.6782,94.1853,-1.34059,0.0,0.0
7820,1954.75,56.0827,59.5751,137.632,104.301,115.259,0.0033829,0.293405,20.676,93.835,-0.915468,0.0,0.0
7840,1959.75,56.3321,59.9035,135.466,104.338,118.525,0.00314154,0.295212,20.6758,93.4647,-1.16818,0.0,0.0
7860,1964.75,56.3734,59.7843,135.741,104.362,116.82,0.00299151,0.29223,20.6788,93.1143,-1.03335,0.0,0.0
7880,1969.75,56.3541,59.9593,144.35,104.376,117.222,0.00290097,0.291782,20.6778,92.754,-1.06359,0.0,0.0
7900,1974.75,56.2848,59.8813,138.176,104.392,115.598,0.0028102,0.293763,20.6742,92.4137,-0.934358,0.0,0.0
7920,1979.75,56.3711,60.1997,140.195,104.402,117.49,0.00309564,0.295119,20.672,92.0434,-1.08222,0.0,0.0
7940,1984.75,56.2857,60.0262,137.755,104.424,116.473,0.00315732,0.295945,20.6691,91.6831,-1.00064,0.0,0.0
7960,1989.75,56.8408,60.3067,140.711,104.453,117.98,0.0029973,0.291411,20.6724,91.3628,-1.11593,0.0,0.0
7980,1994.75,56.6279,59.7396,138.129,104.472,116.981,0.00315791,0.285354,20.6783,91.0024,-1.03635,0.0,0.0
8000,1999.75,56.6138,60.0378,139.887,104.491,116.232,0.00331792,0.27736,20.6871,90.6922,-0.975744,0.0,0.0
8020,2004.75,56.0019,59.4236,139.732,104.53,116.49,0.00330071,0.270216,20.6964,90.3819,-0.992728,0.0,0.0
8040,2009.75,56.2121,60.113,143.046,104.551,117.133,0.00331367,0.262318,20.7062,90.1016,-1.04129,0.0,0.0
8060,2014.75,55.9386,59.5589,140.451,104.58,115.143,0.00337819,0.252938,20.7155,89.8214,-0.881705,0.0,0.0
8080,2019.75,55.6934,59.1141,145.216,104.6,116.267,0.00335534,0.24621,20.7259,89.5812,-0.96902,0.0,0.0
8100,2024.75,55.0009,58.6377,144.19,104.615,116.33,0.00385052,0.237147,20.7373,89.3309,-0.972638,0.0,0.0
8120,2029.75,54.3475,58.1506,138.569,104.622,117.133,0.00368692,0.230661,20.7446,89.0907,-1.03507,0.0,0.0
8140,2034.75,54.924,57.7176,144.339,104.634,118.632,0.00370962,0.224355,20.7516,88.8505,-1.15047,0.0,0.0
8160,2039.75,54.0105,56.9851,144.243,104.628,117.704,0.00372659,0.219107,20.7579,88.6603,-1.07908,0.0,0.0
8180,2044.75,52.6758,56.2844,145.708,104.648,116.758,0.00401018,0.213492,20.7607,88.4902,-1.00341,0.0,0.0
8200,2049.75,52.4996,56.0341,147.349,104.654,116.401,0.00397906,0.205795,20.7695,88.3,-0.974871,0.0,0.0
8220,2054.75,52.3182,55.7878,147.069,104.623,116.972,0.00382622,0.199351,20.7779,88.1499,-1.02239,0.0,0.0
8240,2059.75,51.8574,54.9727,142.055,104.62,117.142,0.00407445,0.196825,20.7815,87.9497,-1.03592,0.0,0.0
8260,2064.75,51.5885,54.4889,141.45,104.611,117.365,0.00418285,0.189051,20.7896,87.7995,-1.05413,0.0,0.0
8280,2069.75,50.4356,54.4211,147.563,104.603,116.383,0.00408073,0.185573,20.7968,87.6494,-0.977896,0.0,0.0
8300,2074.75,50.3815,53.5128,145.392,104.592,117.481,0.00407586,0.182378,20.8008,87.5093,-1.06486,0.0,0.0
8320,2079.75,49.3361,52.8192,147.922,104.569,116.812,0.00485165,0.179131,20.8046,87.3892,-1.01449,0.0,0.0
8340,2084.75,49.0903,52.2004,144.261,104.56,115.973,0.00512466,0.174613,20.8093,87.219,-0.949325,0.0,0.0
8360,2089.75,48.8624,51.7958,142.893,104.541,117.106,0.00505876,0.17202,20.8135,87.1089,-1.04002,0.0,0.0
8380,2094.75,48.0807,51.323,147.318,104.549,116.134,0.00527654,0.169663,20.8179,86.9588,-0.962974,0.0,0.0
8400,2099.75,47.851,50.9094,142.668,104.528,116.517,0.00511487,0.166599,20.8207,86.8587,-0.994982,0.0,0.0
8420,2104.75,47.597,50.4417,144.339,104.517,116.383,0.00535071,0.162753,20.8249,86.7286,-0.98542,0.0,0.0
8440,2109.75,46.9215,49.7629,145.364,104.523,115,0.00537102,0.159545,20.8283,86.6685,-0.875404,0.0,0.0
8460,2114.75,46.5074,49.1479,144.706,104.495,113.903,0.00527324,0.157511,20.8306,86.5484,-0.789967,0.0,0.0
8480,2119.75,46.6493,49.1527,145.944,104.489,114.599,0.00534654,0.156171,20.8326,86.4583,-0.846302,0.0,0.0
8500,2124.75,46.0714,49.1319,146.794,104.477,114.153,0.0056931,0.15482,20.8348,86.3482,-0.811645,0.0,0.0
8520,2129.75,45.2672,48.051,147.778,104.46,116.553,0.00614721,0.153481,20.8371,86.2682,-1.00375,0.0,0.0
8540,2134.75,45.4416,48.1484,147.305,104.461,115.054,0.00603196,0.152388,20.837,86.148,-0.885036,0.0,0.0
8560,2139.75,45.104,47.6694,145.206,104.456,113.867,0.00615866,0.151705,20.8374,86.078,-0.790525,0.0,0.0
8580,2144.75,44.2544,47.0758,149.718,104.455,114.902,0.00640519,0.151875,20.8372,85.9879,-0.873508,0.0,0.0
8600,2149.75,44.539,46.7122,145.365,104.473,115,0.00676427,0.151398,20.8383,85.8978,-0.879765,0.0,0.0
8620,2154.75,44.4555,46.4999,142.766,104.496,113.644,0.00686773,0.150377,20.8388,85.7877,-0.769017,0.0,0.0
8640,2159.75,44.3927,46.4861,147.086,104.544,113.93,0.00691694,0.148522,20.8395,85.7577,-0.787797,0.0,0.0
8660,2164.75,43.819,45.9816,147.286,104.569,115.768,0.00696599,0.149253,20.8399,85.6676,-0.932314,0.0,0.0
8680,2169.75,43.8465,46.0641,145.807,104.601,115.473,0.00696428,0.148488,20.8409,85.5975,-0.906114,0.0,0.0
8700,2174.75,43.8283,45.6217,148.089,104.619,114.679,0.00690547,0.146003,20.8439,85.5175,-0.841322,0.0,0.0
8720,2179.75,43.7247,45.6653,146.735,104.605,114.84,0.00713087,0.144823,20.8448,85.3473,-0.855373,0.0,0.0
8740,2184.75,43.1251,45.0545,148.114,104.573,115.563,0.00744811,0.145368,20.8457,85.3773,-0.915686,0.0,0.0
8760,2189.75,42.9566,44.7821,144.222,104.495,114.653,0.00746732,0.14505,20.8478,85.2672,-0.850022,0.0,0.0
8780,2194.75,43.0444,45.0022,143.299,104.348,113.198,0.0077494,0.145734,20.8473,85.2272,-0.745957,0.0,0.0
8800,2199.75,43.3981,44.8196,144.886,104.145,115.786,0.00776483,0.145978,20.8471,85.1471,-0.970899,0.0,0.0
8820,2204.75,43.2099,45.04,151.982,103.88,114.76,0.00777849,0.145847,20.8466,85.047,-0.912743,0.0,0.0
8840,2209.75,43.5299,44.9261,142.982,103.568,114.135,0.00801881,0.145127,20.848,84.9269,-0.890225,0.0,0.0
8860,2214.75,43.3624,45.3867,140.247,103.278,113.528,0.00796584,0.143536,20.8494,84.8569,-0.867108,0.0,0.0
8880,2219.75,42.6227,44.5499,147.328,102.97,114.938,0.00758235,0.142709,20.8496,84.7868,-1.0076,0.0,0.0
8900,2224.75,43.0925,44.8928,144.726,102.716,113.903,0.0075328,0.143305,20.8496,84.7167,-0.947331,0.0,0.0
8920,2229.75,43.2921,44.7165,145.822,102.618,112.315,0.00757913,0.140264,20.8548,84.5966,-0.827437,0.0,0.0
8940,2234.75,42.8011,44.4074,150.969,102.711,111.334,0.00810843,0.140495,20.8551,84.4665,-0.738709,0.0,0.0
8960,2239.75,42.303,44.1905,150.101,102.993,112.556,0.00848944,0.142741,20.8537,84.4865,-0.813654,0.0,0.0
8980,2244.75,42.7045,44.8071,143.639,103.378,114.01,0.00820965,0.141354,20.8548,84.3564,-0.897054,0.0,0.0
9000,2249.75,42.2964,44.3384,147.377,103.747,112.832,0.00813673,0.141228,20.8541,84.3264,-0.769265,0.0,0.0
9020,2254.75,42.0375,43.9471,150.091,103.931,115.554,0.00758062,0.138834,20.8549,84.2663,-0.971428,0.0,0.0
9040,2259.75,42.0501,43.8394,142.952,103.925,115.286,0.00741213,0.139908,20.8541,84.1863,-0.950628,0.0,0.0
9060,2264.75,41.9056,43.8882,151.706,103.725,114.313,0.00737143,0.137306,20.8588,84.0762,-0.890673,0.0,0.0
9080,2269.75,41.9556,43.4837,151.565,103.494,114.501,0.00755996,0.137503,20.8587,84.0161,-0.926129,0.0,0.0
9100,2274.75,41.3109,43.2053,149.66,103.338,112.377,0.00762964,0.13831,20.8571,83.936,-0.768424,0.0,0.0
9120,2279.75,41.9224,43.4344,147.844,103.969,114.635,0.00769414,0.139452,20.8568,83.886,-0.894856,0.0,0.0
9140,2284.75,41.584,43.612,144.852,104.243,114.528,0.00774038,0.139381,20.8568,83.8059,-0.862163,0.0,0.0
9160,2289.75,41.3047,43.5541,144.402,104.091,114.117,0.00772762,0.140366,20.8538,83.7359,-0.842653,0.0,0.0
9180,2294.75,41.6121,43.0082,145.38,103.781,113.867,0.0079022,0.138877,20.8561,83.6258,-0.849965,0.0,0.0
9200,2299.75,41.5934,43.0774,147.512,104.11,114.242,0.00815553,0.138695,20.8548,83.5457,-0.851069,0.0,0.0
9220,2304.75,41.0842,43.4247,145.761,104.458,114.09,0.00794409,0.138886,20.8545,83.4856,-0.808308,0.0,0.0
9240,2309.75,40.9915,42.6694,147.873,104.638,115.75,0.00776066,0.138091,20.8555,83.3855,-0.924833,0.0,0.0
9260,2314.75,41.0323,42.8948,146.642,104.504,114.492,0.00767567,0.13702,20.8551,83.3055,-0.836433,0.0,0.0
9280,2319.75,40.9775,43.0942,153.558,104.043,114.974,0.00801136,0.13895,20.8543,83.2654,-0.915437,0.0,0.0
9300,2324.75,41.1874,43.0422,145.651,103.416,112.957,0.00793407,0.138573,20.855,83.1854,-0.808695,0.0,0.0
9320,2329.75,40.3941,42.3638,144.633,102.865,112.886,0.0080451,0.13819,20.8551,83.0853,-0.851804,0.0,0.0
9340,2334.75,41.0469,42.5093,145.319,102.669,111.039,0.0081433,0.139062,20.8551,83.0152,-0.718199,0.0,0.0
9360,2339.75,40.6396,42.8101,153.896,102.932,112.012,0.00801839,0.137945,20.8551,82.9752,-0.77465,0.0,0.0
9380,2344.75,40.9088,42.3402,144.904,103.413,113.047,0.00788678,0.13836,20.8551,82.9051,-0.816155,0.0,0.0
9400,2349.75,40.8463,42.4324,146.636,103.836,112.699,0.00803035,0.138652,20.8551,82.805,-0.750548,0.0,0.0
9420,2354.75,40.7139,42.6464,145.049,103.992,113.974,0.00808041,0.138869,20.8551,82.755,-0.839906,0.0,0.0
9440,2359.75,40.4608,42.5587,145.914,103.781,113.403,0.00789066,0.1388,20.8565,82.6949,-0.812479,0.0,0.0
9460,2364.75,40.205,42.4818,146.395,103.45,112.493,,,,82.5948,-0.767931,0.0,0.0
9480,2369.75,40.7425,42.7196,152.335,103.7,113.386,,,,82.5147,-0.818208,0.0,0.0
9490,2372.25,40.0979,41.9629,145.338,104.045,114.162,,,,82.4647,-0.850277,0.0,0.0