File: 01_Data/Wood_Stud/Cone/Wood_Stud_Cone_HF50Scan_221004_R1.csv
Names,Time,Stack TC,Smoke TC,Exh Press,Smoke Comp,Smoke Meas,CO Meter,CO2 Meter,O2 Meter,Sample Mass,Ext Coeff,Start Test,Flame Verif
Chan Gain,,500,500,1,1,1,1,1,1,1,1,1.0,1.0
Offset,,0,0,0.136221,0,0,0,0,0,0,0,0.0,0.0
Gain,,1,1,25.011,13.9274,292.346,1,1,1,1.00091,1.04463,1.0,1.0
Units,sec,C,C,Pa,%,%,%,%,%,g,/m,,
Baseline,,30.153,31.7804,153.091,103.732,108.619,0.001052,0.0623634,20.9559,-442.871,-0.421729,,
22,5.25,28.5622,30.5386,153.172,103.096,109.46,0.000942029,0.0671986,20.9505,249.876,-0.548863,0.0,0.0
44,10.75,29.2598,30.62,151.919,103.976,109.407,0.00095921,0.0709649,20.9453,249.706,-0.466513,0.0,0.0
66,16.25,29.2939,31.1456,152.574,103.561,106.677,0.00161487,0.0749639,20.9394,249.446,-0.271626,0.0,0.0
88,21.75,31.7521,32.6815,130.394,103.981,121.54,0.00351907,0.322026,20.6644,248.555,-1.42981,0.0,1.0
110,27.25,39.1554,38.8213,130.055,104.378,121.442,0.00502294,0.591133,20.3452,247.474,-1.38753,0.0,0.0
132,32.75,43.8965,43.8504,139.182,103.925,117.052,0.00520267,0.535664,20.3997,246.633,-1.08997,0.0,0.0
154,38.25,46.6781,47.4175,138.132,102.963,113.627,0.00535712,0.467886,20.4758,245.803,-0.90305,0.0,0.0
176,43.75,48.7832,49.8084,129.464,102.393,116.963,0.00476007,0.42309,20.5289,245.052,-1.21913,0.0,0.0
198,49.25,49.4802,52.3649,140.781,102.621,116.499,0.00415464,0.40153,20.5583,244.361,-1.16235,0.0,0.0
220,54.75,50.9143,53.2518,145.715,103.289,115.134,0.00397595,0.38197,20.5838,243.651,-0.994839,0.0,0.0
242,60.25,51.6745,54.4078,141.237,103.668,117.097,0.0039642,0.365849,20.6022,243,-1.11616,0.0,0.0
264,65.75,52.1297,54.9183,136.842,103.583,116.847,0.00374248,0.355055,20.6139,242.37,-1.10411,0.0,0.0
286,71.25,52.8343,56.2997,139.298,103.234,116.687,0.00330776,0.347708,20.6232,241.729,-1.12243,0.0,0.0
308,76.75,52.8617,56.4711,139.384,103.347,116.25,0.00308041,0.338159,20.6365,241.138,-1.07801,0.0,0.0
330,82.25,53.0442,57.1056,139.868,103.931,117.463,0.00290366,0.322733,20.6558,240.578,-1.12152,0.0,0.0
352,87.75,52.71,57.5379,140.72,103.861,119.542,0.00277318,0.314515,20.6641,240.007,-1.28845,0.0,0.0
374,93.25,52.8566,57.1598,136.946,103.503,117.293,0.00277968,0.306168,20.6754,239.487,-1.14618,0.0,0.0
396,98.75,52.7718,57.2521,137.537,103.795,117.632,0.00293157,0.299803,20.6834,238.966,-1.14673,0.0,0.0
418,104.25,52.2768,57.2812,142.678,104.144,117.507,0.00240799,0.295311,20.6898,238.446,-1.10628,0.0,0.0
440,109.75,52.4368,57.3729,143.061,104.343,118.337,0.00265571,0.291561,20.694,237.956,-1.15327,0.0,0.0
462,115.25,52.1852,56.9479,138.071,104.316,118.685,0.00258752,0.286429,20.6975,237.425,-1.18256,0.0,0.0
484,120.75,51.8038,57.2896,141.247,104.1,119.247,0.00233266,0.282649,20.7013,236.945,-1.24481,0.0,0.0
506,126.25,51.6355,56.9996,139.353,103.698,119.167,0.00223185,0.277925,20.7078,236.424,-1.27409,0.0,0.0
528,131.75,51.403,56.8296,145.5,103.251,117.713,0.0023035,0.275936,20.7115,236.004,-1.20118,0.0,0.0
550,137.25,51.2617,56.4397,142.792,102.814,116.481,0.00211616,0.274759,20.7136,235.533,-1.14373,0.0,0.0
572,142.75,51.4685,56.7771,143.746,102.527,115.464,0.00188065,0.271856,20.717,235.043,-1.08893,0.0,0.0
594,148.25,50.8254,56.1577,142.441,102.398,116.258,0.00199895,0.271872,20.7157,234.583,-1.16329,0.0,0.0
616,153.75,51.3196,56.1676,141.279,102.411,114.929,0.00215598,0.270497,20.7162,234.112,-1.05677,0.0,0.0
638,159.25,50.7056,56.3333,147.779,102.537,115.696,0.00257374,0.268093,20.7185,233.642,-1.10641,0.0,0.0
660,164.75,51.0794,55.819,143.013,102.707,117.918,0.00223767,0.267774,20.7182,233.191,-1.26551,0.0,0.0
682,170.25,51.0306,55.7011,141.295,102.954,116.865,0.00207507,0.263997,20.7228,232.751,-1.16137,0.0,0.0
704,175.75,51.1715,55.6648,140.337,103.16,119.024,0.00213562,0.261351,20.7264,232.29,-1.31075,0.0,0.0
726,181.25,50.5645,54.9872,141.895,103.347,118.266,0.00210225,0.260968,20.7281,231.87,-1.23562,0.0,0.0
748,186.75,50.516,55.017,141.347,103.489,118.07,0.00215217,0.258639,20.7312,231.46,-1.20786,0.0,0.0
770,192.25,50.3589,55.1094,140.695,103.589,117.499,0.00193839,0.256211,20.7339,231.039,-1.15452,0.0,0.0
792,197.75,50.0517,54.8813,140.215,103.691,118.614,0.00177769,0.250093,20.7407,230.599,-1.2321,0.0,0.0
814,203.25,48.881,54.7171,144.021,103.697,119.568,0.00199278,0.249725,20.742,230.209,-1.30499,0.0,0.0
836,208.75,50.1592,54.4606,143.191,103.663,119.238,0.00188003,0.250944,20.74,229.788,-1.2827,0.0,0.0
858,214.25,49.8226,54.2812,143.398,103.602,120.059,0.00211457,0.249742,20.7412,229.348,-1.35094,0.0,0.0
880,219.75,49.7252,53.9871,143.546,103.496,118.605,0.00184794,0.249921,20.7415,228.927,-1.24867,0.0,0.0
902,225.25,50.1183,53.8902,138.738,103.416,118.159,0.00181762,0.251689,20.7394,228.487,-1.22122,0.0,0.0
924,230.75,49.2853,53.2805,141.615,103.305,118.533,0.00194452,0.252463,20.7355,228.097,-1.26003,0.0,0.0
946,236.25,49.9589,54.013,139.341,103.255,118.846,0.00182343,0.254263,20.7332,227.686,-1.28858,0.0,0.0
968,241.75,49.7567,54.1358,139.361,103.189,118.177,0.00171794,0.255484,20.7329,227.246,-1.24269,0.0,0.0
990,247.25,50.0595,53.5764,141.751,103.134,118.667,0.00176558,0.254187,20.7329,226.855,-1.28553,0.0,0.0
1012,252.75,49.66,53.6573,140.865,103.094,117.73,0.00189805,0.255339,20.7316,226.435,-1.2165,0.0,0.0
1034,258.25,50.2225,53.8704,143.048,103.067,118.025,0.00172966,0.253777,20.7354,225.985,-1.2418,0.0,0.0
1056,263.75,49.9893,53.9003,140.49,103.083,117.507,0.00200009,0.251348,20.7394,225.594,-1.20007,0.0,0.0
1078,269.25,49.935,53.6971,147.055,103.244,117.418,0.001994,0.249911,20.7407,225.184,-1.17884,0.0,0.0
1100,274.75,49.7468,53.592,144.258,103.433,118.703,0.00165857,0.247355,20.7434,224.804,-1.26182,0.0,0.0
1122,280.25,49.7754,53.7519,141.86,103.548,118.034,0.00172733,0.246263,20.7464,224.403,-1.19986,0.0,0.0
1144,285.75,50.1858,53.143,140.368,103.688,117.829,0.00222699,0.243169,20.7498,224.003,-1.17147,0.0,0.0
1166,291.25,49.6282,53.05,141.695,103.754,118.105,0.00204973,0.242339,20.7529,223.603,-1.18713,0.0,0.0
1188,296.75,49.6604,53.7094,139.489,103.812,118.114,0.00198075,0.240762,20.7527,223.212,-1.18276,0.0,0.0
1210,302.25,49.1378,53.6618,146.312,103.895,117.971,0.00176735,0.241526,20.7496,222.822,-1.16429,0.0,0.0
1232,307.75,49.5565,53.0332,146.447,103.911,116.901,0.00185241,0.241273,20.7498,222.421,-1.07933,0.0,0.0
1254,313.25,48.9247,53.2915,142.52,103.94,117.838,0.00199618,0.242155,20.7511,222.011,-1.14995,0.0,0.0
1276,318.75,49.3988,53.2227,145.511,103.934,118.864,0.00197981,0.242785,20.7494,221.611,-1.22988,0.0,0.0
1298,324.25,49.864,52.8544,140.215,103.942,118.89,0.00201723,0.244505,20.7494,221.23,-1.23123,0.0,0.0
1320,329.75,49.7216,52.5482,141.958,103.947,120.246,0.00194613,0.244635,20.75,220.8,-1.33479,0.0,0.0
1342,335.25,49.0853,53.0561,140.028,103.942,118.89,0.00165228,0.243684,20.7511,220.4,-1.23131,0.0,0.0
1364,340.75,49.0526,52.7076,143.298,103.942,119.131,0.00158056,0.243601,20.7507,219.989,-1.24985,0.0,0.0
1386,346.25,49.2143,52.9014,140.399,103.934,119.542,0.00162406,0.243745,20.75,219.619,-1.28204,0.0,0.0
1408,351.75,49.5242,53.2622,142.817,103.934,117.918,0.00185349,0.243933,20.7502,219.219,-1.15668,0.0,0.0
1430,357.25,49.3872,52.9027,142.665,103.915,120.353,0.00193868,0.242443,20.752,218.808,-1.34575,0.0,0.0
1452,362.75,49.3789,53.4198,140.608,103.921,118.694,0.00207822,0.24214,20.7508,218.418,-1.218,0.0,0.0
1474,368.25,49.6388,52.8644,144.796,103.912,118.141,0.00198888,0.241038,20.7521,218.048,-1.17599,0.0,0.0
1496,373.75,49.8646,52.6735,140.074,103.909,118.355,0.00204219,0.240786,20.7517,217.627,-1.1928,0.0,0.0
1518,379.25,49.5479,52.8072,144.364,103.911,117.552,0.00188919,0.239824,20.7537,217.227,-1.13024,0.0,0.0
1540,384.75,49.6336,52.6423,141.924,103.909,118.774,0.00173458,0.239172,20.7558,216.856,-1.22525,0.0,0.0
1562,390.25,49.2275,52.9973,142.103,103.92,117.409,0.00184185,0.238889,20.7563,216.466,-1.11839,0.0,0.0
1584,395.75,49.8623,52.8615,142.126,103.922,119.435,0.00196256,0.238663,20.7559,216.096,-1.27488,0.0,0.0
1606,401.25,49.4351,53.0347,142.527,103.947,117.686,0.00207963,0.237853,20.7556,215.685,-1.13752,0.0,0.0
1628,406.75,49.3728,53.1806,143.911,103.946,119.238,0.00169115,0.239861,20.7525,215.315,-1.25771,0.0,0.0
1650,412.25,49.6743,52.8394,140.517,103.945,119.176,0.00159821,0.239974,20.7524,214.925,-1.25295,0.0,0.0
1672,417.75,49.181,53.1694,142.047,103.94,118.248,0.00173754,0.239096,20.7553,214.554,-1.18181,0.0,0.0
1694,423.25,49.575,53.1285,139.471,103.909,118.31,0.00176767,0.239962,20.7539,214.134,-1.18939,0.0,0.0
1716,428.75,49.1375,53.2145,141.892,103.88,119.916,0.00176729,0.241953,20.7523,213.744,-1.31548,0.0,0.0
1738,434.25,49.7834,53.3143,143.179,103.843,118.07,0.00185939,0.241584,20.7536,213.363,-1.17656,0.0,0.0
1760,439.75,49.9679,52.9155,137.535,103.838,119.06,0.0019109,0.240515,20.754,212.993,-1.25347,0.0,0.0
1782,445.25,50.1946,52.8479,144.643,103.782,118.587,0.00207292,0.240978,20.7536,212.573,-1.222,0.0,0.0
1804,450.75,50.1411,53.1309,138.553,103.765,119.667,0.00174591,0.239973,20.7532,212.172,-1.30654,0.0,0.0
1826,456.25,49.8693,53.4163,144.237,103.76,118.569,0.00182849,0.239619,20.7535,211.822,-1.22253,0.0,0.0
1848,461.75,49.1318,53.2812,142.839,103.718,118.899,0.00192669,0.238658,20.7546,211.422,-1.25176,0.0,0.0
1870,467.25,49.7995,53.3643,144.8,103.709,118.07,0.00178656,0.236951,20.7574,211.021,-1.18838,0.0,0.0
1892,472.75,50.0448,53.3346,143.386,103.693,117.695,0.0017436,0.235308,20.7597,210.651,-1.16064,0.0,0.0
1914,478.25,49.7242,53.0929,140.031,103.699,117.748,0.00195642,0.236058,20.7583,210.291,-1.16428,0.0,0.0
1936,483.75,49.7624,53.4055,142.536,103.718,118.89,0.00212844,0.234608,20.7576,209.91,-1.251,0.0,0.0
1958,489.25,49.4688,52.7477,139.973,103.719,120.398,0.00186829,0.235423,20.757,209.52,-1.3664,0.0,0.0
1980,494.75,50.011,53.1118,143.993,103.75,118.186,0.00157738,0.236338,20.757,209.159,-1.1937,0.0,0.0
2002,500.25,49.6948,53.0767,140.797,103.746,119.631,0.00178746,0.233483,20.7588,208.769,-1.30549,0.0,0.0
2024,505.75,49.6744,53.4179,140.841,103.778,118.257,0.00191035,0.234197,20.7592,208.369,-1.19679,0.0,0.0
2046,511.25,49.6488,53.2301,141.74,103.778,120.032,0.00186202,0.232267,20.7593,207.998,-1.3333,0.0,0.0
2068,516.75,49.7732,52.8583,141.034,103.809,118.819,0.00181536,0.232831,20.7597,207.658,-1.23754,0.0,0.0
2090,522.25,49.6462,52.8983,145.958,103.848,117.4,0.00198414,0.231919,20.7614,207.288,-1.12399,0.0,0.0
2112,527.75,50.0605,52.9768,145.156,103.859,118.489,0.00200994,0.232765,20.7601,206.907,-1.20762,0.0,0.0
2134,533.25,50.0995,52.3144,144.357,103.894,117.088,0.00209278,0.232747,20.7614,206.537,-1.0955,0.0,0.0
2156,538.75,49.7894,52.5836,142.787,103.902,119.051,0.00212551,0.232365,20.761,206.137,-1.24716,0.0,0.0
2178,544.25,49.4667,53.0675,144.545,103.924,118.4,0.00211603,0.232498,20.761,205.806,-1.19498,0.0,0.0
2200,549.75,49.6723,52.6542,139.579,103.937,119.515,0.00187362,0.231635,20.7628,205.426,-1.27977,0.0,0.0
2222,555.25,49.6211,52.6667,141.301,103.923,117.409,0.00226275,0.232149,20.7621,205.106,-1.11809,0.0,0.0
2244,560.75,49.7936,52.9245,142.334,103.942,118.792,0.00224746,0.233265,20.761,204.715,-1.2237,0.0,0.0
2266,566.25,49.9587,52.884,145.691,103.928,117.516,0.00231324,0.232778,20.7616,204.325,-1.12599,0.0,0.0
2288,571.75,49.6558,52.6571,138.445,103.945,119.238,0.0021431,0.230746,20.7636,203.965,-1.25782,0.0,0.0
2310,577.25,49.5161,53.0092,143.845,103.943,118.177,0.00185265,0.231867,20.7626,203.594,-1.17598,0.0,0.0
2332,582.75,49.1709,52.8596,143.102,103.947,118.016,0.00195409,0.230237,20.7635,203.204,-1.16318,0.0,0.0
2354,588.25,49.9379,51.9656,142.432,103.942,118.293,0.00227414,0.229585,20.7648,202.854,-1.18508,0.0,0.0
2376,593.75,49.0406,52.3295,145.4,103.941,117.525,0.00222221,0.228899,20.7654,202.483,-1.12553,0.0,0.0
2398,599.25,49.7135,52.5242,142.137,103.945,118.694,0.00174175,0.229005,20.7658,202.133,-1.21587,0.0,0.0
2420,604.75,49.2636,52.4176,144.235,103.918,116.99,0.00178816,0.226998,20.7689,201.753,-1.08576,0.0,0.0
2442,610.25,49.3447,52.1295,142.23,103.921,117.704,0.0018963,0.226067,20.7696,201.402,-1.14119,0.0,0.0
2464,615.75,48.9543,52.3231,140.414,103.9,117.82,0.00207006,0.224938,20.7713,201.052,-1.15213,0.0,0.0
2486,621.25,49.2125,52.0137,143.381,103.896,119.345,0.00237437,0.225515,20.7694,200.682,-1.27036,0.0,0.0
2508,626.75,49.0643,52.3103,144.953,103.843,117.588,0.00223637,0.227793,20.7653,200.321,-1.13909,0.0,0.0
2530,632.25,48.8633,52.284,145.367,103.824,117.052,0.00201443,0.226952,20.7663,199.961,-1.0989,0.0,0.0
2552,637.75,49.2802,52.1329,141.956,103.803,117.606,0.00191338,0.225787,20.7673,199.591,-1.14397,0.0,0.0
2574,643.25,49.2226,52.3118,143.091,103.761,119.006,0.00170994,0.227417,20.7656,199.24,-1.25614,0.0,0.0
2596,648.75,49.1269,52.0612,146.124,103.763,116.419,0.00219799,0.228145,20.7642,198.87,-1.05461,0.0,0.0
2618,654.25,49.1587,52.2289,142.798,103.756,118.623,0.00216603,0.227567,20.7654,198.52,-1.22701,0.0,0.0
2640,659.75,49.1269,52.3847,143.356,103.752,118.89,0.00210364,0.228555,20.7622,198.15,-1.24803,0.0,0.0
2662,665.25,49.1955,52.0928,145.96,103.733,118.426,0.00213183,0.226837,20.7652,197.799,-1.21386,0.0,0.0
2684,670.75,49.0372,51.9583,142.327,103.726,117.561,0.00211672,0.226681,20.7658,197.429,-1.14733,0.0,0.0
2706,676.25,49.0025,52.0833,143.238,103.728,118.614,0.00181033,0.229454,20.7625,197.069,-1.22879,0.0,0.0
2728,681.75,49.3461,52.0333,140.284,103.719,116.928,0.00180423,0.229624,20.7621,196.718,-1.09842,0.0,0.0
2750,687.25,49.2812,52.3806,143.535,103.756,116.713,0.00173265,0.22974,20.7635,196.348,-1.07836,0.0,0.0
2772,692.75,49.3894,52.7013,140.647,103.729,118.435,0.00178258,0.229494,20.764,195.968,-1.21496,0.0,0.0
2794,698.25,49.3542,51.848,143.169,103.749,118.052,0.00190177,0.22768,20.764,195.617,-1.18347,0.0,0.0
2816,703.75,49.0314,52.5254,143.923,103.742,117.311,0.00196425,0.228056,20.7634,195.237,-1.12637,0.0,0.0
2838,709.25,49.3216,52.6542,144.635,103.738,117.838,0.00193468,0.228503,20.7636,194.897,-1.16773,0.0,0.0
2860,714.75,49.8649,52.0566,142.13,103.712,117.445,0.00219158,0.2273,20.7655,194.516,-1.13952,0.0,0.0
2882,720.25,49.3371,51.9978,138.635,103.694,117.204,0.00223113,0.224635,20.7694,194.166,-1.12229,0.0,0.0
2904,725.75,49.7936,52.0519,145.599,103.667,118.007,0.00194886,0.223738,20.7698,193.796,-1.18721,0.0,0.0
2926,731.25,49.5074,52.373,141.373,103.608,117.891,0.00194153,0.22333,20.7698,193.455,-1.18347,0.0,0.0
2948,736.75,49.2178,51.9201,144.813,103.564,118.301,0.00215571,0.223465,20.7698,193.115,-1.21918,0.0,0.0
2970,742.25,49.6318,52.0174,143.626,103.468,116.838,0.0020867,0.223115,20.7719,192.745,-1.11365,0.0,0.0
2992,747.75,48.9345,52.1248,138.463,103.358,118.284,0.00162894,0.221234,20.7738,192.404,-1.23602,0.0,0.0
3014,753.25,49.0519,52.1651,143.578,103.251,118.685,0.00186947,0.222371,20.7723,192.044,-1.27653,0.0,0.0
3036,758.75,48.7452,51.5665,143.443,103.108,117.356,0.00196602,0.22134,20.774,191.704,-1.18608,0.0,0.0
3058,764.25,49.1811,52.3192,141.73,103.061,116.722,0.00210562,0.22087,20.7726,191.323,-1.1406,0.0,0.0
3080,769.75,49.2288,52.1896,146.622,103.074,116.321,0.00207715,0.221672,20.7714,190.973,-1.10793,0.0,0.0
3102,775.25,49.0508,51.8655,141.609,103.124,116.856,0.00205799,0.219502,20.7745,190.653,-1.14555,0.0,0.0
3124,780.75,48.9703,51.8709,145.677,103.146,115.884,0.00223741,0.220411,20.7744,190.282,-1.06705,0.0,0.0
3146,786.25,48.7854,51.6628,142.717,103.186,116.455,0.00239729,0.219933,20.7759,189.942,-1.1085,0.0,0.0
3168,791.75,48.78,51.6648,142.613,103.232,117.177,0.00218015,0.220038,20.7758,189.582,-1.16107,0.0,0.0
3190,797.25,48.6255,51.7677,142.836,103.281,117.168,0.00231294,0.219735,20.7758,189.231,-1.15604,0.0,0.0
3212,802.75,48.4726,51.4437,140.644,103.341,115.964,0.00216792,0.219367,20.7749,188.871,-1.056,0.0,0.0
3234,808.25,48.4708,51.3385,145.117,103.401,117.338,0.00215214,0.219699,20.7738,188.531,-1.15862,0.0,0.0
3256,813.75,49.2066,51.7465,142.516,103.486,117.962,0.00225701,0.219483,20.7742,188.17,-1.19977,0.0,0.0
3278,819.25,48.5951,51.6442,141.19,103.54,117.213,0.00203031,0.219297,20.7735,187.86,-1.13659,0.0,0.0
3300,824.75,48.3729,51.2378,141.536,103.581,116.776,0.00201921,0.219517,20.7735,187.5,-1.09874,0.0,0.0
3322,830.25,48.4066,51.3305,143.114,103.635,117.124,0.0021631,0.218819,20.773,187.17,-1.12123,0.0,0.0
3344,835.75,48.8677,51.1865,146.342,103.664,116.026,0.00217233,0.219619,20.7723,186.809,-1.03237,0.0,0.0
3366,841.25,48.287,51.3604,142.712,103.702,117.971,0.00275928,0.219125,20.7736,186.449,-1.18136,0.0,0.0
3388,846.75,48.5811,51.3998,144.08,103.713,118.052,0.00246646,0.219319,20.7738,186.099,-1.18666,0.0,0.0
3410,852.25,48.6257,51.236,144.812,103.707,116.267,0.00228121,0.220166,20.7716,185.758,-1.04759,0.0,0.0
3432,857.75,48.4624,51.2252,144.873,103.693,116.25,0.00223394,0.218386,20.7776,185.408,-1.04742,0.0,0.0
3454,863.25,48.4485,51.4019,145.775,103.662,118.337,0.0025806,0.218793,20.7779,185.038,-1.2133,0.0,0.0
3476,868.75,48.3827,51.3348,139.867,103.659,117.971,0.00229648,0.218792,20.776,184.697,-1.18519,0.0,0.0
3498,874.25,48.2037,51.1665,139.776,103.593,118.444,0.00229778,0.218564,20.7757,184.367,-1.22768,0.0,0.0
3520,879.75,48.334,51.0216,144.131,103.556,117.052,0.00221109,0.216701,20.7781,184.037,-1.1226,0.0,0.0
3542,885.25,48.4577,51.3712,144.15,103.496,116.473,0.00244738,0.216985,20.7803,183.666,-1.08239,0.0,0.0
3564,890.75,48.7166,51.2129,141.886,103.429,118.239,0.00235032,0.215055,20.7817,183.326,-1.22624,0.0,0.0
3586,896.25,48.475,51.2082,144.783,103.367,117.864,0.0021063,0.213593,20.7856,182.986,-1.20272,0.0,0.0
3608,901.75,48.5674,51.361,143.581,103.265,116.205,0.00203818,0.213334,20.7843,182.645,-1.0818,0.0,0.0
3630,907.25,48.2392,51.0305,142.043,103.183,117.222,0.00209421,0.213772,20.7822,182.345,-1.16898,0.0,0.0
3652,912.75,48.0899,51.0986,142.243,103.05,116.392,0.00221406,0.214464,20.781,181.985,-1.11567,0.0,0.0
3674,918.25,48.1101,51.0258,140.461,102.94,116.357,0.00234484,0.21343,20.7822,181.645,-1.12262,0.0,0.0
3696,923.75,48.2846,51.0906,143.53,102.814,117.757,0.00215276,0.211798,20.7824,181.314,-1.24351,0.0,0.0
3718,929.25,48.5358,50.9525,143.279,102.678,116.383,0.00212712,0.208255,20.7873,180.994,-1.1481,0.0,0.0
3740,934.75,48.0145,50.9274,141.386,102.585,117.275,0.00216772,0.207537,20.7879,180.664,-1.22635,0.0,0.0
3762,940.25,47.9073,50.4669,141.877,102.502,114.929,0.0021429,0.208359,20.787,180.323,-1.04856,0.0,0.0
3784,945.75,47.7317,50.561,143.119,102.43,117.579,0.00195392,0.207621,20.7902,179.993,-1.26389,0.0,0.0
3806,951.25,48.3362,50.5255,144.548,102.389,116.258,0.00203685,0.20731,20.7911,179.663,-1.16405,0.0,0.0
3828,956.75,48.2294,50.8153,141.634,102.407,114.867,0.00220219,0.207409,20.7916,179.332,-1.05209,0.0,0.0
3850,962.25,48.1068,50.5495,146.442,102.416,114.751,0.00243893,0.205427,20.7916,178.992,-1.04204,0.0,0.0
3872,967.75,48.3143,50.9148,141.901,102.454,115.241,0.00242501,0.205567,20.7916,178.682,-1.07775,0.0,0.0
3894,973.25,47.6263,50.5163,143.362,102.517,116.151,0.00253793,0.206251,20.7916,178.372,-1.14417,0.0,0.0
3916,978.75,47.8742,50.3676,144.561,102.593,116.214,0.00249606,0.206752,20.7898,178.041,-1.14233,0.0,0.0
3938,984.25,47.5438,50.7178,142.53,102.701,116.642,0.0025509,0.207266,20.7893,177.721,-1.16644,0.0,0.0
3960,989.75,47.629,49.8537,142.044,102.808,115.955,0.00248861,0.208269,20.7892,177.401,-1.10276,0.0,0.0
3982,995.25,47.7625,50.5326,144.004,102.952,116.098,0.00193149,0.20555,20.7921,177.06,-1.1012,0.0,0.0
4004,1000.75,47.7733,50.2727,145.238,103.07,115.652,0.00200111,0.204303,20.7932,176.76,-1.05541,0.0,0.0
4026,1006.25,47.0268,50.0792,140.949,103.206,117.07,0.00227726,0.205047,20.7928,176.42,-1.155,0.0,0.0
4048,1011.75,47.6283,50.1576,138.468,103.362,116.348,0.00260517,0.205405,20.7912,176.11,-1.08442,0.0,0.0
4070,1017.25,47.9066,50.4931,148.211,103.491,116.142,0.00241711,0.205523,20.7926,175.789,-1.05683,0.0,0.0
4092,1022.75,47.5685,50.0166,146.344,103.644,117.249,0.00218194,0.204548,20.7951,175.449,-1.13017,0.0,0.0
4114,1028.25,47.6336,50.4571,140.873,103.782,116.294,0.00217404,0.204653,20.7956,175.129,-1.04305,0.0,0.0
4136,1033.75,47.3279,50.3279,141.113,103.936,119.069,0.00201128,0.204775,20.7956,174.828,-1.24557,0.0,0.0
4158,1039.25,47.6306,50.2412,142.666,104.059,117.151,0.00200883,0.204857,20.7952,174.518,-1.08585,0.0,0.0
4180,1044.75,47.8034,50.3176,144.558,104.146,117.588,0.0023823,0.205137,20.7932,174.198,-1.11232,0.0,0.0
4202,1050.25,47.3159,49.9581,146.238,104.241,115.91,0.00233078,0.205958,20.7927,173.847,-0.972368,0.0,0.0
4224,1055.75,47.3584,50.3303,140.915,104.287,118.533,0.00246998,0.206052,20.7926,173.537,-1.17338,0.0,0.0
4246,1061.25,47.2695,50.036,142.098,104.342,118.078,0.00262413,0.20647,20.7924,173.197,-1.13325,0.0,0.0
4268,1066.75,47.5202,50.6248,145.788,104.371,117.846,0.00233695,0.206688,20.7917,172.917,-1.11273,0.0,0.0
4290,1072.25,47.1139,50.0493,145.128,104.358,116.053,0.00245582,0.206491,20.7916,172.576,-0.973377,0.0,0.0
4312,1077.75,47.5434,49.9516,144.798,104.318,117.106,0.00234646,0.205473,20.7931,172.286,-1.05964,0.0,0.0
4334,1083.25,47.2873,50.2372,144.31,104.265,117.4,0.00247459,0.204116,20.7945,171.966,-1.08728,0.0,0.0
4356,1088.75,47.1591,49.797,145.441,104.193,115.116,0.00260804,0.203507,20.7976,171.656,-0.913565,0.0,0.0
4378,1094.25,47.4844,50.1943,143.696,104.104,116.91,0.00235786,0.203041,20.7993,171.315,-1.0631,0.0,0.0
4400,1099.75,47.2701,49.8976,145.939,104.033,116.223,0.00246752,0.201878,20.8004,170.965,-1.01527,0.0,0.0
4422,1105.25,47.2128,49.5505,146.264,103.94,116.214,0.00249752,0.204547,20.7975,170.695,-1.02285,0.0,0.0
4444,1110.75,46.9174,49.4746,146.167,103.892,115.786,0.00246439,0.204217,20.7959,170.364,-0.993215,0.0,0.0
4466,1116.25,47.0928,49.821,148.013,103.792,117.213,0.00238596,0.203765,20.7943,170.054,-1.11427,0.0,0.0
4488,1121.75,47.2495,49.8667,147.028,103.671,117.249,0.00260333,0.203377,20.7934,169.754,-1.1278,0.0,0.0
4510,1127.25,47.433,49.8532,145.375,103.632,116.597,0.00241606,0.203899,20.7933,169.423,-1.08022,0.0,0.0
4532,1132.75,47.3238,50.1213,143.281,103.556,117.391,0.00225601,0.204397,20.792,169.133,-1.1491,0.0,0.0
4554,1138.25,47.1871,49.7986,142.894,103.524,116.981,0.00237098,0.203516,20.7937,168.823,-1.11983,0.0,0.0
4576,1143.75,47.0084,50.1067,145.028,103.467,116.91,0.00235615,0.204112,20.7939,168.483,-1.11928,0.0,0.0
4598,1149.25,47.2953,49.3059,144.495,103.461,115.482,0.00238943,0.202369,20.7953,168.182,-1.00723,0.0,0.0
4620,1154.75,47.3003,49.6881,143.256,103.551,118.15,0.00250688,0.202298,20.7972,167.902,-1.20859,0.0,0.0
4642,1160.25,47.1752,49.6417,142.414,103.63,116.009,0.00273939,0.202295,20.7977,167.572,-1.03401,0.0,0.0
4664,1165.75,46.9561,50.2173,142.718,103.739,115.839,0.00249749,0.201318,20.7971,167.262,-1.01096,0.0,0.0
4686,1171.25,47.5098,49.8101,141.45,103.779,115.875,0.00221995,0.199816,20.799,166.961,-1.01025,0.0,0.0
4708,1176.75,47.1885,49.9878,139.92,103.85,115.295,0.00239212,0.200177,20.8001,166.671,-0.957973,0.0,0.0
4730,1182.25,47.1646,49.8232,145.293,103.889,115.455,0.00257924,0.200029,20.7994,166.361,-0.967316,0.0,0.0
4752,1187.75,47.1876,49.833,141.136,103.938,117.24,0.00206332,0.199635,20.8002,166.06,-1.1035,0.0,0.0
4774,1193.25,46.9601,49.7894,142.089,103.946,114.822,0.00233992,0.200339,20.7976,165.76,-0.911881,0.0,0.0
4796,1198.75,47.196,49.6329,145.128,103.958,115.848,0.00278439,0.200074,20.7993,165.46,-0.992348,0.0,0.0
4818,1204.25,47.1184,49.6753,143.65,103.965,116.357,0.00243213,0.199017,20.7998,165.16,-1.03188,0.0,0.0
4840,1209.75,47.1053,49.5068,142.493,103.926,115.313,0.00251482,0.198715,20.7999,164.849,-0.952718,0.0,0.0
4862,1215.25,46.8397,49.3897,144.713,103.898,117.454,0.00234225,0.199797,20.8005,164.539,-1.12378,0.0,0.0
4884,1220.75,47.0222,49.088,145.334,103.831,116.446,0.00267681,0.199872,20.8007,164.239,-1.05068,0.0,0.0
4906,1226.25,47.3401,49.6777,145.875,103.775,116.035,0.00273697,0.20042,20.7988,163.928,-1.02328,0.0,0.0
4928,1231.75,46.9769,49.716,142.576,103.714,117.079,0.0025323,0.201564,20.7983,163.618,-1.11071,0.0,0.0
4950,1237.25,47.2969,49.565,144.665,103.643,115.786,0.00252569,0.200311,20.7999,163.338,-1.01521,0.0,0.0
4972,1242.75,46.8855,49.5093,145.221,103.57,116.142,0.00279522,0.201961,20.7985,163.038,-1.04987,0.0,0.0
4994,1248.25,46.6831,49.6284,146.167,103.471,116.954,0.0025025,0.200693,20.799,162.747,-1.12244,0.0,0.0
5016,1253.75,46.9165,49.5181,144.481,103.398,115.777,0.00259133,0.201373,20.7992,162.447,-1.03614,0.0,0.0
5038,1259.25,46.8651,49.4742,145.354,103.284,116.169,0.00251977,0.201505,20.8,162.117,-1.07733,0.0,0.0
5060,1264.75,47.1299,49.7502,142.272,103.177,116.125,0.00242073,0.200791,20.8014,161.837,-1.08328,0.0,0.0
5082,1270.25,47.0506,49.584,144.145,103.055,116.954,0.00247854,0.20183,20.7986,161.546,-1.15932,0.0,0.0
5104,1275.75,47.3311,49.3136,147.518,103.073,113.939,0.00221693,0.203217,20.7982,161.206,-0.918406,0.0,0.0
5126,1281.25,47.0359,49.7157,147.18,103.108,114.519,0.00242187,0.201355,20.799,160.946,-0.961828,0.0,0.0
5148,1286.75,47.1021,49.4726,142.402,103.148,115.116,0.00260723,0.201772,20.7992,160.626,-1.00598,0.0,0.0
5170,1292.25,46.9641,49.5864,142.406,103.197,116.517,0.00266123,0.202448,20.7986,160.355,-1.11247,0.0,0.0
5192,1297.75,47.3703,50.0258,147.229,103.222,115.286,0.00243555,0.20294,20.7982,160.045,-1.01286,0.0,0.0
5214,1303.25,47.2351,49.6261,142.572,103.275,115.09,0.0023709,0.202603,20.7967,159.745,-0.992571,0.0,0.0
5236,1308.75,47.402,49.8045,143.727,103.292,116.58,0.00235139,0.203753,20.796,159.424,-1.10889,0.0,0.0
5258,1314.25,47.3778,50.0052,143.452,103.318,115.884,0.00269134,0.202832,20.7967,159.124,-1.05173,0.0,0.0
5280,1319.75,47.3694,49.8976,140.364,103.356,115.91,0.00266371,0.203711,20.7946,158.834,-1.05045,0.0,0.0
5302,1325.25,47.3904,49.8314,146.389,103.385,116.41,0.00260595,0.201354,20.7983,158.554,-1.08734,0.0,0.0
5324,1330.75,47.3027,49.6921,141.926,103.437,116.936,0.00233719,0.202108,20.7964,158.253,-1.12405,0.0,0.0
5346,1336.25,47.277,49.94,142.486,103.476,116.41,0.00248676,0.202299,20.7958,157.953,-1.07925,0.0,0.0
5368,1341.75,47.5033,50.1451,145.194,103.502,115.545,0.00253692,0.20221,20.7965,157.673,-1.00861,0.0,0.0
5390,1347.25,47.2278,49.8407,145.122,103.54,117.391,0.00258604,0.2018,20.7965,157.383,-1.15049,0.0,0.0
5412,1352.75,47.3907,49.8554,148.282,103.554,117.659,0.00250805,0.201917,20.7986,157.092,-1.17016,0.0,0.0
5434,1358.25,47.2117,49.7105,145.527,103.599,115.393,0.00248979,0.202277,20.7996,156.812,-0.987923,0.0,0.0
5456,1363.75,47.4947,49.9104,143.452,103.607,115.687,0.00269148,0.201639,20.799,156.492,-1.01063,0.0,0.0
5478,1369.25,47.5998,49.8556,142.304,103.66,116.214,0.00285325,0.202543,20.7955,156.212,-1.04754,0.0,0.0
5500,1374.75,47.3816,49.8226,143.317,103.66,115.91,0.00226365,0.202815,20.7964,155.911,-1.02359,0.0,0.0
5522,1380.25,47.0188,49.7267,146.49,103.672,115.723,0.00250984,0.202638,20.7961,155.631,-1.00771,0.0,0.0
5544,1385.75,47.186,49.7221,145.183,103.685,116.044,0.00255687,0.202772,20.7949,155.381,-1.03194,0.0,0.0
5566,1391.25,46.8902,49.7788,147.009,103.683,115.902,0.00247714,0.202094,20.7976,155.06,-1.02081,0.0,0.0
5588,1396.75,47.0281,49.7626,140.705,103.692,115.973,0.00236426,0.203592,20.7953,154.75,-1.0257,0.0,0.0
5610,1402.25,47.2269,49.9271,143.449,103.673,115.768,0.00241436,0.203046,20.795,154.48,-1.01109,0.0,0.0
5632,1407.75,47.041,49.6331,146.641,103.686,116.258,0.00246915,0.204504,20.7932,154.17,-1.04876,0.0,0.0
5654,1413.25,47.0183,49.8623,146.548,103.648,116.312,0.00257459,0.205574,20.7903,153.869,-1.05636,0.0,0.0
5676,1418.75,47.0377,50.1908,143.027,103.624,114.804,0.00222095,0.204813,20.7913,153.579,-0.938864,0.0,0.0
5698,1424.25,46.9858,49.9171,144.081,103.606,117.275,0.00204488,0.205766,20.7899,153.259,-1.1356,0.0,0.0
5720,1429.75,47.0737,50.1037,141.708,103.555,115.705,0.00238781,0.208162,20.7878,152.999,-1.0166,0.0,0.0
5742,1435.25,47.3255,49.8154,146.693,103.531,115.339,0.00241039,0.207846,20.7879,152.668,-0.989764,0.0,0.0
5764,1440.75,47.1121,49.6099,143.604,103.459,114.938,0.00242643,0.207269,20.7879,152.418,-0.964172,0.0,0.0
5786,1446.25,47.3701,49.8748,145.942,103.426,114.447,0.0022616,0.207776,20.7881,152.088,-0.927904,0.0,0.0
5808,1451.75,47.4973,50.1259,144.158,103.369,116.071,0.00224884,0.206629,20.7896,151.818,-1.06201,0.0,0.0
5830,1457.25,47.8403,50.1785,140.911,103.333,117.168,0.00197715,0.209435,20.7879,151.467,-1.15144,0.0,0.0
5852,1462.75,47.7056,50.2777,142.15,103.301,116.053,0.00195906,0.208641,20.7891,151.187,-1.06667,0.0,0.0
5874,1468.25,47.7995,50.4912,143.052,103.227,115.447,0.0020555,0.209637,20.7878,150.887,-1.0252,0.0,0.0
5896,1473.75,47.7925,50.3955,143.139,103.19,115.491,0.00176945,0.212406,20.7853,150.586,-1.03203,0.0,0.0
5918,1479.25,47.9793,50.6972,145.433,103.116,115.616,0.00223148,0.211941,20.7836,150.246,-1.0485,0.0,0.0
5940,1484.75,48.0239,50.6975,141.577,103.052,115.786,0.00244757,0.21205,20.7833,149.956,-1.06759,0.0,0.0
5962,1490.25,48.1636,50.6566,146.32,102.974,116.589,0.00208099,0.213647,20.7814,149.676,-1.13788,0.0,0.0
5984,1495.75,48.2288,50.593,140.328,102.902,115.215,0.00193682,0.21415,20.7816,149.355,-1.03568,0.0,0.0
6006,1501.25,48.0702,50.5973,142.766,102.838,115.786,0.00215537,0.213232,20.7835,149.075,-1.08666,0.0,0.0
6028,1506.75,48.1694,50.8589,141.642,102.748,116.553,0.00208756,0.21395,20.7837,148.755,-1.15522,0.0,0.0
6050,1512.25,48.3884,51.2268,139.854,102.716,115.634,0.00205153,0.214801,20.7836,148.464,-1.08552,0.0,0.0
6072,1517.75,48.6574,50.8569,142.658,102.665,115.277,0.00201152,0.214795,20.7835,148.154,-1.06172,0.0,0.0
6094,1523.25,48.3728,51.192,142.615,102.641,114.992,0.00225169,0.215046,20.7804,147.854,-1.04112,0.0,0.0
6116,1528.75,48.3616,50.9281,144.664,102.619,116.107,0.00223024,0.217089,20.7775,147.534,-1.13157,0.0,0.0
6138,1534.25,48.4231,51.0987,144.266,102.584,114.974,0.00224151,0.215879,20.7783,147.233,-1.04486,0.0,0.0
6160,1539.75,47.9066,51.114,142.811,102.574,115.277,0.00233671,0.216253,20.7769,146.943,-1.06988,0.0,0.0
6182,1545.25,48.1798,51.4043,137.552,102.52,114.742,0.00223193,0.216785,20.7782,146.623,-1.03205,0.0,0.0
6204,1550.75,48.3777,51.4347,145.031,102.509,115.527,0.00212574,0.218136,20.7789,146.323,-1.09548,0.0,0.0
6226,1556.25,48.2849,51.3998,144.007,102.483,116.303,0.00212299,0.218032,20.7787,146.032,-1.15916,0.0,0.0
6248,1561.75,48.7586,51.289,139.533,102.466,114.483,0.00226167,0.219953,20.7771,145.682,-1.01615,0.0,0.0
6270,1567.25,48.1786,51.1681,139.671,102.461,117.784,0.00237928,0.218417,20.7778,145.392,-1.27709,0.0,0.0
6292,1572.75,48.7063,51.4481,145.445,102.455,115.143,0.00229145,0.219095,20.7767,145.051,-1.06983,0.0,0.0
6314,1578.25,48.5585,51.5916,140.411,102.44,113.867,0.00223518,0.218275,20.7764,144.751,-0.969101,0.0,0.0
6336,1583.75,48.9872,51.5748,142.534,102.424,115.277,0.0023154,0.22059,20.7751,144.481,-1.08325,0.0,0.0
6358,1589.25,48.1666,52.0958,143.381,102.424,114.858,0.00236536,0.218451,20.7762,144.211,-1.04986,0.0,0.0
6380,1594.75,48.9801,51.6771,145.854,102.421,115.134,0.00253429,0.218446,20.778,143.85,-1.0722,0.0,0.0
6402,1600.25,48.765,51.9557,143.732,102.409,115.839,0.00228086,0.219922,20.775,143.54,-1.12923,0.0,0.0
6424,1605.75,48.8418,51.3129,143.659,102.4,114.296,0.00203427,0.218321,20.7758,143.24,-1.00707,0.0,0.0
6446,1611.25,48.7634,51.7089,143.335,102.378,114.528,0.00208462,0.218107,20.777,142.919,-1.02767,0.0,0.0
6468,1616.75,48.8788,51.5804,144.468,102.38,115.116,0.00226316,0.218024,20.7777,142.629,-1.07439,0.0,0.0
6490,1622.25,48.9043,51.9072,145.239,102.349,115.322,0.00247199,0.220196,20.7771,142.319,-1.09357,0.0,0.0
6512,1627.75,48.8363,51.8806,144.667,102.369,115.554,0.00229838,0.220745,20.7772,142.029,-1.11019,0.0,0.0
6534,1633.25,49.1464,51.9627,140.934,102.355,115.679,0.0023905,0.21931,20.7779,141.748,-1.12131,0.0,0.0
6556,1638.75,49.2262,52.1428,137.175,102.356,113.912,0.00208498,0.219243,20.776,141.448,-0.980221,0.0,0.0
6578,1644.25,49.1271,51.8105,145.702,102.356,116.053,0.002349,0.221416,20.7723,141.098,-1.15087,0.0,0.0
6600,1649.75,48.7906,52.3195,143.705,102.345,116.687,0.00228576,0.222813,20.7698,140.808,-1.20174,0.0,0.0
6622,1655.25,49.0355,52.0869,142.244,102.362,114.867,0.00246404,0.22178,20.7709,140.487,-1.05616,0.0,0.0
6644,1660.75,49.2588,52.1723,144.004,102.344,115.322,0.00230002,0.221534,20.7729,140.197,-1.09402,0.0,0.0
6666,1666.25,49.3014,52.1204,141.196,102.37,115.616,0.00201303,0.221964,20.7757,139.877,-1.11503,0.0,0.0
6688,1671.75,49.5574,52.3462,139.757,102.362,116.205,0.00213989,0.224466,20.772,139.576,-1.16226,0.0,0.0
6710,1677.25,49.5747,52.3326,140.714,102.354,116.419,0.0024646,0.225801,20.7708,139.256,-1.17986,0.0,0.0
6732,1682.75,49.6255,52.4527,140.519,102.367,116.241,0.002092,0.225741,20.7707,138.946,-1.16462,0.0,0.0
6754,1688.25,49.7974,52.2345,138.2,102.357,114.715,0.00211244,0.226102,20.7706,138.626,-1.04447,0.0,0.0
6776,1693.75,49.9633,51.6853,144.317,102.358,116.91,0.00229428,0.228341,20.7675,138.325,-1.21809,0.0,0.0
6798,1699.25,49.9836,52.6138,143.372,102.368,116.062,0.00200508,0.229358,20.7653,138.005,-1.15047,0.0,0.0
6820,1704.75,49.4552,52.9367,139.658,102.387,116.749,0.00204987,0.231174,20.7636,137.665,-1.20287,0.0,0.0
6842,1710.25,50.1801,52.8587,142.45,102.4,118.186,0.00213089,0.234658,20.7603,137.374,-1.31371,0.0,0.0
6864,1715.75,50.0839,52.7566,142.207,102.412,117.374,0.00223898,0.236565,20.7571,137.014,-1.24952,0.0,0.0
6886,1721.25,50.221,52.9689,136.223,102.426,117.374,0.00231781,0.235132,20.7595,136.674,-1.24826,0.0,0.0
6908,1726.75,50.2612,53.3235,145.832,102.423,116.107,0.00228911,0.237025,20.7581,136.364,-1.14908,0.0,0.0
6930,1732.25,50.1851,52.8858,142.421,102.447,114.902,0.00216473,0.238979,20.7545,136.003,-1.05136,0.0,0.0
6952,1737.75,50.4138,53.6218,138.231,102.426,115.491,0.00204211,0.239073,20.7542,135.673,-1.10007,0.0,0.0
6974,1743.25,50.3417,53.3284,141.594,102.419,115.991,0.00208607,0.241411,20.7512,135.323,-1.14031,0.0,0.0
6996,1748.75,50.4772,53.2085,140.602,102.412,115.643,0.00209872,0.241601,20.7513,134.982,-1.11335,0.0,0.0
7018,1754.25,50.8774,53.816,140.131,102.389,115.902,0.00231555,0.243778,20.7483,134.622,-1.13595,0.0,0.0
7040,1759.75,50.1923,53.8788,143.346,102.376,115.411,0.00238199,0.244123,20.7467,134.302,-1.09818,0.0,0.0
7062,1765.25,50.9013,53.5876,141.806,102.349,117.686,0.00245503,0.245821,20.7456,133.941,-1.27953,0.0,0.0
7084,1770.75,51.0368,53.8025,141.892,102.36,115.304,0.0024789,0.245472,20.7464,133.531,-1.09116,0.0,0.0
7106,1776.25,50.9961,54.0747,140.847,102.345,115.482,0.00225932,0.246044,20.7473,133.211,-1.10666,0.0,0.0
7128,1781.75,51.0774,54.2413,147.527,102.352,117.98,0.0020804,0.246791,20.7473,132.87,-1.30216,0.0,0.0
7150,1787.25,51.3383,54.2627,137.783,102.352,115.786,0.00231784,0.24863,20.7444,132.51,-1.13001,0.0,0.0
7172,1792.75,51.0002,54.6952,142.197,102.363,118.328,0.00246458,0.249862,20.7427,132.18,-1.32815,0.0,0.0
7194,1798.25,51.5912,54.617,145.554,102.399,117.061,0.00250742,0.249551,20.7426,131.789,-1.22628,0.0,0.0
7216,1803.75,51.9021,54.8861,143.086,102.412,116.892,0.00237478,0.251884,20.7421,131.419,-1.21179,0.0,0.0
7238,1809.25,51.8498,54.8795,145.274,102.469,116.232,0.00217809,0.254362,20.7398,131.049,-1.15479,0.0,0.0
7260,1814.75,52.0405,54.9048,141.641,102.496,116.606,0.00226429,0.253376,20.7393,130.668,-1.18193,0.0,0.0
7282,1820.25,52.2922,54.9423,139.503,102.582,116.258,0.00228341,0.255594,20.7377,130.308,-1.14683,0.0,0.0
7304,1825.75,52.3047,55.3646,137.181,102.671,117.284,0.00216983,0.25664,20.7344,129.918,-1.21942,0.0,0.0
7326,1831.25,52.5734,55.5562,146.225,102.753,117.481,0.00198586,0.258229,20.7323,129.527,-1.22742,0.0,0.0
7348,1836.75,52.7006,55.5564,143.649,102.88,115.812,0.00187183,0.260406,20.7307,129.177,-1.08503,0.0,0.0
7370,1842.25,52.6809,55.6796,144.113,102.976,118.373,0.00206711,0.261784,20.7286,128.797,-1.27687,0.0,0.0
7392,1847.75,52.9265,56.1076,135.89,103.097,118.087,0.00200536,0.26392,20.7285,128.416,-1.24401,0.0,0.0
7414,1853.25,53.3394,56.3371,138.802,103.217,118.988,0.00198374,0.266798,20.725,127.996,-1.30294,0.0,0.0
7436,1858.75,53.3067,56.5078,140.261,103.347,119.122,0.00201812,0.270221,20.7209,127.596,-1.30178,0.0,0.0
7458,1864.25,53.148,56.5836,140.909,103.466,118.935,0.00221911,0.273891,20.715,127.215,-1.27681,0.0,0.0
7480,1869.75,53.7123,56.649,136.929,103.579,118.284,0.00244978,0.280767,20.7087,126.795,-1.21645,0.0,0.0
7502,1875.25,53.9155,57.0772,145.198,103.645,118.908,0.00229977,0.280617,20.7063,126.384,-1.25891,0.0,0.0
7524,1880.75,54.2898,57.529,139.42,103.716,119.756,0.00223399,0.282995,20.7043,125.984,-1.31765,0.0,0.0
7546,1886.25,54.2774,57.5593,138.506,103.824,118.765,0.00266341,0.281923,20.7046,125.524,-1.23202,0.0,0.0
7568,1891.75,54.4743,57.772,139.702,103.909,120.122,0.00274811,0.283509,20.703,125.103,-1.32856,0.0,0.0
7590,1897.25,54.8621,57.962,137.123,103.982,117.802,0.00245977,0.286825,20.6991,124.693,-1.14351,0.0,0.0
7612,1902.75,54.5824,58.2848,137.206,104.039,119.426,0.0023831,0.28731,20.6973,124.263,-1.26386,0.0,0.0
7634,1908.25,55.4917,58.4861,138.445,104.077,117.659,0.00201833,0.28824,20.6958,123.832,-1.12397,0.0,0.0
7656,1913.75,54.729,58.3237,141.156,104.108,117.115,0.0022163,0.291032,20.692,123.412,-1.07876,0.0,0.0
7678,1919.25,55.7612,59.0421,139.582,104.09,121.986,0.00233726,0.291232,20.6895,122.951,-1.45376,0.0,0.0
7700,1924.75,55.6087,59.0694,143.739,104.132,119.872,0.00243316,0.292501,20.6891,122.591,-1.28986,0.0,0.0
7722,1930.25,56.2429,59.1081,138.946,104.148,119.729,0.00291075,0.297012,20.6847,122.151,-1.27753,0.0,0.0
7744,1935.75,55.5534,59.4924,137.414,104.173,118.89,0.00252133,0.301391,20.6774,121.69,-1.21095,0.0,0.0
7766,1941.25,56.3331,59.7544,139.269,104.183,118.988,0.00245478,0.309732,20.6676,121.24,-1.21757,0.0,0.0
7788,1946.75,56.3147,59.9626,138.29,104.185,119.408,0.00247424,0.315805,20.6583,120.799,-1.24966,0.0,0.0
7810,1952.25,57.2006,60.3337,144.117,104.212,120.871,0.00253612,0.318731,20.6532,120.319,-1.35887,0.0,0.0
7832,1957.75,57.205,60.8896,139.088,104.209,118.507,0.00250479,0.324268,20.6457,119.899,-1.17819,0.0,0.0
7854,1963.25,57.3779,60.602,140.518,104.24,119.854,0.00247599,0.327445,20.6411,119.328,-1.27901,0.0,0.0
7876,1968.75,57.3862,61.2204,137.435,104.264,118.988,0.00225953,0.328795,20.6372,118.868,-1.21051,0.0,0.0
7898,1974.25,57.5287,61.523,138.206,104.267,118.774,0.00262167,0.33181,20.6347,118.427,-1.19374,0.0,0.0
7920,1979.75,59.0666,61.8416,138.304,104.292,118.498,0.00280915,0.331336,20.6349,117.947,-1.17018,0.0,0.0
7942,1985.25,58.0775,61.6577,144.357,104.305,120.273,0.0028599,0.326478,20.6404,117.466,-1.30529,0.0,0.0
7964,1990.75,58.1574,61.8625,138.743,104.325,119.042,0.00267119,0.320249,20.6478,117.006,-1.20922,0.0,0.0
7986,1996.25,58.0413,62.236,135.086,104.321,119.06,0.00275833,0.316794,20.6522,116.536,-1.21096,0.0,0.0
8008,2001.75,58.3129,62.1736,136.975,104.339,117.052,0.00277493,0.309163,20.6603,116.095,-1.05358,0.0,0.0
8030,2007.25,58.2391,62.3306,139.004,104.338,119.203,0.00262596,0.305054,20.6658,115.635,-1.22049,0.0,0.0
8052,2012.75,57.9402,61.9147,140.266,104.335,119.622,0.002491,0.303646,20.6719,115.204,-1.25293,0.0,0.0
8074,2018.25,57.8875,62.0869,138.472,104.339,118.194,0.00277695,0.297815,20.6783,114.784,-1.14258,0.0,0.0
8096,2023.75,57.8568,61.7595,142.822,104.328,119.747,0.0027841,0.294594,20.6832,114.324,-1.26309,0.0,0.0
8118,2029.25,57.8851,61.8259,143.258,104.332,118.31,0.00252822,0.292092,20.6859,113.983,-1.15213,0.0,0.0
8140,2034.75,57.7552,61.83,146.592,104.309,118.703,0.00280908,0.285968,20.6925,113.553,-1.18454,0.0,0.0
8162,2040.25,57.1402,61.2807,137.708,104.312,119.577,0.00308581,0.280619,20.7,113.132,-1.25149,0.0,0.0
8184,2045.75,56.8103,61.0926,140.802,104.301,119.087,0.00287695,0.27791,20.7007,112.752,-1.21481,0.0,0.0
8206,2051.25,56.9786,60.9047,138.651,104.286,118.409,0.00308164,0.272997,20.7068,112.382,-1.1638,0.0,0.0
8228,2056.75,56.4975,60.4451,140.084,104.271,118.756,0.0028642,0.269833,20.7106,112.031,-1.19203,0.0,0.0
8250,2062.25,56.2472,60.079,137.67,104.26,118.471,0.00299641,0.268852,20.7128,111.631,-1.17091,0.0,0.0
8272,2067.75,55.6859,59.8586,138.3,104.256,117.597,0.00309469,0.26583,20.7154,111.311,-1.10341,0.0,0.0
8294,2073.25,55.7127,59.3926,134.479,104.233,118.837,0.00310645,0.263282,20.7177,110.93,-1.20155,0.0,0.0
8316,2078.75,55.2983,59.1525,141.932,104.229,118.346,0.00349563,0.265661,20.7169,110.58,-1.16393,0.0,0.0
8338,2084.25,55.5878,59.234,137.676,104.225,118.569,0.00360594,0.262973,20.7191,110.24,-1.18156,0.0,0.0
8360,2089.75,55.0046,58.7358,140.197,104.192,118.025,0.00337866,0.262112,20.7202,109.89,-1.14236,0.0,0.0
8382,2095.25,54.8534,58.5744,142.888,104.19,117.356,0.00329196,0.259244,20.7222,109.519,-1.09041,0.0,0.0
8404,2100.75,54.6453,58.6671,144.229,104.155,117.133,0.00331655,0.259107,20.7221,109.169,-1.076,0.0,0.0
8426,2106.25,54.3289,58.2351,142.659,104.134,118.078,0.00335642,0.258399,20.7216,108.849,-1.1516,0.0,0.0
8448,2111.75,54.5015,58.0687,137.65,104.095,116.812,0.00313204,0.25799,20.724,108.508,-1.05619,0.0,0.0
8470,2117.25,54.7482,58.2428,140.666,104.069,116.098,0.0031384,0.256889,20.7247,108.168,-1.00231,0.0,0.0
8492,2122.75,54.3865,57.8066,141.952,104.043,115.723,0.00339312,0.2567,20.724,107.818,-0.974935,0.0,0.0
8514,2128.25,54.3504,57.5911,143.105,104.017,117.275,0.00325623,0.256075,20.7259,107.507,-1.09933,0.0,0.0
8536,2133.75,54.0871,57.5593,140.265,103.977,118.444,0.00304313,0.255223,20.7262,107.177,-1.19375,0.0,0.0
8558,2139.25,54.3833,57.8388,142.846,103.911,118.043,0.00300734,0.254472,20.7265,106.837,-1.16841,0.0,0.0
8580,2144.75,53.7699,57.1058,136.485,103.876,117.383,0.00290547,0.253831,20.7283,106.537,-1.12016,0.0,0.0
8602,2150.25,53.7053,56.8852,141.509,103.817,115.777,0.00316163,0.252016,20.728,106.236,-0.99911,0.0,0.0
8624,2155.75,53.6276,56.9048,141.86,103.761,116.963,0.00317157,0.252398,20.7259,105.916,-1.09754,0.0,0.0
8646,2161.25,53.4708,56.6806,142.113,103.716,116.901,0.00319166,0.249456,20.7297,105.606,-1.09659,0.0,0.0
8668,2166.75,53.5209,56.7762,143.575,103.674,116.401,0.0033221,0.247349,20.7315,105.305,-1.06102,0.0,0.0
8690,2172.25,53.1901,56.8512,148.944,103.651,116.731,0.00322408,0.243275,20.7364,105.035,-1.089,0.0,0.0
8712,2177.75,53.2188,56.4614,141.302,103.594,116.954,0.00324654,0.23876,20.7415,104.725,-1.11156,0.0,0.0
8734,2183.25,52.7465,55.9826,141.853,103.578,116.437,0.00329754,0.235008,20.747,104.475,-1.07236,0.0,0.0
8756,2188.75,52.5934,55.7929,140.083,103.546,117.882,0.00347147,0.229926,20.7526,104.174,-1.18819,0.0,0.0
8778,2194.25,52.1727,55.5573,142.361,103.541,117.748,0.00362543,0.227618,20.7553,103.954,-1.17827,0.0,0.0
8800,2199.75,52.0856,55.4704,142.194,103.533,116.232,0.0035874,0.225503,20.7591,103.674,-1.06018,0.0,0.0
8822,2205.25,51.9963,55.2205,139.747,103.511,115.884,0.00372636,0.220366,20.7651,103.444,-1.03459,0.0,0.0
8844,2210.75,51.8391,54.7466,146.817,103.512,115.545,0.00368689,0.216651,20.7704,103.214,-1.00771,0.0,0.0
8866,2216.25,51.2862,54.792,142.354,103.472,115.919,0.00389763,0.214108,20.7718,102.953,-1.04091,0.0,0.0
8888,2221.75,50.8763,54.0139,139.948,103.463,117.231,0.00393549,0.211479,20.7745,102.723,-1.14483,0.0,0.0
8910,2227.25,50.3846,53.3991,143.322,103.438,116.303,0.00383064,0.208245,20.7777,102.533,-1.07416,0.0,0.0
8932,2232.75,50.1553,53.4732,139.19,103.438,117.784,0.00386497,0.204345,20.7817,102.313,-1.19019,0.0,0.0
8954,2238.25,49.8612,53.2741,145.917,103.452,116.009,0.00376538,0.203503,20.7843,102.072,-1.04977,0.0,0.0
8976,2243.75,50.304,53.1671,144.204,103.449,114.786,0.00369017,0.19931,20.7882,101.882,-0.952938,0.0,0.0
8998,2249.25,49.4626,52.5399,144.409,103.455,115.215,0.00407046,0.197847,20.7898,101.672,-0.986496,0.0,0.0
9020,2254.75,49.274,52.3279,142.524,103.458,114.849,0.00423778,0.193749,20.7942,101.492,-0.957131,0.0,0.0
9042,2260.25,49.2997,52.1469,144.1,103.507,115.464,0.00425729,0.192268,20.7951,101.282,-1.00179,0.0,0.0
9064,2265.75,49.0774,51.8113,142.04,103.559,115.982,0.00450695,0.191455,20.7959,101.092,-1.03814,0.0,0.0
9086,2271.25,49.1802,51.6081,142.228,103.678,116.687,0.00490366,0.187733,20.8001,100.941,-1.08317,0.0,0.0
9108,2276.75,48.4536,51.1886,145.787,103.815,116.678,0.00513857,0.183965,20.8041,100.801,-1.0703,0.0,0.0
9130,2282.25,48.427,50.9995,139.742,103.975,116.464,0.00504548,0.181747,20.8066,100.681,-1.03941,0.0,0.0
9152,2287.75,48.2313,50.9031,146.36,104.167,116.241,0.00468733,0.17524,20.8146,100.511,-1.00493,0.0,0.0
9174,2293.25,48.0559,50.6866,142.911,104.281,116.142,0.00455128,0.173381,20.819,100.381,-0.987177,0.0,0.0
9196,2298.75,47.3681,50.0178,147.377,104.329,117.275,0.00465645,0.172224,20.8204,100.291,-1.07192,0.0,0.0
9218,2304.25,47.3776,49.6634,144.646,104.196,116.981,0.00499409,0.167687,20.8258,100.101,-1.06058,0.0,0.0
9240,2309.75,46.7837,49.3739,140.051,103.917,115.866,0.00540885,0.164597,20.8297,99.9806,-0.997356,0.0,0.0
9262,2315.25,46.6499,49.3927,146.603,103.497,114.51,0.00537672,0.162633,20.8311,99.8605,-0.926616,0.0,0.0
9284,2320.75,46.3152,48.9033,149.009,102.978,115.536,0.00538741,0.158025,20.8367,99.7404,-1.05442,0.0,0.0
9306,2326.25,46.3783,48.7058,146.158,102.546,114.18,0.00539739,0.156745,20.8381,99.6202,-0.984695,0.0,0.0
9328,2331.75,46.3826,48.9276,145.461,102.331,114.305,0.00585205,0.15729,20.8367,99.4901,-1.01399,0.0,0.0
9350,2337.25,46.1236,48.1701,145.893,102.43,114.126,0.00552185,0.155503,20.8401,99.4101,-0.990773,0.0,0.0
9372,2342.75,45.4671,47.9428,147.778,102.749,113.769,0.00589177,0.154736,20.8421,99.2699,-0.93364,0.0,0.0
9394,2348.25,45.4918,47.9082,141.07,103.137,115.241,0.00590812,0.154049,20.843,99.1498,-1.01683,0.0,0.0
9416,2353.75,45.3401,47.2619,142.163,103.466,115.607,0.00608964,0.153037,20.8425,98.9997,-1.01676,0.0,0.0
9438,2359.25,44.7148,46.9903,147.4,103.645,115.893,0.00575682,0.152413,20.8447,98.9196,-1.02349,0.0,0.0
9460,2364.75,44.8516,47.0467,145.765,103.612,114.563,0.00608575,0.148164,20.8487,98.8395,-0.920708,0.0,0.0
9482,2370.25,44.4228,46.4765,146.995,103.336,113.876,0.00609146,0.148289,20.8495,98.7595,-0.890022,0.0,0.0
9504,2375.75,44.5103,46.4422,149.306,103.122,113.796,0.0063609,0.150174,20.8487,98.6494,-0.902536,0.0,0.0
9526,2381.25,44.1747,46.3696,145.578,103.441,116.142,0.00652179,0.148454,20.8472,98.5493,-1.06128,0.0,0.0
9548,2386.75,44.186,46.3349,144.896,103.908,115.848,0.0065729,0.145632,20.8487,98.4292,-0.996695,0.0,0.0
9570,2392.25,43.8407,46.0361,146.125,103.829,114.251,0.00682295,0.144673,20.8489,98.3291,-0.876508,0.0,0.0
9592,2397.75,43.6934,45.8506,144.07,103.495,114.019,0.0066861,0.14481,20.8494,98.229,-0.887379,0.0,0.0
9614,2403.25,43.6361,45.6598,146.72,103.881,114.171,0.00677347,0.144007,20.8516,98.1189,-0.865491,0.0,0.0
9636,2408.75,43.3419,45.8379,150.433,104.233,113.912,0.00694331,0.143012,20.8539,98.0388,-0.813711,0.0,0.0
9658,2414.25,43.0177,44.8673,153.028,104.336,114.563,0.006965,0.142706,20.854,97.9387,-0.856877,0.0,0.0
9680,2419.75,43.1875,45.1244,146.251,104.059,114.519,0.00678634,0.143506,20.8514,97.8386,-0.877679,0.0,0.0
9702,2425.25,42.5831,44.5507,151.668,103.443,113.457,0.00669349,0.14153,20.8547,97.7786,-0.846688,0.0,0.0
9724,2430.75,42.5219,44.8592,146.037,102.792,112.957,0.00661755,0.140189,20.8581,97.6685,-0.86411,0.0,0.0
9746,2436.25,42.7651,44.6626,150.185,102.393,112.163,0.00664031,0.141222,20.8566,97.5884,-0.835155,0.0,0.0
9768,2441.75,42.4943,44.4753,145.361,102.482,113.163,0.00684246,0.142165,20.858,97.5183,-0.908404,0.0,0.0
9790,2447.25,42.2465,43.8284,147.593,102.933,113.716,0.0068769,0.139355,20.861,97.3982,-0.912928,0.0,0.0
9812,2452.75,42.3389,44.0529,148.547,103.46,114.269,0.00714197,0.138689,20.8591,97.3182,-0.910595,0.0,0.0
9834,2458.25,42.2317,44.2058,150.604,103.676,114.733,0.0073449,0.141159,20.8571,97.2381,-0.928619,0.0,0.0
9856,2463.75,41.9855,43.5974,143.221,103.491,113.698,0.00696453,0.141841,20.8562,97.138,-0.861906,0.0,0.0
9878,2469.25,41.9743,43.8224,146.328,103.145,113.216,0.00695099,0.142074,20.8556,97.098,-0.853718,0.0,0.0
9900,2474.75,42.1757,43.5987,143.981,103.392,114.296,0.00714152,0.141989,20.8528,97.0379,-0.918728,0.0,0.0
9922,2480.25,41.3908,43.2631,147.732,103.9,114.724,0.00732731,0.142958,20.8521,96.9278,-0.908092,0.0,0.0
9944,2485.75,40.9067,43.1215,151.49,103.585,113.841,0.00734577,0.140411,20.8551,96.8377,-0.865128,0.0,0.0
9966,2491.25,41.1815,43.3661,146.378,103.724,114.429,0.00760732,0.138973,20.8562,96.7677,-0.900078,0.0,0.0
9988,2496.75,40.9402,43.1,146.817,104.15,114.001,0.00744836,0.138401,20.8575,96.6776,-0.828136,0.0,0.0
10010,2502.25,40.9999,43.2503,144.777,104.262,114.599,0.00784657,0.138514,20.8589,96.5875,-0.866266,0.0,0.0
10032,2507.75,40.6512,42.7833,149.772,104.364,113.832,0.00793462,0.137968,20.8603,96.5174,-0.795747,0.0,0.0
10054,2513.25,41.0066,42.8154,146.796,104.267,114.572,0.00766879,0.137316,20.8621,96.4574,-0.86364,0.0,0.0
10076,2518.75,40.9466,42.7185,146.972,103.787,113.948,0.00766327,0.136738,20.8627,96.3573,-0.855861,0.0,0.0
10098,2524.25,40.7072,42.5181,146.523,103.13,112.574,0.0074502,0.137253,20.8619,96.2872,-0.802901,0.0,0.0
10120,2529.75,40.8796,42.6869,146.767,102.628,112.297,0.00769972,0.136411,20.8613,96.2072,-0.82507,0.0,0.0
10142,2535.25,40.9566,42.6615,144.226,102.538,111.851,0.00798389,0.138267,20.8612,96.1371,-0.796608,0.0,0.0
10164,2540.75,40.6993,42.693,143.136,102.867,113.029,0.00787031,0.13801,20.8613,96.077,-0.86327,0.0,0.0
10186,2546.25,40.7333,42.8638,145.79,103.323,112.395,0.00803462,0.138121,20.8604,95.9569,-0.771235,0.0,0.0
10208,2551.75,40.853,41.9989,149.054,103.695,113.68,0.00783418,0.136551,20.8627,95.8969,-0.842459,0.0,0.0
10230,2557.25,40.4608,42.3256,148.637,103.863,113.056,0.00785296,0.133635,20.8673,95.8168,-0.777156,0.0,0.0
10252,2562.75,40.4004,42.5403,146.216,103.764,113.475,0.00756945,0.134131,20.8667,95.7067,-0.819746,0.0,0.0
10274,2568.25,40.0635,41.9242,143.794,103.485,112.574,0.00724808,0.133942,20.8646,95.6667,-0.771383,0.0,0.0
10296,2573.75,40.2393,42.839,146.466,103.269,113.502,0.00714055,0.13541,20.8622,95.6166,-0.865777,0.0,0.0
10318,2579.25,40.6011,42.763,149.581,103.459,112.44,0.00739084,0.135495,20.8627,95.5065,-0.762817,0.0,0.0
10340,2584.75,40.6661,42.0264,145.911,103.925,113.225,0.00756895,0.136625,20.8603,95.4465,-0.785411,0.0,0.0
10362,2590.25,40.5782,42.2064,151.304,104.093,112.948,,,,95.3664,-0.748172,0.0,0.0
10384,2595.75,40.0269,41.7912,151.505,104.024,112.779,,,,95.2563,-0.740473,0.0,0.0
10389,2597,40.043,41.9546,150.307,103.953,113.189,,,,95.2163,-0.78005,0.0,0.0