File: 01_Data/Wood_Stud/Cone/Wood_Stud_Cone_HF25Scan_221004_R3.csv
Names,Time,Stack TC,Smoke TC,Exh Press,Smoke Comp,Smoke Meas,CO Meter,CO2 Meter,O2 Meter,Sample Mass,Ext Coeff,Start Test,Flame Verif
Chan Gain,,500,500,1,1,1,1,1,1,1,1,1.0,1.0
Offset,,0,0,0.136221,0,0,0,0,0,0,0,0.0,0.0
Gain,,1,1,25.011,13.9274,292.346,1,1,1,1.00091,1.04463,1.0,1.0
Units,sec,C,C,Pa,%,%,%,%,%,g,/m,,
Baseline,,17.6999,18.3356,159.284,103.322,103.3125,0.000879196,0.0688045,20.9449,-438.423,0.000960215,,
30,7.25,17.2109,17.9486,158.341,102.182,101.725,0.000680526,0.0754539,20.9358,240.228,0.0410736,0.0,0.0
60,14.75,17.466,18.2354,155.308,102.253,103.322,0.000609827,0.0708561,20.9424,240.108,-0.0952638,0.0,0.0
90,22.25,17.3748,18.1671,156.915,102.366,102.876,0.00103073,0.0735531,20.9386,240.007,-0.0454896,0.0,0.0
120,29.75,17.6439,18.4421,158.438,102.566,104.384,0.000593061,0.0709807,20.9451,239.917,-0.160989,0.0,0.0
150,37.25,17.5779,18.402,156.142,102.756,103.599,0.00127423,0.073235,20.9416,239.797,-0.0748104,0.0,0.0
180,44.75,17.8559,18.2102,158.468,102.951,103.884,0.00127878,0.0750591,20.9406,239.697,-0.0826855,0.0,0.0
210,52.25,17.6472,18.9074,160.854,103.132,103.072,0.00105509,0.0704984,20.9451,239.607,0.00527461,0.0,0.0
240,59.75,17.969,18.235,159.358,103.347,102.1,0.00111787,0.0687986,20.9472,239.497,0.111304,0.0,0.0
270,67.25,18.333,18.5397,157.838,103.552,102.822,0.00128268,0.0687652,20.9483,239.357,0.0648206,0.0,0.0
300,74.75,17.9526,18.6518,155.92,103.78,103.036,0.00196978,0.0687944,20.9488,239.217,0.0658585,0.0,0.0
330,82.25,18.3027,18.7921,154.616,103.995,102.162,0.00174579,0.0694852,20.9464,239.077,0.162917,0.0,0.0
360,89.75,18.5322,19.2934,156.873,104.149,102.573,0.00187446,0.0774353,20.9341,238.886,0.139803,0.0,0.0
390,97.25,18.6398,19.1062,158.115,104.204,102.822,0.00225563,0.0757132,20.9402,238.736,0.122335,0.0,0.0
420,104.75,20.5871,20.6462,130.481,104.234,121.032,0.00329442,0.304119,20.6451,237.885,-1.36916,0.0,0.0
450,112.25,30.0108,28.7556,138.22,104.205,116.571,0.00448566,0.585898,20.3385,236.484,-1.02755,0.0,0.0
480,119.75,33.756,33.1743,141.214,104.099,112.77,0.00405187,0.436589,20.5125,235.503,-0.733161,0.0,0.0
510,127.25,35.2741,35.5001,148.776,104.002,111.191,0.0027972,0.352326,20.619,234.753,-0.612471,0.0,1.0
540,134.75,35.5559,36.5965,146.864,103.861,112.163,0.00262363,0.307952,20.6708,234.012,-0.704707,0.0,0.0
570,142.25,35.7911,37.2557,153.671,103.743,110.691,0.00272313,0.282955,20.6991,233.391,-0.594039,0.0,0.0
600,149.75,35.4618,37.8093,148.1,103.615,110.781,0.00247514,0.262593,20.7255,232.791,-0.612729,0.0,0.0
630,157.25,35.3596,37.761,152.369,103.515,111.503,0.00225437,0.247633,20.7431,232.23,-0.681148,0.0,0.0
660,164.75,34.7113,37.2479,149.811,103.437,111.36,0.00242605,0.236048,20.7559,231.68,-0.676335,0.0,0.0
690,172.25,34.3685,37.3472,150.784,103.36,112.056,0.00258886,0.231455,20.7616,231.179,-0.740237,0.0,0.0
720,179.75,34.1399,37.0819,152.441,103.444,110.067,0.00252509,0.227643,20.7659,230.629,-0.568623,0.0,0.0
750,187.25,33.7359,36.6268,154.868,103.617,111.682,0.00229502,0.225828,20.767,230.128,-0.686812,0.0,0.0
780,194.75,33.7278,36.8817,151.418,103.75,110.718,0.00257995,0.225783,20.7658,229.608,-0.595692,0.0,0.0
810,202.25,33.7362,36.4866,146.135,103.845,111.548,0.00244961,0.222819,20.7683,229.128,-0.6557,0.0,0.0
840,209.75,33.5631,36.4902,152.839,103.888,111.485,0.00274064,0.219478,20.7734,228.637,-0.646782,0.0,0.0
870,217.25,33.1399,36.2386,151.946,103.904,111.61,0.0025965,0.216699,20.7793,228.157,-0.65558,0.0,0.0
900,224.75,32.751,36.0035,151.215,103.881,111.057,0.00279286,0.21237,20.7841,227.686,-0.612115,0.0,0.0
930,232.25,32.7558,35.5327,148.482,103.817,112.699,0.00279466,0.210495,20.7864,227.236,-0.752199,0.0,0.0
960,239.75,32.3052,35.1236,152.605,103.702,111.039,0.00284728,0.208858,20.7892,226.795,-0.62644,0.0,0.0
990,247.25,32.381,35.067,148.695,103.534,111.307,0.00272552,0.208053,20.7901,226.355,-0.663311,0.0,0.0
1020,254.75,31.9929,34.8512,151.956,103.312,110.29,0.00231701,0.207355,20.7917,225.885,-0.598928,0.0,0.0
1050,262.25,31.9672,34.7701,153.124,103.058,110.504,0.00261386,0.207167,20.7896,225.444,-0.639272,0.0,0.0
1080,269.75,31.9716,34.52,151.495,103.009,110.397,0.00288699,0.20558,20.7934,224.994,-0.6347,0.0,0.0
1110,277.25,32.0575,34.366,153.273,103.074,110.834,0.00292351,0.205015,20.7919,224.553,-0.665131,0.0,0.0
1140,284.75,31.8444,34.5276,151.361,103.152,110.789,0.0025149,0.205174,20.7918,224.113,-0.65453,0.0,0.0
1170,292.25,31.6983,34.018,151.077,103.261,110.995,0.00267518,0.204747,20.7909,223.693,-0.661826,0.0,0.0
1200,299.75,31.3071,33.7283,149.032,103.357,110.763,0.00302946,0.205169,20.7881,223.252,-0.634135,0.0,0.0
1230,307.25,31.5771,33.9123,152.365,103.431,110.629,0.00330233,0.203686,20.7904,222.832,-0.616465,0.0,0.0
1260,314.75,31.4396,33.8634,150.311,103.493,111.708,0.00356033,0.202083,20.7922,222.411,-0.699953,0.0,0.0
1290,322.25,31.0462,33.2966,154.205,103.499,111.78,0.00334106,0.202772,20.7903,221.991,-0.705316,0.0,0.0
1320,329.75,31.1371,33.4297,150.749,103.455,110.745,0.0035492,0.200234,20.7963,221.551,-0.623996,0.0,0.0
1350,337.25,31.2799,33.3728,153.299,103.345,111.325,0.00326118,0.198949,20.7987,221.15,-0.681535,0.0,0.0
1380,344.75,31.1697,33.2433,153.373,103.222,110.022,0.00311608,0.196805,20.8024,220.75,-0.584621,0.0,0.0
1410,352.25,31.113,33.1507,151.467,103.087,110.763,0.00366153,0.195838,20.8039,220.36,-0.658057,0.0,0.0
1440,359.75,30.8321,32.884,157.012,102.925,110.727,0.00340745,0.195346,20.8031,219.939,-0.669547,0.0,0.0
1470,367.25,30.8979,33.0201,152.422,102.805,110.45,0.00385655,0.192843,20.8037,219.549,-0.657346,0.0,0.0
1500,374.75,30.6255,32.5698,149.298,102.687,110.593,0.00376519,0.192545,20.8052,219.159,-0.679681,0.0,0.0
1530,382.25,30.399,32.5476,153.177,102.585,110.459,0.00346068,0.191876,20.8045,218.758,-0.677732,0.0,0.0
1560,389.75,30.5466,32.5434,150.933,102.466,110.531,0.00344191,0.191629,20.8044,218.388,-0.694212,0.0,0.0
1590,397.25,30.8679,32.8358,151.185,102.358,109.558,0.0041306,0.191208,20.8079,217.987,-0.622932,0.0,0.0
1620,404.75,30.8014,32.7919,149.101,102.267,110.218,0.00399557,0.190728,20.8083,217.597,-0.686131,0.0,0.0
1650,412.25,30.3827,32.2944,149.893,102.196,110.272,0.0038972,0.19051,20.8084,217.187,-0.696943,0.0,0.0
1680,419.75,30.4905,32.261,152.2,102.148,108.773,0.00398567,0.191796,20.8066,216.806,-0.575806,0.0,0.0
1710,427.25,30.488,32.2792,152.374,102.126,109.442,0.00370135,0.191876,20.8061,216.426,-0.634024,0.0,0.0
1740,434.75,30.6733,32.6145,150.78,102.109,110.12,0.00385514,0.191551,20.8061,216.036,-0.692147,0.0,0.0
1770,442.25,30.5547,32.5621,150.745,102.117,108.907,0.00378906,0.19395,20.8038,215.635,-0.589895,0.0,0.0
1800,449.75,30.8965,32.9137,152.461,102.118,110.245,0.00400208,0.19478,20.8016,215.255,-0.701733,0.0,0.0
1830,457.25,30.5339,32.2262,149.492,102.127,109.496,0.00369875,0.193479,20.804,214.855,-0.63839,0.0,0.0
1860,464.75,30.8876,32.3919,148.111,102.165,109.398,0.00397651,0.19217,20.8053,214.454,-0.626781,0.0,0.0
1890,472.25,31.1798,32.7018,152.01,102.19,109.63,0.00408106,0.190685,20.8074,214.084,-0.643941,0.0,0.0
1920,479.75,30.7781,32.4941,150.666,102.253,109.924,0.00374078,0.190551,20.8068,213.684,-0.662878,0.0,0.0
1950,487.25,30.4057,32.0473,150.805,102.299,109.781,0.00372809,0.189,20.8082,213.323,-0.646858,0.0,0.0
1980,494.75,30.6908,32.2344,151.911,102.372,109.264,0.00444645,0.188721,20.8081,212.933,-0.597017,0.0,0.0
2010,502.25,30.7911,32.4847,153.057,102.429,110.665,0.00460181,0.186787,20.8107,212.553,-0.708607,0.0,0.0
2040,509.75,30.636,32.0972,149.167,102.475,110.379,0.00437501,0.18604,20.8129,212.172,-0.680869,0.0,0.0
2070,517.25,30.5519,32.2953,151.958,102.581,110.602,0.00457672,0.184406,20.8137,211.792,-0.689869,0.0,0.0
2100,524.75,30.5447,32.2431,147.423,102.628,109.906,0.00446779,0.18386,20.8137,211.442,-0.627857,0.0,0.0
2130,532.25,30.0194,31.687,154.352,102.696,110.397,0.00508736,0.182579,20.8163,211.071,-0.66257,0.0,0.0
2160,539.75,30.3774,31.86,151.445,102.747,110.879,0.0050973,0.18199,20.8173,210.711,-0.697922,0.0,0.0
2190,547.25,30.4406,31.9891,154.648,102.817,109.995,0.00542072,0.180606,20.8194,210.341,-0.618458,0.0,0.0
2220,554.75,30.2904,31.9201,152.5,102.902,110.593,0.00482704,0.182873,20.8174,209.98,-0.660472,0.0,0.0
2250,562.25,30.2829,31.9787,154.595,102.98,111.262,0.0045603,0.181582,20.8171,209.61,-0.708823,0.0,0.0
2280,569.75,29.8865,31.4778,151.948,103.064,110.789,0.00474073,0.182793,20.8161,209.25,-0.662387,0.0,0.0
2310,577.25,30.1798,31.8443,150.713,103.14,112.226,0.00429021,0.184119,20.8145,208.879,-0.77359,0.0,0.0
2340,584.75,30.3255,31.7376,148.826,103.211,109.817,0.0045157,0.185528,20.8129,208.489,-0.568533,0.0,0.0
2370,592.25,30.3263,31.8569,155.279,103.288,111.012,0.00464202,0.186226,20.8141,208.109,-0.660923,0.0,0.0
2400,599.75,30.3913,32.0585,151.201,103.366,110.825,0.00479979,0.186768,20.8125,207.758,-0.638509,0.0,0.0
2430,607.25,30.6737,32.1093,152.485,103.409,111.12,0.00440707,0.187812,20.8112,207.368,-0.65894,0.0,0.0
2460,614.75,30.5621,32.0429,153.448,103.446,111.057,0.00425716,0.18897,20.8111,206.998,-0.650549,0.0,0.0
2490,622.25,30.6641,32.0262,156.233,103.492,110.789,0.00390195,0.189106,20.8121,206.607,-0.624375,0.0,0.0
2520,629.75,30.3926,32.0582,151.749,103.538,112.333,0.00370135,0.190259,20.8111,206.237,-0.747089,0.0,0.0
2550,637.25,30.4598,32.0293,152.133,103.578,111.717,0.00373585,0.189035,20.8106,205.856,-0.693199,0.0,0.0
2580,644.75,30.6901,32.1167,148.389,103.628,110.584,0.00395481,0.188538,20.8096,205.486,-0.595352,0.0,0.0
2610,652.25,30.402,32.3378,151.965,103.706,111.289,0.00427878,0.188476,20.8091,205.116,-0.646694,0.0,0.0
2640,659.75,30.4047,32.2668,154.465,103.762,112.369,0.00390492,0.187326,20.8102,204.745,-0.730197,0.0,0.0
2670,667.25,30.9461,32.3813,147.292,103.841,111.53,0.00382395,0.185459,20.8136,204.345,-0.654534,0.0,0.0
2700,674.75,30.9447,32.3305,154.144,103.907,110.879,0.00430022,0.185137,20.8125,203.995,-0.595056,0.0,0.0
2730,682.25,31.0972,32.7543,154.373,103.931,110.986,0.00437209,0.184266,20.8137,203.634,-0.601801,0.0,0.0
2760,689.75,30.1737,31.9087,147.959,103.944,111.931,0.0041962,0.185549,20.8128,203.244,-0.67839,0.0,0.0
2790,697.25,30.8763,32.1629,151.024,103.947,111.137,0.00406244,0.183902,20.8129,202.884,-0.612891,0.0,0.0
2820,704.75,30.66,32.0731,148.04,103.985,111.887,0.00418594,0.183853,20.813,202.503,-0.671103,0.0,0.0
2850,712.25,30.5573,32.5228,151.829,103.996,112.038,0.00449982,0.182512,20.815,202.163,-0.682579,0.0,0.0
2880,719.75,30.8083,32.5738,150.371,103.985,111.102,0.00444409,0.179913,20.8187,201.793,-0.606576,0.0,0.0
2910,727.25,30.632,31.9881,151.152,104.007,111.244,0.00446866,0.179338,20.8187,201.432,-0.616432,0.0,0.0
2940,734.75,30.3498,32.0439,152.026,103.998,112.511,0.00441048,0.179995,20.8187,201.082,-0.721022,0.0,0.0
2970,742.25,30.1435,32.0903,151.333,103.98,110.602,0.00438626,0.177581,20.8243,200.732,-0.565726,0.0,0.0
3000,749.75,30.1515,31.7545,152.15,103.96,110.834,0.00512052,0.17548,20.828,200.372,-0.586685,0.0,0.0
3030,757.25,29.4954,31.3427,150.432,103.962,111.2,0.00553782,0.175083,20.8282,200.021,-0.61669,0.0,0.0
3060,764.75,29.7184,31.343,154.141,103.958,111.655,0.00542551,0.172994,20.8286,199.671,-0.654483,0.0,0.0
3090,772.25,29.9518,31.5384,153.36,103.953,111.36,0.00536648,0.171407,20.8286,199.331,-0.630738,0.0,0.0
3120,779.75,29.729,31.4858,150.532,103.951,110.923,0.00487008,0.172064,20.8275,198.98,-0.594919,0.0,0.0
3150,787.25,29.8835,31.3547,151.275,103.934,110.932,0.00532175,0.170111,20.831,198.65,-0.597118,0.0,0.0
3180,794.75,29.8873,31.4772,153.831,103.944,110.638,0.00542759,0.171189,20.8311,198.29,-0.571904,0.0,0.0
3210,802.25,29.2988,31.4663,152.755,103.966,110.477,0.00604831,0.168909,20.8332,197.949,-0.556607,0.0,0.0
3240,809.75,29.4468,31.1632,152.419,103.985,111.298,0.00599976,0.170653,20.8312,197.599,-0.622751,0.0,0.0
3270,817.25,29.4826,31.0206,152.549,104.005,111.128,0.00516607,0.17161,20.827,197.269,-0.60706,0.0,0.0
3300,824.75,29.6349,31.2102,154.757,104.035,111.708,0.00532028,0.172105,20.8267,196.938,-0.652096,0.0,0.0
3330,832.25,29.7409,31.3535,151.493,104.05,110.584,0.00553999,0.17168,20.8282,196.578,-0.558069,0.0,0.0
3360,839.75,29.6652,31.3936,150.744,104.077,110.433,0.00526121,0.172774,20.8272,196.228,-0.543171,0.0,0.0
3390,847.25,29.6918,31.2896,154.303,104.087,109.933,0.00537494,0.171403,20.8292,195.907,-0.500723,0.0,0.0
3420,854.75,29.494,31.062,153.738,104.115,110.397,0.00617531,0.170956,20.8291,195.547,-0.536843,0.0,0.0
3450,862.25,29.6718,31.0322,155.766,104.123,110.834,0.00613256,0.171774,20.8288,195.227,-0.572348,0.0,0.0
3480,869.75,29.5854,30.8077,153.564,104.141,111.369,0.00617229,0.170965,20.8285,194.877,-0.614889,0.0,0.0
3510,877.25,29.4455,30.722,153.475,104.153,110.575,0.00620513,0.171205,20.828,194.566,-0.548313,0.0,0.0
3540,884.75,29.5712,30.9108,152.518,104.152,111.111,0.00652376,0.168267,20.832,194.196,-0.592605,0.0,0.0
3570,892.25,29.3611,31.1156,153.686,104.173,111.601,0.00675183,0.164486,20.8389,193.866,-0.631151,0.0,0.0
3600,899.75,29.4054,30.8758,154.658,104.187,110.754,0.00639857,0.164556,20.8372,193.525,-0.560097,0.0,0.0
3630,907.25,29.6749,30.7693,152.432,104.185,110.54,0.00672049,0.163203,20.8399,193.175,-0.542551,0.0,0.0
3660,914.75,29.2416,30.5394,153.654,104.187,110.433,0.00735386,0.161209,20.8407,192.845,-0.533447,0.0,0.0
3690,922.25,28.8131,30.7578,157.966,104.178,110.745,0.00762655,0.161069,20.8421,192.534,-0.560182,0.0,0.0
3720,929.75,28.9653,30.1568,150.808,104.192,110.334,0.00763649,0.159539,20.842,192.194,-0.524852,0.0,0.0
3750,937.25,28.4965,30.1486,153.715,104.188,109.139,0.00747845,0.159373,20.8432,191.864,-0.425395,0.0,0.0
3780,944.75,28.7061,30.0782,150.043,104.184,109.746,0.00760791,0.159793,20.8433,191.513,-0.476566,0.0,0.0
3810,952.25,28.3372,30.2197,152.173,104.181,110.04,0.0070413,0.160083,20.8431,191.183,-0.501377,0.0,0.0
3840,959.75,28.4953,30.167,152.222,104.167,111.539,0.00698736,0.162708,20.8417,190.863,-0.626583,0.0,0.0
3870,967.25,28.5619,29.9914,149.827,104.177,110.406,0.0072441,0.160533,20.8439,190.543,-0.532161,0.0,0.0
3900,974.75,29.0065,30.0401,152.384,104.169,110.62,0.00820628,0.155622,20.8465,190.212,-0.550588,0.0,0.0
3930,982.25,28.4759,29.9551,154.048,104.161,110.245,0.00723511,0.160322,20.8429,189.882,-0.520243,0.0,0.0
3960,989.75,28.4016,29.9442,152.003,104.155,111.039,0.00688349,0.159507,20.8439,189.552,-0.586529,0.0,0.0
3990,997.25,28.6867,30.1311,153.681,104.135,110.37,0.00736848,0.161188,20.842,189.211,-0.532826,0.0,0.0
4020,1004.75,28.5186,29.8399,148.641,104.132,111.325,0.00704176,0.160454,20.8436,188.871,-0.612079,0.0,0.0
4050,1012.25,28.4648,29.6823,155.982,104.116,110.343,0.00697421,0.159868,20.8445,188.551,-0.532287,0.0,0.0
4080,1019.75,28.3708,29.7071,150.875,104.103,111.075,0.00695209,0.160581,20.8417,188.231,-0.593999,0.0,0.0
4110,1027.25,28.7812,29.8917,153.322,104.1,110.549,0.00723173,0.159895,20.8431,187.88,-0.550733,0.0,0.0
4140,1034.75,28.3637,29.7755,153.402,104.092,110.602,0.00721649,0.158777,20.8433,187.55,-0.555917,0.0,0.0
4170,1042.25,28.4145,29.4531,154.742,104.114,111.655,0.00667823,0.159146,20.8438,187.23,-0.640781,0.0,0.0
4200,1049.75,28.84,30.1099,151.171,104.117,111.012,0.00711306,0.159546,20.8442,186.889,-0.587649,0.0,0.0
4230,1057.25,28.6691,29.6955,152.809,104.12,110.459,0.00766332,0.158105,20.8455,186.559,-0.541614,0.0,0.0
4260,1064.75,28.1919,29.989,153.557,104.114,110.575,0.00726253,0.159085,20.8441,186.229,-0.551717,0.0,0.0
4290,1072.25,28.6398,29.7323,152.516,104.102,110.129,0.00739113,0.158711,20.8444,185.878,-0.515722,0.0,0.0
4320,1079.75,28.0213,29.5824,157.465,104.119,110.227,0.00710282,0.157571,20.8464,185.528,-0.522388,0.0,0.0
4350,1087.25,28.0374,29.6046,151.808,104.129,110.156,0.00746189,0.157441,20.8453,185.228,-0.515593,0.0,0.0
4380,1094.75,28.6121,29.9093,154.158,104.138,111.396,0.00746916,0.15711,20.847,184.897,-0.617353,0.0,0.0
4410,1102.25,28.167,29.7355,153.471,104.145,110.406,0.00720684,0.158083,20.8465,184.567,-0.534965,0.0,0.0
4440,1109.75,28.0084,29.8193,155.631,104.13,109.353,0.00824536,0.154491,20.8481,184.227,-0.448441,0.0,0.0
4470,1117.25,28.159,29.4462,157.998,104.154,110.067,0.0086158,0.152828,20.8513,183.897,-0.505961,0.0,0.0
4500,1124.75,28.2394,29.6138,158.227,104.152,110.227,0.00848224,0.15272,20.8539,183.556,-0.519509,0.0,0.0
4530,1132.25,27.9778,29.3149,152.616,104.161,109.969,0.00834401,0.153456,20.8514,183.216,-0.497152,0.0,0.0
4560,1139.75,27.7892,29.4771,159.06,104.149,110.45,0.0086392,0.155109,20.8512,182.886,-0.538293,0.0,0.0
4590,1147.25,27.7311,29.0715,155.808,104.138,111.021,0.00884912,0.1516,20.855,182.555,-0.586515,0.0,0.0
4620,1154.75,28.4789,29.1277,155.195,104.148,109.87,0.00860853,0.150745,20.8562,182.225,-0.49013,0.0,0.0
4650,1162.25,28.0166,29.3025,147.761,104.143,110.468,0.008931,0.149485,20.8592,181.885,-0.540297,0.0,0.0
4680,1169.75,27.9456,29.5415,151.955,104.135,108.96,0.0089212,0.149186,20.8591,181.544,-0.415038,0.0,0.0
4710,1177.25,28.1988,29.1143,150.27,104.151,110.29,0.00846114,0.149699,20.8571,181.214,-0.52481,0.0,0.0
4740,1184.75,27.7571,29.2766,150.659,104.138,109.665,0.00862387,0.149867,20.8571,180.914,-0.473935,0.0,0.0
4770,1192.25,27.6921,28.7797,156.889,104.149,109.549,0.00931246,0.147803,20.8603,180.554,-0.463229,0.0,0.0
4800,1199.75,27.713,29.2777,152.875,104.153,111.111,0.00910501,0.146963,20.8596,180.223,-0.592567,0.0,0.0
4830,1207.25,27.8045,29.0289,151.211,104.17,109.076,0.00926758,0.146128,20.8617,179.893,-0.421721,0.0,0.0
4860,1214.75,27.3654,28.7905,153.72,104.17,109.424,0.00961731,0.146505,20.8626,179.573,-0.450905,0.0,0.0
4890,1222.25,27.3626,28.9952,150.841,104.155,109.103,0.00943381,0.147061,20.8617,179.242,-0.425278,0.0,0.0
4920,1229.75,27.5809,29.0434,156.946,104.163,108.96,0.00942008,0.145468,20.8625,178.912,-0.412645,0.0,0.0
4950,1237.25,27.4627,28.9284,157.099,104.158,110.317,0.00964624,0.144019,20.8635,178.582,-0.526398,0.0,0.0
4980,1244.75,27.3107,28.7404,155.969,104.151,109.353,0.0101048,0.14289,20.865,178.271,-0.446608,0.0,0.0
5010,1252.25,27.5397,29.0745,153.077,104.143,109.808,0.0100442,0.142804,20.8634,177.951,-0.485405,0.0,0.0
5040,1259.75,26.5271,28.1129,156.857,104.103,107.774,0.0101976,0.141879,20.8642,177.601,-0.317544,0.0,0.0
5070,1267.25,26.5643,27.7254,151.594,104.083,109.103,0.0101619,0.13976,20.8675,177.301,-0.431637,0.0,0.0
5100,1274.75,26.8779,27.9648,151.515,104.054,109.023,0.0104252,0.141738,20.8658,176.99,-0.427473,0.0,0.0
5130,1282.25,26.4966,28.1413,150.739,104.012,109.219,0.0105358,0.139373,20.8683,176.63,-0.447661,0.0,0.0
5160,1289.75,26.6811,27.7469,153.338,103.976,110.397,0.0102206,0.139254,20.8676,176.33,-0.549083,0.0,0.0
5190,1297.25,26.2275,27.9496,152.837,103.889,109.487,0.0104518,0.138077,20.8686,176.009,-0.480881,0.0,0.0
5220,1304.75,26.6853,27.9352,152.816,103.833,109.157,0.0102224,0.139423,20.8672,175.689,-0.458199,0.0,0.0
5250,1312.25,26.5086,28.4425,152.074,103.785,109.389,0.0100945,0.140731,20.8674,175.379,-0.481853,0.0,0.0
5280,1319.75,26.9395,27.6602,150.046,103.763,109.353,0.00936064,0.142533,20.8655,175.049,-0.480852,0.0,0.0
5310,1327.25,26.4802,27.7453,155.78,103.714,109.594,0.00853584,0.14541,20.8614,174.728,-0.505332,0.0,0.0
5340,1334.75,26.8136,28.0814,159.096,103.695,109.433,0.00899317,0.147894,20.8592,174.408,-0.493586,0.0,0.0
5370,1342.25,26.8973,28.3292,153.212,103.725,109.986,0.00927345,0.146632,20.8594,174.078,-0.53712,0.0,0.0
5400,1349.75,26.8285,28.1625,153.376,103.741,109.13,0.00874272,0.149592,20.8567,173.747,-0.464095,0.0,0.0
5430,1357.25,27.0899,28.4025,154.521,103.784,108.773,0.00830425,0.149834,20.8568,173.427,-0.430289,0.0,0.0
5460,1364.75,27.1533,28.3333,148.509,103.828,108.497,0.00922748,0.14839,20.8587,173.127,-0.403057,0.0,0.0
5490,1372.25,27.419,28.2839,152.496,103.874,109.362,0.00947494,0.146592,20.8613,172.787,-0.471808,0.0,0.0
5520,1379.75,27.7266,28.7419,151.726,103.954,109.068,0.0106503,0.142341,20.8654,172.486,-0.440022,0.0,0.0
5550,1387.25,26.7322,28.2275,155.264,104.033,109.13,0.0104171,0.14421,20.8631,172.146,-0.438264,0.0,0.0
5580,1394.75,27.1341,28.3426,150.089,104.111,109.862,0.00962263,0.146617,20.8607,171.806,-0.49264,0.0,0.0
5610,1402.25,27.3947,28.7852,155.137,104.135,109.692,0.00811367,0.15077,20.856,171.495,-0.476433,0.0,0.0
5640,1409.75,27.239,28.6147,157.84,104.143,109.639,0.00796038,0.152501,20.8535,171.155,-0.471249,0.0,0.0
5670,1417.25,27.4838,28.8185,154.266,104.18,109.175,0.00862462,0.152196,20.8546,170.835,-0.429102,0.0,0.0
5700,1424.75,27.9259,28.959,154.387,104.18,109.326,0.00936206,0.152592,20.8554,170.484,-0.441861,0.0,0.0
5730,1432.25,27.5548,28.9059,156.997,104.162,109.201,0.00944491,0.152054,20.8553,170.164,-0.432919,0.0,0.0
5760,1439.75,27.5755,29.1991,154.834,104.143,110.085,0.00795521,0.156965,20.8484,169.844,-0.50842,0.0,0.0
5790,1447.25,27.9689,29.2368,153.901,104.129,109.603,0.00755401,0.157753,20.8468,169.504,-0.4695,0.0,0.0
5820,1454.75,28.1614,29.2845,150.657,104.118,110.094,0.00815833,0.156797,20.8485,169.183,-0.511406,0.0,0.0
5850,1462.25,28.0359,29.2902,153.579,104.118,109.594,0.00960788,0.153759,20.8524,168.853,-0.469726,0.0,0.0
5880,1469.75,28.393,29.7174,153.492,104.087,108.443,0.00932363,0.152359,20.8551,168.513,-0.375682,0.0,0.0
5910,1477.25,27.7267,29.5081,155.547,104.082,109.487,0.0087231,0.153801,20.854,168.182,-0.463876,0.0,0.0
5940,1484.75,27.8619,29.3782,148.811,104.067,110.076,0.00793165,0.155747,20.8524,167.852,-0.514373,0.0,0.0
5970,1492.25,27.8503,29.3998,154.772,104.075,111.343,0.00695735,0.157599,20.8484,167.532,-0.618522,0.0,0.0
6000,1499.75,28.3913,29.8512,152.01,104.091,111.191,0.00713731,0.156606,20.8499,167.201,-0.60461,0.0,0.0
6030,1507.25,28.5429,29.7921,149.52,104.108,110.441,0.0075902,0.156199,20.8515,166.871,-0.541181,0.0,0.0
6060,1514.75,28.6774,29.7881,153.261,104.118,109.71,0.0077568,0.155387,20.8523,166.551,-0.479344,0.0,0.0
6090,1522.25,28.4627,29.8352,151.962,104.102,109.888,0.00843238,0.153381,20.8549,166.251,-0.495694,0.0,0.0
6120,1529.75,28.0595,29.5604,152.503,104.114,109.772,0.00879221,0.1518,20.8561,165.93,-0.484933,0.0,0.0
6150,1537.25,28.449,29.939,155.308,104.132,110.21,0.00882875,0.152854,20.8541,165.61,-0.51982,0.0,0.0
6180,1544.75,27.7238,29.5353,154.939,104.131,109.014,0.0082497,0.152816,20.8532,165.28,-0.419951,0.0,0.0
6210,1552.25,28.203,29.5624,152.88,104.145,109.924,0.00812613,0.152562,20.8539,164.959,-0.494855,0.0,0.0
6240,1559.75,27.9943,29.4816,150.719,104.165,109.951,0.00828334,0.15217,20.8544,164.649,-0.495365,0.0,0.0
6270,1567.25,28.1486,29.5231,154.068,104.176,110.165,0.008388,0.150053,20.8561,164.359,-0.512221,0.0,0.0
6300,1574.75,28.3654,29.7577,153.789,104.154,109.54,0.00840509,0.151566,20.8549,164.049,-0.462033,0.0,0.0
6330,1582.25,28.0789,29.7694,152.658,104.15,108.372,0.00824813,0.151134,20.8574,163.738,-0.364075,0.0,0.0
6360,1589.75,27.7411,29.0514,154.319,104.163,109.755,0.00847549,0.149919,20.8576,163.418,-0.479142,0.0,0.0
6390,1597.25,28.4925,29.6409,152.72,104.145,110.165,0.00892594,0.149029,20.8563,163.138,-0.514913,0.0,0.0
6420,1604.75,28.3848,29.2414,150.218,104.152,109.612,0.00896135,0.148493,20.8565,162.827,-0.468152,0.0,0.0
6450,1612.25,28.0209,29.7717,153.647,104.131,109.728,0.00879223,0.14824,20.8565,162.537,-0.479712,0.0,0.0
6480,1619.75,28.1416,29.3401,155.737,104.118,109.906,0.00902692,0.146985,20.8581,162.227,-0.495724,0.0,0.0
6510,1627.25,27.3723,29.4582,151.578,104.112,109.656,0.00858371,0.147986,20.855,161.907,-0.47547,0.0,0.0
6540,1634.75,27.6366,29.7837,153.186,104.091,109.969,0.00908028,0.147877,20.8569,161.616,-0.503361,0.0,0.0
6570,1642.25,27.9299,29.7667,152.348,104.082,108.96,0.00868549,0.147883,20.8583,161.336,-0.419752,0.0,0.0
6600,1649.75,27.6401,29.1643,152.721,104.087,109.478,0.0086625,0.14653,20.8608,161.016,-0.462717,0.0,0.0
6630,1657.25,27.7194,29.3608,153.614,104.12,110.816,0.00860036,0.146513,20.8613,160.716,-0.571172,0.0,0.0
6660,1664.75,28.0661,28.9064,157.397,104.145,111.102,0.00854713,0.146807,20.8611,160.405,-0.592504,0.0,0.0
6690,1672.25,28.0823,29.2357,153.709,104.114,110.709,0.00799028,0.149941,20.8591,160.155,-0.562838,0.0,0.0
6720,1679.75,27.9811,28.8426,153.39,104.017,110.691,0.00814829,0.148784,20.8608,159.865,-0.569857,0.0,0.0
6750,1687.25,28.0531,29.3059,155.448,103.764,110.022,0.00796831,0.148554,20.8599,159.545,-0.536677,0.0,0.0
6780,1694.75,28.1045,29.6821,151.838,103.324,110.691,0.00835952,0.147561,20.8623,159.244,-0.631093,0.0,0.0
6810,1702.25,27.8727,29.4853,152.153,102.743,108.925,0.00805303,0.145235,20.8663,158.964,-0.535388,0.0,0.0
6840,1709.75,28.0961,29.8709,152.273,102.227,108.149,0.009016,0.145885,20.8645,158.644,-0.515992,0.0,0.0
6870,1717.25,28.8822,29.761,149.655,102.052,108.282,0.00873544,0.14486,20.8658,158.424,-0.542996,0.0,0.0
6900,1724.75,28.5476,30.1592,156.335,102.301,109.344,0.00809685,0.146005,20.8637,158.093,-0.610144,0.0,0.0
6930,1732.25,28.724,30.2646,153.383,102.823,108.354,0.00772657,0.14529,20.8657,157.783,-0.48014,0.0,0.0
6960,1739.75,28.2366,29.7957,153.019,103.288,109.415,0.00784953,0.145096,20.866,157.543,-0.528144,0.0,0.0
6990,1747.25,28.1374,30.1903,154.489,103.421,109.844,0.00833756,0.143459,20.8667,157.222,-0.552144,0.0,0.0
7020,1754.75,28.3933,30.7267,148.637,103.228,110.129,0.00820563,0.143616,20.8668,156.912,-0.593004,0.0,0.0
7050,1762.25,28.5158,30.192,149.986,102.963,109.576,0.00827003,0.14336,20.8669,156.642,-0.5704,0.0,0.0
7080,1769.75,29.1763,30.1736,151.021,103.496,110.102,0.00906336,0.142503,20.8665,156.352,-0.567002,0.0,0.0
7110,1777.25,28.3771,30.4384,151.081,103.819,109.674,0.00896244,0.142607,20.8661,156.021,-0.502736,0.0,0.0
7140,1784.75,28.526,30.1346,154.386,103.28,110.433,0.00852324,0.142515,20.8669,155.751,-0.61357,0.0,0.0
7170,1792.25,28.5776,29.8553,155.895,103.768,110.102,0.00853555,0.143697,20.8666,155.451,-0.542986,0.0,0.0
7200,1799.75,28.198,30.1919,152.689,104.145,110.923,0.00804688,0.146341,20.8647,155.141,-0.577775,0.0,0.0
7230,1807.25,28.8431,30.0287,153.227,103.866,109.514,0.00763025,0.14443,20.8661,154.87,-0.485182,0.0,0.0
7260,1814.75,28.62,29.9458,155.077,102.949,109.21,0.00779319,0.144344,20.8666,154.56,-0.541045,0.0,0.0
7290,1822.25,28.6762,30.3703,150.506,102.156,108.256,0.00846304,0.144433,20.8656,154.3,-0.531462,0.0,0.0
7320,1829.75,28.5015,29.7778,155.309,102.32,108.737,0.0084447,0.143614,20.8653,154.02,-0.557409,0.0,0.0
7350,1837.25,28.5029,30.0934,153.024,103.106,108.996,0.00846684,0.144297,20.8647,153.699,-0.509112,0.0,0.0
7380,1844.75,28.4626,29.9479,151.01,103.433,109.576,0.00837737,0.145195,20.8637,153.389,-0.528696,0.0,0.0
7410,1852.25,28.4052,29.7041,150.736,103.022,109.273,0.00779085,0.146091,20.864,153.149,-0.539779,0.0,0.0
7440,1859.75,28.041,29.9075,155.459,103.667,111.441,0.00734746,0.145587,20.8644,152.838,-0.66263,0.0,0.0
7470,1867.25,28.1514,29.8718,155.699,103.426,109.317,0.0076372,0.144351,20.8646,152.568,-0.5076,0.0,0.0
7500,1874.75,28.0095,29.8745,151.132,103.911,110.691,0.00795322,0.143301,20.8663,152.278,-0.579184,0.0,0.0
7530,1882.25,27.7827,29.7307,150.412,104.042,110.745,0.00833798,0.14443,20.8664,151.958,-0.572115,0.0,0.0
7560,1889.75,28.36,29.6801,151.002,102.922,109.844,0.00784954,0.144326,20.8647,151.677,-0.596388,0.0,0.0
7590,1897.25,28.1089,29.649,151.753,102.123,109.068,0.00760866,0.145583,20.8636,151.427,-0.602864,0.0,0.0
7620,1904.75,28.3031,29.6247,153.164,102.822,108.354,0.00757759,0.14515,20.863,151.137,-0.480216,0.0,0.0
7650,1912.25,28.2686,29.7091,151.273,103.466,110.192,0.00778555,0.145478,20.863,150.857,-0.577134,0.0,0.0
7680,1919.75,28.1129,29.5158,157.143,102.98,109.763,0.00786603,0.146321,20.8615,150.576,-0.584541,0.0,0.0
7710,1927.25,28.2957,29.9859,152.503,103.757,109.772,0.00815363,0.14598,20.8613,150.296,-0.516448,0.0,0.0
7740,1934.75,28.6571,29.6925,151.898,103.428,110.433,0.00744459,0.146191,20.8613,150.036,-0.600456,0.0,0.0
7770,1942.25,28.3237,29.8137,154.475,104.145,110.772,0.00753975,0.145837,20.862,149.726,-0.565238,0.0,0.0
7800,1949.75,28.1522,30.214,153.293,103.319,110.745,0.00788506,0.145449,20.8635,149.445,-0.635976,0.0,0.0
7830,1957.25,28.1961,29.8623,151.548,102.174,109.567,0.00737673,0.145914,20.8636,149.205,-0.640206,0.0,0.0
7860,1964.75,28.4087,29.9152,157.567,102.624,110.102,0.00792067,0.145593,20.8648,148.895,-0.644511,0.0,0.0
7890,1972.25,28.5019,29.9737,150.007,103.248,111.146,0.00784318,0.143257,20.8673,148.605,-0.675432,0.0,0.0
7920,1979.75,28.3056,29.7881,157.101,103.498,109.728,0.00798083,0.144846,20.8646,148.334,-0.535574,0.0,0.0
7950,1987.25,28.4613,29.8595,154.825,103.371,110.094,0.00798353,0.150034,20.8574,148.064,-0.577329,0.0,0.0
7980,1994.75,28.5346,29.9234,153.132,103.008,109.576,0.00718525,0.15634,20.8486,147.754,-0.566391,0.0,0.0
8010,2002.25,28.5363,30.4185,155.778,103.434,108.577,0.00733474,0.151064,20.8551,147.474,-0.444677,0.0,0.0
8040,2009.75,28.6529,29.5242,148.409,103.857,109.978,0.00734068,0.149057,20.858,147.163,-0.524669,0.0,0.0
8070,2017.25,28.5269,29.7187,152.758,103.697,109.915,0.00754249,0.148448,20.8607,146.893,-0.533612,0.0,0.0
8100,2024.75,28.4741,29.7655,152.705,103.464,110.013,0.00659932,0.151665,20.8575,146.603,-0.562433,0.0,0.0
8130,2032.25,28.9653,29.4996,155.627,103.773,109.674,0.00766904,0.151398,20.8571,146.303,-0.506788,0.0,0.0
8160,2039.75,28.7897,30.1153,150.877,104.08,109.835,0.00693198,0.151537,20.8577,146.002,-0.493175,0.0,0.0
8190,2047.25,28.9372,29.9679,150.111,104.256,110.227,0.00662489,0.152253,20.8561,145.732,-0.510389,0.0,0.0
8220,2054.75,28.7847,30.208,147.925,104.296,110.995,0.00650579,0.154769,20.8542,145.452,-0.570441,0.0,0.0
8250,2062.25,29.0399,30.9258,152.827,104.192,110.094,0.00668676,0.153022,20.8545,145.141,-0.504824,0.0,0.0
8280,2069.75,29.1881,30.4199,152.293,103.976,109.862,0.00659323,0.155261,20.8514,144.861,-0.504581,0.0,0.0
8310,2077.25,28.4435,30.2852,155.173,103.746,109.487,0.00603445,0.157063,20.8494,144.541,-0.493523,0.0,0.0
8340,2084.75,28.9802,31.1757,149.783,103.434,109.781,0.00618641,0.159333,20.8495,144.251,-0.545728,0.0,0.0
8370,2092.25,29.6398,30.491,155.083,103.142,108.827,0.0059108,0.159312,20.8503,143.95,-0.49164,0.0,0.0
8400,2099.75,29.0524,30.6933,151.26,102.859,107.917,0.00585358,0.15977,20.8477,143.64,-0.439877,0.0,0.0
8430,2107.25,29.568,30.9452,152.569,102.596,107.836,0.00564816,0.161228,20.8464,143.36,-0.456524,0.0,0.0
8460,2114.75,29.9304,30.2943,150.718,102.465,108.818,0.00577574,0.162416,20.8458,143.03,-0.551164,0.0,0.0
8490,2122.25,29.5983,31.2834,152.703,102.393,109.344,0.00569355,0.163287,20.8458,142.719,-0.601848,0.0,0.0
8520,2129.75,29.1543,31.235,151.792,102.392,107.774,0.00552269,0.164432,20.8419,142.409,-0.469379,0.0,0.0
8550,2137.25,30.0756,31.0571,152.967,102.462,108.158,0.00552146,0.164553,20.8391,142.119,-0.495742,0.0,0.0
8580,2144.75,29.327,31.3895,151.131,102.578,109.139,0.00548155,0.16421,20.8406,141.778,-0.568103,0.0,0.0
8610,2152.25,30.1112,31.4892,151.865,102.735,108.514,0.00515673,0.165682,20.841,141.478,-0.501556,0.0,0.0
8640,2159.75,30.1838,31.0765,151.523,102.919,107.863,0.00523756,0.166511,20.8396,141.138,-0.429993,0.0,0.0
8670,2167.25,30.0162,31.504,155.498,103.129,108.568,0.00550113,0.166677,20.8395,140.858,-0.470961,0.0,0.0
8700,2174.75,30.0189,31.7064,148.063,103.303,109.264,0.00534252,0.16702,20.838,140.547,-0.514075,0.0,0.0
8730,2182.25,30.3062,31.7814,152.796,103.389,108.782,0.00566945,0.167568,20.8369,140.237,-0.465932,0.0,0.0
8760,2189.75,30.3428,31.6647,150.062,103.5,109.692,0.00545081,0.16869,20.8353,139.907,-0.532443,0.0,0.0
8790,2197.25,30.447,32.1098,149.788,103.557,110.361,0.00532662,0.169924,20.8333,139.586,-0.583091,0.0,0.0
8820,2204.75,30.3938,31.8585,153.409,103.601,108.996,0.00490633,0.169103,20.8333,139.286,-0.465173,0.0,0.0
8850,2212.25,30.1114,32.3571,152.16,103.658,110.183,0.00523397,0.171634,20.8296,138.986,-0.559355,0.0,0.0
8880,2219.75,30.617,32.1129,154.108,103.691,109.665,0.00500229,0.171304,20.8302,138.646,-0.513327,0.0,0.0
8910,2227.25,30.2077,31.9232,150.034,103.724,108.773,0.00514913,0.171411,20.8316,138.325,-0.435507,0.0,0.0
8940,2234.75,30.221,32.5235,151.032,103.722,110.522,0.00472818,0.173522,20.8296,137.985,-0.581835,0.0,0.0
8970,2242.25,30.3815,32.1929,157.583,103.676,109.228,0.00481968,0.173273,20.8284,137.675,-0.478002,0.0,0.0
9000,2249.75,30.4206,32.337,149.569,103.632,111.039,0.00512114,0.175819,20.8265,137.384,-0.632601,0.0,0.0
9030,2257.25,30.9576,32.8056,154.244,103.57,110.379,0.00489309,0.176871,20.8258,137.014,-0.583445,0.0,0.0
9060,2264.75,30.6995,32.3242,156.466,103.549,109.3,0.00506736,0.176496,20.8256,136.714,-0.495227,0.0,0.0
9090,2272.25,31.0677,32.701,148.434,103.506,111.012,0.00470509,0.178853,20.8253,136.334,-0.641561,0.0,0.0
9120,2279.75,31.2264,32.0988,152.142,103.511,109.014,0.00432227,0.178967,20.8233,136.023,-0.474647,0.0,0.0
9150,2287.25,30.96,32.6819,149.514,103.523,111.512,0.00433883,0.181669,20.8203,135.703,-0.681242,0.0,0.0
9180,2294.75,31.6391,32.9642,149.817,103.555,109.424,0.0042617,0.181983,20.8215,135.343,-0.505166,0.0,0.0
9210,2302.25,30.7748,32.9485,153.87,103.603,109.451,0.00451888,0.182825,20.8224,135.022,-0.503195,0.0,0.0
9240,2309.75,31.6066,33.1701,152.773,103.637,110.129,0.00395349,0.18389,20.8185,134.662,-0.556781,0.0,0.0
9270,2317.25,31.8121,33.6421,152.919,103.679,110.477,0.0038274,0.185448,20.8165,134.312,-0.582004,0.0,0.0
9300,2324.75,31.8029,33.6988,156.112,103.711,108.702,0.00382101,0.186042,20.8163,133.991,-0.430693,0.0,0.0
9330,2332.25,31.9474,32.7231,148.84,103.719,110.95,0.00403939,0.185045,20.8164,133.631,-0.617573,0.0,0.0
9360,2339.75,31.3857,33.5358,158.826,103.738,109.701,0.00376754,0.18789,20.8158,133.291,-0.512178,0.0,0.0
9390,2347.25,31.8072,33.8486,149.132,103.712,111.2,0.0038325,0.189516,20.8139,132.94,-0.63882,0.0,0.0
9420,2354.75,31.7747,33.7651,149.602,103.659,110.441,0.00397608,0.190766,20.8139,132.58,-0.580772,0.0,0.0
9450,2362.25,32.3741,33.46,154.589,103.611,111.03,0.00384946,0.191181,20.812,132.22,-0.633707,0.0,0.0
9480,2369.75,31.8203,34.7181,152.603,103.457,110.772,0.00406885,0.191904,20.8107,131.839,-0.626022,0.0,0.0
9510,2377.25,32.4952,34.3316,148.791,103.329,110.754,0.00420519,0.193873,20.8086,131.469,-0.635846,0.0,0.0
9540,2384.75,32.9993,34.0515,149.853,103.157,111.36,0.00423683,0.195663,20.8064,131.139,-0.701182,0.0,0.0
9570,2392.25,32.8672,34.6759,152.916,102.956,110.29,0.00405946,0.196346,20.8054,130.738,-0.630536,0.0,0.0
9600,2399.75,32.7777,34.7721,151.816,102.771,109.969,0.00376243,0.197442,20.804,130.378,-0.620321,0.0,0.0
9630,2407.25,32.9436,34.8105,154.373,102.601,109.237,0.00352031,0.200492,20.8011,129.968,-0.574289,0.0,0.0
9660,2414.75,32.93,35.4257,153.728,102.519,110.218,0.00362573,0.201051,20.8011,129.607,-0.663575,0.0,0.0
9690,2422.25,32.9898,35.0932,150.606,102.433,110.397,0.00384048,0.201815,20.7997,129.237,-0.686114,0.0,0.0
9720,2429.75,33.5476,35.2295,148.438,102.431,111.387,0.00364153,0.202102,20.7987,128.837,-0.768137,0.0,0.0
9750,2437.25,33.7341,35.7748,150.613,102.483,109.96,0.00383853,0.202324,20.7981,128.446,-0.645269,0.0,0.0
9780,2444.75,34.0198,35.4303,152.071,102.593,109.995,0.0035772,0.204185,20.7976,128.076,-0.638443,0.0,0.0
9810,2452.25,33.8445,35.9777,154.083,102.714,109.184,0.00365993,0.205585,20.7926,127.676,-0.559706,0.0,0.0
9840,2459.75,33.8056,35.8233,154.381,102.845,110.361,0.00360309,0.205728,20.7928,127.285,-0.64638,0.0,0.0
9870,2467.25,34.0357,35.3141,145.874,102.992,110.254,0.00390247,0.205718,20.7941,126.915,-0.624394,0.0,0.0
9900,2474.75,34.4359,35.5347,150.923,103.161,111.958,0.00385797,0.209359,20.7914,126.495,-0.749897,0.0,0.0
9930,2482.25,33.9866,35.8803,153.824,103.293,111.146,0.0036418,0.209244,20.7902,126.124,-0.671473,0.0,0.0
9960,2489.75,34.4131,36.1819,154.353,103.459,110.665,0.00337066,0.207972,20.7916,125.744,-0.616935,0.0,0.0
9990,2497.25,34.408,36.0601,149.533,103.598,113.234,0.00358525,0.208205,20.7915,125.324,-0.814961,0.0,0.0
10020,2504.75,34.5116,36.349,151.508,103.745,112.752,0.00354885,0.210527,20.7905,124.923,-0.762892,0.0,0.0
10050,2512.25,34.4193,36.4452,152.671,103.909,111.78,0.00386155,0.209802,20.7916,124.483,-0.669037,0.0,0.0
10080,2519.75,34.6286,36.6168,148.508,104.072,111.94,0.00404593,0.210604,20.7876,124.102,-0.667885,0.0,0.0
10110,2527.25,34.6082,36.8146,150.706,104.224,112.377,0.00368783,0.212292,20.7869,123.742,-0.690214,0.0,0.0
10140,2534.75,34.6481,36.3999,151.391,104.311,112.404,0.00362894,0.21235,20.7861,123.312,-0.684776,0.0,0.0
10170,2542.25,34.8992,36.7149,153.241,104.382,113.136,0.00355417,0.213099,20.7859,122.911,-0.737952,0.0,0.0
10200,2549.75,35.0521,36.8244,152.224,104.394,112.511,0.00382128,0.215882,20.7835,122.481,-0.686147,0.0,0.0
10230,2557.25,35.2733,36.8764,148.85,104.362,114.046,0.00385693,0.216864,20.781,122.061,-0.813117,0.0,0.0
10260,2564.75,35.3624,36.6859,146.036,104.263,112.36,0.00389727,0.218399,20.7805,121.66,-0.685359,0.0,0.0
10290,2572.25,35.3431,37.5183,153.654,104.144,112.806,0.0036542,0.218859,20.7798,121.23,-0.732132,0.0,0.0
10320,2579.75,35.76,37.5669,152.561,103.973,113.403,0.00365437,0.220145,20.7771,120.809,-0.795569,0.0,0.0
10350,2587.25,35.3741,37.8284,153.999,103.805,111.575,0.00362059,0.222698,20.7747,120.389,-0.661388,0.0,0.0
10380,2594.75,35.8436,37.7385,150.422,103.656,111.664,0.00358224,0.223073,20.7734,119.969,-0.681891,0.0,0.0
10410,2602.25,35.749,37.8635,148.004,103.546,111.28,0.00366688,0.224953,20.7713,119.528,-0.660129,0.0,0.0
10440,2609.75,36.1769,38.3281,149.593,103.586,112.832,0.00375083,0.231555,20.7626,119.078,-0.783466,0.0,0.0
10470,2617.25,36.3566,38.197,150.207,103.817,113.288,0.00379834,0.232901,20.7618,118.617,-0.799951,0.0,0.0
10500,2624.75,36.4257,38.6345,146.91,103.942,113.475,0.00359735,0.234193,20.759,118.197,-0.80407,0.0,0.0
10530,2632.25,36.7351,38.8165,144.276,103.983,112.485,0.00344065,0.236735,20.7567,117.737,-0.720152,0.0,0.0
10560,2639.75,36.7551,38.5066,148.959,104.01,113.939,0.00325284,0.237065,20.7554,117.296,-0.835464,0.0,0.0
10590,2647.25,37.0995,39.2324,153.11,103.988,113.073,0.003183,0.235368,20.7562,116.816,-0.767547,0.0,0.0
10620,2654.75,37.0295,39,149.153,103.983,112.538,0.00319554,0.238057,20.7522,116.355,-0.724475,0.0,0.0
10650,2662.25,37.197,39.3267,147.677,103.935,112.021,0.0030713,0.238374,20.7541,115.885,-0.686477,0.0,0.0
10680,2669.75,37.2035,39.4316,147.505,103.888,112.913,0.00300729,0.235355,20.757,115.455,-0.763366,0.0,0.0
10710,2677.25,37.2211,39.4312,145.998,103.826,113.02,0.0030884,0.239141,20.753,114.994,-0.777451,0.0,0.0
10740,2684.75,37.3424,39.764,147.519,103.701,113.038,0.00311081,0.235988,20.7555,114.534,-0.78997,0.0,0.0
10770,2692.25,37.6106,39.8842,145.186,103.551,113.395,0.00327683,0.234164,20.7592,114.113,-0.832159,0.0,0.0
10800,2699.75,37.3965,39.9237,152.351,103.367,112.404,0.00316456,0.23285,20.759,113.663,-0.768006,0.0,0.0
10830,2707.25,37.0919,39.8028,147.605,103.092,112.467,0.00295153,0.231132,20.7612,113.213,-0.797506,0.0,0.0
10860,2714.75,37.2868,39.8037,153.468,103.128,111.967,0.0026975,0.231213,20.7617,112.762,-0.753573,0.0,0.0
10890,2722.25,37.2906,39.7974,149.149,103.188,111.851,0.00293549,0.229949,20.764,112.342,-0.738753,0.0,0.0
10920,2729.75,37.4805,39.5308,141.652,103.268,115.134,0.00332119,0.228311,20.7663,111.951,-0.996725,0.0,0.0
10950,2737.25,37.3747,39.7262,147.092,103.35,111.824,0.0031871,0.227382,20.7665,111.501,-0.722115,0.0,0.0
10980,2744.75,37.3755,39.8627,144.529,103.409,111.905,0.00364239,0.226084,20.7679,111.111,-0.723456,0.0,0.0
11010,2752.25,37.6319,39.1272,148.801,103.523,112.074,0.00328679,0.227265,20.7679,110.69,-0.727276,0.0,0.0
11040,2759.75,36.951,39.5763,152.17,103.593,112.69,0.00355135,0.226206,20.7688,110.26,-0.771265,0.0,0.0
11070,2767.25,37.112,39.1374,144.044,103.673,112.262,0.00314886,0.223842,20.7704,109.88,-0.729273,0.0,0.0
11100,2774.75,36.1404,39.6697,152.864,103.713,111.646,0.00345364,0.220532,20.7744,109.479,-0.675393,0.0,0.0
11130,2782.25,36.7672,38.6783,147.382,103.714,113.18,0.00339211,0.219836,20.773,109.069,-0.800407,0.0,0.0
11160,2789.75,36.9387,38.7633,148.502,103.683,112.092,0.0033027,0.217512,20.7765,108.708,-0.7146,0.0,0.0
11190,2797.25,36.7962,38.9074,148.56,103.584,110.798,0.00339048,0.212413,20.7817,108.318,-0.616949,0.0,0.0
11220,2804.75,36.4395,38.6437,153.045,103.475,111.967,0.0034803,0.212137,20.7833,107.918,-0.72277,0.0,0.0
11250,2812.25,36.1495,38.2363,148.297,103.333,112.262,0.00318439,0.20676,20.7873,107.577,-0.759452,0.0,0.0
11280,2819.75,36.1327,38.178,152.663,103.183,111.36,0.00339927,0.205124,20.7904,107.207,-0.698842,0.0,0.0
11310,2827.25,35.8125,37.9703,145.158,103.048,111.343,0.00400348,0.208948,20.7865,106.827,-0.709422,0.0,0.0
11340,2834.75,35.9468,37.8804,146.367,102.862,111.012,0.00398128,0.209698,20.7847,106.486,-0.698784,0.0,0.0
11370,2842.25,35.6073,37.9088,150.622,102.687,110.29,0.00374731,0.205764,20.7884,106.156,-0.654551,0.0,0.0
11400,2849.75,35.4904,37.713,149.221,102.545,110.138,0.00400982,0.205833,20.789,105.816,-0.654618,0.0,0.0
11430,2857.25,35.4859,37.8623,152.475,102.434,110.236,0.00429947,0.207702,20.7867,105.476,-0.67266,0.0,0.0
11460,2864.75,35.5568,37.273,149.035,102.395,110.245,0.00369523,0.202769,20.7917,105.095,-0.6769,0.0,0.0
11490,2872.25,34.956,37.1363,152.554,102.416,110.343,0.0039398,0.199562,20.7932,104.775,-0.683153,0.0,0.0
11520,2879.75,34.667,37.3664,147.095,102.502,109.844,0.00421478,0.20053,20.7938,104.475,-0.633927,0.0,0.0
11550,2887.25,35.2116,36.9328,150.185,102.616,111.164,0.00465174,0.199279,20.7943,104.114,-0.733206,0.0,0.0
11580,2894.75,34.6905,37.0733,149.073,102.787,110.031,0.0049143,0.19888,20.7937,103.784,-0.624045,0.0,0.0
11610,2902.25,34.6552,36.5537,150.217,103.007,110.415,0.00462153,0.198176,20.7943,103.474,-0.636407,0.0,0.0
11640,2909.75,34.144,36.2673,149.327,103.165,111.039,0.00456439,0.196962,20.7969,103.183,-0.673998,0.0,0.0
11670,2917.25,34.2317,36.0544,152.442,103.36,112.163,0.0046776,0.195837,20.8004,102.843,-0.748988,0.0,0.0
11700,2924.75,34.3468,36.3192,154.586,103.498,110.709,0.00499774,0.194709,20.8006,102.533,-0.617204,0.0,0.0
11730,2932.25,34.5421,35.8861,150.103,103.626,110.968,0.00457866,0.19208,20.805,102.263,-0.627273,0.0,0.0
11760,2939.75,34.1381,35.867,148.218,103.788,110.691,0.00511061,0.194257,20.8007,101.912,-0.59006,0.0,0.0
11790,2947.25,34.0772,36.0141,143.754,103.947,111.021,0.00469391,0.192718,20.8022,101.632,-0.60336,0.0,0.0
11820,2954.75,33.615,35.8324,151.628,104.118,110.147,0.00485001,0.190762,20.8038,101.302,-0.51586,0.0,0.0
11850,2962.25,33.5117,35.529,148.811,104.263,110.21,0.00475281,0.189633,20.8051,101.042,-0.508233,0.0,0.0
11880,2969.75,33.765,35.3764,145.555,104.337,110.629,0.00454611,0.18855,20.8072,100.751,-0.536571,0.0,0.0
11910,2977.25,33.7571,35.1185,154.26,104.397,111.601,0.00478141,0.188573,20.8056,100.461,-0.611469,0.0,0.0
11940,2984.75,33.3604,35.2131,152.104,104.401,111.459,0.00569402,0.188698,20.8031,100.181,-0.599443,0.0,0.0
11970,2992.25,33.4459,34.9378,148.463,104.349,109.844,0.0058163,0.188604,20.8039,99.8805,-0.470225,0.0,0.0
12000,2999.75,33.35,34.8452,154.031,104.25,111.682,0.00541644,0.187444,20.8046,99.6202,-0.631014,0.0,0.0
12030,3007.25,33.2941,35.0214,148.958,104.094,110.932,0.00575419,0.185594,20.8072,99.31,-0.583039,0.0,0.0
12060,3014.75,32.7405,34.84,150.236,103.923,111.503,0.00606231,0.184829,20.8081,99.0497,-0.645137,0.0,0.0
12090,3022.25,32.7106,34.5196,150.443,103.746,110.54,0.00568216,0.184372,20.8081,98.7595,-0.58125,0.0,0.0
12120,3029.75,32.7301,34.0686,151.152,103.618,111.36,0.00528565,0.18777,20.8031,98.4792,-0.660309,0.0,0.0
12150,3037.25,32.9428,34.4371,147.381,103.527,110.343,0.00492866,0.186727,20.8044,98.229,-0.584281,0.0,0.0
12180,3044.75,32.5345,34.3962,153.991,103.644,110.54,0.00494303,0.185014,20.8064,97.9287,-0.590227,0.0,0.0
12210,3052.25,33.0985,34.0592,150.607,103.866,110.727,0.00542926,0.184034,20.8108,97.6585,-0.586187,0.0,0.0
12240,3059.75,32.4161,34.4968,154.056,103.99,110.852,0.00591787,0.182305,20.8124,97.3682,-0.585575,0.0,0.0
12270,3067.25,32.3086,34.4599,156.369,104.028,110.156,0.00595964,0.183141,20.8108,97.088,-0.524499,0.0,0.0
12300,3074.75,32.6728,34.3501,153.786,104.016,111.236,0.00561348,0.184051,20.8076,96.8277,-0.614873,0.0,0.0
12330,3082.25,32.4101,34.2164,151.199,103.901,110.896,0.00520632,0.181988,20.8094,96.5875,-0.597055,0.0,0.0
12360,3089.75,32.8811,33.7536,147.072,103.753,110.968,0.00529237,0.182098,20.8105,96.3173,-0.616005,0.0,0.0
12390,3097.25,32.4752,34.3071,151.687,103.491,110.29,0.00544266,0.182582,20.8104,96.077,-0.583032,0.0,0.0
12420,3104.75,32.4809,33.5771,154.303,103.184,110.031,0.00665809,0.183568,20.8073,95.8268,-0.588722,0.0,0.0
12450,3112.25,32.4074,33.7824,149.692,103.137,109.371,0.00591359,0.181912,20.8108,95.5265,-0.537728,0.0,0.0
12480,3119.75,32.2163,33.9212,147.459,103.193,109.835,0.00572374,0.181097,20.8127,95.2763,-0.571607,0.0,0.0
12510,3127.25,32.3195,33.8175,153.629,103.259,108.693,0.00560341,0.178845,20.8162,95.0261,-0.469986,0.0,0.0
12540,3134.75,32.2766,33.7223,154.563,103.324,109.487,0.00555308,0.179318,20.8153,94.7759,-0.530877,0.0,0.0
12570,3142.25,32.229,33.6433,152.793,103.398,108.969,0.00613614,0.174548,20.8197,94.5757,-0.480947,0.0,0.0
12600,3149.75,31.9957,33.4042,152.845,103.468,109.041,0.00582319,0.176812,20.8169,94.3154,-0.480697,0.0,0.0
12630,3157.25,31.507,33.9578,153.406,103.538,109.38,0.00652714,0.175623,20.818,94.0752,-0.502972,0.0,0.0
12660,3164.75,31.259,33.6219,155.028,103.628,108.755,0.0066251,0.174631,20.8191,93.825,-0.442569,0.0,0.0
12690,3172.25,31.6825,33.048,155.235,103.683,110.691,0.0052712,0.17453,20.818,93.5848,-0.599372,0.0,0.0
12720,3179.75,31.872,32.9658,150.252,103.713,110.085,0.00502075,0.173997,20.8183,93.3446,-0.546307,0.0,0.0
12750,3187.25,31.5833,33.3298,150.944,103.705,109.817,0.00526023,0.172787,20.8196,93.0943,-0.524713,0.0,0.0
12780,3194.75,31.7274,33.4468,150.309,103.615,110.379,0.00576804,0.17097,20.8226,92.8841,-0.579497,0.0,0.0
12810,3202.25,31.8649,32.4922,151.874,103.517,110.459,0.00677668,0.168096,20.8255,92.6539,-0.594848,0.0,0.0
12840,3209.75,31.2488,33.3107,151.166,103.349,109.442,0.00689986,0.166703,20.8281,92.4738,-0.524957,0.0,0.0
12870,3217.25,31.022,32.5414,152.498,103.16,110.129,0.00710306,0.164341,20.8296,92.2536,-0.599044,0.0,0.0
12900,3224.75,31.1492,32.0606,153.041,102.964,109.192,0.00694189,0.162556,20.8326,92.0334,-0.538148,0.0,0.0
12930,3232.25,31.0958,32.0584,156.932,102.774,108.488,0.00654039,0.162674,20.8312,91.8432,-0.495771,0.0,0.0
12960,3239.75,30.8763,31.9157,155.656,102.602,108.184,0.00636228,0.162515,20.8314,91.633,-0.485511,0.0,0.0
12990,3247.25,30.862,31.8233,148.759,102.47,109.38,0.00622931,0.161317,20.833,91.4328,-0.597993,0.0,0.0
13020,3254.75,30.613,30.9601,152.738,102.38,107.979,0.00662006,0.157076,20.8384,91.2427,-0.487951,0.0,0.0
13050,3262.25,30.1012,31.5077,156.779,102.371,108.523,0.0066185,0.155086,20.8405,91.0825,-0.534781,0.0,0.0
13080,3269.75,29.587,31.9435,153.176,102.403,108.14,0.00659361,0.154437,20.8406,90.9023,-0.499515,0.0,0.0
13110,3277.25,29.8677,30.9652,152.209,102.522,108.015,0.00681149,0.154843,20.8405,90.7322,-0.478244,0.0,0.0
13140,3284.75,29.1269,31.3147,152.024,102.683,108.898,0.00733942,0.149495,20.8463,90.552,-0.538521,0.0,0.0
13170,3292.25,29.1737,31.1119,157.107,102.902,109.157,0.00668175,0.148386,20.8467,90.3919,-0.540753,0.0,0.0
13200,3299.75,29.5207,30.4005,155.749,103.12,109.442,0.00716723,0.143053,20.8528,90.2618,-0.545292,0.0,0.0
13230,3307.25,29.2912,30.0945,152.538,103.314,108.666,0.00731624,0.14345,20.8544,90.0916,-0.46279,0.0,0.0
13260,3314.75,29.0674,30.092,152.71,103.54,108.559,0.00763539,0.138613,20.8621,89.9515,-0.433799,0.0,0.0
13290,3322.25,28.7298,29.8855,154.22,103.725,108.095,0.00796603,0.135277,20.8669,89.8014,-0.378132,0.0,0.0
13320,3329.75,28.0568,29.788,153.051,103.923,107.622,0.00839481,0.136372,20.8655,89.6913,-0.320516,0.0,0.0
13350,3337.25,28.3312,29.3656,152.665,104.114,107.23,0.0089203,0.134885,20.8668,89.5411,-0.270182,0.0,0.0
13380,3344.75,28.0648,29.0693,151.714,104.254,108.372,0.00909349,0.131953,20.8695,89.441,-0.354955,0.0,0.0
13410,3352.25,27.5842,29.2486,153.84,104.359,108.871,0.00846176,0.132716,20.868,89.3209,-0.387843,0.0,0.0
13440,3359.75,27.6209,28.3306,153.012,104.402,109.674,0.00813005,0.129578,20.8715,89.1908,-0.451446,0.0,0.0
13470,3367.25,27.1945,28.5387,155.127,104.383,109.433,0.00846897,0.128084,20.8732,89.0807,-0.432977,0.0,0.0
13500,3374.75,27.0911,28.5333,156.853,104.311,108.372,0.00857326,0.129084,20.8727,88.9506,-0.349951,0.0,0.0
13530,3382.25,26.9285,28.4643,155.734,104.204,107.917,0.00930822,0.124228,20.8782,88.8405,-0.320811,0.0,0.0
13560,3389.75,26.527,27.8052,157.069,104.088,108.3,0.0091155,0.124527,20.8776,88.7304,-0.3635,0.0,0.0
13590,3397.25,26.0155,27.2988,155.518,103.965,108.809,0.00926687,0.122839,20.8802,88.6403,-0.417285,0.0,0.0
13620,3404.75,26.3558,26.6771,153.254,103.82,107.667,0.009139,0.12182,20.8806,88.5202,-0.333425,0.0,0.0
13650,3412.25,25.8775,26.8883,153.438,103.718,107.711,0.00906688,0.123257,20.878,88.4201,-0.346153,0.0,0.0
13680,3419.75,25.6018,26.3548,151.387,103.604,107.506,0.00886033,0.123168,20.8796,88.33,-0.338824,0.0,0.0
13710,3427.25,25.5848,26.2458,155.935,103.532,107.212,0.00902966,0.123232,20.8784,88.2399,-0.320012,0.0,0.0
13740,3434.75,25.566,26.1515,154.993,103.613,107.328,0.0090318,0.12383,20.8784,88.1298,-0.322775,0.0,0.0
13770,3442.25,25.2249,26.3476,150.92,103.754,107.14,0.00887692,0.123285,20.8777,88.0397,-0.294294,0.0,0.0
13800,3449.75,25.4803,26.2606,153.807,103.876,107.256,0.00894607,0.123674,20.8767,87.9497,-0.293441,0.0,0.0
13830,3457.25,25.1974,26.0534,157.417,103.945,108.523,0.00865238,0.12398,20.8759,87.8496,-0.395009,0.0,0.0
13860,3464.75,25.36,26.092,151.964,104.03,107.14,0.00840302,0.122834,20.8782,87.7695,-0.270002,0.0,0.0
13890,3472.25,25.4061,25.9088,154.005,104.034,107.132,0.00828595,0.123357,20.8778,87.6494,-0.268827,0.0,0.0
13920,3479.75,24.9172,25.9469,156.14,104.042,106.552,0.00818697,0.123638,20.8785,87.5893,-0.218416,0.0,0.0
13950,3487.25,25.1002,25.908,156.316,104.039,108.684,0.00852165,0.12373,20.8771,87.4893,-0.400243,0.0,0.0
13980,3494.75,25.2029,25.9004,155.44,103.996,107.756,,0.123624,,87.4092,-0.325498,0.0,0.0
14010,3502.25,24.856,25.7318,150.888,103.949,107.016,,,,87.3091,-0.266429,0.0,0.0
14016,3503.75,25.0595,25.5231,156.116,103.923,107.524,,,,87.2891,-0.312157,0.0,0.0