File: 01_Data/Wood_Stud/Cone/Wood_Stud_Cone_HF25Scan_221004_R1.csv
Names,Time,Stack TC,Smoke TC,Exh Press,Smoke Comp,Smoke Meas,CO Meter,CO2 Meter,O2 Meter,Sample Mass,Ext Coeff,Start Test,Flame Verif
Chan Gain,,500,500,1,1,1,1,1,1,1,1,1.0,1.0
Offset,,0,0,0.140306,0,0,0,0,0,0,0,0.0,0.0
Gain,,1,1,25.011,14.0162,15.5607,1,1,1,1.0009,1.02981,1.0,1.0
Units,sec,C,C,Pa,%,%,%,%,%,g,/m,,
Baseline,,18.7286,19.4697,159.28,104.838,5.39504,-0.000286681,0.0859206,20.9643,-3.00196,26.8018,,
18,4.25,17.9441,18.5034,156.663,103.5,5.34662,-0.000558781,0.0872818,20.9648,665.06,26.767,0.0,0.0
36,8.75,18.229,19.095,153.725,103.43,5.30721,-0.000688849,0.0850135,20.9675,665,26.8278,0.0,0.0
54,13.25,18.33,19.3371,156.727,103.412,5.3281,-0.000654643,0.0847814,20.9682,664.94,26.7907,0.0,0.0
72,17.75,18.7604,19.6123,159.343,103.492,5.3338,-0.000506994,0.0849229,20.9683,664.89,26.7881,0.0,0.0
90,22.25,18.3793,19.0401,157.148,103.605,5.36372,-0.000487834,0.0840523,20.9694,664.83,26.7474,0.0,0.0
108,26.75,18.5696,19.6342,161.746,103.773,5.34757,-0.000370874,0.0867366,20.9668,664.77,26.7893,0.0,0.0
126,31.25,18.4139,19.4362,157.656,103.998,5.39221,-0.000465808,0.0894188,20.963,664.72,26.7337,0.0,0.0
144,35.75,18.5993,19.4499,161.638,104.261,5.36752,-0.000574044,0.0882953,20.9652,664.66,26.7979,0.0,0.0
162,40.25,18.9315,19.4145,159.149,104.496,5.37417,-0.000621025,0.0868447,20.9656,664.59,26.8072,0.0,0.0
180,44.75,18.8721,19.5281,157.115,104.77,5.44207,-0.000529125,0.0869745,20.9662,664.54,26.7174,0.0,0.0
198,49.25,19.0563,19.4754,160.744,105.031,5.4264,-0.000230948,0.0871326,20.9671,664.47,26.7659,0.0,0.0
216,53.75,18.703,19.1435,161.253,105.216,5.42735,-0.000547844,0.0859907,20.969,664.42,26.7802,0.0,0.0
234,58.25,18.8127,19.4536,157.879,105.38,5.40313,-0.000703741,0.085737,20.9693,664.35,26.8347,0.0,0.0
252,62.75,19.0917,19.8327,160.502,105.477,5.36847,-0.000305403,0.0859706,20.9693,664.28,26.9011,0.0,0.0
270,67.25,18.929,19.6488,155.57,105.48,5.33808,-0.000142165,0.0861024,20.9693,664.209,26.9527,0.0,0.0
288,71.75,18.9405,19.4599,164.459,105.516,5.37797,-0.000105166,0.0862473,20.9693,664.129,26.8885,0.0,0.0
306,76.25,18.9783,19.6008,158.005,105.546,5.38604,-6.54666e-05,0.0865252,20.9679,664.069,26.8775,0.0,0.0
324,80.75,19.254,19.7307,159.434,105.55,5.38556,8.01954e-05,0.0862318,20.9686,663.989,26.8786,0.0,0.0
342,85.25,19.0591,19.7772,158.159,105.505,5.35185,0.000293798,0.086149,20.9676,663.899,26.9316,0.0,0.0
360,89.75,18.9502,19.7944,158.933,105.466,5.32098,0.000399684,0.0861364,20.9704,663.809,26.9804,0.0,0.0
378,94.25,19.5818,19.9051,157.075,105.43,5.32573,0.000475006,0.0863579,20.9697,663.729,26.9693,0.0,0.0
396,98.75,19.0941,19.7273,156.289,105.427,5.37132,0.00059232,0.0865021,20.9694,663.619,26.8921,0.0,0.0
414,103.25,19.0948,20.203,161.498,105.37,5.32193,0.000660059,0.0869883,20.9693,663.509,26.9706,0.0,0.0
432,107.75,19.6345,19.8879,155.208,105.282,5.36847,0.00107922,0.0874629,20.9697,663.429,26.8844,0.0,0.0
450,112.25,19.1341,20.0799,161.499,105.191,5.32003,0.00124865,0.0872364,20.9698,663.309,26.9585,0.0,0.0
468,116.75,19.4459,20.314,159.063,105.089,5.34615,0.00163226,0.0870931,20.9694,663.199,26.9055,0.0,0.0
486,121.25,19.388,20.0559,161.238,105.003,5.30863,0.00180992,0.0878286,20.968,663.099,26.9617,0.0,0.0
504,125.75,19.6597,20.4109,157.253,104.888,5.31481,0.00211777,0.0908265,20.9642,662.968,26.9413,0.0,0.0
522,130.25,19.7323,20.0617,159.374,104.835,5.27302,0.00246275,0.0950345,20.9588,662.858,27.008,0.0,0.0
540,134.75,20.1067,20.4663,143.412,104.743,5.72985,0.00258792,0.165221,20.8927,662.608,26.2496,0.0,1.0
558,139.25,24.2301,23.8658,131.337,104.688,5.91885,0.00412476,0.499757,20.4764,661.567,25.9516,0.0,1.0
576,143.75,29.2453,28.1948,136.421,104.637,5.84239,0.00414802,0.586117,20.3901,660.786,26.0647,0.0,0.0
594,148.25,32.3798,31.9928,149.772,104.766,5.65957,0.00345064,0.516873,20.4619,660.196,26.363,0.0,0.0
612,152.75,34.3568,33.8403,143.951,104.893,5.71655,0.00281696,0.448054,20.5478,659.585,26.2834,0.0,0.0
630,157.25,34.9263,35.5247,148.305,104.971,5.77734,0.0024368,0.397049,20.6048,659.095,26.1946,0.0,0.0
648,161.75,36.188,36.4121,144.004,105.057,5.72415,0.00237689,0.362952,20.6435,658.614,26.2856,0.0,0.0
666,166.25,36.1461,37.386,150.881,105.123,5.74884,0.00203437,0.341486,20.6731,658.124,26.2524,0.0,0.0
684,170.75,36.8198,37.8127,148.7,105.168,5.79586,0.00179898,0.326016,20.6912,657.724,26.1827,0.0,0.0
702,175.25,37.1765,38.2272,148.655,105.19,5.73602,0.00128344,0.310503,20.7102,657.313,26.2783,0.0,0.0
720,179.75,37.3006,39.0281,143.426,105.211,5.78873,0.000968469,0.295377,20.7269,656.953,26.1975,0.0,0.0
738,184.25,35.8911,39.0916,146.542,105.208,5.68664,0.000882004,0.285054,20.7391,656.583,26.358,0.0,0.0
756,188.75,36.4005,38.5828,149.85,105.189,5.84477,0.000981695,0.278124,20.746,656.202,26.1085,0.0,0.0
774,193.25,36.1072,38.8882,149.078,105.169,5.76309,0.000998045,0.270866,20.7541,655.852,26.234,0.0,0.0
792,197.75,35.9614,38.6116,143.978,105.12,5.76974,0.000932417,0.263245,20.7618,655.512,26.2194,0.0,0.0
810,202.25,36.2556,38.5741,148.902,105.091,5.75882,0.00100017,0.257038,20.7692,655.211,26.2339,0.0,0.0
828,206.75,35.9654,38.5709,146.616,105.033,5.80203,0.00117881,0.251895,20.7745,654.891,26.1615,0.0,0.0
846,211.25,35.7613,38.1061,148.918,104.981,5.78588,0.0015056,0.246542,20.7811,654.591,26.1821,0.0,0.0
864,215.75,35.0858,37.9171,154.845,104.921,5.76926,0.00167895,0.240038,20.7912,654.291,26.2029,0.0,0.0
882,220.25,34.4878,38.2488,149.864,104.858,5.79491,0.00171507,0.23581,20.7956,653.98,26.1575,0.0,0.0
900,224.75,34.937,37.5358,151.859,104.789,5.75597,0.00164134,0.233023,20.7998,653.66,26.2124,0.0,0.0
918,229.25,34.5972,37.3864,152.042,104.646,5.78873,0.00153346,0.229655,20.803,653.41,26.1488,0.0,0.0
936,233.75,34.0722,37.5349,153.806,104.522,5.72035,0.0014971,0.226569,20.8058,653.139,26.2455,0.0,0.0
954,238.25,33.7229,37.2598,150.862,104.356,5.73745,0.00199454,0.224481,20.8082,652.869,26.2041,0.0,0.0
972,242.75,33.6499,36.7255,155.837,104.351,5.76594,0.00211051,0.221703,20.8109,652.599,26.159,0.0,0.0
990,247.25,33.7031,36.3408,153.858,104.343,5.75027,0.00225187,0.218582,20.8152,652.329,26.1829,0.0,0.0
1008,251.75,32.624,36.5813,153.682,104.391,5.68759,0.00215641,0.216175,20.8185,652.089,26.2861,0.0,0.0
1026,256.25,32.9258,35.9959,150.127,104.428,5.76119,0.00234284,0.213363,20.8209,651.808,26.1731,0.0,0.0
1044,260.75,32.6279,35.9651,155.31,104.443,5.68569,0.00214528,0.211859,20.8224,651.538,26.2936,0.0,0.0
1062,265.25,32.2605,34.8352,153.81,104.489,5.71038,0.00233889,0.209274,20.8253,651.308,26.2583,0.0,0.0
1080,269.75,32.967,34.8512,154.631,104.514,5.71703,0.00273213,0.207134,20.8273,651.048,26.25,0.0,0.0
1098,274.25,32.3697,34.7233,155.998,104.555,5.66384,0.00280677,0.205188,20.8301,650.837,26.338,0.0,0.0
1116,278.75,31.7669,35.0497,149.183,104.574,5.68616,0.00287327,0.203506,20.8326,650.587,26.3041,0.0,0.0
1134,283.25,31.7155,34.1693,149.675,104.604,5.7232,0.00314463,0.201944,20.8361,650.367,26.248,0.0,0.0
1152,287.75,31.2996,34.178,150.923,104.625,5.67144,0.00336043,0.200091,20.8375,650.127,26.3319,0.0,0.0
1170,292.25,31.3741,33.5695,149.538,104.65,5.73982,0.00336598,0.199264,20.8393,649.877,26.2258,0.0,0.0
1188,296.75,30.8143,34.0432,153.119,104.659,5.64105,0.00372098,0.197564,20.8396,649.666,26.3834,0.0,0.0
1206,301.25,31.0639,33.4429,149.348,104.693,5.68046,0.00390355,0.195585,20.8408,649.416,26.3235,0.0,0.0
1224,305.75,30.5852,33.5647,154.46,104.685,5.68141,0.0038873,0.193966,20.843,649.186,26.3212,0.0,0.0
1242,310.25,30.6501,33.3432,153.815,104.695,5.70516,0.00412503,0.192441,20.8441,648.976,26.2844,0.0,0.0
1260,314.75,30.1605,32.8068,153.551,104.695,5.75787,0.00435286,0.192717,20.8451,648.755,26.2013,0.0,0.0
1278,319.25,29.8151,32.7772,156.663,104.691,5.7213,0.00451393,0.192252,20.8461,648.525,26.2586,0.0,0.0
1296,323.75,30.2877,32.3655,153.516,104.702,5.68711,0.0046873,0.191582,20.8448,648.315,26.3136,0.0,0.0
1314,328.25,29.8412,31.9723,149.556,104.659,5.64817,0.00546121,0.187799,20.8482,648.095,26.372,0.0,0.0
1332,332.75,29.6414,31.9771,154.028,104.635,5.67666,0.00590295,0.185426,20.8518,647.875,26.3245,0.0,0.0
1350,337.25,29.8556,31.7601,151.73,104.59,5.72083,0.00593974,0.185068,20.8518,647.645,26.2505,0.0,0.0
1368,341.75,29.3062,31.9022,151.276,104.53,5.7156,0.00608123,0.185824,20.8513,647.444,26.2537,0.0,0.0
1386,346.25,29.5105,31.4037,157.047,104.482,5.68664,0.00640407,0.184552,20.8518,647.224,26.2954,0.0,0.0
1404,350.75,29.1852,31.3341,152.672,104.403,5.72035,0.00598856,0.185281,20.8511,647.004,26.2352,0.0,0.0
1422,355.25,29.0483,31.1615,155.79,104.326,5.67524,0.00603141,0.18491,20.852,646.774,26.3,0.0,0.0
1440,359.75,28.6143,30.6632,153.854,104.265,5.63867,0.00667252,0.181632,20.8543,646.584,26.3531,0.0,0.0
1458,364.25,28.7648,30.7343,151.288,104.175,5.64105,0.00742411,0.179905,20.8558,646.363,26.3415,0.0,0.0
1476,368.75,28.8305,30.6273,155.08,104.098,5.63392,0.00804029,0.178043,20.8569,646.133,26.3462,0.0,0.0
1494,373.25,28.434,30.6341,156.231,104.033,5.61493,0.00785325,0.177583,20.8587,645.943,26.3712,0.0,0.0
1512,377.75,28.3863,30.2996,152.075,103.981,5.65102,0.00788212,0.178122,20.859,645.723,26.3088,0.0,0.0
1530,382.25,28.1866,30.3045,157.614,103.909,5.6306,0.00814203,0.177241,20.8603,645.513,26.3351,0.0,0.0
1548,386.75,27.9378,30.2411,153.003,103.84,5.6154,0.00765559,0.17712,20.8587,645.302,26.3536,0.0,0.0
1566,391.25,27.8648,30.1171,150.079,103.757,5.64247,0.00727337,0.177564,20.8598,645.102,26.3029,0.0,0.0
1584,395.75,27.989,29.8022,155.726,103.692,5.59973,0.00741228,0.176242,20.8601,644.882,26.366,0.0,0.0
1602,400.25,28.2667,29.935,153.558,103.623,5.59403,0.00745496,0.177151,20.8587,644.682,26.3691,0.0,0.0
1620,404.75,27.7071,29.9359,151.185,103.58,5.62443,0.00732044,0.178064,20.8573,644.452,26.3165,0.0,0.0
1638,409.25,28.0244,29.6437,158.579,103.554,5.57172,0.00744288,0.177913,20.8576,644.251,26.3992,0.0,0.0
1656,413.75,28.3348,29.7806,153.084,103.497,5.57362,0.00704407,0.177376,20.857,644.041,26.3912,0.0,0.0
1674,418.25,27.909,29.7569,155.508,103.467,5.60068,0.00759275,0.176421,20.8582,643.831,26.3448,0.0,0.0
1692,422.75,27.6388,29.5353,153.948,103.416,5.55937,0.00783823,0.175359,20.8602,643.621,26.4072,0.0,0.0
1710,427.25,27.8055,29.1392,154.838,103.384,5.60306,0.00755648,0.175801,20.8593,643.431,26.3337,0.0,0.0
1728,431.75,27.5178,29.4516,151.842,103.343,5.59593,0.00756344,0.175727,20.8588,643.211,26.3417,0.0,0.0
1746,436.25,27.5719,29.1948,153.506,103.318,5.60923,0.00752384,0.175431,20.8597,643.01,26.318,0.0,0.0
1764,440.75,27.6699,29.0623,153.709,103.279,5.57741,0.00757877,0.176212,20.8601,642.82,26.366,0.0,0.0
1782,445.25,28.0374,29.073,156.196,103.256,5.58929,0.00727492,0.177399,20.8576,642.59,26.3447,0.0,0.0
1800,449.75,28.1591,29.4579,155.485,103.237,5.54655,0.00709685,0.178195,20.8552,642.4,26.4124,0.0,0.0
1818,454.25,27.5198,29.3293,151.361,103.21,5.57836,0.00730514,0.178706,20.8547,642.18,26.3584,0.0,0.0
1836,458.75,27.4143,29.4976,153.483,103.211,5.60258,0.0074495,0.179179,20.8543,641.979,26.3194,0.0,0.0
1854,463.25,27.3711,28.8859,153.285,103.204,5.5266,0.00754584,0.178171,20.8563,641.759,26.4421,0.0,0.0
1872,467.75,28.0985,28.8466,155.534,103.218,5.58691,0.00749148,0.177513,20.8586,641.569,26.3453,0.0,0.0
1890,472.25,27.8157,29.1901,153.69,103.219,5.61398,0.00731122,0.178152,20.8571,641.359,26.3017,0.0,0.0
1908,476.75,27.5526,29.2613,154.886,103.237,5.57172,0.00720708,0.180189,20.8554,641.129,26.3715,0.0,0.0
1926,481.25,27.4971,29.0901,157.277,103.252,5.55272,0.00706925,0.179204,20.8549,640.898,26.4037,0.0,0.0
1944,485.75,27.6331,28.7941,156.056,103.268,5.59973,0.00731468,0.179272,20.8565,640.718,26.3289,0.0,0.0
1962,490.25,27.571,29.2811,153.303,103.291,5.6458,0.0072827,0.179341,20.8568,640.538,26.2569,0.0,0.0
1980,494.75,27.7665,28.7241,151.945,103.311,5.58596,0.00704768,0.177904,20.8585,640.318,26.3549,0.0,0.0
1998,499.25,27.915,29.2185,157.638,103.328,5.6192,0.00700146,0.178648,20.8594,640.108,26.3028,0.0,0.0
2016,503.75,27.6616,29.2393,159.602,103.355,5.62395,0.00730823,0.17703,20.8606,639.878,26.2976,0.0,0.0
2034,508.25,28.348,28.7213,149.256,103.403,5.60971,0.00773726,0.175083,20.8628,639.667,26.3246,0.0,0.0
2052,512.75,27.6279,29.1169,155.431,103.432,5.54655,0.007933,0.173589,20.8634,639.457,26.4295,0.0,0.0
2070,517.25,27.3045,29.0257,152.711,103.465,5.60353,0.00785846,0.173539,20.8635,639.267,26.34,0.0,0.0
2088,521.75,27.6428,29.037,153.258,103.507,5.57362,0.00794357,0.171892,20.864,639.057,26.392,0.0,0.0
2106,526.25,27.2557,29.2266,152.986,103.55,5.5475,0.00790312,0.175016,20.8608,638.837,26.4382,0.0,0.0
2124,530.75,27.663,28.8284,155.49,103.614,5.6306,0.00753849,0.177504,20.8573,638.646,26.3095,0.0,0.0
2142,535.25,26.8713,28.3925,154.918,103.672,5.61493,0.00728705,0.178936,20.8555,638.446,26.3397,0.0,0.0
2160,539.75,27.3957,28.8334,150.648,103.733,5.60543,0.00715634,0.177968,20.8558,638.236,26.3604,0.0,0.0
2178,544.25,27.2705,29.1166,151.904,103.787,5.65339,0.00701598,0.177409,20.8583,638.046,26.288,0.0,0.0
2196,548.75,27.8234,28.4424,151.391,103.822,5.66764,0.00716385,0.17573,20.8603,637.846,26.2684,0.0,0.0
2214,553.25,26.9358,28.4965,152.545,103.856,5.67096,0.0071823,0.175837,20.862,637.635,26.266,0.0,0.0
2232,557.75,27.8394,29.2107,155.549,103.847,5.61256,0.00719228,0.176105,20.8609,637.445,26.3588,0.0,0.0
2250,562.25,27.4136,28.6364,155.972,103.857,5.60448,0.00712571,0.178489,20.8583,637.255,26.3727,0.0,0.0
2268,566.75,27.6386,28.8281,149.368,103.88,5.65862,0.00729891,0.182571,20.8539,637.045,26.2878,0.0,0.0
2286,571.25,27.0053,28.6031,155.457,103.933,5.59546,0.00752312,0.181253,20.855,636.835,26.3938,0.0,0.0
2304,575.75,26.8453,28.4615,152.097,103.962,5.59308,0.00731231,0.177462,20.8592,636.625,26.4002,0.0,0.0
2322,580.25,27.3523,29.2254,151.577,104.039,5.60448,0.00743215,0.176317,20.8604,636.424,26.3884,0.0,0.0
2340,584.75,27.4536,29.143,152.788,104.105,5.65767,0.00761596,0.174599,20.8621,636.234,26.3089,0.0,0.0
2358,589.25,27.6564,28.8279,147.589,104.181,5.61778,0.00772763,0.174924,20.8623,636.034,26.3794,0.0,0.0
2376,593.75,27.6284,29.2979,158.003,104.247,5.56269,0.00803301,0.174288,20.8638,635.834,26.4741,0.0,0.0
2394,598.25,27.7959,28.4525,153.942,104.342,5.60258,0.00796011,0.172926,20.867,635.634,26.4178,0.0,0.0
2412,602.75,27.1207,28.5486,154.317,104.441,5.66242,0.00806602,0.171941,20.8688,635.454,26.3304,0.0,0.0
2430,607.25,27.245,28.9814,158.933,104.523,5.59973,0.00823435,0.17194,20.8691,635.253,26.4381,0.0,0.0
2448,611.75,27.1822,28.8871,154.523,104.622,5.62538,0.00884444,0.172295,20.8676,635.043,26.4053,0.0,0.0
2466,616.25,27.6839,29.2857,154.088,104.669,5.61588,0.00851611,0.171702,20.8669,634.843,26.4247,0.0,0.0
2484,620.75,27.6743,28.2421,151.036,104.761,5.62538,0.00817995,0.17178,20.8664,634.653,26.4174,0.0,0.0
2502,625.25,27.2713,28.0471,151.431,104.814,5.61066,0.00776847,0.17105,20.8664,634.443,26.4455,0.0,0.0
2520,629.75,26.9529,28.503,153.163,104.894,5.6192,0.00737865,0.172265,20.8629,634.262,26.4387,0.0,0.0
2538,634.25,27.2348,28.6219,154.29,104.94,5.67761,0.00770703,0.174252,20.8611,634.062,26.3492,0.0,0.0
2556,638.75,27.3287,28.8587,159.134,104.958,5.63677,0.00788307,0.174626,20.8599,633.862,26.416,0.0,0.0
2574,643.25,27.5005,28.1736,154.822,105.012,5.67191,0.00834637,0.171926,20.8627,633.672,26.3645,0.0,0.0
2592,647.75,27.3992,28.7185,154.105,105.034,5.64295,0.00879749,0.171365,20.8648,633.482,26.4127,0.0,0.0
2610,652.25,26.8584,28.5683,154.125,105.102,5.66812,0.00870402,0.174904,20.8607,633.272,26.3783,0.0,0.0
2628,656.75,27.1405,28.7069,153.767,105.112,5.64437,0.0081944,0.176756,20.8588,633.111,26.4171,0.0,0.0
2646,661.25,26.7591,28.9101,151.922,105.131,5.64865,0.00795089,0.174098,20.8601,632.901,26.4119,0.0,0.0
2664,665.75,26.938,28.3782,153.929,105.083,5.70753,0.00806762,0.172758,20.8618,632.731,26.3141,0.0,0.0
2682,670.25,27.1071,28.6495,155.9,105.038,5.64057,0.00807731,0.17225,20.8631,632.511,26.4168,0.0,0.0
2700,674.75,27.0237,28.4036,154.064,104.95,5.67191,0.00789388,0.173652,20.8611,632.301,26.3592,0.0,0.0
2718,679.25,27.1678,28.1514,156.047,104.8,5.73745,0.0079739,0.174234,20.8598,632.131,26.2425,0.0,0.0
2736,683.75,26.8807,28.6252,152.217,104.603,5.70278,0.00796534,0.172502,20.8616,631.94,26.2803,0.0,0.0
2754,688.25,26.9963,28.566,155.441,104.348,5.63962,0.00781532,0.172294,20.8637,631.77,26.3588,0.0,0.0
2772,692.75,26.8084,28.8721,153.298,104.083,5.66242,0.00778231,0.17122,20.8663,631.58,26.2994,0.0,0.0
2790,697.25,27.2104,28.5132,154.981,103.794,5.69328,0.00778875,0.170133,20.8689,631.4,26.2252,0.0,0.0
2808,701.75,26.8665,28.6471,159.684,103.525,5.63677,0.00804639,0.168391,20.8715,631.23,26.2918,0.0,0.0
2826,706.25,26.8982,28.1153,151.291,103.302,5.61778,0.00835008,0.167597,20.8732,631.02,26.3029,0.0,0.0
2844,710.75,27.4802,28.5585,152.997,103.178,5.59119,0.00861918,0.165373,20.8768,630.799,26.3349,0.0,0.0
2862,715.25,27.3596,28.6909,154.382,103.183,5.59451,0.00896685,0.162524,20.8781,630.619,26.3299,0.0,0.0
2880,719.75,26.9557,28.3339,149.934,103.309,5.59973,0.00938565,0.162117,20.88,630.459,26.3325,0.0,0.0
2898,724.25,27.8571,29.0615,152.073,103.572,5.62253,0.0085536,0.161621,20.8805,630.269,26.3188,0.0,0.0
2916,728.75,27.3715,28.9601,150.398,103.901,5.70706,0.00775387,0.164168,20.8779,630.059,26.2127,0.0,0.0
2934,733.25,27.5351,28.9038,153.503,104.235,5.68806,0.00739588,0.167727,20.8753,629.849,26.2718,0.0,0.0
2952,737.75,27.9936,28.9224,151.857,104.494,5.69471,0.00745035,0.167393,20.8757,629.668,26.2836,0.0,0.0
2970,742.25,28.0098,28.931,149.883,104.616,5.67714,0.00767747,0.168213,20.8738,629.468,26.3221,0.0,0.0
2988,746.75,28.1195,29.1641,154.947,104.568,5.72368,0.00737937,0.167203,20.8751,629.278,26.2442,0.0,0.0
3006,751.25,27.9076,29.3932,151.149,104.477,5.69708,0.00731107,0.168726,20.8744,629.108,26.2784,0.0,0.0
3024,755.75,27.8786,29.3011,153.574,104.334,5.73032,0.00738008,0.169702,20.8725,628.858,26.2134,0.0,0.0
3042,760.25,28.5852,29.3902,153.706,104.216,5.71133,0.00702536,0.170331,20.8731,628.657,26.2332,0.0,0.0
3060,764.75,28.2882,29.4333,152.658,104.674,5.7118,0.00699604,0.171284,20.8719,628.527,26.2721,0.0,0.0
3078,769.25,28.388,29.4428,148.577,105.015,5.73222,0.00680943,0.171214,20.8716,628.277,26.2693,0.0,0.0
3096,773.75,28.6195,29.3417,150.187,105.048,5.73697,0.00677927,0.171283,20.8711,628.097,26.2646,0.0,0.0
3114,778.25,28.2741,29.479,154.967,104.75,5.77354,0.00685647,0.172719,20.8702,627.907,26.1815,0.0,0.0
3132,782.75,28.428,29.5821,152.078,104.59,5.70611,0.00697006,0.172161,20.8728,627.697,26.2739,0.0,0.0
3150,787.25,28.5283,29.604,150.415,104.896,5.74837,0.00681064,0.17222,20.8743,627.516,26.2336,0.0,0.0
3168,791.75,28.4966,30.2204,153.339,105.182,5.76974,0.00678458,0.172494,20.8745,627.296,26.2247,0.0,0.0
3186,796.25,28.4344,30.071,153.224,105.356,5.80203,0.00634276,0.171926,20.8745,627.106,26.1892,0.0,0.0
3204,800.75,28.0298,29.8759,154.538,105.22,5.72558,0.00650765,0.172326,20.8731,626.926,26.2973,0.0,0.0
3222,805.25,28.3207,29.8913,152.736,104.856,5.68426,0.00654052,0.173256,20.8714,626.706,26.3314,0.0,0.0
3240,809.75,28.3912,29.8711,155.789,104.305,5.71608,0.00667413,0.172915,20.8701,626.516,26.2334,0.0,0.0
3258,814.25,28.0854,30.2818,150.943,103.696,5.72653,0.00656803,0.173269,20.8706,626.315,26.164,0.0,0.0
3276,818.75,28.2249,30.2675,154.731,103.296,5.6249,0.00655809,0.173205,20.8701,626.115,26.2909,0.0,0.0
3294,823.25,28.5142,29.8817,151.047,103.237,5.64247,0.00657852,0.173891,20.8687,625.895,26.2575,0.0,0.0
3312,827.75,28.4089,30.3732,152.561,103.49,5.61825,0.00630686,0.173233,20.8696,625.705,26.3185,0.0,0.0
3330,832.25,28.3069,30.1737,153.119,103.941,5.64865,0.00593949,0.173673,20.8688,625.505,26.309,0.0,0.0
3348,836.75,28.8533,30.088,154.526,104.402,5.7099,0.00633231,0.172905,20.8689,625.314,26.2516,0.0,0.0
3366,841.25,28.4763,29.7716,153.856,104.617,5.75834,0.00645728,0.171587,20.8712,625.094,26.1939,0.0,0.0
3384,845.75,28.3382,29.7431,154.133,104.572,5.70183,0.00634178,0.172126,20.8709,624.914,26.2791,0.0,0.0
3402,850.25,28.8949,30.2033,157.618,104.356,5.70706,0.00638784,0.171147,20.8706,624.694,26.2521,0.0,0.0
3420,854.75,28.253,29.911,154.674,104.187,5.69613,0.0066252,0.171746,20.8695,624.524,26.2548,0.0,0.0
3438,859.25,28.5658,29.8039,153.987,104.838,5.68664,0.00669536,0.172481,20.8701,624.323,26.3261,0.0,0.0
3456,863.75,28.7723,29.5952,152.42,105.039,5.73507,0.00688682,0.170787,20.8714,624.133,26.2668,0.0,0.0
3474,868.25,28.5616,29.7591,152.734,104.564,5.7327,0.00733448,0.168034,20.8728,623.923,26.2296,0.0,0.0
3492,872.75,28.2099,29.7672,155.272,104.8,5.6363,0.00808795,0.16726,20.873,623.723,26.4031,0.0,0.0
3510,877.25,27.8579,29.521,147.203,105.225,5.73365,0.00799776,0.16869,20.8732,623.543,26.2851,0.0,0.0
3528,881.75,28.3711,29.9974,154.729,105.341,5.77401,0.00769502,0.169881,20.8729,623.353,26.2316,0.0,0.0
3546,886.25,27.8152,30.0078,152.43,105.011,5.7175,0.00753704,0.169572,20.8729,623.142,26.2922,0.0,0.0
3564,890.75,28.1357,29.908,152.108,104.282,5.73935,0.00732312,0.168572,20.8745,622.962,26.1948,0.0,0.0
3582,895.25,28.4158,29.6872,151.258,103.544,5.71465,0.00730928,0.166559,20.8762,622.772,26.1695,0.0,0.0
3600,899.75,28.2019,29.8751,153.374,103.267,5.60021,0.00803405,0.163495,20.8782,622.562,26.3281,0.0,0.0
3618,904.25,27.7947,29.6233,154.464,103.514,5.65672,0.0085746,0.163924,20.8799,622.392,26.259,0.0,0.0
3636,908.75,27.951,29.6034,155.096,104.127,5.70041,0.00833408,0.163748,20.8807,622.192,26.2428,0.0,0.0
3654,913.25,27.9143,29.2299,156.243,104.574,5.71988,0.00782886,0.164956,20.8789,621.991,26.2507,0.0,0.0
3672,917.75,27.7811,29.4714,152.297,104.611,5.69138,0.00754182,0.167165,20.8769,621.791,26.299,0.0,0.0
3690,922.25,28.0309,29.5735,154.838,104.342,5.67429,0.00746067,0.168371,20.8769,621.601,26.3029,0.0,0.0
3708,926.75,28.2105,29.3739,158.037,104.192,5.69803,0.00745103,0.167226,20.8771,621.361,26.2522,0.0,0.0
3726,931.25,27.8194,29.6842,152.087,104.961,5.7289,0.00766966,0.168081,20.8757,621.211,26.2699,0.0,0.0
3744,935.75,27.7913,29.5207,150.272,104.881,5.70943,0.00768805,0.167488,20.8759,621.021,26.2937,0.0,0.0
3762,940.25,28.078,29.8159,156.235,104.701,5.71798,0.00755322,0.168467,20.8744,620.82,26.2646,0.0,0.0
3780,944.75,28.2612,29.5057,155.392,105.165,5.81153,0.00785898,0.168843,20.8743,620.64,26.158,0.0,0.0
3798,949.25,28.0825,29.7077,150.914,105.379,5.77354,0.00728693,0.170261,20.873,620.43,26.2356,0.0,0.0
3816,953.75,28.2347,29.8597,150.54,104.994,5.71513,0.00671755,0.172029,20.8715,620.27,26.2944,0.0,0.0
3834,958.25,28.3879,30.0472,153.796,104.221,5.69661,0.00775354,0.170044,20.8744,620.08,26.257,0.0,0.0
3852,962.75,28.4158,29.782,152.148,103.471,5.70468,0.00853353,0.165028,20.8783,619.879,26.179,0.0,0.0
3870,967.25,28.0314,29.8973,152.814,103.314,5.60876,0.00885217,0.164324,20.8793,619.669,26.3184,0.0,0.0
3888,971.75,28.2152,29.7515,153.38,103.683,5.68331,0.00833747,0.164101,20.88,619.469,26.2314,0.0,0.0
3906,976.25,28.0425,30.0406,152.443,104.219,5.73412,0.00768145,0.167602,20.8767,619.289,26.1975,0.0,0.0
3924,980.75,28.1357,29.8059,151.468,104.595,5.72178,0.00790404,0.170072,20.8738,619.069,26.2495,0.0,0.0
3942,985.25,28.4876,30.2115,149.099,104.628,5.74647,0.00847619,0.170692,20.8725,618.879,26.2135,0.0,0.0
3960,989.75,28.2013,30.0533,153.713,104.442,5.73412,0.00848345,0.17189,20.8718,618.698,26.2169,0.0,0.0
3978,994.25,28.1799,29.4241,154.746,104.194,5.67904,0.00823401,0.169725,20.8737,618.508,26.2825,0.0,0.0
3996,998.75,28.1409,30.0637,157.385,104.359,5.62965,0.00844961,0.166426,20.8766,618.298,26.3758,0.0,0.0
4014,1003.25,28.5659,29.7559,154.789,104.903,5.69043,0.00841005,0.165238,20.8795,618.118,26.3257,0.0,0.0
4032,1007.75,28.4138,29.825,162.428,105.021,5.70848,0.00841364,0.163778,20.8806,617.918,26.3073,0.0,0.0
4050,1012.25,28.3799,29.8904,152.587,104.79,5.65957,0.00874498,0.163307,20.8805,617.738,26.3651,0.0,0.0
4068,1016.75,28.1168,29.4201,151.81,104.533,5.70373,0.00861042,0.161514,20.8815,617.527,26.2727,0.0,0.0
4086,1021.25,28.2981,29.4614,154.584,104.785,5.68901,0.00849041,0.161342,20.8819,617.337,26.3178,0.0,0.0
4104,1025.75,28.364,29.7242,158.05,105.031,5.69518,0.00828659,0.160899,20.8834,617.147,26.3292,0.0,0.0
4122,1030.25,28.4635,29.4882,150.533,105.255,5.70326,0.0084815,0.160059,20.8853,616.947,26.3357,0.0,0.0
4140,1034.75,28.0538,29.3828,148.718,105.363,5.7118,0.00843017,0.159359,20.8863,616.767,26.3314,0.0,0.0
4158,1039.25,27.7329,29.2669,153.203,105.35,5.70611,0.00828446,0.160437,20.884,616.577,26.3392,0.0,0.0
4176,1043.75,28.0216,29.292,152.849,105.215,5.74884,0.00762952,0.163293,20.8807,616.386,26.2603,0.0,0.0
4194,1048.25,27.4318,29.0394,154.382,104.98,5.73365,0.00777415,0.162152,20.8811,616.206,26.264,0.0,0.0
4212,1052.75,27.4364,28.8048,157.625,104.68,5.62633,0.00817898,0.15998,20.8831,616.006,26.4088,0.0,0.0
4230,1057.25,27.5774,28.6268,154.022,104.303,5.6363,0.00822369,0.159017,20.8855,615.846,26.3602,0.0,0.0
4248,1061.75,27.383,28.8528,154.311,103.968,5.59878,0.00832513,0.157639,20.887,615.676,26.3915,0.0,0.0
4266,1066.25,27.6284,29.2724,156.917,103.655,5.62728,0.0082562,0.158273,20.886,615.465,26.3184,0.0,0.0
4284,1070.75,28.0582,28.6107,156.059,103.44,5.60591,0.00811343,0.158286,20.8845,615.295,26.334,0.0,0.0
4302,1075.25,27.2745,28.7248,155.439,103.342,5.55557,0.0080941,0.159403,20.8831,615.105,26.407,0.0,0.0
4320,1079.75,27.3771,28.6346,154.347,103.341,5.59688,0.00856143,0.159475,20.8821,614.915,26.3399,0.0,0.0
4338,1084.25,27.4966,28.9045,153.089,103.408,5.50001,0.00840064,0.15933,20.883,614.735,26.5035,0.0,0.0
4356,1088.75,27.1088,28.576,153.231,103.546,5.59926,0.00821244,0.158964,20.8842,614.555,26.354,0.0,0.0
4374,1093.25,27.4383,28.5272,152.674,103.745,5.53515,0.00852953,0.157844,20.8865,614.354,26.4753,0.0,0.0
4392,1097.75,27.6385,28.5436,153.143,103.946,5.66717,0.00879008,0.157327,20.8872,614.184,26.2799,0.0,0.0
4410,1102.25,27.0835,28.6621,151.487,104.143,5.61303,0.00873011,0.157613,20.887,614.004,26.3837,0.0,0.0
4428,1106.75,27.0407,28.8106,153.264,104.318,5.623,0.00853664,0.157379,20.8861,613.834,26.3829,0.0,0.0
4446,1111.25,27.2826,28.3039,158.759,104.474,5.61066,0.00854594,0.156633,20.8857,613.604,26.4162,0.0,0.0
4464,1115.75,27.0932,28.7139,151.95,104.593,5.61968,0.00851872,0.156807,20.8849,613.464,26.412,0.0,0.0
4482,1120.25,26.9689,28.2613,156.042,104.666,5.58169,0.00826961,0.157295,20.8848,613.273,26.4795,0.0,0.0
4500,1124.75,27.223,28.4265,154.25,104.698,5.61303,0.00844589,0.156792,20.885,613.103,26.4318,0.0,0.0
4518,1129.25,27.2034,28.4235,152.721,104.668,5.63772,0.00857348,0.157294,20.8832,612.893,26.3895,0.0,0.0
4536,1133.75,27.3139,28.4948,153.193,104.612,5.54655,0.0082194,0.158023,20.8828,612.733,26.5319,0.0,0.0
4554,1138.25,27.0904,28.389,153.504,104.5,5.6306,0.00829695,0.157937,20.8827,612.553,26.3864,0.0,0.0
4572,1142.75,26.8156,28.7348,156.837,104.418,5.59926,0.00834174,0.157656,20.882,612.373,26.4298,0.0,0.0
4590,1147.25,26.7374,28.3737,154.012,104.324,5.63582,0.008254,0.156892,20.8833,612.203,26.3628,0.0,0.0
4608,1151.75,26.8462,28.261,154.261,104.234,5.56317,0.0083127,0.155481,20.8846,612.022,26.4722,0.0,0.0
4626,1156.25,26.5883,28.1327,149.875,104.17,5.59451,0.00877723,0.155598,20.885,611.842,26.4159,0.0,0.0
4644,1160.75,26.6771,28.2172,153.973,104.094,5.59878,0.00867484,0.15516,20.8847,611.652,26.4025,0.0,0.0
4662,1165.25,26.8614,28.2733,154.494,104.226,5.56982,0.0085034,0.155693,20.8838,611.472,26.4608,0.0,0.0
4680,1169.75,27.0536,27.8222,157.258,104.48,5.56317,0.00858171,0.155428,20.8841,611.292,26.4935,0.0,0.0
4698,1174.25,26.8633,27.8309,157.514,104.698,5.61778,0.00865586,0.155555,20.8841,611.112,26.4241,0.0,0.0
4716,1178.75,26.7627,28.0934,156.06,104.842,5.65055,0.00851193,0.156428,20.8835,610.921,26.384,0.0,0.0
4734,1183.25,26.5836,27.8799,153.564,104.97,5.60543,0.00837277,0.156878,20.8815,610.751,26.4674,0.0,0.0
4752,1187.75,26.5478,28.0354,154.77,105.009,5.62253,0.00839043,0.156645,20.8822,610.571,26.4432,0.0,0.0
4770,1192.25,26.1204,28.1824,152.636,105.02,5.61161,0.0081755,0.155214,20.8832,610.391,26.4618,0.0,0.0
4788,1196.75,26.6335,28.2369,155.814,104.992,5.6401,0.00818918,0.155633,20.8834,610.231,26.4137,0.0,0.0
4806,1201.25,26.693,28.1804,153.875,104.964,5.66432,0.00798152,0.155826,20.8844,610.041,26.3725,0.0,0.0
4824,1205.75,26.7027,28.0727,154.637,104.911,5.59403,0.00730161,0.158061,20.8823,609.87,26.4807,0.0,0.0
4842,1210.25,26.6369,28.3066,153.998,104.812,5.61113,0.00695427,0.159843,20.8804,609.68,26.4446,0.0,0.0
4860,1214.75,26.5664,27.9425,157.114,104.726,5.62585,0.00660737,0.160244,20.879,609.52,26.4135,0.0,0.0
4878,1219.25,27.192,28.2586,157.431,104.595,5.54892,0.00660107,0.161869,20.8779,609.35,26.5266,0.0,0.0
4896,1223.75,26.6151,28.3601,155.856,104.492,5.58074,0.0069375,0.162507,20.8764,609.18,26.4661,0.0,0.0
4914,1228.25,26.5836,28.0617,155.315,104.498,5.64912,0.00712218,0.162271,20.8754,609.01,26.3565,0.0,0.0
4932,1232.75,26.848,27.4553,154.065,104.538,5.59736,0.00686342,0.161099,20.8763,608.81,26.4432,0.0,0.0
4950,1237.25,26.7907,28.0793,156.045,104.552,5.62205,0.00711299,0.161957,20.8761,608.649,26.4046,0.0,0.0
4968,1241.75,26.8853,28.0864,153.513,104.56,5.6496,0.00745876,0.161301,20.8761,608.469,26.3611,0.0,0.0
4986,1246.25,26.7148,28.0908,152.658,104.575,5.6211,0.00735392,0.162624,20.8741,608.289,26.4081,0.0,0.0
5004,1250.75,26.795,28.106,154.49,104.57,5.60021,0.00689417,0.162941,20.8738,608.109,26.4414,0.0,0.0
5022,1255.25,26.9647,27.6128,152.049,104.572,5.59736,0.00667552,0.162558,20.8742,607.929,26.4461,0.0,0.0
5040,1259.75,27.0313,28.0756,152.887,104.542,5.60021,0.00686349,0.161703,20.8756,607.749,26.4389,0.0,0.0
5058,1264.25,26.7251,28.2362,153.302,104.539,5.63107,0.00737495,0.160461,20.8772,607.578,26.3891,0.0,0.0
5076,1268.75,26.7857,27.7125,151.658,104.514,5.59973,0.00741784,0.159809,20.8776,607.398,26.4373,0.0,0.0
5094,1273.25,26.823,27.9277,152.966,104.496,5.57931,0.00706682,0.161073,20.8773,607.228,26.4687,0.0,0.0
5112,1277.75,26.8335,28.0647,154.265,104.48,5.65862,0.00652109,0.162918,20.8736,607.038,26.3399,0.0,0.0
5130,1282.25,26.8033,28.3117,156.864,104.548,5.57741,0.00704309,0.160464,20.874,606.858,26.4763,0.0,0.0
5148,1286.75,26.1899,27.7202,155.299,104.658,5.60353,0.00743164,0.159901,20.8754,606.668,26.4436,0.0,0.0
5166,1291.25,26.8887,27.8863,153.348,104.74,5.62585,0.00706925,0.161284,20.8754,606.497,26.4148,0.0,0.0
5184,1295.75,26.9077,27.9082,154.084,104.844,5.59878,0.00705259,0.161401,20.8754,606.337,26.4673,0.0,0.0
5202,1300.25,26.7715,28.2995,154.326,104.9,5.57172,0.00720831,0.160666,20.8774,606.147,26.5159,0.0,0.0
5220,1304.75,26.7773,28.5522,154.749,104.957,5.62015,0.00712752,0.160752,20.8766,606.007,26.4426,0.0,0.0
5238,1309.25,26.4098,27.8088,153.381,104.965,5.61683,0.00705905,0.160875,20.877,605.817,26.4487,0.0,0.0
5256,1313.75,26.8692,28.2525,151.559,104.995,5.63867,0.00713152,0.160094,20.8774,605.637,26.4162,0.0,0.0
5274,1318.25,26.4482,28.207,155.176,105.01,5.60116,0.00694479,0.159733,20.8774,605.476,26.4778,0.0,0.0
5292,1322.75,26.7898,28.1807,156.04,104.985,5.62633,0.00680208,0.161282,20.8755,605.276,26.4351,0.0,0.0
5310,1327.25,26.6126,27.8621,155.721,105.001,5.57077,0.00660198,0.161587,20.8751,605.106,26.5262,0.0,0.0
5328,1331.75,26.7975,28.5528,157.895,104.967,5.63535,0.00645919,0.161949,20.8745,604.926,26.4191,0.0,0.0
5346,1336.25,26.5022,27.9749,153.416,104.963,5.60638,0.00645793,0.163897,20.8715,604.756,26.4653,0.0,0.0
5364,1340.75,26.5311,28.1046,153.12,104.905,5.61635,0.00677326,0.162715,20.8734,604.596,26.4443,0.0,0.0
5382,1345.25,26.7072,28.0425,155.499,104.864,5.62348,0.00712719,0.162347,20.8739,604.395,26.4292,0.0,0.0
5400,1349.75,27.126,28.2651,157.059,104.803,5.6325,0.00677368,0.163945,20.8712,604.215,26.4095,0.0,0.0
5418,1354.25,26.7259,28.159,153.535,104.727,5.59261,0.00671938,0.163498,20.8707,604.035,26.4672,0.0,0.0
5436,1358.75,26.3509,27.5616,152.517,104.641,5.56792,0.00674669,0.164976,20.8692,603.865,26.4997,0.0,0.0
5454,1363.25,26.7847,27.9271,158.838,104.545,5.63345,0.00641126,0.165054,20.8694,603.695,26.3858,0.0,0.0
5472,1367.75,27.0753,27.9628,156.691,104.459,5.60686,0.00610802,0.165545,20.8694,603.525,26.421,0.0,0.0
5490,1372.25,26.4737,28.1663,158.339,104.337,5.58264,0.00655909,0.162794,20.8729,603.335,26.4496,0.0,0.0
5508,1376.75,26.93,28.2636,156.601,104.168,5.57172,0.00618028,0.161963,20.8739,603.164,26.4526,0.0,0.0
5526,1381.25,26.9514,28.0741,149.771,104.077,5.60876,0.00628043,0.163012,20.8715,603.004,26.3849,0.0,0.0
5544,1385.75,26.7862,28.144,159.83,104.106,5.55842,0.00688382,0.163739,20.8682,602.824,26.4689,0.0,0.0
5562,1390.25,26.8717,28.0772,154.096,104.162,5.60258,0.00702273,0.161815,20.8699,602.634,26.4022,0.0,0.0
5580,1394.75,26.5389,28.031,154.431,104.216,5.61873,0.00695615,0.160983,20.8717,602.474,26.3809,0.0,0.0
5598,1399.25,26.9548,28.5021,153.28,104.28,5.57741,0.00711305,0.160909,20.8725,602.304,26.4531,0.0,0.0
5616,1403.75,26.7358,27.9671,155.257,104.337,5.58644,0.00701238,0.160957,20.8737,602.093,26.4434,0.0,0.0
5634,1408.25,26.4371,27.8674,151.939,104.404,5.63535,0.00655518,0.163482,20.8707,601.933,26.3705,0.0,0.0
5652,1412.75,26.9328,28.2603,154.371,104.457,5.62585,0.00628529,0.164276,20.8701,601.753,26.3903,0.0,0.0
5670,1417.25,27.1095,28.238,151.86,104.544,5.55842,0.00641061,0.163629,20.871,601.583,26.5068,0.0,0.0
5688,1421.75,27.702,28.7682,151.784,104.622,5.62728,0.00642156,0.163213,20.8711,601.423,26.4023,0.0,0.0
5706,1426.25,26.5424,28.1505,152.589,104.658,5.57551,0.00625152,0.163437,20.8703,601.233,26.4889,0.0,0.0
5724,1430.75,26.7994,28.0351,152.632,104.684,5.60733,0.00631879,0.164727,20.8694,601.073,26.4397,0.0,0.0
5742,1435.25,26.809,28.0403,152.028,104.666,5.6192,0.0063133,0.164515,20.8696,600.892,26.4191,0.0,0.0
5760,1439.75,27.0474,28.7316,157.34,104.619,5.59119,0.00643057,0.163998,20.8712,600.732,26.4602,0.0,0.0
5778,1444.25,26.7117,28.0632,151.48,104.53,5.57504,0.00648387,0.165185,20.8693,600.532,26.4786,0.0,0.0
5796,1448.75,26.6506,28.227,156.474,104.434,5.63202,0.0058757,0.165457,20.8682,600.332,26.3784,0.0,0.0
5814,1453.25,27.1938,28.5044,150.765,104.318,5.63202,0.00564606,0.166533,20.8662,600.192,26.3684,0.0,0.0
5832,1457.75,26.7434,28.2744,152.007,104.157,5.57409,0.00613821,0.166727,20.8657,600.022,26.4478,0.0,0.0
5850,1462.25,27.1174,28.6674,155.047,103.973,5.55794,0.00680648,0.163779,20.8687,599.851,26.458,0.0,0.0
5868,1466.75,26.8032,28.2739,152.551,103.806,5.50856,0.00718698,0.160136,20.8724,599.671,26.5242,0.0,0.0
5886,1471.25,26.8417,28.3094,158.178,103.665,5.55035,0.00732283,0.16034,20.8707,599.501,26.4436,0.0,0.0
5904,1475.75,27.1339,28.3995,156.741,103.5,5.59071,0.00697338,0.162789,20.869,599.321,26.3637,0.0,0.0
5922,1480.25,26.9015,28.1011,157.479,103.405,5.5475,0.00689168,0.163296,20.87,599.151,26.4256,0.0,0.0
5940,1484.75,26.9953,27.9628,155.247,103.342,5.53942,0.00681668,0.162328,20.8706,598.991,26.4333,0.0,0.0
5958,1489.25,26.6246,27.8998,152.926,103.338,5.48719,0.00675195,0.161615,20.872,598.82,26.5185,0.0,0.0
5976,1493.75,26.2928,27.9826,156.395,103.372,5.48291,0.00702699,0.159161,20.8759,598.63,26.5285,0.0,0.0
5994,1498.25,26.8281,27.8242,148.006,103.436,5.5361,0.00716002,0.159311,20.8758,598.48,26.4469,0.0,0.0
6012,1502.75,25.8824,27.58,159.265,103.563,5.55082,0.00704455,0.159486,20.8743,598.31,26.434,0.0,0.0
6030,1507.25,26.5774,28.0229,153.222,103.666,5.55604,0.00668354,0.162061,20.8714,598.15,26.4344,0.0,0.0
6048,1511.75,26.7381,28.1427,153.717,103.805,5.53657,0.00657859,0.162814,20.8701,597.97,26.4783,0.0,0.0
6066,1516.25,27,28.1935,161.95,103.948,5.58501,0.00654492,0.162539,20.8699,597.79,26.412,0.0,0.0
6084,1520.75,26.4277,28.2845,158.066,104.071,5.54465,0.00638517,0.162667,20.8682,597.629,26.4882,0.0,0.0
6102,1525.25,27.1545,28.6007,156.232,104.209,5.57979,0.00662738,0.161052,20.8722,597.469,26.4431,0.0,0.0
6120,1529.75,26.5776,27.9357,154.061,104.37,5.57789,0.00667124,0.160598,20.873,597.299,26.4601,0.0,0.0
6138,1534.25,25.9876,27.8327,153.642,104.519,5.53942,0.00658394,0.159259,20.8757,597.129,26.5355,0.0,0.0
6156,1538.75,26.3964,27.7588,154.177,104.673,5.61778,0.00660338,0.159875,20.8732,596.979,26.4219,0.0,0.0
6174,1543.25,26.9101,28.1202,155.175,104.838,5.59451,0.00683561,0.16002,20.8719,596.819,26.4736,0.0,0.0
6192,1547.75,26.8444,27.9431,158.475,104.99,5.57077,0.00687939,0.157441,20.8755,596.638,26.5252,0.0,0.0
6210,1552.25,26.6447,28.3401,155.423,105.137,5.58074,0.00676122,0.157684,20.8762,596.488,26.5217,0.0,0.0
6228,1556.75,26.7249,28.0422,154.786,105.244,5.64295,0.00653895,0.158249,20.8763,596.328,26.4307,0.0,0.0
6246,1561.25,26.4746,27.9503,153.115,105.335,5.60068,0.00617579,0.159375,20.874,596.158,26.5065,0.0,0.0
6264,1565.75,26.4037,27.7695,156.457,105.384,5.62063,0.00586197,0.160816,20.8713,596.008,26.4785,0.0,0.0
6282,1570.25,26.3773,28.0366,154.723,105.374,5.61256,0.00639981,0.159384,20.8756,595.838,26.4907,0.0,0.0
6300,1574.75,27.1321,28.3253,156.116,105.308,5.68711,0.0068219,0.157326,20.8782,595.688,26.3658,0.0,0.0
6318,1579.25,26.7714,27.5643,155.905,105.224,5.56887,0.00676897,0.155048,20.8805,595.497,26.5484,0.0,0.0
6336,1583.75,26.6764,28.0283,155.261,105.097,5.6287,0.00636528,0.155758,20.8815,595.377,26.4409,0.0,0.0
6354,1588.25,25.8946,27.6997,154.198,104.947,5.6401,0.00613806,0.156829,20.88,595.197,26.4098,0.0,0.0
6372,1592.75,27.0254,27.7518,152.852,104.773,5.56792,0.00581095,0.159138,20.8761,595.047,26.5111,0.0,0.0
6390,1597.25,26.5055,27.8034,152.795,104.622,5.59024,0.00615295,0.157475,20.878,594.887,26.462,0.0,0.0
6408,1601.75,26.2334,27.4654,154.739,104.507,5.58026,0.00654222,0.155995,20.8797,594.727,26.4681,0.0,0.0
6426,1606.25,26.4795,27.7983,155.01,104.649,5.59546,0.00653578,0.155902,20.8797,594.577,26.4558,0.0,0.0
6444,1610.75,26.3108,27.7974,155.393,104.859,5.56364,0.00633431,0.15851,20.8761,594.406,26.5254,0.0,0.0
6462,1615.25,25.8387,28.1018,152.632,104.989,5.57409,0.00669043,0.158818,20.8754,594.246,26.5197,0.0,0.0
6480,1619.75,26.2107,27.9445,157.705,105.009,5.60448,0.00670006,0.156995,20.8771,594.076,26.4723,0.0,0.0
6498,1624.25,26.3637,27.7522,155.492,104.978,5.56269,0.00697236,0.155597,20.879,593.946,26.5373,0.0,0.0
6516,1628.75,25.9338,27.13,151.193,104.835,5.55699,0.00676349,0.152812,20.8827,593.806,26.5342,0.0,0.0
6534,1633.25,26.3598,27.3369,156.544,104.629,5.51853,0.00654583,0.153121,20.8825,593.626,26.5792,0.0,0.0
6552,1637.75,25.6381,27.3455,154.165,104.323,5.56602,0.00660583,0.153208,20.8834,593.496,26.4753,0.0,0.0
6570,1642.25,26.4142,27.5615,156.483,104.115,5.53752,0.00695151,0.153849,20.8819,593.326,26.5036,0.0,0.0
6588,1646.75,26.1037,27.6116,154.859,104.171,5.5494,0.00677859,0.153935,20.8826,593.185,26.4892,0.0,0.0
6606,1651.25,25.7469,27.2071,156.15,104.234,5.53278,0.00691843,0.152228,20.8845,593.035,26.5217,0.0,0.0
6624,1655.75,26.305,27.3606,153.513,104.345,5.58644,0.00712973,0.150773,20.8866,592.895,26.4442,0.0,0.0
6642,1660.25,25.4918,27.2403,153.21,104.421,5.58929,0.00722146,0.149965,20.8879,592.725,26.4461,0.0,0.0
6660,1664.75,25.5697,27.1417,152.93,104.493,5.56792,0.00707468,0.150997,20.8868,592.585,26.487,0.0,0.0
6678,1669.25,26.0007,27.5991,151.841,104.582,5.55604,0.00717527,0.151999,20.8856,592.445,26.5139,0.0,0.0
6696,1673.75,25.8354,27.2623,157.254,104.646,5.55082,0.00743965,0.147216,20.8918,592.275,26.528,0.0,0.0
6714,1678.25,25.4337,26.8084,152.42,104.664,5.52043,0.00812991,0.145745,20.8932,592.124,26.5791,0.0,0.0
6732,1682.75,25.5045,26.8847,153.306,104.649,5.44777,0.00831912,0.145613,20.892,591.994,26.6974,0.0,0.0
6750,1687.25,25.7896,26.9844,155.481,104.609,5.55225,0.00794321,0.144392,20.8923,591.844,26.5224,0.0,0.0
6768,1691.75,25.7823,27.1776,154.671,104.501,5.55272,0.00755195,0.143759,20.8934,591.684,26.5123,0.0,0.0
6786,1696.25,25.6471,27.0999,150.45,104.391,5.58169,0.00769251,0.144203,20.8925,591.534,26.4558,0.0,0.0
6804,1700.75,25.5561,26.6862,154.006,104.232,5.53325,0.00789324,0.144204,20.8924,591.384,26.5208,0.0,0.0
6822,1705.25,25.2725,26.5976,157.21,104.082,5.49194,0.00786828,0.144858,20.8919,591.244,26.5754,0.0,0.0
6840,1709.75,25.6664,26.6155,155.876,103.915,5.55367,0.00778802,0.144173,20.8911,591.094,26.46,0.0,0.0
6858,1714.25,25.2099,26.6012,156.074,103.742,5.47627,0.00783349,0.144647,20.8908,590.963,26.5717,0.0,0.0
6876,1718.75,24.9752,26.2838,156.585,103.589,5.47389,0.00775023,0.144225,20.8907,590.803,26.5623,0.0,0.0
6894,1723.25,25.5402,26.7383,155.396,103.458,5.44018,0.0077706,0.144079,20.8907,590.663,26.6067,0.0,0.0
6912,1727.75,25.2352,26.6207,157.678,103.37,5.44302,0.00776676,0.143527,20.8907,590.513,26.5943,0.0,0.0
6930,1732.25,25.0626,26.2265,155.86,103.307,5.46962,0.00764057,0.144201,20.8901,590.353,26.5447,0.0,0.0
6948,1736.75,25.1082,26.2178,154.509,103.284,5.434,0.00773744,0.143988,20.8901,590.223,26.6017,0.0,0.0
6966,1741.25,25.3514,26.2842,154.159,103.3,5.44872,0.0075984,0.142735,20.8925,590.073,26.5787,0.0,0.0
6984,1745.75,25.5231,25.9126,154.575,103.337,5.46107,0.00752987,0.143091,20.8931,589.942,26.5615,0.0,0.0
7002,1750.25,25.0065,26.1992,155.592,103.404,5.47057,0.00773063,0.142514,20.895,589.792,26.5517,0.0,0.0
7020,1754.75,24.9719,26.071,151.757,103.515,5.48101,0.00778957,0.142351,20.8943,589.632,26.5441,0.0,0.0
7038,1759.25,24.9935,25.916,152.307,103.648,5.46914,0.00783032,0.143214,20.8934,589.522,26.5753,0.0,0.0
7056,1763.75,25.1316,26.3211,154.712,103.812,5.50476,0.0076254,0.142349,20.8933,589.362,26.5309,0.0,0.0
7074,1768.25,24.9127,25.9394,158.733,103.998,5.51331,0.00749612,0.14247,20.8951,589.222,26.5331,0.0,0.0
7092,1772.75,24.5263,25.6497,154.338,104.189,5.54702,0.00748544,0.141873,20.8955,589.072,26.4946,0.0,0.0
7110,1777.25,24.8996,26.317,153.859,104.407,5.5266,0.00739159,0.142093,20.8961,588.932,26.5468,0.0,0.0
7128,1781.75,25.1998,26.0542,158.2,104.61,5.55794,0.00726969,0.142659,20.8948,588.801,26.5132,0.0,0.0
7146,1786.25,25.0859,26.1411,153.467,104.818,5.54322,0.00726908,0.14383,20.8933,588.641,26.5551,0.0,0.0
7164,1790.75,24.9609,26.0555,156.724,104.995,5.57931,0.00736865,0.144015,20.8941,588.511,26.5117,0.0,0.0
7182,1795.25,24.8274,26.1516,152.968,105.152,5.57172,0.00730494,0.142938,20.8946,588.371,26.5376,0.0,0.0
7200,1799.75,24.9171,26.0556,155.681,105.27,5.58216,0.00774461,0.141781,20.8973,588.241,26.5308,0.0,0.0
7218,1804.25,24.9387,25.8402,155.715,105.332,5.54512,0.00762163,0.141161,20.8978,588.091,26.5962,0.0,0.0
7236,1808.75,24.9884,25.8518,158.622,105.371,5.55367,0.00739872,0.140161,20.9003,587.941,26.5857,0.0,0.0
7254,1813.25,24.5063,25.7976,156.784,105.341,5.60828,0.00747227,0.139958,20.9011,587.811,26.4947,0.0,0.0
7272,1817.75,24.7039,25.9331,149.663,105.317,5.55794,0.00745978,0.140068,20.9003,587.65,26.5741,0.0,0.0
7290,1822.25,24.508,25.7857,156.372,105.208,5.58169,0.0073029,0.140111,20.8989,587.53,26.5262,0.0,0.0
7308,1826.75,25.1568,25.6007,153.043,105.1,5.57599,0.00746727,0.141057,20.898,587.4,26.5262,0.0,0.0
7326,1831.25,24.5547,25.8384,155.978,104.962,5.52138,0.00776792,0.142063,20.8954,587.25,26.6032,0.0,0.0
7344,1835.75,24.6258,25.7691,158.218,104.803,5.5418,0.00776217,0.141771,20.8961,587.12,26.5561,0.0,0.0
7362,1840.25,24.4223,25.7786,153.158,104.678,5.56792,0.00730652,0.141525,20.8962,586.97,26.5029,0.0,0.0
7380,1844.75,24.5332,25.6989,155.757,104.557,5.50666,0.00729842,0.141124,20.897,586.85,26.5924,0.0,0.0
7398,1849.25,24.6171,25.6984,154.238,104.48,5.48956,0.00755053,0.141107,20.8974,586.71,26.6139,0.0,0.0
7416,1853.75,24.5253,25.6807,154.721,104.697,5.51046,0.00765351,0.139534,20.8993,586.569,26.5983,0.0,0.0
7434,1858.25,24.7884,25.8953,154.506,104.877,5.56412,0.00764561,0.139649,20.8997,586.419,26.5263,0.0,0.0
7452,1862.75,25.0465,26.1003,156.389,104.966,5.51805,0.00753944,0.139862,20.8998,586.299,26.609,0.0,0.0
7470,1867.25,24.9344,25.8509,153.276,105.03,5.52708,0.00762714,0.139489,20.9008,586.159,26.5997,0.0,0.0
7488,1871.75,24.3798,25.8252,152.579,105.022,5.52185,0.00756366,0.139332,20.9014,586.009,26.6076,0.0,0.0
7506,1876.25,25.2505,26.0898,152.081,104.965,5.57029,0.00776006,0.139289,20.9015,585.889,26.5238,0.0,0.0
7524,1880.75,24.6723,25.7068,151.633,104.882,5.50856,0.00765988,0.139658,20.9015,585.739,26.6173,0.0,0.0
7542,1885.25,24.8518,25.7865,157.138,104.735,5.48624,0.00763194,0.13939,20.9002,585.609,26.6413,0.0,0.0
7560,1889.75,24.7753,25.855,155.863,104.551,5.46914,0.00758196,0.139556,20.8979,585.478,26.6537,0.0,0.0
7578,1894.25,24.7678,25.5952,159.568,104.344,5.54085,0.00736926,0.138796,20.8984,585.348,26.5181,0.0,0.0
7596,1898.75,24.8048,25.7909,157.118,104.128,5.54085,0.00768639,0.138633,20.8991,585.188,26.4994,0.0,0.0
7614,1903.25,24.6834,25.5866,153.135,104.156,5.49621,0.0078879,0.138931,20.8993,585.048,26.5748,0.0,0.0
7632,1907.75,24.1874,25.0834,152.516,104.207,5.52613,0.00793426,0.139602,20.8979,584.918,26.5302,0.0,0.0
7650,1912.25,24.2079,25.5342,153.342,104.242,5.47722,0.00751281,0.139088,20.8971,584.798,26.6136,0.0,0.0
7668,1916.75,24.662,25.6859,153.594,104.302,5.50286,0.00734778,0.138858,20.8977,584.658,26.5766,0.0,0.0
7686,1921.25,24.5934,25.7095,155.326,104.365,5.51948,0.00740723,0.138457,20.8997,584.508,26.5548,0.0,0.0
7704,1925.75,24.9331,25.7727,159.429,104.405,5.48529,0.00715647,0.139179,20.9,584.387,26.6144,0.0,0.0
7722,1930.25,25.0318,25.7837,159.611,104.476,5.48909,0.00754205,0.139352,20.8993,584.237,26.6143,0.0,0.0
7740,1934.75,24.5983,25.4743,154.209,104.491,5.52185,0.00746976,0.138785,20.8995,584.107,26.5618,0.0,0.0
7758,1939.25,24.0877,25.2406,153.596,104.542,5.48339,0.00735931,0.139627,20.8997,583.967,26.6293,0.0,0.0
7776,1943.75,24.4298,25.5324,154.457,104.588,5.51378,0.00717245,0.139471,20.8987,583.847,26.5834,0.0,0.0
7794,1948.25,24.1448,25.2281,155.726,104.607,5.51426,0.00759138,0.138514,20.8997,583.717,26.5843,0.0,0.0
7812,1952.75,24.066,25.3411,156.804,104.639,5.54512,0.00763849,0.137356,20.9026,583.577,26.5366,0.0,0.0
7830,1957.25,23.5414,24.7112,157.332,104.624,5.51853,0.00723974,0.138195,20.9013,583.437,26.5788,0.0,0.0
7848,1961.75,24.2551,25.2024,154.099,104.621,5.56222,0.00736401,0.139421,20.9001,583.296,26.5073,0.0,0.0
7866,1966.25,24.1356,25.447,154.517,104.587,5.5266,0.00815085,0.137599,20.9015,583.176,26.5624,0.0,0.0
7884,1970.75,24.5474,25.5217,152.861,104.553,5.52518,0.00807915,0.137453,20.902,583.026,26.5617,0.0,0.0
7902,1975.25,24.1035,25.1491,154.739,104.487,5.51758,0.00788022,0.136554,20.9026,582.916,26.5684,0.0,0.0
7920,1979.75,24.464,25.5273,155.762,104.415,5.57836,0.00775686,0.136109,20.9022,582.766,26.4632,0.0,0.0
7938,1984.25,23.8808,24.9325,157.624,104.339,5.43733,0.00770737,0.136576,20.9039,582.636,26.688,0.0,0.0
7956,1988.75,24.0181,25.1405,153.626,104.243,5.49146,0.00780286,0.138713,20.9025,582.516,26.5902,0.0,0.0
7974,1993.25,24.5932,25.7047,156.278,104.142,5.44635,0.00763842,0.140898,20.9004,582.356,26.6559,0.0,0.0
7992,1997.75,24.4243,25.7459,159.968,104.012,5.46867,0.00738686,0.14102,20.8999,582.236,26.6077,0.0,0.0
8010,2002.25,24.4094,25.2313,156.451,103.879,5.46392,0.00725608,0.140122,20.8998,582.105,26.604,0.0,0.0
8028,2006.75,24.1763,25.6416,154.969,103.741,5.48671,0.00742826,0.137991,20.9025,581.975,26.5544,0.0,0.0
8046,2011.25,24.5441,25.3356,154.544,103.622,5.46962,0.0071838,0.137257,20.9025,581.845,26.5722,0.0,0.0
8064,2015.75,24.3345,25.6923,152.327,103.521,5.46724,0.00752065,0.138979,20.901,581.715,26.5673,0.0,0.0
8082,2020.25,24.1976,25.4817,157.498,103.414,5.43353,0.00809741,0.138964,20.9019,581.575,26.6139,0.0,0.0
8100,2024.75,24.308,25.2281,153.851,103.33,5.41406,0.00800791,0.137625,20.9027,581.445,26.639,0.0,0.0
8118,2029.25,24.2963,25.2602,153.979,103.274,5.41026,0.00842375,0.131398,20.9103,581.315,26.6404,0.0,0.0
8136,2033.75,24.3277,25.5543,154.635,103.247,5.40931,0.0088532,0.127691,20.9149,581.205,26.6396,0.0,0.0
8154,2038.25,24.1326,24.9894,154.795,103.227,5.39696,0.00914101,0.127464,20.9156,581.064,26.6585,0.0,0.0
8172,2042.75,24.0934,25.4396,158.546,103.252,5.37084,0.00912968,0.127922,20.9138,580.944,26.7046,0.0,0.0
8190,2047.25,23.9786,25.0545,160.143,103.296,5.42498,0.00914537,0.127631,20.9134,580.814,26.6178,0.0,0.0
8208,2051.75,23.748,24.8755,153.366,103.365,5.42688,0.00917391,0.127691,20.9129,580.714,26.6207,0.0,0.0
8226,2056.25,23.6044,24.9915,155.467,103.439,5.38034,0.00916003,0.129336,20.9113,580.564,26.705,0.0,0.0
8244,2060.75,23.6043,24.803,158.019,103.519,5.38889,0.00914213,0.128808,20.911,580.444,26.6976,0.0,0.0
8262,2065.25,23.0992,24.5516,156.061,103.639,5.37084,0.00916759,0.126946,20.9146,580.324,26.7384,0.0,0.0
8280,2069.75,23.1146,23.8691,155.438,103.744,5.41643,0.00923413,0.125684,20.9161,580.194,26.6712,0.0,0.0
8298,2074.25,22.8962,23.7522,156.44,103.871,5.45015,0.00905674,0.127083,20.9162,580.054,26.6261,0.0,0.0
8316,2078.75,23.0415,23.7507,161.08,103.988,5.4454,0.00902705,0.127601,20.9177,579.933,26.6441,0.0,0.0
8334,2083.25,23.0309,23.864,154.983,104.14,5.43115,0.00903786,0.12743,20.9176,579.773,26.6811,0.0,0.0
8352,2087.75,22.8138,23.8119,153.219,104.268,5.45015,0.00886,0.126666,20.9172,579.653,26.6606,0.0,0.0
8370,2092.25,22.9073,23.8373,157.838,104.4,5.51141,0.00876717,0.127997,20.9161,579.523,26.571,0.0,0.0
8388,2096.75,22.8877,23.9628,151.794,104.513,5.41121,0.00901205,0.129585,20.9128,579.403,26.7466,0.0,0.0
8406,2101.25,22.696,23.9285,157.049,104.651,5.4435,0.00909389,0.130757,20.9076,579.273,26.7047,0.0,0.0
8424,2105.75,22.6788,23.7103,155.213,104.757,5.45442,0.00899511,0.130182,20.9073,579.163,26.6958,0.0,0.0
8442,2110.25,22.5705,23.6988,158.956,104.849,5.44825,0.00882532,0.12859,20.9087,579.023,26.7139,0.0,0.0
8460,2114.75,22.7719,23.7141,154.793,104.954,5.43828,0.00882392,0.128083,20.9089,578.892,26.7395,0.0,0.0
8478,2119.25,22.5529,23.6812,158.271,105.03,5.47769,0.00897332,0.127561,20.9089,578.762,26.6809,0.0,0.0
8496,2123.75,22.6267,23.4677,156.714,105.145,5.48196,0.0091217,0.128183,20.9112,578.632,26.6837,0.0,0.0
8514,2128.25,22.7955,23.6637,159.545,105.223,5.45727,0.00881706,0.128607,20.9116,578.512,26.7311,0.0,0.0
8532,2132.75,22.3071,23.1844,155.056,105.279,5.47294,0.00902235,0.128616,20.9117,578.412,26.7101,0.0,0.0
8550,2137.25,22.9854,23.5147,150.839,105.339,5.47057,0.00922544,0.128119,20.9117,578.272,26.7191,0.0,0.0
8568,2141.75,22.5974,23.5594,154.435,105.327,5.47674,0.00916765,0.127766,20.9117,578.132,26.7079,0.0,0.0
8586,2146.25,22.5914,23.3795,157.085,105.348,5.47342,0.00888082,0.127918,20.9135,578.032,26.7152,0.0,0.0
8604,2150.75,22.7341,23.8623,154.134,105.337,5.48766,0.0089967,0.127884,20.914,577.912,26.6907,0.0,0.0
8622,2155.25,22.5497,23.2486,157.002,105.327,5.43733,0.00869032,0.128517,20.914,577.781,26.7731,0.0,0.0
8640,2159.75,22.4646,23.8682,157.072,105.3,5.45917,0.00853927,0.12795,20.9146,577.661,26.7347,0.0,0.0
8658,2164.25,22.1778,23.4271,157.991,105.271,5.49431,0.00861313,0.127757,20.9142,577.531,26.6742,0.0,0.0
8676,2168.75,22.5595,23.2794,157.727,105.217,5.44635,0.00873862,0.127885,20.9113,577.421,26.7487,0.0,0.0
8694,2173.25,22.5561,23.8386,157.248,105.146,5.45347,,0.128276,,577.281,26.7309,0.0,0.0
8712,2177.75,22.3534,23.73,156.039,105.079,5.44872,,,,577.171,26.7329,0.0,0.0
8726,2181.25,22.7873,23.4982,151.455,105.013,5.4416,,,,577.051,26.739,0.0,0.0