File: 01_Data/Wood_Stud/Cone/Wood_Stud_Cone_HF50Scan_221004_R3.csv
Names,Time,Stack TC,Smoke TC,Exh Press,Smoke Comp,Smoke Meas,CO Meter,CO2 Meter,O2 Meter,Sample Mass,Ext Coeff,Start Test,Flame Verif
Chan Gain,,500,500,1,1,1,1,1,1,1,1,1.0,1.0
Offset,,0,0,0.136221,0,0,0,0,0,0,0,0.0,0.0
Gain,,1,1,25.011,13.9274,292.346,1,1,1,1.00091,1.04463,1.0,1.0
Units,sec,C,C,Pa,%,%,%,%,%,g,/m,,
Baseline,,34.9784,36.3594,151.861,103.603,104.812,0.000524889,0.0638361,20.9507,-443.703,-0.106249,,
22,5.25,33.5032,34.4473,148.831,103.909,107.524,0.000623413,0.072446,20.9399,220.28,-0.313394,0.0,0.0
44,10.75,33.4939,34.9105,151.997,103.942,103.866,0.000984247,0.0720058,20.941,220.139,0.00665118,0.0,0.0
66,16.25,34.1822,34.9219,133.934,104.004,113.858,0.00250551,0.169141,20.7979,219.579,-0.829565,0.0,1.0
88,21.75,38.5833,38.5325,127.299,104.019,112.351,0.00479421,0.457083,20.4582,218.618,-0.706061,0.0,0.0
110,27.25,43.552,43.7585,136.2,104.053,107.667,0.00576486,0.506922,20.4279,217.717,-0.312853,0.0,0.0
132,32.75,47.2149,47.2282,133.97,104.084,110.272,0.00559112,0.446818,20.4948,216.967,-0.529164,0.0,0.0
154,38.25,48.3717,49.4153,136.24,104.09,110.986,0.00513167,0.402624,20.5509,216.256,-0.587834,0.0,0.0
176,43.75,49.8273,51.0278,139.515,104.104,109.478,0.00465939,0.375926,20.5859,215.625,-0.461183,0.0,0.0
198,49.25,50.74,52.6844,140.999,104.075,111.931,0.00452096,0.358039,20.606,214.995,-0.666856,0.0,0.0
220,54.75,51.8875,53.7581,137.572,104.049,111.271,0.00423571,0.350541,20.6131,214.374,-0.614967,0.0,0.0
242,60.25,52.0758,54.7973,136.546,103.967,110.076,0.0041139,0.339785,20.6263,213.784,-0.523172,0.0,0.0
264,65.75,52.5159,55.5095,142.206,103.905,110.477,0.00404352,0.331775,20.6359,213.173,-0.562004,0.0,0.0
286,71.25,52.9467,56.2639,138.368,103.801,112.743,0.00374765,0.323983,20.646,212.623,-0.757288,0.0,0.0
308,76.75,52.926,56.2255,139.014,103.693,111.762,0.00333862,0.316987,20.6529,212.092,-0.68671,0.0,0.0
330,82.25,53.2608,56.6669,139.363,103.569,111.102,0.00300554,0.310162,20.6628,211.542,-0.643355,0.0,0.0
352,87.75,53.4471,57.0638,142.248,103.42,111.887,0.00325232,0.301891,20.6724,211.001,-0.721091,0.0,0.0
374,93.25,52.705,57.1717,139.658,103.284,111.307,0.00324555,0.295232,20.6798,210.531,-0.685532,0.0,0.0
396,98.75,53.0868,57.3729,142.126,103.119,111.905,0.00299196,0.28813,20.6893,210.05,-0.749254,0.0,0.0
418,104.25,52.7858,57.1316,143.461,102.99,112.199,0.00286788,0.281868,20.6983,209.58,-0.784744,0.0,0.0
440,109.75,52.5927,56.7829,142.388,102.876,112.529,0.00264601,0.277657,20.7028,209.119,-0.821881,0.0,0.0
462,115.25,52.5406,56.9548,140.86,102.798,114.189,0.00279199,0.270139,20.7114,208.659,-0.962954,0.0,0.0
484,120.75,52.0039,56.7215,140.047,102.818,112.199,0.00290916,0.265162,20.7157,208.209,-0.800072,0.0,0.0
506,126.25,52.4022,56.6414,143.706,102.842,112.101,0.00250991,0.261812,20.7221,207.808,-0.789933,0.0,0.0
528,131.75,52.0921,55.9354,139.043,102.935,114.117,0.00239668,0.256969,20.7283,207.368,-0.945034,0.0,0.0
550,137.25,51.5701,55.7966,139.967,103.046,112.458,0.00211812,0.254936,20.7306,206.947,-0.800898,0.0,0.0
572,142.75,51.3165,55.6837,147.414,103.238,113.43,0.00255341,0.252205,20.7339,206.517,-0.862766,0.0,0.0
594,148.25,51.1084,55.4659,139.747,103.452,114.786,0.00265217,0.250571,20.7365,206.127,-0.952637,0.0,0.0
616,153.75,51.1575,55.5177,143.831,103.671,114.305,0.00231732,0.246426,20.7408,205.716,-0.894765,0.0,0.0
638,159.25,50.7746,55.0076,142.461,103.875,114.769,0.00239016,0.242379,20.7453,205.326,-0.913866,0.0,0.0
660,164.75,50.9239,55.1107,146.725,104.063,115.179,0.00205705,0.23926,20.7498,204.926,-0.929981,0.0,0.0
682,170.25,50.5626,54.6663,141.538,104.241,116.303,0.00188771,0.237594,20.7505,204.565,-1.00331,0.0,0.0
704,175.75,50.1995,54.723,143.214,104.378,116.214,0.00211301,0.234542,20.7519,204.165,-0.984257,0.0,0.0
726,181.25,50.2915,54.3739,144.814,104.524,115.58,0.00214864,0.232739,20.7555,203.855,-0.921385,0.0,0.0
748,186.75,49.9649,54.2045,145.028,104.604,117.293,0.00220043,0.229515,20.7589,203.404,-1.04916,0.0,0.0
770,192.25,49.7498,53.8497,144.123,104.665,115.91,0.00214932,0.227628,20.7608,203.074,-0.935118,0.0,0.0
792,197.75,49.6323,53.4624,140.905,104.709,116.651,0.00203167,0.227152,20.7622,202.724,-0.989642,0.0,0.0
814,203.25,49.4107,53.0214,138.306,104.689,115.661,0.0018599,0.227459,20.7626,202.373,-0.913303,0.0,0.0
836,208.75,49.558,53.4459,142.885,104.671,116.348,0.00168859,0.226831,20.7621,201.993,-0.96913,0.0,0.0
858,214.25,48.9456,53.1168,144.31,104.612,117.641,0.00167776,0.22651,20.7618,201.643,-1.07559,0.0,0.0
880,219.75,49.1837,53.0251,141.073,104.535,117.445,0.00195349,0.226668,20.7634,201.302,-1.06707,0.0,0.0
902,225.25,49.1382,53.1602,145.443,104.442,115.732,0.00196592,0.227163,20.7653,200.932,-0.940559,0.0,0.0
924,230.75,49.1447,52.8402,141.111,104.344,115.554,0.00210133,0.227403,20.7652,200.572,-0.935075,0.0,0.0
946,236.25,48.8816,52.6412,145.571,104.244,116.098,0.0020447,0.226569,20.7647,200.231,-0.986869,0.0,0.0
968,241.75,48.5736,52.7445,142.725,104.128,116.481,0.00190843,0.225748,20.7631,199.871,-1.0273,0.0,0.0
990,247.25,49.0601,52.6659,138.448,104.064,115.402,0.0019165,0.226076,20.7637,199.521,-0.947596,0.0,0.0
1012,252.75,48.8082,52.3184,143.238,103.965,114.162,0.00213611,0.22535,20.7647,199.16,-0.857317,0.0,0.0
1034,258.25,49.0125,52.4189,138.023,103.9,115.777,0.00182985,0.225917,20.7628,198.83,-0.991797,0.0,0.0
1056,263.75,49.146,52.5299,140.922,103.845,114.537,0.00171267,0.225271,20.7653,198.48,-0.897952,0.0,0.0
1078,269.25,49.0988,52.7103,139.661,103.775,114.635,0.00187918,0.226056,20.7662,198.119,-0.912029,0.0,0.0
1100,274.75,48.814,52.4245,145.058,103.859,115.393,0.00204081,0.22479,20.7663,197.779,-0.965019,0.0,0.0
1122,280.25,49.2736,52.3398,141.126,103.952,114.688,0.00196455,0.22467,20.7663,197.419,-0.900669,0.0,0.0
1144,285.75,48.9622,52.2934,145.355,104.079,115.58,0.00206843,0.224348,20.7665,197.099,-0.960444,0.0,0.0
1166,291.25,48.8457,52.2628,141.226,104.146,115.616,0.00172354,0.223912,20.768,196.758,-0.957437,0.0,0.0
1188,296.75,49.0297,52.151,141.322,104.227,116.223,0.00178253,0.223105,20.7689,196.408,-0.998217,0.0,0.0
1210,302.25,49.0459,51.6206,144.149,104.257,117.311,0.00160011,0.22187,20.769,196.058,-1.08102,0.0,0.0
1232,307.75,48.8281,52.4536,145.845,104.261,115.554,0.00193606,0.222119,20.7688,195.757,-0.942319,0.0,0.0
1254,313.25,49.3577,52.1742,146.953,104.27,115.179,0.00212893,0.220744,20.7689,195.397,-0.911809,0.0,0.0
1276,318.75,48.6161,52.0029,144.132,104.189,115.607,0.00170885,0.218833,20.771,195.057,-0.952878,0.0,0.0
1298,324.25,47.9993,52.1569,149.462,104.133,115.25,0.00194159,0.217897,20.7713,194.716,-0.929484,0.0,0.0
1320,329.75,48.4507,51.736,142.351,104,116.731,0.00220222,0.217802,20.7713,194.356,-1.0582,0.0,0.0
1342,335.25,47.955,51.6993,144.803,103.843,113.252,0.0022918,0.218214,20.7729,194.056,-0.794738,0.0,0.0
1364,340.75,48.2354,51.8343,143.768,103.66,115.473,0.00239747,0.217115,20.7747,193.715,-0.988923,0.0,0.0
1386,346.25,48.3718,51.2714,140.747,103.489,115.803,0.00227623,0.216967,20.7749,193.425,-1.03024,0.0,0.0
1408,351.75,48.3839,51.5554,145.186,103.404,115.402,0.00228247,0.216856,20.774,193.065,-1.00594,0.0,0.0
1430,357.25,48.5281,50.8227,142.638,103.439,116.018,0.00213804,0.21728,20.7728,192.715,-1.05157,0.0,0.0
1452,362.75,48.5892,50.6563,145.432,103.503,116.053,0.00196773,0.217041,20.7744,192.394,-1.04874,0.0,0.0
1474,368.25,48.347,51.39,142.381,103.551,116.223,0.00169734,0.216807,20.7746,192.074,-1.0579,0.0,0.0
1496,373.75,48.3233,51.6501,141.696,103.611,115.438,0.00181535,0.217038,20.7749,191.754,-0.990488,0.0,0.0
1518,379.25,47.7719,51.5463,145.812,103.693,114.305,0.00203084,0.216531,20.7748,191.443,-0.892774,0.0,0.0
1540,384.75,48.2126,51.0149,145.02,103.727,115.866,0.00204872,0.215077,20.7762,191.113,-1.01412,0.0,0.0
1562,390.25,48.3644,51.3174,146.822,103.816,115.687,0.00216244,0.216659,20.773,190.753,-0.992158,0.0,0.0
1584,395.75,47.8174,50.9367,144.822,103.849,116.722,0.00204758,0.216671,20.7739,190.433,-1.07088,0.0,0.0
1606,401.25,48.0173,51.4127,144.268,103.917,116.151,0.00171569,0.215952,20.7739,190.142,-1.01991,0.0,0.0
1628,406.75,48.1436,50.9889,145.177,103.925,115.661,0.00202898,0.216043,20.7737,189.792,-0.980402,0.0,0.0
1650,412.25,48.1513,50.9818,141.528,103.96,114.67,0.00183624,0.215184,20.7737,189.462,-0.898494,0.0,0.0
1672,417.75,48.2708,50.6695,145.639,103.988,115.893,0.00194994,0.215143,20.7726,189.171,-0.993253,0.0,0.0
1694,423.25,48.194,50.9714,139.049,103.993,116.49,0.00224244,0.217581,20.7705,188.781,-1.03991,0.0,0.0
1716,428.75,48.0458,50.8796,143.117,104.011,115.232,0.00210687,0.216789,20.7734,188.471,-0.938805,0.0,0.0
1738,434.25,48.3943,50.9273,141.676,104.021,115.509,0.0018235,0.217954,20.7722,188.15,-0.959949,0.0,0.0
1760,439.75,47.8845,50.9403,151.109,104.037,113.796,0.00175179,0.217384,20.772,187.85,-0.821618,0.0,0.0
1782,445.25,48.2648,50.764,140.09,104.05,116.812,0.00196576,0.218245,20.772,187.51,-1.06012,0.0,0.0
1804,450.75,48.1103,50.9262,141.621,104.064,114.706,0.00196189,0.216765,20.7706,187.18,-0.892247,0.0,0.0
1826,456.25,47.7222,51.0238,144.129,104.076,114.635,0.00173104,0.215148,20.7713,186.859,-0.885421,0.0,0.0
1848,461.75,48.1408,50.2941,141.69,104.068,115.527,0.00205935,0.216422,20.7713,186.519,-0.957209,0.0,0.0
1870,467.25,48.1827,51.068,146.068,104.089,115.902,0.00222815,0.216445,20.7713,186.219,-0.985049,0.0,0.0
1892,472.75,48.2635,50.5498,142.438,104.064,115.232,0.00222011,0.217076,20.7717,185.898,-0.934201,0.0,0.0
1914,478.25,47.9867,50.3695,144.761,104.029,115.447,0.00239496,0.217615,20.7702,185.578,-0.954281,0.0,0.0
1936,483.75,47.9485,50.9466,142.83,104.005,115.794,0.00224522,0.216797,20.7718,185.248,-0.983917,0.0,0.0
1958,489.25,48.017,51.1553,138.393,103.936,115.777,0.00205653,0.21772,20.7723,184.918,-0.988611,0.0,0.0
1980,494.75,48.5714,50.9342,145.974,103.863,115.054,0.00220476,0.21712,20.7717,184.637,-0.937646,0.0,0.0
2002,500.25,47.6564,50.4763,148.441,103.742,114.724,0.00230393,0.216061,20.7731,184.297,-0.92201,0.0,0.0
2024,505.75,48.1146,51.0207,145.825,103.633,113.992,0.0021274,0.214853,20.7757,183.957,-0.87308,0.0,0.0
2046,511.25,47.447,50.3174,142.243,103.507,114.206,0.00197514,0.214372,20.7772,183.616,-0.901408,0.0,0.0
2068,516.75,47.4675,51.5339,144.238,103.412,114.51,0.00204011,0.213564,20.7793,183.316,-0.934109,0.0,0.0
2090,522.25,47.8897,50.7091,141.43,103.316,114.965,0.00224439,0.214724,20.7772,182.976,-0.978963,0.0,0.0
2112,527.75,48.3545,50.7324,145.276,103.208,114.287,0.00241995,0.215016,20.7759,182.655,-0.934376,0.0,0.0
2134,533.25,47.8776,50.5742,142.522,103.117,115.125,0.00265089,0.216608,20.7748,182.345,-1.00945,0.0,0.0
2156,538.75,48.1277,50.9142,147.245,103.009,114.474,0.00264417,0.215148,20.7754,182.015,-0.967026,0.0,0.0
2178,544.25,48.2461,50.9493,142.063,102.953,114.983,0.00242919,0.214652,20.7779,181.705,-1.0126,0.0,0.0
2200,549.75,48.0642,50.8802,147.066,102.882,113.992,0.00236121,0.214497,20.7775,181.354,-0.939692,0.0,0.0
2222,555.25,48.0644,50.9277,145.152,102.837,112.609,0.00223969,0.21467,20.7778,181.054,-0.831863,0.0,0.0
2244,560.75,48.2436,51.139,142.088,102.796,113.68,0.00219811,0.216289,20.7763,180.724,-0.922206,0.0,0.0
2266,566.25,48.3686,50.7614,140.72,102.774,113.734,0.00237174,0.21591,20.7764,180.423,-0.928452,0.0,0.0
2288,571.75,47.7404,50.4889,142.275,102.805,114.153,0.00276729,0.216803,20.7754,180.103,-0.959447,0.0,0.0
2310,577.25,48.3805,50.9934,142.529,102.828,113.386,0.00258642,0.216526,20.7762,179.763,-0.89564,0.0,0.0
2332,582.75,48.1701,50.881,145.083,102.902,113.252,0.00247665,0.215261,20.7769,179.443,-0.878155,0.0,0.0
2354,588.25,48.0912,50.7017,145.887,102.951,115.045,0.00260218,0.21484,20.7765,179.132,-1.01776,0.0,0.0
2376,593.75,48.1812,50.932,146.063,103.032,115.313,0.00229987,0.214436,20.7764,178.802,-1.03187,0.0,0.0
2398,599.25,48.1778,50.7321,143.959,103.145,113.85,0.00233205,0.213563,20.7783,178.522,-0.904807,0.0,0.0
2420,604.75,48.313,51.2692,144.6,103.256,114.331,0.0021138,0.213206,20.7786,178.191,-0.933651,0.0,0.0
2442,610.25,48.3549,51.0625,145.122,103.41,114.385,0.00241428,0.212783,20.7778,177.881,-0.924297,0.0,0.0
2464,615.75,48.0834,50.7397,143.414,103.551,113.377,0.00262529,0.213379,20.7774,177.561,-0.830642,0.0,0.0
2486,621.25,48.0575,51.1988,149.042,103.741,114.706,0.00255752,0.213097,20.7774,177.231,-0.920698,0.0,0.0
2508,626.75,47.9469,50.8667,143.166,103.889,115.304,0.00260717,0.212739,20.7791,176.92,-0.95527,0.0,0.0
2530,632.25,48.1107,50.866,144.326,104.05,115.179,0.00257929,0.212681,20.7801,176.62,-0.931178,0.0,0.0
2552,637.75,48.2308,50.6753,144.348,104.212,115.75,0.00241146,0.212596,20.7808,176.31,-0.962242,0.0,0.0
2574,643.25,47.799,50.9824,143.406,104.317,116.169,0.00221691,0.211309,20.783,175.999,-0.986077,0.0,0.0
2596,648.75,48.3976,51.1287,139.267,104.45,116.865,0.00226283,0.211559,20.7833,175.689,-1.02916,0.0,0.0
2618,654.25,47.7877,50.6353,143.766,104.527,116.205,0.00253925,0.210302,20.7835,175.369,-0.970504,0.0,0.0
2640,659.75,47.8795,50.8912,147.032,104.613,115.732,0.00264216,0.210003,20.7842,175.079,-0.92558,0.0,0.0
2662,665.25,48.4168,50.9869,141.22,104.656,116.223,0.00264882,0.209032,20.7872,174.738,-0.96059,0.0,0.0
2684,670.75,47.9337,50.645,147.13,104.705,115.67,0.00242542,0.208044,20.7875,174.428,-0.912595,0.0,0.0
2706,676.25,48.0207,50.5147,142.54,104.711,116.214,0.00270859,0.208681,20.7867,174.138,-0.95505,0.0,0.0
2728,681.75,47.9783,50.623,142.485,104.685,116.196,0.00259702,0.207331,20.7872,173.837,-0.95595,0.0,0.0
2750,687.25,47.815,50.6094,142.895,104.664,115.518,0.00275512,0.208041,20.7856,173.527,-0.904181,0.0,0.0
2772,692.75,48.1836,50.8384,144.478,104.563,115.803,0.00294592,0.208382,20.785,173.217,-0.935661,0.0,0.0
2794,698.25,47.8904,50.5929,138.825,104.477,116.749,0.00292708,0.20788,20.787,172.947,-1.01768,0.0,0.0
2816,703.75,48.2768,50.7791,142.122,104.358,116.205,0.00305295,0.206821,20.7884,172.636,-0.985345,0.0,0.0
2838,709.25,47.9012,50.305,142.994,104.215,115.232,0.00289783,0.205444,20.7889,172.336,-0.920887,0.0,0.0
2860,714.75,47.9777,50.4109,144.739,104.087,114.688,0.00267851,0.204453,20.7889,172.026,-0.888726,0.0,0.0
2882,720.25,47.8418,49.9735,145.521,103.95,114.76,0.00299698,0.205156,20.7889,171.736,-0.906521,0.0,0.0
2904,725.75,47.3813,50.11,143.139,103.848,115.322,0.00281179,0.204715,20.7892,171.425,-0.960288,0.0,0.0
2926,731.25,47.0303,50.19,143.372,103.865,115.696,0.00301057,0.204459,20.7903,171.105,-0.988551,0.0,0.0
2948,736.75,47.4047,50.2443,145.793,104.095,114.679,0.00300805,0.203911,20.793,170.825,-0.88734,0.0,0.0
2970,742.25,47.2358,50.3702,143.942,104.24,115.857,0.00281733,0.20355,20.7946,170.524,-0.968248,0.0,0.0
2992,747.75,47.485,50.2297,143.266,104.279,115.072,0.00239906,0.201705,20.7956,170.224,-0.902465,0.0,0.0
3014,753.25,47.2953,50.0005,140.87,104.284,115.679,0.00259513,0.202491,20.7953,169.904,-0.950201,0.0,0.0
3036,758.75,47.156,50.0671,144.579,104.2,116.018,0.00267756,0.202276,20.7953,169.634,-0.984379,0.0,0.0
3058,764.25,47.2892,50.095,139.666,104.073,115.045,0.00290611,0.201429,20.7973,169.343,-0.918504,0.0,0.0
3080,769.75,47.3153,49.7661,144.874,103.87,116.062,0.00288599,0.201409,20.7957,169.013,-1.01703,0.0,0.0
3102,775.25,47.4751,49.4624,145.704,103.665,114.813,0.00291955,0.201363,20.7955,168.733,-0.935969,0.0,0.0
3124,780.75,47.198,49.8517,143.28,103.447,113.377,0.00280448,0.200722,20.7958,168.433,-0.839899,0.0,0.0
3146,786.25,47.0907,50.1055,139.899,103.42,114.456,0.00275214,0.201309,20.7939,168.112,-0.929109,0.0,0.0
3168,791.75,47.1939,49.559,143.362,103.486,115.402,0.00292378,0.201067,20.7949,167.832,-0.998713,0.0,0.0
3190,797.25,46.9991,49.5614,143.56,103.54,115.375,0.00310056,0.201757,20.794,167.512,-0.991771,0.0,0.0
3212,802.75,47.0312,49.6392,144.213,103.599,114.287,0.00328598,0.201256,20.7944,167.231,-0.899687,0.0,0.0
3234,808.25,47.0737,49.7439,144.482,103.654,115.268,0.00325607,0.200651,20.7929,166.911,-0.973152,0.0,0.0
3256,813.75,46.9328,49.7955,147.418,103.738,115.143,0.0034115,0.202568,20.7922,166.641,-0.955817,0.0,0.0
3278,819.25,47.0023,49.6769,144.287,103.813,113.252,0.00334837,0.202157,20.7943,166.341,-0.797401,0.0,0.0
3300,824.75,46.7054,49.6041,144.711,103.877,114.376,0.00305815,0.201309,20.7962,166.03,-0.88232,0.0,0.0
3322,830.25,47.394,49.7603,146.057,103.951,114.492,0.0034757,0.199503,20.7971,165.74,-0.885049,0.0,0.0
3344,835.75,47.1953,49.664,143.383,103.982,115.491,0.00332507,0.202144,20.7953,165.43,-0.961904,0.0,0.0
3366,841.25,47.0252,49.5535,144.007,104.039,114.51,0.00304679,0.201215,20.7945,165.12,-0.878687,0.0,0.0
3388,846.75,46.9199,49.0101,143.046,104.043,113.662,0.00330155,0.201407,20.7931,164.829,-0.810311,0.0,0.0
3410,852.25,46.9144,49.9402,146.046,104.078,115.411,0.00306464,0.202677,20.7923,164.539,-0.947106,0.0,0.0
3432,857.75,46.2925,49.6094,144.651,104.069,116.49,0.00330466,0.201679,20.7946,164.249,-1.03324,0.0,0.0
3454,863.25,47.3687,49.6921,146.119,104.049,114.305,0.00314805,0.20263,20.7922,163.949,-0.861428,0.0,0.0
3476,868.75,46.9374,49.3533,147.354,104.04,114.635,0.00311162,0.201691,20.7942,163.628,-0.888639,0.0,0.0
3498,874.25,46.9096,49.5787,141.487,103.985,115.197,0.00312986,0.201437,20.7946,163.338,-0.938252,0.0,0.0
3520,879.75,47.2479,49.7344,142.907,103.961,114.198,0.00284105,0.201794,20.7946,163.058,-0.860555,0.0,0.0
3542,885.25,46.908,49.722,142.048,103.907,116.758,0.00297657,0.202609,20.7929,162.727,-1.06851,0.0,0.0
3564,890.75,46.7314,50.1922,146.009,103.854,113.511,0.00299137,0.202624,20.7911,162.397,-0.814673,0.0,0.0
3586,896.25,46.6646,49.0766,142.559,103.774,113.671,0.0030714,0.202997,20.7907,162.147,-0.834718,0.0,0.0
3608,901.75,46.9638,49.4877,146.315,103.682,114.813,0.00326771,0.203931,20.7906,161.847,-0.934429,0.0,0.0
3630,907.25,47.2074,49.4779,142.969,103.626,114.099,0.00329824,0.202841,20.7906,161.536,-0.882284,0.0,0.0
3652,912.75,46.8509,49.0776,140.857,103.519,114.385,0.00304018,0.203741,20.7911,161.256,-0.91466,0.0,0.0
3674,918.25,47.5683,49.7211,144.387,103.463,114.322,0.00321464,0.205387,20.791,160.936,-0.914623,0.0,0.0
3696,923.75,47.018,49.6542,143.147,103.378,114.135,0.00301283,0.20504,20.7901,160.636,-0.907088,0.0,0.0
3718,929.25,47.2532,50.5442,141.438,103.302,115.027,0.00327408,0.205731,20.7891,160.345,-0.985184,0.0,0.0
3740,934.75,47.0476,49.7281,142.789,103.232,113.635,0.00314799,0.20559,20.7887,160.045,-0.879819,0.0,0.0
3762,940.25,47.0617,50.1388,146.609,103.163,113.296,0.00312985,0.205115,20.7891,159.745,-0.858554,0.0,0.0
3784,945.75,47.0927,50.2097,144.968,103.123,115.589,0.00350625,0.206228,20.7888,159.444,-1.04577,0.0,0.0
3806,951.25,46.9567,49.3503,144.204,103.051,113.974,0.00344593,0.205796,20.7883,159.174,-0.92324,0.0,0.0
3828,956.75,47.3398,49.9118,144.732,103.016,114.992,0.00311422,0.204264,20.7897,158.864,-1.00775,0.0,0.0
3850,962.25,47.2287,50.2165,143.143,102.972,113.35,0.00334169,0.204329,20.7873,158.544,-0.879925,0.0,0.0
3872,967.75,46.9313,49.8102,143.864,102.939,114.858,0.00350607,0.204479,20.7882,158.263,-1.00392,0.0,0.0
3894,973.25,47.2062,49.999,146.544,102.914,113.6,0.00357137,0.204047,20.7892,157.983,-0.905242,0.0,0.0
3916,978.75,46.9181,49.6435,147.67,102.885,113.475,0.00354849,0.202694,20.7891,157.683,-0.897774,0.0,0.0
3938,984.25,46.9712,49.2952,140.156,102.867,114.51,0.00360753,0.204399,20.7873,157.373,-0.982557,0.0,0.0
3960,989.75,47.0537,50.1044,146.148,102.833,113.546,0.00356096,0.205363,20.7873,157.082,-0.908155,0.0,0.0
3982,995.25,47.4086,49.4021,142.714,102.829,113.457,0.00403192,0.203713,20.7891,156.812,-0.901293,0.0,0.0
4004,1000.75,47.0497,49.168,144.431,102.788,113.805,0.00394646,0.203369,20.7911,156.532,-0.933026,0.0,0.0
4026,1006.25,47.5243,49.7514,139.554,102.768,114.01,0.00372608,0.20339,20.7901,156.222,-0.951277,0.0,0.0
4048,1011.75,47.3054,49.7608,143.029,102.757,113.136,0.00375352,0.203901,20.79,155.931,-0.881681,0.0,0.0
4070,1017.25,47.2577,49.6022,144.117,102.739,114.046,0.00354719,0.203093,20.7917,155.641,-0.956722,0.0,0.0
4092,1022.75,47.1412,49.8245,140.977,102.745,114.206,0.00365725,0.203375,20.7922,155.321,-0.969085,0.0,0.0
4114,1028.25,47.2839,49.3707,145.612,102.736,113.118,0.0033922,0.203434,20.7899,155.05,-0.882131,0.0,0.0
4136,1033.75,47.1744,49.2612,142.163,102.771,113.35,0.00311642,0.203984,20.7889,154.74,-0.897833,0.0,0.0
4158,1039.25,46.8948,49.6982,144.665,102.793,113.314,0.00341527,0.203451,20.7908,154.49,-0.892938,0.0,0.0
4180,1044.75,46.8962,49.4996,144.898,102.828,113.939,0.00365337,0.204091,20.7892,154.19,-0.940159,0.0,0.0
4202,1050.25,47.0871,49.7675,142.027,102.887,114.617,0.00376754,0.202512,20.7906,153.889,-0.989303,0.0,0.0
4224,1055.75,47.2807,49.5715,143.902,102.916,113.27,0.0035262,0.202713,20.7909,153.599,-0.878349,0.0,0.0
4246,1061.25,47.3333,49.7956,145.057,102.998,113.662,0.00340184,0.203757,20.7892,153.299,-0.90275,0.0,0.0
4268,1066.75,46.9312,49.736,146.334,103.05,114.153,0.00386959,0.203522,20.7902,153.009,-0.937614,0.0,0.0
4290,1072.25,47.1277,49.2649,140.893,103.149,114.715,0.00348649,0.203601,20.79,152.708,-0.973895,0.0,0.0
4312,1077.75,47.2853,49.9475,139.834,103.257,114.01,0.00328651,0.204368,20.7894,152.438,-0.90776,0.0,0.0
4334,1083.25,47.0524,49.1631,140.525,103.291,114.572,0.00328666,0.204517,20.7886,152.148,-0.949807,0.0,0.0
4356,1088.75,46.6391,49.5421,139.209,103.355,115.839,0.00329738,0.204964,20.7879,151.868,-1.04492,0.0,0.0
4378,1094.25,47.408,49.5181,144.852,103.392,115.161,0.00354557,0.204523,20.7899,151.577,-0.987886,0.0,0.0
4400,1099.75,47.0018,50.0624,145.972,103.469,114.438,0.003124,0.204339,20.7927,151.287,-0.923312,0.0,0.0
4422,1105.25,47.1967,49.7703,145.276,103.502,116.08,0.00332637,0.203183,20.7936,150.997,-1.05096,0.0,0.0
4444,1110.75,46.3923,49.688,143.314,103.582,115.473,0.00334345,0.205158,20.7911,150.697,-0.995839,0.0,0.0
4466,1116.25,47.097,49.5597,145.288,103.677,115.036,0.00338939,0.206035,20.7892,150.406,-0.952701,0.0,0.0
4488,1121.75,47.2836,49.2429,144.471,103.758,115.277,0.0033213,0.205198,20.7868,150.106,-0.964696,0.0,0.0
4510,1127.25,47.2554,49.743,141.197,103.877,116.258,0.00345285,0.205478,20.7878,149.806,-1.03187,0.0,0.0
4532,1132.75,47.3826,49.8922,145.865,103.934,114.929,0.00343622,0.205602,20.7876,149.545,-0.921469,0.0,0.0
4554,1138.25,46.6326,50.1097,143.561,104.039,116.58,0.00338119,0.205076,20.7886,149.255,-1.04292,0.0,0.0
4576,1143.75,47.3179,49.7551,144.239,104.123,115.536,0.00349665,0.204791,20.7876,148.935,-0.95309,0.0,0.0
4598,1149.25,47.1263,50.3627,142.929,104.199,114.867,0.00343724,0.205538,20.7865,148.665,-0.893136,0.0,0.0
4620,1154.75,47.2069,50.3544,144.051,104.257,115.536,0.00338806,0.204346,20.7881,148.344,-0.94124,0.0,0.0
4642,1160.25,47.2419,49.7872,144.752,104.323,116.464,0.00343248,0.204427,20.7886,148.084,-1.00879,0.0,0.0
4664,1165.75,47.7355,50.1025,144.854,104.398,115.099,0.00328942,0.205783,20.7872,147.784,-0.894146,0.0,0.0
4686,1171.25,47.4231,50.1678,148.953,104.455,114.715,0.00342858,0.204,20.789,147.504,-0.858554,0.0,0.0
4708,1176.75,47.766,49.5501,140.718,104.522,115.464,0.0036476,0.205592,20.7878,147.203,-0.912371,0.0,0.0
4730,1182.25,47.1443,50.1599,145.28,104.547,115.518,0.00347146,0.205416,20.7882,146.923,-0.914383,0.0,0.0
4752,1187.75,47.7572,49.8905,145.789,104.59,115.848,0.00340893,0.204523,20.7899,146.643,-0.936806,0.0,0.0
4774,1193.25,47.3091,50.2508,145.133,104.614,115.384,0.00325035,0.204333,20.7903,146.363,-0.897952,0.0,0.0
4796,1198.75,47.03,49.873,142.483,104.618,116.624,0.00321363,0.205237,20.7883,146.062,-0.995502,0.0,0.0
4818,1204.25,47.8682,50.6682,147.096,104.645,116.258,0.00334042,0.206976,20.7877,145.752,-0.964371,0.0,0.0
4840,1209.75,46.9438,49.1508,144.9,104.651,115.295,0.00362674,0.206044,20.7882,145.462,-0.887588,0.0,0.0
4862,1215.25,47.8425,50.2862,139.803,104.678,115.91,0.00358916,0.206985,20.7872,145.172,-0.93404,0.0,0.0
4884,1220.75,47.165,49.4795,145.007,104.677,116.803,0.0032924,0.206837,20.787,144.891,-1.00441,0.0,0.0
4906,1226.25,47.7429,50.1128,147.28,104.692,116.062,0.00328933,0.206311,20.787,144.581,-0.944757,0.0,0.0
4928,1231.75,47.2935,50.3489,142.567,104.701,116.838,0.00306852,0.206867,20.786,144.311,-1.00505,0.0,0.0
4950,1237.25,47.5861,49.8438,145.355,104.697,117.32,0.00372275,0.20755,20.7859,144.01,-1.04313,0.0,0.0
4972,1242.75,47.2098,49.7212,142.795,104.718,116.945,0.00361611,0.207901,20.7875,143.72,-1.012,0.0,0.0
4994,1248.25,46.8426,50.3709,144.003,104.702,117.07,0.00333401,0.207859,20.787,143.45,-1.02315,0.0,0.0
5016,1253.75,47.8679,50.5763,145.415,104.722,116.321,0.00343543,0.208671,20.7857,143.16,-0.962595,0.0,0.0
5038,1259.25,47.7099,50.1939,141.946,104.709,115.438,0.00348968,0.20788,20.7857,142.849,-0.893866,0.0,0.0
5060,1264.75,47.7725,50.3405,143.41,104.692,115.232,0.00352903,0.207974,20.785,142.579,-0.879014,0.0,0.0
5082,1270.25,47.5607,50.0804,146.641,104.688,115.991,0.00345952,0.207259,20.7857,142.279,-0.939493,0.0,0.0
5104,1275.75,47.4502,50.0469,142.372,104.665,116.633,0.00319838,0.207185,20.7872,142.009,-0.992146,0.0,0.0
5126,1281.25,47.3979,50.073,146.48,104.659,114.795,0.00332083,0.206772,20.787,141.708,-0.847086,0.0,0.0
5148,1286.75,47.4073,50.2541,140.049,104.621,118.489,0.00315003,0.207881,20.7864,141.408,-1.14063,0.0,0.0
5170,1292.25,47.4278,49.8502,141.825,104.62,115.866,0.00332862,0.206968,20.7864,141.158,-0.935574,0.0,0.0
5192,1297.75,46.9951,49.4446,144.106,104.582,116.223,0.00332585,0.20655,20.7864,140.858,-0.967068,0.0,0.0
5214,1303.25,47.5177,50.3479,143.501,104.557,116.33,0.00321814,0.206334,20.7874,140.567,-0.977665,0.0,0.0
5236,1308.75,47.5122,50.2612,143.951,104.529,114.661,0.00328837,0.203858,20.7909,140.287,-0.847829,0.0,0.0
5258,1314.25,47.9033,49.8307,139.611,104.492,115.116,0.00331612,0.204545,20.7896,140.027,-0.887362,0.0,0.0
5280,1319.75,47.324,50.347,148.641,104.46,115.696,0.00338102,0.206422,20.7877,139.717,-0.936203,0.0,0.0
5302,1325.25,47.2606,49.8902,143.071,104.376,117.16,0.00337484,0.206371,20.788,139.456,-1.05875,0.0,0.0
5324,1330.75,47.6765,50.1871,148.019,104.336,115.143,0.00354282,0.206036,20.7882,139.176,-0.903107,0.0,0.0
5346,1336.25,47.633,50.1702,144.779,104.298,115.072,0.00338174,0.206913,20.7868,138.886,-0.900822,0.0,0.0
5368,1341.75,47.7476,49.6722,145.192,104.218,115.741,0.00308286,0.206161,20.7889,138.596,-0.960938,0.0,0.0
5390,1347.25,47.2452,50.0272,140.415,104.178,114.867,0.00353424,0.206526,20.7881,138.305,-0.895004,0.0,0.0
5412,1352.75,47.7637,50.1011,144.256,104.097,115.491,0.00336874,0.206583,20.7876,138.055,-0.951795,0.0,0.0
5434,1358.25,47.3181,49.8943,143.197,104.055,115.42,0.00340512,0.20399,20.7891,137.735,-0.949835,0.0,0.0
5456,1363.75,47.2599,49.8141,145.57,103.975,113.85,0.00323984,0.204958,20.7893,137.485,-0.831394,0.0,0.0
5478,1369.25,47.4247,49.8365,142.756,103.928,115.072,0.00345399,0.206187,20.788,137.214,-0.933331,0.0,0.0
5500,1374.75,47.2121,50.1613,145.944,103.867,115.375,0.00348972,0.205124,20.7896,136.914,-0.962853,0.0,0.0
5522,1380.25,47.3452,49.8371,143.08,103.806,116.25,0.00333893,0.204752,20.7889,136.634,-1.03743,0.0,0.0
5544,1385.75,47.3961,50.0565,142.32,103.888,115.063,0.00328091,0.204988,20.7889,136.394,-0.936181,0.0,0.0
5566,1391.25,47.4515,50.023,145.588,103.994,115.241,0.00368098,0.204833,20.7882,136.063,-0.941051,0.0,0.0
5588,1396.75,47.2993,50.1996,142.381,104.107,113.858,0.00354323,0.203933,20.7908,135.823,-0.820433,0.0,0.0
5610,1402.25,46.9638,49.5865,143.603,104.178,116.098,0.00337531,0.20308,20.7913,135.573,-0.992699,0.0,0.0
5632,1407.75,47.1173,50.1702,141.65,104.249,116.107,0.00353009,0.205893,20.7883,135.293,-0.987162,0.0,0.0
5654,1413.25,47.2534,49.917,148.032,104.3,115.821,0.00318042,0.204875,20.7891,134.992,-0.960083,0.0,0.0
5676,1418.75,47.5833,50.2597,146.783,104.305,116.58,0.00324107,0.205759,20.7901,134.722,-1.01951,0.0,0.0
5698,1424.25,47.2946,49.8488,145.838,104.319,115.482,0.00344879,0.204549,20.7909,134.442,-0.931615,0.0,0.0
5720,1429.75,47.2163,49.7469,143.759,104.273,115.794,0.00342495,0.204349,20.7928,134.172,-0.960393,0.0,0.0
5742,1435.25,47.4989,49.7404,145.708,104.241,116.705,0.00339807,0.203931,20.7913,133.901,-1.03489,0.0,0.0
5764,1440.75,47.1644,49.9951,141.585,104.141,114.867,0.00365974,0.203192,20.7929,133.611,-0.898296,0.0,0.0
5786,1446.25,47.656,50.0112,147.028,104.059,115.197,0.0036351,0.2036,20.7933,133.361,-0.931737,0.0,0.0
5808,1451.75,47.9353,50.2117,145.181,103.921,113.867,0.00357998,0.203101,20.7933,133.091,-0.837552,0.0,0.0
5830,1457.25,46.944,49.8391,146.196,103.747,115.455,0.00340152,0.202109,20.795,132.81,-0.979808,0.0,0.0
5852,1462.75,47.3734,49.7721,149.451,103.55,114.34,0.00340274,0.203461,20.7935,132.52,-0.908339,0.0,0.0
5874,1468.25,47.084,49.6726,143.883,103.388,112.984,0.00353084,0.202589,20.7926,132.27,-0.813314,0.0,0.0
5896,1473.75,47.0408,49.4369,143.415,103.437,114.403,0.00356722,0.20121,20.7929,132.01,-0.923316,0.0,0.0
5918,1479.25,47.0498,49.6057,142.863,103.475,115.384,0.00359473,0.202408,20.7928,131.739,-0.998199,0.0,0.0
5940,1484.75,47.1106,49.6813,142.282,103.529,114.884,0.00348294,0.202376,20.7938,131.439,-0.953656,0.0,0.0
5962,1490.25,47.0818,49.7813,144.126,103.582,113.743,0.00339054,0.202386,20.7935,131.179,-0.857413,0.0,0.0
5984,1495.75,47.0502,49.8693,144.011,103.622,115.116,0.00349062,0.201411,20.7933,130.869,-0.963905,0.0,0.0
6006,1501.25,46.8328,49.5638,143.319,103.692,115.919,0.00350572,0.20176,20.795,130.638,-1.02147,0.0,0.0
6028,1506.75,47.5673,49.8132,140.807,103.718,114.893,0.00349255,0.199386,20.7976,130.368,-0.93768,0.0,0.0
6050,1512.25,46.9744,49.609,142.608,103.807,115.393,0.00335506,0.201143,20.795,130.078,-0.969596,0.0,0.0
6072,1517.75,46.4732,50.0083,143.02,103.852,113.466,0.00347096,0.201916,20.7941,129.798,-0.81126,0.0,0.0
6094,1523.25,47.1667,49.5449,144.386,103.904,115.42,0.00346014,0.200495,20.7955,129.517,-0.963133,0.0,0.0
6116,1528.75,46.7204,49.3259,141.644,103.961,115.536,0.00326728,0.201678,20.7927,129.277,-0.967352,0.0,0.0
6138,1534.25,47.0119,49.7025,142.962,103.989,115.063,0.0032407,0.202712,20.7916,128.997,-0.927263,0.0,0.0
6160,1539.75,46.6849,49.3922,143.601,104.044,113.725,0.00337106,0.201985,20.7927,128.737,-0.81527,0.0,0.0
6182,1545.25,46.9706,49.7281,139.867,104.022,116.687,0.00331873,0.200571,20.7949,128.456,-1.05283,0.0,0.0
6204,1550.75,47.3276,49.9274,142.237,104.036,115.116,0.00329313,0.200683,20.7937,128.196,-0.927443,0.0,0.0
6226,1556.25,46.8623,49.6258,141.282,104.014,115.964,0.00323042,0.201484,20.7944,127.906,-0.996536,0.0,0.0
6248,1561.75,47.0598,49.6839,142.991,103.985,113.751,0.00330944,0.200852,20.796,127.636,-0.822631,0.0,0.0
6270,1567.25,47.2722,49.8841,138.546,103.934,115.17,0.00326843,0.201447,20.7962,127.385,-0.940618,0.0,0.0
6292,1572.75,46.9613,49.5116,140.192,103.835,115.598,0.00334826,0.20289,20.7949,127.145,-0.983363,0.0,0.0
6314,1578.25,47.3378,50.1107,147.713,103.755,116.481,0.00358672,0.203327,20.794,126.865,-1.06024,0.0,0.0
6336,1583.75,46.9349,49.3001,147.613,103.626,114.581,0.00334594,0.201756,20.7956,126.555,-0.920894,0.0,0.0
6358,1589.25,47.3912,49.6803,144.401,103.531,115.125,0.0028737,0.204444,20.7921,126.314,-0.972699,0.0,0.0
6380,1594.75,47.3371,49.7802,147.565,103.387,114.135,0.00330368,0.204441,20.7926,126.044,-0.906296,0.0,0.0
6402,1600.25,47.3957,49.9215,143.983,103.259,113.341,0.00348327,0.203768,20.7923,125.744,-0.853633,0.0,0.0
6424,1605.75,47.1075,49.7862,142.682,103.13,114.206,0.00316858,0.205517,20.7909,125.454,-0.934844,0.0,0.0
6446,1611.25,47.615,49.9082,143.162,103.038,115.259,0.00310173,0.207976,20.7883,125.223,-1.02705,0.0,0.0
6468,1616.75,47.134,50.3776,139.715,102.942,114.269,0.00316161,0.207289,20.7891,124.933,-0.956561,0.0,0.0
6490,1622.25,47.6454,49.9415,149.93,102.854,113.573,0.00306409,0.207188,20.7887,124.653,-0.908421,0.0,0.0
6512,1627.75,47.3125,49.9212,145.935,102.817,112.431,0.00290063,0.206931,20.792,124.403,-0.819149,0.0,0.0
6534,1633.25,47.6572,50.1604,142.421,102.799,113.903,0.00327852,0.20757,20.7918,124.132,-0.93994,0.0,0.0
6556,1638.75,47.1752,50.2768,141.918,102.761,113.805,0.0034106,0.206727,20.7926,123.872,-0.935376,0.0,0.0
6578,1644.25,47.4038,49.7075,140.098,102.753,114.849,0.0031015,0.207509,20.7909,123.572,-1.0198,0.0,0.0
6600,1649.75,47.3016,50.079,141.745,102.736,113.716,0.00311678,0.208046,20.7924,123.292,-0.930426,0.0,0.0
6622,1655.25,47.5229,50.4877,146.65,102.732,113.056,0.00286111,0.209939,20.7873,122.991,-0.877412,0.0,0.0
6644,1660.75,47.6634,49.921,146.284,102.702,113.707,0.0030271,0.211669,20.7845,122.711,-0.932779,0.0,0.0
6666,1666.25,47.6876,50.2469,142.991,102.709,114.313,0.00321021,0.212714,20.782,122.431,-0.980895,0.0,0.0
6688,1671.75,47.5405,50.2536,142.486,102.687,114.804,0.00320497,0.21408,20.7817,122.151,-1.02212,0.0,0.0
6710,1677.25,47.9022,50.9121,141.05,102.693,113.1,0.00303855,0.215216,20.7801,121.87,-0.884553,0.0,0.0
6732,1682.75,48.1635,50.6879,141.41,102.711,114.019,0.00301697,0.215854,20.7785,121.61,-0.957112,0.0,0.0
6754,1688.25,48.2013,50.5333,145.15,102.715,114.679,0.0031837,0.215922,20.7801,121.3,-1.00964,0.0,0.0
6776,1693.75,48.0825,50.9204,144.611,102.75,114.055,0.00292583,0.214719,20.7806,121.05,-0.956454,0.0,0.0
6798,1699.25,48.2385,51.153,145.561,102.751,114.483,0.003364,0.215894,20.782,120.739,-0.990757,0.0,0.0
6820,1704.75,48.3127,50.5471,145.014,102.797,115.411,0.00311627,0.217226,20.7791,120.459,-1.06056,0.0,0.0
6842,1710.25,48.2266,51.2061,142.633,102.842,113.618,0.00309236,0.217506,20.7791,120.169,-0.91308,0.0,0.0
6864,1715.75,48.4306,51.0772,140.035,102.874,114.599,0.00323901,0.219271,20.7779,119.899,-0.989012,0.0,0.0
6886,1721.25,48.4372,51.0055,140.638,102.957,113.93,0.00308119,0.21813,20.7777,119.568,-0.92801,0.0,0.0
6908,1726.75,48.0801,51.1738,143.165,103.029,115.215,0.00320988,0.21843,20.7777,119.328,-1.02433,0.0,0.0
6930,1732.25,48.2055,51.6299,147.739,103.151,115.134,0.00275312,0.218457,20.7787,119.018,-1.0071,0.0,0.0
6952,1737.75,48.4049,51.2452,144.651,103.246,114.385,0.00277068,0.219496,20.7778,118.738,-0.938846,0.0,0.0
6974,1743.25,48.7091,51.5947,142.585,103.389,115.286,0.00295378,0.221638,20.775,118.417,-0.998046,0.0,0.0
6996,1748.75,48.5809,51.3928,143.287,103.504,116.196,0.0029034,0.223302,20.7703,118.117,-1.05989,0.0,0.0
7018,1754.25,48.4309,51.5888,140.688,103.622,116.294,0.00293819,0.225768,20.7685,117.827,-1.05721,0.0,0.0
7040,1759.75,48.8245,51.7172,149.529,103.767,114.394,0.00280387,0.226284,20.7689,117.536,-0.893429,0.0,0.0
7062,1765.25,48.7548,51.5649,142.077,103.853,115.634,0.00281997,0.227455,20.7659,117.216,-0.984653,0.0,0.0
7084,1770.75,49.2967,52.0422,144.777,103.968,114.902,0.00295874,0.229295,20.7643,116.916,-0.916338,0.0,0.0
7106,1776.25,49.5051,52.2843,142.356,104.063,117.748,0.00275129,0.231094,20.7609,116.586,-1.13219,0.0,0.0
7128,1781.75,49.4543,52.4197,145.655,104.17,116.945,0.00275002,0.235417,20.7577,116.295,-1.06006,0.0,0.0
7150,1787.25,49.906,52.6814,140.842,104.271,116.615,0.00241763,0.233323,20.7589,115.965,-1.0253,0.0,0.0
7172,1792.75,49.443,52.9458,140.979,104.354,116.91,0.00255839,0.235244,20.7558,115.695,-1.04105,0.0,0.0
7194,1798.25,49.8712,52.5049,143.368,104.45,116.098,0.00245824,0.235376,20.7542,115.365,-0.968804,0.0,0.0
7216,1803.75,49.6142,53.0089,143.156,104.501,116.571,0.0024908,0.237624,20.7515,115.014,-1.00161,0.0,0.0
7238,1809.25,50.5848,53.0947,139.441,104.579,117.704,0.00257673,0.240564,20.7476,114.704,-1.08336,0.0,0.0
7260,1814.75,50.2815,52.987,139.266,104.614,116.517,0.00260447,0.241918,20.7488,114.364,-0.987421,0.0,0.0
7282,1820.25,50.6558,53.421,141.677,104.67,116.08,0.00253123,0.243408,20.7487,114.043,-0.948138,0.0,0.0
7304,1825.75,50.3891,53.813,143.056,104.697,116.134,0.00243235,0.243712,20.7481,113.713,-0.949981,0.0,0.0
7326,1831.25,50.7293,53.7616,137.568,104.688,117.534,0.00244717,0.245513,20.7462,113.383,-1.06059,0.0,0.0
7348,1836.75,50.889,53.6568,136.688,104.688,118.221,0.00229739,0.246973,20.744,113.062,-1.11403,0.0,0.0
7370,1842.25,51.4829,54.1493,144.062,104.623,118.605,0.00253584,0.250525,20.7392,112.702,-1.14941,0.0,0.0
7392,1847.75,51.1408,54.38,142.479,104.586,118.908,0.00252804,0.251894,20.7383,112.412,-1.17609,0.0,0.0
7414,1853.25,51.3657,54.5412,139.101,104.485,118.756,0.00226206,0.256233,20.7322,112.011,-1.17319,0.0,0.0
7436,1858.75,51.2917,54.3378,140.266,104.392,118.123,0.00211776,0.258662,20.7293,111.631,-1.13235,0.0,0.0
7458,1864.25,51.2037,54.7203,140.679,104.299,116.499,0.0022521,0.258364,20.729,111.331,-1.01368,0.0,0.0
7480,1869.75,51.6746,54.6491,138.858,104.189,118.453,0.00246889,0.260098,20.7278,110.94,-1.17573,0.0,0.0
7502,1875.25,52.1266,55.2463,141.789,104.111,116.803,0.00257348,0.26341,20.7224,110.55,-1.05407,0.0,0.0
7524,1880.75,52.4079,55.3236,140.973,104.015,117.918,0.00229769,0.264033,20.7247,110.18,-1.1496,0.0,0.0
7546,1886.25,52.3955,55.5073,136.546,103.955,116.562,0.00223371,0.266948,20.7203,109.829,-1.04885,0.0,0.0
7568,1891.75,52.6433,55.6234,141.472,103.892,118.417,0.00212356,0.270517,20.717,109.449,-1.19914,0.0,0.0
7590,1897.25,52.9123,55.9568,142.503,103.847,116.026,0.00224128,0.272093,20.7144,109.049,-1.0162,0.0,0.0
7612,1902.75,53.116,56.4136,141.602,103.801,116.91,0.00238934,0.273847,20.7119,108.678,-1.08981,0.0,0.0
7634,1908.25,53.4997,56.4165,139.889,103.886,115.794,0.00244981,0.275699,20.7103,108.278,-0.994484,0.0,0.0
7656,1913.75,53.4667,56.4821,136.72,103.998,118.962,0.00239917,0.275808,20.7113,107.898,-1.23186,0.0,0.0
7678,1919.25,53.8023,56.645,138.769,104.073,118.498,0.0023716,0.2764,20.7103,107.507,-1.18943,0.0,0.0
7700,1924.75,53.7071,56.9874,143.214,104.17,118.31,0.00238953,0.27922,20.7074,107.097,-1.1664,0.0,0.0
7722,1930.25,53.8502,57.0449,141.686,104.234,119.836,0.0024032,0.281615,20.7046,106.687,-1.27813,0.0,0.0
7744,1935.75,54.252,57.4194,139.231,104.295,119.327,0.002499,0.28273,20.7025,106.256,-1.23382,0.0,0.0
7766,1941.25,54.4003,57.2273,138.174,104.317,119.729,0.00207824,0.285464,20.6997,105.856,-1.26269,0.0,0.0
7788,1946.75,54.5741,57.6968,139.429,104.307,118.819,0.00190452,0.292637,20.6916,105.426,-1.19364,0.0,0.0
7810,1952.25,54.866,58.2385,147.289,104.308,120.407,0.0019916,0.293567,20.6904,105.035,-1.31522,0.0,0.0
7832,1957.75,54.9366,58.6017,137.57,104.277,119.167,0.00202501,0.293748,20.6893,104.585,-1.22308,0.0,0.0
7854,1963.25,55.1759,58.7126,139.544,104.297,118.337,0.00205924,0.2991,20.6819,104.154,-1.1573,0.0,0.0
7876,1968.75,55.4257,59.3182,134.813,104.301,120.639,0.00210434,0.302674,20.6774,103.724,-1.33349,0.0,0.0
7898,1974.25,55.8438,59.4575,136.175,104.301,119.176,0.00226869,0.306258,20.6737,103.274,-1.22164,0.0,0.0
7920,1979.75,56.456,59.8436,135.314,104.303,120.942,0.00258686,0.307099,20.6713,102.803,-1.35632,0.0,0.0
7942,1985.25,56.255,60.0307,137.64,104.263,121.076,0.00264495,0.312234,20.667,102.383,-1.36996,0.0,0.0
7964,1990.75,57.1799,60.7031,143.094,104.164,121.424,0.00256427,0.313394,20.6643,101.912,-1.40497,0.0,0.0
7986,1996.25,56.9431,60.4151,135.069,103.978,121.629,0.00251873,0.319727,20.6589,101.502,-1.43683,0.0,0.0
8008,2001.75,57.363,61.2784,143.157,103.797,118.596,0.00239877,0.321921,20.6576,100.941,-1.22137,0.0,0.0
8030,2007.25,57.5066,61.1865,138.878,103.918,121.585,0.00267454,0.316406,20.6585,100.471,-1.43872,0.0,0.0
8052,2012.75,58.01,61.5922,137.847,104.075,119.747,0.00251263,0.32805,20.6484,100.071,-1.28536,0.0,0.0
8074,2018.25,57.8807,61.6278,137.825,104.315,120.621,0.00250724,0.330445,20.6458,99.5302,-1.33091,0.0,0.0
8096,2023.75,58.5835,62.5146,136.732,104.508,125.367,0.00237134,0.335847,20.6404,99.0798,-1.66763,0.0,0.0
8118,2029.25,59.0296,62.6573,137.137,104.667,121.032,0.00220705,0.337126,20.6372,98.5393,-1.33117,0.0,0.0
8140,2034.75,59.1351,62.5922,135.419,104.659,120.916,0.00235733,0.338077,20.6357,98.0688,-1.32305,0.0,0.0
8162,2040.25,59.3213,63.0588,136.194,104.56,121.942,0.00219331,0.336669,20.6355,97.5984,-1.40915,0.0,0.0
8184,2045.75,59.7444,63.5415,136.552,104.28,124.85,0.00247246,0.344544,20.6286,97.0679,-1.64977,0.0,0.0
8206,2051.25,59.9625,63.8769,139.026,103.857,119.747,0.00263107,0.348649,20.6252,96.5174,-1.30454,0.0,0.0
8228,2056.75,59.839,63.8843,131.986,103.362,121.611,0.00275927,0.345944,20.6269,96.057,-1.48992,0.0,0.0
8250,2062.25,60.0322,64.7556,138.288,102.909,120.862,0.00277784,0.345413,20.6275,95.5265,-1.4735,0.0,0.0
8272,2067.75,60.1227,64.2498,134.017,102.711,119.515,0.00238949,0.341342,20.6305,95.0261,-1.38848,0.0,0.0
8294,2073.25,60.4645,64.5073,136.784,102.8,119.113,0.00208129,0.348411,20.6215,94.4956,-1.34968,0.0,0.0
8316,2078.75,60.7815,65.5391,135.421,103.183,121.942,0.00224304,0.342813,20.6275,94.0452,-1.5306,0.0,0.0
8338,2084.25,60.7136,65.2627,136.412,103.657,119.497,0.00235124,0.339436,20.6319,93.5748,-1.30309,0.0,0.0
8360,2089.75,60.9409,65.337,137.403,103.964,120.211,0.00241638,0.336035,20.6347,93.0743,-1.33057,0.0,0.0
8382,2095.25,60.8163,64.9247,137.532,103.996,119.925,0.00272423,0.32963,20.6414,92.6439,-1.30597,0.0,0.0
8404,2100.75,61.1812,65.2481,137.109,103.701,122.272,0.00284231,0.324184,20.6462,92.1935,-1.50955,0.0,0.0
8426,2106.25,60.7548,65.2231,136.027,103.444,119.898,0.00275685,0.319646,20.6513,91.7431,-1.35263,0.0,0.0
8448,2111.75,60.7322,65.2769,136.946,104.022,119.131,0.00266066,0.312712,20.659,91.3327,-1.24278,0.0,0.0
8470,2117.25,60.2966,64.7319,136.643,104.302,120.692,0.0023311,0.306692,20.6652,90.9424,-1.33745,0.0,0.0
8492,2122.75,60.1479,64.1499,136.981,103.801,120.585,0.00241687,0.2996,20.6733,90.542,-1.37348,0.0,0.0
8514,2128.25,59.7935,64.0533,138.418,104.164,121.495,0.00243914,0.291829,20.6816,90.1717,-1.41035,0.0,0.0
8536,2133.75,59.1778,63.9674,140.342,104.597,122.075,0.00269922,0.287622,20.6863,89.7613,-1.416,0.0,0.0
8558,2139.25,59.067,63.5585,137.983,104.66,120.764,0.00265662,0.2796,20.6952,89.431,-1.31144,0.0,0.0
8580,2144.75,58.8931,63.3394,141.964,104.232,119.417,0.00293968,0.270465,20.7055,89.1307,-1.24619,0.0,0.0
8602,2150.25,58.2368,62.4874,138.311,103.436,119.033,0.0028746,0.262383,20.7136,88.7904,-1.28696,0.0,0.0
8624,2155.75,57.4218,62.0149,142.082,102.828,117.186,0.00314827,0.253539,20.7233,88.4902,-1.19772,0.0,0.0
8646,2161.25,57.2033,61.3616,142.664,102.802,118.23,0.00324196,0.247898,20.7302,88.2399,-1.28133,0.0,0.0
8668,2166.75,56.8193,61.193,140.45,103.282,118.801,0.00341545,0.239435,20.74,87.9897,-1.28277,0.0,0.0
8690,2172.25,56.0559,60.0751,153.419,103.843,117.195,0.00345134,0.229235,20.7531,87.7195,-1.10845,0.0,0.0
8712,2177.75,55.3666,59.5372,147.312,104.044,118.899,0.00383781,0.223302,20.7605,87.4893,-1.22301,0.0,0.0
8734,2183.25,54.6011,59.0515,141.106,103.795,116.606,0.00404585,0.216722,20.7676,87.229,-1.06653,0.0,0.0
8756,2188.75,54.1458,58.3162,141.038,103.432,117.16,0.00438651,0.209932,20.7765,87.0489,-1.142,0.0,0.0
8778,2194.25,53.5014,57.4757,140.872,104.082,118.926,0.00410571,0.20298,20.7842,86.8587,-1.22166,0.0,0.0
8800,2199.75,52.7578,56.8295,140.156,104.251,118.221,0.00422461,0.197651,20.7904,86.6385,-1.15235,0.0,0.0
8822,2205.25,52.1474,55.9641,144.861,103.865,116.91,0.00475287,0.193053,20.796,86.4683,-1.08411,0.0,0.0
8844,2210.75,51.6911,55.3836,142.41,104.386,118.293,0.00502072,0.187981,20.8024,86.2982,-1.14605,0.0,0.0
8866,2216.25,51.2177,54.8905,146.414,104.688,118.034,0.0056356,0.182986,20.8091,86.148,-1.09953,0.0,0.0
8888,2221.75,50.3861,53.8322,147.029,104.391,116.945,0.00600468,0.178471,20.8129,86.0179,-1.04064,0.0,0.0
8910,2227.25,49.8235,53.5112,143.899,103.536,116.936,0.00618174,0.175346,20.8177,85.8678,-1.11532,0.0,0.0
8932,2232.75,49.2005,52.6077,142.573,102.827,115.67,0.00595501,0.170861,20.8231,85.7577,-1.07846,0.0,0.0
8954,2238.25,48.9251,52.0878,143.294,102.922,114.974,0.00593031,0.164926,20.8309,85.6476,-1.01469,0.0,0.0
8976,2243.75,48.0514,51.5928,144.934,103.55,115.545,0.00640568,0.163625,20.8332,85.5375,-1.00432,0.0,0.0
8998,2249.25,47.7889,50.9038,146.29,104.049,116,0.00664707,0.160856,20.8355,85.3974,-0.996322,0.0,0.0
9020,2254.75,47.5362,50.5067,146.665,103.923,115.643,0.00709523,0.159578,20.8353,85.2772,-0.979212,0.0,0.0
9042,2260.25,46.9795,49.7944,145.919,103.494,115.224,0.00700297,0.155354,20.8384,85.1671,-0.983781,0.0,0.0
9064,2265.75,46.4732,49.4224,149.948,104.019,114.661,0.00720877,0.155444,20.839,85.0771,-0.892613,0.0,0.0
9086,2271.25,46.4435,48.6644,145.74,104.215,114.929,0.00779227,0.152689,20.8428,84.947,-0.89677,0.0,0.0
9108,2276.75,45.8124,48.7792,143.477,103.9,114.965,0.00800398,0.149971,20.8461,84.8268,-0.92735,0.0,0.0
9130,2282.25,45.3837,47.7813,144.955,104.39,115.554,0.00779119,0.148511,20.848,84.7468,-0.93097,0.0,0.0
9152,2287.75,45.2598,48.0102,146.631,104.702,114.331,0.00830908,0.150953,20.8447,84.6167,-0.806258,0.0,0.0
9174,2293.25,44.7088,47.0676,145.566,104.509,114.206,0.00856725,0.154199,20.8382,84.5466,-0.813108,0.0,0.0
9196,2298.75,44.6953,46.9694,146.624,103.98,114.688,0.00836038,0.156424,20.8353,84.4565,-0.898159,0.0,0.0
9218,2304.25,44.3122,46.7159,150.446,103.312,113.769,0.00864019,0.155818,20.8363,84.3564,-0.883552,0.0,0.0
9240,2309.75,44.273,46.7422,148.493,102.875,112.913,0.00875206,0.152352,20.8423,84.2263,-0.853143,0.0,0.0
9262,2315.25,43.763,46.6025,142.75,102.853,111.976,0.00878534,0.14876,20.8459,84.1462,-0.778771,0.0,0.0
9284,2320.75,44.0692,46.1415,145.85,103.126,112.244,0.00854235,0.146939,20.8481,84.0461,-0.776294,0.0,0.0
9306,2326.25,43.4523,45.8164,150.495,103.54,113.743,0.00845569,0.147391,20.8483,83.936,-0.861136,0.0,0.0
9328,2331.75,43.3888,45.7292,147.615,103.874,112.734,0.00834373,0.147906,20.8461,83.8359,-0.750074,0.0,0.0
9350,2337.25,43.4455,45.6714,143.154,104.071,113.011,0.0084169,0.148114,20.8458,83.7759,-0.755183,0.0,0.0
9372,2342.75,44.004,45.6194,145.817,104.074,112.681,0.0082708,0.146619,20.8475,83.6758,-0.728116,0.0,0.0
9394,2348.25,43.2498,45.3634,145.424,103.895,112.404,0.00822729,0.147116,20.8466,83.5857,-0.721328,0.0,0.0
9416,2353.75,43.2234,45.1886,148.534,103.649,111.566,0.00789099,0.147715,20.8459,83.5157,-0.674473,0.0,0.0
9438,2359.25,43.2124,45.0753,146.474,103.443,111.423,0.00798012,0.14721,20.8474,83.4256,-0.680909,0.0,0.0
9460,2364.75,42.6922,44.7459,148.154,103.506,112.779,0.00802859,0.146556,20.848,83.3255,-0.78619,0.0,0.0
9482,2370.25,42.7473,44.6744,150.043,103.867,113.439,0.00847712,0.146841,20.8463,83.2554,-0.807784,0.0,0.0
9504,2375.75,42.9019,44.6168,146.259,104.152,113.064,0.00833427,0.147297,20.8462,83.1553,-0.752378,0.0,0.0
9526,2381.25,42.6751,44.3056,149.504,104.238,112.681,0.00859722,0.146378,20.8482,83.0652,-0.713682,0.0,0.0
9548,2386.75,42.7453,43.9835,148.282,104.151,112.565,0.00829143,0.146012,20.8484,82.9852,-0.711871,0.0,0.0
9570,2392.25,42.6813,44.4158,143.965,103.946,112.038,0.00817009,0.145508,20.8485,82.8851,-0.687,0.0,0.0
9592,2397.75,42.168,44.2686,148.588,103.777,112.583,0.00797649,0.145451,20.8485,82.815,-0.746291,0.0,0.0
9614,2403.25,42.035,44.0065,143.268,103.895,112.395,0.00794424,0.144265,20.8496,82.755,-0.720639,0.0,0.0
9636,2408.75,41.9305,43.5634,150.048,103.991,112.11,0.00794592,0.143835,20.8499,82.6749,-0.688901,0.0,0.0
9658,2414.25,42.2703,43.7884,147.162,104.129,112.119,0.00849358,0.143641,20.8502,82.5748,-0.677392,0.0,0.0
9680,2419.75,42.1232,44.0753,147.431,104.265,111.976,0.00823852,0.143304,20.8507,82.5248,-0.653833,0.0,0.0
9702,2425.25,41.6943,43.6769,145.139,104.385,111.191,0.00857558,0.143318,20.8515,82.4447,-0.578792,0.0,0.0
9724,2430.75,42.2036,44.1927,148.447,104.505,110.834,0.00818413,0.143663,20.853,82.3546,-0.538782,0.0,0.0
9746,2436.25,41.5756,43.4972,148.876,104.574,111.137,0.00825568,0.143219,20.8545,82.2845,-0.557829,0.0,0.0
9768,2441.75,41.6388,43.293,143.812,104.637,112.092,0.00860141,0.142101,20.8554,82.1844,-0.630655,0.0,0.0
9790,2447.25,41.4507,43.2671,144.823,104.654,112.681,0.00865984,0.142904,20.8552,82.1244,-0.677176,0.0,0.0
9812,2452.75,40.9708,42.4335,147.282,104.674,110.834,0.00834867,0.143232,20.8538,82.0143,-0.524035,0.0,0.0
9834,2458.25,40.8363,42.5728,145.767,104.677,112.69,0.00844945,0.142565,20.8547,81.9342,-0.675892,0.0,0.0
9856,2463.75,41.0836,42.7781,148.37,104.677,112.404,0.00816433,0.142425,20.8532,81.8541,-0.652685,0.0,0.0
9878,2469.25,40.7735,42.4804,144.6,104.67,111.682,0.0083086,0.141503,20.8536,81.7941,-0.594177,0.0,0.0
9900,2474.75,40.8194,42.2897,147.402,104.645,111.815,0.00853614,0.141361,20.855,81.744,-0.607346,0.0,0.0
9922,2480.25,40.8725,41.9427,144.431,104.666,112.984,0.0087059,0.141339,20.8552,81.654,-0.700769,0.0,0.0
9944,2485.75,40.4973,42.1375,148.789,104.697,112.592,0.00820216,0.140347,20.8559,81.5339,-0.66616,0.0,0.0
9966,2491.25,40.4256,42.0972,145.013,104.693,111.691,0.00840268,0.140501,20.8561,81.4838,-0.5929,0.0,0.0
9988,2496.75,40.2659,41.789,143.701,104.705,111.182,0.00823468,0.140744,20.8561,81.3837,-0.549967,0.0,0.0
10010,2502.25,40.5303,41.9162,148.137,104.685,110.95,0.00802541,0.139222,20.858,81.3137,-0.532653,0.0,0.0
10032,2507.75,40.1483,42.1652,145.071,104.68,110.718,0.00823145,0.139072,20.8578,81.2536,-0.513883,0.0,0.0
10054,2513.25,40.0856,41.8426,146.24,104.673,111.735,0.00812037,0.139311,20.8577,81.2036,-0.598271,0.0,0.0
10076,2518.75,40.4052,41.7793,146.705,104.674,111.004,0.00805442,0.138626,20.8577,81.1335,-0.538039,0.0,0.0
10098,2524.25,40.0991,41.6923,147.857,104.655,112.065,0.00806855,0.139096,20.8577,81.0534,-0.626902,0.0,0.0
10120,2529.75,40.4302,41.5499,150.859,104.639,110.62,0.0084013,0.138716,20.8571,80.9533,-0.509329,0.0,0.0
10142,2535.25,39.9183,41.4508,147.618,104.636,111.004,0.00839096,0.1388,20.8568,80.8833,-0.541351,0.0,0.0
10164,2540.75,39.7123,41.6944,152.924,104.603,110.914,0.00828889,0.13791,20.8587,80.8032,-0.536887,0.0,0.0
10186,2546.25,40.1339,41.5813,147.578,104.61,110.272,0.00853707,0.137149,20.8593,80.7732,-0.482993,0.0,0.0
10208,2551.75,39.8074,41.4116,148.755,104.586,111.467,0.00877526,0.138436,20.8581,80.6631,-0.583888,0.0,0.0
10230,2557.25,39.4285,41.7788,144.939,104.591,111.717,,0.137833,,80.563,-0.603955,0.0,0.0
10252,2562.75,40.1441,40.9396,145.693,104.575,111.583,,,,80.5029,-0.594423,0.0,0.0
10269,2567,39.6158,41.4226,149.637,104.586,111.057,,,,80.4629,-0.550125,0.0,0.0