File: 01_Data/Wood_Stud/Cone/Wood_Stud_Cone_HF75Scan_221004_R1.csv
Names,Time,Stack TC,Smoke TC,Exh Press,Smoke Comp,Smoke Meas,CO Meter,CO2 Meter,O2 Meter,Sample Mass,Ext Coeff,Start Test,Flame Verif
Chan Gain,,500,500,1,1,1,1,1,1,1,1,1.0,1.0
Offset,,0,0,0.136221,0,0,0,0,0,0,0,0.0,0.0
Gain,,1,1,25.011,13.9274,292.346,1,1,1,1.00091,1.04463,1.0,1.0
Units,sec,C,C,Pa,%,%,%,%,%,g,/m,,
Baseline,,40.9191,43.1353,148.263,104.672,111.487,0.00069197,0.0645053,20.9476,-444.195,-0.577827,,
17,4,39.5663,42.0027,145.188,103.867,109.603,0.000951554,0.0713432,20.9351,225.965,-0.49257,0.0,0.0
34,8.25,40.8791,42.3551,125.003,103.812,120.924,0.00301653,0.212271,20.7511,225.304,-1.3982,0.0,1.0
51,12.5,46.2105,46.4078,116.616,103.877,119.533,0.0058495,0.643631,20.2539,224.123,-1.28638,0.0,1.0
68,16.75,53.0786,54.1309,120.466,103.971,123.913,0.00739963,0.780796,20.0935,223.162,-1.60787,0.0,0.0
85,21,58.2668,58.6112,124.371,104.067,122.254,0.00736616,0.722557,20.1501,222.301,-1.47586,0.0,0.0
102,25.25,61.3917,62.5794,128.451,104.146,120.193,0.00675316,0.656999,20.2362,221.471,-1.31319,0.0,0.0
119,29.5,63.6684,65.8213,124.239,104.18,118.756,0.00630113,0.606417,20.3016,220.7,-1.19999,0.0,0.0
136,33.75,65.8726,67.9481,129.566,104.231,120.461,0.00606794,0.573143,20.3452,219.949,-1.32609,0.0,0.0
153,38,66.9063,70.6316,128.943,104.263,118.988,0.00579827,0.551851,20.3709,219.219,-1.21062,0.0,0.0
170,42.25,68.4754,71.955,125.654,104.281,120.951,0.00546266,0.534943,20.3913,218.508,-1.3589,0.0,0.0
187,46.5,69.5631,73.2196,127.731,104.295,120.371,0.00551694,0.515327,20.4175,217.837,-1.31363,0.0,0.0
204,50.75,69.9816,74.4518,128.992,104.317,117.686,0.00517932,0.488427,20.445,217.177,-1.10501,0.0,0.0
221,55,70.285,75.4149,126.984,104.316,118.373,0.00510528,0.460426,20.4817,216.586,-1.15839,0.0,0.0
238,59.25,70.3515,75.9462,128.88,104.306,119.649,0.00477947,0.44067,20.5044,216.006,-1.25751,0.0,0.0
255,63.5,70.092,76.3159,136.22,104.309,119.256,0.00443216,0.424217,20.5237,215.435,-1.22714,0.0,0.0
272,67.75,70.3638,76.1785,129.568,104.304,119.765,0.00403059,0.416016,20.5336,214.885,-1.26654,0.0,0.0
289,72,70.4785,76.1509,132.341,104.278,118.953,0.00386222,0.408926,20.5427,214.334,-1.20649,0.0,0.0
306,76.25,70.3159,76.465,129.852,104.257,120.568,0.00384302,0.400938,20.5517,213.804,-1.33192,0.0,0.0
323,80.5,70.0546,76.5556,136.445,104.234,120.844,0.00347309,0.395892,20.5575,213.293,-1.35493,0.0,0.0
340,84.75,69.9932,76.6483,135.51,104.189,119.006,0.003365,0.389309,20.567,212.773,-1.21846,0.0,0.0
357,89,69.5241,76.3391,129.787,104.147,120.407,0.00343934,0.382636,20.5744,212.252,-1.32938,0.0,0.0
374,93.25,69.6473,76.4931,132.59,104.149,118.837,0.00344152,0.376389,20.5818,211.772,-1.20888,0.0,0.0
391,97.5,69.6222,76.3331,135.255,104.105,120.532,0.00345672,0.371293,20.5882,211.261,-1.34259,0.0,0.0
408,101.75,69.262,76.4057,131.534,104.048,119.881,0.0030893,0.365627,20.5931,210.771,-1.29792,0.0,0.0
425,106,69.0728,75.9292,136.393,104.029,120.086,0.00301028,0.362745,20.5976,210.291,-1.31531,0.0,0.0
442,110.25,68.7965,76.0607,133.789,103.98,120.808,0.00287685,0.358947,20.6014,209.82,-1.3746,0.0,0.0
459,114.5,68.5824,75.7192,137.716,103.943,120.264,0.00278928,0.355997,20.6045,209.36,-1.33645,0.0,0.0
476,118.75,68.876,75.4788,133.342,103.93,121.977,0.00286936,0.354579,20.6054,208.889,-1.46724,0.0,0.0
493,123,68.7761,75.5477,136.52,103.909,120.113,0.00257845,0.355861,20.6041,208.399,-1.32788,0.0,0.0
510,127.25,68.6773,75.1951,136.145,103.878,121.808,0.00268622,0.355425,20.6038,207.948,-1.45907,0.0,0.0
527,131.5,68.5014,75.4623,136.646,103.871,122.495,0.00268312,0.352935,20.6069,207.478,-1.51121,0.0,0.0
544,135.75,68.502,75.2693,134.059,103.871,120.826,0.00251479,0.350336,20.6112,207.028,-1.38551,0.0,0.0
561,140,68.3762,74.8768,136.396,103.846,120.737,0.00253866,0.348644,20.6155,206.537,-1.38103,0.0,0.0
578,144.25,67.6604,75.0324,134.109,103.803,123.824,0.00271345,0.348709,20.6162,206.117,-1.61608,0.0,0.0
595,148.5,68.2171,74.9567,134.369,103.767,124.85,0.00248495,0.346805,20.6181,205.636,-1.69492,0.0,0.0
612,152.75,68.2922,74.8822,134.544,103.705,120.273,0.0024655,0.344674,20.6219,205.216,-1.35817,0.0,0.0
629,157,68.3794,74.6101,132.767,103.657,122.513,0.0024666,0.342358,20.6235,204.755,-1.53142,0.0,0.0
646,161.25,68.0919,74.3125,133.963,103.62,121.638,0.002411,0.339243,20.6259,204.295,-1.4691,0.0,0.0
663,165.5,68.0201,74.4681,137.627,103.563,120.844,0.00255727,0.337272,20.6295,203.835,-1.41408,0.0,0.0
680,169.75,67.9184,74.2212,132.924,103.508,122.905,0.00255155,0.333579,20.634,203.464,-1.57397,0.0,0.0
697,174,67.8675,74.1528,135.1,103.49,120.255,0.00248167,0.329602,20.6383,203.054,-1.37583,0.0,0.0
714,178.25,67.5378,73.9964,133.761,103.459,120.719,0.00246752,0.325283,20.6436,202.594,-1.41386,0.0,0.0
731,182.5,67.4431,73.7273,135.125,103.438,122.147,0.0022967,0.322451,20.6475,202.233,-1.52339,0.0,0.0
748,186.75,67.4385,73.2695,132.458,103.418,122.12,0.00235756,0.317345,20.6545,201.783,-1.52319,0.0,0.0
765,191,66.8915,73.4695,136.253,103.431,122.191,0.00219292,0.314431,20.6582,201.392,-1.52741,0.0,0.0
782,195.25,67.1354,73.5489,131.781,103.432,122.022,0.00231235,0.31113,20.6631,201.012,-1.51454,0.0,0.0
799,199.5,66.9555,72.8442,132.281,103.429,123.066,0.002408,0.3085,20.666,200.622,-1.5929,0.0,0.0
816,203.75,66.8885,72.9077,137.636,103.435,122.174,0.00209398,0.304766,20.67,200.231,-1.5257,0.0,0.0
833,208,66.7898,71.2633,134.411,103.414,122.816,0.00200085,0.302444,20.6734,199.821,-1.5756,0.0,0.0
850,212.25,65.8242,72.2434,132.649,103.444,123.592,0.00224287,0.300202,20.6756,199.441,-1.63069,0.0,0.0
867,216.5,66.1285,71.8112,133.254,103.451,122.111,0.00229751,0.297826,20.6778,199.13,-1.51958,0.0,0.0
884,220.75,65.9539,71.754,133.976,103.462,120.969,0.00200115,0.29721,20.6782,198.73,-1.43254,0.0,0.0
901,225,65.8036,71.6641,137.12,103.452,122.147,0.00190639,0.29602,20.6802,198.34,-1.52219,0.0,0.0
918,229.25,65.8875,71.4048,137.046,103.465,123.333,0.00197679,0.295794,20.6807,197.939,-1.60964,0.0,0.0
935,233.5,65.6864,71.3504,135.524,103.511,121.362,0.0021862,0.295065,20.6808,197.569,-1.45787,0.0,0.0
952,237.75,65.7139,71.2079,133.029,103.503,123.512,0.0023023,0.29529,20.6808,197.229,-1.6195,0.0,0.0
969,242,65.077,71.0191,133.941,103.517,122.37,0.00223667,0.29303,20.6826,196.848,-1.53315,0.0,0.0
986,246.25,65.1369,71.0597,138.426,103.553,121.04,0.00195123,0.293601,20.6831,196.498,-1.4299,0.0,0.0
1003,250.5,65.4155,70.7484,136.594,103.564,125.064,0.00182882,0.291072,20.6861,196.108,-1.72858,0.0,0.0
1020,254.75,65.003,70.7575,139.014,103.579,121.95,0.0019948,0.288739,20.6885,195.747,-1.4962,0.0,0.0
1037,259,65.2167,70.5807,134.133,103.61,121.611,0.00242589,0.286525,20.6912,195.407,-1.46795,0.0,0.0
1054,263.25,64.812,70.3627,136.265,103.636,122.611,0.00216935,0.284734,20.6922,195.027,-1.54064,0.0,0.0
1071,267.5,64.7603,70.1673,135.595,103.643,123.824,0.00187151,0.282152,20.6952,194.666,-1.63023,0.0,0.0
1088,271.75,65.0028,70.323,135.574,103.665,122.744,0.00210905,0.27988,20.6985,194.356,-1.54808,0.0,0.0
1105,276,65.0298,70.0697,139.341,103.671,121.567,0.00200273,0.278396,20.7002,193.996,-1.45921,0.0,0.0
1122,280.25,64.5836,70.0027,133.178,103.681,123.119,0.00199103,0.275933,20.7026,193.665,-1.57462,0.0,0.0
1139,284.5,64.3918,69.7993,130.742,103.692,121.924,0.00217163,0.275851,20.7014,193.325,-1.48423,0.0,0.0
1156,288.75,64.3338,69.5564,136.193,103.7,122.495,0.00208565,0.274623,20.7038,192.985,-1.52633,0.0,0.0
1173,293,64.2941,69.4626,135.059,103.704,123.003,0.00191589,0.273901,20.7054,192.655,-1.56388,0.0,0.0
1190,297.25,64.1414,69.2205,133.87,103.706,123.521,0.00200273,0.272783,20.7053,192.314,-1.6022,0.0,0.0
1207,301.5,64.224,69.0918,137.297,103.724,123.057,0.00223037,0.272711,20.7042,192.004,-1.56614,0.0,0.0
1224,305.75,63.8306,69.0143,137.158,103.706,123.191,0.00237588,0.272196,20.7041,191.634,-1.57768,0.0,0.0
1241,310,63.8507,69.1709,133.344,103.715,123.637,0.00238727,0.271584,20.7042,191.293,-1.61001,0.0,0.0
1258,314.25,64.0714,68.9453,140.205,103.741,121.861,0.00223433,0.272031,20.7041,190.933,-1.47522,0.0,0.0
1275,318.5,64.1336,68.7286,136.462,103.747,122.86,0.00224558,0.271954,20.705,190.643,-1.54945,0.0,0.0
1292,322.75,63.5109,68.346,139.119,103.759,121.629,0.00191672,0.271498,20.708,190.302,-1.45614,0.0,0.0
1309,327,63.9139,68.5443,140.225,103.763,124.565,0.00159108,0.270649,20.7105,189.962,-1.67432,0.0,0.0
1326,331.25,63.8297,68.5366,138.062,103.771,123.164,0.00167261,0.270509,20.7102,189.612,-1.56998,0.0,0.0
1343,335.5,63.9404,68.6575,132.477,103.76,123.637,0.00177107,0.271573,20.7095,189.281,-1.60603,0.0,0.0
1360,339.75,63.9583,68.4156,131.983,103.79,123.726,0.0016521,0.271353,20.7093,188.901,-1.61001,0.0,0.0
1377,344,63.9345,68.3346,138.698,103.77,120.933,0.00187117,0.269824,20.7109,188.611,-1.40255,0.0,0.0
1394,348.25,63.9479,68.3774,136.338,103.748,124.636,0.001869,0.269601,20.711,188.291,-1.68084,0.0,0.0
1411,352.5,63.7912,68.3837,134.6,103.73,123.53,0.00189452,0.265878,20.7139,187.95,-1.60079,0.0,0.0
1428,356.75,63.8687,67.9548,136.327,103.741,122.414,0.00208006,0.265275,20.7153,187.6,-1.51668,0.0,0.0
1445,361,63.5558,67.9828,137.474,103.719,121.04,0.00201342,0.263004,20.7175,187.29,-1.4152,0.0,0.0
1462,365.25,63.0554,68.0069,139.428,103.711,122.602,0.00201974,0.261484,20.7197,186.999,-1.53336,0.0,0.0
1479,369.5,63.2609,68.2606,139.438,103.707,121.032,0.0021622,0.258852,20.723,186.659,-1.41562,0.0,0.0
1496,373.75,63.5303,67.611,135.762,103.696,121.317,0.00192779,0.257793,20.7251,186.379,-1.43814,0.0,0.0
1513,378,62.8915,67.472,144.014,103.706,122.04,0.00164719,0.255454,20.7284,186.049,-1.4917,0.0,0.0
1530,382.25,62.9322,67.4231,135.304,103.691,124.404,0.0016898,0.253921,20.7306,185.718,-1.6688,0.0,0.0
1547,386.5,63.2105,67.7641,132.365,103.686,122.78,0.00187986,0.251902,20.7336,185.398,-1.5489,0.0,0.0
1564,390.75,63.4335,67.601,137.452,103.664,124.904,0.00173166,0.250724,20.7336,185.118,-1.70797,0.0,0.0
1581,395,63.1913,67.1417,134.732,103.634,121.344,0.00188919,0.251347,20.7305,184.867,-1.44561,0.0,0.0
1598,399.25,62.8227,67.2755,135.33,103.622,122.655,0.00220392,0.251385,20.7307,184.497,-1.54525,0.0,0.0
1615,403.5,62.8685,66.9881,133.214,103.595,122.744,0.00202192,0.251022,20.7319,184.227,-1.55424,0.0,0.0
1632,407.75,62.4874,67.0038,135.801,103.576,120.728,0.00171619,0.251152,20.7317,183.897,-1.4042,0.0,0.0
1649,412,62.6806,67.0662,134.683,103.585,121.665,0.00165897,0.25186,20.7314,183.606,-1.47416,0.0,0.0
1666,416.25,62.4965,66.822,135.024,103.572,123.066,0.00169006,0.251651,20.7309,183.296,-1.58022,0.0,0.0
1683,420.5,62.8361,66.7164,136.607,103.573,121.121,0.0017074,0.251734,20.7299,182.996,-1.43421,0.0,0.0
1700,424.75,62.6246,66.6227,133.284,103.578,124.904,0.00192011,0.253657,20.7287,182.686,-1.71556,0.0,0.0
1717,429,62.5726,66.5531,133.479,103.586,123.476,0.00177603,0.254992,20.727,182.385,-1.60948,0.0,0.0
1734,433.25,62.5598,67.1715,136.26,103.576,122.388,0.00165539,0.257227,20.7244,182.035,-1.52929,0.0,0.0
1751,437.5,62.796,66.4268,136.25,103.58,122.156,0.00137543,0.258414,20.7248,181.755,-1.51157,0.0,0.0
1768,441.75,62.5984,67.0207,136.356,103.575,121.924,0.00145873,0.259007,20.7251,181.424,-1.49456,0.0,0.0
1785,446,62.7226,67.0523,134.976,103.557,122.557,0.00163336,0.260547,20.7232,181.064,-1.54363,0.0,0.0
1802,450.25,62.4796,66.7039,138.014,103.554,122.932,0.0015702,0.261593,20.7215,180.784,-1.5719,0.0,0.0
1819,454.5,62.9223,66.8716,140.253,103.554,121.362,0.00151513,0.262423,20.7201,180.453,-1.45403,0.0,0.0
1836,458.75,62.8452,67.0603,136.337,103.56,122.156,0.00193741,0.261281,20.7216,180.173,-1.51326,0.0,0.0
1853,463,62.7204,66.7095,136.946,103.541,120.461,0.00181088,0.260372,20.7235,179.823,-1.38694,0.0,0.0
1870,467.25,63.1925,67.5275,134.631,103.543,120.461,0.00192431,0.258602,20.7256,179.503,-1.38679,0.0,0.0
1887,471.5,62.8442,66.9947,139.519,103.539,122.084,0.00199365,0.256695,20.7275,179.212,-1.50979,0.0,0.0
1904,475.75,62.523,66.8721,137.186,103.517,122.637,0.00202041,0.255461,20.7283,178.922,-1.55317,0.0,0.0
1921,480,62.7875,66.985,137.438,103.527,122.611,0.00198745,0.255009,20.7294,178.602,-1.5503,0.0,0.0
1938,484.25,62.944,67.1311,132.865,103.503,122.459,0.00158834,0.251414,20.7331,178.302,-1.54103,0.0,0.0
1955,488.5,63.0712,67.1672,135.778,103.489,122.744,0.00166246,0.249265,20.7347,177.991,-1.56368,0.0,0.0
1972,492.75,62.9778,67.159,135.575,103.481,121.808,0.00166935,0.248613,20.736,177.681,-1.49416,0.0,0.0
1989,497,62.9301,66.9441,134.334,103.486,123.28,0.00167432,0.246227,20.7388,177.401,-1.60382,0.0,0.0
2006,501.25,62.6242,66.8469,137.527,103.458,122.869,0.00154552,0.245385,20.7396,177.09,-1.57571,0.0,0.0
2023,505.5,62.2547,66.5117,134.992,103.442,121.067,0.00188537,0.245723,20.7388,176.82,-1.44174,0.0,0.0
2040,509.75,62.1462,66.7527,138.699,103.445,123.851,0.00209452,0.24513,20.7419,176.52,-1.64978,0.0,0.0
2057,514,62.6718,66.6449,139.235,103.428,121.843,0.00185492,0.2434,20.7435,176.23,-1.50151,0.0,0.0
2074,518.25,62.3255,66.4649,136.637,103.43,122.584,0.00186621,0.24332,20.7435,175.899,-1.55684,0.0,0.0
2091,522.5,62.1864,66.6152,137.5,103.435,122.807,0.00158357,0.243535,20.7435,175.629,-1.57309,0.0,0.0
2108,526.75,62.2761,66.4758,134.597,103.415,121.308,0.00140589,0.244907,20.7419,175.279,-1.46229,0.0,0.0
2125,531,62.1799,66.5206,133.905,103.423,122.584,0.00153115,0.245167,20.7415,175.019,-1.55752,0.0,0.0
2142,535.25,62.5676,66.4527,135.948,103.47,121.263,0.0015365,0.247069,20.74,174.738,-1.45407,0.0,0.0
2159,539.5,61.9631,66.5933,135.901,103.489,122.611,0.0017038,0.246502,20.7398,174.408,-1.55361,0.0,0.0
2176,543.75,62.5253,66.6763,136.822,103.497,121.986,0.00173228,0.247704,20.7391,174.118,-1.50618,0.0,0.0
2193,548,62.345,66.2657,138.633,103.52,121.843,0.00139327,0.247736,20.739,173.767,-1.49338,0.0,0.0
2210,552.25,62.5377,66.3906,137.496,103.532,121.79,0.00139794,0.247997,20.7382,173.487,-1.48826,0.0,0.0
2227,556.5,62.5324,66.0961,139.651,103.517,120.496,0.00157884,0.250858,20.7345,173.187,-1.39176,0.0,0.0
2244,560.75,62.8223,66.6882,131.631,103.521,121.014,0.00164251,0.251353,20.7307,172.857,-1.43069,0.0,0.0
2261,565,62.5786,66.2553,136.697,103.541,123.217,0.00161713,0.254688,20.7291,172.556,-1.59429,0.0,0.0
2278,569.25,62.4764,66.6803,141.661,103.552,123.36,0.00175987,0.254649,20.7288,172.236,-1.60392,0.0,0.0
2295,573.5,62.2134,66.0946,135.886,103.605,122.281,0.00187449,0.254358,20.7288,171.936,-1.51868,0.0,0.0
2312,577.75,62.7154,66.7531,139.29,103.65,121.968,0.00181789,0.254817,20.7292,171.615,-1.49126,0.0,0.0
2329,582,62.9141,66.95,139.71,103.669,122.513,0.00172383,0.254923,20.7288,171.315,-1.53037,0.0,0.0
2346,586.25,62.7095,66.7898,135.509,103.724,123.672,0.00150135,0.255971,20.7274,170.995,-1.61183,0.0,0.0
2363,590.5,62.9219,66.5527,134.895,103.771,122.459,0.00147988,0.254618,20.7287,170.675,-1.51735,0.0,0.0
2380,594.75,63.0313,66.8559,135.536,103.792,124.743,0.00174248,0.255665,20.7274,170.364,-1.68488,0.0,0.0
2397,599,62.7938,66.6273,136.349,103.826,122.736,0.00165981,0.256161,20.7274,170.054,-1.53318,0.0,0.0
2414,603.25,62.7243,66.6652,138.221,103.854,123.324,0.00154409,0.253322,20.73,169.714,-1.57457,0.0,0.0
2431,607.5,63.1575,66.8043,137.693,103.854,122.075,0.00134921,0.25414,20.7298,169.403,-1.48125,0.0,0.0
2448,611.75,62.8661,66.9314,136.94,103.862,123.77,0.00150888,0.254268,20.7308,169.093,-1.60698,0.0,0.0
2465,616,63.2372,66.7737,139.425,103.886,121.049,0.00161312,0.251355,20.7332,168.793,-1.40109,0.0,0.0
2482,620.25,62.7078,67.2107,134.171,103.953,123.726,0.00163587,0.25092,20.7344,168.503,-1.59565,0.0,0.0
2499,624.5,62.9035,67.2301,138.256,103.985,123.101,0.0017881,0.251401,20.7349,168.172,-1.54647,0.0,0.0
2516,628.75,63.3305,66.6027,134.623,104.017,122.673,0.00188383,0.249216,20.7384,167.862,-1.51165,0.0,0.0
2533,633,62.838,66.7772,142.217,104.069,124.011,0.00188582,0.248573,20.7391,167.562,-1.60655,0.0,0.0
2550,637.25,63.0126,66.451,134.291,104.092,124.359,0.00190087,0.24793,20.7386,167.242,-1.63016,0.0,0.0
2567,641.5,62.6763,67.4083,139.411,104.108,123.726,0.00174504,0.247974,20.739,166.951,-1.58195,0.0,0.0
2584,645.75,62.7176,66.8785,142.953,104.139,122.405,0.00172954,0.249265,20.7385,166.641,-1.4809,0.0,0.0
2601,650,62.767,66.9646,140.756,104.161,122.62,0.00167007,0.247014,20.7389,166.321,-1.49501,0.0,0.0
2618,654.25,62.7169,66.6827,137.168,104.163,122.575,0.00154404,0.248175,20.7374,166.01,-1.49145,0.0,0.0
2635,658.5,63.0804,67.0297,132.548,104.192,122.655,0.00161573,0.247514,20.7386,165.74,-1.49491,0.0,0.0
2652,662.75,62.7808,66.6584,136.698,104.203,121.817,0.00164101,0.246914,20.739,165.47,-1.43114,0.0,0.0
2669,667,63.0133,66.788,138.22,104.218,124.083,0.00164916,0.246959,20.7391,165.13,-1.59866,0.0,0.0
2686,671.25,62.9574,66.531,138.073,104.221,123.788,0.00162313,0.24814,20.7399,164.799,-1.57666,0.0,0.0
2703,675.5,62.7804,66.9002,135.77,104.262,121.915,0.00151552,0.247711,20.7396,164.539,-1.43329,0.0,0.0
2720,679.75,62.6038,66.7253,138.915,104.251,123.833,0.00142116,0.246979,20.7413,164.189,-1.57735,0.0,0.0
2737,684,62.7888,66.6562,138.921,104.256,122.272,0.00166631,0.246312,20.7426,163.888,-1.4606,0.0,0.0
2754,688.25,63.0305,66.7435,138.612,104.269,122.86,0.0017256,0.2459,20.7439,163.588,-1.50346,0.0,0.0
2771,692.5,62.8521,66.7751,135.377,104.258,122.468,0.00166518,0.245679,20.7401,163.328,-1.47515,0.0,0.0
2788,696.75,62.7313,66.9496,139.568,104.259,122.727,0.00157472,0.245277,20.7396,162.978,-1.49441,0.0,0.0
2805,701,62.7894,66.686,137.14,104.271,122.325,0.00150556,0.245062,20.7404,162.677,-1.46326,0.0,0.0
2822,705.25,62.6593,66.4285,136.714,104.275,121.71,0.00127137,0.244662,20.7411,162.397,-1.41673,0.0,0.0
2839,709.5,62.3886,66.857,137.351,104.275,121.826,0.00143532,0.243458,20.7412,162.107,-1.42542,0.0,0.0
2856,713.75,62.6198,66.2422,137.517,104.277,122.459,0.00158014,0.244147,20.7412,161.807,-1.47283,0.0,0.0
2873,718,62.4745,66.7137,137.558,104.302,123.762,0.00167674,0.244808,20.7424,161.516,-1.56759,0.0,0.0
2890,722.25,62.6012,66.6289,136.607,104.282,123.021,0.00184759,0.245455,20.7426,161.196,-1.51435,0.0,0.0
2907,726.5,62.5508,66.6314,140.93,104.291,123.842,0.00190833,0.243932,20.7445,160.886,-1.57442,0.0,0.0
2924,730.75,62.8031,66.6588,139.731,104.311,122.254,0.0017588,0.24426,20.7449,160.585,-1.4544,0.0,0.0
2941,735,62.4639,66.2319,133.566,104.312,123.753,0.00127929,0.243676,20.7444,160.285,-1.56599,0.0,0.0
2958,739.25,62.5959,66.3696,137.623,104.307,124.636,0.00134819,0.243747,20.743,160.035,-1.63161,0.0,0.0
2975,743.5,62.6366,66.4512,140.403,104.312,125.412,0.00145909,0.244081,20.7435,159.695,-1.68809,0.0,0.0
2992,747.75,62.5627,66.4317,138.254,104.308,122.04,0.00167501,0.242701,20.7453,159.404,-1.43864,0.0,0.0
3009,752,62.6899,66.6499,141.118,104.293,122.093,0.00162865,0.241605,20.7458,159.084,-1.44397,0.0,0.0
3026,756.25,62.3284,66.1036,136.317,104.307,123.146,0.00142261,0.241221,20.7463,158.784,-1.52144,0.0,0.0
3043,760.5,62.1876,66.1685,139.083,104.297,123.137,0.00137666,0.239967,20.7469,158.524,-1.5216,0.0,0.0
3060,764.75,62.2628,66.254,137.648,104.283,120.728,0.00150706,0.238633,20.7463,158.233,-1.34187,0.0,0.0
3077,769,62.0833,65.9983,134.714,104.267,124.636,0.00156659,0.238244,20.7471,157.983,-1.63512,0.0,0.0
3094,773.25,61.8975,66.2811,136.667,104.278,120.505,0.00149249,0.236712,20.7473,157.683,-1.3253,0.0,0.0
3111,777.5,62.0993,65.9643,138.074,104.257,124.288,0.00139806,0.236442,20.7488,157.383,-1.61044,0.0,0.0
3128,781.75,61.7218,65.7796,138.788,104.25,122.691,0.00123308,0.236343,20.7495,157.122,-1.49253,0.0,0.0
3145,786,61.8838,65.9018,137.732,104.263,121.585,0.00132433,0.23598,20.7515,156.792,-1.40833,0.0,0.0
3162,790.25,62.0086,65.6535,136.453,104.254,122.254,0.00159888,0.234526,20.7536,156.532,-1.45941,0.0,0.0
3179,794.5,61.9023,65.6723,134.942,104.256,124.449,0.0015492,0.234856,20.7522,156.252,-1.6223,0.0,0.0
3196,798.75,61.423,65.9761,134.35,104.258,121.255,0.0014822,0.235377,20.752,155.971,-1.38387,0.0,0.0
3213,803,61.8904,65.6251,141.278,104.261,121.772,0.00165936,0.235438,20.752,155.691,-1.42267,0.0,0.0
3230,807.25,61.1336,65.3817,134.521,104.271,122.477,0.00175657,0.234669,20.7522,155.411,-1.47469,0.0,0.0
3247,811.5,61.4246,65.7722,141.195,104.277,120.3,0.00163421,0.233418,20.7528,155.151,-1.3098,0.0,0.0
3264,815.75,61.6933,65.4253,138.141,104.277,119.952,0.00145429,0.234585,20.7525,154.85,-1.28322,0.0,0.0
3281,820,61.6385,65.6114,139.467,104.271,122.477,0.00160844,0.235055,20.7517,154.56,-1.47462,0.0,0.0
3298,824.25,61.4776,65.6106,138.825,104.264,122.539,0.00181122,0.234231,20.7515,154.28,-1.47996,0.0,0.0
3315,828.5,61.7502,65.372,135.631,104.262,122.878,0.00148117,0.232865,20.7533,154,-1.50543,0.0,0.0
3332,832.75,62.112,65.4176,137.181,104.259,122.432,0.00158536,0.232883,20.7528,153.759,-1.47236,0.0,0.0
3349,837,61.7127,65.4344,134.82,104.256,122.432,0.00162311,0.232457,20.754,153.459,-1.47262,0.0,0.0
3366,841.25,61.7517,65.5248,137.505,104.249,122.825,0.00147678,0.232755,20.7534,153.169,-1.50259,0.0,0.0
3383,845.5,62.0106,65.5734,136.349,104.227,120.924,0.00144463,0.233975,20.7527,152.868,-1.36165,0.0,0.0
3400,849.75,61.6074,65.4247,140.46,104.223,122.513,0.00156474,0.233047,20.7539,152.598,-1.48155,0.0,0.0
3417,854,61.5104,65.435,137.816,104.217,122.709,0.00171565,0.232211,20.7548,152.318,-1.4967,0.0,0.0
3434,858.25,61.8382,64.5684,136.991,104.197,122.896,0.00165184,0.232611,20.7536,152.058,-1.51248,0.0,0.0
3451,862.5,61.8714,65.214,139.127,104.18,122.102,0.00177311,0.234105,20.7522,151.757,-1.45461,0.0,0.0
3468,866.75,61.5878,65.4345,138.58,104.152,123.28,0.00164925,0.234083,20.7532,151.487,-1.545,0.0,0.0
3485,871,61.684,65.5556,137.452,104.144,123.092,0.00150033,0.235087,20.7524,151.227,-1.53177,0.0,0.0
3502,875.25,61.669,64.6359,141.201,104.132,120.13,0.00154518,0.235572,20.7513,150.947,-1.30962,0.0,0.0
3519,879.5,61.3381,64.8414,139.645,104.127,122.664,0.00183085,0.234937,20.7518,150.636,-1.50137,0.0,0.0
3536,883.75,61.671,65.3545,135.394,104.131,121.156,0.00167417,0.235891,20.7525,150.356,-1.38766,0.0,0.0
3553,888,60.8954,65.4097,136.783,104.133,124.27,0.00180051,0.236056,20.7514,150.106,-1.62,0.0,0.0
3570,892.25,61.6227,65.0083,135.994,104.126,122.753,0.00180983,0.236328,20.7508,149.816,-1.50811,0.0,0.0
3587,896.5,61.7587,65.2909,145.023,104.141,123.904,0.00169051,0.234713,20.7533,149.525,-1.59224,0.0,0.0
3604,900.75,61.7517,64.8668,135.859,104.129,123.128,0.00143496,0.235625,20.7531,149.265,-1.53578,0.0,0.0
3621,905,61.5213,65.1125,135.677,104.126,121.121,0.00131042,0.23572,20.7519,148.985,-1.38538,0.0,0.0
3638,909.25,61.7576,65.4073,138.656,104.147,122.521,0.00154442,0.23521,20.7533,148.695,-1.48887,0.0,0.0
3655,913.5,61.4375,65.3416,135.816,104.141,123.833,0.00156655,0.235532,20.7521,148.434,-1.58699,0.0,0.0
3672,917.75,61.7388,65.6955,137.209,104.173,120.737,0.00169427,0.235123,20.7514,148.154,-1.35219,0.0,0.0
3689,922,61.8911,65.5848,137.376,104.192,121.531,0.00191532,0.23547,20.7513,147.864,-1.41058,0.0,0.0
3706,926.25,62.4325,65.4838,135.357,104.184,123.583,0.00190007,0.234161,20.7534,147.624,-1.56468,0.0,0.0
3723,930.5,61.6837,65.3819,140.89,104.169,122.78,0.00184781,0.231881,20.7555,147.353,-1.50625,0.0,0.0
3740,934.75,62.2454,65.3204,143.896,104.169,122.45,0.00165903,0.232216,20.7559,147.053,-1.48166,0.0,0.0
3757,939,61.7123,63.7566,140.062,104.184,120.452,0.00166172,0.230988,20.7559,146.793,-1.32953,0.0,0.0
3774,943.25,61.6721,65.1574,136.568,104.177,121.504,0.00189804,0.23102,20.7573,146.563,-1.4099,0.0,0.0
3791,947.5,61.3109,65.6014,140.344,104.161,122.343,0.00188583,0.231316,20.7577,146.293,-1.47432,0.0,0.0
3808,951.75,61.4228,65.0552,135.559,104.16,123.753,0.00166905,0.229225,20.7593,146.012,-1.57937,0.0,0.0
3825,956,61.3323,65.1206,138.866,104.126,123.155,0.00168162,0.228595,20.7598,145.742,-1.53803,0.0,0.0
3842,960.25,61.0446,64.6496,138.864,104.107,123.458,0.00201083,0.228505,20.7599,145.482,-1.56218,0.0,0.0
3859,964.5,61.5648,65.2544,137.048,104.102,122.263,0.00182155,0.228092,20.7599,145.222,-1.4735,0.0,0.0
3876,968.75,61.3886,65.1078,141.924,104.07,121.745,0.00169678,0.228641,20.7604,144.981,-1.43744,0.0,0.0
3893,973,61.4127,65.1114,139.286,104.036,121.692,0.00190318,0.227166,20.7638,144.671,-1.43637,0.0,0.0
3910,977.25,61.2386,64.8376,136.147,104.039,121.826,0.0018432,0.227393,20.7644,144.441,-1.44618,0.0,0.0
3927,981.5,61.4402,64.5469,131.864,104.026,122.878,0.00179574,0.227721,20.7632,144.201,-1.52622,0.0,0.0
3944,985.75,61.1954,65.0706,136.514,103.992,120.523,0.00181773,0.226765,20.7643,143.91,-1.35183,0.0,0.0
3961,990,60.8034,64.5027,137.069,103.942,122.789,0.00178491,0.227797,20.7636,143.68,-1.52694,0.0,0.0
3978,994.25,61.4377,64.6898,136.459,103.91,121.344,0.00192639,0.228988,20.7608,143.39,-1.42125,0.0,0.0
3995,998.5,61.1586,64.9824,134.834,103.864,121.469,0.00186297,0.228022,20.7611,143.12,-1.43477,0.0,0.0
4012,1002.75,61.2224,65.0212,137.946,103.836,122.138,0.00179562,0.229002,20.7603,142.899,-1.48755,0.0,0.0
4029,1007,61.1794,64.9841,144.285,103.821,120.345,0.00171751,0.229568,20.7604,142.619,-1.35332,0.0,0.0
4046,1011.25,60.8687,64.8882,136.143,103.793,120.318,0.00159767,0.228667,20.7619,142.349,-1.3538,0.0,0.0
4063,1015.5,61.2886,64.9978,136.503,103.804,120.594,0.0017104,0.229118,20.7626,142.109,-1.37386,0.0,0.0
4080,1019.75,61.4084,64.8853,137.681,103.807,120.853,0.00164788,0.22825,20.7625,141.848,-1.39324,0.0,0.0
4097,1024,61.1625,64.888,136.035,103.802,120.202,0.00175053,0.228735,20.7624,141.578,-1.34413,0.0,0.0
4114,1028.25,60.9893,64.8075,136.752,103.801,123.36,0.00193608,0.229811,20.7614,141.328,-1.58191,0.0,0.0
4131,1032.5,60.9932,64.6881,134.884,103.806,122.459,0.00207627,0.233224,20.7579,141.048,-1.51431,0.0,0.0
4148,1036.75,61.3997,64.9795,139.706,103.822,121.424,0.00195752,0.233934,20.7566,140.778,-1.43508,0.0,0.0
4165,1041,61.3332,65.0321,137,103.825,121.112,0.00186487,0.234481,20.7553,140.497,-1.41122,0.0,0.0
4182,1045.25,61.6333,65.0189,136.452,103.829,122.477,0.00202597,0.234671,20.7548,140.267,-1.51355,0.0,0.0
4199,1049.5,60.8136,65.2107,136.533,103.841,121.781,0.0020823,0.236125,20.7546,139.987,-1.46032,0.0,0.0
4216,1053.75,61.7985,65.2501,135.821,103.844,121.727,0.00189856,0.237419,20.7539,139.677,-1.45603,0.0,0.0
4233,1058,61.502,65.5486,140.166,103.845,122.102,0.00171974,0.238087,20.7538,139.426,-1.48408,0.0,0.0
4250,1062.25,61.8263,65.3365,135.402,103.866,121.95,0.00179764,0.238316,20.7512,139.176,-1.47089,0.0,0.0
4267,1066.5,62.0069,65.5096,138.53,103.888,123.574,0.00188443,0.238958,20.7497,138.886,-1.59015,0.0,0.0
4284,1070.75,61.4441,65.9504,133.306,103.888,123.788,0.00163049,0.239716,20.7494,138.596,-1.60601,0.0,0.0
4301,1075,62.1256,65.4386,133.947,103.92,121.308,0.00171316,0.24029,20.7494,138.335,-1.41766,0.0,0.0
4318,1079.25,62.0423,65.5332,138.884,103.923,120.88,0.00178374,0.240073,20.7494,138.065,-1.38507,0.0,0.0
4335,1083.5,62.1538,65.627,140.992,103.927,122.539,0.00181397,0.240369,20.7478,137.795,-1.50963,0.0,0.0
4352,1087.75,61.7224,65.851,138.347,103.942,122.004,0.00180323,0.240958,20.7491,137.515,-1.46813,0.0,0.0
4369,1092,61.649,66.0067,133.449,103.972,122.004,0.00177806,0.241119,20.7493,137.224,-1.46554,0.0,0.0
4386,1096.25,62.037,65.9185,139.737,103.981,122.174,0.00186354,0.241956,20.7493,136.994,-1.47748,0.0,0.0
4403,1100.5,62.6557,65.9624,136.94,103.998,123.485,0.00179553,0.24331,20.7493,136.724,-1.57379,0.0,0.0
4420,1104.75,62.277,65.9086,138.481,104.007,122.031,0.00177234,0.244739,20.7475,136.434,-1.46444,0.0,0.0
4437,1109,62.3654,66.2201,135.686,104.007,122.566,0.00195774,0.24567,20.744,136.123,-1.50455,0.0,0.0
4454,1113.25,62.2138,66.1245,139.057,104.025,122.887,0.00195068,0.245208,20.7429,135.853,-1.527,0.0,0.0
4471,1117.5,62.495,66.0927,134.564,104.075,124.404,0.00174488,0.245299,20.7433,135.593,-1.63499,0.0,0.0
4488,1121.75,62.3584,65.7521,139.493,104.092,123.833,0.00166904,0.245896,20.7426,135.323,-1.5913,0.0,0.0
4505,1126,62.4724,66.1302,136.948,104.108,123.119,0.00183314,0.245778,20.742,135.042,-1.53691,0.0,0.0
4522,1130.25,62.659,66.5471,135.03,104.136,124.484,0.00191688,0.245118,20.7423,134.772,-1.63547,0.0,0.0
4539,1134.5,62.4199,66.5344,135.758,104.183,123.208,0.00195799,0.245814,20.7418,134.492,-1.537,0.0,0.0
4556,1138.75,62.7661,66.2548,139.445,104.195,124.582,0.00171413,0.244919,20.7424,134.212,-1.6375,0.0,0.0
4573,1143,62.5945,66.2595,137.349,104.219,124.056,0.00169781,0.244017,20.7433,133.951,-1.59661,0.0,0.0
4590,1147.25,60.9906,66.4536,137.216,104.268,123.146,0.00149446,0.243497,20.7455,133.661,-1.52481,0.0,0.0
4607,1151.5,62.5541,66.8285,135.011,104.263,120.728,0.00162956,0.243733,20.7456,133.411,-1.34355,0.0,0.0
4624,1155.75,62.7042,66.441,135.089,104.297,124.921,0.00166601,0.243758,20.7443,133.151,-1.65347,0.0,0.0
4641,1160,62.8223,66.5268,136.928,104.324,121.237,0.00187668,0.243457,20.7455,132.87,-1.37677,0.0,0.0
4658,1164.25,62.6765,66.6483,135.419,104.339,122.843,0.00186681,0.242647,20.7457,132.57,-1.49597,0.0,0.0
4675,1168.5,62.599,65.9571,139.986,104.342,122.084,0.00184664,0.243943,20.7446,132.29,-1.43904,0.0,0.0
4692,1172.75,62.57,66.467,137.458,104.359,124.52,0.00191786,0.243423,20.7436,132.04,-1.61852,0.0,0.0
4709,1177,60.99,66.519,137.508,104.348,122.843,0.00195569,0.244333,20.7436,131.789,-1.49526,0.0,0.0
4726,1181.25,62.7902,66.1936,137.726,104.345,119.613,0.00195923,0.244922,20.744,131.509,-1.25131,0.0,0.0
4743,1185.5,62.8518,66.3963,139.996,104.352,122.405,0.00200973,0.244429,20.7441,131.229,-1.46218,0.0,0.0
4760,1189.75,62.8053,66.4804,137.277,104.35,122.263,0.00205555,0.244856,20.7441,130.979,-1.45168,0.0,0.0
4777,1194,62.7519,66.5856,141.379,104.333,120.032,0.00218158,0.245308,20.7441,130.718,-1.28446,0.0,0.0
4794,1198.25,62.874,66.8118,136.939,104.328,122.53,0.00211457,0.246117,20.743,130.428,-1.47366,0.0,0.0
4811,1202.5,62.3673,67.2729,137.89,104.361,124.752,0.00189814,0.247446,20.7412,130.138,-1.63539,0.0,0.0
4828,1206.75,62.8274,66.2616,135.64,104.341,123.681,0.00199584,0.247776,20.7408,129.858,-1.5582,0.0,0.0
4845,1211,63.1151,66.8457,134.608,104.339,122.593,0.00194549,0.2478,20.7397,129.607,-1.47732,0.0,0.0
4862,1215.25,63.1093,66.8957,137.051,104.361,122.459,0.00175415,0.249031,20.7388,129.347,-1.46544,0.0,0.0
4879,1219.5,62.2978,66.9204,134.898,104.346,125.269,0.00170733,0.24942,20.7386,129.047,-1.67466,0.0,0.0
4896,1223.75,63.0908,67.0179,137.424,104.332,123.619,0.00166729,0.250243,20.7373,128.807,-1.55436,0.0,0.0
4913,1228,62.703,67.0373,133.25,104.354,123.922,0.00168494,0.251637,20.7352,128.506,-1.57484,0.0,0.0
4930,1232.25,63.0457,66.9964,135.353,104.349,122.281,0.00210589,0.252617,20.7342,128.226,-1.45309,0.0,0.0
4947,1236.5,63.0667,66.8016,138.326,104.347,124.475,0.00192236,0.253443,20.7334,127.956,-1.61632,0.0,0.0
4964,1240.75,63.1624,66.7622,136.349,104.345,120.407,0.00193095,0.255429,20.7313,127.696,-1.31194,0.0,0.0
4981,1245,63.5223,67.2906,136.726,104.349,124.225,0.001896,0.256798,20.7291,127.405,-1.59769,0.0,0.0
4998,1249.25,63.4689,67.1477,138.124,104.339,122.852,0.00175056,0.258961,20.7279,127.135,-1.49667,0.0,0.0
5015,1253.5,63.0726,67.3844,138.79,104.354,123.253,0.00173402,0.260441,20.7267,126.875,-1.52523,0.0,0.0
5032,1257.75,63.3952,67.3544,142.108,104.368,123.075,0.00170426,0.26138,20.7252,126.505,-1.51076,0.0,0.0
5049,1262,63.6593,67.47,134.505,104.376,124.645,0.00174615,0.262242,20.7234,126.254,-1.62625,0.0,0.0
5066,1266.25,63.7935,67.6099,135.632,104.389,123.28,0.00215938,0.264366,20.7208,125.954,-1.52416,0.0,0.0
5083,1270.5,64.2051,67.7789,134.094,104.395,123.494,0.00219836,0.264677,20.7205,125.654,-1.53957,0.0,0.0
5100,1274.75,63.8198,68.0823,134.743,104.387,123.262,0.00201476,0.265912,20.7213,125.364,-1.52302,0.0,0.0
5117,1279,63.9831,68.2718,132.546,104.38,122.539,0.0020357,0.267664,20.7201,125.053,-1.46973,0.0,0.0
5134,1283.25,64.132,67.9553,135.337,104.386,122.468,0.00184156,0.267862,20.7193,124.753,-1.46387,0.0,0.0
5151,1287.5,64.2297,68.2378,132.831,104.389,123.547,0.00188338,0.270918,20.7152,124.493,-1.54407,0.0,0.0
5168,1291.75,64.1413,68.6808,134.368,104.384,123.298,0.00218579,0.271418,20.7138,124.203,-1.52597,0.0,0.0
5185,1296,64.5569,68.8773,137.637,104.395,123.753,0.00205743,0.27172,20.7147,123.912,-1.55871,0.0,0.0
5202,1300.25,64.6125,68.5146,130.381,104.41,124.083,0.0020889,0.27097,20.7141,123.582,-1.58186,0.0,0.0
5219,1304.5,64.7624,68.8258,140.098,104.413,125.519,0.00200653,0.275457,20.708,123.312,-1.68699,0.0,0.0
5236,1308.75,64.8573,68.8486,137.044,104.39,124.832,0.00217237,0.27672,20.7057,122.991,-1.63875,0.0,0.0
5253,1313,64.9529,69.1174,138.209,104.418,123.449,0.00197899,0.276372,20.7058,122.681,-1.53425,0.0,0.0
5270,1317.25,65.141,69.0984,133.399,104.418,124.805,0.00176963,0.277327,20.7061,122.371,-1.63432,0.0,0.0
5287,1321.5,65.4465,68.915,135.142,104.434,125.492,0.00193493,0.276647,20.7088,122.111,-1.68324,0.0,0.0
5304,1325.75,65.4166,69.3708,134.184,104.45,123.592,0.00208174,0.276152,20.7091,121.78,-1.542,0.0,0.0
5321,1330,65.1123,68.8849,137.365,104.46,122.807,0.00214318,0.275149,20.7107,121.46,-1.48275,0.0,0.0
5338,1334.25,65.3336,69.7178,138.454,104.465,124.725,0.00227445,0.276024,20.7083,121.21,-1.62432,0.0,0.0
5355,1338.5,65.0876,69.6627,131.518,104.49,125.706,0.00230478,0.275263,20.7077,120.94,-1.69394,0.0,0.0
5372,1342.75,65.2466,69.3683,135.217,104.489,123.654,0.00212392,0.27544,20.7071,120.599,-1.54324,0.0,0.0
5389,1347,65.3294,69.3688,137.895,104.504,123.913,0.00199605,0.277447,20.7071,120.309,-1.56101,0.0,0.0
5406,1351.25,65.6157,69.4026,132.245,104.506,125.109,0.00207363,0.277342,20.7058,120.019,-1.64889,0.0,0.0
5423,1355.5,65.1882,69.8542,137.587,104.52,123.86,0.00202895,0.277708,20.7048,119.718,-1.55571,0.0,0.0
5440,1359.75,65.8329,69.8014,137.254,104.522,123.931,0.00166379,0.279763,20.7028,119.438,-1.56077,0.0,0.0
5457,1364,65.477,69.1744,134.835,104.54,123.146,0.00174963,0.280005,20.7011,119.108,-1.50101,0.0,0.0
5474,1368.25,65.506,69.7902,135.519,104.547,124.672,0.00195056,0.280924,20.7006,118.808,-1.6132,0.0,0.0
5491,1372.5,65.9073,69.8113,134.772,104.546,125.367,0.002271,0.283265,20.6986,118.487,-1.66424,0.0,0.0
5508,1376.75,65.8104,69.8728,135.515,104.549,125.68,0.00227902,0.282368,20.6983,118.207,-1.68685,0.0,0.0
5525,1381,65.6926,70.0983,138.166,104.569,124.11,0.00220703,0.284202,20.6968,117.897,-1.56982,0.0,0.0
5542,1385.25,66.0066,70.0219,131.921,104.584,125.51,0.00196486,0.286187,20.6942,117.607,-1.67139,0.0,0.0
5559,1389.5,66.0121,70.3106,133.983,104.585,125.127,0.00196554,0.286784,20.6926,117.296,-1.64326,0.0,0.0
5576,1393.75,65.9726,70.4324,135.659,104.598,123.369,0.00190958,0.288053,20.6921,116.956,-1.51245,0.0,0.0
5593,1398,66.2867,70.3693,134.369,104.598,123.485,0.00193853,0.288434,20.6904,116.656,-1.52106,0.0,0.0
5610,1402.25,66.5939,70.6674,130.497,104.606,126.688,0.00195233,0.290052,20.6886,116.305,-1.75507,0.0,0.0
5627,1406.5,66.0877,70.87,134.068,104.617,126.037,0.0022309,0.291946,20.686,116.025,-1.70687,0.0,0.0
5644,1410.75,66.3197,71.033,132.554,104.631,126.661,0.00216579,0.293989,20.684,115.735,-1.75086,0.0,0.0
5661,1415,66.7189,70.8525,132.873,104.622,123.601,0.00209136,0.296658,20.68,115.395,-1.52761,0.0,0.0
5678,1419.25,66.7382,70.9553,133.328,104.62,123.485,0.001845,0.298599,20.6786,115.064,-1.51912,0.0,0.0
5695,1423.5,67.1584,71.0965,134.285,104.641,122.245,0.00207502,0.301666,20.675,114.724,-1.42481,0.0,0.0
5712,1427.75,67.2264,71.0647,130.216,104.644,123.092,0.00233493,0.303867,20.6726,114.374,-1.48786,0.0,0.0
5729,1432,67.5215,71.452,139.722,104.627,125.1,0.00261642,0.308904,20.6659,114.053,-1.63758,0.0,0.0
5746,1436.25,67.1929,71.2219,133.605,104.652,122.602,0.00265389,0.314185,20.6597,113.743,-1.45055,0.0,0.0
5763,1440.5,67.6922,71.6153,136.565,104.654,124.02,0.00239612,0.315328,20.6604,113.363,-1.55578,0.0,0.0
5780,1444.75,67.7124,72.2984,139.38,104.651,123.824,0.00249327,0.318398,20.6572,113.002,-1.54153,0.0,0.0
5797,1449,67.5469,72.4893,135.107,104.679,125.885,0.00249021,0.319151,20.6546,112.622,-1.69037,0.0,0.0
5814,1453.25,68.3332,72.5932,133.349,104.678,125.269,0.00242811,0.320481,20.6542,112.312,-1.64556,0.0,0.0
5831,1457.5,68.4021,73.0097,131.286,104.67,125.189,0.00227587,0.320723,20.6545,111.891,-1.64035,0.0,0.0
5848,1461.75,68.4233,72.7243,137.316,104.687,125.796,0.00224655,0.323751,20.6501,111.561,-1.6832,0.0,0.0
5865,1466,68.4042,73.0689,131.326,104.696,123.913,0.00233374,0.325167,20.6476,111.191,-1.54418,0.0,0.0
5882,1470.25,68.6825,73.0904,134.166,104.674,124.814,0.00257206,0.326866,20.6461,110.82,-1.61255,0.0,0.0
5899,1474.5,68.8063,73.2743,134.583,104.675,122.432,0.002776,0.329953,20.6422,110.46,-1.43586,0.0,0.0
5916,1478.75,68.9818,73.9776,130.309,104.696,126.509,0.00270093,0.331198,20.6405,110.07,-1.73427,0.0,0.0
5933,1483,69.3821,73.9832,132.137,104.698,126.286,0.00274712,0.332032,20.6391,109.699,-1.71787,0.0,0.0
5950,1487.25,69.4878,74.2018,135.32,104.691,122.994,0.00278694,0.334025,20.6364,109.299,-1.47642,0.0,0.0
5967,1491.5,68.6656,75.1705,130.942,104.712,123.101,0.00262897,0.337888,20.6311,108.949,-1.48261,0.0,0.0
5984,1495.75,70.0863,74.6138,135.144,104.702,124.324,0.00269053,0.34244,20.6258,108.538,-1.57396,0.0,0.0
6001,1500,69.7803,74.8445,130.489,104.689,124.814,0.00275054,0.343621,20.6231,108.168,-1.61125,0.0,0.0
6018,1504.25,70.0056,75.017,132.106,104.711,124.127,0.00241642,0.346916,20.6208,107.738,-1.5587,0.0,0.0
6035,1508.5,70.0845,75.1252,133.089,104.709,122.307,0.00240213,0.349883,20.6168,107.367,-1.42353,0.0,0.0
6052,1512.75,70.8402,75.3439,129.877,104.705,125.251,0.00232497,0.353145,20.6114,106.947,-1.64187,0.0,0.0
6069,1517,71.3804,75.6758,133.021,104.709,124.029,0.00268434,0.355813,20.6099,106.577,-1.55164,0.0,0.0
6086,1521.25,71.3431,75.854,132.975,104.719,123.547,0.0028499,0.358891,20.607,106.146,-1.51512,0.0,0.0
6103,1525.5,71.046,76.0922,138.934,104.705,123.815,0.00296889,0.361626,20.6029,105.766,-1.53622,0.0,0.0
6120,1529.75,71.7448,76.5929,133.328,104.703,123.217,0.0028225,0.364298,20.5996,105.335,-1.49198,0.0,0.0
6137,1534,72.0805,76.7585,133.098,104.717,123.146,0.00286098,0.367359,20.5958,104.865,-1.48548,0.0,0.0
6154,1538.25,71.8752,77.5371,130.261,104.708,123.351,0.00289466,0.370495,20.5926,104.455,-1.50148,0.0,0.0
6171,1542.5,72.2,77.6155,134.643,104.687,123.146,0.00279513,0.370338,20.5921,104.024,-1.48812,0.0,0.0
6188,1546.75,72.7911,77.3575,136.35,104.723,122.263,0.00297145,0.373781,20.589,103.614,-1.419,0.0,0.0
6205,1551,72.3426,78.0396,132.087,104.712,122.852,0.00295413,0.375293,20.5862,103.173,-1.46396,0.0,0.0
6222,1555.25,73.2365,77.9085,133.573,104.706,123.146,0.00289921,0.375084,20.5859,102.763,-1.48645,0.0,0.0
6239,1559.5,73.1474,78.3634,135.541,104.71,121.861,0.00264339,0.376082,20.5852,102.323,-1.39002,0.0,0.0
6256,1563.75,73.4426,78.0046,130.004,104.708,122.691,0.00265057,0.375217,20.5857,101.902,-1.45238,0.0,0.0
6273,1568,73.587,78.3762,130.389,104.7,123.03,0.00277392,0.374542,20.5871,101.462,-1.47834,0.0,0.0
6290,1572.25,73.7426,78.8017,130.271,104.697,126.277,0.00304144,0.372267,20.5875,101.072,-1.71734,0.0,0.0
6307,1576.5,73.3814,78.9156,132.726,104.692,119.327,0.0032647,0.373637,20.5843,100.641,-1.19904,0.0,0.0
6324,1580.75,73.5181,78.7928,132.27,104.677,121.665,0.00328693,0.373497,20.5827,100.231,-1.37811,0.0,0.0
6341,1585,73.0816,78.3724,131.03,104.665,123.11,0.0029518,0.374257,20.5806,99.8204,-1.48737,0.0,0.0
6358,1589.25,73.6562,78.7285,136.393,104.671,121.263,0.00305907,0.373454,20.5812,99.38,-1.34834,0.0,0.0
6375,1593.5,73.8542,78.9955,129.866,104.656,121.487,0.00329686,0.369369,20.5847,99.0197,-1.36648,0.0,0.0
6392,1597.75,73.7164,78.843,134.872,104.63,122.504,0.0029429,0.365712,20.59,98.5793,-1.44519,0.0,0.0
6409,1602,73.4471,78.2451,134.511,104.634,120.808,0.00287036,0.361217,20.5938,98.199,-1.31717,0.0,0.0
6426,1606.25,73.588,78.9023,131.984,104.618,122.495,0.00304508,0.35377,20.6028,97.8486,-1.44552,0.0,0.0
6443,1610.5,73.2709,78.547,132.684,104.592,121.174,0.0027757,0.34555,20.6113,97.4883,-1.34848,0.0,0.0
6460,1614.75,73.3975,78.0738,133.357,104.58,120.585,0.00291326,0.337019,20.6211,97.148,-1.30489,0.0,0.0
6477,1619,72.9325,77.1851,134.639,104.59,121.049,0.00283725,0.331415,20.626,96.8177,-1.33926,0.0,0.0
6494,1623.25,72.3109,78.0255,130.549,104.535,121.763,0.00278917,0.321659,20.6371,96.4874,-1.39793,0.0,0.0
6511,1627.5,72.5226,77.0861,132.695,104.54,118.801,0.00279101,0.313181,20.6475,96.2072,-1.17186,0.0,0.0
6528,1631.75,71.8717,77.0599,135.628,104.53,119.97,0.00259901,0.305628,20.6575,95.8668,-1.26238,0.0,0.0
6545,1636,71.4743,76.6714,133.295,104.5,118.917,0.00292497,0.297342,20.6661,95.5966,-1.1843,0.0,0.0
6562,1640.25,70.5968,75.9746,131.657,104.48,120.88,0.00313071,0.292443,20.6715,95.3364,-1.33607,0.0,0.0
6579,1644.5,70.2132,75.8506,136.146,104.478,118.846,0.00333333,0.286248,20.675,95.0761,-1.18074,0.0,0.0
6596,1648.75,70.2108,75.2573,136.928,104.432,120.773,0.00334071,0.278282,20.6834,94.8159,-1.33216,0.0,0.0
6613,1653,69.6443,74.8333,134.498,104.396,120.264,0.00323922,0.270213,20.6927,94.5757,-1.29659,0.0,0.0
6630,1657.25,69.0927,74.3451,137.327,104.376,119.265,0.00355571,0.263952,20.7009,94.3254,-1.22196,0.0,0.0
6647,1661.5,68.842,73.6399,142.934,104.32,119.907,0.00360614,0.257824,20.708,94.1253,-1.27608,0.0,0.0
6664,1665.75,68.1646,73.3075,136.514,104.305,119.64,0.00372668,0.250042,20.715,93.9351,-1.25687,0.0,0.0
6681,1670,67.7597,73.0364,134.904,104.256,119.988,0.00400499,0.243206,20.7249,93.7249,-1.28781,0.0,0.0
6698,1674.25,67.2341,72.3572,134.147,104.218,119.238,0.00423522,0.236241,20.7339,93.5347,-1.23376,0.0,0.0
6715,1678.5,66.628,71.8235,135.544,104.169,119.158,0.00442369,0.229656,20.7413,93.3746,-1.23193,0.0,0.0
6732,1682.75,66.1675,70.7503,139.754,104.118,120.916,0.00450643,0.224908,20.7446,93.2144,-1.37051,0.0,0.0
6749,1687,65.8902,70.9016,137.19,104.092,122.04,0.00447459,0.220095,20.7505,93.0543,-1.45766,0.0,0.0
6766,1691.25,65.27,70.015,141.093,104.033,121.843,0.00490346,0.217456,20.7522,92.9242,-1.44812,0.0,0.0
6783,1695.5,64.7427,69.5294,141.24,104.001,121.611,0.00497542,0.21535,20.7534,92.774,-1.43347,0.0,0.0
6800,1699.75,64.7248,69.07,136.233,103.963,120.157,0.00490356,0.211944,20.7564,92.6239,-1.32656,0.0,0.0
6817,1704,64.2573,68.5633,134.724,103.902,121.023,0.00539305,0.209387,20.7593,92.4538,-1.39772,0.0,0.0
6834,1708.25,63.7541,67.8611,139.107,103.825,122.281,0.00585718,0.208708,20.7609,92.3336,-1.49922,0.0,0.0
6851,1712.5,62.2848,68.9254,140.686,103.799,118.765,0.0055537,0.206829,20.7618,92.2135,-1.23427,0.0,0.0
6868,1716.75,63.4015,67.5544,137,103.76,120.996,0.00577795,0.203667,20.7652,92.0934,-1.40818,0.0,0.0
6885,1721,62.3938,66.9501,142.759,103.702,120.014,0.00580828,0.199029,20.7689,91.9833,-1.3387,0.0,0.0
6902,1725.25,62.2262,66.075,139.487,103.649,120.452,0.00623319,0.195807,20.7744,91.8332,-1.37671,0.0,0.0
6919,1729.5,62.1187,66.1719,140.815,103.587,119.238,0.00639408,0.194147,20.7765,91.7331,-1.28939,0.0,0.0
6936,1733.75,61.8805,65.614,137.282,103.509,118.382,0.00641304,0.192252,20.7793,91.613,-1.23025,0.0,0.0
6953,1738,61.6436,65.0748,139.697,103.475,120.362,0.00652325,0.189134,20.786,91.4929,-1.38527,0.0,0.0
6970,1742.25,61.2495,65.0292,140.373,103.425,118.962,0.00715197,0.185947,20.7901,91.3928,-1.28245,0.0,0.0
6987,1746.5,60.8528,64.6375,143.375,103.373,118.07,0.00692914,0.184219,20.7932,91.3127,-1.21814,0.0,0.0
7004,1750.75,60.7515,64.1558,140.394,103.322,118.899,0.00649336,0.182323,20.7959,91.2126,-1.28675,0.0,0.0
7021,1755,60.4226,63.6378,139.183,103.303,118.667,0.006199,0.180395,20.798,91.1025,-1.27059,0.0,0.0
7038,1759.25,59.9672,63.8192,140.185,103.261,119.345,0.00675813,0.179586,20.798,91.0024,-1.32653,0.0,0.0
7055,1763.5,59.7934,63.4752,134.164,103.205,118.319,0.00708026,0.179097,20.7984,90.9124,-1.25236,0.0,0.0
7072,1767.75,59.7725,63.1725,139.422,103.202,119.818,0.00709579,0.17666,20.7993,90.8123,-1.36801,0.0,0.0
7089,1772,59.4518,63.1976,139.728,103.181,117.409,0.00735498,0.176109,20.8003,90.6922,-1.18376,0.0,0.0
7106,1776.25,59.4531,62.6315,144.61,103.146,119.301,0.00735709,0.174903,20.8019,90.6321,-1.33326,0.0,0.0
7123,1780.5,58.8115,62.1098,138.2,103.14,118.837,0.00769101,0.174427,20.8014,90.502,-1.29812,0.0,0.0
7140,1784.75,59.0285,61.7018,139.851,103.131,120.603,0.00778258,0.173645,20.8022,90.4319,-1.43413,0.0,0.0
7157,1789,58.867,61.8566,140.241,103.111,117.73,0.00769982,0.172537,20.8024,90.3518,-1.21499,0.0,0.0
7174,1793.25,58.6227,61.4038,135.912,103.099,117.374,0.00766811,0.171471,20.8038,90.2618,-1.18823,0.0,0.0
7191,1797.5,58.533,61.3965,140.47,103.096,117.481,0.00767998,0.170341,20.8056,90.1817,-1.19684,0.0,0.0
7208,1801.75,57.883,61.4681,142.324,103.075,117.472,0.00750204,0.168585,20.8092,90.1517,-1.19808,0.0,0.0
7225,1806,58.0621,60.8028,143.015,103.035,117.98,0.00763554,0.166215,20.8122,90.0616,-1.24121,0.0,0.0
7242,1810.25,57.8856,60.9692,140.04,103.025,118.667,0.00781395,0.167677,20.8119,89.9315,-1.29528,0.0,0.0
7259,1814.5,57.4371,60.3682,142.759,102.998,118.016,0.0079302,0.168181,20.8111,89.8514,-1.24727,0.0,0.0
7276,1818.75,57.3754,60.2861,139.413,102.975,118.551,0.00815417,0.167646,20.8105,89.7513,-1.29075,0.0,0.0
7293,1823,57.4965,60.3599,139.759,102.974,117.151,0.00838404,0.165786,20.8127,89.6812,-1.18191,0.0,0.0
7310,1827.25,57.2873,60.1996,141.961,102.947,116.428,0.00834216,0.165997,20.8142,89.6112,-1.12767,0.0,0.0
7327,1831.5,57.5795,60.05,135.675,102.923,117.32,0.00853093,0.164829,20.8143,89.5511,-1.1997,0.0,0.0
7344,1835.75,56.8945,59.9221,140.793,102.916,116.633,0.00873785,0.162817,20.8173,89.431,-1.14653,0.0,0.0
7361,1840,56.9122,59.9529,138.758,102.912,118.462,0.00875184,0.162742,20.8167,89.411,-1.28945,0.0,0.0
7378,1844.25,56.9389,59.491,140.28,102.891,117.249,0.00857512,0.161726,20.8169,89.3409,-1.19696,0.0,0.0
7395,1848.5,56.8453,59.5242,140.48,102.893,116.856,0.00860353,0.16157,20.8169,89.2709,-1.16608,0.0,0.0
7412,1852.75,56.6956,59.3717,141.624,102.888,116.758,0.00900323,0.160801,20.8169,89.2108,-1.15883,0.0,0.0
7429,1857,56.5396,59.2232,141.111,102.876,118.337,0.00928559,0.160264,20.8193,89.1307,-1.28304,0.0,0.0
7446,1861.25,56.2308,59.358,138.808,102.877,115.75,0.00944953,0.16103,20.8182,89.0707,-1.08035,0.0,0.0
7463,1865.5,56.1379,59.3344,138.332,102.883,116.606,0.00935503,0.159751,20.8212,88.9806,-1.14738,0.0,0.0
7480,1869.75,56.2362,58.7907,141.673,102.864,117.311,0.00917363,0.160394,20.8205,88.9306,-1.2043,0.0,0.0
7497,1874,56.0652,58.5994,139.112,102.862,115.072,0.00948832,0.160305,20.8192,88.8405,-1.02788,0.0,0.0
7514,1878.25,56.1513,58.6118,139.601,102.859,116.705,0.0100394,0.160927,20.8192,88.7604,-1.15724,0.0,0.0
7531,1882.5,54.9433,58.9235,136.814,102.868,117.534,0.0100238,0.160952,20.8192,88.6903,-1.22137,0.0,0.0
7548,1886.75,55.3499,58.533,139.343,102.826,116.544,0.00961029,0.159965,20.8211,88.6303,-1.1475,0.0,0.0
7565,1891,55.2906,58.6636,141.179,102.833,116.321,0.00972484,0.158581,20.823,88.5802,-1.12938,0.0,0.0
7582,1895.25,55.5932,57.9069,143.243,102.824,115.331,0.00968856,0.158174,20.822,88.5002,-1.05183,0.0,0.0
7599,1899.5,55.9137,58.2448,139.582,102.803,118.141,0.0101188,0.158323,20.8218,88.4501,-1.27434,0.0,0.0
7616,1903.75,55.0676,58.1687,140.787,102.81,116.035,0.00992784,0.157954,20.8221,88.3701,-1.10891,0.0,0.0
7633,1908,55.3879,57.9096,139.471,102.81,116.999,0.0102574,0.157683,20.8221,88.32,-1.18465,0.0,0.0
7650,1912.25,54.9357,57.8735,139.251,102.797,115.768,0.0103043,0.15696,20.8239,88.2399,-1.08889,0.0,0.0
7667,1916.5,55.4225,57.1369,144.709,102.786,116.178,0.0102546,0.157495,20.8227,88.1799,-1.12226,0.0,0.0
7684,1920.75,53.9111,56.1668,142.542,102.798,116.125,0.0104057,0.159036,20.8232,88.0898,-1.11698,0.0,0.0
7701,1925,53.3991,56.2008,138.429,102.791,115.857,0.010482,0.156902,20.8257,88.0197,-1.09644,0.0,0.0
7718,1929.25,53.3472,56.1726,140.284,102.782,116.365,0.0107044,0.156128,20.8269,87.9597,-1.1374,0.0,0.0
7735,1933.5,53.3392,56.1588,145.637,102.796,115.232,0.0106726,0.155886,20.8286,87.8896,-1.04653,0.0,0.0
7752,1937.75,53.9055,56.1982,141.76,102.799,116.624,0.0105929,0.156669,20.8264,87.7995,-1.15628,0.0,0.0
7769,1942,53.6708,56.313,139.125,102.79,115.839,0.0103572,0.156278,20.8263,87.7795,-1.09514,0.0,0.0
7786,1946.25,53.2108,56.119,143.566,102.794,116.535,0.0104703,0.154634,20.8281,87.7094,-1.14972,0.0,0.0
7803,1950.5,53.2625,55.7919,139.713,102.801,115.473,0.0106495,0.154004,20.8307,87.6494,-1.06521,0.0,0.0
7820,1954.75,53.1885,55.936,144.081,102.782,115.134,0.0104583,0.153817,20.8313,87.5893,-1.03997,0.0,0.0
7837,1959,53.4669,55.6467,139.899,102.77,117.391,0.0102943,0.15449,20.8308,87.5193,-1.21891,0.0,0.0
7854,1963.25,52.932,55.9202,138.828,102.784,115.777,0.0103463,0.153777,20.8304,87.4592,-1.09077,0.0,0.0
7871,1967.5,53.2001,55.7339,145.75,102.773,116.901,0.0102957,0.154946,20.8314,87.4092,-1.18029,0.0,0.0
7888,1971.75,53.7108,55.8284,145.116,102.77,115.839,0.0103926,0.152942,20.8335,87.3091,-1.09692,0.0,0.0
7905,1976,53.203,55.2076,143.05,102.779,114.447,0.0105458,0.151689,20.8339,87.259,-0.985361,0.0,0.0
7922,1980.25,53.6045,56.3161,144.011,102.779,114.929,0.0104991,0.15148,20.8324,87.209,-1.02385,0.0,0.0
7939,1984.5,52.7559,55.2344,141.385,102.772,117.151,0.0105059,0.151692,20.8323,87.179,-1.19993,0.0,0.0
7956,1988.75,52.6924,55.0437,144.346,102.771,114.947,0.0107646,0.152065,20.8337,87.0789,-1.02603,0.0,0.0
7973,1993,52.8431,55.1445,144.294,102.776,115.732,0.0104564,0.151134,20.8354,87.0388,-1.08792,0.0,0.0
7990,1997.25,52.4183,55.5252,138.586,102.79,115.072,0.0104394,0.150891,20.8354,86.9788,-1.03424,0.0,0.0
8007,2001.5,52.5418,54.9837,140.46,102.785,116.633,0.0110251,0.153293,20.8333,86.9187,-1.15819,0.0,0.0
8024,2005.75,52.7456,54.6962,145.451,102.789,113.279,0.0108539,0.151991,20.835,86.8186,-0.890393,0.0,0.0
8041,2010,52.6145,54.7437,143.733,102.778,116.214,0.0108821,0.151037,20.8359,86.7786,-1.12579,0.0,0.0
8058,2014.25,52.7578,54.7866,142.201,102.769,115.143,0.0109603,0.151693,20.8344,86.7085,-1.04178,0.0,0.0
8075,2018.5,52.2141,54.8437,142.226,102.787,115.527,0.010927,0.152364,20.8328,86.6585,-1.07067,0.0,0.0
8092,2022.75,52.726,54.5867,144.839,102.782,115.366,0.0109568,0.151917,20.8336,86.6185,-1.05838,0.0,0.0
8109,2027,52.3556,54.6975,143.871,102.768,114.769,,0.151378,,86.5484,-1.01203,0.0,0.0
8126,2031.25,52.4723,54.9202,140.331,102.788,115.741,,,,86.4883,-1.08756,0.0,0.0
8143,2035.5,52.3476,54.7721,141.104,102.773,115.215,,,,86.4183,-1.04712,0.0,0.0
8148,2036.75,52.4165,54.8527,142.675,102.77,113.323,,,,86.4183,-0.895744,0.0,0.0