File: 01_Data/Wood_Stud/Cone/Wood_Stud_Cone_HF75Scan_221004_R2.csv
Names,Time,Stack TC,Smoke TC,Exh Press,Smoke Comp,Smoke Meas,CO Meter,CO2 Meter,O2 Meter,Sample Mass,Ext Coeff,Start Test,Flame Verif
Chan Gain,,500,500,1,1,1,1,1,1,1,1,1.0,1.0
Offset,,0,0,0.13786,0,0,0,0,0,0,0,0.0,0.0
Gain,,1,1,25.011,13.9274,292.346,1,1,1,1.00091,1.04463,1.0,1.0
Units,sec,C,C,Pa,%,%,%,%,%,g,/m,,
Baseline,,31.2307,32.7419,156.818,104.795,108.031,-0.000161967,0.0651498,20.9451,-443.019,-0.278554,,
18,4.25,31.0255,33.0289,161.122,104.046,104.776,0.000397451,0.0836192,20.909,229.678,-0.06407,0.0,0.0
36,8.75,33.5641,34.9328,128.656,104.156,118.435,0.00318053,0.364025,20.556,228.757,-1.1773,0.0,1.0
54,13.25,40.9172,40.0717,129.439,104.226,112.877,0.00564502,0.669422,20.2443,227.676,-0.730713,0.0,0.0
72,17.75,46.5431,46.478,136.164,104.305,111.253,0.00650937,0.657809,20.2486,226.775,-0.590955,0.0,0.0
90,22.25,50.1105,50.443,134.579,104.353,112.957,0.00613587,0.5807,20.3333,225.975,-0.725989,0.0,0.0
108,26.75,52.8426,53.5124,137.68,104.39,111.084,0.00522789,0.528987,20.3938,225.234,-0.569516,0.0,0.0
126,31.25,54.6047,56.657,137.646,104.358,114.733,0.00453554,0.50068,20.4306,224.473,-0.868522,0.0,0.0
144,35.75,56.2026,57.9545,134.211,104.3,115.152,0.00469333,0.489567,20.4439,223.763,-0.90699,0.0,0.0
162,40.25,56.9929,59.5806,140.774,104.241,113.341,0.00462171,0.481593,20.4554,223.052,-0.766953,0.0,0.0
180,44.75,58.8436,61.3442,140.025,104.119,112.654,0.00424271,0.476134,20.4637,222.321,-0.721936,0.0,0.0
198,49.25,60.3143,62.977,137.101,103.994,115.179,0.00400954,0.464494,20.4762,221.651,-0.936083,0.0,0.0
216,53.75,60.2818,63.9403,138.429,103.848,114.831,0.00381634,0.445775,20.4983,220.98,-0.921252,0.0,0.0
234,58.25,61.3566,65.6377,138.632,103.712,112.672,0.00397896,0.430934,20.512,220.36,-0.75933,0.0,0.0
252,62.75,61.9267,65.6185,142.971,103.55,111.976,0.00352956,0.414724,20.5327,219.719,-0.716841,0.0,0.0
270,67.25,61.6833,66.0787,140.661,103.42,113.118,0.00313896,0.39619,20.5529,219.139,-0.821374,0.0,0.0
288,71.75,61.734,66.4947,135.182,103.291,116.08,0.0032946,0.383045,20.5702,218.598,-1.06961,0.0,0.0
306,76.25,61.277,66.4416,137.663,103.198,114.412,0.00303788,0.36988,20.5861,218.028,-0.945253,0.0,0.0
324,80.75,61.276,66.2543,141.375,103.102,114.278,0.00242577,0.361482,20.5976,217.507,-0.943062,0.0,0.0
342,85.25,60.9309,66.4351,143.775,103.052,116.954,0.00208482,0.356251,20.6057,216.997,-1.15966,0.0,0.0
360,89.75,60.9573,66.7169,137.695,102.986,114.965,0.00223606,0.351287,20.6111,216.466,-1.0083,0.0,0.0
378,94.25,61.0736,66.8022,145.557,102.953,115.803,0.00214294,0.345837,20.6174,215.966,-1.07785,0.0,0.0
396,98.75,61.2906,66.1718,140.757,102.945,116.374,0.00203219,0.344379,20.6198,215.445,-1.12357,0.0,0.0
414,103.25,61.0838,66.8185,143.538,102.951,114.938,0.00198984,0.340143,20.6242,214.945,-1.00923,0.0,0.0
432,107.75,60.9022,66.4889,142.847,103.001,114.073,0.00185527,0.336765,20.6286,214.444,-0.935589,0.0,0.0
450,112.25,60.3163,66.0322,139.926,103.039,115.803,0.00152854,0.33588,20.6293,213.954,-1.07014,0.0,0.0
468,116.75,60.2618,66.3117,143.105,103.125,116.883,0.00176527,0.33641,20.6294,213.463,-1.14753,0.0,0.0
486,121.25,59.9838,66.6652,143.313,103.196,117.543,0.00202725,0.333627,20.6327,212.983,-1.19284,0.0,0.0
504,125.75,60.3606,66.4484,140.454,103.3,115.794,0.00204243,0.331967,20.6344,212.523,-1.04625,0.0,0.0
522,130.25,59.9592,66.7128,144.646,103.384,117.659,0.00218232,0.328366,20.6414,212.022,-1.18517,0.0,0.0
540,134.75,60.6195,66.4019,144.765,103.49,118.4,0.001889,0.325206,20.6455,211.562,-1.23329,0.0,0.0
558,139.25,60.2497,65.7316,140.985,103.634,118.132,0.00159687,0.321117,20.6484,211.091,-1.19984,0.0,0.0
576,143.75,60.2453,65.7231,137.542,103.734,117.632,0.00125687,0.316525,20.6548,210.651,-1.15214,0.0,0.0
594,148.25,59.9377,65.6814,142.993,103.88,118.123,0.00129343,0.313204,20.6588,210.21,-1.17738,0.0,0.0
612,152.75,59.7351,65.4468,139.766,103.973,117.909,0.00147845,0.308774,20.6623,209.75,-1.15262,0.0,0.0
630,157.25,59.7845,65.6812,141.253,104.096,118.774,0.00143842,0.305764,20.6648,209.31,-1.20877,0.0,0.0
648,161.75,59.6392,65.7242,139.368,104.173,120.924,0.00148727,0.303628,20.6665,208.869,-1.36636,0.0,0.0
666,166.25,59.4691,65.0286,142.084,104.261,120.639,0.00126186,0.30188,20.6688,208.449,-1.33697,0.0,0.0
684,170.75,59.5809,65.0728,143.239,104.352,118.462,0.00114935,0.302199,20.6692,208.048,-1.16215,0.0,0.0
702,175.25,59.556,64.5591,144.217,104.425,121.95,0.00164964,0.302469,20.6697,207.588,-1.42168,0.0,0.0
720,179.75,59.1516,64.6808,149.411,104.517,122.361,0.00155835,0.302653,20.6699,207.148,-1.44441,0.0,0.0
738,184.25,59.5612,65.0164,139.981,104.568,120.88,0.00171173,0.301888,20.6696,206.697,-1.32835,0.0,0.0
756,188.75,59.2372,64.7458,143.19,104.63,120.844,0.00167568,0.301103,20.6711,206.287,-1.32021,0.0,0.0
774,193.25,59.5217,64.5029,140.805,104.666,121.353,0.00175504,0.300379,20.6715,205.846,-1.35549,0.0,0.0
792,197.75,59.675,64.5311,147.322,104.713,121.326,0.00157818,0.299414,20.6739,205.456,-1.34938,0.0,0.0
810,202.25,59.247,64.6194,142.676,104.756,119.515,0.00137078,0.299955,20.675,205.016,-1.2078,0.0,0.0
828,206.75,59.5776,64.5266,142.731,104.76,121.629,0.00118377,0.298038,20.6765,204.585,-1.36813,0.0,0.0
846,211.25,59.4064,64.2718,144.896,104.804,121.085,0.000938746,0.2955,20.6788,204.175,-1.32325,0.0,0.0
864,215.75,59.7858,64.4713,144.835,104.824,121.897,0.00100029,0.291537,20.6825,203.765,-1.38266,0.0,0.0
882,220.25,59.2195,64.2361,146.425,104.856,121.745,0.00113893,0.287986,20.6858,203.344,-1.3685,0.0,0.0
900,224.75,58.6824,64.2053,144.324,104.873,120.773,0.00134972,0.289132,20.6868,202.954,-1.29349,0.0,0.0
918,229.25,59.0778,63.7015,142.178,104.889,120.603,0.00126825,0.285731,20.6887,202.543,-1.27929,0.0,0.0
936,233.75,59.1813,63.9663,142.598,104.892,122.147,0.00108274,0.282017,20.6933,202.153,-1.39551,0.0,0.0
954,238.25,59.0517,63.9855,144.334,104.93,122.397,0.00105871,0.280024,20.6958,201.783,-1.41093,0.0,0.0
972,242.75,59.0427,64.0117,141.727,104.943,121.263,0.000881312,0.278629,20.6964,201.362,-1.32452,0.0,0.0
990,247.25,58.8389,63.6291,143.923,104.963,122.111,0.000740687,0.277855,20.6984,200.962,-1.38664,0.0,0.0
1008,251.75,58.8525,63.5365,147.67,104.981,121.049,0.0009832,0.278941,20.6974,200.602,-1.30506,0.0,0.0
1026,256.25,58.9822,63.4693,145.108,104.987,120.541,0.000922931,0.278639,20.6972,200.221,-1.26597,0.0,0.0
1044,260.75,58.7966,63.0342,144.659,105.006,121.281,0.000866792,0.279118,20.6963,199.811,-1.32038,0.0,0.0
1062,265.25,58.7598,63.2061,141.735,104.988,122.245,0.000664278,0.279111,20.6944,199.421,-1.39449,0.0,0.0
1080,269.75,58.2237,63.0308,139.451,105.003,122.343,0.000739672,0.280313,20.6931,199.07,-1.40058,0.0,0.0
1098,274.25,58.6537,62.9137,143.108,104.994,122.12,0.000607829,0.282612,20.6912,198.65,-1.38456,0.0,0.0
1116,278.75,58.9595,63.4044,147.426,104.98,121.219,0.000814694,0.283015,20.6891,198.28,-1.318,0.0,0.0
1134,283.25,59.1581,63.2632,143.36,104.974,123.405,0.000834882,0.283531,20.6884,197.859,-1.48224,0.0,0.0
1152,287.75,58.8468,63.2313,139.296,104.965,121.852,0.000861104,0.283584,20.6883,197.469,-1.36705,0.0,0.0
1170,292.25,58.6333,63.3222,144.459,104.964,122.744,0.00100212,0.282747,20.6902,197.079,-1.43398,0.0,0.0
1188,296.75,58.9739,63.4303,136.676,104.949,123.414,0.00107125,0.281881,20.6919,196.698,-1.48513,0.0,0.0
1206,301.25,59.285,63.8158,141.287,104.923,121.968,0.000847201,0.280337,20.6945,196.278,-1.37937,0.0,0.0
1224,305.75,58.9829,63.8815,143.377,104.898,122.209,0.000997851,0.278497,20.6973,195.948,-1.39972,0.0,0.0
1242,310.25,58.5392,63.4706,142.865,104.887,123.449,0.000954874,0.277548,20.6977,195.527,-1.49312,0.0,0.0
1260,314.75,58.606,63.1903,145.33,104.862,123.271,0.000692475,0.27692,20.6972,195.167,-1.4821,0.0,0.0
1278,319.25,59.3177,63.1041,140.635,104.849,121.933,0.000521747,0.276741,20.6979,194.736,-1.38319,0.0,0.0
1296,323.75,58.8576,63.0937,139.323,104.823,123.628,0.000468954,0.276399,20.699,194.396,-1.51201,0.0,0.0
1314,328.25,59.0911,63.0141,144.466,104.794,121.843,0.000564879,0.276554,20.699,193.966,-1.38127,0.0,0.0
1332,332.75,58.7741,63.4907,145.318,104.785,120.675,0.000380039,0.275453,20.7001,193.615,-1.29377,0.0,0.0
1350,337.25,59.4686,63.2252,142.498,104.747,122.093,0.000365645,0.275701,20.699,193.265,-1.40413,0.0,0.0
1368,341.75,59.1592,63.2922,145.233,104.731,122.593,0.000549942,0.276217,20.6989,192.855,-1.44297,0.0,0.0
1386,346.25,59.3537,63.616,145.187,104.712,122.432,0.0007664,0.273264,20.7016,192.514,-1.43266,0.0,0.0
1404,350.75,59.0883,63.1757,146.794,104.696,122.495,0.00072219,0.273461,20.7013,192.104,-1.43871,0.0,0.0
1422,355.25,59.0674,63.4167,143.33,104.688,123.057,0.000643061,0.274513,20.6995,191.724,-1.48137,0.0,0.0
1440,359.75,59.271,63.6432,146.785,104.676,121.406,0.000732501,0.273301,20.7001,191.373,-1.35871,0.0,0.0
1458,364.25,59.1075,63.4712,141.654,104.662,123.762,0.000591822,0.275265,20.6993,191.003,-1.53601,0.0,0.0
1476,368.75,59.7627,63.3808,143.024,104.634,122.058,0.000389641,0.275498,20.6993,190.583,-1.41135,0.0,0.0
1494,373.25,59.6469,63.4914,141.234,104.632,122.816,0.000629737,0.272412,20.7021,190.242,-1.46829,0.0,0.0
1512,377.75,58.9667,63.1823,142.67,104.629,124.502,0.000813607,0.270565,20.7054,189.862,-1.59354,0.0,0.0
1530,382.25,58.9644,63.4031,142.693,104.631,121.727,0.000767618,0.269099,20.7076,189.492,-1.38679,0.0,0.0
1548,386.75,59.3434,63.5117,142.138,104.628,122.432,0.000719727,0.268256,20.7101,189.141,-1.43996,0.0,0.0
1566,391.25,59.6587,63.4487,143.274,104.615,121.576,0.000924353,0.267921,20.7112,188.781,-1.37678,0.0,0.0
1584,395.75,59.1641,63.4483,142.488,104.651,121.861,0.00076892,0.265683,20.7127,188.391,-1.39511,0.0,0.0
1602,400.25,59.3815,63.4392,142.344,104.649,122.298,0.000589611,0.264941,20.7129,188.03,-1.42815,0.0,0.0
1620,404.75,59.1071,62.7716,144.132,104.698,121.942,0.000647446,0.263601,20.7151,187.7,-1.39706,0.0,0.0
1638,409.25,58.9447,62.9383,144.723,104.714,121.772,0.000688247,0.261792,20.7189,187.32,-1.38293,0.0,0.0
1656,413.75,59.1118,63.4845,145.291,104.728,124.02,0.000664639,0.261723,20.7197,186.929,-1.54935,0.0,0.0
1674,418.25,59.2038,63.2518,145.488,104.734,123.556,0.000494674,0.260686,20.7198,186.589,-1.51448,0.0,0.0
1692,422.75,59.3045,62.7262,143.476,104.753,123.369,0.000300531,0.260859,20.7186,186.249,-1.4989,0.0,0.0
1710,427.25,58.8461,62.9589,139.881,104.764,121.727,0.000527194,0.261304,20.717,185.878,-1.37519,0.0,0.0
1728,431.75,59.2614,63.205,150.782,104.769,120.264,0.000765838,0.260733,20.7166,185.458,-1.26397,0.0,0.0
1746,436.25,58.8916,62.8163,138.323,104.778,123.28,0.00077699,0.263202,20.7134,185.228,-1.49012,0.0,0.0
1764,440.75,58.6607,62.5564,140.88,104.75,122.397,0.000961257,0.263456,20.7127,184.887,-1.42661,0.0,0.0
1782,445.25,58.6927,62.6251,142.825,104.763,121.942,0.000731797,0.263534,20.7129,184.507,-1.39137,0.0,0.0
1800,449.75,58.8404,62.8989,146.523,104.736,122.352,0.000747672,0.263422,20.713,184.157,-1.42457,0.0,0.0
1818,454.25,59.2795,63.0762,140.955,104.731,122.878,0.000499135,0.262571,20.714,183.776,-1.46428,0.0,0.0
1836,458.75,58.6388,62.743,144.723,104.728,123.931,0.000292813,0.262068,20.7151,183.436,-1.54275,0.0,0.0
1854,463.25,59.1729,63.2563,143.16,104.732,122.066,0.000374474,0.261959,20.7152,183.066,-1.4035,0.0,0.0
1872,467.75,59.1833,62.9932,144.316,104.747,121.692,0.000728704,0.262094,20.7143,182.726,-1.37399,0.0,0.0
1890,472.25,59.031,62.91,143.04,104.745,121.567,0.000990362,0.260714,20.7145,182.395,-1.3648,0.0,0.0
1908,476.75,59.201,63.2957,147.151,104.754,121.817,0.000966027,0.259909,20.7167,182.055,-1.38276,0.0,0.0
1926,481.25,59.1059,63.486,142.476,104.742,123.342,0.000899388,0.2589,20.718,181.685,-1.49784,0.0,0.0
1944,485.75,59.0959,62.9456,145.796,104.747,121.656,0.000743982,0.25817,20.7192,181.354,-1.3713,0.0,0.0
1962,490.25,58.81,62.9547,138.414,104.737,123.333,0.000805479,0.257113,20.7206,181.014,-1.49763,0.0,0.0
1980,494.75,58.3765,62.3623,141.376,104.733,121.808,0.000864988,0.256843,20.7199,180.684,-1.38394,0.0,0.0
1998,499.25,59.0797,63.0747,143.018,104.742,122.165,0.000467195,0.254762,20.7236,180.333,-1.40993,0.0,0.0
2016,503.75,58.779,62.7643,142.602,104.744,120.826,0.000503663,0.252443,20.7269,179.983,-1.30889,0.0,0.0
2034,508.25,59.0849,63.0035,143.913,104.757,123.815,0.000549874,0.251115,20.7287,179.653,-1.53161,0.0,0.0
2052,512.75,58.9939,63.0743,141.512,104.758,121.032,0.000742825,0.25069,20.7283,179.322,-1.32321,0.0,0.0
2070,517.25,58.73,62.799,141.037,104.787,122.718,0.000721058,0.251443,20.7274,179.022,-1.44743,0.0,0.0
2088,521.75,58.5998,62.6895,143.917,104.796,122.914,0.000812642,0.251738,20.7285,178.672,-1.46125,0.0,0.0
2106,526.25,58.9021,62.7666,142.36,104.842,123.699,0.00089488,0.253251,20.728,178.342,-1.51562,0.0,0.0
2124,530.75,58.8278,62.312,147.623,104.855,122.834,0.000836315,0.25314,20.727,178.001,-1.45018,0.0,0.0
2142,535.25,58.5803,62.5425,143.153,104.887,120.942,0.000874428,0.25283,20.7287,177.661,-1.30516,0.0,0.0
2160,539.75,58.6833,62.4908,141.22,104.918,123.137,0.000791141,0.251949,20.731,177.311,-1.46724,0.0,0.0
2178,544.25,58.451,62.4088,140.918,104.923,122.254,0.000874687,0.252176,20.7317,176.95,-1.40087,0.0,0.0
2196,548.75,58.9873,62.8842,144.304,104.949,122.441,0.00102095,0.251563,20.7318,176.66,-1.4126,0.0,0.0
2214,553.25,59.3679,63.0236,140.087,104.961,124.556,0.000892068,0.253732,20.7317,176.33,-1.56845,0.0,0.0
2232,557.75,59.0962,62.8727,138.888,104.978,121.701,0.000601054,0.253647,20.7306,175.969,-1.35449,0.0,0.0
2250,562.25,58.4422,62.0397,143.434,104.954,123.904,0.00108975,0.254407,20.7296,175.619,-1.52105,0.0,0.0
2268,566.75,58.9666,62.4829,141.529,104.961,123.985,0.000930564,0.253433,20.7286,175.269,-1.52631,0.0,0.0
2286,571.25,58.9866,62.8028,142.557,104.971,123.458,0.000766883,0.254942,20.7266,174.928,-1.48644,0.0,0.0
2304,575.75,59.1417,62.8032,147.6,104.96,123.146,0.000536324,0.2553,20.7261,174.618,-1.4642,0.0,0.0
2322,580.25,59.3434,62.9858,147.605,104.962,121.656,0.000761192,0.253991,20.7279,174.258,-1.3525,0.0,0.0
2340,584.75,59.3019,62.4184,142.874,104.954,122.388,0.000746231,0.253954,20.7282,173.908,-1.40815,0.0,0.0
2358,589.25,59.0876,62.7479,139.448,104.968,122.78,0.000855707,0.253049,20.7294,173.547,-1.43631,0.0,0.0
2376,593.75,59.3398,62.7429,141.062,104.953,122.86,0.000764334,0.251987,20.7308,173.237,-1.44356,0.0,0.0
2394,598.25,59.0653,62.8709,147.823,104.978,123.565,0.000383035,0.253934,20.7305,172.877,-1.49379,0.0,0.0
2412,602.75,59.7709,63.1496,139.083,104.967,122.727,0.000376374,0.252886,20.7317,172.556,-1.43238,0.0,0.0
2430,607.25,59.6521,63.3556,141.827,104.95,121.335,0.00085118,0.251042,20.7335,172.246,-1.32932,0.0,0.0
2448,611.75,59.2244,62.7727,140.58,104.959,124.047,0.000837849,0.250047,20.7348,171.896,-1.53111,0.0,0.0
2466,616.25,59.5422,63.0682,140.885,104.959,124.297,0.000707152,0.250038,20.7348,171.545,-1.54959,0.0,0.0
2484,620.75,59.2344,63.0178,143.282,104.972,122.629,0.000572417,0.249431,20.7348,171.225,-1.42461,0.0,0.0
2502,625.25,59.7194,63.3584,139.151,104.973,123.592,0.0007118,0.249035,20.7348,170.875,-1.49622,0.0,0.0
2520,629.75,59.3282,63.1865,141.809,104.973,120.701,0.000974134,0.248144,20.7366,170.554,-1.27935,0.0,0.0
2538,634.25,59.3946,62.9721,142.436,104.96,123.851,0.000844597,0.245755,20.7388,170.224,-1.51653,0.0,0.0
2556,638.75,59.3282,63.1907,142.623,104.97,123.003,0.000571706,0.245298,20.7399,169.904,-1.45275,0.0,0.0
2574,643.25,58.8743,62.7271,142.65,104.951,123.271,0.000377372,0.246193,20.7382,169.584,-1.47426,0.0,0.0
2592,647.75,59.6627,63.2253,146.701,104.967,123.182,0.000880524,0.245683,20.7387,169.213,-1.46626,0.0,0.0
2610,652.25,59.504,62.626,139.113,104.969,123.173,0.000767386,0.245191,20.7392,168.933,-1.46545,0.0,0.0
2628,656.75,59.3873,63.2306,142.794,104.948,121.986,0.000504346,0.245006,20.7393,168.593,-1.37856,0.0,0.0
2646,661.25,59.0692,62.5102,143.612,104.977,121.46,0.000575659,0.245053,20.7405,168.282,-1.33645,0.0,0.0
2664,665.75,59.4485,63.0201,142.948,104.962,122.852,0.000792375,0.244284,20.7407,167.922,-1.44211,0.0,0.0
2682,670.25,58.883,62.5828,142.97,104.96,121.014,0.000774414,0.243604,20.7416,167.622,-1.30418,0.0,0.0
2700,674.75,59.2156,63.0416,144.323,104.954,122.62,0.00083016,0.242414,20.7437,167.272,-1.42546,0.0,0.0
2718,679.25,59.396,62.9647,137.274,104.953,122.004,0.00109181,0.242987,20.743,166.971,-1.37949,0.0,0.0
2736,683.75,59.4214,62.8182,140.112,104.946,122.2,0.000948789,0.242436,20.7438,166.651,-1.39478,0.0,0.0
2754,688.25,59.1472,62.7794,142.924,104.948,122.388,0.000713248,0.242132,20.7441,166.311,-1.40871,0.0,0.0
2772,692.75,59.6264,63.2347,142.26,104.95,122.459,0.000850004,0.240814,20.7458,166.01,-1.41386,0.0,0.0
2790,697.25,59.495,63.3676,145.979,104.904,122.37,0.000725833,0.241271,20.7444,165.7,-1.41116,0.0,0.0
2808,701.75,58.8307,62.5265,146.595,104.866,121.406,0.000880021,0.240716,20.7435,165.39,-1.34206,0.0,0.0
2826,706.25,58.7561,62.6425,140.973,104.794,124.145,0.000967598,0.241891,20.7422,165.06,-1.55281,0.0,0.0
2844,710.75,58.5893,62.2277,145.301,104.69,121.683,0.000802731,0.242073,20.7421,164.749,-1.37834,0.0,0.0
2862,715.25,59.618,63.1396,144.334,104.521,122.923,0.000744512,0.242696,20.7422,164.459,-1.486,0.0,0.0
2880,719.75,59.4124,62.9533,142.991,104.334,122.637,0.000967785,0.241822,20.7429,164.159,-1.4811,0.0,0.0
2898,724.25,59.5625,63.0164,142.535,104.101,123.646,0.00100076,0.2412,20.7436,163.818,-1.5766,0.0,0.0
2916,728.75,59.3662,62.8777,140.248,103.781,123.565,0.000977033,0.240443,20.7451,163.528,-1.59886,0.0,0.0
2934,733.25,60.3944,64.1721,141.257,103.5,122.495,0.000743873,0.242234,20.7444,163.218,-1.544,0.0,0.0
2952,737.75,59.6367,62.9201,148.675,103.202,121.156,0.000837936,0.240918,20.7454,162.908,-1.46979,0.0,0.0
2970,742.25,59.145,62.6657,146.301,102.968,120.452,0.000996987,0.239094,20.7476,162.577,-1.43707,0.0,0.0
2988,746.75,59.235,62.8716,146.01,102.843,117.686,0.000843481,0.236329,20.7499,162.267,-1.23538,0.0,0.0
3006,751.25,59.4187,62.8333,139.707,102.872,121.362,0.000885363,0.237574,20.7501,161.977,-1.51459,0.0,0.0
3024,755.75,59.8508,63.3031,146.669,103.036,121.585,0.00102027,0.235713,20.7518,161.666,-1.51685,0.0,0.0
3042,760.25,58.8607,62.2431,137.06,103.336,121.977,0.000826828,0.236144,20.7527,161.406,-1.51974,0.0,0.0
3060,764.75,59.2202,62.4601,139.799,103.688,123.396,0.000732758,0.234894,20.7518,161.076,-1.59454,0.0,0.0
3078,769.25,59.2878,62.8728,142.434,103.976,122.646,0.000747943,0.234276,20.7532,160.776,-1.51325,0.0,0.0
3096,773.75,59.1366,62.7452,141.849,104.179,122.691,0.000787947,0.231866,20.7556,160.465,-1.49873,0.0,0.0
3114,778.25,59.3593,63,142.871,104.234,123.369,0.000837904,0.231765,20.7564,160.195,-1.54438,0.0,0.0
3132,782.75,59.3414,62.9763,143.204,104.171,122.209,0.000904181,0.232741,20.7547,159.885,-1.46339,0.0,0.0
3150,787.25,59.366,62.8525,140.8125,104.031,123.092,0.000830521,0.231099,20.7555,159.545,-1.54173,0.0,0.0
3168,791.75,59.0374,62.6801,144.354,103.854,122.637,0.000693896,0.230438,20.7545,159.284,-1.52334,0.0,0.0
3186,796.25,59.247,62.9451,145.865,103.754,121.531,0.000728492,0.230416,20.7546,158.994,-1.4492,0.0,0.0
3204,800.75,59.0314,62.4038,144.599,104.238,123.351,0.000756735,0.230241,20.7543,158.704,-1.54275,0.0,0.0
3222,805.25,59.1732,62.8864,141.768,104.593,122.771,0.000821324,0.229416,20.7558,158.373,-1.46839,0.0,0.0
3240,809.75,58.9553,62.5393,140.048,104.585,125.082,0.000801828,0.227736,20.7565,158.073,-1.63996,0.0,0.0
3258,814.25,58.9038,62.5158,138.547,104.223,123.762,0.000787727,0.228563,20.7565,157.813,-1.57446,0.0,0.0
3276,818.75,58.5038,61.9767,145.542,104.251,122.637,0.00074138,0.228072,20.7579,157.503,-1.48846,0.0,0.0
3294,823.25,59.0898,62.6356,144.055,104.595,125.046,0.000759119,0.227762,20.7608,157.212,-1.63645,0.0,0.0
3312,827.75,59.0777,62.5104,147.532,104.885,124.565,0.000822421,0.227522,20.7614,156.932,-1.57572,0.0,0.0
3330,832.25,59.0452,62.494,142.458,104.964,126.581,0.000753438,0.228995,20.7598,156.622,-1.71595,0.0,0.0
3348,836.75,58.6753,62.3361,141.709,104.755,125.671,0.000717684,0.228157,20.7596,156.312,-1.66811,0.0,0.0
3366,841.25,59.0214,62.5482,144.312,104.319,124.324,0.000607986,0.228317,20.7596,156.041,-1.60761,0.0,0.0
3384,845.75,59.5439,62.6074,146.216,103.73,121.781,0.00080516,0.229077,20.7585,155.721,-1.47008,0.0,0.0
3402,850.25,57.5762,61.1532,143.785,103.176,120.746,0.00109068,0.229016,20.7584,155.421,-1.441,0.0,0.0
3420,854.75,58.9969,62.6307,142.755,102.925,122.12,0.000836425,0.22847,20.7592,155.151,-1.56698,0.0,0.0
3438,859.25,58.8876,62.3689,141.835,102.975,121.629,0.000682729,0.227734,20.76,154.86,-1.52566,0.0,0.0
3456,863.75,59.1045,62.7177,140.189,103.355,122.673,0.000776121,0.228829,20.7603,154.54,-1.57022,0.0,0.0
3474,868.25,58.8382,62.117,140.473,103.843,122.102,0.00109349,0.227706,20.7615,154.25,-1.48427,0.0,0.0
3492,872.75,58.7135,62.3284,140.05,104.193,123.458,0.000801982,0.22771,20.7619,154,-1.55463,0.0,0.0
3510,877.25,58.9308,62.4179,138.546,104.251,123.012,0.000707924,0.227286,20.7626,153.709,-1.51637,0.0,0.0
3528,881.75,58.9802,62.5202,146.232,104.042,122.165,0.000556179,0.226427,20.7619,153.419,-1.47142,0.0,0.0
3546,886.25,58.7792,62.5397,143.095,103.775,124.19,0.000565838,0.227415,20.7608,153.139,-1.64566,0.0,0.0
3564,890.75,58.8517,62.2551,143.48,104.159,122.78,0.000604582,0.227778,20.7589,152.838,-1.50715,0.0,0.0
3582,895.25,58.7934,62.3689,140.315,104.61,121.683,0.000953959,0.228556,20.7586,152.538,-1.3853,0.0,0.0
3600,899.75,59.106,62.6416,144.312,104.39,123.592,0.000815011,0.226629,20.76,152.268,-1.54723,0.0,0.0
3618,904.25,58.9103,62.5181,141.16,104.226,123.77,0.000498863,0.226118,20.7607,151.978,-1.57489,0.0,0.0
3636,908.75,58.9169,62.5069,143.044,104.676,122.968,0.000654571,0.225698,20.7608,151.707,-1.47577,0.0,0.0
3654,913.25,58.6922,62.3162,141.171,104.958,124.725,0.000774044,0.225655,20.7596,151.407,-1.58114,0.0,0.0
3672,917.75,58.5967,61.9886,144.751,104.859,122.182,0.000740836,0.227313,20.7578,151.147,-1.40105,0.0,0.0
3690,922.25,58.7568,62.1486,143.743,104.305,122.994,0.000722914,0.228509,20.7582,150.857,-1.51026,0.0,0.0
3708,926.75,58.8245,62.3132,141.914,103.587,121.942,0.000708296,0.227412,20.7583,150.576,-1.49482,0.0,0.0
3726,931.25,59.1147,62.2225,145.089,103.038,121.299,0.000609366,0.227812,20.7577,150.296,-1.49512,0.0,0.0
3744,935.75,59.0126,62.5732,141.693,102.994,120.889,0.000432843,0.227282,20.7575,149.996,-1.468,0.0,0.0
3762,940.25,59.1852,62.2268,147.229,103.461,122.227,0.000688779,0.228475,20.7564,149.706,-1.52742,0.0,0.0
3780,944.75,59.1993,62.7596,139.786,104.006,120.871,0.000568663,0.227435,20.7578,149.415,-1.37701,0.0,0.0
3798,949.25,59.1219,62.9216,141.09,104.298,122.075,0.000599368,0.227824,20.7569,149.165,-1.44222,0.0,0.0
3816,953.75,56.986,60.7168,145.004,104.098,122.12,0.00085113,0.22931,20.7554,148.845,-1.46317,0.0,0.0
3834,958.25,59.0229,62.206,145.784,103.768,121.451,0.000794948,0.228733,20.7562,148.535,-1.4419,0.0,0.0
3852,962.75,59.3051,62.9109,139.416,104.373,122.62,0.000718143,0.229933,20.7564,148.294,-1.47641,0.0,0.0
3870,967.25,58.7561,62.364,148.778,104.576,122.281,0.000916589,0.230444,20.7563,148.004,-1.43318,0.0,0.0
3888,971.75,58.4677,62.2257,139.591,104.164,123.431,0.000882825,0.231339,20.7562,147.734,-1.55518,0.0,0.0
3906,976.25,58.8337,62.4823,142.585,104.696,121.897,0.0006339,0.231206,20.7561,147.464,-1.39393,0.0,0.0
3924,980.75,58.454,62.1412,142.914,104.985,123.922,0.000421989,0.23149,20.7557,147.153,-1.51966,0.0,0.0
3942,985.25,59.038,62.7086,143.859,104.667,122.138,0.000521416,0.232231,20.7532,146.883,-1.41455,0.0,0.0
3960,989.75,59.0871,62.7489,144.397,103.845,122.477,0.000481426,0.232849,20.7539,146.603,-1.51216,0.0,0.0
3978,994.25,59.3096,62.864,145.075,103.106,121.388,0.000503911,0.231349,20.7542,146.273,-1.49578,0.0,0.0
3996,998.75,58.9503,62.8371,140.177,103.064,121.924,0.000490469,0.233235,20.7523,146.012,-1.53984,0.0,0.0
4014,1003.25,59.2051,63.0681,140.5,103.622,121.558,0.00066986,0.23318,20.7523,145.712,-1.46282,0.0,0.0
4032,1007.75,59.2845,63.0945,140.355,104.204,121.79,0.000885125,0.233966,20.7528,145.422,-1.42902,0.0,0.0
4050,1012.25,59.5482,63.252,139.633,104.256,124.788,0.000955606,0.233599,20.7526,145.161,-1.64727,0.0,0.0
4068,1016.75,59.7939,63.4725,140.852,103.867,122.682,0.000776564,0.234702,20.7527,144.881,-1.52559,0.0,0.0
4086,1021.25,59.366,62.8188,139.208,104.106,121.977,0.000770321,0.234258,20.7542,144.601,-1.45174,0.0,0.0
4104,1025.75,59.4387,63.1866,138.186,104.581,125.225,0.000736891,0.235348,20.7528,144.321,-1.65075,0.0,0.0
4122,1030.25,59.5552,63.4204,142.063,104.109,120.639,0.00057156,0.235014,20.752,144.01,-1.35035,0.0,0.0
4140,1034.75,59.6131,63.2532,140.827,104.625,123.726,0.000687191,0.234666,20.7519,143.71,-1.53657,0.0,0.0
4158,1039.25,59.5806,63.5236,138.81,104.993,124.333,0.000749124,0.234589,20.7535,143.43,-1.54921,0.0,0.0
4176,1043.75,59.8162,63.724,141.198,104.727,123.762,0.00099258,0.234766,20.7527,143.12,-1.53028,0.0,0.0
4194,1048.25,59.7657,63.3898,141.677,103.957,121.308,0.00101343,0.23571,20.752,142.809,-1.4144,0.0,0.0
4212,1052.75,59.9294,63.6546,142.327,103.214,121.701,0.00103394,0.236687,20.7502,142.559,-1.50973,0.0,0.0
4230,1057.25,60.3188,64.1873,141.319,103.046,121.478,0.00054523,0.237569,20.7495,142.209,-1.50791,0.0,0.0
4248,1061.75,59.9011,63.3753,142.509,103.492,120.327,0.000392085,0.235245,20.7522,141.969,-1.38112,0.0,0.0
4266,1066.25,60.2823,63.975,142.997,104.085,123.44,0.000484065,0.235909,20.7513,141.658,-1.56284,0.0,0.0
4284,1070.75,59.9202,64.0451,142.728,104.353,122.789,0.000810904,0.234362,20.7513,141.358,-1.49074,0.0,0.0
4302,1075.25,60.2263,64.1583,138.669,104.176,122.718,0.000896667,0.237151,20.7488,141.048,-1.50099,0.0,0.0
4320,1079.75,60.3409,63.9352,142.608,103.836,121.647,0.000942869,0.237387,20.7478,140.747,-1.45066,0.0,0.0
4338,1084.25,59.4638,63.5813,141.69,103.988,122.245,0.000924074,0.236703,20.7482,140.467,-1.48219,0.0,0.0
4356,1088.75,60.3728,63.8126,146.457,104.532,123.869,0.000748255,0.236219,20.7489,140.167,-1.55529,0.0,0.0
4374,1093.25,60.2697,63.6627,139.187,104.496,121.487,0.000898855,0.235803,20.7491,139.877,-1.38052,0.0,0.0
4392,1097.75,60.2056,64.0186,145.872,104.108,121.62,0.000795339,0.236715,20.7482,139.586,-1.4247,0.0,0.0
4410,1102.25,60.3434,64.2018,141.779,104.415,122.655,0.000601441,0.236523,20.7474,139.296,-1.47534,0.0,0.0
4428,1106.75,60.5513,64.2819,143.65,104.73,122.254,0.000673909,0.236789,20.7476,138.986,-1.41766,0.0,0.0
4446,1111.25,60.4667,64.0945,141.581,104.966,124.002,0.000722495,0.235177,20.7515,138.696,-1.52722,0.0,0.0
4464,1115.75,60.6889,64.2562,142.854,104.987,124.154,0.000863532,0.235418,20.7499,138.415,-1.53661,0.0,0.0
4482,1120.25,60.2753,63.9369,144.124,104.881,122.111,0.000860712,0.23816,20.7476,138.115,-1.39384,0.0,0.0
4500,1124.75,60.3396,64.3711,140.643,104.611,122.423,0.000929908,0.237997,20.7485,137.835,-1.44085,0.0,0.0
4518,1129.25,60.3754,64.0457,142.789,104.293,121.897,0.000822754,0.236962,20.7488,137.525,-1.42922,0.0,0.0
4536,1133.75,60.7359,64.1534,144.389,103.94,120.425,0.000560089,0.237581,20.747,137.254,-1.34894,0.0,0.0
4554,1138.25,60.2513,64.0276,140.23,103.6,120.237,0.000718982,0.237257,20.7466,136.934,-1.36469,0.0,0.0
4572,1142.75,60.7399,64.1178,140.394,103.343,120.684,0.000961286,0.238859,20.7467,136.654,-1.4214,0.0,0.0
4590,1147.25,60.4524,64.246,143.21,103.138,119.97,0.00087748,0.238008,20.7471,136.394,-1.38523,0.0,0.0
4608,1151.75,60.5262,64.2404,144.037,103.083,117.579,0.000704212,0.238794,20.7455,136.103,-1.20571,0.0,0.0
4626,1156.25,60.005,63.6608,143.369,103.105,119.622,0.000697955,0.240371,20.7441,135.793,-1.36156,0.0,0.0
4644,1160.75,60.2984,64.0378,142.289,103.201,119.89,0.000667738,0.240904,20.7443,135.503,-1.37355,0.0,0.0
4662,1165.25,60.8594,64.2972,144.479,103.322,121.299,0.000767264,0.240657,20.7428,135.223,-1.46995,0.0,0.0
4680,1169.75,60.7465,64.3005,144.268,103.5,119.667,0.000720596,0.24055,20.7406,134.942,-1.32991,0.0,0.0
4698,1174.25,60.5727,64.2591,145.292,103.661,119.372,0.000718682,0.243223,20.7377,134.652,-1.29317,0.0,0.0
4716,1178.75,60.4188,64.2463,142.018,103.806,119.31,0.000776221,0.242878,20.7377,134.362,-1.27549,0.0,0.0
4734,1183.25,60.1968,64.3358,141.447,103.957,120.255,0.000743115,0.244426,20.7379,134.041,-1.3346,0.0,0.0
4752,1187.75,60.5307,64.2595,142.602,104.084,120.13,0.000923574,0.244818,20.7381,133.761,-1.31389,0.0,0.0
4770,1192.25,59.9774,64.2517,146.483,104.208,120.3,0.00101056,0.24477,20.7372,133.491,-1.31585,0.0,0.0
4788,1196.75,60.5354,64.6975,142.824,104.29,118.774,0.000903609,0.245334,20.7364,133.201,-1.19169,0.0,0.0
4806,1201.25,60.7803,64.5016,144.079,104.348,120.88,0.000742115,0.245337,20.7362,132.89,-1.34767,0.0,0.0
4824,1205.75,60.3918,64.3926,139.629,104.391,120.541,0.000750758,0.247007,20.7339,132.58,-1.31809,0.0,0.0
4842,1210.25,60.6382,64.3213,141.57,104.379,120.148,0.00079191,0.246952,20.735,132.31,-1.28924,0.0,0.0
4860,1214.75,60.4408,64.3297,138.456,104.373,119.194,0.000812661,0.247368,20.7347,132.03,-1.2167,0.0,0.0
4878,1219.25,61.2403,64.8995,142.467,104.305,119.8,0.000655425,0.248516,20.7327,131.719,-1.26916,0.0,0.0
4896,1223.75,60.7058,64.7075,143.992,104.241,118.783,0.000628862,0.248097,20.7323,131.409,-1.19671,0.0,0.0
4914,1228.25,60.8548,64.7067,136.979,104.117,119.229,0.000713771,0.247917,20.7323,131.139,-1.24194,0.0,0.0
4932,1232.75,60.6987,64.1865,146.714,104.021,118.587,0.0010251,0.249187,20.7315,130.809,-1.20093,0.0,0.0
4950,1237.25,60.8429,64.5511,140.04,103.899,120.122,0.000997531,0.250291,20.7302,130.548,-1.32946,0.0,0.0
4968,1241.75,60.5655,64.6189,141.374,103.826,120.737,0.000978914,0.249738,20.7285,130.228,-1.38271,0.0,0.0
4986,1246.25,60.403,64.4786,139.612,103.754,120.273,0.00102248,0.251198,20.7271,129.918,-1.35381,0.0,0.0
5004,1250.75,60.4786,64.2969,137.047,103.703,119.551,0.00096722,0.251412,20.7268,129.627,-1.30313,0.0,0.0
5022,1255.25,61.0546,64.7934,142.886,103.901,120.014,0.000679357,0.252493,20.7268,129.347,-1.3211,0.0,0.0
5040,1259.75,61.3931,65.2871,142.129,104.11,120.3,0.000569136,0.25213,20.7279,129.057,-1.32449,0.0,0.0
5058,1264.25,60.5842,64.7139,140.049,104.316,118.855,0.00048488,0.253475,20.727,128.747,-1.1956,0.0,0.0
5076,1268.75,61.3193,64.8272,147.838,104.435,119.256,0.000610764,0.253249,20.7272,128.466,-1.21606,0.0,0.0
5094,1273.25,61.5034,65.4413,141.274,104.54,122.165,0.000510946,0.254285,20.7272,128.156,-1.42765,0.0,0.0
5112,1277.75,61.4726,65.3092,143.244,104.565,120.612,0.000896785,0.254745,20.7264,127.856,-1.3083,0.0,0.0
5130,1282.25,61.2714,64.9893,139.94,104.557,120.969,0.00108099,0.253968,20.726,127.576,-1.33601,0.0,0.0
5148,1286.75,61.3569,65.3815,141.115,104.522,119.97,0.000830536,0.254004,20.7278,127.275,-1.26309,0.0,0.0
5166,1291.25,61.0494,65.2475,139.911,104.418,121.986,0.000944431,0.252851,20.7268,126.955,-1.42495,0.0,0.0
5184,1295.75,61.5345,65.4313,145.784,104.278,119.283,0.00077432,0.254949,20.7239,126.675,-1.23192,0.0,0.0
5202,1300.25,61.4326,64.8303,140.332,104.094,120.951,0.000697948,0.256733,20.7215,126.334,-1.37538,0.0,0.0
5220,1304.75,61.3355,65.6198,141.961,104.168,120.139,0.000706539,0.257766,20.7209,126.044,-1.30712,0.0,0.0
5238,1309.25,61.6118,65.451,137.917,104.267,119.988,0.000599645,0.257155,20.7225,125.764,-1.28688,0.0,0.0
5256,1313.75,61.2537,65.4738,139.981,104.391,121.049,0.000754302,0.257813,20.7225,125.434,-1.35666,0.0,0.0
5274,1318.25,62.0356,65.5884,140.778,104.489,121.362,0.000974014,0.260079,20.7192,125.153,-1.37173,0.0,0.0
5292,1322.75,61.5999,65.3628,139.693,104.567,121.95,0.00115019,0.261935,20.7171,124.833,-1.40923,0.0,0.0
5310,1327.25,61.4665,65.5936,145.423,104.662,120.862,0.00112189,0.262082,20.7161,124.523,-1.31877,0.0,0.0
5328,1331.75,61.8232,65.5787,144.694,104.739,122.227,0.00106964,0.263143,20.7146,124.223,-1.41491,0.0,0.0
5346,1336.25,62.3322,65.5101,139.478,104.838,123.146,0.00110239,0.264183,20.7129,123.892,-1.47485,0.0,0.0
5364,1340.75,62.2233,65.9856,142.595,104.88,121.585,0.00108347,0.266627,20.7099,123.562,-1.35429,0.0,0.0
5382,1345.25,61.9407,66.0541,141.69,104.931,122.459,0.000704807,0.26571,20.7111,123.272,-1.4155,0.0,0.0
5400,1349.75,61.9186,66.4651,140.168,104.954,120.853,0.000827549,0.264936,20.7116,122.951,-1.29253,0.0,0.0
5418,1354.25,62.4281,66.7129,142.048,104.99,122.753,0.000839207,0.267672,20.708,122.641,-1.43234,0.0,0.0
5436,1358.75,62.4042,66.586,137.704,104.997,121.388,0.00097167,0.267638,20.7092,122.341,-1.32928,0.0,0.0
5454,1363.25,62.5278,66.432,142.579,105.016,122.976,0.00105345,0.268809,20.7094,122.031,-1.44671,0.0,0.0
5472,1367.75,62.4272,66.1776,144.465,105.036,120.505,0.00105166,0.269087,20.7074,121.71,-1.25899,0.0,0.0
5490,1372.25,62.8259,66.5245,137.604,105.016,120.719,0.00107032,0.271434,20.7035,121.42,-1.277,0.0,0.0
5508,1376.75,62.4748,66.7886,141.898,105.038,121.174,0.0011974,0.271226,20.7052,121.12,-1.30954,0.0,0.0
5526,1381.25,63.2163,66.721,137.792,105.021,121.576,0.00106283,0.271418,20.7056,120.789,-1.3413,0.0,0.0
5544,1385.75,62.9054,66.4292,139.725,105.011,122.093,0.000928764,0.273121,20.7044,120.469,-1.38111,0.0,0.0
5562,1390.25,63.4501,67.1614,139.031,104.996,121.54,0.000775754,0.275881,20.7005,120.109,-1.34083,0.0,0.0
5580,1394.75,62.9129,66.8667,143.217,105.003,120.603,0.000732242,0.275366,20.7024,119.819,-1.26926,0.0,0.0
5598,1399.25,63.3514,67.0406,139.802,104.999,121.727,0.00098149,0.273858,20.7024,119.488,-1.35469,0.0,0.0
5616,1403.75,63.6344,67.4584,139.91,104.996,122.388,0.000889095,0.27531,20.6992,119.158,-1.40451,0.0,0.0
5634,1408.25,63.6996,67.0879,138.525,105,123.128,0.000593147,0.276237,20.6981,118.828,-1.45942,0.0,0.0
5652,1412.75,63.8448,67.4941,139.478,104.986,120.55,0.000482857,0.276579,20.6959,118.517,-1.26675,0.0,0.0
5670,1417.25,63.7631,67.5973,139.359,105.014,123.414,0.000951863,0.278883,20.6942,118.207,-1.47945,0.0,0.0
5688,1421.75,63.2059,67.8111,137.194,105.017,121.049,0.00104593,0.279445,20.6934,117.857,-1.30187,0.0,0.0
5706,1426.25,63.3746,67.426,138.694,105.014,123.128,0.00114568,0.279693,20.6933,117.566,-1.45819,0.0,0.0
5724,1430.75,63.5321,67.7009,141.532,105.016,121.451,0.000867294,0.27994,20.6932,117.266,-1.33236,0.0,0.0
5742,1435.25,63.5357,67.8175,140.135,105.016,120.318,0.000651538,0.278732,20.6925,116.976,-1.24647,0.0,0.0
5760,1439.75,63.735,67.9169,145.352,105.031,121.727,0.00104658,0.282834,20.6888,116.626,-1.35191,0.0,0.0
5778,1444.25,64.0896,67.6975,143.073,105.023,122.218,0.00106208,0.282087,20.6901,116.365,-1.3894,0.0,0.0
5796,1448.75,63.8372,67.8798,142.473,105.026,120.924,0.00108561,0.282952,20.6926,115.935,-1.29167,0.0,0.0
5814,1453.25,64.0357,67.6479,139.4,105.007,122.058,0.00116037,0.285546,20.6886,115.585,-1.37876,0.0,0.0
5832,1457.75,63.9386,67.8637,140.758,105.01,121.255,0.00140379,0.288957,20.6822,115.294,-1.31806,0.0,0.0
5850,1462.25,64.0054,68.2207,140.429,104.997,122.86,0.00130284,0.289975,20.6791,114.954,-1.43974,0.0,0.0
5868,1466.75,64.1017,68.157,135.812,105.002,122.37,0.00133247,0.294226,20.6754,114.614,-1.40266,0.0,0.0
5886,1471.25,64.2692,68.6915,137.064,104.977,122.316,0.00115723,0.295689,20.6729,114.243,-1.4008,0.0,0.0
5904,1475.75,64.3798,68.677,139.636,104.972,122.504,0.00127905,0.296867,20.6709,113.913,-1.41523,0.0,0.0
5922,1480.25,65.0606,68.7455,141.683,104.943,123.77,0.00122032,0.297686,20.6683,113.573,-1.51211,0.0,0.0
5940,1484.75,64.7549,68.6278,139.072,104.896,120.264,0.00118776,0.300415,20.6658,113.213,-1.25286,0.0,0.0
5958,1489.25,65.4056,68.5608,135.914,104.873,121.344,0.00133755,0.301809,20.6633,112.872,-1.33675,0.0,0.0
5976,1493.75,65.2931,69.2963,139.171,104.817,120.461,0.00133244,0.305306,20.6622,112.522,-1.27471,0.0,0.0
5994,1498.25,65.1182,69.3546,135.058,104.782,119.488,0.00139438,0.30571,20.6632,112.192,-1.20348,0.0,0.0
6012,1502.75,65.295,69.3802,140.316,104.754,120.327,0.00142963,0.305924,20.6628,111.781,-1.26999,0.0,0.0
6030,1507.25,65.1131,69.4404,142.199,104.714,121.246,0.00128663,0.308376,20.6599,111.461,-1.34324,0.0,0.0
6048,1511.75,65.524,69.6838,139.679,104.672,121.495,0.00134397,0.31054,20.6563,111.081,-1.36578,0.0,0.0
6066,1516.25,66.2083,70.3002,139.839,104.617,120.3,0.00148537,0.311012,20.654,110.74,-1.27993,0.0,0.0
6084,1520.75,66.1514,70.0673,137.37,104.55,121.201,0.00160493,0.312041,20.6523,110.36,-1.35419,0.0,0.0
6102,1525.25,66.1552,70.5346,137.669,104.479,119.791,0.00119069,0.314155,20.6512,109.98,-1.25322,0.0,0.0
6120,1529.75,65.9835,70.3689,135.17,104.416,121.638,0.00125596,0.315457,20.6488,109.589,-1.39893,0.0,0.0
6138,1534.25,65.9136,70.1786,139.248,104.346,122.513,0.00141082,0.317804,20.6477,109.259,-1.47072,0.0,0.0
6156,1538.75,66.6269,71.0647,139.837,104.281,121.915,0.00151862,0.319628,20.6468,108.899,-1.43165,0.0,0.0
6174,1543.25,66.6169,70.7687,144.026,104.206,119.979,0.00144567,0.321328,20.6451,108.488,-1.2915,0.0,0.0
6192,1547.75,66.66,71.1462,136.898,104.129,121.005,0.00130026,0.323992,20.6425,108.108,-1.37637,0.0,0.0
6210,1552.25,67.0786,71.4765,140.473,104.131,121.799,0.00141301,0.325473,20.6395,107.708,-1.43612,0.0,0.0
6228,1556.75,66.9723,71.5315,142.855,104.268,121.433,0.00145372,0.324591,20.6408,107.327,-1.39652,0.0,0.0
6246,1561.25,66.8811,71.593,137.289,104.396,120.871,0.00158189,0.326157,20.6404,106.937,-1.34274,0.0,0.0
6264,1565.75,66.7429,71.8083,138.033,104.473,121.085,0.00183181,0.328885,20.6383,106.557,-1.35217,0.0,0.0
6282,1570.25,66.9795,71.7132,138.765,104.558,121.79,0.00187926,0.329604,20.6355,106.176,-1.39794,0.0,0.0
6300,1574.75,67.2377,71.5709,133.916,104.561,120.773,0.00164039,0.332391,20.6325,105.786,-1.32083,0.0,0.0
6318,1579.25,67.5722,71.9346,136.231,104.562,119.64,0.00152475,0.335282,20.6281,105.405,-1.23434,0.0,0.0
6336,1583.75,67.3649,72.8433,136.668,104.526,121.201,0.00152141,0.337816,20.6239,104.995,-1.35628,0.0,0.0
6354,1588.25,68.1862,72.431,137.53,104.44,120.416,0.00202432,0.338895,20.6215,104.575,-1.3043,0.0,0.0
6372,1592.75,67.8483,72.6946,135.821,104.337,123.048,0.00216386,0.342916,20.6176,104.184,-1.51149,0.0,0.0
6390,1597.25,68.7213,73.1287,139.529,104.17,119.952,0.00193515,0.345359,20.6139,103.824,-1.29267,0.0,0.0
6408,1601.75,68.1008,72.828,141.396,103.998,119.711,0.00188925,0.345965,20.6113,103.374,-1.28941,0.0,0.0
6426,1606.25,69.2748,73.066,140.311,103.82,119.443,0.0016908,0.348521,20.6065,102.963,-1.2846,0.0,0.0
6444,1610.75,69.0636,73.5866,139.439,103.722,120.086,0.00143776,0.352192,20.6016,102.543,-1.34234,0.0,0.0
6462,1615.25,68.9481,73.9991,136.795,103.762,120.237,0.00156038,0.355362,20.5974,102.153,-1.35038,0.0,0.0
6480,1619.75,68.9906,74.3509,141.024,103.826,120.059,0.00165097,0.360768,20.591,101.702,-1.33111,0.0,0.0
6498,1624.25,69.6482,74.3338,138.958,103.894,121.13,0.00178871,0.360884,20.5895,101.292,-1.4065,0.0,0.0
6516,1628.75,69.6079,74.1453,137.359,103.961,121.014,0.00171371,0.360695,20.5897,100.861,-1.39183,0.0,0.0
6534,1633.25,69.2592,74.175,135.855,104.087,119.078,0.00181553,0.360557,20.5883,100.441,-1.23293,0.0,0.0
6552,1637.75,69.961,74.8987,136.069,104.163,121.21,0.00165058,0.35876,20.5905,100.031,-1.38883,0.0,0.0
6570,1642.25,70.2085,74.5919,139.163,104.269,120.22,0.00155005,0.357302,20.592,99.6303,-1.30439,0.0,0.0
6588,1646.75,70.563,74.6647,136.613,104.308,121.219,0.0016629,0.356497,20.5922,99.2399,-1.37684,0.0,0.0
6606,1651.25,70.2674,74.9762,134.205,104.368,120.398,0.00175865,0.352448,20.595,98.8195,-1.30924,0.0,0.0
6624,1655.75,70.6076,75.2182,135.868,104.395,121.112,0.0015684,0.349851,20.5965,98.4192,-1.36105,0.0,0.0
6642,1660.25,70.4141,75.2417,130.697,104.389,119.729,0.00158435,0.349316,20.5985,97.9988,-1.25635,0.0,0.0
6660,1664.75,70.1545,75.3473,135.994,104.372,120.291,0.00162643,0.344293,20.602,97.6385,-1.30079,0.0,0.0
6678,1669.25,70.3114,74.8018,136.072,104.316,121.736,0.00162193,0.340998,20.6055,97.2481,-1.41516,0.0,0.0
6696,1673.75,70.4196,74.863,135.371,104.253,120.184,0.00170181,0.338122,20.609,96.8978,-1.30309,0.0,0.0
6714,1678.25,70.2205,74.8546,136.886,104.146,121.968,0.00197633,0.334261,20.6155,96.5174,-1.44748,0.0,0.0
6732,1682.75,70.076,75.0796,137.749,104.04,121.362,0.0020498,0.334278,20.6166,96.1471,-1.41118,0.0,0.0
6750,1687.25,70.3988,74.6414,142.94,103.899,121.504,0.00186393,0.329825,20.621,95.7668,-1.43435,0.0,0.0
6768,1691.75,70.1362,75.0401,134.755,103.774,120.416,0.00176771,0.326541,20.6251,95.4765,-1.36296,0.0,0.0
6786,1696.25,69.5063,74.8019,137.611,103.656,120.978,0.00187081,0.321461,20.6307,95.1162,-1.41603,0.0,0.0
6804,1700.75,69.3788,74.1508,135.687,103.523,117.989,0.0023933,0.319548,20.6318,94.7358,-1.19861,0.0,0.0
6822,1705.25,69.2051,73.9773,141.841,103.419,120.157,0.00229814,0.318645,20.632,94.4255,-1.37464,0.0,0.0
6840,1709.75,69.372,73.977,140.795,103.322,117.356,0.0021611,0.315976,20.6351,94.1153,-1.16702,0.0,0.0
6858,1714.25,69.045,73.9346,140.431,103.237,119.551,0.00226683,0.314299,20.6364,93.795,-1.34443,0.0,0.0
6876,1718.75,69.1785,73.546,137.737,103.16,120.407,0.00228643,0.310771,20.6398,93.4847,-1.41663,0.0,0.0
6894,1723.25,68.6309,73.4033,138.449,103.123,118.257,0.0023404,0.305282,20.647,93.1644,-1.25485,0.0,0.0
6912,1727.75,68.7166,73.3248,140.739,103.095,119.292,0.00254429,0.301561,20.6529,92.8341,-1.33714,0.0,0.0
6930,1732.25,68.1955,72.7542,138.911,103.085,118.756,0.00260081,0.297359,20.6576,92.5739,-1.2968,0.0,0.0
6948,1736.75,67.4833,72.7769,140.763,103.115,118.426,0.00261545,0.293292,20.6612,92.2836,-1.26869,0.0,0.0
6966,1741.25,67.5815,72.7065,141.17,103.149,118.828,0.00313362,0.28922,20.6662,91.9933,-1.2966,0.0,0.0
6984,1745.75,67.6633,72.2838,143.873,103.209,116.758,0.00279356,0.283133,20.673,91.7431,-1.13026,0.0,0.0
7002,1750.25,67.3059,71.5394,136.937,103.26,117.231,0.00268435,0.276774,20.6819,91.4829,-1.16281,0.0,0.0
7020,1754.75,66.9809,71.4141,144.769,103.362,118.587,0.00261056,0.270044,20.6873,91.2327,-1.25915,0.0,0.0
7038,1759.25,66.2596,70.8369,142.081,103.454,117.079,0.00260621,0.265098,20.6922,91.0124,-1.13372,0.0,0.0
7056,1763.75,66.0552,70.762,140.018,103.567,118.596,0.00265843,0.255305,20.7022,90.7922,-1.24166,0.0,0.0
7074,1768.25,65.9336,69.9026,141.047,103.689,118.426,0.0029759,0.245723,20.7106,90.5821,-1.21776,0.0,0.0
7092,1772.75,65.2697,68.8327,141.277,103.826,118.819,0.00368596,0.236941,20.7199,90.4219,-1.23604,0.0,0.0
7110,1777.25,64.5729,68.6881,140.577,103.958,120.585,0.0040467,0.228543,20.73,90.2518,-1.35961,0.0,0.0
7128,1781.75,63.7888,68.3654,142.298,104.072,117.427,0.00433768,0.222858,20.7358,90.0816,-1.10638,0.0,0.0
7146,1786.25,63.0189,68.0057,145.056,104.189,118.078,0.00483185,0.2206,20.7399,89.9215,-1.14677,0.0,0.0
7164,1790.75,63.2705,67.0319,141.045,104.287,119.961,0.00509352,0.214605,20.745,89.7913,-1.28308,0.0,0.0
7182,1795.25,62.8771,66.4394,143.259,104.408,119.711,0.00537274,0.210243,20.7495,89.6512,-1.2533,0.0,0.0
7200,1799.75,62.1834,66.4906,144.169,104.495,119.336,0.00516506,0.208161,20.7522,89.5211,-1.21693,0.0,0.0
7218,1804.25,62.1363,66.5346,142.65,104.597,119.301,0.00529748,0.206448,20.7554,89.381,-1.20525,0.0,0.0
7236,1808.75,60.767,65.271,143.743,104.691,119.658,0.00558941,0.204128,20.7578,89.2208,-1.22447,0.0,0.0
7254,1813.25,60.6032,64.6538,143.098,104.769,120.514,0.00543967,0.201482,20.7606,89.0807,-1.28298,0.0,0.0
7272,1817.75,60.1231,64.5665,146.79,104.861,119.238,0.00521561,0.198909,20.7648,88.9806,-1.17736,0.0,0.0
7290,1822.25,60.2978,63.7923,148.128,104.898,119.952,0.00544871,0.197984,20.767,88.8705,-1.22881,0.0,0.0
7308,1826.75,60.2366,63.5667,141.762,104.979,120.559,0.00550802,0.195389,20.7684,88.7404,-1.26803,0.0,0.0
7326,1831.25,59.6937,63.2052,140.602,104.997,119.149,0.00579597,0.195606,20.7675,88.6203,-1.15869,0.0,0.0
7344,1835.75,59.7761,62.9071,142.125,105.012,119.06,0.00614748,0.193797,20.7671,88.5002,-1.15046,0.0,0.0
7362,1840.25,59.1019,62.3453,142.419,105.009,119.247,0.00621588,0.190648,20.7733,88.4101,-1.16513,0.0,0.0
7380,1844.75,59.1484,62.4341,143.154,105.002,120.648,0.00606721,0.188169,20.7765,88.31,-1.2728,0.0,0.0
7398,1849.25,58.389,61.4392,143.898,104.984,119.238,0.00611722,0.18671,20.7789,88.1799,-1.16663,0.0,0.0
7416,1853.75,57.3243,61.2109,139.795,104.95,119.631,0.00613632,0.186394,20.778,88.0898,-1.19975,0.0,0.0
7434,1858.25,57.9291,61.0343,141.682,104.915,120.13,0.00629069,0.186256,20.7789,87.9697,-1.24095,0.0,0.0
7452,1862.75,57.7846,60.8547,145.828,104.848,118.248,0.00637999,0.183704,20.7795,87.8596,-1.10209,0.0,0.0
7470,1867.25,57.6747,61.1582,147.252,104.816,119.158,0.0065835,0.183254,20.7802,87.7795,-1.17512,0.0,0.0
7488,1871.75,56.944,60.2308,143.908,104.741,118.078,0.00622235,0.181288,20.7838,87.6594,-1.09834,0.0,0.0
7506,1876.25,55.957,59.9541,146.612,104.679,117.971,0.00626358,0.178337,20.7874,87.5993,-1.09542,0.0,0.0
7524,1880.75,56.6109,59.8145,144.341,104.611,118.926,0.00673121,0.180625,20.7867,87.4893,-1.17523,0.0,0.0
7542,1885.25,56.5477,59.7121,145.836,104.532,117.374,0.00664486,0.177561,20.7894,87.4192,-1.06172,0.0,0.0
7560,1889.75,56.3574,59.2337,145.708,104.48,118.444,0.00668459,0.178049,20.7903,87.2991,-1.14955,0.0,0.0
7578,1894.25,56.3125,59.3317,143.25,104.405,118.391,0.00683071,0.175785,20.7924,87.229,-1.15193,0.0,0.0
7596,1898.75,55.6565,59.2472,148.222,104.362,118.025,0.0069929,0.176203,20.793,87.1489,-1.12734,0.0,0.0
7614,1903.25,56.2263,58.8057,146.98,104.288,117.507,0.00680728,0.174267,20.7961,87.0589,-1.09357,0.0,0.0
7632,1907.75,55.8987,58.6611,141.852,104.239,118.417,0.00653803,0.173798,20.7977,86.9488,-1.16864,0.0,0.0
7650,1912.25,55.5907,58.2589,149.729,104.183,118.364,0.00682904,0.175498,20.7952,86.8587,-1.16943,0.0,0.0
7668,1916.75,55.3563,58.6812,144.063,104.145,116.713,0.00737598,0.178078,20.7922,86.7686,-1.04408,0.0,0.0
7686,1921.25,55.8207,58.1621,146.478,104.112,116.687,0.00743789,0.175243,20.7957,86.6785,-1.04485,0.0,0.0
7704,1925.75,55.0908,58.2575,142.898,104.132,118.926,0.00728672,0.173876,20.7961,86.6085,-1.21725,0.0,0.0
7722,1930.25,55.6081,57.679,147.448,104.246,116.205,0.00742711,0.172988,20.7968,86.5184,-0.995166,0.0,0.0
7740,1934.75,55.3026,57.7033,143.467,104.326,116.767,0.00739634,0.171593,20.8013,86.4683,-1.03232,0.0,0.0
7758,1939.25,54.6893,58.1744,144.75,104.423,117.739,0.00769364,0.170739,20.803,86.3682,-1.09981,0.0,0.0
7776,1943.75,55.0011,57.4582,147.124,104.484,117.383,0.00787251,0.170601,20.8035,86.2782,-1.06663,0.0,0.0
7794,1948.25,54.6975,56.981,147.959,104.549,117.945,0.00778946,0.169744,20.8027,86.1981,-1.10477,0.0,0.0
7812,1952.75,54.5354,57.0535,142.574,104.571,117.945,0.00738877,0.168847,20.8029,86.098,-1.10284,0.0,0.0
7830,1957.25,53.8939,56.295,144.118,104.585,118.462,0.00757969,0.168106,20.8041,86.0379,-1.14172,0.0,0.0
7848,1961.75,54.5903,56.9052,143.531,104.588,115.206,0.00769976,0.168479,20.805,85.9379,-0.886004,0.0,0.0
7866,1966.25,53.9517,57.257,145.761,104.572,116.544,0.00795774,0.167072,20.806,85.8678,-0.993286,0.0,0.0
7884,1970.75,54.5235,56.6973,145.778,104.542,117.365,0.00791563,0.165962,20.8086,85.8177,-1.0602,0.0,0.0
7902,1975.25,54.2921,56.569,149.743,104.47,116.41,0.00794149,0.166592,20.8085,85.7377,-0.991665,0.0,0.0
7920,1979.75,54.2853,56.6758,145.825,104.413,116.294,0.00818841,0.166041,20.8075,85.6576,-0.98749,0.0,0.0
7938,1984.25,53.7979,56.4936,144.873,104.315,117.32,0.00853778,0.171819,20.8019,85.5575,-1.0766,0.0,0.0
7956,1988.75,53.8387,56.2163,144.025,104.237,115.759,0.00814295,0.174854,20.7967,85.4774,-0.960669,0.0,0.0
7974,1993.25,54.1193,56.4996,147.493,104.186,114.76,0.00817846,0.172923,20.7999,85.4274,-0.885712,0.0,0.0
7992,1997.75,54.0333,56.4549,147.311,104.109,114.813,0.0087238,0.170577,20.8021,85.3273,-0.896829,0.0,0.0
8010,2002.25,53.7931,56.427,146.284,104.064,115.152,0.00867183,0.168902,20.8039,85.2472,-0.927814,0.0,0.0
8028,2006.75,53.9989,56.0229,147.477,103.915,115.616,0.00840844,0.168477,20.8039,85.1872,-0.977766,0.0,0.0
8046,2011.25,53.3928,55.8298,149.232,103.814,116.25,0.00806664,0.166655,20.8041,85.1271,-1.03672,0.0,0.0
8064,2015.75,53.68,56.4338,147.325,103.727,115.937,0.00837272,0.169563,20.8023,85.047,-1.01973,0.0,0.0
8082,2020.25,53.1992,56.1232,144.398,103.722,114.938,0.00855,0.168991,20.8019,84.987,-0.940899,0.0,0.0
8100,2024.75,53.4317,55.6758,143.869,103.745,115.125,0.00873218,0.167359,20.8043,84.8769,-0.953759,0.0,0.0
8118,2029.25,52.9426,55.3199,144.341,103.781,115.75,0.00901857,0.167457,20.8049,84.8068,-1.00018,0.0,0.0
8136,2033.75,52.9428,55.7565,147.016,103.826,115.081,0.00928671,0.170652,20.7997,84.7668,-0.943116,0.0,0.0
8154,2038.25,53.2307,55.7993,144.147,103.883,114.108,0.00925933,0.170024,20.8,84.6967,-0.860252,0.0,0.0
8172,2042.75,52.7322,54.9047,143.824,103.947,115.643,0.00924341,0.167601,20.8042,84.5766,-0.977039,0.0,0.0
8190,2047.25,52.3096,54.8655,143.224,103.991,114.813,0.0093487,0.16496,20.8081,84.5466,-0.90716,0.0,0.0
8208,2051.75,52.1888,54.8997,141.57,104.104,116.151,0.00935532,0.163333,20.8094,84.4965,-1.00339,0.0,0.0
8226,2056.25,52.4752,54.1921,149.054,104.155,116.705,0.00908558,0.161812,20.8116,84.4165,-1.04244,0.0,0.0
8244,2060.75,52.2047,54.8464,144.444,104.217,115.232,0.00901606,0.160038,20.8156,84.3564,-0.920662,0.0,0.0
8262,2065.25,52.374,54.3919,144.94,104.265,116.794,0.00923798,0.159732,20.8151,84.2663,-1.03984,0.0,0.0
8280,2069.75,51.9132,54.4492,145.743,104.279,114.67,0.00950081,0.159933,20.8144,84.2163,-0.870439,0.0,0.0
8298,2074.25,52.3696,54.7076,146.243,104.315,114.545,0.00946338,0.158033,20.8143,84.0461,-0.857279,0.0,0.0
8316,2078.75,52.3247,54.3722,149.4,104.329,113.743,0.00938129,0.159622,20.8143,84.1162,-0.791586,0.0,0.0
8334,2083.25,51.5812,54.321,149.217,104.356,114.367,0.00934095,0.15774,20.8169,84.0261,-0.839447,0.0,0.0
8352,2087.75,51.6192,54.0759,148.664,104.34,115.072,0.00954892,0.158445,20.8171,83.8259,-0.897089,0.0,0.0
8370,2092.25,51.8267,53.767,147.181,104.362,115.268,0.00969273,0.159135,20.8168,83.886,-0.910765,0.0,0.0
8388,2096.75,51.2501,53.7265,143.847,104.336,115.402,0.0100585,0.160715,20.8159,83.8259,-0.92375,0.0,0.0
8406,2101.25,51.3869,53.745,149.65,104.326,115.946,0.0100312,0.158348,20.8174,83.7359,-0.967719,0.0,0.0
8424,2105.75,51.3356,53.7426,144.18,104.32,114.858,0.0102467,0.159083,20.817,83.6558,-0.881814,0.0,0.0
8442,2110.25,51.4226,54.1938,147.058,104.275,115.081,0.00972096,0.159753,20.8169,83.5857,-0.903513,0.0,0.0
8460,2114.75,51.1631,53.7341,145.078,104.224,115.232,0.00948639,0.158928,20.8176,83.5257,-0.920065,0.0,0.0
8478,2119.25,50.9663,53.6271,147.565,104.148,115.241,0.00992947,0.160116,20.8154,83.4456,-0.927466,0.0,0.0
8496,2123.75,51.5552,54.4814,141.665,104.078,114.046,0.010067,0.160301,20.815,83.3755,-0.838118,0.0,0.0
8514,2128.25,51.2691,53.9655,148.486,103.963,114.403,0.00976571,0.158619,20.8164,83.3055,-0.876819,0.0,0.0
8532,2132.75,51.46,53.6502,148.641,103.853,114.135,0.00994502,0.158578,20.8171,83.2254,-0.865063,0.0,0.0
8550,2137.25,51.0118,53.7319,143.926,103.742,114.769,0.0103187,0.159412,20.8172,83.1553,-0.925572,0.0,0.0
8568,2141.75,51.2003,53.587,149.406,103.633,114.474,0.0104046,0.157053,20.8199,83.0853,-0.911651,0.0,0.0
8586,2146.25,50.7505,53.1874,146.341,103.538,115.018,0.0103488,0.154678,20.824,83.0152,-0.963571,0.0,0.0
8604,2150.75,51.0173,53.1353,145.53,103.447,114.51,,0.155689,,82.9451,-0.930983,0.0,0.0
8622,2155.25,51.3157,53.5163,143.149,103.358,114.064,,,,82.8951,-0.903126,0.0,0.0
8637,2159,50.8628,53.5831,149.866,103.27,113.698,,,,82.835,-0.881534,0.0,0.0