File: 01_Data/Wood_Stud/Cone/Wood_Stud_Cone_HF75Scan_221004_R3.csv
Names,Time,Stack TC,Smoke TC,Exh Press,Smoke Comp,Smoke Meas,CO Meter,CO2 Meter,O2 Meter,Sample Mass,Ext Coeff,Start Test,Flame Verif
Chan Gain,,500,500,1,1,1,1,1,1,1,1,1.0,1.0
Offset,,0,0,0.13786,0,0,0,0,0,0,0,0.0,0.0
Gain,,1,1,25.011,13.9274,292.346,1,1,1,1.00091,1.04463,1.0,1.0
Units,sec,C,C,Pa,%,%,%,%,%,g,/m,,
Baseline,,43.4142,45.3256,150.818,104.408,108.92,-0.000303262,0.0639363,20.9463,-443.724,-0.387438,,
21,5,41.3939,43.3371,155.487,103.603,104.598,0.000358015,0.0760944,20.9304,229.468,-0.0875401,0.0,0.0
42,10.25,44.5812,45.4038,126.42,103.722,120.425,0.00203823,0.376969,20.5936,228.627,-1.36818,0.0,1.0
63,15.5,50.2106,50.5254,135.884,103.84,118.926,0.0032034,0.59326,20.3165,227.626,-1.24298,0.0,0.0
84,20.75,55.4096,56.033,133.1,103.933,117.017,0.00393871,0.620702,20.2746,226.795,-1.08654,0.0,0.0
105,26,59.035,60.3088,132.181,103.996,113.439,0.00421736,0.552523,20.3488,225.915,-0.796393,0.0,0.0
126,31.25,61.3231,63.3421,136.011,104.039,112.565,0.00344021,0.496036,20.4283,225.154,-0.721711,0.0,0.0
147,36.5,62.9131,65.2659,139.312,104.092,113.341,0.00308078,0.452032,20.4817,224.423,-0.780039,0.0,0.0
168,41.75,63.4719,66.3351,137.089,104.167,113.6,0.00281964,0.426204,20.5153,223.773,-0.794313,0.0,0.0
189,47,64.721,67.7374,137.598,104.206,114.233,0.00264272,0.403498,20.5412,223.192,-0.841902,0.0,0.0
210,52.25,65.5582,69.0508,135.415,104.254,116.464,0.00246078,0.38582,20.5601,222.542,-1.01484,0.0,0.0
231,57.5,65.3265,69.7641,134.217,104.315,116.713,0.00188052,0.373707,20.5751,221.961,-1.02909,0.0,0.0
252,62.75,65.8248,69.8497,138.352,104.346,115.75,0.00174539,0.363018,20.5866,221.401,-0.95044,0.0,0.0
273,68,65.5968,70.0824,139.358,104.351,115.696,0.00169768,0.354252,20.5959,220.85,-0.945754,0.0,0.0
294,73.25,65.9612,70.8017,138.14,104.391,116.812,0.00161936,0.344406,20.6099,220.34,-1.03015,0.0,0.0
315,78.5,66.0068,70.3763,139.42,104.38,115.973,0.00172028,0.337523,20.6218,219.779,-0.965095,0.0,0.0
336,83.75,65.6777,70.5477,138.168,104.358,117.338,0.00144746,0.328548,20.6326,219.309,-1.07422,0.0,0.0
357,89,65.7666,70.5191,139.353,104.345,117.391,0.00167636,0.322759,20.6407,218.808,-1.07956,0.0,0.0
378,94.25,65.2988,70.3276,141.346,104.334,116.856,0.00161536,0.315966,20.6457,218.298,-1.03865,0.0,0.0
399,99.5,65.0453,70.3543,139.291,104.316,117.195,0.00148438,0.310235,20.6523,217.837,-1.06676,0.0,0.0
420,104.75,65.0891,70.1122,142.04,104.3,116.696,0.0015399,0.307169,20.6549,217.347,-1.02904,0.0,0.0
441,110,64.1837,70.0145,138.491,104.295,118.293,0.0015655,0.304567,20.6587,216.866,-1.15403,0.0,0.0
462,115.25,64.3633,70.0544,137.724,104.27,118.087,0.0012838,0.299246,20.6638,216.396,-1.14033,0.0,0.0
483,120.5,64.2129,69.8385,137.466,104.265,118.926,0.00125046,0.298695,20.6656,215.936,-1.20562,0.0,0.0
504,125.75,64.0333,69.6678,140.789,104.256,117.436,0.00141687,0.292529,20.6721,215.545,-1.09085,0.0,0.0
525,131,64.1052,69.9524,141.383,104.201,119.809,0.00136377,0.287469,20.68,215.075,-1.279,0.0,0.0
546,136.25,63.5772,69.3222,140.664,104.171,117.962,0.0010524,0.282968,20.6875,214.654,-1.1393,0.0,0.0
567,141.5,63.6709,68.8408,136.408,104.133,117.204,0.00159804,0.279314,20.6927,214.234,-1.08357,0.0,0.0
588,146.75,63.1933,68.2799,140.532,104.068,118.98,0.00138679,0.276574,20.6963,213.804,-1.22706,0.0,0.0
609,152,62.7162,67.9122,139.742,104.019,118.712,0.00113226,0.273483,20.7003,213.323,-1.21073,0.0,0.0
630,157.25,63.1443,68.4338,138.376,103.957,120.282,0.00118133,0.272447,20.7018,212.973,-1.33664,0.0,0.0
651,162.5,62.9199,68.2329,137.715,103.892,119.684,0.00105855,0.267727,20.7075,212.523,-1.29665,0.0,0.0
672,167.75,62.6004,67.9067,142.341,103.814,119.104,0.000970287,0.268549,20.7083,212.132,-1.25908,0.0,0.0
693,173,62.2963,67.5516,141.053,103.757,117.32,0.000567948,0.263864,20.7118,211.712,-1.12579,0.0,0.0
714,178.25,62.347,67.2954,138.676,103.696,118.489,0.000610172,0.263807,20.7141,211.341,-1.22199,0.0,0.0
735,183.5,62.1959,67.4177,143.256,103.642,118.435,0.000706216,0.2617,20.7179,210.911,-1.22263,0.0,0.0
756,188.75,62.3579,67.1657,142.379,103.577,117.365,0.00101793,0.260959,20.7151,210.531,-1.1452,0.0,0.0
777,194,62.0646,66.861,139.96,103.515,119.479,0.000937223,0.258802,20.7168,210.12,-1.31428,0.0,0.0
798,199.25,61.8744,66.6725,141.252,103.456,116.963,0.00109923,0.258894,20.717,209.73,-1.12445,0.0,0.0
819,204.5,61.6339,66.7506,142.544,103.399,119.916,0.00111231,0.257947,20.719,209.32,-1.35802,0.0,0.0
840,209.75,61.3625,66.4252,140.688,103.338,118.275,0.00111437,0.256501,20.7203,208.939,-1.2371,0.0,0.0
861,215,62.0077,66.612,142.63,103.287,116.963,0.0011244,0.253572,20.7242,208.589,-1.13945,0.0,0.0
882,220.25,61.3309,66.24,137.139,103.272,117.641,0.000989659,0.251317,20.7283,208.209,-1.19377,0.0,0.0
903,225.5,60.9739,65.939,144.321,103.264,117.436,0.0011052,0.252291,20.7272,207.798,-1.17846,0.0,0.0
924,230.75,61.2317,65.856,136.664,103.277,119.711,0.0010365,0.254286,20.7244,207.418,-1.35314,0.0,0.0
945,236,60.856,65.4148,142.644,103.29,118.765,0.000948501,0.254212,20.7225,207.028,-1.27926,0.0,0.0
966,241.25,60.9197,65.5369,137.835,103.34,118.453,0.000910588,0.251895,20.7261,206.647,-1.25073,0.0,0.0
987,246.5,60.8129,65.4831,140.092,103.375,118.89,0.000648478,0.250496,20.7268,206.277,-1.28135,0.0,0.0
1008,251.75,60.7345,65.4212,141.28,103.463,118.301,0.000883025,0.251702,20.7249,205.876,-1.2281,0.0,0.0
1029,257,61.0845,65.5887,140.045,103.56,118.15,0.000810177,0.252349,20.7243,205.506,-1.20773,0.0,0.0
1050,262.25,61.29,65.4768,141.762,103.669,119.72,0.000855249,0.252274,20.7243,205.116,-1.31912,0.0,0.0
1071,267.5,60.9894,65.2778,142.083,103.826,120.255,0.000868992,0.252036,20.7223,204.745,-1.34608,0.0,0.0
1092,272.75,60.844,65.1005,142.411,103.997,120.13,0.000652058,0.250842,20.724,204.375,-1.32149,0.0,0.0
1113,278,61.1341,65.0008,138.217,104.157,120.461,0.000886169,0.249537,20.7242,203.985,-1.3326,0.0,0.0
1134,283.25,60.9773,64.8974,138.65,104.332,120.077,0.00109174,0.249029,20.7259,203.634,-1.28794,0.0,0.0
1155,288.5,61.0925,65.2926,140.01,104.528,120.068,0.000859438,0.247127,20.7285,203.264,-1.2701,0.0,0.0
1176,293.75,60.6944,64.8567,140.375,104.679,120.104,0.000995605,0.247507,20.7288,202.894,-1.25961,0.0,0.0
1197,299,60.6958,64.6954,141.393,104.794,120.514,0.000976117,0.247224,20.7279,202.523,-1.28075,0.0,0.0
1218,304.25,60.8048,64.8542,143.185,104.914,120.416,0.000692798,0.246704,20.7276,202.153,-1.26285,0.0,0.0
1239,309.5,60.5997,64.8431,139.869,105,119.675,0.00084419,0.247153,20.7286,201.783,-1.19883,0.0,0.0
1260,314.75,60.5709,65.1317,138.501,105.057,119.194,0.000662114,0.246898,20.7291,201.402,-1.15686,0.0,0.0
1281,320,60.53,64.6912,144.61,105.123,119.31,0.000735646,0.245639,20.7315,201.052,-1.16003,0.0,0.0
1302,325.25,60.6904,64.6561,138.28,105.11,121.487,0.000889095,0.245262,20.7316,200.702,-1.32686,0.0,0.0
1323,330.5,60.6598,64.5097,142.376,105.09,120.416,0.000834195,0.244256,20.7329,200.321,-1.24749,0.0,0.0
1344,335.75,60.769,64.8992,144.471,105.067,119.006,0.000306575,0.243657,20.7336,199.981,-1.14155,0.0,0.0
1365,341,60.6765,64.7568,146.349,105.02,120.594,0.000538881,0.24194,20.7349,199.601,-1.26718,0.0,0.0
1386,346.25,60.7536,64.4007,143.608,104.964,118.48,0.000679933,0.241847,20.7364,199.261,-1.10991,0.0,0.0
1407,351.5,60.267,64.101,143.544,104.897,120.523,0.000505242,0.240641,20.7385,198.87,-1.27244,0.0,0.0
1428,356.75,60.546,64.0508,138.757,104.834,118.587,0.000501642,0.24058,20.7395,198.54,-1.12958,0.0,0.0
1449,362,60.7062,64.5001,141.351,104.745,119.185,0.000875445,0.239838,20.74,198.18,-1.18339,0.0,0.0
1470,367.25,60.5913,64.5793,146.697,104.662,120.211,0.000807359,0.239482,20.7398,197.839,-1.26922,0.0,0.0
1491,372.5,60.2091,64.1476,139.713,104.586,120.006,0.000810486,0.239651,20.7382,197.489,-1.26019,0.0,0.0
1512,377.75,60.5738,64.3196,143.25,104.49,118.507,0.000785326,0.238156,20.7405,197.129,-1.15348,0.0,0.0
1533,383,59.9654,64.026,140.184,104.429,120.113,0.000817107,0.23785,20.7413,196.748,-1.28219,0.0,0.0
1554,388.25,60.3989,64.3447,143.434,104.376,120.229,0.000830724,0.237293,20.743,196.378,-1.29566,0.0,0.0
1575,393.5,60.0909,64.2016,137.542,104.302,118.533,0.000909925,0.238602,20.7446,196.068,-1.172,0.0,0.0
1596,398.75,60.1865,64.0984,142.319,104.233,120.113,0.000818503,0.236296,20.745,195.667,-1.29936,0.0,0.0
1617,404,60.1893,64.2631,142.874,104.183,120.122,0.000850618,0.237186,20.7435,195.307,-1.30445,0.0,0.0
1638,409.25,59.8592,63.9642,145.27,104.31,121.344,0.000822639,0.236466,20.7428,194.977,-1.38605,0.0,0.0
1659,414.5,59.768,64.0274,137.775,104.419,118.641,0.000985044,0.236714,20.7423,194.616,-1.17009,0.0,0.0
1680,419.75,59.8987,63.5938,143.824,104.528,118.212,0.000750215,0.234436,20.7447,194.266,-1.12737,0.0,0.0
1701,425,59.8058,63.8768,141.899,104.589,119.586,0.000868018,0.233627,20.7456,193.926,-1.22786,0.0,0.0
1722,430.25,59.8244,63.4224,140.372,104.64,120.336,0.000884508,0.234691,20.744,193.575,-1.28064,0.0,0.0
1743,435.5,59.5768,63.7837,139.301,104.654,120.113,0.00081817,0.234354,20.7435,193.235,-1.26245,0.0,0.0
1764,440.75,60.0624,63.7986,139.776,104.622,118.81,0.000719678,0.233624,20.7448,192.895,-1.16532,0.0,0.0
1785,446,59.661,63.5298,143.074,104.582,118.721,0.000938292,0.23205,20.7478,192.564,-1.16194,0.0,0.0
1806,451.25,59.6763,63.4879,137.714,104.545,120.862,0.000773831,0.231518,20.7486,192.224,-1.32901,0.0,0.0
1827,456.5,59.1053,63.0379,142.316,104.459,118.703,0.000771079,0.230874,20.7487,191.824,-1.17137,0.0,0.0
1848,461.75,59.4857,63.4339,141.316,104.392,118.846,0.000336125,0.230709,20.7495,191.503,-1.18824,0.0,0.0
1869,467,59.3579,63.1182,144.366,104.303,119.042,0.0006455,0.229347,20.752,191.153,-1.21116,0.0,0.0
1890,472.25,59.5997,63.2234,144.346,104.163,117.516,0.000729514,0.228163,20.7522,190.823,-1.10533,0.0,0.0
1911,477.5,59.557,63.1999,144.027,104,117.722,0.000734427,0.229635,20.7523,190.493,-1.13561,0.0,0.0
1932,482.75,59.5445,63.2917,141.125,103.848,120.059,0.000714249,0.228565,20.7521,190.122,-1.32919,0.0,0.0
1953,488,58.888,63.0724,142.055,103.818,117.383,0.000797919,0.227051,20.7531,189.762,-1.1253,0.0,0.0
1974,493.25,59.3184,62.8569,141.635,103.861,119.256,0.000656137,0.227352,20.7533,189.442,-1.26658,0.0,0.0
1995,498.5,59.5207,63.1754,142.612,103.931,117.945,0.000652386,0.227858,20.7537,189.091,-1.1591,0.0,0.0
2016,503.75,59.39,62.7745,144.471,104.03,119.452,0.000761347,0.226456,20.7551,188.791,-1.26677,0.0,0.0
2037,509,59.491,62.8284,140.148,104.11,120.63,0.000415042,0.225171,20.7555,188.441,-1.34956,0.0,0.0
2058,514.25,59.2617,62.777,143.345,104.21,118.578,0.000806596,0.225209,20.7571,188.09,-1.18356,0.0,0.0
2079,519.5,58.9231,62.2962,143.222,104.317,119.336,0.000957497,0.224639,20.7571,187.75,-1.2326,0.0,0.0
2100,524.75,59.1999,62.93,146.401,104.39,118.819,0.000603916,0.222985,20.7585,187.41,-1.18636,0.0,0.0
2121,530,58.7511,62.9079,141.442,104.439,119.738,0.000370488,0.224244,20.7587,187.059,-1.25266,0.0,0.0
2142,535.25,58.9728,62.5195,140.212,104.496,120.728,0.000799976,0.223773,20.7567,186.729,-1.32315,0.0,0.0
2163,540.5,59.0077,62.3733,139.997,104.506,119.551,0.000989327,0.223933,20.7584,186.419,-1.23246,0.0,0.0
2184,545.75,59.2614,62.4402,146.113,104.479,119.39,0.000649609,0.222867,20.7602,186.049,-1.22246,0.0,0.0
2205,551,59.2148,62.3644,142.301,104.453,118.614,0.00066095,0.223644,20.76,185.778,-1.165,0.0,0.0
2226,556.25,58.7831,62.3255,140.21,104.378,117.909,0.00068722,0.221494,20.763,185.368,-1.11695,0.0,0.0
2247,561.5,58.8529,62.2967,142.489,104.287,119.559,0.00062616,0.22137,20.7639,185.048,-1.25236,0.0,0.0
2268,566.75,58.5844,62.3211,144.482,104.19,119.836,0.000718091,0.220733,20.766,184.707,-1.28201,0.0,0.0
2289,572,58.7952,62.4081,140.809,104.074,119.31,0.000479655,0.220186,20.7646,184.377,-1.25189,0.0,0.0
2310,577.25,58.875,61.9044,142.502,103.922,117.811,0.000625701,0.218908,20.7651,184.057,-1.14945,0.0,0.0
2331,582.5,59.0387,62.2943,143.254,103.783,118.123,0.000891484,0.218398,20.7658,183.716,-1.186,0.0,0.0
2352,587.75,58.7041,62.1304,141.903,103.633,117.739,0.000824103,0.216034,20.7691,183.386,-1.16945,0.0,0.0
2373,593,58.8518,62.1588,146.915,103.511,116.972,0.000821956,0.218448,20.7675,183.076,-1.12026,0.0,0.0
2394,598.25,58.4578,62.0505,142.225,103.431,116.205,0.000752782,0.218657,20.7672,182.726,-1.06711,0.0,0.0
2415,603.5,58.5403,61.8755,147.317,103.357,116.901,0.000372925,0.218931,20.7672,182.395,-1.12833,0.0,0.0
2436,608.75,58.3696,61.5848,145.642,103.294,116.615,0.000636741,0.219162,20.7673,182.095,-1.11154,0.0,0.0
2457,614,59.0523,62.2521,139.357,103.251,116.91,0.000719952,0.218752,20.768,181.685,-1.1385,0.0,0.0
2478,619.25,58.5193,61.9033,145.273,103.226,115.91,0.000724391,0.216033,20.7716,181.384,-1.06203,0.0,0.0
2499,624.5,58.2184,61.732,145.062,103.212,117.954,0.000663281,0.21602,20.7723,181.064,-1.22335,0.0,0.0
2520,629.75,58.5652,61.8288,139.015,103.239,118.025,0.000399919,0.216661,20.7705,180.734,-1.22647,0.0,0.0
2541,635,58.4423,61.9589,143.052,103.275,116.749,0.000586058,0.214248,20.772,180.383,-1.12375,0.0,0.0
2562,640.25,58.4342,62.0067,140.722,103.331,116.928,0.000220412,0.213727,20.7746,180.083,-1.13273,0.0,0.0
2583,645.5,58.5584,61.6942,142.776,103.44,115.777,0.000416509,0.214349,20.7728,179.743,-1.03248,0.0,0.0
2604,650.75,58.0474,61.4321,142.107,103.584,117.258,0.000615206,0.215107,20.7714,179.433,-1.1362,0.0,0.0
2625,656,58.1955,61.6522,137.357,103.719,117.311,0.000480994,0.21457,20.7711,179.092,-1.1284,0.0,0.0
2646,661.25,58.3257,61.7867,142.776,103.88,118.186,0.000583774,0.213339,20.7727,178.802,-1.18226,0.0,0.0
2667,666.5,58.2649,61.7007,145.426,104.078,118.391,0.000687813,0.212792,20.7729,178.442,-1.1807,0.0,0.0
2688,671.75,58.1478,61.7056,142.856,104.273,119.167,0.000460178,0.214102,20.7742,178.121,-1.22346,0.0,0.0
2709,677,58.4688,61.6077,139.652,104.469,119.622,0.000306209,0.213702,20.7744,177.771,-1.24114,0.0,0.0
2730,682.25,58.1089,61.6111,145.189,104.67,118.498,0.000402693,0.211203,20.7763,177.451,-1.13704,0.0,0.0
2751,687.5,58.232,61.9486,145.973,104.821,117.945,0.000567259,0.212175,20.7757,177.13,-1.08093,0.0,0.0
2772,692.75,57.9753,61.5673,143.346,104.958,119.292,0.000491579,0.211953,20.7737,176.8,-1.173,0.0,0.0
2793,698,57.7645,61.2568,139.95,105.058,118.417,0.000334006,0.2138,20.772,176.47,-1.09688,0.0,0.0
2814,703.25,58.4131,61.4281,139.782,105.091,119.265,0.000577777,0.213284,20.7718,176.16,-1.15934,0.0,0.0
2835,708.5,58.0625,61.3573,147.299,105.097,118.186,0.000634358,0.213592,20.7722,175.819,-1.07554,0.0,0.0
2856,713.75,58.2739,61.926,142.676,105.08,118.489,0.000568201,0.21329,20.773,175.489,-1.10047,0.0,0.0
2877,719,58.2491,61.2396,146.639,105.018,118.07,0.000419083,0.213047,20.7746,175.179,-1.0734,0.0,0.0
2898,724.25,58.3741,61.4643,143.224,104.953,118.748,0.000334799,0.212799,20.7747,174.838,-1.13159,0.0,0.0
2919,729.5,58.1855,61.248,144.444,104.89,118.016,0.00055484,0.213006,20.7748,174.508,-1.08042,0.0,0.0
2940,734.75,58.2504,61.6069,142.551,104.838,117.623,0.000516908,0.213391,20.7732,174.178,-1.05442,0.0,0.0
2961,740,58.0121,61.0806,136.257,104.731,120.621,0.000387657,0.213184,20.7735,173.847,-1.29439,0.0,0.0
2982,745.25,58.4677,61.7593,141.183,104.668,119.06,0.000611029,0.213153,20.7742,173.537,-1.18051,0.0,0.0
3003,750.5,57.8346,61.2153,146.786,104.573,116.508,0.000634248,0.21238,20.7752,173.217,-0.990332,0.0,0.0
3024,755.75,58.0716,61.5711,142.792,104.463,118.507,0.000650117,0.213541,20.7739,172.887,-1.15583,0.0,0.0
3045,761,58.5182,61.6393,143.152,104.405,119.327,0.000758368,0.213135,20.774,172.566,-1.22415,0.0,0.0
3066,766.25,58.7468,61.4588,145.897,104.336,117.338,0.000731719,0.212497,20.7732,172.226,-1.07616,0.0,0.0
3087,771.5,57.925,61.2082,141.262,104.268,120.157,0.00071831,0.211102,20.775,171.886,-1.29967,0.0,0.0
3108,776.75,57.954,61.3257,145.517,104.204,117.142,0.00102732,0.212387,20.7733,171.575,-1.0724,0.0,0.0
3129,782,57.469,61.1483,145.384,104.189,117.891,0.000963759,0.213469,20.7731,171.245,-1.13222,0.0,0.0
3150,787.25,57.8481,61.2524,142.094,104.264,117.615,0.000831508,0.212039,20.7757,170.915,-1.10405,0.0,0.0
3171,792.5,57.7585,61.3054,145.263,104.362,117.481,0.000875684,0.213005,20.7757,170.585,-1.08503,0.0,0.0
3192,797.75,57.8047,60.6207,145.234,104.48,117.927,0.000572201,0.212222,20.7759,170.254,-1.10939,0.0,0.0
3213,803,57.97,61.2517,143.779,104.567,118.765,0.000382244,0.213277,20.7751,169.934,-1.16672,0.0,0.0
3234,808.25,57.7394,61.1449,141.834,104.605,117.784,0.000476786,0.211721,20.7747,169.614,-1.08734,0.0,0.0
3255,813.5,57.8967,61.2579,141.561,104.654,118.328,0.000584012,0.211901,20.7744,169.273,-1.12526,0.0,0.0
3276,818.75,57.7187,61.158,143.127,104.645,118.828,0.000661086,0.211757,20.7746,169.013,-1.16469,0.0,0.0
3297,824,58.0631,61.2303,143.153,104.59,118.774,0.000588472,0.21046,20.7765,168.663,-1.1654,0.0,0.0
3318,829.25,57.7056,61.3701,142.915,104.528,118.516,0.000319262,0.210346,20.7773,168.322,-1.15082,0.0,0.0
3339,834.5,57.8094,61.2166,141.79,104.362,117.186,0.000321738,0.210885,20.7787,167.992,-1.06204,0.0,0.0
3360,839.75,57.3999,60.8895,141.178,104.168,117.222,0.000356439,0.210177,20.7787,167.672,-1.08186,0.0,0.0
3381,845,57.8337,61.1584,144.711,103.947,117.561,0.000319648,0.210349,20.7783,167.352,-1.12782,0.0,0.0
3402,850.25,57.7519,61.093,140.332,103.794,116.196,0.000447007,0.210353,20.7789,167.041,-1.03426,0.0,0.0
3423,855.5,58.0347,61.271,144.868,103.842,117.097,0.000404876,0.209918,20.7784,166.711,-1.10085,0.0,0.0
3444,860.75,57.8778,61.0804,139.713,103.907,117.061,0.000481154,0.211145,20.7768,166.391,-1.09232,0.0,0.0
3465,866,57.7697,61.2313,140.103,103.977,117.597,0.000529105,0.210765,20.7758,166.08,-1.12791,0.0,0.0
3486,871.25,57.5008,61.3231,146.906,104.046,117.989,0.000636737,0.210828,20.7757,165.75,-1.15238,0.0,0.0
3507,876.5,57.7257,61.2827,140.071,104.162,117.329,0.000670296,0.213198,20.772,165.45,-1.09075,0.0,0.0
3528,881.75,57.6704,60.9029,145.906,104.253,116.945,0.000432539,0.213805,20.7706,165.12,-1.05278,0.0,0.0
3549,887,57.7568,61.2538,144.054,104.336,117.151,0.000444687,0.212457,20.7704,164.789,-1.06156,0.0,0.0
3570,892.25,57.8928,61.2367,140.621,104.415,118.542,0.00030873,0.211965,20.7704,164.509,-1.16284,0.0,0.0
3591,897.5,57.424,60.9126,139.631,104.47,117.525,0.00049062,0.21171,20.7725,164.189,-1.07907,0.0,0.0
3612,902.75,57.2569,60.8911,141.801,104.463,117.927,0.000375843,0.212156,20.7725,163.868,-1.11092,0.0,0.0
3633,908,57.7264,60.9955,142.431,104.458,117.65,0.000653281,0.211184,20.7742,163.538,-1.08981,0.0,0.0
3654,913.25,57.7524,61.0068,142.596,104.443,116.865,0.000545774,0.209623,20.7764,163.228,-1.0298,0.0,0.0
3675,918.5,57.7759,60.9451,141.96,104.391,118.489,0.000572887,0.209839,20.7767,162.918,-1.16079,0.0,0.0
3696,923.75,57.5031,60.5693,141.505,104.336,117.9,0.000610657,0.210604,20.7759,162.597,-1.11995,0.0,0.0
3717,929,57.4304,60.9103,141.398,104.284,117.65,0.000706757,0.211201,20.774,162.277,-1.10507,0.0,0.0
3738,934.25,57.381,60.7401,140.808,104.203,117.766,0.000855195,0.210022,20.7753,161.957,-1.12127,0.0,0.0
3759,939.5,57.5819,61.1746,142.531,104.111,117.133,0.000681998,0.209548,20.7767,161.666,-1.07993,0.0,0.0
3780,944.75,57.25,60.4857,144.374,104.02,116.687,0.000507914,0.208942,20.7773,161.366,-1.05294,0.0,0.0
3801,950,57.3298,60.336,144.554,103.938,117.846,0.000291722,0.210033,20.7753,161.016,-1.15084,0.0,0.0
3822,955.25,58.1966,61.3505,141.715,103.842,117.695,0.000556368,0.209124,20.7751,160.716,-1.14747,0.0,0.0
3843,960.5,57.536,61.0422,140.766,103.785,116.33,0.000662609,0.210483,20.773,160.455,-1.04564,0.0,0.0
3864,965.75,57.4503,60.836,145.565,103.728,117.49,0.000496471,0.208734,20.774,160.115,-1.14154,0.0,0.0
3885,971,57.5663,60.4416,141.675,103.746,117.588,0.00067065,0.210321,20.7742,159.805,-1.14765,0.0,0.0
3906,976.25,57.4105,60.9049,144.396,103.774,115.643,0.000878442,0.210478,20.7738,159.484,-0.992339,0.0,0.0
3927,981.5,57.3711,60.8614,143.556,103.818,117.106,0.000472749,0.210655,20.7718,159.224,-1.10361,0.0,0.0
3948,986.75,57.5865,60.9382,144.795,103.883,115.777,0.000519885,0.209978,20.7733,158.914,-0.993259,0.0,0.0
3969,992,57.261,60.9381,146.155,103.991,117.677,0.000688584,0.210155,20.7743,158.604,-1.13296,0.0,0.0
3990,997.25,57.376,60.7103,149.057,104.095,118.132,0.000620774,0.210806,20.7735,158.323,-1.15912,0.0,0.0
4011,1002.5,57.1226,60.4735,139.962,104.197,120.032,0.000708051,0.21075,20.7728,157.993,-1.29638,0.0,0.0
4032,1007.75,57.036,60.3473,145.316,104.325,116.972,0.000878611,0.210362,20.7747,157.663,-1.04856,0.0,0.0
4053,1013,57.5004,61.1729,148.877,104.406,117.472,0.000535156,0.20781,20.7788,157.403,-1.08045,0.0,0.0
4074,1018.25,57.4912,60.4663,141.413,104.454,118.748,0.000346645,0.20769,20.7776,157.092,-1.17522,0.0,0.0
4095,1023.5,57.2564,60.4585,143.861,104.452,117.695,0.00050181,0.207965,20.7774,156.792,-1.09384,0.0,0.0
4116,1028.75,57.4552,60.8467,144.269,104.404,119.051,0.000711386,0.205887,20.7794,156.532,-1.20304,0.0,0.0
4137,1034,57.3372,61.0566,143.55,104.262,118.605,0.000614957,0.206656,20.7779,156.242,-1.18107,0.0,0.0
4158,1039.25,57.1643,60.9545,144.21,104.049,118.756,0.000929435,0.20752,20.777,155.841,-1.21155,0.0,0.0
4179,1044.5,57.2055,60.5103,145,103.896,117.204,0.000740142,0.20792,20.7767,155.551,-1.10442,0.0,0.0
4200,1049.75,57.8581,61.0419,140.624,103.837,119.345,0.000643811,0.208098,20.7767,155.251,-1.27553,0.0,0.0
4221,1055,57.5241,60.9639,142.757,104.32,118.221,0.000715953,0.207645,20.7767,154.94,-1.14626,0.0,0.0
4242,1060.25,57.2004,60.7332,144.417,104.613,119.158,0.000481935,0.206954,20.7767,154.67,-1.19294,0.0,0.0
4263,1065.5,57.5286,60.8921,143.372,104.628,119.988,0.00068831,0.207947,20.7784,154.37,-1.25522,0.0,0.0
4284,1070.75,57.535,60.8633,146.529,104.368,117.677,0.000587991,0.207625,20.7793,154.02,-1.09976,0.0,0.0
4305,1076,57.5264,60.8367,145.746,104.277,117.989,0.00043529,0.206587,20.7808,153.739,-1.13204,0.0,0.0
4326,1081.25,57.3723,60.3713,140.985,104.527,118.623,0.00054308,0.207986,20.779,153.419,-1.15917,0.0,0.0
4347,1086.5,57.2684,60.7483,141.271,104.805,120.996,0.000658419,0.20746,20.7812,153.119,-1.31634,0.0,0.0
4368,1091.75,57.7497,61.4805,143.809,105.028,118.507,0.000613687,0.207413,20.781,152.768,-1.10641,0.0,0.0
4389,1097,57.4843,60.8509,142.183,105.086,120.844,0.000502132,0.206989,20.7818,152.508,-1.28032,0.0,0.0
4410,1102.25,57.9253,60.847,146.607,104.947,119.693,0.000626771,0.206884,20.7818,152.178,-1.2048,0.0,0.0
4431,1107.5,57.5181,60.9814,142.808,104.626,118.872,0.000404681,0.205989,20.7823,151.898,-1.1698,0.0,0.0
4452,1112.75,57.7361,60.9052,147.212,104.163,119.336,0.000587438,0.20693,20.7832,151.587,-1.24609,0.0,0.0
4473,1118,57.4187,61.007,139.779,103.679,118.275,0.000764729,0.206281,20.7847,151.307,-1.20692,0.0,0.0
4494,1123.25,57.7035,60.9004,145.201,103.326,116.999,0.000754777,0.204694,20.7872,150.997,-1.13881,0.0,0.0
4515,1128.5,57.8182,61.4357,140.54,103.208,119.31,0.000670567,0.20557,20.7866,150.697,-1.32843,0.0,0.0
4536,1133.75,58.2719,61.4889,140.639,103.344,119.327,0.000560859,0.206206,20.7854,150.376,-1.31778,0.0,0.0
4557,1139,58.1266,61.6597,143.529,103.685,118.275,0.000714912,0.205729,20.7852,150.076,-1.2064,0.0,0.0
4578,1144.25,57.8887,61.1841,144.31,104.093,118.087,0.000654687,0.206088,20.7843,149.786,-1.15592,0.0,0.0
4599,1149.5,58.1243,61.3326,144.905,104.382,119.247,0.000429268,0.206202,20.7844,149.485,-1.22007,0.0,0.0
4620,1154.75,57.4957,60.9957,143.224,104.492,118.301,0.000598586,0.206868,20.7858,149.155,-1.13745,0.0,0.0
4641,1160,57.6921,61.2141,143.04,104.366,117.766,0.00072409,0.206561,20.7868,148.885,-1.10693,0.0,0.0
4662,1165.25,57.784,61.3384,141.678,104.016,120.148,0.00063287,0.206293,20.7871,148.585,-1.32124,0.0,0.0
4683,1170.5,57.6692,61.4235,140.842,103.793,119.319,0.000808377,0.206645,20.7864,148.284,-1.27738,0.0,0.0
4704,1175.75,57.9681,61.5307,145.738,104.413,119.747,0.000751224,0.207588,20.7863,148.014,-1.25566,0.0,0.0
4725,1181,57.9178,61.5557,147.091,104.632,120.175,0.000498282,0.206016,20.7886,147.674,-1.26914,0.0,0.0
4746,1186.25,57.5444,61.0443,139.397,104.226,117.525,0.000664814,0.205481,20.7897,147.374,-1.10046,0.0,0.0
4767,1191.5,57.3694,61.0384,144.354,104.508,119.47,0.000542926,0.207484,20.7847,147.103,-1.22608,0.0,0.0
4788,1196.75,57.6954,61.3406,147.126,104.914,118.159,0.000655268,0.209872,20.7826,146.773,-1.08945,0.0,0.0
4809,1202,58.1261,61.7167,141.351,105.084,121.005,0.000856279,0.208979,20.7814,146.493,-1.29271,0.0,0.0
4830,1207.25,57.7565,61.3842,145.662,104.837,120.229,0.000573003,0.209321,20.7805,146.242,-1.25526,0.0,0.0
4851,1212.5,57.7974,61.5912,142.293,104.22,119.72,0.00066141,0.207887,20.7815,145.922,-1.27056,0.0,0.0
4872,1217.75,57.7176,61.3866,141.806,103.567,117.142,0.000738426,0.209218,20.7816,145.672,-1.1286,0.0,0.0
4893,1223,57.6388,61.4445,144.014,103.262,116.437,0.000939342,0.209335,20.7823,145.302,-1.1003,0.0,0.0
4914,1228.25,58.1225,61.6307,143.354,103.417,116.142,0.000788431,0.20939,20.7832,145.011,-1.06342,0.0,0.0
4935,1233.5,58.1391,61.4356,144.714,103.874,118.98,0.000551116,0.208802,20.7833,144.741,-1.24414,0.0,0.0
4956,1238.75,57.862,61.3192,146.473,104.302,118.98,0.000488886,0.207623,20.7847,144.401,-1.20646,0.0,0.0
4977,1244,57.8808,61.667,142.754,104.505,119.096,0.000865075,0.209578,20.7841,144.091,-1.19756,0.0,0.0
4998,1249.25,57.845,61.5696,141.399,104.425,120.282,0.000541402,0.210395,20.782,143.77,-1.29541,0.0,0.0
5019,1254.5,58.0373,61.4013,144.245,104.168,118.614,0.000800719,0.21281,20.7781,143.49,-1.19002,0.0,0.0
5040,1259.75,57.9344,61.6662,141.423,103.854,118.899,0.000597142,0.213463,20.7756,143.2,-1.23972,0.0,0.0
5061,1265,58.2531,62.0165,142.038,103.914,117.802,0.000302247,0.214909,20.7748,142.829,-1.14943,0.0,0.0
5082,1270.25,58.2885,61.6246,140.792,104.038,118.721,0.000502841,0.213985,20.7749,142.519,-1.20977,0.0,0.0
5103,1275.5,58.3185,61.8411,144.421,104.365,117.748,0.000720626,0.21234,20.7785,142.279,-1.10566,0.0,0.0
5124,1280.75,58.5708,62.1607,139.225,104.563,119.631,0.000788526,0.213175,20.7779,141.959,-1.23362,0.0,0.0
5145,1286,58.06,61.4109,143.411,104.626,117.249,0.000637985,0.212583,20.7775,141.658,-1.04381,0.0,0.0
5166,1291.25,58.0684,61.5514,142.97,104.584,119.336,0.000516556,0.212676,20.7775,141.358,-1.20914,0.0,0.0
5187,1296.5,58.262,61.9596,141.772,104.459,119.372,0.000637087,0.212999,20.7762,141.048,-1.22284,0.0,0.0
5208,1301.75,57.897,61.4746,140.694,104.268,118.221,0.000612547,0.214389,20.7738,140.687,-1.15082,0.0,0.0
5229,1307,58.0521,61.7793,142.656,104.225,117.962,0.00074877,0.212609,20.7758,140.437,-1.13459,0.0,0.0
5250,1312.25,58.5409,62.1029,140.193,104.314,118.284,0.000855406,0.214684,20.7749,140.137,-1.1517,0.0,0.0
5271,1317.5,57.9,61.59375,143.923,104.427,118.837,0.000560646,0.21325,20.7758,139.797,-1.18449,0.0,0.0
5292,1322.75,58.2478,61.6192,137.489,104.537,118.971,0.000608886,0.214399,20.778,139.506,-1.18515,0.0,0.0
5313,1328,58.1467,61.6956,140.321,104.618,119.461,0.000450586,0.214287,20.7781,139.226,-1.21575,0.0,0.0
5334,1333.25,58.3585,61.9015,140.126,104.714,119.818,0.000375166,0.214993,20.7768,138.886,-1.23471,0.0,0.0
5355,1338.5,58.4163,62.4222,141.711,104.816,118.739,0.000346014,0.216339,20.7758,138.616,-1.14282,0.0,0.0
5376,1343.75,58.5031,61.9416,145.728,104.881,119.042,0.000483645,0.21581,20.7747,138.305,-1.16055,0.0,0.0
5397,1349,58.3421,61.8028,145.011,104.93,118.159,0.000477433,0.215099,20.775,137.995,-1.08804,0.0,0.0
5418,1354.25,58.0396,61.5199,144.261,104.994,119.256,0.000379352,0.213978,20.7773,137.725,-1.16718,0.0,0.0
5439,1359.5,58.6776,61.7868,141.877,105.003,118.881,0.000448837,0.216128,20.7744,137.384,-1.13757,0.0,0.0
5460,1364.75,58.2962,62.2818,143.304,105.031,120.594,0.000232604,0.214448,20.773,137.104,-1.26621,0.0,0.0
5481,1370,58.9822,62.3041,141.468,105.065,121.246,0.000401738,0.217452,20.7715,136.804,-1.31253,0.0,0.0
5502,1375.25,58.3937,61.8999,143.146,105.076,118.953,0.000513055,0.216734,20.7714,136.504,-1.13662,0.0,0.0
5523,1380.5,58.1951,62.3588,146.557,105.079,120.345,0.000643435,0.217472,20.7711,136.153,-1.24302,0.0,0.0
5544,1385.75,58.9523,62.1802,146.86,105.109,118.114,0.000646974,0.218148,20.77,135.893,-1.06897,0.0,0.0
5565,1391,58.9195,62.5205,142.504,105.092,118.444,0.000657266,0.216566,20.7727,135.573,-1.09602,0.0,0.0
5586,1396.25,58.5405,62.1271,142.575,105.107,120.211,0.000609771,0.218711,20.7705,135.293,-1.23031,0.0,0.0
5607,1401.5,58.3511,61.9998,144.192,105.112,119.319,0.000807243,0.219378,20.7687,134.952,-1.16164,0.0,0.0
5628,1406.75,58.7969,62.1366,146.042,105.109,118.15,0.000940865,0.218144,20.7699,134.652,-1.0717,0.0,0.0
5649,1412,58.553,62.0311,140.889,105.108,119.943,0.000785764,0.219089,20.7706,134.362,-1.20981,0.0,0.0
5670,1417.25,58.5788,61.8866,143.382,105.105,118.864,0.000698181,0.220259,20.7685,134.081,-1.12726,0.0,0.0
5691,1422.5,58.3329,62.1346,142.636,105.098,116.945,0.0005081,0.222836,20.7651,133.731,-0.978806,0.0,0.0
5712,1427.75,58.4028,61.8329,144.985,105.069,117.918,0.000550171,0.22356,20.7639,133.451,-1.05721,0.0,0.0
5733,1433,58.5391,62.3154,144.653,105.052,120.282,0.000773704,0.222393,20.7647,133.111,-1.2406,0.0,0.0
5754,1438.25,58.7324,62.1782,147.33,105.034,119.149,0.000667345,0.219791,20.7661,132.8,-1.15543,0.0,0.0
5775,1443.5,59.0012,62.811,141.739,105.008,119.524,0.000845652,0.222098,20.7652,132.48,-1.1865,0.0,0.0
5796,1448.75,58.8359,62.3725,139.584,104.987,118.382,0.000774066,0.220403,20.7671,132.19,-1.10031,0.0,0.0
5817,1454,59.1448,62.2079,144.424,104.934,118.025,0.0009098,0.221287,20.7662,131.909,-1.07728,0.0,0.0
5838,1459.25,58.4459,62.5605,143.012,104.877,117.525,0.000653366,0.219919,20.7672,131.569,-1.04339,0.0,0.0
5859,1464.5,58.7509,62.1008,141.648,104.808,119.943,0.000858532,0.22183,20.764,131.279,-1.23601,0.0,0.0
5880,1469.75,58.7586,62.9581,142.045,104.735,118.239,0.000645239,0.221808,20.7629,130.989,-1.11132,0.0,0.0
5901,1475,58.932,62.5906,139.852,104.653,120.157,0.00037259,0.222434,20.7634,130.698,-1.26596,0.0,0.0
5922,1480.25,58.4679,62.2299,143.366,104.576,118.81,0.000613287,0.222195,20.7666,130.388,-1.16938,0.0,0.0
5943,1485.5,58.6532,62.603,145.525,104.519,116.508,0.0006995,0.220397,20.7684,130.068,-0.9951,0.0,0.0
5964,1490.75,59.0607,62.5941,139.369,104.416,118.15,0.00061558,0.219861,20.7693,129.788,-1.13233,0.0,0.0
5985,1496,59.1783,62.6426,143.25,104.342,119.907,0.000742146,0.219645,20.7695,129.517,-1.2741,0.0,0.0
6006,1501.25,58.9319,62.8374,142.405,104.28,118.034,0.000889297,0.22172,20.7674,129.217,-1.13524,0.0,0.0
6027,1506.5,59.4686,62.7429,142.495,104.206,118.739,0.000613456,0.222509,20.7659,128.887,-1.1963,0.0,0.0
6048,1511.75,59.3168,62.9543,143.76,104.226,117.909,0.000548526,0.220981,20.7668,128.717,-1.13032,0.0,0.0
6069,1517,58.8799,62.8384,141.29,104.368,117.133,0.000588269,0.223973,20.7638,128.316,-1.05729,0.0,0.0
6090,1522.25,59.194,62.8904,145.045,104.468,117.918,0.000729069,0.224842,20.7628,128.016,-1.10977,0.0,0.0
6111,1527.5,59.6801,62.9952,141.378,104.521,116.963,0.000627183,0.226617,20.761,127.716,-1.03067,0.0,0.0
6132,1532.75,59.1472,62.7716,142.167,104.577,118.765,0.000674966,0.226636,20.7612,127.425,-1.16579,0.0,0.0
6153,1538,59.1892,62.6311,144.813,104.606,117.275,0.000753324,0.224875,20.7611,127.125,-1.04757,0.0,0.0
6174,1543.25,59.046,62.7192,144.697,104.623,119.452,0.000977578,0.225042,20.7609,126.815,-1.21466,0.0,0.0
6195,1548.5,58.8121,62.3371,141.334,104.64,117.507,0.00050542,0.225135,20.761,126.505,-1.06278,0.0,0.0
6216,1553.75,58.7693,62.8173,141.98,104.617,118.025,0.00038704,0.227465,20.7591,126.184,-1.10498,0.0,0.0
6237,1559,59.2172,62.6711,142.116,104.591,119.702,0.000515823,0.228026,20.7583,125.894,-1.23656,0.0,0.0
6258,1564.25,59.2998,62.6726,144.002,104.562,116.722,0.000400501,0.226785,20.7579,125.604,-1.00816,0.0,0.0
6279,1569.5,59.0021,62.5427,143.799,104.523,118.007,0.000423495,0.227886,20.7562,125.283,-1.11186,0.0,0.0
6300,1574.75,59.3044,63.1491,142.951,104.452,118.15,0.000448448,0.229516,20.7543,124.963,-1.12916,0.0,0.0
6321,1580,59.5209,63.0052,145.068,104.383,117.936,0.000398197,0.229622,20.7539,124.673,-1.11858,0.0,0.0
6342,1585.25,59.4202,63.1545,142.162,104.263,117.632,0.000744849,0.231,20.753,124.423,-1.10555,0.0,0.0
6363,1590.5,59.5487,63.3842,143.289,104.139,116.954,0.000767141,0.230888,20.7519,124.142,-1.06349,0.0,0.0
6384,1595.75,59.5695,62.9479,140.864,104.036,116.526,0.000545198,0.23081,20.7512,123.842,-1.03893,0.0,0.0
6405,1601,59.6039,63.1878,140.129,103.913,117.142,0.000240661,0.232725,20.7512,123.502,-1.09804,0.0,0.0
6426,1606.25,59.554,63.326,143.901,103.82,117.258,0.000444616,0.231934,20.7512,123.202,-1.11528,0.0,0.0
6447,1611.5,59.813,63.7877,139.407,103.841,119.078,0.000555858,0.234242,20.7493,122.901,-1.25462,0.0,0.0
6468,1616.75,59.9744,63.8196,142.955,103.889,117.151,0.000466626,0.234453,20.7487,122.601,-1.10088,0.0,0.0
6489,1622,59.5104,63.2489,144.732,103.913,118.533,0.000528722,0.235007,20.7483,122.301,-1.20627,0.0,0.0
6510,1627.25,59.8245,63.5727,141.052,103.981,118.007,0.0006856,0.235808,20.7481,121.97,-1.15949,0.0,0.0
6531,1632.5,59.9023,63.8415,147.157,104.095,118.364,0.000425077,0.235747,20.7475,121.66,-1.17717,0.0,0.0
6552,1637.75,60.0622,63.6619,142.734,104.166,118.293,0.000653379,0.237726,20.7452,121.37,-1.16532,0.0,0.0
6573,1643,60.314,63.9062,141.499,104.269,117.882,0.000779273,0.237715,20.7422,121.07,-1.12443,0.0,0.0
6594,1648.25,60.2683,63.43,140.269,104.362,117.846,0.00111884,0.238704,20.743,120.729,-1.11352,0.0,0.0
6615,1653.5,60.267,63.8224,145.555,104.427,117.954,0.000912891,0.237157,20.7434,120.449,-1.11613,0.0,0.0
6636,1658.75,60.0382,63.789,141.408,104.478,118.623,0.00060459,0.239829,20.7419,120.149,-1.16345,0.0,0.0
6657,1664,60.5056,63.5129,140.974,104.54,118.658,0.000694726,0.243197,20.7426,119.809,-1.16077,0.0,0.0
6678,1669.25,60.3092,64.1332,143.792,104.532,118.953,0.000408758,0.242418,20.743,119.498,-1.18418,0.0,0.0
6699,1674.5,60.2908,63.8634,141.383,104.546,119.952,0.000327206,0.241979,20.742,119.168,-1.25961,0.0,0.0
6720,1679.75,60.85,63.842,141.297,104.529,118.819,0.000631942,0.24559,20.7391,118.878,-1.17417,0.0,0.0
6741,1685,60.7911,64.4751,143.458,104.477,119.087,0.00053337,0.243815,20.7393,118.547,-1.19937,0.0,0.0
6762,1690.25,60.5912,64.3811,143.539,104.403,119.791,0.000643995,0.246162,20.7361,118.207,-1.25993,0.0,0.0
6783,1695.5,60.547,64.6718,139.088,104.341,118.578,0.000671883,0.248191,20.7332,117.917,-1.17205,0.0,0.0
6804,1700.75,61.0657,64.6436,143.182,104.202,117.588,0.000790286,0.24871,20.7324,117.566,-1.10742,0.0,0.0
6825,1706,60.897,64.7701,145.907,104.059,117.704,0.000589267,0.251449,20.73,117.266,-1.12902,0.0,0.0
6846,1711.25,60.9276,64.7639,144.927,103.937,116.339,0.00048016,0.251509,20.7303,116.906,-1.03288,0.0,0.0
6867,1716.5,61.1712,64.6521,135.75,103.767,118.052,0.000670211,0.250872,20.731,116.586,-1.18185,0.0,0.0
6888,1721.75,61.3865,65.1167,144.452,103.633,117.615,0.00094257,0.254911,20.7283,116.245,-1.15969,0.0,0.0
6909,1727,61.4867,65.2375,141.522,103.503,117.962,0.000754549,0.255738,20.7265,115.905,-1.19823,0.0,0.0
6930,1732.25,61.5083,65.6215,140.148,103.394,118.774,0.000973407,0.256446,20.7251,115.545,-1.27075,0.0,0.0
6951,1737.5,61.7293,65.2211,143.416,103.304,116.803,0.000764102,0.257541,20.7231,115.254,-1.12535,0.0,0.0
6972,1742.75,61.7179,65.6019,141.42,103.279,119.006,0.0005715,0.256698,20.7232,114.954,-1.29888,0.0,0.0
6993,1748,61.5012,65.4398,139.692,103.279,117.73,0.000651137,0.259342,20.7213,114.564,-1.20008,0.0,0.0
7014,1753.25,62.0733,65.8938,141.064,103.327,117.882,0.000756505,0.259054,20.7225,114.243,-1.20765,0.0,0.0
7035,1758.5,62.093,66.1131,139.029,103.405,117.829,0.000902922,0.261685,20.7176,113.873,-1.19656,0.0,0.0
7056,1763.75,62.5308,66.4447,139.72,103.515,118.694,0.000720731,0.266086,20.7115,113.483,-1.25383,0.0,0.0
7077,1769,62.3911,66.327,144.275,103.662,118.337,0.0009592,0.265719,20.7126,113.142,-1.21326,0.0,0.0
7098,1774.25,62.3655,66.0961,135.591,103.851,119.765,0.000703252,0.266002,20.7119,112.782,-1.30647,0.0,0.0
7119,1779.5,62.3689,66.424,138.623,104.057,120.487,0.000698542,0.269289,20.7091,112.432,-1.34343,0.0,0.0
7140,1784.75,62.2591,66.6853,139.504,104.261,119.167,0.000849937,0.268145,20.7075,112.092,-1.2245,0.0,0.0
7161,1790,62.9434,66.9552,142.3,104.452,120.095,0.000960944,0.269025,20.7077,111.761,-1.27878,0.0,0.0
7182,1795.25,63.1941,66.7213,140.767,104.645,117.543,0.00111823,0.270238,20.7061,111.341,-1.06508,0.0,0.0
7203,1800.5,62.6322,66.6163,138.526,104.786,121.272,0.0011001,0.271785,20.7047,110.981,-1.33894,0.0,0.0
7224,1805.75,64.0514,67.5117,138.038,104.903,122.941,0.00122643,0.272029,20.7051,110.64,-1.45393,0.0,0.0
7245,1811,63.8352,67.3178,142.766,105.009,119.765,0.00106831,0.271793,20.7051,110.28,-1.2048,0.0,0.0
7266,1816.25,63.5855,67.7021,141.751,105.074,119.39,0.00066126,0.272775,20.7041,109.89,-1.17045,0.0,0.0
7287,1821.5,63.4079,67.7802,144.63,105.114,119.836,0.000681624,0.275527,20.7013,109.519,-1.20111,0.0,0.0
7308,1826.75,63.6943,67.7581,140.271,105.128,120.692,0.000654426,0.278338,20.6965,109.149,-1.26518,0.0,0.0
7329,1832,64.1672,67.8651,138.034,105.11,118.774,0.000628556,0.280701,20.6922,108.759,-1.11989,0.0,0.0
7350,1837.25,63.8988,67.9154,142.053,105.09,120.782,0.000675655,0.281435,20.6914,108.398,-1.27521,0.0,0.0
7371,1842.5,63.7687,67.8897,137.763,105.067,120.657,0.000948202,0.282176,20.69,108.008,-1.26777,0.0,0.0
7392,1847.75,64.2038,68.1775,143.149,104.994,120.041,0.00108622,0.283603,20.6902,107.627,-1.22731,0.0,0.0
7413,1853,64.206,68.4674,136.637,104.907,120.014,0.00091838,0.28504,20.6898,107.277,-1.23284,0.0,0.0
7434,1858.25,63.9294,68.4671,139.91,104.822,120.416,0.000644707,0.285722,20.6891,106.837,-1.27087,0.0,0.0
7455,1863.5,64.0247,68.3376,137.619,104.679,120.327,0.00129072,0.286707,20.6883,106.537,-1.27657,0.0,0.0
7476,1868.75,64.5925,68.2682,136.618,104.543,118.997,0.00146996,0.289855,20.6841,106.146,-1.18665,0.0,0.0
7497,1874,64.6681,68.8997,138.849,104.439,118.159,0.00110699,0.291152,20.6812,105.726,-1.13101,0.0,0.0
7518,1879.25,64.2564,69.0413,138.343,104.325,120.889,0.0010888,0.292759,20.6799,105.295,-1.35028,0.0,0.0
7539,1884.5,64.1261,69.4073,139.623,104.23,120.309,0.00105654,0.295198,20.677,104.905,-1.31459,0.0,0.0
7560,1889.75,65.0343,69.1027,140.292,104.26,119.015,0.00121051,0.296951,20.6755,104.515,-1.21291,0.0,0.0
7581,1895,65.3062,69.4771,139.275,104.438,119.64,0.00111664,0.294915,20.6781,104.124,-1.24526,0.0,0.0
7602,1900.25,65.3403,69.8939,140.834,104.553,119.658,0.000883107,0.297425,20.6749,103.714,-1.23653,0.0,0.0
7623,1905.5,65.5465,69.3841,142.634,104.624,118.596,0.000871752,0.299973,20.6703,103.274,-1.14864,0.0,0.0
7644,1910.75,64.7751,69.9071,138.05,104.665,119.693,0.000948451,0.300871,20.6708,102.883,-1.22943,0.0,0.0
7665,1916,65.4812,70.0143,140.846,104.634,120.068,0.0009833,0.302398,20.6686,102.483,-1.26075,0.0,0.0
7686,1921.25,65.3259,69.6815,137.755,104.542,122.771,0.00109015,0.305233,20.6658,102.052,-1.47289,0.0,0.0
7707,1926.5,65.7659,69.8556,135.496,104.424,119.684,0.00114684,0.306425,20.6654,101.702,-1.24984,0.0,0.0
7728,1931.75,66.2086,70.6853,139.1,104.233,118.872,0.00104792,0.305957,20.6644,101.222,-1.2043,0.0,0.0
7749,1937,65.6808,69.9892,139.11,104.018,118.944,0.000884494,0.307207,20.6621,100.851,-1.22869,0.0,0.0
7770,1942.25,66.0448,70.3749,139.857,103.875,119.167,0.000985601,0.307697,20.6605,100.411,-1.25845,0.0,0.0
7791,1947.5,65.6419,70.4122,142.447,103.839,118.435,0.00101224,0.310017,20.6602,99.9906,-1.20524,0.0,0.0
7812,1952.75,66.5317,70.9538,140.116,103.874,119.791,0.00106738,0.311832,20.6577,99.5602,-1.30642,0.0,0.0
7833,1958,66.4141,70.8758,137.819,103.923,119.113,0.000918989,0.314685,20.6525,99.1498,-1.25009,0.0,0.0
7854,1963.25,66.9032,71.0421,140.228,103.965,120.139,0.000947721,0.318342,20.6481,98.7194,-1.32501,0.0,0.0
7875,1968.5,67.0351,71.5538,137.15,104.015,119.363,0.00125972,0.318845,20.6469,98.3191,-1.26124,0.0,0.0
7896,1973.75,67.2498,71.4235,138.625,104.118,120.184,0.00106661,0.318587,20.6471,97.8987,-1.31494,0.0,0.0
7917,1979,67.3361,72.1141,138.578,104.173,121.736,0.000955235,0.319554,20.6467,97.4883,-1.42768,0.0,0.0
7938,1984.25,67.2245,71.7531,135.923,104.243,123.904,0.00126472,0.316892,20.6502,97.0179,-1.58327,0.0,0.0
7959,1989.5,67.3782,71.6004,141.567,104.335,121.299,0.00106349,0.316705,20.6479,96.6075,-1.38048,0.0,0.0
7980,1994.75,67.6247,72.1826,140.226,104.385,119.176,0.000581193,0.316579,20.6472,96.2372,-1.21425,0.0,0.0
8001,2000,67.6916,72.1848,139.358,104.434,118.81,0.000939156,0.315032,20.6475,95.8268,-1.18183,0.0,0.0
8022,2005.25,67.1334,71.4671,139.339,104.472,119.176,0.00112685,0.314239,20.6499,95.4264,-1.2066,0.0,0.0
8043,2010.5,67.4775,72.0956,142.519,104.494,117.954,0.000905996,0.311698,20.6529,95.0261,-1.11027,0.0,0.0
8064,2015.75,67.1313,71.9754,141.338,104.506,120.469,0.00123635,0.306969,20.6586,94.5857,-1.30259,0.0,0.0
8085,2021,67.3986,71.8744,142.569,104.528,121.237,0.00152102,0.302583,20.6638,94.2454,-1.35883,0.0,0.0
8106,2026.25,66.8796,71.5406,142.9,104.531,118.328,0.00126653,0.299856,20.6685,93.825,-1.13606,0.0,0.0
8127,2031.5,66.9009,71.4768,145.662,104.515,118.284,0.001202,0.297423,20.6701,93.4747,-1.13402,0.0,0.0
8148,2036.75,66.7189,71.3844,134.9,104.511,119.301,0.00132696,0.293702,20.6734,93.1143,-1.21285,0.0,0.0
8169,2042,66.5764,70.9441,140.307,104.506,119.435,0.00103829,0.294122,20.674,92.724,-1.22353,0.0,0.0
8190,2047.25,66.4632,71.0849,139.384,104.472,120.487,0.000794401,0.288699,20.6804,92.3236,-1.30689,0.0,0.0
8211,2052.5,66.3936,70.7952,140.604,104.435,120.068,0.00104928,0.284733,20.6839,91.9933,-1.27827,0.0,0.0
8232,2057.75,66.3257,70.6291,139.426,104.405,118.293,0.00125652,0.280092,20.6878,91.673,-1.14437,0.0,0.0
8253,2063,65.6933,70.2011,139.511,104.336,118.899,0.00109048,0.27643,20.6902,91.3127,-1.19725,0.0,0.0
8274,2068.25,65.6839,69.9733,141.199,104.269,118.212,0.00109562,0.273451,20.6923,91.0024,-1.15009,0.0,0.0
8295,2073.5,65.3765,69.9757,141.822,104.209,118.417,0.000978581,0.270336,20.6953,90.6721,-1.17129,0.0,0.0
8316,2078.75,65.2397,69.8126,141.033,104.091,118.007,0.000846893,0.264196,20.7027,90.3619,-1.14983,0.0,0.0
8337,2084,64.8253,69.4762,140.862,104.01,119.212,0.000902818,0.260307,20.7084,90.0616,-1.24996,0.0,0.0
8358,2089.25,64.0684,68.7009,141.113,103.936,116.08,0.000753976,0.254913,20.7151,89.7413,-1.01259,0.0,0.0
8379,2094.5,64.4498,68.394,137.468,103.806,118.248,0.000949896,0.250785,20.719,89.4911,-1.19359,0.0,0.0
8400,2099.75,64.5586,68.4778,141.265,103.697,117.044,0.00116128,0.244964,20.725,89.1908,-1.10946,0.0,0.0
8421,2105,63.4788,68.2017,143.571,103.613,117.936,0.00102428,0.240792,20.7296,88.9706,-1.18644,0.0,0.0
8442,2110.25,63.0045,67.8674,144.333,103.51,116.321,0.00102817,0.235325,20.7354,88.7404,-1.06925,0.0,0.0
8463,2115.5,63.0601,67.3507,141.189,103.435,118.988,0.00111639,0.228007,20.7434,88.5202,-1.28368,0.0,0.0
8484,2120.75,62.8066,66.7407,142.181,103.404,116.981,0.00101106,0.221948,20.7509,88.29,-1.13044,0.0,0.0
8505,2126,62.4447,66.5805,142.75,103.329,118.962,0.00121015,0.216713,20.754,88.0698,-1.291,0.0,0.0
8526,2131.25,61.5817,65.8522,145.501,103.288,118.56,0.00101461,0.214327,20.7558,87.8596,-1.26364,0.0,0.0
8547,2136.5,61.4707,65.9147,140.729,103.27,116.58,0.00146377,0.209323,20.7604,87.6794,-1.11089,0.0,0.0
8568,2141.75,61.1537,65.0005,143.866,103.232,114.67,0.00159589,0.20483,20.7651,87.4692,-0.962895,0.0,0.0
8589,2147,60.8084,64.5308,144.885,103.239,116.116,0.00150937,0.202512,20.7678,87.2991,-1.07703,0.0,0.0
8610,2152.25,59.9795,63.8907,145.26,103.251,115.045,0.00153539,0.201716,20.7692,87.1389,-0.991092,0.0,0.0
8631,2157.5,60.2307,63.7937,144.755,103.258,115.322,0.00165685,0.197678,20.771,86.9688,-1.01253,0.0,0.0
8652,2162.75,59.8271,63.6066,144.317,103.265,115.018,0.00199902,0.194496,20.7748,86.8086,-0.987754,0.0,0.0
8673,2168,59.0892,62.9182,145.405,103.297,116.258,0.00211956,0.190444,20.7816,86.6785,-1.08319,0.0,0.0
8694,2173.25,58.6165,62.236,144.172,103.357,116.312,0.0023043,0.187187,20.7847,86.4883,-1.0821,0.0,0.0
8715,2178.5,58.53,61.6986,142.73,103.38,115.777,0.0019244,0.184289,20.7893,86.3682,-1.03779,0.0,0.0
8736,2183.75,57.7056,61.3469,145.094,103.41,118.007,0.00212687,0.180099,20.7941,86.2982,-1.20997,0.0,0.0
8757,2189,57.5996,61.0693,143.595,103.419,115.634,0.00218622,0.176938,20.7976,86.118,-1.02299,0.0,0.0
8778,2194.25,56.9202,60.5788,148.926,103.402,116.767,0.00234538,0.17462,20.8013,85.9979,-1.11384,0.0,0.0
8799,2199.5,56.6926,59.6029,140.942,103.355,117.579,0.00250754,0.170929,20.805,85.8878,-1.18156,0.0,0.0
8820,2204.75,56.2123,60.1031,146.272,103.319,115.607,0.00217653,0.16971,20.8059,85.7877,-1.02972,0.0,0.0
8841,2210,56.2602,59.7009,148.409,103.259,116.214,0.00203495,0.167959,20.8077,85.6576,-1.08304,0.0,0.0
8862,2215.25,56.1495,59.3137,147.715,103.219,116.241,0.00246323,0.166051,20.8115,85.5275,-1.08865,0.0,0.0
8883,2220.5,55.5856,59.3204,141.583,103.246,115.625,0.00247077,0.169448,20.8077,85.4574,-1.03762,0.0,0.0
8904,2225.75,55.5505,58.5286,141.236,103.307,116.838,0.00239963,0.167425,20.8102,85.3573,-1.12792,0.0,0.0
8925,2231,55.5775,58.6119,143.619,103.435,114.438,0.00226871,0.162332,20.814,85.2572,-0.926362,0.0,0.0
8946,2236.25,54.8464,58.3589,146.06,103.618,116.044,0.00216196,0.163818,20.8147,85.1671,-1.03788,0.0,0.0
8967,2241.5,54.9651,58.0078,147.268,103.838,115.679,0.0022341,0.161239,20.8189,84.997,-0.989463,0.0,0.0
8988,2246.75,54.914,57.7607,143.508,104.061,116.258,0.00226806,0.157438,20.8226,84.9369,-1.01562,0.0,0.0
9009,2252,54.5737,57.6167,143.786,104.297,116.535,0.00210961,0.156712,20.8237,84.8268,-1.01668,0.0,0.0
9030,2257.25,54.3266,56.9339,146.902,104.458,117.49,0.00205421,0.156397,20.8232,84.7868,-1.07733,0.0,0.0
9051,2262.5,54.1778,57.2655,145.144,104.513,117.989,0.00217557,0.15645,20.8236,84.6367,-1.11133,0.0,0.0
9072,2267.75,54.2517,57.0067,146.686,104.473,116.499,0.00211616,0.151369,20.8293,84.5566,-0.998424,0.0,0.0
9093,2273,54.2111,57.0031,144.72,104.312,116.963,0.0022794,0.152778,20.8306,84.4965,-1.04894,0.0,0.0
9114,2278.25,54.101,56.7972,144.05,104.06,115.679,0.00244979,0.149353,20.8339,84.3264,-0.969905,0.0,0.0
9135,2283.5,53.7932,55.9152,145.229,103.904,116.187,0.00251411,0.145616,20.8392,84.3064,-1.02385,0.0,0.0
9156,2288.75,53.7553,56.1765,145.414,103.923,116.205,0.00239662,0.14756,20.8371,84.1863,-1.02357,0.0,0.0
9177,2294,52.8986,55.5963,144.63,104.322,116.035,0.00267936,0.149439,20.8348,84.0962,-0.975142,0.0,0.0
9198,2299.25,53.569,56.4415,144.195,104.619,116.722,0.00252283,0.146697,20.8378,84.0461,-1.00314,0.0,0.0
9219,2304.5,52.5448,55.4536,147.866,104.651,116.829,0.00228616,0.146643,20.8377,83.926,-1.00878,0.0,0.0
9240,2309.75,52.337,55.414,146.062,104.359,117.017,0.00236906,0.147087,20.8372,83.846,-1.04899,0.0,0.0
9261,2315,52.1852,54.7968,147.912,104.331,117.383,0.00251419,0.143794,20.8418,83.7759,-1.08013,0.0,0.0
9282,2320.25,51.9646,54.4761,142.557,104.613,117.766,0.00269005,0.144429,20.8425,83.6758,-1.08524,0.0,0.0
9303,2325.5,52.0566,54.5442,146.406,104.914,117.909,0.00258426,0.141921,20.845,83.5957,-1.07002,0.0,0.0
9324,2330.75,52.1352,54.6019,143.511,105.096,116.803,0.00275366,0.141969,20.8449,83.5157,-0.9678,0.0,0.0
9345,2336,51.7824,54.1067,147.531,105.111,116.892,0.00263985,0.142652,20.843,83.4356,-0.973462,0.0,0.0
9366,2341.25,51.6731,54.6255,142.454,104.881,116.838,0.00276797,0.142924,20.8432,83.3555,-0.98937,0.0,0.0
9387,2346.5,51.6943,53.8286,146.123,104.478,115.991,0.00257471,0.142127,20.8436,83.2754,-0.957852,0.0,0.0
9408,2351.75,51.7046,54.0378,149.655,103.957,115.563,0.00260661,0.140357,20.8454,83.2254,-0.969775,0.0,0.0
9429,2357,51.2806,53.5982,146.969,103.505,116.285,0.00265958,0.139419,20.8485,83.1253,-1.06685,0.0,0.0
9450,2362.25,51.3638,53.7239,149.258,103.271,115.152,0.00258338,0.14107,20.8475,83.0753,-0.997882,0.0,0.0
9471,2367.5,51.3224,53.8981,148.199,103.393,114.867,0.00230397,0.140324,20.8474,82.9852,-0.964279,0.0,0.0
9492,2372.75,51.3926,53.4168,146.695,103.73,115.081,0.00222449,0.139189,20.85,82.9251,-0.951522,0.0,0.0
9513,2378,51.545,53.9582,148.725,104.186,117.052,0.00239459,0.138541,20.8516,82.825,-1.06699,0.0,0.0
9534,2383.25,51.0134,53.7713,144.197,104.496,116.205,0.00264669,0.139138,20.8513,82.795,-0.973224,0.0,0.0
9555,2388.5,50.9078,53.4516,144.64,104.513,116.713,0.00270826,0.140242,20.851,82.745,-1.01171,0.0,0.0
9576,2393.75,50.5354,53.31,145.388,104.249,116.597,0.0030541,0.138958,20.8501,82.6449,-1.02577,0.0,0.0
9597,2399,50.6888,53.5412,148.407,103.897,114.697,0.00261544,0.13838,20.8517,82.5848,-0.906254,0.0,0.0
9618,2404.25,50.1502,52.7807,145.833,104.171,114.822,0.00272698,0.1386,20.8513,82.4947,-0.89208,0.0,0.0
9639,2409.5,50.5355,53.2425,147.8,104.61,115.598,0.00261164,0.137617,20.8517,82.4147,-0.915238,0.0,0.0
9660,2414.75,51.1698,53.5011,145.553,104.453,116.856,,,,82.3846,-1.02824,0.0,0.0
9681,2420,51.1666,53.4079,146.43,104.359,115.75,,,,82.2945,-0.949283,0.0,0.0
9683,2420.5,50.8453,53.4144,147.536,104.395,115.518,,,,82.2945,-0.927729,0.0,0.0