File: 01_Data/Wood_Stud/Cone/Wood_Stud_Cone_HF25Scan_221004_R2.csv
Names,Time,Stack TC,Smoke TC,Exh Press,Smoke Comp,Smoke Meas,CO Meter,CO2 Meter,O2 Meter,Sample Mass,Ext Coeff,Start Test,Flame Verif
Chan Gain,,500,500,1,1,1,1,1,1,1,1,1.0,1.0
Offset,,0,0,0.140306,0,0,0,0,0,0,0,0.0,0.0
Gain,,1,1,25.011,14.0162,15.5607,1,1,1,1.0009,1.02981,1.0,1.0
Units,sec,C,C,Pa,%,%,%,%,%,g,/m,,
Baseline,,20.2478,21.027,157.767,104.579,5.39114,-0.000586187,0.0820809,20.973,-2.96342,26.7859,,
26,6.25,19.6881,20.4333,156.54,104.59,5.38082,-0.000357394,0.0890834,20.9614,674.189,26.8041,0.0,0.0
52,12.75,20.0758,20.7009,156.265,104.956,5.40456,-0.00036028,0.0892198,20.9631,674.088,26.7958,0.0,0.0
78,19.25,19.5965,20.6072,158.222,104.892,5.35802,-0.000593823,0.0918101,20.9599,673.998,26.8685,0.0,0.0
104,25.75,19.8763,21.2067,156.084,104.542,5.34805,-0.000673536,0.0877031,20.9631,673.918,26.8552,0.0,0.0
130,32.25,19.9391,20.9677,155.931,104.561,5.36419,-0.000553595,0.0850646,20.9657,673.818,26.8296,0.0,0.0
156,38.75,20.1149,20.9145,161.589,104.789,5.33713,-0.000626664,0.0853592,20.9657,673.738,26.8949,0.0,0.0
182,45.25,19.7486,20.4573,154.883,105.044,5.37559,-0.000772522,0.0874398,20.9607,673.648,26.852,0.0,0.0
208,51.75,20.0097,21.2975,154.786,105.211,5.42925,-0.000304629,0.0866714,20.9658,673.558,26.7766,0.0,0.0
234,58.25,20.2568,20.9774,156.263,105.326,5.35375,-0.000515069,0.0879344,20.9646,673.428,26.913,0.0,0.0
260,64.75,20.2087,21.1066,159.437,105.329,5.34283,-0.000166282,0.0877121,20.9638,673.348,26.9317,0.0,0.0
286,71.25,20.6423,21.7764,160.184,105.272,5.34473,0.000173778,0.0862786,20.9658,673.198,26.9236,0.0,0.0
312,77.75,19.79,21.466,156.193,105.113,5.27682,-9.84169e-05,0.0878531,20.962,673.097,27.0255,0.0,0.0
338,84.25,20.3809,21.021,158.646,104.904,5.28916,0.000426285,0.0895871,20.961,672.937,26.9864,0.0,0.0
364,90.75,20.372,21.423,154.968,104.626,5.27444,0.000556985,0.0924453,20.956,672.807,26.9876,0.0,0.0
390,97.25,20.2357,21.2564,159.3,104.331,5.264,0.00124708,0.094311,20.9557,672.657,26.98,0.0,0.0
416,103.75,20.7542,21.5897,156.356,104.042,5.22173,0.00120032,0.0925545,20.9579,672.487,27.0277,0.0,0.0
442,110.25,20.5302,21.5781,156.262,103.786,5.21461,0.00131191,0.0913488,20.9595,672.337,27.0178,0.0,0.0
468,116.75,20.4956,21.7709,155.923,103.557,5.11773,0.00144809,0.0891788,20.9616,672.167,27.1672,0.0,0.0
494,123.25,20.8839,21.8935,155.051,103.429,5.1429,0.00208901,0.0907216,20.9603,671.977,27.1118,0.0,0.0
520,129.75,20.7873,20.9177,158.278,103.344,5.16665,0.00192558,0.0918826,20.9602,671.816,27.0628,0.0,0.0
546,136.25,20.3205,21.7094,159.848,103.341,5.15715,0.00224575,0.0936448,20.9589,671.616,27.0791,0.0,0.0
572,142.75,21.123,21.6459,154.066,103.34,5.1372,0.00223919,0.0944181,20.9582,671.436,27.114,0.0,0.0
598,149.25,20.8694,21.8034,157.45,103.371,5.10919,0.00266448,0.0990219,20.9542,671.256,27.1661,0.0,0.0
624,155.75,24.8015,24.6458,128.798,103.427,5.69851,0.00386745,0.471711,20.4985,670.145,26.1849,0.0,1.0
650,162.25,32.2647,31.1269,135.202,103.51,5.75787,0.00336322,0.568826,20.3778,669.024,26.0985,0.0,0.0
676,168.75,34.7919,35.4546,137.181,103.618,5.79301,0.00264251,0.461484,20.5145,668.163,26.053,0.0,0.0
702,175.25,37.5339,37.61,144.678,103.725,5.59736,0.00250271,0.407876,20.5838,667.382,26.3726,0.0,0.0
728,181.75,37.7634,39.6556,142.451,103.838,5.65767,0.00198367,0.366054,20.6336,666.722,26.2857,0.0,0.0
754,188.25,38.5428,40.2268,141.62,103.956,5.64057,0.00139256,0.340245,20.664,666.081,26.3233,0.0,0.0
780,194.75,39.0076,40.764,148.991,104.02,5.61066,0.00105191,0.32232,20.685,665.421,26.3769,0.0,0.0
806,201.25,38.9771,41.408,148.399,104.042,5.71228,0.000668101,0.301364,20.7118,664.91,26.2166,0.0,0.0
832,207.75,38.8823,41.2385,147.758,104.01,5.69281,0.0010605,0.284422,20.7309,664.32,26.2447,0.0,0.0
858,214.25,38.1148,41.0358,147.673,104.018,5.63107,0.00105569,0.270906,20.7465,663.849,26.3439,0.0,0.0
884,220.75,37.578,40.7306,150.993,104.042,5.7099,0.00106646,0.265427,20.7513,663.379,26.2204,0.0,0.0
910,227.25,37.6832,40.8719,150.363,104.034,5.6325,0.0012619,0.259336,20.7576,662.898,26.343,0.0,0.0
936,233.75,37.0412,40.2819,147.748,103.979,5.66717,0.00130349,0.253588,20.7624,662.468,26.2828,0.0,0.0
962,240.25,36.691,39.4498,150.138,103.881,5.65244,0.000818851,0.249129,20.7677,662.038,26.2978,0.0,0.0
988,246.75,35.6332,39.5575,150.134,103.774,5.73697,0.000698553,0.245297,20.7739,661.617,26.1544,0.0,0.0
1014,253.25,35.8351,39.1283,152.872,103.655,5.67286,0.000985454,0.242227,20.778,661.197,26.2456,0.0,0.0
1040,259.75,35.8719,38.4939,150.297,103.548,5.64105,0.00094103,0.240944,20.7789,660.786,26.287,0.0,0.0
1066,266.25,35.1679,38.3768,147.957,103.445,5.66717,0.00104948,0.240498,20.7791,660.386,26.2363,0.0,0.0
1092,272.75,35.2547,38.3887,152.027,103.364,5.62775,0.000986972,0.238867,20.7828,659.966,26.2923,0.0,0.0
1118,279.25,35.0515,38.4579,155.086,103.344,5.59926,0.000816452,0.235627,20.7865,659.575,26.3363,0.0,0.0
1144,285.75,34.3688,37.6796,152.195,103.354,5.64105,0.00140085,0.233102,20.7891,659.145,26.27,0.0,0.0
1170,292.25,34.7704,37.5715,149.972,103.413,5.67001,0.00134182,0.232043,20.7899,658.785,26.2289,0.0,0.0
1196,298.75,34.2706,37.0641,149.635,103.505,5.6249,0.0014419,0.23035,20.7919,658.384,26.3092,0.0,0.0
1222,305.25,34.0698,36.9802,152.759,103.619,5.65814,0.00126427,0.230056,20.7943,657.994,26.2659,0.0,0.0
1248,311.75,34.1767,36.464,150.105,103.804,5.63392,0.00160096,0.228291,20.795,657.604,26.3207,0.0,0.0
1274,318.25,33.9265,36.9969,153.741,104.003,5.6173,0.00145224,0.227005,20.7966,657.233,26.3648,0.0,0.0
1300,324.75,33.6236,36.664,152.212,104.234,5.68616,0.00137578,0.228871,20.7942,656.863,26.2747,0.0,0.0
1326,331.25,32.9703,36.4798,148.1,104.485,5.71275,0.0015027,0.228443,20.7961,656.513,26.2543,0.0,0.0
1352,337.75,33.9303,36.7084,150.388,104.698,5.7118,0.00171793,0.227862,20.7961,656.132,26.2742,0.0,0.0
1378,344.25,33.401,36.3388,146.437,104.895,5.7175,0.00177453,0.229383,20.7917,655.762,26.2821,0.0,0.0
1404,350.75,33.7111,35.902,151.005,105.05,5.78351,0.00177365,0.226753,20.798,655.392,26.1918,0.0,0.0
1430,357.25,33.0691,35.8577,149.737,105.197,5.77401,0.00160432,0.224276,20.8002,655.031,26.2193,0.0,0.0
1456,363.75,33.07,35.8458,146.616,105.304,5.77591,0.00170016,0.222057,20.804,654.681,26.2255,0.0,0.0
1482,370.25,33.4175,35.6928,150.85,105.356,5.7365,0.00176427,0.221786,20.8048,654.311,26.2918,0.0,0.0
1508,376.75,33.1749,35.7097,154.56,105.343,5.65672,0.00214705,0.221388,20.8042,653.97,26.4172,0.0,0.0
1534,383.25,32.7212,34.9888,149.247,105.264,5.72937,0.00223743,0.220801,20.8019,653.63,26.2952,0.0,0.0
1560,389.75,32.7115,35.2305,150.64,105.178,5.73175,0.00223397,0.22136,20.801,653.29,26.284,0.0,0.0
1586,396.25,32.5269,34.7724,152.576,105.051,5.71133,0.00236361,0.221903,20.7999,652.939,26.3054,0.0,0.0
1612,402.75,32.9787,35.1655,150.088,104.915,5.69091,0.00274176,0.22367,20.7988,652.599,26.326,0.0,0.0
1638,409.25,32.6743,34.8406,147.725,104.791,5.69186,0.00219012,0.221076,20.8042,652.239,26.3137,0.0,0.0
1664,415.75,32.7397,34.9041,155.044,104.661,5.63725,0.00244447,0.219737,20.8045,651.888,26.3897,0.0,0.0
1690,422.25,32.4335,34.7271,150.146,104.574,5.68426,0.00247563,0.219801,20.8052,651.558,26.3071,0.0,0.0
1716,428.75,32.377,34.8669,149.73,104.478,5.68426,0.0027731,0.220139,20.8026,651.208,26.2989,0.0,0.0
1742,435.25,32.7516,34.5392,151.128,104.603,5.68379,0.00279701,0.21892,20.8046,650.867,26.3104,0.0,0.0
1768,441.75,32.8547,34.8681,151.817,104.796,5.70326,0.00297505,0.216197,20.8107,650.517,26.2961,0.0,0.0
1794,448.25,32.3735,34.4802,149.058,104.935,5.71703,0.00311091,0.216698,20.8094,650.187,26.2863,0.0,0.0
1820,454.75,32.4199,34.5444,152.328,104.99,5.74694,0.00303734,0.217491,20.8077,649.847,26.2439,0.0,0.0
1846,461.25,32.4973,34.6701,150.844,104.879,5.67381,0.00306211,0.217122,20.8091,649.526,26.35,0.0,0.0
1872,467.75,32.0954,34.5355,153.191,104.647,5.69803,0.00299666,0.214907,20.8092,649.176,26.2916,0.0,0.0
1898,474.25,31.7401,33.8524,152.827,104.279,5.65102,0.00321403,0.211094,20.8131,648.846,26.3346,0.0,0.0
1924,480.75,32.1807,33.7458,150.7,104.095,5.64817,0.00361336,0.208878,20.8166,648.525,26.3232,0.0,0.0
1950,487.25,32.0517,33.7681,154.218,104.197,5.67951,0.00411188,0.210006,20.8159,648.195,26.2821,0.0,0.0
1976,493.75,31.8062,33.6131,150.466,104.31,5.60828,0.00455501,0.205923,20.8208,647.895,26.4058,0.0,0.0
2002,500.25,31.1568,34.0784,149.915,104.436,5.64437,0.00436102,0.204304,20.8222,647.574,26.3588,0.0,0.0
2028,506.75,31.7263,33.7432,147.565,104.573,5.63867,0.00416201,0.201645,20.8245,647.244,26.3798,0.0,0.0
2054,513.25,31.755,33.237,153.358,104.661,5.61066,0.00437967,0.20296,20.8238,646.934,26.4323,0.0,0.0
2080,519.75,31.257,33.4531,151.646,104.652,5.67334,0.00431196,0.201187,20.8246,646.624,26.3312,0.0,0.0
2106,526.25,31.4119,33.143,150.64,104.533,5.66004,0.00414341,0.202166,20.8225,646.313,26.3421,0.0,0.0
2132,532.75,30.8756,32.6911,149.191,104.329,5.60733,0.0039717,0.20045,20.8249,646.023,26.4091,0.0,0.0
2158,539.25,31.1114,32.7698,156.35,104.032,5.65862,0.00421411,0.201084,20.8253,645.703,26.301,0.0,0.0
2184,545.75,31.1081,32.741,155.331,103.739,5.58501,0.00458552,0.200397,20.8252,645.383,26.3938,0.0,0.0
2210,552.25,31.0457,32.7326,148.672,103.472,5.57741,0.00498642,0.198475,20.8264,645.092,26.3829,0.0,0.0
2236,558.75,30.7073,32.4412,151.597,103.325,5.57504,0.00498429,0.197295,20.829,644.802,26.3739,0.0,0.0
2262,565.25,30.874,32.2986,152.046,103.332,5.55747,0.00503564,0.197318,20.8288,644.502,26.4029,0.0,0.0
2288,571.75,30.5043,31.9953,148.972,103.503,5.60591,0.00473005,0.19963,20.8259,644.181,26.3395,0.0,0.0
2314,578.25,30.8932,31.9366,152.899,103.825,5.59403,0.00454974,0.198208,20.826,643.871,26.3867,0.0,0.0
2340,584.75,30.803,32.3253,151.155,104.171,5.63582,0.00477173,0.197639,20.8278,643.561,26.3495,0.0,0.0
2366,591.25,30.6541,32.1556,150.946,104.514,5.63772,0.00398953,0.200111,20.8264,643.261,26.3762,0.0,0.0
2392,597.75,30.6775,32.1368,151.383,104.801,5.66574,0.00417257,0.199676,20.8261,642.95,26.3562,0.0,0.0
2418,604.25,30.9415,32.6572,154.048,105.016,5.67714,0.00419562,0.199624,20.8224,642.66,26.3565,0.0,0.0
2444,610.75,30.9121,32.1057,152.801,105.206,5.66906,0.00409039,0.20064,20.8208,642.34,26.3857,0.0,0.0
2470,617.25,30.9213,32.7373,153.133,105.327,5.72653,0.00424865,0.198452,20.8226,642.039,26.3051,0.0,0.0
2496,623.75,30.9372,32.2191,152.782,105.353,5.62775,0.0048113,0.197522,20.824,641.749,26.4644,0.0,0.0
2522,630.25,30.4178,31.9043,154.259,105.313,5.63677,0.00486968,0.196122,20.828,641.459,26.4465,0.0,0.0
2548,636.75,30.1401,31.8896,149.469,105.214,5.6439,0.00506057,0.195076,20.8301,641.149,26.4266,0.0,0.0
2574,643.25,30.522,31.9561,146.899,105.055,5.66337,0.00545051,0.193511,20.8326,640.858,26.3818,0.0,0.0
2600,649.75,30.4584,31.8416,150.005,104.84,5.66622,0.00498487,0.195324,20.8287,640.568,26.3588,0.0,0.0
2626,656.25,30.1492,31.9843,150.34,104.637,5.64912,0.00632885,0.190647,20.8313,640.248,26.3685,0.0,0.0
2652,662.75,30.2336,32.03,151.017,104.471,5.58501,0.00572161,0.192379,20.8301,639.968,26.4573,0.0,0.0
2678,669.25,29.6594,31.0776,155.758,104.76,5.69043,0.00422552,0.199798,20.8222,639.647,26.3134,0.0,0.0
2704,675.75,30.7268,31.9447,150.658,104.973,5.64437,0.00416562,0.202379,20.8197,639.327,26.4051,0.0,0.0
2730,682.25,30.696,32.0458,153.653,104.961,5.63202,0.00372097,0.202418,20.8207,639.047,26.4239,0.0,0.0
2756,688.75,30.6133,31.7575,152.407,104.782,5.72035,0.00349389,0.203074,20.8206,638.736,26.2679,0.0,0.0
2782,695.25,30.2939,32.1425,150.987,104.362,5.66432,0.0034239,0.205623,20.8173,638.396,26.3205,0.0,0.0
2808,701.75,30.9721,32.1116,150.975,104.097,5.59688,0.00307651,0.207006,20.8156,638.086,26.4058,0.0,0.0
2834,708.25,30.5745,32.2184,148.862,104.207,5.63725,0.00338774,0.208837,20.8128,637.766,26.3504,0.0,0.0
2860,714.75,31.2247,32.5379,151.593,104.337,5.59878,0.00321951,0.208221,20.8142,637.435,26.4235,0.0,0.0
2886,721.25,30.8229,32.2311,151.473,104.465,5.70136,0.00320801,0.210279,20.8119,637.125,26.2705,0.0,0.0
2912,727.75,31.1605,32.2456,147.919,104.584,5.70516,0.00295982,0.209894,20.8129,636.795,26.2748,0.0,0.0
2938,734.25,31.2868,32.4333,148.717,104.644,5.63915,0.00312794,0.208773,20.8133,636.474,26.3852,0.0,0.0
2964,740.75,31.2885,32.5759,153.787,104.598,5.66906,0.00305924,0.209576,20.8129,636.154,26.3334,0.0,0.0
2990,747.25,31.0484,33.1416,151.775,104.478,5.66906,0.00289897,0.212898,20.809,635.814,26.323,0.0,0.0
3016,753.75,31.6466,33.1585,148.908,104.282,5.65434,0.00256097,0.214331,20.8089,635.484,26.3295,0.0,0.0
3042,760.25,31.5322,33.1644,153.247,104.03,5.62775,0.00273623,0.213039,20.8095,635.153,26.3502,0.0,0.0
3068,766.75,31.465,33.1344,150.224,103.818,5.61303,0.00276344,0.211662,20.8129,634.843,26.3555,0.0,0.0
3094,773.25,31.9705,33.3741,155.261,103.597,5.64342,0.00275347,0.210688,20.8155,634.513,26.2874,0.0,0.0
3120,779.75,31.968,33.3895,152.758,103.43,5.64865,0.00264005,0.208699,20.8166,634.192,26.2645,0.0,0.0
3146,786.25,32.2742,32.9626,151.276,103.328,5.59926,0.00244641,0.208877,20.8147,633.862,26.3349,0.0,0.0
3172,792.75,32.3105,33.6299,153.498,103.237,5.5456,0.00276038,0.211529,20.8123,633.522,26.4139,0.0,0.0
3198,799.25,31.4179,33.0275,154.144,103.306,5.63962,0.00260543,0.210809,20.8131,633.232,26.2682,0.0,0.0
3224,805.75,31.6437,33.2184,151.083,103.449,5.58739,0.00301634,0.206977,20.8174,632.921,26.3647,0.0,0.0
3250,812.25,31.5441,32.9901,150.846,103.656,5.67049,0.00293867,0.20594,20.8187,632.591,26.2494,0.0,0.0
3276,818.75,31.8272,33.3855,152.147,103.933,5.6477,0.0029286,0.206008,20.8162,632.271,26.3099,0.0,0.0
3302,825.25,31.4787,33.2819,151.749,104.227,5.6306,0.00324191,0.206571,20.8169,631.96,26.3628,0.0,0.0
3328,831.75,31.6159,33.3919,149.934,104.526,5.68901,0.00334815,0.205074,20.8194,631.65,26.2955,0.0,0.0
3354,838.25,31.3695,33.1652,152.342,104.776,5.69376,0.00348369,0.204914,20.82,631.35,26.3094,0.0,0.0
3380,844.75,31.809,33.192,155.541,105.006,5.68711,0.00315409,0.202543,20.8218,631.03,26.3398,0.0,0.0
3406,851.25,31.4947,33.4028,153.806,105.16,5.69898,0.00311308,0.200429,20.8242,630.729,26.3342,0.0,0.0
3432,857.75,31.3522,33.1121,152.11,105.284,5.72273,0.00283915,0.201911,20.8217,630.429,26.3073,0.0,0.0
3458,864.25,31.2213,32.9453,152.307,105.334,5.7251,0.00319075,0.20111,20.8232,630.119,26.3079,0.0,0.0
3484,870.75,31.101,32.5041,148.212,105.306,5.75027,0.00345686,0.199716,20.8226,629.808,26.2659,0.0,0.0
3510,877.25,31.0944,32.5665,157.225,105.238,5.75122,0.00350948,0.200679,20.823,629.518,26.2585,0.0,0.0
3536,883.75,30.962,32.346,152.036,105.091,5.66527,0.00356797,0.201388,20.8217,629.218,26.3819,0.0,0.0
3562,890.25,30.8084,32.3426,151.776,104.899,5.65529,0.00366213,0.200198,20.8226,628.898,26.3813,0.0,0.0
3588,896.75,30.8188,32.2118,151.512,104.711,5.67429,0.00357416,0.199246,20.8236,628.607,26.3348,0.0,0.0
3614,903.25,31.04,32.3684,152.426,104.541,5.61588,0.00397476,0.199391,20.8244,628.317,26.4136,0.0,0.0
3640,909.75,30.8061,32.438,155.558,104.461,5.68664,0.00354846,0.198957,20.8246,627.987,26.2936,0.0,0.0
3666,916.25,30.6109,32.3612,151.241,104.681,5.70658,0.00350785,0.198918,20.8246,627.677,26.281,0.0,0.0
3692,922.75,30.6177,32.1626,150.385,104.867,5.62253,0.00378573,0.198763,20.8247,627.356,26.431,0.0,0.0
3718,929.25,30.5107,32.1172,154.099,104.977,5.73887,0.00381896,0.197575,20.8293,627.066,26.2555,0.0,0.0
3744,935.75,30.5154,32.5196,151.704,105.005,5.7232,0.00380019,0.202657,20.8259,626.786,26.2826,0.0,0.0
3770,942.25,30.4551,32.1579,153.459,104.942,5.67096,0.00387445,0.206446,20.8208,626.485,26.3601,0.0,0.0
3796,948.75,30.8523,32.4821,150.45,104.772,5.65149,0.00355116,0.209874,20.8159,626.165,26.3764,0.0,0.0
3822,955.25,30.5873,32.704,154.895,104.523,5.64152,0.00348477,0.208026,20.8152,625.855,26.3709,0.0,0.0
3848,961.75,30.7116,32.3164,151.633,104.17,5.6496,0.00356844,0.206436,20.8164,625.555,26.3274,0.0,0.0
3874,968.25,31.0487,32.3172,153.45,104.134,5.64057,0.00399456,0.205049,20.8171,625.244,26.3387,0.0,0.0
3900,974.75,30.3391,32.0053,154.451,104.207,5.60733,0.00410579,0.202894,20.8184,624.944,26.3984,0.0,0.0
3926,981.25,30.6389,31.9691,151.636,104.302,5.59071,0.00348922,0.199989,20.8228,624.634,26.4335,0.0,0.0
3952,987.75,31.287,31.856,156.205,104.426,5.59546,0.00378839,0.196941,20.8275,624.323,26.4366,0.0,0.0
3978,994.25,30.6916,32.3941,152.997,104.486,5.67666,0.00390532,0.199003,20.8247,624.053,26.3116,0.0,0.0
4004,1000.75,30.3731,32.0355,148.409,104.573,5.66479,0.00400004,0.201833,20.8208,623.733,26.338,0.0,0.0
4030,1007.25,31.0591,32.3258,149.624,104.607,5.69803,0.00392725,0.203799,20.82,623.433,26.2881,0.0,0.0
4056,1013.75,30.2973,31.9164,148.959,104.601,5.6401,0.00393842,0.20243,20.8216,623.132,26.3799,0.0,0.0
4082,1020.25,30.5088,32.3192,149.214,104.571,5.61445,0.00402828,0.2016,20.8221,622.822,26.4185,0.0,0.0
4108,1026.75,30.8353,32.314,150.078,104.511,5.68094,0.00433105,0.197176,20.8287,622.522,26.307,0.0,0.0
4134,1033.25,30.3441,31.882,152.478,104.465,5.65387,0.00440151,0.198532,20.8257,622.212,26.3461,0.0,0.0
4160,1039.75,30.4326,31.8771,150.248,104.404,5.59973,0.00427337,0.201693,20.8239,621.901,26.4278,0.0,0.0
4186,1046.25,30.6858,32.2532,151.758,104.343,5.66432,0.00439346,0.203922,20.8226,621.601,26.3189,0.0,0.0
4212,1052.75,30.941,32.1691,154.005,104.27,5.61018,0.0041206,0.201929,20.8235,621.281,26.3994,0.0,0.0
4238,1059.25,30.9228,32.2784,152.882,104.202,5.62395,0.00395947,0.200845,20.8243,620.95,26.3713,0.0,0.0
4264,1065.75,30.376,31.5835,151.692,104.148,5.58169,0.00420209,0.202236,20.8214,620.65,26.4347,0.0,0.0
4290,1072.25,30.6933,32.2472,153.289,104.045,5.70278,0.00445398,0.203404,20.8197,620.35,26.2319,0.0,0.0
4316,1078.75,30.4135,31.7604,151.117,103.941,5.61256,0.00493417,0.200884,20.8236,620.03,26.367,0.0,0.0
4342,1085.25,30.3146,32.2322,152.029,103.817,5.56602,0.00413486,0.201216,20.8242,619.709,26.4314,0.0,0.0
4368,1091.75,30.597,31.7414,155.682,103.668,5.55035,0.0040518,0.20614,20.8184,619.419,26.4439,0.0,0.0
4394,1098.25,30.7898,32.2145,149.042,103.534,5.56649,0.00453423,0.202201,20.8213,619.099,26.406,0.0,0.0
4420,1104.75,30.6385,32.2732,150.608,103.418,5.57694,0.00472122,0.199989,20.8226,618.809,26.3789,0.0,0.0
4446,1111.25,30.2842,31.6252,149.832,103.353,5.59451,0.004458,0.19843,20.8269,618.488,26.3448,0.0,0.0
4472,1117.75,30.4155,31.6966,150.29,103.312,5.56174,0.00543034,0.19606,20.8287,618.198,26.3943,0.0,0.0
4498,1124.25,30.4463,31.741,153.232,103.29,5.59356,0.00500629,0.194198,20.8322,617.868,26.3408,0.0,0.0
4524,1130.75,30.2778,31.7152,157.217,103.295,5.56459,0.0048815,0.193534,20.8325,617.577,26.3882,0.0,0.0
4550,1137.25,29.9384,31.5248,154.196,103.356,5.66574,0.00497634,0.19481,20.8299,617.267,26.2308,0.0,0.0
4576,1143.75,30.4503,32.0302,154.522,103.456,5.56934,0.00525537,0.192457,20.832,616.997,26.3945,0.0,0.0
4602,1150.25,30.3949,32.2254,152.502,103.625,5.6306,0.00506409,0.191394,20.834,616.717,26.3105,0.0,0.0
4628,1156.75,30.657,31.9061,151.978,103.87,5.57789,0.00491302,0.190109,20.8382,616.376,26.4168,0.0,0.0
4654,1163.25,30.341,31.6027,151.352,104.132,5.56839,0.00507416,0.187874,20.8399,616.086,26.4549,0.0,0.0
4680,1169.75,30.1529,31.7869,151.343,104.384,5.642,0.00579146,0.185021,20.8444,615.766,26.3581,0.0,0.0
4706,1176.25,30.3181,31.6908,147.567,104.573,5.7289,0.00674586,0.182462,20.8495,615.485,26.2364,0.0,0.0
4732,1182.75,30.5715,31.8135,155.012,104.587,5.68379,0.00675253,0.180064,20.8522,615.155,26.309,0.0,0.0
4758,1189.25,30.4188,32.1247,151.194,104.429,5.708,0.00651673,0.181926,20.8512,614.875,26.2569,0.0,0.0
4784,1195.75,30.4874,31.9648,153.486,104.195,5.6401,0.0066039,0.181412,20.8511,614.595,26.3448,0.0,0.0
4810,1202.25,30.3958,32.103,149.494,104.275,5.7308,0.00639544,0.177877,20.8545,614.244,26.2076,0.0,0.0
4836,1208.75,29.9565,31.5623,153.325,104.922,5.72273,0.00621049,0.181261,20.8493,613.974,26.2762,0.0,0.0
4862,1215.25,30.6031,32.0985,151.218,104.925,5.74694,0.00609342,0.180748,20.8518,613.674,26.2383,0.0,0.0
4888,1221.75,31.111,32.2668,148.079,104.497,5.73222,0.00607233,0.181106,20.8505,613.334,26.2245,0.0,0.0
4914,1228.25,30.6617,32.0613,153.114,104.855,5.66052,0.00600179,0.181146,20.8524,613.053,26.3692,0.0,0.0
4940,1234.75,30.6615,32.0832,152.321,105.227,5.75074,0.00624748,0.177842,20.8568,612.763,26.2583,0.0,0.0
4966,1241.25,30.2579,31.8962,154.269,105.325,5.69328,0.00595842,0.180105,20.8525,612.433,26.3575,0.0,0.0
4992,1247.75,29.9867,31.4348,152.939,104.94,5.74457,0.00596346,0.18074,20.8518,612.143,26.2434,0.0,0.0
5018,1254.25,30.0684,31.6544,150.048,104.202,5.61968,0.00634306,0.177187,20.855,611.852,26.3782,0.0,0.0
5044,1260.75,30.3544,31.6849,154.625,103.479,5.72273,0.00607079,0.179886,20.853,611.542,26.1511,0.0,0.0
5070,1267.25,30.0545,31.6168,153.308,103.267,5.58929,0.00594453,0.17975,20.8535,611.252,26.3457,0.0,0.0
5096,1273.75,30.232,31.9111,155.679,103.682,5.60543,0.00588758,0.177796,20.8559,610.951,26.3559,0.0,0.0
5122,1280.25,29.7384,31.4676,149.608,104.311,5.68521,0.00651983,0.175491,20.8597,610.621,26.2829,0.0,0.0
5148,1286.75,29.9968,31.6729,150.144,104.629,5.68569,0.00609016,0.177188,20.8567,610.331,26.3096,0.0,0.0
5174,1293.25,30.2971,31.6025,151.606,104.424,5.65244,0.00606542,0.177619,20.8552,610.041,26.3449,0.0,0.0
5200,1299.75,29.921,31.8243,153.281,104.106,5.66669,0.00591529,0.178626,20.8556,609.78,26.2946,0.0,0.0
5226,1306.25,30.0797,31.4124,150.992,104.853,5.75027,0.00585983,0.179175,20.8545,609.49,26.2269,0.0,0.0
5252,1312.75,30.0277,31.3722,151.726,104.842,5.70563,0.00621652,0.176755,20.8567,609.16,26.2963,0.0,0.0
5278,1319.25,29.9555,31.5011,153.964,104.704,5.65197,0.0060536,0.175379,20.8568,608.859,26.3698,0.0,0.0
5304,1325.75,29.8199,31.1288,151.81,105.25,5.72368,0.00637718,0.17673,20.8545,608.589,26.3029,0.0,0.0
5330,1332.25,29.5692,31.0929,154.571,105.226,5.70183,0.00614434,0.176887,20.8552,608.299,26.3354,0.0,0.0
5356,1338.75,29.8981,31.6813,152.176,104.416,5.65529,0.00624665,0.175407,20.8557,608.009,26.3396,0.0,0.0
5382,1345.25,29.9728,31.2678,154.657,103.48,5.642,0.00592528,0.174387,20.8583,607.708,26.2795,0.0,0.0
5408,1351.75,29.2076,30.8329,151.707,103.371,5.59736,0.00598563,0.175193,20.8578,607.418,26.3418,0.0,0.0
5434,1358.25,29.4054,31.012,151.189,104.021,5.6382,0.00594024,0.176915,20.8564,607.148,26.3327,0.0,0.0
5460,1364.75,29.5525,30.9532,152.667,104.613,5.68189,0.00586724,0.174327,20.861,606.868,26.3142,0.0,0.0
5486,1371.25,29.8812,31.6405,150.135,104.463,5.72415,0.00643002,0.172872,20.8631,606.557,26.2344,0.0,0.0
5512,1377.75,29.6878,31.2295,154.497,104.057,5.63772,0.00609749,0.176609,20.8583,606.287,26.3366,0.0,0.0
5538,1384.25,29.3623,31.2786,153.155,104.976,5.75502,0.00595623,0.175717,20.8592,606.017,26.2301,0.0,0.0
5564,1390.75,30.0491,31.5604,150.595,104.481,5.70706,0.00587988,0.175151,20.8608,605.737,26.2629,0.0,0.0
5590,1397.25,29.7063,31.0316,150.401,105.128,5.69946,0.00589003,0.173179,20.8645,605.456,26.3307,0.0,0.0
5616,1403.75,29.8844,31.5145,151.794,105.294,5.72653,0.00594365,0.172827,20.8649,605.146,26.3022,0.0,0.0
5642,1410.25,29.6594,31.2329,156.547,104.515,5.67334,0.00539642,0.175475,20.8622,604.846,26.3194,0.0,0.0
5668,1416.75,29.6749,30.8383,152.664,103.513,5.59783,0.00588608,0.175001,20.8617,604.616,26.3534,0.0,0.0
5694,1423.25,29.8912,31.4327,154.804,103.445,5.62965,0.00610221,0.173841,20.8635,604.305,26.2963,0.0,0.0
5720,1429.75,30.0594,31.0509,150.275,104.217,5.72273,0.00535431,0.176453,20.8618,604.025,26.2153,0.0,0.0
5746,1436.25,29.9587,31.332,149.955,104.679,5.69138,0.00561793,0.176731,20.8611,603.735,26.3049,0.0,0.0
5772,1442.75,29.7222,31.3855,151.87,104.371,5.66859,0.00585841,0.174135,20.8645,603.425,26.3145,0.0,0.0
5798,1449.25,29.6151,31.4574,150.117,104.181,5.66954,0.0057369,0.177184,20.8607,603.124,26.2965,0.0,0.0
5824,1455.75,29.7567,31.6347,155.959,104.943,5.72795,0.00572355,0.178348,20.8567,602.834,26.2698,0.0,0.0
5850,1462.25,30.1422,31.6953,151.801,104.696,5.71228,0.00540135,0.178274,20.8582,602.554,26.2732,0.0,0.0
5876,1468.75,29.7526,31.3046,151.339,104.711,5.71465,0.00575472,0.180612,20.8559,602.254,26.2708,0.0,0.0
5902,1475.25,30.056,31.9635,147.596,105.16,5.7384,0.005598,0.181676,20.8544,602.003,26.272,0.0,0.0
5928,1481.75,29.9794,31.6798,154.582,105.375,5.746,0.00650127,0.182594,20.8522,601.743,26.2785,0.0,0.0
5954,1488.25,29.8691,31.4225,151.708,105.299,5.75502,0.00572006,0.186891,20.847,601.423,26.2578,0.0,0.0
5980,1494.75,30.283,31.7579,155.735,104.977,5.73127,0.00601779,0.186616,20.8466,601.103,26.2675,0.0,0.0
6006,1501.25,30.0764,31.4673,152.689,104.515,5.67476,0.00547356,0.184768,20.8505,600.872,26.3171,0.0,0.0
6032,1507.75,30.1987,31.7185,150.836,104.06,5.67714,0.00526971,0.184824,20.8505,600.552,26.2739,0.0,0.0
6058,1514.25,30.092,31.6677,151.386,103.682,5.60448,0.00482527,0.180395,20.8537,600.272,26.3575,0.0,0.0
6084,1520.75,30.7696,31.7427,156.788,103.492,5.59356,0.00549412,0.181709,20.8521,599.992,26.3585,0.0,0.0
6110,1527.25,29.7673,31.2488,151.24,103.419,5.59641,0.0055418,0.182037,20.8497,599.721,26.3475,0.0,0.0
6136,1533.75,30.0653,31.3635,149.921,103.48,5.58881,0.0058996,0.182285,20.8518,599.431,26.3651,0.0,0.0
6162,1540.25,30.2696,31.8077,147.516,103.648,5.64485,0.00455444,0.184463,20.8495,599.151,26.2896,0.0,0.0
6188,1546.75,30.3174,31.8704,154.628,103.865,5.60686,0.00466521,0.183727,20.8475,598.83,26.3695,0.0,0.0
6214,1553.25,30.0338,31.1711,151.779,104.09,5.67856,0.00452022,0.188109,20.8436,598.59,26.2743,0.0,0.0
6240,1559.75,29.9471,31.9208,155.935,104.276,5.623,0.00483875,0.187062,20.8443,598.27,26.3792,0.0,0.0
6266,1566.25,30.3923,31.9718,152.713,104.471,5.63155,0.00587135,0.187649,20.8429,598.04,26.3824,0.0,0.0
6292,1572.75,29.7615,31.3751,149.982,104.63,5.6173,0.00581566,0.188097,20.8427,597.75,26.419,0.0,0.0
6318,1579.25,29.8894,31.7674,151.043,104.729,5.61161,0.00573056,0.186696,20.8451,597.439,26.4367,0.0,0.0
6344,1585.75,29.5972,31.6301,148.014,104.762,5.69376,0.00517688,0.184129,20.8485,597.159,26.3083,0.0,0.0
6370,1592.25,30.2398,31.5855,154.007,104.756,5.63107,0.00434438,0.182396,20.8521,596.899,26.4077,0.0,0.0
6396,1598.75,29.6088,31.4209,151.665,104.724,5.62253,0.00405266,0.181134,20.8529,596.638,26.4187,0.0,0.0
6422,1605.25,30.1963,31.3514,155.47,104.673,5.61778,0.00433927,0.180585,20.853,596.338,26.4219,0.0,0.0
6448,1611.75,29.8466,31.3684,152.166,104.607,5.63725,0.00512429,0.180046,20.853,596.038,26.385,0.0,0.0
6474,1618.25,30.5358,31.7222,152.435,104.536,5.70373,0.00486972,0.17979,20.8536,595.798,26.273,0.0,0.0
6500,1624.75,30.2512,31.8464,153.607,104.458,5.65529,0.00524628,0.179224,20.8565,595.517,26.3432,0.0,0.0
6526,1631.25,30.1981,31.8353,160.94,104.379,5.56554,0.00557513,0.180065,20.8558,595.217,26.481,0.0,0.0
6552,1637.75,30.0904,31.3297,153.638,104.326,5.62728,0.00560895,0.179059,20.8548,594.967,26.3767,0.0,0.0
6578,1644.25,30.0341,31.7749,150.107,104.274,5.59119,0.00543201,0.17896,20.8552,594.667,26.4303,0.0,0.0
6604,1650.75,30.1206,31.8916,150.491,104.242,5.63107,0.00589266,0.178684,20.8538,594.386,26.3633,0.0,0.0
6630,1657.25,29.9901,31.608,150.919,104.196,5.59166,0.00558133,0.178361,20.8542,594.126,26.4228,0.0,0.0
6656,1663.75,29.6204,31.6098,152.261,104.19,5.58169,0.0049411,0.178495,20.8529,593.866,26.4384,0.0,0.0
6682,1670.25,29.2123,31.2081,150.489,104.162,5.58929,0.0054715,0.177052,20.8545,593.576,26.4237,0.0,0.0
6708,1676.75,30.0012,30.9856,152.186,104.14,5.56459,0.00639276,0.175435,20.8562,593.295,26.4617,0.0,0.0
6734,1683.25,29.4587,31.3284,156.756,104.147,5.58501,0.00607181,0.176968,20.8548,593.015,26.4293,0.0,0.0
6760,1689.75,29.2054,30.7375,154.287,104.098,5.56032,0.0060323,0.177689,20.856,592.745,26.4651,0.0,0.0
6786,1696.25,29.3989,31.24,152.349,104.131,5.58121,0.00579859,0.177419,20.8569,592.495,26.4341,0.0,0.0
6812,1702.75,29.199,30.7999,155.518,104.199,5.6344,0.00536123,0.178119,20.8548,592.194,26.3542,0.0,0.0
6838,1709.25,29.7544,31.2017,152.758,104.255,5.56459,0.00513939,0.178715,20.8526,591.924,26.4717,0.0,0.0
6864,1715.75,29.3518,30.9873,152.134,104.281,5.58834,0.0050953,0.178066,20.8529,591.664,26.4355,0.0,0.0
6890,1722.25,29.1544,31.0455,152.832,104.305,5.55794,0.00525086,0.177747,20.8538,591.404,26.4869,0.0,0.0
6916,1728.75,29.5569,31.0852,152.945,104.308,5.61825,0.00518151,0.177233,20.8539,591.143,26.3897,0.0,0.0
6942,1735.25,29.3642,30.8011,152.706,104.314,5.6249,0.00533468,0.178024,20.8526,590.843,26.3795,0.0,0.0
6968,1741.75,29.4713,30.9731,154.585,104.312,5.59451,0.0053411,0.17809,20.8536,590.573,26.4282,0.0,0.0
6994,1748.25,29.7462,31.237,149.328,104.251,5.59071,0.00513216,0.177051,20.8536,590.303,26.4291,0.0,0.0
7020,1754.75,29.6464,31.0816,151.626,104.195,5.55415,0.0051202,0.17691,20.8544,590.053,26.4835,0.0,0.0
7046,1761.25,29.369,30.9788,151.32,104.118,5.56697,0.00455527,0.180467,20.8492,589.772,26.456,0.0,0.0
7072,1767.75,29.5628,31.2177,153.014,104.101,5.54275,0.00535691,0.178245,20.8496,589.532,26.4939,0.0,0.0
7098,1774.25,29.3678,31.1863,153.527,104.143,5.55889,0.00512466,0.178126,20.8498,589.262,26.4713,0.0,0.0
7124,1780.75,29.5172,31.2817,153.031,104.169,5.60306,0.0051509,0.178158,20.8508,588.982,26.402,0.0,0.0
7150,1787.25,29.3815,30.9012,150.154,104.205,5.60638,0.00534497,0.179082,20.8493,588.721,26.3999,0.0,0.0
7176,1793.75,29.1702,30.7427,154.909,104.245,5.58169,0.00611274,0.178864,20.849,588.461,26.4431,0.0,0.0
7202,1800.25,29.2716,30.6682,149.458,104.275,5.59546,0.00560654,0.181791,20.8469,588.161,26.4235,0.0,0.0
7228,1806.75,29.3026,30.5641,152.787,104.382,5.6173,0.00469917,0.183138,20.8451,587.911,26.3976,0.0,0.0
7254,1813.25,29.4766,30.9558,151.885,104.438,5.59973,0.00489864,0.183475,20.845,587.68,26.4307,0.0,0.0
7280,1819.75,29.6191,30.8728,152.984,104.519,5.59071,0.00514323,0.184371,20.843,587.42,26.4523,0.0,0.0
7306,1826.25,29.1293,30.5878,152.249,104.576,5.63535,0.00515135,0.183435,20.8447,587.14,26.3854,0.0,0.0
7332,1832.75,29.3,31.033,153.767,104.63,5.57456,0.00518175,0.184892,20.8428,586.88,26.488,0.0,0.0
7358,1839.25,29.5857,31.2045,150.918,104.696,5.60448,0.00515635,0.180888,20.848,586.639,26.4453,0.0,0.0
7384,1845.75,29.2738,30.7891,152.438,104.714,5.58596,0.00508895,0.180826,20.8495,586.349,26.4768,0.0,0.0
7410,1852.25,29.395,31.0651,150.501,104.748,5.67904,0.00523925,0.181328,20.8487,586.069,26.3304,0.0,0.0
7436,1858.75,29.7738,31.3397,149.431,104.758,5.63107,0.00505956,0.180715,20.8493,585.819,26.4079,0.0,0.0
7462,1865.25,29.5882,30.8479,154.161,104.76,5.6344,0.00485774,0.179495,20.8494,585.539,26.4028,0.0,0.0
7488,1871.75,29.6923,30.9291,156.985,104.748,5.61968,0.0050373,0.180033,20.8493,585.298,26.4254,0.0,0.0
7514,1878.25,29.7435,31.0797,154.357,104.711,5.57551,0.00557315,0.177364,20.8484,585.048,26.4935,0.0,0.0
7540,1884.75,29.1116,30.6345,152.897,104.671,5.58454,0.00532513,0.183578,20.8413,584.788,26.4754,0.0,0.0
7566,1891.25,29.2806,30.5256,150.338,104.598,5.59024,0.00488629,0.184417,20.8418,584.528,26.4599,0.0,0.0
7592,1897.75,28.6811,30.3102,154.222,104.519,5.56269,0.00529469,0.180045,20.8501,584.257,26.4977,0.0,0.0
7618,1904.25,29.6077,31.1633,155.703,104.4,5.60638,0.00532131,0.178958,20.8503,584.017,26.4167,0.0,0.0
7644,1910.75,29.2996,30.7682,152.018,104.235,5.58596,0.00485967,0.17948,20.8503,583.747,26.4354,0.0,0.0
7670,1917.25,28.6952,30.8216,151.902,104.075,5.61018,0.00516289,0.179786,20.8486,583.507,26.3824,0.0,0.0
7696,1923.75,29.1318,30.7798,147.684,103.9,5.65434,0.00498433,0.178461,20.8489,583.236,26.2964,0.0,0.0
7722,1930.25,29.0783,30.785,151.665,103.706,5.52898,0.00517221,0.180831,20.8459,582.976,26.4821,0.0,0.0
7748,1936.75,28.2447,30.0757,150.974,103.561,5.57077,0.00630113,0.178776,20.8481,582.706,26.4014,0.0,0.0
7774,1943.25,28.3623,30.0201,155.507,103.449,5.52898,0.00532544,0.18114,20.8467,582.456,26.4596,0.0,0.0
7800,1949.75,28.8666,30.4591,156.395,103.439,5.53515,0.00476747,0.18229,20.8445,582.185,26.4487,0.0,0.0
7826,1956.25,29.0728,30.4021,155.605,103.53,5.57077,0.00456402,0.185532,20.8405,581.925,26.3987,0.0,0.0
7852,1962.75,28.6614,30.4709,150.41,103.681,5.55225,0.00496942,0.184682,20.8415,581.675,26.4419,0.0,0.0
7878,1969.25,29.6325,30.8574,149.705,103.945,5.58121,0.0045903,0.18772,20.8379,581.385,26.4179,0.0,0.0
7904,1975.75,28.9388,30.2338,151.344,104.276,5.58264,0.00395753,0.186761,20.8392,581.134,26.4443,0.0,0.0
7930,1982.25,29.3448,31.1347,148.438,104.595,5.63345,0.00397744,0.183924,20.8438,580.864,26.3901,0.0,0.0
7956,1988.75,29.4697,31.1561,154.498,104.891,5.62585,0.00413171,0.186092,20.8408,580.614,26.4278,0.0,0.0
7982,1995.25,29.3849,30.8101,152.571,105.178,5.70658,0.00437296,0.185542,20.8403,580.374,26.3238,0.0,0.0
8008,2001.75,29.3629,30.7355,152.075,105.348,5.67904,0.00463112,0.186703,20.8391,580.124,26.3821,0.0,0.0
8034,2008.25,29.7884,31.213,154.399,105.419,5.66099,0.00402324,0.189618,20.8367,579.833,26.4169,0.0,0.0
8060,2014.75,28.818,30.5324,148.783,105.365,5.71133,0.00391776,0.188703,20.837,579.593,26.3323,0.0,0.0
8086,2021.25,29.6424,30.8268,153.416,105.168,5.62158,0.00422239,0.189875,20.8358,579.323,26.4585,0.0,0.0
8112,2027.75,29.678,30.8038,150.63,104.927,5.65149,0.00439667,0.190043,20.8339,579.053,26.3898,0.0,0.0
8138,2034.25,29.8105,31.241,151.59,104.663,5.6344,0.00472455,0.189622,20.8358,578.782,26.3944,0.0,0.0
8164,2040.75,29.4845,31.4173,152.649,104.564,5.62585,0.00411149,0.190737,20.8361,578.512,26.3996,0.0,0.0
8190,2047.25,29.3277,30.8593,151.357,104.904,5.6439,0.00381386,0.191339,20.8349,578.262,26.4,0.0,0.0
8216,2053.75,29.1064,30.742,151.297,105.014,5.64342,0.00427016,0.191377,20.8368,577.992,26.4102,0.0,0.0
8242,2060.25,29.9243,31.3651,150.962,104.898,5.65719,0.00456014,0.187185,20.8401,577.741,26.3782,0.0,0.0
8268,2066.75,29.6909,31.5017,152.327,104.504,5.69518,0.00416489,0.186565,20.8407,577.501,26.2838,0.0,0.0
8294,2073.25,30.2529,31.3436,153.715,104.139,5.62205,0.00394643,0.1892,20.8363,577.211,26.3689,0.0,0.0
8320,2079.75,29.7737,31.3998,155.025,104.289,5.61303,0.00415706,0.192083,20.8345,576.961,26.3964,0.0,0.0
8346,2086.25,29.6968,31.225,151.92,104.468,5.59119,0.00382846,0.19061,20.8369,576.69,26.4471,0.0,0.0
8372,2092.75,29.6178,31.1881,148.777,104.672,5.59688,0.00395529,0.190081,20.8375,576.45,26.4555,0.0,0.0
8398,2099.25,29.5634,31.3848,151.536,104.744,5.67951,0.00389428,0.190077,20.8397,576.17,26.3294,0.0,0.0
8424,2105.75,29.716,31.5655,154.78,104.675,5.64865,0.00389669,0.190699,20.837,575.89,26.3726,0.0,0.0
8450,2112.25,29.7079,31.5018,151.864,104.479,5.63013,0.00381606,0.189158,20.8375,575.62,26.3853,0.0,0.0
8476,2118.75,30.1888,31.6338,151.307,104.17,5.64057,0.00376986,0.19338,20.832,575.349,26.3419,0.0,0.0
8502,2125.25,29.9597,31.7596,162.838,103.854,5.6154,0.00403465,0.192859,20.8324,575.119,26.3548,0.0,0.0
8528,2131.75,29.7899,31.7746,152.585,103.574,5.59308,0.00356758,0.190896,20.8358,574.829,26.3664,0.0,0.0
8554,2138.25,30.0929,31.1071,149.238,103.426,5.57979,0.0032578,0.191572,20.8356,574.569,26.375,0.0,0.0
8580,2144.75,30.0252,31.721,152.039,103.411,5.54322,0.00328587,0.193902,20.834,574.318,26.433,0.0,0.0
8606,2151.25,30.5385,31.3511,154.099,103.554,5.55604,0.00347261,0.192641,20.8326,574.028,26.4247,0.0,0.0
8632,2157.75,30.0545,31.7712,149.868,103.844,5.61683,0.00317096,0.194263,20.83,573.778,26.3517,0.0,0.0
8658,2164.25,30.4516,31.8469,154.262,104.204,5.63345,0.00330372,0.195142,20.8295,573.518,26.3562,0.0,0.0
8684,2170.75,30.3145,31.9141,149.542,104.607,5.67571,0.00350158,0.19464,20.8291,573.237,26.3236,0.0,0.0
8710,2177.25,30.1799,32.0345,148.535,104.959,5.66954,0.0034671,0.192829,20.8331,572.957,26.3638,0.0,0.0
8736,2183.75,29.9579,31.9118,153.222,105.255,5.67001,0.0032415,0.194955,20.8309,572.707,26.3884,0.0,0.0
8762,2190.25,30.2676,31.6102,149.202,105.403,5.73555,0.00340233,0.197734,20.8273,572.457,26.2973,0.0,0.0
8788,2196.75,29.7454,31.5267,150.847,105.403,5.65909,0.00318653,0.198402,20.8268,572.156,26.4185,0.0,0.0
8814,2203.25,30.3934,32.4309,150.134,105.281,5.68854,0.00287333,0.198565,20.8264,571.876,26.3612,0.0,0.0
8840,2209.75,30.619,32.3067,152.636,105.066,5.67904,0.00305046,0.199457,20.8249,571.616,26.3578,0.0,0.0
8866,2216.25,30.9867,32.5088,151.576,104.82,5.67524,0.00285781,0.201392,20.8237,571.356,26.3427,0.0,0.0
8892,2222.75,30.9257,32.3247,151.569,104.591,5.68806,0.00318177,0.204124,20.8229,571.075,26.3026,0.0,0.0
8918,2229.25,30.6335,32.4662,150.23,104.693,5.69376,0.00288775,0.203952,20.8237,570.765,26.3024,0.0,0.0
8944,2235.75,30.7389,32.2896,152.85,104.958,5.67999,0.00325675,0.206014,20.8194,570.505,26.347,0.0,0.0
8970,2242.25,31.1706,32.5905,152.655,105.037,5.75977,0.00312193,0.205244,20.8202,570.205,26.2278,0.0,0.0
8996,2248.75,30.7773,32.6024,152.656,104.984,5.65339,0.00289167,0.206334,20.8213,569.904,26.3917,0.0,0.0
9022,2255.25,31.0798,32.6436,152.381,104.784,5.73175,0.00300605,0.207735,20.8199,569.624,26.2501,0.0,0.0
9048,2261.75,31.0205,32.7131,150.035,104.501,5.66147,0.00290391,0.210701,20.8153,569.324,26.3371,0.0,0.0
9074,2268.25,31.5552,33.0884,153.431,104.13,5.64912,0.00248389,0.209636,20.8166,569.034,26.3247,0.0,0.0
9100,2274.75,31.8471,33.4279,150.574,104.252,5.67714,0.0022993,0.21286,20.8142,568.733,26.2906,0.0,0.0
9126,2281.25,31.6949,33.4662,148.497,104.365,5.71275,0.00231068,0.213102,20.8122,568.443,26.2439,0.0,0.0
9152,2287.75,31.7673,33.3465,150.325,104.485,5.68379,0.0024463,0.211978,20.8129,568.133,26.3002,0.0,0.0
9178,2294.25,31.7616,33.3976,151.439,104.659,5.73602,0.00283595,0.21245,20.8121,567.833,26.2326,0.0,0.0
9204,2300.75,32.1289,33.5175,151.91,104.727,5.72368,0.00262489,0.215603,20.8106,567.522,26.2579,0.0,0.0
9230,2307.25,31.7826,33.4908,153.615,104.683,5.69281,0.00304268,0.214949,20.8104,567.212,26.303,0.0,0.0
9256,2313.75,32.0421,33.7392,151.588,104.522,5.69708,0.00261295,0.217645,20.8065,566.902,26.2823,0.0,0.0
9282,2320.25,32.2894,33.9804,150.448,104.267,5.65624,0.00274703,0.218688,20.8043,566.591,26.3252,0.0,0.0
9308,2326.75,32.1747,34.3525,145.91,104.003,5.71608,0.00265234,0.220229,20.8015,566.281,26.2072,0.0,0.0
9334,2333.25,32.5782,34.3238,152.35,103.708,5.68616,0.0022806,0.222037,20.8005,565.981,26.2289,0.0,0.0
9360,2339.75,32.9499,34.9392,147.838,103.49,5.69851,0.00262745,0.226338,20.7943,565.671,26.1904,0.0,0.0
9386,2346.25,33.0572,34.723,149.722,103.379,5.7384,0.002303,0.230541,20.7906,565.34,26.1177,0.0,0.0
9412,2352.75,32.7155,34.6929,154.637,103.391,5.70895,0.00223133,0.228822,20.7904,564.99,26.1652,0.0,0.0
9438,2359.25,32.6956,34.6762,154.403,103.54,5.66669,0.0022912,0.22603,20.7949,564.68,26.2454,0.0,0.0
9464,2365.75,33.0731,35.0533,149.191,103.781,5.67571,0.00227284,0.229193,20.7918,564.369,26.252,0.0,0.0
9490,2372.25,33.0526,34.8573,152.892,104.075,5.68901,0.00222184,0.230272,20.7912,564.019,26.2564,0.0,0.0
9516,2378.75,33.4356,35.421,147.238,104.408,5.71655,0.002679,0.23339,20.7881,563.699,26.2416,0.0,0.0
9542,2385.25,33.1905,35.0594,156.585,104.737,5.7384,0.00265507,0.234545,20.784,563.358,26.2356,0.0,0.0
9568,2391.75,33.6784,35.5737,146.453,105.019,5.75169,0.00237339,0.233047,20.786,563.008,26.2389,0.0,0.0
9594,2398.25,33.565,35.2835,154.225,105.223,5.77211,0.00225602,0.233272,20.7879,562.678,26.2245,0.0,0.0
9620,2404.75,34.0841,35.7928,156.867,105.383,5.76451,0.00199398,0.23202,20.7893,562.368,26.2501,0.0,0.0
9646,2411.25,34.1379,36.2491,151.333,105.423,5.73697,0.0020407,0.232649,20.7879,562.017,26.2968,0.0,0.0
9672,2417.75,34.0553,35.9797,150.873,105.38,5.77924,0.00199972,0.233723,20.788,561.667,26.2268,0.0,0.0
9698,2424.25,34.105,36.3179,148.193,105.255,5.86661,0.00166605,0.235374,20.7855,561.297,26.0805,0.0,0.0
9724,2430.75,34.174,36.1025,149.932,105.074,5.83005,0.00199876,0.235439,20.7858,560.946,26.1215,0.0,0.0
9750,2437.25,34.3446,36.7049,147.628,104.883,5.74125,0.00183381,0.23515,20.7859,560.616,26.2437,0.0,0.0
9776,2443.75,34.7044,36.7024,150.301,104.697,5.76024,0.00169336,0.236297,20.7859,560.276,26.1978,0.0,0.0
9802,2450.25,34.7789,37.0293,149.875,104.564,5.74647,0.00196604,0.234894,20.7872,559.915,26.2079,0.0,0.0
9828,2456.75,35.078,36.7795,149.363,104.719,5.79728,0.00189734,0.235082,20.7886,559.545,26.1418,0.0,0.0
9854,2463.25,34.587,36.5131,147.591,104.931,5.79111,0.00193127,0.23573,20.7886,559.205,26.1697,0.0,0.0
9880,2469.75,35.4235,36.9004,148.704,105.039,5.78778,0.0020309,0.239791,20.7828,558.824,26.1842,0.0,0.0
9906,2476.25,34.7792,36.5721,149.958,105.042,5.79396,0.00180498,0.241686,20.7793,558.474,26.1748,0.0,0.0
9932,2482.75,35.2212,37.293,147.337,104.947,5.82577,0.0016358,0.242274,20.7798,558.114,26.1172,0.0,0.0
9958,2489.25,35.1947,37.2291,146.596,104.768,5.79158,0.00179817,0.245218,20.7753,557.743,26.1549,0.0,0.0
9984,2495.75,35.184,37.2703,146.096,104.551,5.81248,0.00196368,0.246567,20.7721,557.363,26.1037,0.0,0.0
10010,2502.25,35.439,37.3461,152.117,104.236,5.75454,0.00178249,0.247362,20.7704,556.963,26.1669,0.0,0.0
10036,2508.75,35.7985,37.7303,146.172,104.159,5.83765,0.00188088,0.250708,20.7669,556.562,26.0307,0.0,0.0
10062,2515.25,35.8097,38.152,147.557,104.227,5.78493,0.0017732,0.251089,20.7665,556.212,26.1185,0.0,0.0
10088,2521.75,36.17,37.6711,145.281,104.316,5.79396,0.00197696,0.254638,20.7632,555.792,26.1121,0.0,0.0
10114,2528.25,35.7868,38.2257,153.003,104.407,5.84857,0.0017178,0.261145,20.7563,555.421,26.0353,0.0,0.0
10140,2534.75,36.0583,38.4297,152.116,104.481,5.80298,0.00150889,0.263727,20.7522,555.031,26.1124,0.0,0.0
10166,2541.25,36.1514,38.5566,146.828,104.539,5.8101,0.0014405,0.258625,20.7567,554.641,26.1063,0.0,0.0
10192,2547.75,36.2577,38.4271,146.938,104.629,5.82008,0.00160007,0.254462,20.7603,554.25,26.0986,0.0,0.0
10218,2554.25,36.605,38.7708,153.568,104.671,5.81533,0.00156495,0.257166,20.7587,553.84,26.1096,0.0,0.0
10244,2560.75,36.8418,39.0921,146.906,104.701,5.80298,0.00158374,0.267969,20.7461,553.43,26.1314,0.0,0.0
10270,2567.25,36.7561,39.2332,149.259,104.704,5.84667,0.00140406,0.27237,20.7422,553.009,26.0639,0.0,0.0
10296,2573.75,37.0527,38.9358,146.396,104.67,5.86804,0.00130183,0.26749,20.7483,552.619,26.028,0.0,0.0
10322,2580.25,37.2696,39.2153,143.599,104.605,5.85379,0.00195383,0.265412,20.7515,552.218,26.0444,0.0,0.0
10348,2586.75,37.3497,39.4188,146.754,104.486,5.77544,0.00170875,0.262153,20.7534,551.758,26.1557,0.0,0.0
10374,2593.25,37.823,39.7602,148.962,104.378,5.81913,0.00163992,0.2625,20.7534,551.358,26.0783,0.0,0.0
10400,2599.75,37.7044,39.8074,148.192,104.235,5.85474,0.00147231,0.263183,20.7532,550.957,26.0109,0.0,0.0
10426,2606.25,37.6616,39.7343,149.081,104.1,5.86661,0.00194995,0.266275,20.7485,550.517,25.9808,0.0,0.0
10452,2612.75,38.0674,40.204,146.919,103.99,5.80535,0.00165049,0.266888,20.7485,550.107,26.0661,0.0,0.0
10478,2619.25,38.0411,40.1732,146.681,103.875,5.87326,0.0016069,0.268209,20.7465,549.686,25.951,0.0,0.0
10504,2625.75,38.261,40.6097,147.009,103.775,5.83242,0.00164588,0.268129,20.7442,549.226,26.0054,0.0,0.0
10530,2632.25,38.2196,40.4481,151.726,103.649,5.81533,0.00180521,0.269184,20.7438,548.825,26.021,0.0,0.0
10556,2638.75,38.312,40.7574,150.566,103.545,5.78541,0.00141564,0.27522,20.7366,548.375,26.0584,0.0,0.0
10582,2645.25,38.5178,40.7126,148.35,103.447,5.85284,0.00147804,0.276358,20.7333,547.955,25.9452,0.0,0.0
10608,2651.75,38.6561,40.9256,144.668,103.376,5.81913,0.00148133,0.275479,20.7343,547.514,25.9912,0.0,0.0
10634,2658.25,38.53,40.8754,150.602,103.343,5.727,0.0012257,0.27053,20.742,547.114,26.1325,0.0,0.0
10660,2664.75,38.3596,40.7364,148.841,103.321,5.81628,0.00124686,0.274257,20.741,546.653,25.9908,0.0,0.0
10686,2671.25,38.9426,41.1352,146.636,103.335,5.82008,0.00128497,0.278063,20.7355,546.223,25.9862,0.0,0.0
10712,2677.75,39.5422,41.682,148.389,103.397,5.8139,0.00183504,0.276423,20.7372,545.783,26.0012,0.0,0.0
10738,2684.25,39.0802,41.3504,145.139,103.503,5.78493,0.00126422,0.275466,20.734,545.352,26.0555,0.0,0.0
10764,2690.75,39.1941,41.6575,148.764,103.655,5.87801,0.00121585,0.276351,20.7342,544.922,25.9246,0.0,0.0
10790,2697.25,39.0855,41.7168,145.226,103.824,5.89083,0.00129089,0.277515,20.7309,544.491,25.9196,0.0,0.0
10816,2703.75,39.3915,41.6401,144.305,104.038,5.90793,0.00128811,0.276184,20.7329,544.051,25.9121,0.0,0.0
10842,2710.25,39.283,42.217,143.152,104.219,5.93215,0.00135543,0.27782,20.7323,543.581,25.8908,0.0,0.0
10868,2716.75,39.8532,42.0773,147.111,104.382,5.85617,0.00139118,0.27746,20.7329,543.15,26.0214,0.0,0.0
10894,2723.25,39.5297,42.2391,146.761,104.567,5.92597,0.0016183,0.27788,20.7313,542.72,25.9304,0.0,0.0
10920,2729.75,39.9522,42.2964,147.336,104.703,5.93642,0.0016083,0.275416,20.734,542.299,25.9262,0.0,0.0
10946,2736.25,39.6689,42.1442,146.132,104.841,5.88798,0.00153999,0.274896,20.7352,541.869,26.0121,0.0,0.0
10972,2742.75,39.9075,42.1608,143.552,104.964,5.87849,0.00130432,0.274256,20.7348,541.439,26.0373,0.0,0.0
10998,2749.25,39.4278,42.3324,147.286,105.091,5.9198,0.00123014,0.273933,20.7354,541.018,25.9849,0.0,0.0
11024,2755.75,39.8273,42.1392,144.653,105.189,5.93357,0.000939054,0.272891,20.7375,540.608,25.9723,0.0,0.0
11050,2762.25,39.6138,41.9692,146.729,105.264,5.90793,0.00138383,0.273628,20.7359,540.188,26.0179,0.0,0.0
11076,2768.75,39.6099,42.0782,142.942,105.335,5.94544,0.00132312,0.26902,20.7411,539.807,25.9668,0.0,0.0
11102,2775.25,39.3824,41.9967,145.378,105.368,5.9065,0.00128344,0.269725,20.7378,539.387,26.029,0.0,0.0
11128,2781.75,39.2429,41.3323,147.522,105.399,5.88038,0.00171915,0.271632,20.7346,538.946,26.0717,0.0,0.0
11154,2788.25,39.6211,42.247,147.665,105.396,5.87991,0.00167861,0.274149,20.7333,538.546,26.0721,0.0,0.0
11180,2794.75,39.7933,41.9491,151.53,105.38,5.87421,0.00166614,0.270269,20.7358,538.166,26.0796,0.0,0.0
11206,2801.25,39.7127,42.2089,145.681,105.344,5.9141,0.00188266,0.271222,20.736,537.775,26.0153,0.0,0.0
11232,2807.75,39.2283,41.6406,144.541,105.277,5.89843,0.00164493,0.271231,20.7339,537.365,26.0336,0.0,0.0
11258,2814.25,39.6776,42.2679,147.124,105.214,5.85569,0.00155449,0.264507,20.7398,537.025,26.0938,0.0,0.0
11284,2820.75,39.232,41.6533,147.847,105.137,5.82815,0.00168273,0.262718,20.7436,536.604,26.1299,0.0,0.0
11310,2827.25,39.1566,41.5725,150.521,105.049,5.82103,0.00139005,0.260954,20.7464,536.254,26.1333,0.0,0.0
11336,2833.75,39.1632,41.1754,149.119,104.955,5.77686,0.00128647,0.259533,20.7488,535.904,26.194,0.0,0.0
11362,2840.25,38.6902,41.2182,145.256,104.84,5.88038,0.00201202,0.265253,20.7417,535.523,26.0236,0.0,0.0
11388,2846.75,39.021,41.2985,143.45,104.761,5.85284,0.0020275,0.259413,20.7492,535.223,26.0593,0.0,0.0
11414,2853.25,38.83,41.2673,145.995,104.647,5.81343,0.00194594,0.253875,20.7559,534.843,26.1105,0.0,0.0
11440,2859.75,38.531,41.0583,153.045,104.578,5.77544,0.00234474,0.250413,20.7599,534.542,26.1637,0.0,0.0
11466,2866.25,38.4699,40.7263,150.182,104.505,5.82957,0.0021904,0.245856,20.7621,534.212,26.0732,0.0,0.0
11492,2872.75,37.7768,40.3605,149.604,104.64,5.76262,0.00237073,0.237833,20.7693,533.922,26.1892,0.0,0.0
11518,2879.25,37.7377,40.2547,151.707,104.803,5.74125,0.00237513,0.23271,20.7755,533.622,26.2368,0.0,0.0
11544,2885.75,37.1656,39.3601,154.765,104.947,5.74979,0.00273344,0.225693,20.7836,533.351,26.2358,0.0,0.0
11570,2892.25,36.8681,38.8504,147.72,105.009,5.84904,0.00268375,0.224104,20.7852,533.111,26.0865,0.0,0.0
11596,2898.75,36.5613,38.614,151.803,105.041,5.78968,0.00265613,0.218858,20.7914,532.821,26.1814,0.0,0.0
11622,2905.25,35.7984,38.0404,154.788,105.069,5.78161,0.00289628,0.213562,20.7983,532.611,26.1964,0.0,0.0
11648,2911.75,35.8462,38.0169,150.133,105.041,5.77924,0.00380448,0.208292,20.803,532.36,26.1977,0.0,0.0
11674,2918.25,35.1421,37.1017,148.666,104.965,5.74315,0.00377376,0.204636,20.8061,532.16,26.2477,0.0,0.0
11700,2924.75,34.4557,36.9694,152.027,104.871,5.75027,0.00434022,0.198909,20.813,531.95,26.2284,0.0,0.0
11726,2931.25,34.3468,36.5041,150.771,104.77,5.68711,0.00412322,0.19649,20.8178,531.76,26.3195,0.0,0.0
11752,2937.75,33.8524,35.4212,152.077,104.65,5.70041,0.00446516,0.191045,20.8258,531.56,26.2881,0.0,0.0
11778,2944.25,33.3038,35.2413,156.201,104.51,5.70421,0.00507597,0.184762,20.8338,531.37,26.2699,0.0,0.0
11804,2950.75,32.8217,34.8184,153.096,104.357,5.68711,0.00493965,0.182978,20.8366,531.199,26.2839,0.0,0.0
11830,2957.25,32.2734,34.6126,151.338,104.228,5.69756,0.00512504,0.180595,20.841,531.029,26.2561,0.0,0.0
11856,2963.75,32.1205,34.2641,154.308,104.155,5.67619,0.005428,0.17675,20.8461,530.879,26.2837,0.0,0.0
11882,2970.25,31.4685,33.6928,152.599,104.179,5.65055,0.00584975,0.17569,20.847,530.719,26.3267,0.0,0.0
11908,2976.75,31.5111,33.0817,152.591,104.19,5.68759,0.00588485,0.172759,20.8526,530.579,26.2686,0.0,0.0
11934,2983.25,31.1178,32.4354,155.663,104.199,5.60733,0.00607941,0.166791,20.8576,530.439,26.3977,0.0,0.0
11960,2989.75,30.7221,32.0073,154.393,104.237,5.58406,0.00650426,0.168938,20.8561,530.289,26.4387,0.0,0.0
11986,2996.25,30.2727,31.9369,153.02,104.242,5.64912,0.0067451,0.16492,20.859,530.169,26.3344,0.0,0.0
12012,3002.75,30.0446,31.6597,153.274,104.29,5.59688,0.00707477,0.169312,20.856,530.028,26.4225,0.0,0.0
12038,3009.25,29.2962,31.1361,157.346,104.347,5.55557,0.00860311,0.159419,20.8639,529.918,26.4943,0.0,0.0
12064,3015.75,29.1256,30.7601,158.03,104.399,5.58739,0.00883086,0.155306,20.8691,529.808,26.4473,0.0,0.0
12090,3022.25,28.7231,30.3024,152.971,104.449,5.58359,0.00863501,0.153616,20.8712,529.668,26.4577,0.0,0.0
12116,3028.75,28.4724,29.7921,156.143,104.496,5.55557,0.00865409,0.152823,20.8726,529.558,26.5073,0.0,0.0
12142,3035.25,28.2809,28.844,151.267,104.555,5.6268,0.00942503,0.150491,20.8766,529.468,26.3973,0.0,0.0
12168,3041.75,27.5639,28.4735,158.28,104.595,5.57219,0.00992332,0.148502,20.8817,529.348,26.4888,0.0,0.0
12194,3048.25,27.2848,28.2487,155.354,104.632,5.58929,0.00977413,0.14778,20.8821,529.248,26.4644,0.0,0.0
12220,3054.75,26.5004,27.7992,156.082,104.652,5.58359,0.00946788,0.146924,20.8822,529.108,26.4753,0.0,0.0
12246,3061.25,26.4674,27.233,155.857,104.648,5.57789,0.00937424,0.146174,20.8832,529.027,26.4841,0.0,0.0
12272,3067.75,26.4693,27.8167,153.43,104.649,5.59498,0.00918561,0.145639,20.8819,528.907,26.4566,0.0,0.0
12298,3074.25,26.4481,27.6493,154.738,104.651,5.56554,0.0090748,0.145065,20.8801,528.817,26.5044,0.0,0.0
12324,3080.75,26.1357,27.4367,153.271,104.66,5.56887,0.00907953,0.146227,20.882,528.757,26.4998,0.0,0.0
12350,3087.25,26.0252,26.5756,158.615,104.608,5.57836,0.00881471,0.146385,20.8837,528.597,26.4799,0.0,0.0
12376,3093.75,25.692,26.3494,155.946,104.539,5.57979,0.0086412,0.145039,20.8832,528.527,26.4716,0.0,0.0
12402,3100.25,26.0737,26.8956,158.528,104.453,5.58264,0.00860074,0.146305,20.8793,528.387,26.4597,0.0,0.0
12428,3106.75,25.841,26.5108,156.247,104.311,5.519,0.00837313,0.146876,20.8787,528.297,26.5509,0.0,0.0
12454,3113.25,26.1696,26.6054,151.161,104.19,5.55699,0.00870895,0.147986,20.8754,528.217,26.4784,0.0,0.0
12480,3119.75,26.5691,26.7892,155.201,104.352,5.54085,0.00900005,0.148347,20.8753,528.097,26.5188,0.0,0.0
12506,3126.25,26.1388,26.7767,155.078,104.844,5.58881,0.00889615,0.146873,20.8788,528.017,26.4834,0.0,0.0
12532,3132.75,25.9605,26.3963,149.588,105.054,5.60258,0.00897281,0.147017,20.8804,527.917,26.4792,0.0,0.0
12558,3139.25,26.0737,26.8623,151.346,104.9,5.61303,0.00902971,0.1458,20.8823,527.876,26.4491,0.0,0.0
12584,3145.75,25.8084,26.4253,153.738,104.52,5.61113,0.00891207,0.144656,20.8854,527.716,26.4194,0.0,0.0
12610,3152.25,26.2287,27.3488,156.258,104.79,5.61588,,,,527.626,26.4351,0.0,0.0
12628,3156.75,26.2599,27.1298,151.607,105.038,5.64532,,,,527.556,26.4092,0.0,0.0