File: 01_Data/Cotton_Raw/STA/N2/30K_min/Cotton_Raw_STA_N2_30KData_210708_R1.csv
##Temp./Â°C,Time/min,Mass loss(subtr.2)/mg,DSC(subtr.2)/(mW/mg),Sensit./(uV/mW)
50.47,10.00667,-0.08358,0.02920038,0.6235
50.97,10.93323,-0.08863132,0.04311156,0.6235
51.47,11.14195,-0.08681486,0.05817395,0.62349
51.97,11.27866,-0.08945131,0.07459395,0.62349
52.47,11.38791,-0.09189804,0.08619309,0.62348
52.97,11.48131,-0.09481667,0.10242,0.62347
53.47,11.5602,-0.07264545,0.1099,0.62347
53.97,11.6305,-0.08830231,0.12436,0.62346
54.47,11.69561,-0.0886513,0.13629,0.62345
54.97,11.75437,-0.09094584,0.14798,0.62344
55.47,11.81093,-0.09017454,0.15927,0.62344
55.97,11.86329,-0.09083145,0.16575,0.62343
56.47,11.91238,-0.09542342,0.17857,0.62342
56.97,11.95941,-0.09226176,0.18798,0.62341
57.47,12.004,-0.09103525,0.19447,0.6234
57.97,12.04706,-0.09032867,0.20569,0.62339
58.47,12.08874,-0.09209812,0.21197,0.62338
58.97,12.12929,-0.09252394,0.22323,0.62337
59.47,12.1686,-0.09199377,0.23022,0.62335
59.97,12.20655,-0.09323266,0.23834,0.62334
60.47,12.24347,-0.09226082,0.24551,0.62333
60.97,12.27965,-0.09143462,0.25833,0.62332
61.47,12.31488,-0.09126707,0.26204,0.6233
61.97,12.34888,-0.09202463,0.26976,0.62329
62.47,12.38235,-0.09465817,0.28062,0.62328
62.97,12.4156,-0.09702154,0.28911,0.62326
63.47,12.44794,-0.09689486,0.29715,0.62325
63.97,12.47947,-0.09576188,0.30484,0.62323
64.47,12.51113,-0.09458838,0.31219,0.62322
64.97,12.54221,-0.09286274,0.32215,0.6232
65.47,12.5726,-0.09513065,0.32631,0.62319
65.97,12.60282,-0.09686742,0.33514,0.62317
66.47,12.63265,-0.09757774,0.33803,0.62315
66.97,12.66183,-0.0972788,0.34574,0.62314
67.47,12.6907,-0.096289,0.3536,0.62312
67.97,12.71946,-0.09555376,0.35942,0.6231
68.47,12.74815,-0.0954167,0.36406,0.62308
68.97,12.77638,-0.09691068,0.37432,0.62306
69.47,12.80438,-0.09722366,0.37855,0.62305
69.97,12.8322,-0.09707432,0.38623,0.62303
70.47,12.85948,-0.09809667,0.39258,0.62301
70.97,12.8866,-0.09653532,0.39409,0.62299
71.47,12.91367,-0.09664507,0.40739,0.62297
71.97,12.9404,-0.09777736,0.41487,0.62294
72.47,12.9671,-0.09984779,0.41833,0.62292
72.97,12.99346,-0.10068,0.42674,0.6229
73.47,13.0198,-0.10211,0.43147,0.62288
73.97,13.046,-0.10209,0.43789,0.62286
74.47,13.07195,-0.10088,0.44266,0.62284
74.97,13.09786,-0.10159,0.44952,0.62281
75.47,13.1235,-0.10212,0.45716,0.62279
75.97,13.14913,-0.1021,0.4631,0.62277
76.47,13.1744,-0.1021,0.47038,0.62274
76.97,13.1997,-0.10242,0.47829,0.62272
77.47,13.22476,-0.10361,0.48194,0.62269
77.97,13.24983,-0.10518,0.48665,0.62267
78.47,13.2746,-0.1052,0.49571,0.62264
78.97,13.2994,-0.10575,0.50042,0.62261
79.47,13.324,-0.10654,0.5109,0.62259
79.97,13.34844,-0.10678,0.51438,0.62256
80.47,13.3727,-0.10785,0.52263,0.62253
80.97,13.3968,-0.10859,0.52899,0.62251
81.47,13.421,-0.10848,0.53622,0.62248
81.97,13.4451,-0.10597,0.54719,0.62245
82.47,13.46885,-0.1059,0.5519,0.62242
82.97,13.4925,-0.10555,0.56178,0.62239
83.47,13.5162,-0.10627,0.56571,0.62236
83.97,13.53977,-0.1076,0.57336,0.62233
84.47,13.56318,-0.10785,0.57739,0.62231
84.97,13.5863,-0.10892,0.58587,0.62227
85.47,13.60961,-0.10887,0.59275,0.62224
85.97,13.63272,-0.11025,0.59925,0.62221
86.47,13.6559,-0.11024,0.60517,0.62218
86.97,13.67875,-0.11267,0.61093,0.62215
87.47,13.7016,-0.1142,0.619,0.62212
87.97,13.7243,-0.11584,0.62487,0.62209
88.47,13.7469,-0.11672,0.6309,0.62205
88.97,13.7695,-0.11802,0.63632,0.62202
89.47,13.79199,-0.11804,0.64164,0.62199
89.97,13.81425,-0.11937,0.64772,0.62195
90.47,13.83635,-0.11934,0.65074,0.62192
90.97,13.8584,-0.11934,0.65529,0.62188
91.47,13.8804,-0.11934,0.66141,0.62185
91.97,13.9025,-0.11934,0.66926,0.62181
92.47,13.92428,-0.11969,0.66992,0.62178
92.97,13.94595,-0.12087,0.6767,0.62174
93.47,13.96752,-0.12166,0.68262,0.6217
93.97,13.98909,-0.12288,0.68209,0.62167
94.47,14.0106,-0.12479,0.6896,0.62163
94.97,14.03193,-0.12504,0.6933,0.62159
95.47,14.0532,-0.12503,0.69378,0.62156
95.97,14.07434,-0.12635,0.69885,0.62152
96.47,14.09544,-0.12636,0.70306,0.62148
96.97,14.1165,-0.12636,0.70341,0.62144
97.47,14.13747,-0.12632,0.70795,0.6214
97.97,14.15828,-0.12806,0.71232,0.62136
98.47,14.1791,-0.12946,0.7138,0.62132
98.97,14.1997,-0.12954,0.71693,0.62128
99.47,14.22034,-0.12956,0.71992,0.62124
99.97,14.24081,-0.13085,0.72637,0.6212
100.47,14.2613,-0.13086,0.72708,0.62116
100.97,14.28171,-0.13086,0.72843,0.62112
101.47,14.30205,-0.13086,0.73076,0.62107
101.97,14.3224,-0.13145,0.73285,0.62103
102.47,14.34265,-0.13235,0.73402,0.62099
102.97,14.3628,-0.13401,0.73199,0.62095
103.47,14.38277,-0.13389,0.73918,0.6209
103.97,14.4026,-0.13537,0.73621,0.62086
104.47,14.42247,-0.13679,0.73929,0.62081
104.97,14.44229,-0.13809,0.74082,0.62077
105.47,14.46204,-0.13832,0.74329,0.62073
105.97,14.48174,-0.13832,0.7467,0.62068
106.47,14.5014,-0.13831,0.74384,0.62063
106.97,14.52091,-0.13937,0.74554,0.62059
107.47,14.5404,-0.13963,0.74536,0.62054
107.97,14.55977,-0.13963,0.74421,0.6205
108.47,14.579,-0.13963,0.74497,0.62045
108.97,14.59825,-0.13963,0.74428,0.6204
109.47,14.61744,-0.13958,0.74109,0.62035
109.97,14.63657,-0.141,0.74464,0.62031
110.47,14.65574,-0.14102,0.74202,0.62026
110.97,14.67486,-0.14229,0.74149,0.62021
111.47,14.6939,-0.14227,0.7415,0.62016
111.97,14.7129,-0.14321,0.7446,0.62011
112.47,14.7318,-0.14358,0.73823,0.62006
112.97,14.75058,-0.14361,0.74113,0.62001
113.47,14.76932,-0.1435,0.73784,0.61996
113.97,14.7881,-0.14403,0.73646,0.61991
114.47,14.8067,-0.14469,0.73624,0.61986
114.97,14.8253,-0.14533,0.73713,0.61981
115.47,14.8436,-0.14528,0.73488,0.61976
115.97,14.862,-0.14682,0.73227,0.6197
116.47,14.8804,-0.14677,0.72906,0.61965
116.97,14.8987,-0.14934,0.72576,0.6196
117.47,14.9172,-0.14942,0.72445,0.61955
117.97,14.9355,-0.15031,0.72396,0.61949
118.47,14.9538,-0.15071,0.72204,0.61944
118.97,14.9719,-0.15071,0.71666,0.61939
119.47,14.99,-0.15069,0.71746,0.61933
119.97,15.0081,-0.15181,0.71769,0.61928
120.47,15.0262,-0.15203,0.71149,0.61922
120.97,15.0442,-0.15203,0.70957,0.61917
121.47,15.06219,-0.15203,0.70597,0.61911
121.97,15.0801,-0.15203,0.70526,0.61905
122.47,15.09774,-0.15336,0.7018,0.619
122.97,15.11551,-0.1548,0.70381,0.61894
123.47,15.13325,-0.15477,0.70154,0.61888
123.97,15.1509,-0.15477,0.69619,0.61883
124.47,15.16864,-0.1548,0.69318,0.61877
124.97,15.18625,-0.15348,0.69266,0.61871
125.47,15.20374,-0.15346,0.68924,0.61865
125.97,15.22122,-0.15346,0.68804,0.61859
126.47,15.2387,-0.15396,0.68504,0.61854
126.97,15.2562,-0.15476,0.68658,0.61848
127.47,15.27356,-0.15477,0.67963,0.61842
127.97,15.291,-0.15417,0.67911,0.61836
128.47,15.30821,-0.15479,0.67616,0.6183
128.97,15.3253,-0.15477,0.67668,0.61824
129.47,15.34249,-0.15477,0.67635,0.61817
129.97,15.35966,-0.15477,0.6699,0.61811
130.47,15.3767,-0.15592,0.67189,0.61805
130.97,15.3938,-0.15561,0.66475,0.61799
131.47,15.41092,-0.15658,0.6631,0.61793
131.97,15.42789,-0.15652,0.66156,0.61786
132.47,15.4447,-0.15654,0.65821,0.6178
132.97,15.46163,-0.1573,0.65471,0.61774
133.47,15.47845,-0.15831,0.65303,0.61767
133.97,15.49526,-0.15925,0.65135,0.61761
134.47,15.51211,-0.15925,0.64652,0.61755
134.97,15.529,-0.15996,0.647,0.61748
135.47,15.54566,-0.15993,0.64631,0.61742
135.97,15.56236,-0.15993,0.64101,0.61735
136.47,15.57896,-0.15993,0.64094,0.61729
136.97,15.5956,-0.15993,0.63633,0.61722
137.47,15.61225,-0.15993,0.63408,0.61715
137.97,15.6289,-0.15993,0.63095,0.61709
138.47,15.6455,-0.1597,0.63049,0.61702
138.97,15.66201,-0.15953,0.62836,0.61695
139.47,15.6784,-0.16002,0.62661,0.61689
139.97,15.69489,-0.16001,0.62483,0.61682
140.47,15.71125,-0.16121,0.62228,0.61675
140.97,15.72764,-0.16135,0.61946,0.61668
141.47,15.74395,-0.16134,0.61715,0.61661
141.97,15.76026,-0.16066,0.61706,0.61654
142.47,15.77651,-0.16004,0.61313,0.61647
142.97,15.7927,-0.16003,0.61165,0.61641
143.47,15.80896,-0.16003,0.61115,0.61634
143.97,15.8252,-0.16003,0.60632,0.61626
144.47,15.8413,-0.16003,0.60904,0.61619
144.97,15.8575,-0.16003,0.60859,0.61612
145.47,15.87362,-0.16039,0.608,0.61605
145.97,15.88972,-0.1616,0.60555,0.61598
146.47,15.90576,-0.16268,0.608,0.61591
146.97,15.9218,-0.16267,0.60368,0.61584
147.47,15.9378,-0.16262,0.60351,0.61576
147.97,15.95374,-0.164,0.60505,0.61569
148.47,15.96969,-0.16398,0.60398,0.61562
148.97,15.98567,-0.16374,0.60575,0.61554
149.47,16.00154,-0.16242,0.6047,0.61547
149.97,16.0175,-0.16249,0.60346,0.6154
150.47,16.0334,-0.16113,0.60445,0.61532
150.97,16.0492,-0.16113,0.60335,0.61525
151.47,16.06492,-0.16133,0.60412,0.61517
151.97,16.08059,-0.16246,0.60809,0.6151
152.47,16.09636,-0.16245,0.60725,0.61502
152.97,16.1122,-0.16245,0.60834,0.61495
153.47,16.12793,-0.16253,0.60618,0.61487
153.97,16.14385,-0.16381,0.60968,0.61479
154.47,16.1595,-0.16377,0.60663,0.61472
154.97,16.17512,-0.16377,0.60786,0.61464
155.47,16.19075,-0.16377,0.60871,0.61456
155.97,16.20637,-0.16377,0.60658,0.61448
156.47,16.22202,-0.16377,0.60823,0.61441
156.97,16.23772,-0.16376,0.61044,0.61433
157.47,16.2533,-0.16344,0.60775,0.61425
157.97,16.2689,-0.1625,0.61363,0.61417
158.47,16.28445,-0.16213,0.61391,0.61409
158.97,16.30007,-0.16212,0.60974,0.61401
159.47,16.31565,-0.16212,0.60927,0.61393
159.97,16.3312,-0.16212,0.61274,0.61385
160.47,16.3467,-0.16211,0.61844,0.61377
160.97,16.36219,-0.16212,0.61653,0.61369
161.47,16.37765,-0.16213,0.61468,0.61361
161.97,16.39307,-0.16275,0.61887,0.61353
162.47,16.40846,-0.16392,0.61887,0.61344
162.97,16.42387,-0.16476,0.61948,0.61336
163.47,16.4392,-0.16448,0.62327,0.61328
163.97,16.45461,-0.16341,0.62148,0.6132
164.47,16.46989,-0.16333,0.62132,0.61311
164.97,16.4851,-0.16215,0.62406,0.61303
165.47,16.50031,-0.16213,0.62685,0.61295
165.97,16.51565,-0.16361,0.62791,0.61286
166.47,16.53096,-0.16353,0.63049,0.61278
166.97,16.54634,-0.16451,0.63014,0.6127
167.47,16.56178,-0.16396,0.63165,0.61261
167.97,16.57721,-0.16345,0.63498,0.61253
168.47,16.59246,-0.16344,0.63651,0.61244
168.97,16.60772,-0.16344,0.63756,0.61235
169.47,16.62292,-0.16344,0.64016,0.61227
169.97,16.63811,-0.16343,0.64025,0.61218
170.47,16.65331,-0.16278,0.64022,0.6121
170.97,16.66845,-0.16213,0.64451,0.61201
171.47,16.6836,-0.16212,0.64293,0.61192
171.97,16.69877,-0.16212,0.64241,0.61184
172.47,16.71394,-0.16211,0.64699,0.61175
172.97,16.729,-0.16307,0.6419,0.61166
173.47,16.7441,-0.16343,0.64812,0.61157
173.97,16.75921,-0.16344,0.64876,0.61148
174.47,16.77431,-0.16344,0.65022,0.61139
174.97,16.78934,-0.16346,0.65311,0.6113
175.47,16.80441,-0.16267,0.65356,0.61122
175.97,16.81946,-0.16212,0.65647,0.61113
176.47,16.83447,-0.16212,0.65591,0.61104
176.97,16.8494,-0.16212,0.6571,0.61095
177.47,16.8644,-0.16212,0.65444,0.61085
177.97,16.87939,-0.16212,0.65629,0.61076
178.47,16.8944,-0.16212,0.65894,0.61067
178.97,16.90932,-0.16212,0.66128,0.61058
179.47,16.92427,-0.16227,0.66655,0.61049
179.97,16.93919,-0.16363,0.66927,0.6104
180.47,16.95409,-0.16365,0.66869,0.61031
180.97,16.96894,-0.16366,0.67052,0.61021
181.47,16.98377,-0.16396,0.67262,0.61012
181.97,16.99846,-0.16499,0.671,0.61003
182.47,17.0132,-0.16497,0.67374,0.60993
182.97,17.02788,-0.16497,0.67493,0.60984
183.47,17.0425,-0.16493,0.67655,0.60975
183.97,17.05729,-0.16616,0.67419,0.60965
184.47,17.07218,-0.16639,0.67897,0.60956
184.97,17.08701,-0.1664,0.68039,0.60946
185.47,17.10189,-0.16691,0.67969,0.60937
185.97,17.1168,-0.16774,0.68334,0.60927
186.47,17.13148,-0.16772,0.68424,0.60918
186.97,17.14615,-0.16772,0.6901,0.60908
187.47,17.1608,-0.1677,0.68956,0.60898
187.97,17.17538,-0.16658,0.67904,0.60889
188.47,17.19001,-0.1664,0.68196,0.60879
188.97,17.2046,-0.1664,0.68391,0.60869
189.47,17.21925,-0.1664,0.69381,0.6086
189.97,17.2338,-0.1664,0.69536,0.6085
190.47,17.24842,-0.1664,0.69863,0.6084
190.97,17.26298,-0.1664,0.70099,0.6083
191.47,17.27754,-0.16641,0.70197,0.6082
191.97,17.29202,-0.1669,0.70546,0.60811
192.47,17.30658,-0.16772,0.70835,0.60801
192.97,17.32112,-0.16705,0.71063,0.60791
193.47,17.33565,-0.16669,0.71228,0.60781
193.97,17.35015,-0.16673,0.71514,0.60771
194.47,17.36463,-0.16673,0.7168,0.60761
194.97,17.3791,-0.16673,0.72297,0.60751
195.47,17.3935,-0.16673,0.72255,0.60741
195.97,17.40793,-0.16673,0.72244,0.60731
196.47,17.42233,-0.16673,0.72416,0.60721
196.97,17.43682,-0.16668,0.72277,0.6071
197.47,17.45126,-0.16791,0.7235,0.607
197.97,17.4657,-0.16803,0.72839,0.6069
198.47,17.48019,-0.16905,0.72898,0.6068
198.97,17.4946,-0.16933,0.73236,0.6067
199.47,17.509,-0.1682,0.7336,0.60659
199.97,17.52329,-0.16805,0.73571,0.60649
200.47,17.5376,-0.16804,0.73745,0.60639
200.97,17.55191,-0.16808,0.73939,0.60628
201.47,17.56621,-0.16675,0.73877,0.60618
201.97,17.58055,-0.16673,0.74174,0.60607
202.47,17.59489,-0.16673,0.73836,0.60597
202.97,17.60918,-0.16673,0.74449,0.60587
203.47,17.6235,-0.16673,0.74429,0.60576
203.97,17.63774,-0.16668,0.7425,0.60566
204.47,17.6519,-0.16796,0.74516,0.60555
204.97,17.66597,-0.16805,0.74855,0.60544
205.47,17.6802,-0.16805,0.74689,0.60534
205.97,17.69448,-0.16805,0.74819,0.60523
206.47,17.70871,-0.16805,0.75273,0.60513
206.97,17.72306,-0.16806,0.76101,0.60502
207.47,17.73744,-0.16839,0.76288,0.60491
207.97,17.75163,-0.16939,0.76675,0.6048
208.47,17.76576,-0.16936,0.76604,0.6047
208.97,17.77995,-0.16969,0.7689,0.60459
209.47,17.79412,-0.17069,0.77104,0.60448
209.97,17.8082,-0.17068,0.76964,0.60437
210.47,17.82238,-0.17069,0.77284,0.60426
210.97,17.83661,-0.17092,0.77499,0.60416
211.47,17.85074,-0.17215,0.77583,0.60405
211.97,17.86492,-0.17229,0.77676,0.60394
212.47,17.87915,-0.17361,0.77947,0.60383
212.97,17.89329,-0.17396,0.78064,0.60372
213.47,17.90738,-0.17637,0.78003,0.60361
213.97,17.92145,-0.1802,0.77959,0.6035
214.47,17.93553,-0.18198,0.78613,0.60339
214.97,17.94963,-0.17979,0.78776,0.60328
215.47,17.9637,-0.1752,0.79306,0.60316
215.97,17.97785,-0.17067,0.79376,0.60305
216.47,17.992,-0.16931,0.79406,0.60294
216.97,18.00613,-0.16923,0.80086,0.60283
217.47,18.02018,-0.17146,0.79631,0.60272
217.97,18.03425,-0.17224,0.79992,0.60261
218.47,18.04831,-0.17295,0.80467,0.60249
218.97,18.06235,-0.17297,0.80373,0.60238
219.47,18.07639,-0.17298,0.7995,0.60227
219.97,18.0904,-0.17331,0.80235,0.60215
220.47,18.1044,-0.17475,0.80625,0.60204
220.97,18.1185,-0.17635,0.80676,0.60193
221.47,18.13257,-0.17715,0.80708,0.60181
221.97,18.1466,-0.17714,0.80459,0.6017
222.47,18.16068,-0.17751,0.80431,0.60158
222.97,18.17475,-0.17774,0.80426,0.60147
223.47,18.1888,-0.17764,0.80718,0.60135
223.97,18.2028,-0.17802,0.80412,0.60124
224.47,18.21677,-0.17829,0.80247,0.60112
224.97,18.23075,-0.17938,0.80766,0.60101
225.47,18.24473,-0.17935,0.8122,0.60089
225.97,18.25872,-0.17957,0.81552,0.60077
226.47,18.2727,-0.18064,0.81134,0.60066
226.97,18.28665,-0.18065,0.81394,0.60054
227.47,18.3006,-0.18065,0.81035,0.60042
227.97,18.31458,-0.18022,0.80577,0.60031
228.47,18.32851,-0.17933,0.8006,0.60019
228.97,18.34246,-0.17941,0.80651,0.60007
229.47,18.35642,-0.18064,0.80748,0.59995
229.97,18.37041,-0.18194,0.8092,0.59983
230.47,18.3843,-0.18207,0.80865,0.59972
230.97,18.3982,-0.18209,0.8115,0.5996
231.47,18.4122,-0.18256,0.81449,0.59948
231.97,18.42612,-0.18469,0.81287,0.59936
232.47,18.43998,-0.18471,0.81368,0.59924
232.97,18.4539,-0.18471,0.81548,0.59912
233.47,18.4678,-0.18474,0.81526,0.599
233.97,18.4817,-0.18585,0.82045,0.59888
234.47,18.49558,-0.18614,0.81959,0.59876
234.97,18.50946,-0.18634,0.81923,0.59864
235.47,18.52335,-0.18763,0.81884,0.59852
235.97,18.53724,-0.1877,0.81919,0.5984
236.47,18.55095,-0.18907,0.82064,0.59827
236.97,18.56474,-0.19024,0.82585,0.59815
237.47,18.5786,-0.19128,0.82311,0.59803
237.97,18.59243,-0.193,0.82799,0.59791
238.47,18.6063,-0.1941,0.83055,0.59779
238.97,18.62027,-0.19471,0.83132,0.59766
239.47,18.63423,-0.19652,0.8357,0.59754
239.97,18.64807,-0.1957,0.8358,0.59742
240.47,18.66191,-0.19676,0.84099,0.59729
240.97,18.67574,-0.19685,0.84207,0.59717
241.47,18.68954,-0.19845,0.84752,0.59705
241.97,18.70328,-0.20021,0.84705,0.59692
242.47,18.71708,-0.20178,0.85223,0.5968
242.97,18.73087,-0.20331,0.85482,0.59668
243.47,18.74464,-0.20471,0.86107,0.59655
243.97,18.75842,-0.20478,0.86095,0.59643
244.47,18.77223,-0.20479,0.86191,0.5963
244.97,18.78606,-0.20535,0.86635,0.59618
245.47,18.79983,-0.20632,0.86951,0.59605
245.97,18.81363,-0.20767,0.87315,0.59592
246.47,18.82741,-0.20832,0.88019,0.5958
246.97,18.84124,-0.20989,0.88607,0.59567
247.47,18.85503,-0.20996,0.88976,0.59555
247.97,18.86883,-0.21153,0.8991,0.59542
248.47,18.88256,-0.21208,0.90391,0.59529
248.97,18.89635,-0.21323,0.91511,0.59517
249.47,18.91015,-0.21485,0.92376,0.59504
249.97,18.9239,-0.21621,0.91839,0.59491
250.47,18.9377,-0.21769,0.91716,0.59478
250.97,18.9515,-0.21917,0.92528,0.59465
251.47,18.96536,-0.21921,0.92838,0.59453
251.97,18.9791,-0.22053,0.93122,0.5944
252.47,18.99285,-0.22057,0.93713,0.59427
252.97,19.00662,-0.22188,0.93621,0.59414
253.47,19.02036,-0.22304,0.94574,0.59401
253.97,19.0341,-0.22526,0.94671,0.59388
254.47,19.04782,-0.22845,0.9457,0.59375
254.97,19.06159,-0.23189,0.94834,0.59362
255.47,19.0753,-0.23724,0.94796,0.59349
255.97,19.08909,-0.24403,0.94442,0.59336
256.47,19.1028,-0.24939,0.94388,0.59323
256.97,19.11651,-0.25384,0.93447,0.5931
257.47,19.13022,-0.25644,0.93563,0.59297
257.97,19.14388,-0.25938,0.92565,0.59284
258.47,19.15754,-0.25988,0.92623,0.59271
258.97,19.17122,-0.261,0.92122,0.59258
259.47,19.18489,-0.26106,0.91472,0.59245
259.97,19.1986,-0.26106,0.90779,0.59231
260.47,19.21234,-0.26106,0.90185,0.59218
260.97,19.22605,-0.26106,0.89775,0.59205
261.47,19.23977,-0.26106,0.88915,0.59192
261.97,19.25349,-0.26106,0.88423,0.59178
262.47,19.26716,-0.26106,0.87791,0.59165
262.97,19.2808,-0.26107,0.87167,0.59152
263.47,19.2945,-0.26265,0.87133,0.59138
263.97,19.3082,-0.26486,0.87065,0.59125
264.47,19.32191,-0.26838,0.86576,0.59112
264.97,19.33556,-0.27329,0.86422,0.59098
265.47,19.34915,-0.27908,0.85907,0.59085
265.97,19.36273,-0.28517,0.85448,0.59072
266.47,19.37633,-0.29084,0.85356,0.59058
266.97,19.39001,-0.29585,0.84878,0.59045
267.47,19.40363,-0.29906,0.85082,0.59031
267.97,19.41723,-0.29974,0.8476,0.59018
268.47,19.43088,-0.29979,0.84302,0.59004
268.97,19.44455,-0.29897,0.84279,0.5899
269.47,19.45816,-0.29921,0.84249,0.58977
269.97,19.4718,-0.30035,0.84412,0.58963
270.47,19.48544,-0.30146,0.84076,0.5895
270.97,19.49917,-0.30291,0.84308,0.58936
271.47,19.51284,-0.30517,0.84101,0.58922
271.97,19.52645,-0.30958,0.84214,0.58909
272.47,19.5401,-0.31452,0.84172,0.58895
272.97,19.5537,-0.32071,0.84499,0.58881
273.47,19.5673,-0.32752,0.84771,0.58867
273.97,19.58098,-0.33401,0.84802,0.58854
274.47,19.59459,-0.33988,0.85115,0.5884
274.97,19.60823,-0.34482,0.85104,0.58826
275.47,19.6219,-0.34862,0.85377,0.58812
275.97,19.63552,-0.35199,0.85263,0.58798
276.47,19.64914,-0.35523,0.85243,0.58785
276.97,19.66273,-0.35855,0.85391,0.58771
277.47,19.6764,-0.36215,0.85664,0.58757
277.97,19.68998,-0.36574,0.85811,0.58743
278.47,19.70363,-0.36951,0.85812,0.58729
278.97,19.71725,-0.3735,0.86079,0.58715
279.47,19.73094,-0.37787,0.86153,0.58701
279.97,19.74457,-0.38304,0.8628,0.58687
280.47,19.75822,-0.38935,0.86876,0.58673
280.97,19.7719,-0.39634,0.86735,0.58659
281.47,19.78554,-0.40163,0.86481,0.58645
281.97,19.79919,-0.40545,0.86906,0.58631
282.47,19.81287,-0.40742,0.87062,0.58617
282.97,19.82655,-0.40859,0.86876,0.58603
283.47,19.84021,-0.40859,0.87113,0.58589
283.97,19.85386,-0.40862,0.87521,0.58574
284.47,19.86753,-0.41063,0.88247,0.5856
284.97,19.88116,-0.41305,0.88185,0.58546
285.47,19.8948,-0.41671,0.88338,0.58532
285.97,19.90847,-0.42153,0.88125,0.58518
286.47,19.9221,-0.42668,0.88698,0.58503
286.97,19.93572,-0.43196,0.88729,0.58489
287.47,19.9494,-0.43723,0.88735,0.58475
287.97,19.963,-0.44349,0.88852,0.5846
288.47,19.9765,-0.44942,0.89028,0.58446
288.97,19.98998,-0.45527,0.89156,0.58432
289.47,20.00352,-0.46066,0.89624,0.58417
289.97,20.01718,-0.46541,0.89339,0.58403
290.47,20.03086,-0.4698,0.89953,0.58389
290.97,20.0445,-0.47378,0.89691,0.58374
291.47,20.05836,-0.47821,0.8988,0.5836
291.97,20.07215,-0.48348,0.90096,0.58345
292.47,20.08577,-0.48886,0.89794,0.58331
292.97,20.0994,-0.49499,0.90244,0.58316
293.47,20.11307,-0.50008,0.90315,0.58302
293.97,20.12666,-0.50488,0.90345,0.58287
294.47,20.14029,-0.51039,0.9084,0.58273
294.97,20.154,-0.51696,0.90539,0.58258
295.47,20.16762,-0.52377,0.90663,0.58244
295.97,20.18124,-0.53044,0.91111,0.58229
296.47,20.19493,-0.53751,0.91267,0.58215
296.97,20.20857,-0.54407,0.91476,0.582
297.47,20.2222,-0.55029,0.91111,0.58185
297.97,20.23582,-0.55642,0.9154,0.58171
298.47,20.2495,-0.56345,0.91725,0.58156
298.97,20.26311,-0.56911,0.92189,0.58141
299.47,20.27676,-0.57501,0.92202,0.58127
299.97,20.29044,-0.58116,0.92664,0.58112
300.47,20.30411,-0.58752,0.92833,0.58097
300.97,20.31776,-0.59445,0.93222,0.58082
301.47,20.33139,-0.60167,0.93495,0.58067
301.97,20.34505,-0.6088,0.93582,0.58053
302.47,20.35868,-0.61556,0.94084,0.58038
302.97,20.3723,-0.622,0.93709,0.58023
303.47,20.38588,-0.62842,0.94618,0.58008
303.97,20.3995,-0.636,0.94867,0.57993
304.47,20.41317,-0.64527,0.95252,0.57978
304.97,20.42679,-0.65558,0.95279,0.57964
305.47,20.44037,-0.66653,0.95958,0.57949
305.97,20.45402,-0.6774,0.95858,0.57934
306.47,20.4677,-0.68719,0.96225,0.57919
306.97,20.4812,-0.69593,0.96544,0.57904
307.47,20.49483,-0.70393,0.96816,0.57889
307.97,20.5085,-0.71099,0.97187,0.57874
308.47,20.52202,-0.71736,0.97725,0.57859
308.97,20.53556,-0.72392,0.97794,0.57844
309.47,20.5491,-0.73114,0.98347,0.57829
309.97,20.5628,-0.73983,0.98565,0.57814
310.47,20.57643,-0.75022,0.99411,0.57798
310.97,20.59016,-0.76147,0.99451,0.57783
311.47,20.6039,-0.77154,0.99879,0.57768
311.97,20.61769,-0.7814,1.00476,0.57753
312.47,20.63138,-0.78969,1.0176,0.57738
312.97,20.64501,-0.79819,1.02163,0.57723
313.47,20.65868,-0.80807,1.02182,0.57708
313.97,20.67233,-0.81889,1.02307,0.57692
314.47,20.68595,-0.82988,1.03183,0.57677
314.97,20.69963,-0.8406,1.03826,0.57662
315.47,20.71331,-0.84972,1.03773,0.57647
315.97,20.727,-0.86016,1.04297,0.57631
316.47,20.74061,-0.87015,1.05154,0.57616
316.97,20.75423,-0.88027,1.05469,0.57601
317.47,20.76785,-0.89109,1.05824,0.57585
317.97,20.78144,-0.90281,1.06503,0.5757
318.47,20.79508,-0.91511,1.0699,0.57555
318.97,20.8087,-0.92807,1.07392,0.57539
319.47,20.8223,-0.94072,1.07815,0.57524
319.97,20.83598,-0.95302,1.08377,0.57509
320.47,20.8496,-0.96534,1.08675,0.57493
320.97,20.86325,-0.97719,1.08935,0.57478
321.47,20.87689,-0.98864,1.09763,0.57462
321.97,20.89058,-1.00013,1.1059,0.57447
322.47,20.9042,-1.01186,1.11276,0.57431
322.97,20.9179,-1.02413,1.11253,0.57416
323.47,20.93158,-1.03661,1.12023,0.574
323.97,20.94525,-1.04878,1.1247,0.57385
324.47,20.95891,-1.06068,1.12855,0.57369
324.97,20.97255,-1.07134,1.13397,0.57354
325.47,20.9862,-1.08253,1.13626,0.57338
325.97,20.99986,-1.09509,1.14187,0.57323
326.47,21.01353,-1.10915,1.14511,0.57307
326.97,21.0272,-1.12458,1.15602,0.57292
327.47,21.04084,-1.14148,1.16305,0.57276
327.97,21.05455,-1.15956,1.17053,0.5726
328.47,21.0682,-1.17747,1.17819,0.57245
328.97,21.08185,-1.19529,1.18392,0.57229
329.47,21.0955,-1.21215,1.19006,0.57213
329.97,21.10914,-1.22792,1.19657,0.57198
330.47,21.1228,-1.2431,1.20346,0.57182
330.97,21.13648,-1.25866,1.20806,0.57166
331.47,21.15016,-1.27456,1.21545,0.5715
331.97,21.1638,-1.29048,1.22247,0.57135
332.47,21.17752,-1.30755,1.22771,0.57119
332.97,21.19121,-1.32455,1.24061,0.57103
333.47,21.20485,-1.34268,1.24584,0.57087
333.97,21.21852,-1.36267,1.25567,0.57071
334.47,21.23215,-1.38296,1.26242,0.57056
334.97,21.24578,-1.40308,1.27358,0.5704
335.47,21.2594,-1.42141,1.28254,0.57024
335.97,21.27308,-1.44004,1.29117,0.57008
336.47,21.2867,-1.45967,1.29916,0.56992
336.97,21.30035,-1.47965,1.31165,0.56976
337.47,21.31401,-1.5006,1.32513,0.5696
337.97,21.32769,-1.52259,1.33067,0.56944
338.47,21.34132,-1.54467,1.34298,0.56929
338.97,21.35499,-1.56561,1.35186,0.56913
339.47,21.36865,-1.58747,1.3662,0.56897
339.97,21.38231,-1.60961,1.37134,0.56881
340.47,21.396,-1.63251,1.38387,0.56865
340.97,21.40964,-1.65678,1.39347,0.56849
341.47,21.4233,-1.68175,1.40335,0.56833
341.97,21.43692,-1.70699,1.41979,0.56817
342.47,21.45045,-1.73279,1.42887,0.56801
342.97,21.46398,-1.75975,1.4392,0.56784
343.47,21.4775,-1.78781,1.44873,0.56768
343.97,21.49099,-1.81698,1.45589,0.56752
344.47,21.50463,-1.84713,1.46446,0.56736
344.97,21.51838,-1.87619,1.47172,0.5672
345.47,21.53214,-1.90561,1.47243,0.56704
345.97,21.54583,-1.9353,1.47566,0.56688
346.47,21.55944,-1.96532,1.47672,0.56672
346.97,21.573,-1.99574,1.47158,0.56656
347.47,21.5865,-2.0269,1.46471,0.56639
347.97,21.59998,-2.06041,1.45308,0.56623
348.47,21.61359,-2.09384,1.43108,0.56607
348.97,21.62739,-2.12591,1.40998,0.56591
349.47,21.64116,-2.16423,1.3833,0.56574
349.97,21.65494,-2.20641,1.35327,0.56558
350.47,21.66872,-2.24783,1.31664,0.56542
350.97,21.68246,-2.28248,1.27775,0.56526
351.47,21.69613,-2.31631,1.24001,0.56509
351.97,21.70982,-2.34979,1.1995,0.56493
352.47,21.72353,-2.38292,1.15727,0.56477
352.97,21.7373,-2.41612,1.11552,0.56461
353.47,21.75104,-2.45049,1.07307,0.56444
353.97,21.76483,-2.47706,1.02994,0.56428
354.47,21.77863,-2.49994,0.98775,0.56411
354.97,21.79242,-2.52151,0.94785,0.56395
355.47,21.80623,-2.54334,0.90635,0.56379
355.97,21.82005,-2.5664,0.86805,0.56362
356.47,21.83386,-2.59062,0.83091,0.56346
356.97,21.84768,-2.61395,0.79193,0.5633
357.47,21.86159,-2.63647,0.75632,0.56313
357.97,21.8755,-2.65615,0.71988,0.56297
358.47,21.88949,-2.67298,0.68583,0.5628
358.97,21.90351,-2.68737,0.65038,0.56264
359.47,21.91749,-2.70102,0.61645,0.56247
359.97,21.93146,-2.71416,0.58606,0.56231
360.47,21.9454,-2.72663,0.55374,0.56214
360.97,21.95937,-2.73866,0.5247,0.56198
361.47,21.97329,-2.75035,0.49884,0.56181
361.97,21.98728,-2.76149,0.46559,0.56165
362.47,22.00124,-2.77133,0.43947,0.56148
362.97,22.01525,-2.7786,0.41323,0.56132
363.47,22.02928,-2.78683,0.39101,0.56115
363.97,22.04328,-2.79567,0.36681,0.56098
364.47,22.0573,-2.80509,0.34629,0.56082
364.97,22.0713,-2.81356,0.32949,0.56065
365.47,22.0853,-2.82082,0.31195,0.56049
365.97,22.09929,-2.82449,0.29624,0.56032
366.47,22.1133,-2.82781,0.28173,0.56015
366.97,22.12734,-2.83407,0.26542,0.55999
367.47,22.14135,-2.84058,0.25741,0.55982
367.97,22.1554,-2.84609,0.24198,0.55965
368.47,22.1694,-2.85016,0.23017,0.55949
368.97,22.1834,-2.85257,0.22337,0.55932
369.47,22.19738,-2.85425,0.21243,0.55915
369.97,22.21141,-2.85813,0.20119,0.55899
370.47,22.22543,-2.86134,0.19809,0.55882
370.97,22.23943,-2.86643,0.18792,0.55865
371.47,22.25345,-2.87151,0.18314,0.55848
371.97,22.26747,-2.87588,0.17773,0.55832
372.47,22.2815,-2.87958,0.16832,0.55815
372.97,22.2956,-2.88228,0.16534,0.55798
373.47,22.3096,-2.88324,0.16067,0.55781
373.97,22.32367,-2.88459,0.1502,0.55764
374.47,22.33773,-2.88593,0.14817,0.55748
374.97,22.3518,-2.88823,0.14293,0.55731
375.47,22.3658,-2.89023,0.13846,0.55714
375.97,22.3798,-2.89347,0.13618,0.55697
376.47,22.39382,-2.89852,0.13342,0.5568
376.97,22.40784,-2.90246,0.13204,0.55663
377.47,22.4219,-2.90565,0.1286,0.55646
377.97,22.43591,-2.90963,0.12405,0.5563
378.47,22.4499,-2.91532,0.1265,0.55613
378.97,22.464,-2.9217,0.12311,0.55596
379.47,22.47804,-2.92665,0.11792,0.55579
379.97,22.49209,-2.92942,0.1216,0.55562
380.47,22.50616,-2.92891,0.11938,0.55545
380.97,22.5202,-2.92796,0.10988,0.55528
381.47,22.5342,-2.92796,0.11061,0.55511
381.97,22.54828,-2.92797,0.11016,0.55494
382.47,22.56235,-2.9281,0.10662,0.55477
382.97,22.57637,-2.92972,0.10647,0.5546
383.47,22.5904,-2.93215,0.10537,0.55443
383.97,22.60449,-2.93593,0.10161,0.55426
384.47,22.6186,-2.94105,0.09999182,0.55409
384.97,22.63264,-2.94576,0.10012,0.55392
385.47,22.64676,-2.94782,0.09674678,0.55375
385.97,22.6609,-2.94871,0.09265015,0.55358
386.47,22.67495,-2.9491,0.09224376,0.55341
386.97,22.68905,-2.95074,0.08877488,0.55324
387.47,22.70316,-2.9529,0.09137959,0.55307
387.97,22.71729,-2.9577,0.08859712,0.5529
388.47,22.73139,-2.96136,0.08921636,0.55273
388.97,22.74553,-2.96376,0.083328,0.55255
389.47,22.75965,-2.96503,0.08196716,0.55238
389.97,22.7738,-2.96605,0.07809123,0.55221
390.47,22.78789,-2.96739,0.08082138,0.55204
390.97,22.802,-2.96937,0.07909419,0.55187
391.47,22.8161,-2.97274,0.07941065,0.5517
391.97,22.83026,-2.97529,0.07343618,0.55153
392.47,22.84441,-2.9789,0.07397234,0.55135
392.97,22.85856,-2.98136,0.07148347,0.55118
393.47,22.8727,-2.98346,0.07330981,0.55101
393.97,22.8869,-2.98545,0.07023829,0.55084
394.47,22.90108,-2.98717,0.07238566,0.55067
394.97,22.9152,-2.9911,0.06918157,0.5505
395.47,22.92941,-2.9969,0.07013115,0.55032
395.97,22.9436,-3.00169,0.07005531,0.55015
396.47,22.95774,-3.00174,0.0643935,0.54998
396.97,22.97192,-2.99856,0.06441446,0.54981
397.47,22.98612,-2.99318,0.06269952,0.54963
397.97,23.00028,-2.99002,0.05905573,0.54946
398.47,23.01446,-2.99188,0.05745203,0.54929
398.97,23.02869,-2.99617,0.05409032,0.54911
399.47,23.0429,-3.00129,0.05437102,0.54894
399.97,23.0571,-3.00506,0.05224388,0.54877
400.47,23.07134,-3.00874,0.05280949,0.5486
400.97,23.0855,-3.01122,0.05100557,0.54842
401.47,23.09974,-3.01361,0.04991363,0.54825
401.97,23.11394,-3.01712,0.04615073,0.54808
402.47,23.12815,-3.01886,0.04499381,0.5479
402.97,23.14235,-3.02076,0.04338469,0.54773
403.47,23.1566,-3.02282,0.04204634,0.54756
403.97,23.1708,-3.02606,0.04105994,0.54738
404.47,23.185,-3.02878,0.04324139,0.54721
404.97,23.19931,-3.0304,0.04473864,0.54703
405.47,23.21357,-3.03153,0.04079174,0.54686
405.97,23.22785,-3.03297,0.04119309,0.54669
406.47,23.2421,-3.03531,0.03748231,0.54651
406.97,23.25637,-3.0383,0.03354514,0.54634
407.47,23.27061,-3.04071,0.03250489,0.54616
407.97,23.2849,-3.04327,0.03334304,0.54599
408.47,23.29915,-3.04581,0.03279538,0.54582
408.97,23.31344,-3.04808,0.03333461,0.54564
409.47,23.32775,-3.05183,0.03051594,0.54547
409.97,23.34206,-3.05366,0.02959801,0.54529
410.47,23.35633,-3.05547,0.02789843,0.54512
410.97,23.37063,-3.05701,0.02905384,0.54494
411.47,23.38492,-3.05883,0.02837943,0.54477
411.97,23.39921,-3.06104,0.02670575,0.54459
412.47,23.41354,-3.06289,0.0248424,0.54442
412.97,23.4279,-3.06566,0.02194847,0.54424
413.47,23.44217,-3.06738,0.0177907,0.54407
413.97,23.45648,-3.06715,0.02200961,0.54389
414.47,23.4708,-3.06762,0.02091482,0.54372
414.97,23.48508,-3.06766,0.01798313,0.54354
415.47,23.49939,-3.06942,0.01770466,0.54337
415.97,23.51371,-3.0709,0.01678568,0.54319
416.47,23.52807,-3.07383,0.01176322,0.54302
416.97,23.5425,-3.07612,0.008946139,0.54284
417.47,23.55685,-3.07887,0.01138011,0.54267
417.97,23.5712,-3.0808,0.005446599,0.54249
418.47,23.58559,-3.08204,0.004962524,0.54231
418.97,23.59994,-3.08349,0.002552537,0.54214
419.47,23.6143,-3.0846,0.00300115,0.54196
419.97,23.6286,-3.08621,-0.0035115,0.54179
420.47,23.643,-3.08779,-0.00427368,0.54161
420.97,23.65735,-3.09006,-0.003548516,0.54143
421.47,23.67175,-3.09222,-0.009317755,0.54126
421.97,23.68609,-3.09436,-0.01017114,0.54108
422.47,23.7005,-3.09591,-0.01283802,0.54091
422.97,23.71491,-3.097,-0.01483392,0.54073
423.47,23.72931,-3.09961,-0.01181515,0.54055
423.97,23.7437,-3.10201,-0.01553154,0.54038
424.47,23.75809,-3.10474,-0.01814875,0.5402
424.97,23.7725,-3.10647,-0.02223129,0.54002
425.47,23.7868,-3.10934,-0.02219664,0.53985
425.97,23.80121,-3.11174,-0.02314771,0.53967
426.47,23.81563,-3.11399,-0.0212574,0.53949
426.97,23.83,-3.11654,-0.02912279,0.53932
427.47,23.84445,-3.11851,-0.02902951,0.53914
427.97,23.85887,-3.12105,-0.0331343,0.53896
428.47,23.87331,-3.12287,-0.03314641,0.53879
428.97,23.88772,-3.12494,-0.03493284,0.53861
429.47,23.9022,-3.12785,-0.03414022,0.53843
429.97,23.91664,-3.13074,-0.03585762,0.53825
430.47,23.93112,-3.13351,-0.03775737,0.53808
430.97,23.94559,-3.13432,-0.03842252,0.5379
431.47,23.9601,-3.13549,-0.04386673,0.53772
431.97,23.97454,-3.13696,-0.04262431,0.53754
432.47,23.989,-3.1374,-0.04846913,0.53737
432.97,24.0034,-3.13894,-0.05176367,0.53719
433.47,24.01793,-3.13968,-0.05195554,0.53701
433.97,24.03239,-3.14165,-0.05588593,0.53683
434.47,24.0469,-3.14527,-0.05405025,0.53666
434.97,24.06138,-3.14629,-0.05927254,0.53648
435.47,24.07584,-3.14726,-0.05947072,0.5363
435.97,24.09029,-3.14924,-0.05875087,0.53612
436.47,24.10476,-3.15159,-0.06400064,0.53595
436.97,24.11926,-3.15528,-0.06445374,0.53577
437.47,24.13372,-3.15784,-0.06937595,0.53559
437.97,24.1482,-3.15898,-0.07159086,0.53541
438.47,24.16272,-3.15993,-0.07284065,0.53523
438.97,24.1772,-3.16043,-0.07717386,0.53505
439.47,24.19174,-3.1617,-0.0791956,0.53488
439.97,24.20629,-3.1613,-0.07921661,0.5347
440.47,24.2209,-3.16321,-0.08404884,0.53452
440.97,24.23539,-3.16495,-0.08034771,0.53434
441.47,24.24997,-3.16682,-0.083353,0.53416
441.97,24.26453,-3.16889,-0.08907813,0.53398
442.47,24.27907,-3.1729,-0.08859097,0.53381
442.97,24.29361,-3.17871,-0.09259552,0.53363
443.47,24.30818,-3.18309,-0.09215944,0.53345
443.97,24.32274,-3.18435,-0.09797622,0.53327
444.47,24.3373,-3.18074,-0.1021,0.53309
444.97,24.35189,-3.17558,-0.10701,0.53291
445.47,24.36649,-3.17561,-0.10642,0.53273
445.97,24.3811,-3.17822,-0.11227,0.53256
446.47,24.39568,-3.18221,-0.11443,0.53238
446.97,24.41027,-3.18696,-0.11634,0.5322
447.47,24.4249,-3.19056,-0.12047,0.53202
447.97,24.43945,-3.19227,-0.12173,0.53184
448.47,24.45405,-3.19389,-0.12576,0.53166
448.97,24.4686,-3.19286,-0.1275,0.53148
449.47,24.4832,-3.19364,-0.13243,0.5313
449.97,24.49779,-3.19377,-0.13423,0.53112
450.47,24.5124,-3.1949,-0.1362,0.53094
450.97,24.52698,-3.19653,-0.13707,0.53076
451.47,24.54157,-3.19835,-0.1439,0.53059
451.97,24.5562,-3.20037,-0.14338,0.53041
452.47,24.57082,-3.20248,-0.14702,0.53023
452.97,24.58545,-3.20404,-0.14988,0.53005
453.47,24.60015,-3.20603,-0.1545,0.52987
453.97,24.61482,-3.20655,-0.1592,0.52969
454.47,24.62949,-3.20797,-0.15682,0.52951
454.97,24.6442,-3.20965,-0.15743,0.52933
455.47,24.65886,-3.21217,-0.15927,0.52915
455.97,24.6735,-3.21495,-0.16582,0.52897
456.47,24.68815,-3.2184,-0.16171,0.52879
456.97,24.70277,-3.22156,-0.16832,0.52861
457.47,24.7174,-3.22455,-0.16961,0.52843
457.97,24.73205,-3.22554,-0.172,0.52825
458.47,24.74671,-3.22774,-0.17534,0.52807
458.97,24.76139,-3.22766,-0.17473,0.52789
459.47,24.77607,-3.22637,-0.17491,0.52771
459.97,24.7908,-3.22653,-0.18192,0.52753
460.47,24.80546,-3.2283,-0.18272,0.52735
460.97,24.82016,-3.23083,-0.1819,0.52717
461.47,24.83486,-3.2326,-0.18548,0.52699
461.97,24.8496,-3.23453,-0.18604,0.52681
462.47,24.8643,-3.23521,-0.18987,0.52663
462.97,24.8791,-3.2368,-0.1907,0.52645
463.47,24.8938,-3.23685,-0.19319,0.52627
463.97,24.90858,-3.23797,-0.19336,0.52609
464.47,24.92333,-3.23815,-0.19423,0.52591
464.97,24.93806,-3.23942,-0.20048,0.52573
465.47,24.9528,-3.24082,-0.20028,0.52555
465.97,24.96754,-3.24329,-0.20135,0.52537
466.47,24.98226,-3.24513,-0.2042,0.52519
466.97,24.997,-3.24648,-0.20663,0.52501
467.47,25.01175,-3.24731,-0.2074,0.52483
467.97,25.02654,-3.2488,-0.20877,0.52465
468.47,25.0413,-3.25063,-0.21094,0.52447
468.97,25.05611,-3.25065,-0.21308,0.52429
469.47,25.07092,-3.25125,-0.21153,0.52411
469.97,25.0858,-3.25138,-0.21426,0.52393
470.47,25.1006,-3.25277,-0.21969,0.52374
470.97,25.11542,-3.25471,-0.22271,0.52356
471.47,25.1302,-3.25489,-0.22067,0.52338
471.97,25.145,-3.25663,-0.22574,0.5232
472.47,25.1598,-3.2583,-0.22403,0.52302
472.97,25.17463,-3.25945,-0.22825,0.52284
473.47,25.18946,-3.26273,-0.22514,0.52266
473.97,25.20433,-3.26412,-0.22927,0.52248
474.47,25.2192,-3.26462,-0.23069,0.5223
474.97,25.234,-3.26593,-0.2299,0.52212
475.47,25.24887,-3.26748,-0.2352,0.52194
475.97,25.26373,-3.26963,-0.23296,0.52176
476.47,25.2786,-3.27145,-0.23598,0.52158
476.97,25.29342,-3.27327,-0.23515,0.52139
477.47,25.30827,-3.27497,-0.23271,0.52121
477.97,25.32315,-3.27656,-0.23509,0.52103
478.47,25.33803,-3.27801,-0.23324,0.52085
478.97,25.35289,-3.27806,-0.23739,0.52067
479.47,25.36778,-3.27864,-0.23869,0.52049
479.97,25.38267,-3.27814,-0.24055,0.52031
480.47,25.39755,-3.28017,-0.23965,0.52013
480.97,25.41243,-3.28275,-0.23934,0.51995
481.47,25.42738,-3.28492,-0.24137,0.51977
481.97,25.44236,-3.28686,-0.23764,0.51958
482.47,25.45733,-3.28781,-0.24217,0.5194
482.97,25.4723,-3.28908,-0.24232,0.51922
483.47,25.48719,-3.28978,-0.24075,0.51904
483.97,25.5021,-3.28942,-0.24289,0.51886
484.47,25.51701,-3.28926,-0.24365,0.51868
484.97,25.53194,-3.29021,-0.24187,0.5185
485.47,25.54691,-3.2908,-0.24452,0.51832
485.97,25.56189,-3.29175,-0.24459,0.51814
486.47,25.57686,-3.29241,-0.24906,0.51795
486.97,25.5918,-3.29421,-0.24723,0.51777
487.47,25.60678,-3.29598,-0.24962,0.51759
487.97,25.6218,-3.29673,-0.24851,0.51741
488.47,25.63673,-3.29798,-0.25032,0.51723
488.97,25.6517,-3.29793,-0.24629,0.51705
489.47,25.66667,-3.29793,-0.24959,0.51687
489.97,25.68165,-3.29901,-0.25101,0.51669
490.47,25.69657,-3.30001,-0.25223,0.5165
490.97,25.7116,-3.30116,-0.25251,0.51632
491.47,25.7266,-3.30298,-0.24865,0.51614
491.97,25.74164,-3.30486,-0.24807,0.51596
492.47,25.75664,-3.30597,-0.25074,0.51578
492.97,25.77165,-3.30682,-0.2473,0.5156
493.47,25.78666,-3.30781,-0.24895,0.51542
493.97,25.80167,-3.30924,-0.25224,0.51523
494.47,25.81666,-3.30946,-0.25059,0.51505
494.97,25.8317,-3.30996,-0.24821,0.51487
495.47,25.84674,-3.31121,-0.25031,0.51469
495.97,25.86175,-3.31313,-0.24859,0.51451
496.47,25.87675,-3.3145,-0.25014,0.51433
496.97,25.89176,-3.31542,-0.25063,0.51415
497.47,25.90679,-3.31691,-0.2456,0.51396
497.97,25.92181,-3.31852,-0.24912,0.51378
498.47,25.93683,-3.3184,-0.25041,0.5136
498.97,25.95191,-3.31967,-0.24651,0.51342
499.47,25.967,-3.32079,-0.24762,0.51324
499.97,25.9821,-3.32123,-0.24343,0.51306
500.47,25.99723,-3.3228,-0.24665,0.51288
500.97,26.01239,-3.32295,-0.24686,0.51269
501.47,26.0275,-3.32294,-0.24569,0.51251
501.97,26.04255,-3.32391,-0.24566,0.51233
502.47,26.05767,-3.32427,-0.24365,0.51215
502.97,26.0728,-3.3233,-0.24596,0.51197
503.47,26.08782,-3.32442,-0.24975,0.51179
503.97,26.10294,-3.32458,-0.25008,0.5116
504.47,26.11806,-3.32593,-0.2493,0.51142
504.97,26.13315,-3.32698,-0.24827,0.51124
505.47,26.1482,-3.32743,-0.25022,0.51106
505.97,26.16336,-3.32744,-0.24691,0.51088
506.47,26.17845,-3.32744,-0.24886,0.5107
506.97,26.19352,-3.32744,-0.24798,0.51052
507.47,26.2087,-3.32741,-0.25196,0.51033
507.97,26.22387,-3.32868,-0.25141,0.51015
508.47,26.23892,-3.32894,-0.24986,0.50997
508.97,26.254,-3.33077,-0.24887,0.50979
509.47,26.269,-3.33079,-0.247,0.50961
509.97,26.28405,-3.33236,-0.25028,0.50943
510.47,26.29908,-3.33273,-0.25079,0.50924
510.97,26.3142,-3.33414,-0.24982,0.50906
511.47,26.32933,-3.3352,-0.25228,0.50888
511.97,26.3445,-3.33561,-0.24851,0.5087
512.47,26.3598,-3.33718,-0.24956,0.50852
512.97,26.37505,-3.33773,-0.24829,0.50834
513.47,26.3904,-3.33896,-0.24952,0.50816
513.97,26.4057,-3.34093,-0.24953,0.50797
514.47,26.4209,-3.34196,-0.25296,0.50779
514.97,26.43593,-3.34388,-0.25003,0.50761
515.47,26.45115,-3.34487,-0.25054,0.50743
515.97,26.46632,-3.34684,-0.2543,0.50725
516.47,26.48157,-3.34823,-0.25131,0.50707
516.97,26.4969,-3.34861,-0.24967,0.50689
517.47,26.5122,-3.35,-0.25274,0.5067
517.97,26.52747,-3.35042,-0.2574,0.50652
518.47,26.5427,-3.35039,-0.25317,0.50634
518.97,26.55793,-3.35014,-0.24738,0.50616
519.47,26.57315,-3.35112,-0.25082,0.50598
519.97,26.5884,-3.35143,-0.2516,0.5058
520.47,26.60363,-3.35267,-0.2522,0.50562
520.97,26.6189,-3.35321,-0.25197,0.50543
521.47,26.6342,-3.35491,-0.24929,0.50525
521.97,26.64948,-3.3569,-0.2517,0.50507
522.47,26.66475,-3.35898,-0.2515,0.50489
522.97,26.68,-3.35925,-0.24907,0.50471
523.47,26.6953,-3.35925,-0.25041,0.50453
523.97,26.71057,-3.35926,-0.2524,0.50435
524.47,26.7259,-3.35929,-0.25087,0.50416
524.97,26.7412,-3.35863,-0.25214,0.50398
525.47,26.7564,-3.35978,-0.25038,0.5038
525.97,26.7717,-3.3599,-0.25114,0.50362
526.47,26.78697,-3.3599,-0.25674,0.50344
526.97,26.8023,-3.3599,-0.25509,0.50326
527.47,26.8176,-3.35985,-0.25387,0.50308
527.97,26.8329,-3.3613,-0.25628,0.5029
528.47,26.8482,-3.36144,-0.25168,0.50271
528.97,26.8636,-3.36318,-0.255,0.50253
529.47,26.8789,-3.36369,-0.25198,0.50235
529.97,26.8942,-3.3638,-0.25546,0.50217
530.47,26.90952,-3.36532,-0.25704,0.50199
530.97,26.9248,-3.36663,-0.25906,0.50181
531.47,26.9402,-3.36847,-0.25434,0.50163
531.97,26.95552,-3.36971,-0.25438,0.50145
532.47,26.97082,-3.3701,-0.25085,0.50127
532.97,26.9861,-3.37011,-0.25251,0.50108
533.47,27.0015,-3.3701,-0.25397,0.5009
533.97,27.0167,-3.37075,-0.25203,0.50072
534.47,27.03205,-3.37155,-0.25603,0.50054
534.97,27.04744,-3.37193,-0.25887,0.50036
535.47,27.0628,-3.37288,-0.25779,0.50018
535.97,27.07817,-3.37328,-0.26077,0.5
536.47,27.09367,-3.37427,-0.26224,0.49982
536.97,27.1091,-3.37443,-0.26291,0.49964
537.47,27.1245,-3.37574,-0.26277,0.49945
537.97,27.13985,-3.3757,-0.26361,0.49927
538.47,27.1553,-3.37684,-0.26262,0.49909
538.97,27.17065,-3.37701,-0.26691,0.49891
539.47,27.18603,-3.37701,-0.26531,0.49873
539.97,27.2014,-3.37811,-0.26273,0.49855
540.47,27.2168,-3.37833,-0.26263,0.49837
540.97,27.2322,-3.37833,-0.26578,0.49819
541.47,27.24758,-3.37833,-0.26057,0.49801
541.97,27.263,-3.37833,-0.25853,0.49783
542.47,27.27842,-3.37828,-0.26086,0.49765
542.97,27.29385,-3.37967,-0.25817,0.49747
543.47,27.30923,-3.37962,-0.26161,0.49729
543.97,27.32463,-3.38099,-0.26066,0.4971
544.47,27.34003,-3.38118,-0.26415,0.49692
544.97,27.3554,-3.38209,-0.26173,0.49674
545.47,27.37081,-3.38249,-0.26163,0.49656
545.97,27.3863,-3.3825,-0.2603,0.49638
546.47,27.4017,-3.38255,-0.26197,0.4962
546.97,27.41718,-3.38406,-0.26225,0.49602
547.47,27.4326,-3.38515,-0.25938,0.49584
547.97,27.4481,-3.38517,-0.25982,0.49566
548.47,27.4635,-3.38609,-0.26102,0.49548
548.97,27.479,-3.38489,-0.26391,0.4953
549.47,27.49445,-3.38532,-0.26166,0.49512
549.97,27.50992,-3.38505,-0.26352,0.49494
550.47,27.52539,-3.38515,-0.26301,0.49476
550.97,27.5408,-3.38646,-0.26175,0.49458
551.47,27.55623,-3.38729,-0.26277,0.4944
551.97,27.5718,-3.389,-0.26089,0.49422
552.47,27.58725,-3.38897,-0.26254,0.49404
552.97,27.6028,-3.38897,-0.26342,0.49386
553.47,27.6183,-3.38897,-0.25921,0.49368
553.97,27.63387,-3.38897,-0.26353,0.4935
554.47,27.6493,-3.38897,-0.26424,0.49332
554.97,27.66481,-3.38897,-0.2611,0.49314
555.47,27.68034,-3.38898,-0.2643,0.49296
555.97,27.6958,-3.38918,-0.26451,0.49278
556.47,27.71132,-3.38894,-0.26468,0.4926
556.97,27.7268,-3.39052,-0.26619,0.49242
557.47,27.7423,-3.39114,-0.26411,0.49224
557.97,27.7578,-3.39344,-0.26419,0.49206
558.47,27.7733,-3.39577,-0.26826,0.49188
558.97,27.7889,-3.39723,-0.27004,0.4917
559.47,27.8044,-3.39752,-0.27144,0.49152
559.97,27.82002,-3.39917,-0.2749,0.49134
560.47,27.83558,-3.40015,-0.27098,0.49116
560.97,27.85112,-3.4006,-0.27224,0.49098
561.47,27.8666,-3.40181,-0.27732,0.4908
561.97,27.8822,-3.40191,-0.27565,0.49062
562.47,27.89772,-3.40211,-0.27167,0.49044
562.97,27.91328,-3.40313,-0.27339,0.49026
563.47,27.9288,-3.40346,-0.27221,0.49008
563.97,27.9443,-3.40346,-0.27495,0.4899
564.47,27.9597,-3.40346,-0.27055,0.48972
564.97,27.9753,-3.40347,-0.27866,0.48954
565.47,27.9909,-3.40385,-0.27399,0.48936
565.97,28.0065,-3.40444,-0.2743,0.48918
566.47,28.0222,-3.405,-0.27766,0.489
566.97,28.03786,-3.40598,-0.27373,0.48883
567.47,28.0534,-3.40709,-0.27254,0.48865
567.97,28.06901,-3.4075,-0.27433,0.48847
568.47,28.0846,-3.40749,-0.27829,0.48829
568.97,28.10023,-3.40864,-0.27621,0.48811
569.47,28.11583,-3.40911,-0.27856,0.48793
569.97,28.1314,-3.41053,-0.27699,0.48775
570.47,28.14702,-3.4113,-0.2735,0.48757
570.97,28.1626,-3.41218,-0.27841,0.48739
571.47,28.1782,-3.41405,-0.27703,0.48721
571.97,28.19383,-3.41507,-0.2813,0.48703
572.47,28.20948,-3.41616,-0.28242,0.48686
572.97,28.2251,-3.4168,-0.27751,0.48668
573.47,28.24077,-3.41816,-0.27702,0.4865
573.97,28.2564,-3.41792,-0.28128,0.48632
574.47,28.272,-3.41682,-0.28342,0.48614
574.97,28.2876,-3.41684,-0.28827,0.48596
575.47,28.30327,-3.41684,-0.28547,0.48578
575.97,28.3189,-3.41684,-0.28347,0.4856
576.47,28.3346,-3.41684,-0.28578,0.48543
576.97,28.3503,-3.41685,-0.28245,0.48525
577.47,28.366,-3.41741,-0.28631,0.48507
577.97,28.38162,-3.41813,-0.28772,0.48489
578.47,28.3973,-3.41893,-0.28703,0.48471
578.97,28.41297,-3.4197,-0.28977,0.48453
579.47,28.4287,-3.42064,-0.28969,0.48436
579.97,28.44432,-3.42202,-0.29269,0.48418
580.47,28.46002,-3.42199,-0.29342,0.484
580.97,28.47568,-3.42199,-0.28816,0.48382
581.47,28.4913,-3.42199,-0.28824,0.48364
581.97,28.507,-3.42199,-0.28994,0.48347
582.47,28.52263,-3.42199,-0.29013,0.48329
582.97,28.53831,-3.422,-0.29159,0.48311
583.47,28.554,-3.42273,-0.29482,0.48293
583.97,28.5697,-3.42329,-0.28996,0.48275
584.47,28.58535,-3.42331,-0.29166,0.48258
584.97,28.6012,-3.42415,-0.28548,0.4824
585.47,28.61688,-3.42504,-0.28747,0.48222
585.97,28.63265,-3.42656,-0.29433,0.48204
586.47,28.6485,-3.42711,-0.29163,0.48186
586.97,28.66419,-3.42815,-0.29231,0.48169
587.47,28.67993,-3.42813,-0.28949,0.48151
587.97,28.69562,-3.42812,-0.29136,0.48133
588.47,28.71135,-3.42894,-0.29622,0.48115
588.97,28.72713,-3.42942,-0.30848,0.48098
589.47,28.7429,-3.42807,-0.31751,0.4808
589.97,28.75863,-3.42809,-0.32499,0.48062
590.47,28.7744,-3.42949,-0.32992,0.48044
590.97,28.7901,-3.42957,-0.33212,0.48027
591.47,28.8058,-3.43112,-0.34217,0.48009
591.97,28.82152,-3.43175,-0.33773,0.47991
592.47,28.8373,-3.43373,-0.34225,0.47974
592.97,28.853,-3.43477,-0.34107,0.47956
593.47,28.8688,-3.43603,-0.34228,0.47938
593.97,28.8846,-3.4375,-0.34311,0.47921
594.47,28.90036,-3.43744,-0.34648,0.47903
594.97,28.9161,-3.43619,-0.35029,0.47885
595.47,28.9319,-3.43743,-0.34359,0.47867
595.97,28.94769,-3.43842,-0.34892,0.4785
596.47,28.9634,-3.4395,-0.34911,0.47832
596.97,28.97922,-3.44106,-0.35163,0.47814
597.47,28.995,-3.44111,-0.35302,0.47797
597.97,29.01078,-3.44106,-0.35561,0.47779
598.47,29.0266,-3.44129,-0.3554,0.47762
598.97,29.0424,-3.44186,-0.35124,0.47744
599.47,29.05825,-3.44262,-0.3517,0.47726
599.97,29.07406,-3.44261,-0.34709,0.47709
600.47,29.08987,-3.44262,-0.35426,0.47691
600.97,29.10571,-3.44323,-0.35707,0.47673
601.47,29.1215,-3.44424,-0.36083,0.47656
601.97,29.13727,-3.44426,-0.35426,0.47638
602.47,29.1531,-3.44425,-0.35721,0.47621
602.97,29.16886,-3.44574,-0.3559,0.47603
603.47,29.1847,-3.44585,-0.3541,0.47585
603.97,29.2005,-3.44745,-0.35491,0.47568
604.47,29.2163,-3.44883,-0.35715,0.4755
604.97,29.23218,-3.44963,-0.35607,0.47533
605.47,29.24799,-3.4512,-0.35656,0.47515
605.97,29.2638,-3.45117,-0.35905,0.47497
606.47,29.2797,-3.45117,-0.35754,0.4748
606.97,29.29546,-3.45117,-0.36057,0.47462
607.47,29.3113,-3.45117,-0.35981,0.47445
607.97,29.3272,-3.45117,-0.36185,0.47427
608.47,29.3431,-3.45117,-0.35756,0.4741
608.97,29.359,-3.45118,-0.35978,0.47392
609.47,29.37497,-3.45205,-0.35782,0.47375
609.97,29.39077,-3.45257,-0.35818,0.47357
610.47,29.4066,-3.45259,-0.35748,0.4734
610.97,29.4225,-3.4542,-0.35515,0.47322
611.47,29.4384,-3.45409,-0.34868,0.47305
611.97,29.4543,-3.45548,-0.34993,0.47287
612.47,29.47032,-3.45545,-0.35162,0.4727
612.97,29.4862,-3.45543,-0.35021,0.47252
613.47,29.50214,-3.4568,-0.3525,0.47235
613.97,29.51799,-3.4577,-0.3573,0.47217
614.47,29.53394,-3.45893,-0.3572,0.472
614.97,29.54986,-3.46069,-0.36073,0.47182
615.47,29.5658,-3.46132,-0.36674,0.47165
615.97,29.58168,-3.46137,-0.37428,0.47147
616.47,29.59763,-3.46137,-0.38281,0.4713
616.97,29.61335,-3.46137,-0.38976,0.47112
617.47,29.6292,-3.46137,-0.39799,0.47095
617.97,29.6452,-3.46137,-0.40197,0.47078
618.47,29.66109,-3.46137,-0.41501,0.4706
618.97,29.6771,-3.46133,-0.41587,0.47043
619.47,29.6933,-3.4629,-0.43285,0.47025
619.97,29.70921,-3.46356,-0.43985,0.47008
620.47,29.7251,-3.4656,-0.44525,0.46991
620.97,29.7411,-3.46571,-0.45069,0.46973
621.47,29.757,-3.46725,-0.45415,0.46956
621.97,29.77301,-3.46748,-0.46174,0.46938
622.47,29.789,-3.46852,-0.46788,0.46921
622.97,29.805,-3.4685,-0.47022,0.46904
623.47,29.8209,-3.4685,-0.47339,0.46886
623.97,29.8368,-3.4685,-0.4726,0.46869
624.47,29.8527,-3.4685,-0.4775,0.46852
624.97,29.86869,-3.4685,-0.47349,0.46834
625.47,29.88465,-3.4685,-0.4733,0.46817
625.97,29.9006,-3.4685,-0.47103,0.468
626.47,29.9167,-3.4685,-0.47146,0.46782
626.97,29.9327,-3.4685,-0.46979,0.46765
627.47,29.94867,-3.46847,-0.47124,0.46748
627.97,29.96467,-3.46968,-0.47465,0.4673
628.47,29.98065,-3.46983,-0.47139,0.46713
628.97,29.99667,-3.471,-0.46617,0.46696
629.07,29.9998,-3.47092,-0.4671,0.46692