File: 01_Data/Cotton_Raw/STA/N2/30K_min/Cotton_Raw_STA_N2_30KData_210712_R3.csv
##Temp./Â°C,Time/min,Mass loss(subtr.2)/mg,DSC(subtr.2)/(mW/mg),Sensit./(uV/mW)
50.562,10.00583,-0.02896,-0.018653,0.6235
51.062,10.95151,-0.03113651,-0.000674357,0.6235
51.562,11.15287,-0.03148946,0.01146916,0.62349
52.062,11.28997,-0.03126326,0.03000889,0.62349
52.562,11.39707,-0.03041459,0.04238521,0.62348
53.062,11.48816,-0.0323485,0.05326947,0.62347
53.562,11.56652,-0.03308879,0.06464758,0.62347
54.062,11.63738,-0.03423277,0.07423645,0.62346
54.562,11.70118,-0.03379753,0.0876756,0.62345
55.062,11.76012,-0.03360247,0.09813882,0.62344
55.562,11.81537,-0.03453767,0.10726,0.62343
56.062,11.86758,-0.03165737,0.11574,0.62342
56.562,11.91617,-0.03362847,0.12578,0.62342
57.062,11.96354,-0.03229589,0.13615,0.62341
57.562,12.009,-0.03440711,0.14287,0.6234
58.062,12.05228,-0.03298725,0.15372,0.62339
58.562,12.0938,-0.03484992,0.16255,0.62337
59.062,12.13366,-0.03602678,0.16881,0.62336
59.562,12.17262,-0.03729554,0.17666,0.62335
60.062,12.21026,-0.03559297,0.1868,0.62334
60.562,12.24721,-0.03470232,0.19335,0.62333
61.062,12.28358,-0.03409549,0.20233,0.62331
61.562,12.3188,-0.03456354,0.21047,0.6233
62.062,12.3531,-0.03534261,0.21684,0.62329
62.562,12.3865,-0.03654197,0.22059,0.62327
63.062,12.41949,-0.03694666,0.22734,0.62326
63.562,12.4513,-0.03645057,0.23452,0.62325
64.062,12.48243,-0.03799303,0.23841,0.62323
64.562,12.51373,-0.03802796,0.24725,0.62322
65.062,12.54568,-0.03675252,0.25399,0.6232
65.562,12.57651,-0.03680177,0.2613,0.62318
66.062,12.60674,-0.03777878,0.26859,0.62317
66.562,12.6364,-0.03833895,0.27517,0.62315
67.062,12.66601,-0.03850727,0.27775,0.62313
67.562,12.695,-0.03850048,0.28696,0.62312
68.062,12.7238,-0.03855876,0.29082,0.6231
68.562,12.75239,-0.03828358,0.29813,0.62308
69.062,12.7805,-0.03682249,0.30268,0.62306
69.562,12.8086,-0.04269211,0.30937,0.62304
70.062,12.8363,-0.05420835,0.31287,0.62302
70.562,12.86388,-0.04643325,0.31985,0.623
71.062,12.89119,-0.02924039,0.32556,0.62298
71.562,12.91827,-0.03155183,0.32897,0.62296
72.062,12.945,-0.0379358,0.33542,0.62294
72.562,12.9716,-0.04261857,0.3409,0.62292
73.062,12.99824,-0.04543248,0.3475,0.6229
73.562,13.02469,-0.04402984,0.34978,0.62288
74.062,13.05068,-0.0431684,0.35604,0.62285
74.562,13.07657,-0.04379305,0.36281,0.62283
75.062,13.10223,-0.04390345,0.3682,0.62281
75.562,13.12793,-0.04383192,0.37161,0.62278
76.062,13.15352,-0.04244055,0.37928,0.62276
76.562,13.17884,-0.04386046,0.38642,0.62274
77.062,13.2043,-0.04361518,0.39208,0.62271
77.562,13.2293,-0.04403267,0.39522,0.62269
78.062,13.25429,-0.04553972,0.40247,0.62266
78.562,13.27909,-0.04561517,0.40669,0.62264
79.062,13.30388,-0.04602697,0.4153,0.62261
79.562,13.32845,-0.04705548,0.41932,0.62258
80.062,13.35294,-0.0466892,0.4256,0.62256
80.562,13.37725,-0.04701088,0.43396,0.62253
81.062,13.4015,-0.04604369,0.44094,0.6225
81.562,13.4255,-0.04726806,0.44184,0.62247
82.062,13.4494,-0.04722091,0.45016,0.62245
82.562,13.4732,-0.04858297,0.45403,0.62242
83.062,13.497,-0.04859449,0.45734,0.62239
83.562,13.5207,-0.04983513,0.46423,0.62236
84.062,13.54394,-0.05052357,0.47135,0.62233
84.562,13.5672,-0.05166432,0.47787,0.6223
85.062,13.5906,-0.05166001,0.48431,0.62227
85.562,13.61411,-0.05166635,0.48738,0.62224
86.062,13.63737,-0.05286295,0.49567,0.62221
86.562,13.66036,-0.05297763,0.50081,0.62218
87.062,13.68314,-0.05223944,0.50938,0.62214
87.562,13.7061,-0.05309604,0.51125,0.62211
88.062,13.72891,-0.05304368,0.5203,0.62208
88.562,13.7517,-0.05442132,0.52519,0.62205
89.062,13.7741,-0.05441265,0.53014,0.62201
89.562,13.7964,-0.0551357,0.53533,0.62198
90.062,13.8186,-0.05571099,0.54352,0.62195
90.562,13.8403,-0.05717252,0.54637,0.62191
91.062,13.8623,-0.05710157,0.55153,0.62188
91.562,13.8844,-0.05849164,0.55834,0.62184
92.062,13.9066,-0.05847016,0.56497,0.62181
92.562,13.92861,-0.058467,0.57256,0.62177
93.062,13.95033,-0.05885698,0.57506,0.62173
93.562,13.972,-0.05977804,0.58146,0.6217
94.062,13.99366,-0.059763,0.58793,0.62166
94.562,14.015,-0.06114287,0.59224,0.62162
95.062,14.03638,-0.06107026,0.5939,0.62159
95.562,14.05763,-0.06237436,0.60061,0.62155
96.062,14.07886,-0.0623968,0.60453,0.62151
96.562,14.1,-0.06412739,0.60719,0.62147
97.062,14.12086,-0.06504581,0.61182,0.62143
97.562,14.1418,-0.06505002,0.61768,0.62139
98.062,14.16265,-0.06505454,0.6172,0.62135
98.562,14.1835,-0.06580645,0.62442,0.62131
99.062,14.2043,-0.06635754,0.62889,0.62127
99.562,14.22494,-0.06636311,0.63378,0.62123
100.062,14.2455,-0.06732242,0.63705,0.62119
100.562,14.266,-0.06868349,0.64086,0.62115
101.062,14.28634,-0.06936493,0.64493,0.62111
101.562,14.30654,-0.07029705,0.64918,0.62107
102.062,14.32683,-0.07032199,0.6525,0.62102
102.562,14.347,-0.07175268,0.65353,0.62098
103.062,14.3672,-0.07176033,0.66075,0.62094
103.562,14.3871,-0.07306992,0.66034,0.62089
104.062,14.40673,-0.07384416,0.66717,0.62085
104.562,14.42644,-0.07459329,0.66769,0.62081
105.062,14.44619,-0.07495071,0.67381,0.62076
105.562,14.46611,-0.07589878,0.67604,0.62072
106.062,14.486,-0.07590063,0.67539,0.62067
106.562,14.50562,-0.07653561,0.67887,0.62063
107.062,14.5252,-0.07850345,0.68158,0.62058
107.562,14.54476,-0.07854122,0.68223,0.62053
108.062,14.56429,-0.07854072,0.68791,0.62049
108.562,14.5837,-0.07849515,0.68757,0.62044
109.062,14.603,-0.08060486,0.68881,0.62039
109.562,14.6221,-0.08115464,0.69016,0.62035
110.062,14.64132,-0.08114756,0.69243,0.6203
110.562,14.66053,-0.08225576,0.69348,0.62025
111.062,14.67971,-0.08248056,0.69558,0.6202
111.562,14.69875,-0.08247956,0.69257,0.62015
112.062,14.71761,-0.08269086,0.69382,0.6201
112.562,14.7364,-0.08381186,0.6957,0.62005
113.062,14.7552,-0.08400007,0.69555,0.62
113.562,14.774,-0.08510826,0.694,0.61995
114.062,14.7927,-0.08511904,0.6929,0.6199
114.562,14.8114,-0.08599914,0.69495,0.61985
115.062,14.83,-0.0864273,0.69265,0.6198
115.562,14.8486,-0.08637977,0.69289,0.61975
116.062,14.86718,-0.08741684,0.69183,0.6197
116.562,14.8856,-0.08905099,0.69128,0.61964
117.062,14.904,-0.08907387,0.6914,0.61959
117.562,14.92229,-0.08905397,0.68937,0.61954
118.062,14.9406,-0.09015779,0.68693,0.61948
118.562,14.9588,-0.09037375,0.68604,0.61943
119.062,14.977,-0.09164219,0.68415,0.61938
119.562,14.9952,-0.09170138,0.68172,0.61932
120.062,15.01327,-0.09169999,0.68433,0.61927
120.562,15.03134,-0.0917,0.68163,0.61921
121.062,15.04936,-0.09170003,0.67817,0.61916
121.562,15.06724,-0.09169947,0.67925,0.6191
122.062,15.08511,-0.09169061,0.6767,0.61904
122.562,15.10294,-0.0929227,0.67367,0.61899
123.062,15.12072,-0.09301358,0.6738,0.61893
123.562,15.1386,-0.0932914,0.67225,0.61887
124.062,15.1564,-0.09432928,0.67092,0.61882
124.562,15.174,-0.09557749,0.66719,0.61876
125.062,15.19164,-0.09584075,0.66463,0.6187
125.562,15.20916,-0.0974701,0.66394,0.61864
126.062,15.22665,-0.09739917,0.66149,0.61858
126.562,15.24416,-0.09739995,0.65861,0.61852
127.062,15.2616,-0.0974,0.658,0.61846
127.562,15.2789,-0.0974,0.65758,0.61841
128.062,15.2962,-0.0974,0.65391,0.61835
128.562,15.31344,-0.0974,0.65203,0.61828
129.062,15.3307,-0.0974,0.65005,0.61822
129.562,15.34804,-0.0974,0.6461,0.61816
130.062,15.36522,-0.09739999,0.64545,0.6181
130.562,15.38231,-0.09740089,0.64425,0.61804
131.062,15.3994,-0.09739686,0.64073,0.61798
131.562,15.4164,-0.09851738,0.63993,0.61792
132.062,15.43341,-0.09872234,0.63927,0.61785
132.562,15.4503,-0.09872018,0.63355,0.61779
133.062,15.4672,-0.09871999,0.63116,0.61773
133.562,15.4841,-0.09871999,0.63081,0.61766
134.062,15.5009,-0.09872016,0.62617,0.6176
134.562,15.5178,-0.09872351,0.6277,0.61753
135.062,15.53462,-0.09927889,0.62392,0.61747
135.562,15.55137,-0.09994548,0.62278,0.61741
136.062,15.56805,-0.10104,0.62098,0.61734
136.562,15.5847,-0.10102,0.61789,0.61727
137.062,15.60125,-0.10089,0.61719,0.61721
137.562,15.6179,-0.09996898,0.61578,0.61714
138.062,15.63447,-0.10004,0.61284,0.61708
138.562,15.65095,-0.10004,0.60897,0.61701
139.062,15.66753,-0.10003,0.60967,0.61694
139.562,15.68392,-0.10091,0.60725,0.61687
140.062,15.70036,-0.10159,0.60691,0.61681
140.562,15.71679,-0.1029,0.60566,0.61674
141.062,15.7331,-0.103,0.60549,0.61667
141.562,15.7494,-0.103,0.60278,0.6166
142.062,15.7657,-0.103,0.60495,0.61653
142.562,15.78188,-0.103,0.6003,0.61646
143.062,15.7981,-0.103,0.60038,0.61639
143.562,15.81427,-0.103,0.59814,0.61632
144.062,15.83044,-0.103,0.59685,0.61625
144.562,15.8466,-0.103,0.59831,0.61618
145.062,15.8628,-0.103,0.59345,0.61611
145.562,15.87905,-0.103,0.59231,0.61604
146.062,15.8952,-0.103,0.59213,0.61597
146.562,15.91133,-0.103,0.5926,0.6159
147.062,15.92736,-0.103,0.58881,0.61582
147.562,15.9433,-0.1028,0.58789,0.61575
148.062,15.95928,-0.10299,0.5884,0.61568
148.562,15.9751,-0.103,0.58721,0.6156
149.062,15.99105,-0.10321,0.58426,0.61553
149.562,16.0069,-0.10432,0.58667,0.61546
150.062,16.02283,-0.10431,0.58742,0.61538
150.562,16.03872,-0.10431,0.58645,0.61531
151.062,16.05465,-0.10431,0.587,0.61523
151.562,16.07049,-0.10431,0.58396,0.61516
152.062,16.08632,-0.10431,0.58394,0.61508
152.562,16.10205,-0.10431,0.58582,0.61501
153.062,16.1178,-0.10431,0.58607,0.61493
153.562,16.1336,-0.10428,0.58504,0.61486
154.062,16.1493,-0.10574,0.58777,0.61478
154.562,16.16505,-0.10596,0.58601,0.6147
155.062,16.1807,-0.10596,0.58733,0.61462
155.562,16.19639,-0.10596,0.58936,0.61455
156.062,16.212,-0.10596,0.58677,0.61447
156.562,16.22765,-0.10595,0.58191,0.61439
157.062,16.24324,-0.10669,0.58442,0.61431
157.562,16.25884,-0.10697,0.58517,0.61423
158.062,16.2744,-0.10593,0.5833,0.61415
158.562,16.28993,-0.10595,0.58578,0.61408
159.062,16.30545,-0.10595,0.58816,0.614
159.562,16.321,-0.10595,0.58649,0.61392
160.062,16.33653,-0.10595,0.58971,0.61384
160.562,16.35206,-0.10595,0.59209,0.61375
161.062,16.36751,-0.10595,0.59176,0.61367
161.562,16.38295,-0.10595,0.59241,0.61359
162.062,16.39838,-0.10595,0.59415,0.61351
162.562,16.41386,-0.10595,0.59528,0.61343
163.062,16.4293,-0.10595,0.59876,0.61335
163.562,16.44472,-0.10595,0.59929,0.61326
164.062,16.46015,-0.10595,0.59928,0.61318
164.562,16.47552,-0.10595,0.60199,0.6131
165.062,16.4908,-0.10595,0.60286,0.61302
165.562,16.50609,-0.10596,0.6072,0.61293
166.062,16.52144,-0.10618,0.60486,0.61285
166.562,16.5367,-0.10597,0.60899,0.61276
167.062,16.55198,-0.10596,0.60688,0.61268
167.562,16.5672,-0.10596,0.60936,0.6126
168.062,16.58234,-0.10596,0.61414,0.61251
168.562,16.59741,-0.10591,0.61073,0.61242
169.062,16.61262,-0.10728,0.61283,0.61234
169.562,16.6279,-0.10727,0.61344,0.61225
170.062,16.64309,-0.10727,0.61768,0.61217
170.562,16.6584,-0.10727,0.61671,0.61208
171.062,16.67366,-0.10728,0.61977,0.61199
171.562,16.68883,-0.10677,0.62221,0.61191
172.062,16.70399,-0.10662,0.62541,0.61182
172.562,16.7192,-0.10662,0.62435,0.61173
173.062,16.73435,-0.10662,0.62717,0.61164
173.562,16.7495,-0.10662,0.62879,0.61156
174.062,16.7646,-0.10662,0.6324,0.61147
174.562,16.77972,-0.10662,0.63245,0.61138
175.062,16.7948,-0.10717,0.63437,0.61129
175.562,16.8098,-0.10795,0.63429,0.6112
176.062,16.82486,-0.10793,0.63796,0.61111
176.562,16.8399,-0.10793,0.64076,0.61102
177.062,16.8549,-0.10738,0.64126,0.61093
177.562,16.86984,-0.10661,0.63995,0.61084
178.062,16.88481,-0.10662,0.64575,0.61075
178.562,16.89975,-0.10661,0.64515,0.61066
179.062,16.91468,-0.10547,0.64994,0.61056
179.562,16.92961,-0.1053,0.65098,0.61047
180.062,16.9445,-0.1053,0.65085,0.61038
180.562,16.95939,-0.1053,0.6543,0.61029
181.062,16.97421,-0.10531,0.6564,0.6102
181.562,16.98905,-0.10555,0.65989,0.6101
182.062,17.0039,-0.10664,0.66458,0.61001
182.562,17.01869,-0.10661,0.66118,0.60992
183.062,17.03349,-0.10661,0.66426,0.60982
183.562,17.0483,-0.10661,0.66465,0.60973
184.062,17.0631,-0.10661,0.66753,0.60963
184.562,17.07781,-0.10661,0.66976,0.60954
185.062,17.09256,-0.10661,0.67376,0.60945
185.562,17.10725,-0.10661,0.67193,0.60935
186.062,17.12197,-0.10661,0.67566,0.60925
186.562,17.1367,-0.10661,0.67858,0.60916
187.062,17.1514,-0.10661,0.6793,0.60906
187.562,17.16607,-0.10661,0.68054,0.60897
188.062,17.18076,-0.10666,0.68131,0.60887
188.562,17.19548,-0.10803,0.68294,0.60877
189.062,17.2101,-0.10928,0.68593,0.60868
189.562,17.2247,-0.10925,0.68578,0.60858
190.062,17.23934,-0.10925,0.68833,0.60848
190.562,17.25394,-0.10926,0.69035,0.60838
191.062,17.26847,-0.10952,0.69125,0.60828
191.562,17.28302,-0.11184,0.6921,0.60819
192.062,17.29758,-0.11188,0.69476,0.60809
192.562,17.3121,-0.11188,0.69615,0.60799
193.062,17.3266,-0.11008,0.69953,0.60789
193.562,17.3411,-0.10927,0.70104,0.60779
194.062,17.35556,-0.10925,0.70047,0.60769
194.562,17.37004,-0.10926,0.70233,0.60759
195.062,17.3845,-0.10948,0.70638,0.60749
195.562,17.399,-0.11056,0.7072,0.60739
196.062,17.4134,-0.11056,0.70827,0.60729
196.562,17.4279,-0.11056,0.70991,0.60719
197.062,17.4423,-0.11056,0.71219,0.60709
197.562,17.45674,-0.11056,0.71203,0.60698
198.062,17.47116,-0.11056,0.71519,0.60688
198.562,17.48563,-0.11056,0.71625,0.60678
199.062,17.49997,-0.1106,0.71678,0.60668
199.562,17.5143,-0.11204,0.71926,0.60657
200.062,17.5287,-0.11198,0.71598,0.60647
200.562,17.54296,-0.11198,0.7202,0.60637
201.062,17.55726,-0.11198,0.7217,0.60626
201.562,17.57166,-0.11198,0.72188,0.60616
202.062,17.58596,-0.11198,0.72406,0.60606
202.562,17.6003,-0.11241,0.72936,0.60595
203.062,17.61467,-0.11378,0.72666,0.60585
203.562,17.62896,-0.11395,0.72866,0.60574
204.062,17.64322,-0.11396,0.73073,0.60564
204.562,17.65749,-0.11396,0.73448,0.60553
205.062,17.6718,-0.11396,0.73094,0.60542
205.562,17.68599,-0.11429,0.73237,0.60532
206.062,17.7002,-0.11429,0.73669,0.60521
206.562,17.7145,-0.1143,0.7378,0.60511
207.062,17.72877,-0.11448,0.74074,0.605
207.562,17.74297,-0.11601,0.74225,0.60489
208.062,17.7573,-0.11594,0.7454,0.60478
208.562,17.77151,-0.11594,0.74589,0.60468
209.062,17.78571,-0.11594,0.74816,0.60457
209.562,17.79991,-0.11596,0.74907,0.60446
210.062,17.81416,-0.11705,0.75039,0.60435
210.562,17.8283,-0.11724,0.75159,0.60424
211.062,17.8425,-0.11725,0.75165,0.60414
211.562,17.85666,-0.11725,0.7512,0.60403
212.062,17.8708,-0.11725,0.75382,0.60392
212.562,17.88494,-0.11725,0.75213,0.60381
213.062,17.89909,-0.11725,0.75467,0.6037
213.562,17.91323,-0.11725,0.75696,0.60359
214.062,17.92734,-0.11725,0.76035,0.60348
214.562,17.94144,-0.11724,0.76189,0.60337
215.062,17.95553,-0.11788,0.76277,0.60326
215.562,17.9696,-0.11859,0.76319,0.60314
216.062,17.98369,-0.11858,0.76528,0.60303
216.562,17.99779,-0.11901,0.76737,0.60292
217.062,18.01193,-0.1214,0.76876,0.60281
217.562,18.026,-0.12143,0.76828,0.6027
218.062,18.04,-0.12218,0.77053,0.60258
218.562,18.05414,-0.12273,0.76839,0.60247
219.062,18.06821,-0.12273,0.77396,0.60236
219.562,18.08224,-0.1225,0.77635,0.60225
220.062,18.0963,-0.12138,0.78052,0.60213
220.562,18.11049,-0.12142,0.78176,0.60202
221.062,18.1245,-0.12165,0.7824,0.6019
221.562,18.13847,-0.12273,0.78117,0.60179
222.062,18.15253,-0.12274,0.78092,0.60168
222.562,18.1665,-0.12235,0.78633,0.60156
223.062,18.1804,-0.12141,0.78354,0.60145
223.562,18.19442,-0.12155,0.78444,0.60133
224.062,18.20844,-0.12278,0.78509,0.60122
224.562,18.22244,-0.12284,0.78644,0.6011
225.062,18.23641,-0.12395,0.78699,0.60098
225.562,18.2504,-0.12484,0.78844,0.60087
226.062,18.2644,-0.1256,0.7919,0.60075
226.562,18.2784,-0.12667,0.78982,0.60064
227.062,18.2924,-0.12669,0.78917,0.60052
227.562,18.30635,-0.12669,0.78912,0.6004
228.062,18.32033,-0.12713,0.78839,0.60028
228.562,18.33428,-0.12803,0.78892,0.60017
229.062,18.34821,-0.12798,0.78933,0.60005
229.562,18.36213,-0.12911,0.78721,0.59993
230.062,18.3761,-0.1295,0.78553,0.59981
230.562,18.39,-0.13027,0.79104,0.59969
231.062,18.40395,-0.13098,0.78825,0.59957
231.562,18.4178,-0.13093,0.79152,0.59946
232.062,18.43179,-0.13234,0.78651,0.59934
232.562,18.44572,-0.13239,0.78904,0.59922
233.062,18.45962,-0.13312,0.7866,0.5991
233.562,18.4735,-0.1339,0.78941,0.59898
234.062,18.48745,-0.13481,0.78874,0.59886
234.562,18.5013,-0.13533,0.78964,0.59874
235.062,18.51515,-0.136,0.79635,0.59862
235.562,18.52899,-0.1371,0.79703,0.59849
236.062,18.54288,-0.13852,0.79779,0.59837
236.562,18.5567,-0.139,0.79867,0.59825
237.062,18.57058,-0.14039,0.79936,0.59813
237.562,18.58448,-0.13969,0.79727,0.59801
238.062,18.5983,-0.14064,0.80349,0.59789
238.562,18.61213,-0.14117,0.80478,0.59776
239.062,18.62594,-0.14227,0.80982,0.59764
239.562,18.63974,-0.14272,0.81207,0.59752
240.062,18.65353,-0.14429,0.81386,0.5974
240.562,18.6674,-0.14422,0.81429,0.59727
241.062,18.6812,-0.14515,0.81795,0.59715
241.562,18.69501,-0.14551,0.82465,0.59702
242.062,18.70886,-0.14674,0.8257,0.5969
242.562,18.7227,-0.14761,0.83116,0.59678
243.062,18.73649,-0.15203,0.83453,0.59665
243.562,18.75028,-0.15761,0.8368,0.59653
244.062,18.7641,-0.15996,0.84193,0.5964
244.562,18.77787,-0.1616,0.84894,0.59628
245.062,18.79162,-0.16041,0.85027,0.59615
245.562,18.80545,-0.15626,0.86148,0.59603
246.062,18.81924,-0.15477,0.86479,0.5959
246.562,18.83304,-0.15564,0.86975,0.59578
247.062,18.8468,-0.15667,0.87628,0.59565
247.562,18.8606,-0.15844,0.88759,0.59552
248.062,18.8744,-0.15991,0.8948,0.5954
248.562,18.88812,-0.16182,0.90468,0.59527
249.062,18.90191,-0.16404,0.90661,0.59514
249.562,18.91573,-0.16604,0.915,0.59501
250.062,18.9295,-0.16761,0.92032,0.59489
250.562,18.9433,-0.16944,0.92808,0.59476
251.062,18.95704,-0.17125,0.93241,0.59463
251.562,18.9708,-0.17334,0.94135,0.5945
252.062,18.98452,-0.17482,0.95104,0.59437
252.562,18.99822,-0.17644,0.95604,0.59425
253.062,19.01193,-0.17809,0.95819,0.59412
253.562,19.02565,-0.17977,0.95885,0.59399
254.062,19.03934,-0.18199,0.96253,0.59386
254.562,19.05311,-0.18423,0.96451,0.59373
255.062,19.06685,-0.1866,0.9645,0.5936
255.562,19.0806,-0.18867,0.96666,0.59347
256.062,19.0943,-0.19114,0.96117,0.59334
256.562,19.10801,-0.19301,0.96051,0.59321
257.062,19.1217,-0.19455,0.95534,0.59308
257.562,19.13541,-0.1961,0.95487,0.59295
258.062,19.14912,-0.19799,0.94839,0.59282
258.562,19.16284,-0.20116,0.94083,0.59268
259.062,19.17653,-0.20391,0.93954,0.59255
259.562,19.19022,-0.20641,0.93279,0.59242
260.062,19.2039,-0.2081,0.92537,0.59229
260.562,19.21753,-0.20996,0.91953,0.59216
261.062,19.23123,-0.21232,0.91307,0.59203
261.562,19.24492,-0.2153,0.90751,0.59189
262.062,19.25861,-0.21882,0.90235,0.59176
262.562,19.27228,-0.2214,0.89934,0.59163
263.062,19.286,-0.22403,0.89129,0.59149
263.562,19.29969,-0.22691,0.88859,0.59136
264.062,19.31336,-0.22991,0.88592,0.59123
264.562,19.32705,-0.23291,0.88184,0.59109
265.062,19.3408,-0.23519,0.88171,0.59096
265.562,19.35444,-0.23763,0.8765,0.59082
266.062,19.36805,-0.23992,0.87495,0.59069
266.562,19.38169,-0.24239,0.87082,0.59056
267.062,19.39534,-0.24559,0.87016,0.59042
267.562,19.40896,-0.24919,0.86882,0.59029
268.062,19.4226,-0.25266,0.86732,0.59015
268.562,19.43619,-0.25508,0.86795,0.59002
269.062,19.44989,-0.25809,0.86728,0.58988
269.562,19.46349,-0.26102,0.86467,0.58974
270.062,19.47718,-0.26408,0.86457,0.58961
270.562,19.49083,-0.2678,0.86632,0.58947
271.062,19.50452,-0.27208,0.86434,0.58933
271.562,19.51815,-0.27571,0.86214,0.5892
272.062,19.53186,-0.2796,0.86582,0.58906
272.562,19.5455,-0.28432,0.86646,0.58892
273.062,19.5591,-0.28812,0.86886,0.58879
273.562,19.57272,-0.29228,0.86564,0.58865
274.062,19.5864,-0.29692,0.86415,0.58851
274.562,19.60005,-0.30202,0.86456,0.58837
275.062,19.6137,-0.30618,0.86408,0.58824
275.562,19.62731,-0.31058,0.86712,0.5881
276.062,19.64095,-0.31507,0.86864,0.58796
276.562,19.6545,-0.31954,0.86888,0.58782
277.062,19.6681,-0.32316,0.87182,0.58768
277.562,19.6817,-0.32613,0.87326,0.58754
278.062,19.69537,-0.33007,0.8744,0.5874
278.562,19.70901,-0.33415,0.87646,0.58726
279.062,19.72267,-0.33843,0.87657,0.58712
279.562,19.73629,-0.3428,0.87793,0.58698
280.062,19.74993,-0.34794,0.87621,0.58684
280.562,19.76351,-0.35277,0.88057,0.5867
281.062,19.77714,-0.35727,0.88043,0.58656
281.562,19.7908,-0.36227,0.87913,0.58642
282.062,19.80442,-0.36727,0.883,0.58628
282.562,19.81803,-0.37238,0.88448,0.58614
283.062,19.8317,-0.37737,0.88218,0.586
283.562,19.84532,-0.38207,0.886,0.58586
284.062,19.85895,-0.38711,0.88769,0.58572
284.562,19.87258,-0.3916,0.88898,0.58558
285.062,19.88622,-0.39623,0.88918,0.58543
285.562,19.8998,-0.40162,0.89134,0.58529
286.062,19.91347,-0.40745,0.89228,0.58515
286.562,19.9271,-0.41304,0.89518,0.58501
287.062,19.9407,-0.41864,0.89731,0.58486
287.562,19.95422,-0.42405,0.89765,0.58472
288.062,19.96793,-0.42946,0.89865,0.58458
288.562,19.98162,-0.43504,0.90202,0.58444
289.062,19.99525,-0.44088,0.89925,0.58429
289.562,20.009,-0.44676,0.90259,0.58415
290.062,20.02267,-0.45305,0.90247,0.584
290.562,20.03631,-0.45875,0.90362,0.58386
291.062,20.04991,-0.46379,0.90575,0.58372
291.562,20.06355,-0.46895,0.90862,0.58357
292.062,20.07712,-0.4744,0.9088,0.58343
292.562,20.09078,-0.48079,0.90718,0.58328
293.062,20.10439,-0.48764,0.9098,0.58314
293.562,20.11802,-0.49427,0.91113,0.58299
294.062,20.13168,-0.50057,0.91134,0.58285
294.562,20.14535,-0.50685,0.91224,0.5827
295.062,20.15899,-0.51357,0.91375,0.58256
295.562,20.1726,-0.52052,0.91454,0.58241
296.062,20.18629,-0.52782,0.91562,0.58226
296.562,20.19993,-0.53444,0.91916,0.58212
297.062,20.21353,-0.54094,0.92066,0.58197
297.562,20.2271,-0.54778,0.91894,0.58183
298.062,20.24072,-0.55489,0.92182,0.58168
298.562,20.25435,-0.56235,0.92535,0.58153
299.062,20.26793,-0.57014,0.92828,0.58139
299.562,20.28151,-0.57869,0.92659,0.58124
300.062,20.2952,-0.58582,0.93162,0.58109
300.562,20.3088,-0.59375,0.93381,0.58094
301.062,20.3224,-0.60257,0.93763,0.5808
301.562,20.33605,-0.61148,0.93663,0.58065
302.062,20.34971,-0.6189,0.93871,0.5805
302.562,20.36336,-0.62661,0.94003,0.58035
303.062,20.37707,-0.63418,0.9424,0.5802
303.562,20.39066,-0.64225,0.94731,0.58005
304.062,20.40428,-0.65066,0.95007,0.57991
304.562,20.41789,-0.65919,0.94967,0.57976
305.062,20.43148,-0.66777,0.95212,0.57961
305.562,20.4451,-0.67631,0.95558,0.57946
306.062,20.45876,-0.68536,0.95825,0.57931
306.562,20.47245,-0.69526,0.95908,0.57916
307.062,20.48612,-0.70573,0.96271,0.57901
307.562,20.49973,-0.71591,0.96546,0.57886
308.062,20.5134,-0.72587,0.96711,0.57871
308.562,20.5271,-0.73542,0.97132,0.57856
309.062,20.5407,-0.7448,0.97635,0.57841
309.562,20.5543,-0.75422,0.97679,0.57826
310.062,20.56788,-0.76399,0.98364,0.57811
310.562,20.5815,-0.77447,0.9856,0.57796
311.062,20.59514,-0.78549,0.98781,0.57781
311.562,20.60875,-0.79673,0.99275,0.57765
312.062,20.62236,-0.8085,0.99293,0.5775
312.562,20.63601,-0.81882,0.99729,0.57735
313.062,20.64963,-0.82939,1.00164,0.5772
313.562,20.66325,-0.84066,1.00416,0.57705
314.062,20.6769,-0.85279,1.00818,0.5769
314.562,20.69054,-0.86533,1.01056,0.57674
315.062,20.7042,-0.87748,1.01757,0.57659
315.562,20.7178,-0.88945,1.02028,0.57644
316.062,20.7314,-0.9013,1.02626,0.57629
316.562,20.74495,-0.91343,1.02669,0.57613
317.062,20.75858,-0.92597,1.03012,0.57598
317.562,20.77221,-0.93886,1.03218,0.57583
318.062,20.78588,-0.95189,1.03845,0.57567
318.562,20.79954,-0.96494,1.04311,0.57552
319.062,20.81321,-0.97776,1.04725,0.57537
319.562,20.82685,-0.99069,1.05246,0.57521
320.062,20.84045,-1.00421,1.05404,0.57506
320.562,20.854,-1.01836,1.06007,0.5749
321.062,20.86763,-1.03348,1.06427,0.57475
321.562,20.88123,-1.04815,1.0711,0.5746
322.062,20.89484,-1.06159,1.07812,0.57444
322.562,20.90846,-1.07575,1.08329,0.57429
323.062,20.92212,-1.09003,1.08915,0.57413
323.562,20.9358,-1.10551,1.09328,0.57398
324.062,20.94944,-1.12173,1.09586,0.57382
324.562,20.9631,-1.13725,1.10371,0.57367
325.062,20.9767,-1.15244,1.11021,0.57351
325.562,20.9903,-1.16753,1.11442,0.57335
326.062,21.00394,-1.18287,1.11963,0.5732
326.562,21.01759,-1.19952,1.12434,0.57304
327.062,21.03122,-1.21746,1.13066,0.57289
327.562,21.04487,-1.23553,1.14017,0.57273
328.062,21.05855,-1.25313,1.14391,0.57257
328.562,21.07225,-1.27019,1.15387,0.57242
329.062,21.0859,-1.28691,1.1571,0.57226
329.562,21.0995,-1.30394,1.16546,0.5721
330.062,21.11318,-1.32208,1.17171,0.57195
330.562,21.1268,-1.34124,1.18006,0.57179
331.062,21.14046,-1.36056,1.18632,0.57163
331.562,21.15406,-1.37984,1.19397,0.57148
332.062,21.1677,-1.39962,1.20367,0.57132
332.562,21.18131,-1.41983,1.21104,0.57116
333.062,21.19494,-1.44022,1.21777,0.571
333.562,21.20855,-1.46076,1.22616,0.57084
334.062,21.2222,-1.48174,1.23728,0.57069
334.562,21.23582,-1.5031,1.24774,0.57053
335.062,21.2495,-1.52493,1.25449,0.57037
335.562,21.26309,-1.54699,1.26345,0.57021
336.062,21.2767,-1.56894,1.27221,0.57005
336.562,21.29029,-1.59229,1.2831,0.56989
337.062,21.30388,-1.61619,1.29202,0.56973
337.562,21.3175,-1.64019,1.30389,0.56957
338.062,21.3311,-1.66487,1.31357,0.56942
338.562,21.34476,-1.69005,1.32325,0.56926
339.062,21.35843,-1.71545,1.33803,0.5691
339.562,21.37211,-1.7414,1.34944,0.56894
340.062,21.38574,-1.76795,1.36066,0.56878
340.562,21.39939,-1.7948,1.37114,0.56862
341.062,21.41301,-1.82229,1.38505,0.56846
341.562,21.42661,-1.85145,1.39835,0.5683
342.062,21.44021,-1.88065,1.40668,0.56814
342.562,21.45381,-1.91036,1.42144,0.56798
343.062,21.46743,-1.94052,1.43301,0.56782
343.562,21.48099,-1.97055,1.44234,0.56765
344.062,21.49458,-2.00195,1.45257,0.56749
344.562,21.5082,-2.0351,1.46387,0.56733
345.062,21.52182,-2.06502,1.46935,0.56717
345.562,21.53541,-2.10659,1.47494,0.56701
346.062,21.549,-2.14521,1.47745,0.56685
346.562,21.5626,-2.19805,1.47723,0.56669
347.062,21.5762,-2.24248,1.47549,0.56653
347.562,21.5898,-2.2707,1.46791,0.56636
348.062,21.60335,-2.30181,1.45442,0.5662
348.562,21.61691,-2.34028,1.43758,0.56604
349.062,21.6305,-2.37976,1.41904,0.56588
349.562,21.64411,-2.41893,1.39267,0.56572
350.062,21.6577,-2.45818,1.36207,0.56555
350.562,21.67139,-2.49824,1.32292,0.56539
351.062,21.68512,-2.53762,1.28536,0.56523
351.562,21.69881,-2.57694,1.24311,0.56506
352.062,21.71258,-2.61591,1.20018,0.5649
352.562,21.72629,-2.65355,1.15117,0.56474
353.062,21.74,-2.68913,1.10955,0.56458
353.562,21.75362,-2.72359,1.06673,0.56441
354.062,21.76726,-2.75717,1.02297,0.56425
354.562,21.78088,-2.79168,0.98298,0.56408
355.062,21.79455,-2.82452,0.94128,0.56392
355.562,21.80844,-2.84874,0.89846,0.56376
356.062,21.82232,-2.8744,0.86107,0.56359
356.562,21.83632,-2.89826,0.82291,0.56343
357.062,21.85032,-2.92313,0.788,0.56326
357.562,21.86426,-2.94617,0.74757,0.5631
358.062,21.87817,-2.96762,0.71196,0.56294
358.562,21.89206,-2.98773,0.67709,0.56277
359.062,21.906,-3.00674,0.64561,0.56261
359.562,21.91999,-3.02508,0.61337,0.56244
360.062,21.93404,-3.04166,0.5811,0.56228
360.562,21.94805,-3.05657,0.55057,0.56211
361.062,21.96205,-3.07099,0.52073,0.56195
361.562,21.97606,-3.08422,0.49218,0.56178
362.062,21.9901,-3.09683,0.46291,0.56162
362.562,22.0041,-3.10905,0.43792,0.56145
363.062,22.0181,-3.1198,0.41767,0.56129
363.562,22.03214,-3.12931,0.39619,0.56112
364.062,22.04619,-3.13822,0.3765,0.56095
364.562,22.06022,-3.14608,0.35182,0.56079
365.062,22.07423,-3.15321,0.3352,0.56062
365.562,22.08832,-3.16002,0.31853,0.56046
366.062,22.10238,-3.16587,0.30396,0.56029
366.562,22.11644,-3.17132,0.28774,0.56012
367.062,22.1305,-3.1765,0.27779,0.55996
367.562,22.1446,-3.18186,0.26688,0.55979
368.062,22.15861,-3.18782,0.25191,0.55962
368.562,22.1727,-3.19337,0.24098,0.55946
369.062,22.18679,-3.19937,0.23055,0.55929
369.562,22.20083,-3.20344,0.22129,0.55912
370.062,22.21491,-3.20707,0.21307,0.55895
370.562,22.22893,-3.21106,0.20717,0.55879
371.062,22.24292,-3.21532,0.19969,0.55862
371.562,22.25692,-3.21926,0.18955,0.55845
372.062,22.271,-3.22283,0.18786,0.55828
372.562,22.28501,-3.22614,0.18,0.55812
373.062,22.29908,-3.23001,0.17375,0.55795
373.562,22.31312,-3.23324,0.16903,0.55778
374.062,22.32716,-3.23655,0.16243,0.55761
374.562,22.3412,-3.23933,0.16208,0.55744
375.062,22.3553,-3.24329,0.1559,0.55728
375.562,22.36935,-3.24675,0.1541,0.55711
376.062,22.3834,-3.2493,0.15313,0.55694
376.562,22.3975,-3.25181,0.1472,0.55677
377.062,22.41152,-3.2544,0.14319,0.5566
377.562,22.42561,-3.25699,0.14058,0.55643
378.062,22.43964,-3.26027,0.13618,0.55626
378.562,22.45373,-3.26306,0.13373,0.5561
379.062,22.46777,-3.26619,0.13414,0.55593
379.562,22.48188,-3.26896,0.1304,0.55576
380.062,22.49594,-3.27078,0.12852,0.55559
380.562,22.51005,-3.27342,0.12792,0.55542
381.062,22.52413,-3.27589,0.12534,0.55525
381.562,22.53821,-3.27939,0.11987,0.55508
382.062,22.5523,-3.28208,0.12073,0.55491
382.562,22.5664,-3.28494,0.12054,0.55474
383.062,22.5805,-3.28792,0.11779,0.55457
383.562,22.59458,-3.291,0.1154,0.5544
384.062,22.60868,-3.29309,0.1134,0.55423
384.562,22.62278,-3.29516,0.11298,0.55406
385.062,22.63693,-3.2982,0.10934,0.55389
385.562,22.651,-3.30023,0.11045,0.55372
386.062,22.66516,-3.30249,0.10832,0.55355
386.562,22.6793,-3.30475,0.10929,0.55338
387.062,22.69345,-3.30706,0.10832,0.55321
387.562,22.70753,-3.31091,0.10629,0.55304
388.062,22.72169,-3.31391,0.10228,0.55287
388.562,22.73583,-3.31712,0.102,0.55269
389.062,22.74991,-3.31937,0.10173,0.55252
389.562,22.76406,-3.32148,0.09754678,0.55235
390.062,22.7782,-3.32374,0.09996639,0.55218
390.562,22.79233,-3.32599,0.09559551,0.55201
391.062,22.80648,-3.32884,0.09704791,0.55184
391.562,22.8207,-3.33077,0.09467781,0.55167
392.062,22.83486,-3.33321,0.08930418,0.55149
392.562,22.84906,-3.33592,0.08642307,0.55132
393.062,22.8632,-3.33976,0.08817442,0.55115
393.562,22.8774,-3.34285,0.08441741,0.55098
394.062,22.89154,-3.34554,0.08477999,0.55081
394.562,22.90565,-3.34792,0.08149457,0.55064
395.062,22.91977,-3.34959,0.08469911,0.55046
395.562,22.93391,-3.35089,0.08196717,0.55029
396.062,22.94809,-3.35331,0.08132658,0.55012
396.562,22.96229,-3.35714,0.07898701,0.54995
397.062,22.97651,-3.35969,0.07886062,0.54977
397.562,22.99074,-3.36268,0.07726055,0.5496
398.062,23.005,-3.36466,0.07944457,0.54943
398.562,23.0192,-3.36704,0.0787945,0.54926
399.062,23.03341,-3.36907,0.07713852,0.54908
399.562,23.0476,-3.37153,0.07473839,0.54891
400.062,23.06184,-3.37378,0.07442529,0.54874
400.562,23.076,-3.37599,0.07532748,0.54856
401.062,23.0902,-3.3785,0.07541085,0.54839
401.562,23.10442,-3.38103,0.07081578,0.54822
402.062,23.11864,-3.38405,0.07222419,0.54804
402.562,23.13288,-3.38643,0.072008,0.54787
403.062,23.14716,-3.38892,0.06893562,0.5477
403.562,23.16139,-3.39123,0.07237977,0.54752
404.062,23.1756,-3.39355,0.0680703,0.54735
404.562,23.18986,-3.39616,0.07106889,0.54718
405.062,23.20403,-3.39834,0.06865264,0.547
405.562,23.21827,-3.40069,0.06431986,0.54683
406.062,23.2325,-3.40247,0.06637879,0.54666
406.562,23.24671,-3.40469,0.06423603,0.54648
407.062,23.26093,-3.40719,0.06307706,0.54631
407.562,23.2752,-3.40994,0.06428589,0.54613
408.062,23.28941,-3.41284,0.05877658,0.54596
408.562,23.30371,-3.41498,0.0581162,0.54578
409.062,23.318,-3.4175,0.0592573,0.54561
409.562,23.33235,-3.41966,0.05912596,0.54544
410.062,23.34665,-3.42186,0.05728445,0.54526
410.562,23.36099,-3.42403,0.05573956,0.54509
411.062,23.37525,-3.42625,0.05456859,0.54491
411.562,23.38951,-3.42881,0.05408159,0.54474
412.062,23.40377,-3.43127,0.05198572,0.54456
412.562,23.41808,-3.4346,0.05106393,0.54439
413.062,23.4324,-3.43666,0.05015146,0.54421
413.562,23.44674,-3.43889,0.04996895,0.54404
414.062,23.46109,-3.44091,0.04775494,0.54386
414.562,23.47543,-3.44293,0.04773476,0.54369
415.062,23.48976,-3.44549,0.04199509,0.54351
415.562,23.50408,-3.44801,0.04457733,0.54334
416.062,23.51833,-3.45091,0.04048709,0.54316
416.562,23.53264,-3.45284,0.04046538,0.54298
417.062,23.54692,-3.45495,0.04001118,0.54281
417.562,23.56119,-3.45694,0.04038116,0.54263
418.062,23.5755,-3.45901,0.03627104,0.54246
418.562,23.58985,-3.46163,0.0355805,0.54228
419.062,23.6042,-3.46395,0.03655335,0.54211
419.562,23.6186,-3.46745,0.03438881,0.54193
420.062,23.63297,-3.47013,0.02605054,0.54175
420.562,23.64733,-3.47255,0.02676461,0.54158
421.062,23.6617,-3.47467,0.02861805,0.5414
421.562,23.67608,-3.47662,0.02744182,0.54123
422.062,23.69043,-3.47846,0.02459161,0.54105
422.562,23.7048,-3.48026,0.0235734,0.54087
423.062,23.7192,-3.48231,0.02036276,0.5407
423.562,23.7335,-3.48374,0.01833859,0.54052
424.062,23.7479,-3.4848,0.01845633,0.54034
424.562,23.76224,-3.48697,0.01637089,0.54017
425.062,23.77652,-3.49042,0.01451833,0.53999
425.562,23.7909,-3.4936,0.01134497,0.53981
426.062,23.8053,-3.49621,0.01315346,0.53964
426.562,23.81971,-3.4987,0.006992394,0.53946
427.062,23.8341,-3.50036,0.005094775,0.53928
427.562,23.84866,-3.50222,0.003796005,0.53911
428.062,23.86315,-3.50376,0.00196896,0.53893
428.562,23.87755,-3.50581,-0.0005490918,0.53875
429.062,23.89198,-3.50814,0.0008045916,0.53858
429.562,23.90642,-3.5108,-0.00342157,0.5384
430.062,23.92085,-3.51386,-0.0027041,0.53822
430.562,23.93525,-3.51578,-0.00525533,0.53804
431.062,23.94975,-3.518,-0.00707966,0.53787
431.562,23.96418,-3.51956,-0.01236208,0.53769
432.062,23.97865,-3.52087,-0.01363713,0.53751
432.562,23.99309,-3.52295,-0.01387899,0.53733
433.062,24.00755,-3.52524,-0.01475162,0.53716
433.562,24.02198,-3.52702,-0.01740953,0.53698
434.062,24.03645,-3.52964,-0.01860076,0.5368
434.562,24.0509,-3.53176,-0.02039609,0.53662
435.062,24.0654,-3.53395,-0.02264432,0.53645
435.562,24.07982,-3.53781,-0.02439958,0.53627
436.062,24.09432,-3.54028,-0.0270422,0.53609
436.562,24.1088,-3.54239,-0.02716891,0.53591
437.062,24.12325,-3.54428,-0.0329486,0.53573
437.562,24.13777,-3.54582,-0.03387737,0.53556
438.062,24.15231,-3.54763,-0.03615634,0.53538
438.562,24.16679,-3.55002,-0.04009753,0.5352
439.062,24.1813,-3.55243,-0.04225316,0.53502
439.562,24.19584,-3.55528,-0.04443911,0.53484
440.062,24.21034,-3.55728,-0.04579378,0.53467
440.562,24.22485,-3.55863,-0.04729715,0.53449
441.062,24.23938,-3.56011,-0.05541141,0.53431
441.562,24.2539,-3.56177,-0.0552487,0.53413
442.062,24.26841,-3.5636,-0.05571433,0.53395
442.562,24.28295,-3.56585,-0.05655197,0.53377
443.062,24.29748,-3.56906,-0.05839886,0.53359
443.562,24.31203,-3.57254,-0.06336409,0.53342
444.062,24.3266,-3.57497,-0.06737964,0.53324
444.562,24.3412,-3.57647,-0.06639137,0.53306
445.062,24.35575,-3.57786,-0.07037035,0.53288
445.562,24.37033,-3.57933,-0.06646763,0.5327
446.062,24.38489,-3.58106,-0.07115604,0.53252
446.562,24.39945,-3.58347,-0.07399152,0.53234
447.062,24.41402,-3.58523,-0.07735211,0.53216
447.562,24.42851,-3.58662,-0.08123497,0.53199
448.062,24.44305,-3.58803,-0.08248874,0.53181
448.562,24.45765,-3.58967,-0.08844002,0.53163
449.062,24.4723,-3.59074,-0.09247579,0.53145
449.562,24.48688,-3.59269,-0.09249319,0.53127
450.062,24.50157,-3.59506,-0.09531743,0.53109
450.562,24.51625,-3.59819,-0.09628313,0.53091
451.062,24.53081,-3.60044,-0.09928317,0.53073
451.562,24.5454,-3.60326,-0.10647,0.53055
452.062,24.56,-3.60544,-0.10938,0.53037
452.562,24.5747,-3.60679,-0.11313,0.53019
453.062,24.58934,-3.60902,-0.11173,0.53001
453.562,24.60407,-3.61145,-0.11698,0.52983
454.062,24.61875,-3.61336,-0.11695,0.52965
454.562,24.63342,-3.61518,-0.11938,0.52948
455.062,24.64809,-3.61631,-0.12109,0.5293
455.562,24.66271,-3.61784,-0.12293,0.52912
456.062,24.67737,-3.61991,-0.12635,0.52894
456.562,24.69205,-3.62232,-0.12995,0.52876
457.062,24.70671,-3.62394,-0.13261,0.52858
457.562,24.72138,-3.62523,-0.13399,0.5284
458.062,24.73605,-3.62664,-0.13791,0.52822
458.562,24.7507,-3.6288,-0.13921,0.52804
459.062,24.7653,-3.63062,-0.1397,0.52786
459.562,24.77995,-3.63317,-0.14037,0.52768
460.062,24.79465,-3.63584,-0.14491,0.5275
460.562,24.80934,-3.63766,-0.14539,0.52732
461.062,24.82402,-3.63921,-0.14727,0.52714
461.562,24.8387,-3.63986,-0.14909,0.52696
462.062,24.8535,-3.64096,-0.14884,0.52678
462.562,24.8682,-3.64302,-0.15317,0.5266
463.062,24.88291,-3.64329,-0.15945,0.52642
463.562,24.89765,-3.64395,-0.15767,0.52624
464.062,24.9124,-3.64563,-0.15978,0.52606
464.562,24.92717,-3.64476,-0.16281,0.52588
465.062,24.94194,-3.64618,-0.16368,0.5257
465.562,24.95672,-3.64769,-0.16632,0.52552
466.062,24.97155,-3.64931,-0.16929,0.52534
466.562,24.98637,-3.65064,-0.17013,0.52516
467.062,25.001,-3.6524,-0.17383,0.52497
467.562,25.01565,-3.65553,-0.17012,0.52479
468.062,25.0304,-3.65697,-0.17443,0.52461
468.562,25.04516,-3.65849,-0.17514,0.52443
469.062,25.05992,-3.66135,-0.17777,0.52425
469.562,25.07489,-3.66481,-0.1785,0.52407
470.062,25.08982,-3.66653,-0.1799,0.52389
470.562,25.10465,-3.66765,-0.17781,0.52371
471.062,25.11944,-3.66823,-0.17921,0.52353
471.562,25.13423,-3.66951,-0.18595,0.52335
472.062,25.149,-3.67085,-0.18756,0.52317
472.562,25.16374,-3.67274,-0.18526,0.52299
473.062,25.1785,-3.67426,-0.18537,0.52281
473.562,25.19332,-3.67651,-0.18569,0.52263
474.062,25.20815,-3.67705,-0.18341,0.52245
474.562,25.22304,-3.67798,-0.18723,0.52227
475.062,25.23789,-3.67982,-0.18758,0.52208
475.562,25.25275,-3.68103,-0.19131,0.5219
476.062,25.26763,-3.68315,-0.19463,0.52172
476.562,25.2825,-3.68513,-0.18922,0.52154
477.062,25.2973,-3.6871,-0.1917,0.52136
477.562,25.3122,-3.68915,-0.19288,0.52118
478.062,25.32701,-3.68917,-0.19434,0.521
478.562,25.3419,-3.69039,-0.19066,0.52082
479.062,25.35678,-3.6912,-0.19325,0.52064
479.562,25.37172,-3.69306,-0.19349,0.52046
480.062,25.38666,-3.6954,-0.19596,0.52028
480.562,25.40159,-3.69742,-0.19583,0.52009
481.062,25.41646,-3.69745,-0.19468,0.51991
481.562,25.43136,-3.69858,-0.196,0.51973
482.062,25.44622,-3.69966,-0.19683,0.51955
482.562,25.46112,-3.70198,-0.19604,0.51937
483.062,25.476,-3.70336,-0.19843,0.51919
483.562,25.49096,-3.70428,-0.19752,0.51901
484.062,25.50587,-3.70553,-0.19699,0.51883
484.562,25.5208,-3.70746,-0.1991,0.51865
485.062,25.5357,-3.70878,-0.19894,0.51846
485.562,25.5506,-3.70969,-0.20404,0.51828
486.062,25.56556,-3.71134,-0.2006,0.5181
486.562,25.58054,-3.71407,-0.20451,0.51792
487.062,25.5955,-3.71566,-0.20203,0.51774
487.562,25.61047,-3.71631,-0.20237,0.51756
488.062,25.6254,-3.71496,-0.19954,0.51738
488.562,25.64041,-3.71632,-0.20147,0.5172
489.062,25.65536,-3.71624,-0.20119,0.51701
489.562,25.67034,-3.7178,-0.20539,0.51683
490.062,25.6853,-3.7184,-0.20505,0.51665
490.562,25.70027,-3.72026,-0.20448,0.51647
491.062,25.7152,-3.72184,-0.20493,0.51629
491.562,25.73017,-3.72297,-0.204,0.51611
492.062,25.74515,-3.72382,-0.20665,0.51593
492.562,25.76012,-3.72577,-0.20645,0.51574
493.062,25.77511,-3.7264,-0.20864,0.51556
493.562,25.79017,-3.72754,-0.20808,0.51538
494.062,25.8052,-3.72938,-0.20779,0.5152
494.562,25.8202,-3.7295,-0.20277,0.51502
495.062,25.83522,-3.73125,-0.20547,0.51484
495.562,25.8503,-3.73248,-0.20825,0.51466
496.062,25.86528,-3.73404,-0.20655,0.51448
496.562,25.8803,-3.73504,-0.20795,0.51429
497.062,25.89538,-3.73595,-0.20945,0.51411
497.562,25.9105,-3.7377,-0.20732,0.51393
498.062,25.92553,-3.7385,-0.20767,0.51375
498.562,25.9406,-3.73965,-0.20969,0.51357
499.062,25.95566,-3.74101,-0.20898,0.51339
499.562,25.9707,-3.74113,-0.21129,0.5132
500.062,25.98576,-3.74249,-0.20975,0.51302
500.562,26.00082,-3.74253,-0.20872,0.51284
501.062,26.0159,-3.74408,-0.20971,0.51266
501.562,26.03096,-3.74493,-0.21008,0.51248
502.062,26.04608,-3.74643,-0.21053,0.5123
502.562,26.06113,-3.74739,-0.21116,0.51212
503.062,26.0762,-3.74813,-0.2099,0.51193
503.562,26.09125,-3.74897,-0.21128,0.51175
504.062,26.1064,-3.74897,-0.21355,0.51157
504.562,26.12145,-3.75028,-0.21589,0.51139
505.062,26.13661,-3.75085,-0.21626,0.51121
505.562,26.15179,-3.75247,-0.21738,0.51103
506.062,26.1669,-3.75452,-0.21925,0.51085
506.562,26.18209,-3.75519,-0.21885,0.51066
507.062,26.19725,-3.75632,-0.21717,0.51048
507.562,26.21238,-3.75751,-0.21545,0.5103
508.062,26.2275,-3.75793,-0.21622,0.51012
508.562,26.24265,-3.75926,-0.21535,0.50994
509.062,26.2578,-3.7596,-0.21831,0.50976
509.562,26.273,-3.76046,-0.21587,0.50957
510.062,26.2882,-3.7614,-0.21899,0.50939
510.562,26.30335,-3.76278,-0.21794,0.50921
511.062,26.31853,-3.76287,-0.21809,0.50903
511.562,26.33369,-3.76469,-0.21908,0.50885
512.062,26.34885,-3.76554,-0.21506,0.50867
512.562,26.364,-3.76552,-0.21923,0.50849
513.062,26.3792,-3.76586,-0.21873,0.5083
513.562,26.3944,-3.76726,-0.21736,0.50812
514.062,26.40956,-3.76906,-0.21691,0.50794
514.562,26.42476,-3.76996,-0.21541,0.50776
515.062,26.44,-3.77111,-0.21747,0.50758
515.562,26.45515,-3.77261,-0.21674,0.5074
516.062,26.4703,-3.77288,-0.22046,0.50721
516.562,26.4855,-3.77349,-0.22356,0.50703
517.062,26.5007,-3.77417,-0.21947,0.50685
517.562,26.5159,-3.77413,-0.22172,0.50667
518.062,26.53118,-3.77551,-0.2208,0.50649
518.562,26.5464,-3.77562,-0.22094,0.50631
519.062,26.56162,-3.77639,-0.21815,0.50613
519.562,26.57685,-3.77623,-0.22177,0.50594
520.062,26.5921,-3.77758,-0.22339,0.50576
520.562,26.6073,-3.7794,-0.22125,0.50558
521.062,26.62255,-3.78069,-0.2197,0.5054
521.562,26.6378,-3.78105,-0.21676,0.50522
522.062,26.6531,-3.78267,-0.22201,0.50504
522.562,26.66834,-3.78272,-0.22135,0.50486
523.062,26.6836,-3.78407,-0.21854,0.50468
523.562,26.6989,-3.78536,-0.22234,0.50449
524.062,26.7142,-3.78548,-0.22231,0.50431
524.562,26.72953,-3.78674,-0.22283,0.50413
525.062,26.74482,-3.78669,-0.22095,0.50395
525.562,26.7601,-3.78669,-0.22369,0.50377
526.062,26.77536,-3.78669,-0.2246,0.50359
526.562,26.7906,-3.78686,-0.22483,0.50341
527.062,26.80588,-3.78833,-0.22374,0.50322
527.562,26.82119,-3.78821,-0.22849,0.50304
528.062,26.8365,-3.78952,-0.22596,0.50286
528.562,26.85183,-3.79134,-0.22504,0.50268
529.062,26.86716,-3.7915,-0.22581,0.5025
529.562,26.8825,-3.79313,-0.22851,0.50232
530.062,26.89782,-3.79327,-0.2261,0.50214
530.562,26.91318,-3.79471,-0.22926,0.50196
531.062,26.92854,-3.79533,-0.22684,0.50178
531.562,26.94385,-3.79624,-0.22892,0.50159
532.062,26.95921,-3.79722,-0.22979,0.50141
532.562,26.9745,-3.79851,-0.2299,0.50123
533.062,26.9897,-3.79903,-0.23214,0.50105
533.562,27.0049,-3.80054,-0.23172,0.50087
534.062,27.0201,-3.80063,-0.23199,0.50069
534.562,27.03544,-3.80084,-0.23001,0.50051
535.062,27.0508,-3.80196,-0.2333,0.50033
535.562,27.06635,-3.80155,-0.23322,0.50015
536.062,27.0819,-3.80217,-0.23417,0.49996
536.562,27.09739,-3.80258,-0.23327,0.49978
537.062,27.1128,-3.80384,-0.23032,0.4996
537.562,27.12813,-3.80421,-0.23596,0.49942
538.062,27.1435,-3.8054,-0.23665,0.49924
538.562,27.1589,-3.80556,-0.23189,0.49906
539.062,27.17421,-3.80605,-0.2344,0.49888
539.562,27.18958,-3.80701,-0.23645,0.4987
540.062,27.205,-3.80696,-0.23319,0.49852
540.562,27.2204,-3.80859,-0.23781,0.49834
541.062,27.23573,-3.80861,-0.23843,0.49816
541.562,27.25103,-3.81034,-0.24009,0.49798
542.062,27.2664,-3.81126,-0.23926,0.49779
542.562,27.28175,-3.81219,-0.23995,0.49761
543.062,27.29715,-3.81359,-0.24361,0.49743
543.562,27.31257,-3.81379,-0.24203,0.49725
544.062,27.32815,-3.81385,-0.24528,0.49707
544.562,27.34362,-3.81525,-0.24045,0.49689
545.062,27.3591,-3.81565,-0.24943,0.49671
545.562,27.3745,-3.81712,-0.2455,0.49653
546.062,27.38999,-3.81708,-0.24751,0.49635
546.562,27.40542,-3.81706,-0.24732,0.49617
547.062,27.42088,-3.81843,-0.24665,0.49599
547.562,27.4363,-3.8191,-0.24932,0.49581
548.062,27.4517,-3.81971,-0.24818,0.49563
548.562,27.4672,-3.81974,-0.24936,0.49545
549.062,27.48263,-3.82092,-0.24309,0.49527
549.562,27.49809,-3.82102,-0.24653,0.49509
550.062,27.51353,-3.82105,-0.24835,0.49491
550.562,27.52903,-3.82142,-0.2491,0.49473
551.062,27.54447,-3.82228,-0.25206,0.49455
551.562,27.5599,-3.82303,-0.25226,0.49436
552.062,27.5752,-3.82461,-0.24951,0.49418
552.562,27.59058,-3.82449,-0.25606,0.494
553.062,27.60606,-3.8262,-0.2521,0.49382
553.562,27.62162,-3.82677,-0.25431,0.49364
554.062,27.63725,-3.82779,-0.25546,0.49346
554.562,27.65292,-3.8303,-0.25665,0.49328
555.062,27.66856,-3.83057,-0.25448,0.4931
555.562,27.68405,-3.83055,-0.25444,0.49292
556.062,27.6995,-3.83158,-0.25573,0.49274
556.562,27.71495,-3.83187,-0.255,0.49256
557.062,27.73047,-3.83184,-0.25455,0.49238
557.562,27.74598,-3.83343,-0.2574,0.4922
558.062,27.76153,-3.83359,-0.25811,0.49202
558.562,27.7771,-3.83476,-0.257,0.49184
559.062,27.7927,-3.83473,-0.25525,0.49166
559.562,27.8082,-3.83469,-0.25801,0.49148
560.062,27.82375,-3.83591,-0.25591,0.49131
560.562,27.8393,-3.83605,-0.25796,0.49113
561.062,27.8549,-3.83719,-0.25601,0.49095
561.562,27.87043,-3.83848,-0.25772,0.49077
562.062,27.886,-3.83847,-0.25663,0.49059
562.562,27.90148,-3.83978,-0.25816,0.49041
563.062,27.91706,-3.84014,-0.25622,0.49023
563.562,27.9326,-3.84187,-0.25915,0.49005
564.062,27.9482,-3.84206,-0.25991,0.48987
564.562,27.9637,-3.84286,-0.25854,0.48969
565.062,27.9793,-3.84285,-0.25856,0.48951
565.562,27.99493,-3.84288,-0.26229,0.48933
566.062,28.0105,-3.84267,-0.26128,0.48915
566.562,28.02614,-3.8436,-0.26203,0.48897
567.062,28.04177,-3.84328,-0.26417,0.48879
567.562,28.0574,-3.84411,-0.26878,0.48861
568.062,28.0729,-3.84461,-0.26544,0.48843
568.562,28.08855,-3.84461,-0.26753,0.48825
569.062,28.1042,-3.84457,-0.27092,0.48808
569.562,28.1197,-3.84606,-0.26745,0.4879
570.062,28.13537,-3.846,-0.27048,0.48772
570.562,28.151,-3.84743,-0.27047,0.48754
571.062,28.1666,-3.84759,-0.27305,0.48736
571.562,28.1822,-3.84892,-0.27375,0.48718
572.062,28.19782,-3.84906,-0.27582,0.487
572.562,28.21347,-3.85045,-0.27374,0.48682
573.062,28.2291,-3.85042,-0.27234,0.48664
573.562,28.24476,-3.85038,-0.2696,0.48647
574.062,28.26045,-3.85177,-0.27471,0.48629
574.562,28.2761,-3.85185,-0.27541,0.48611
575.062,28.2918,-3.85326,-0.27794,0.48593
575.562,28.3075,-3.8543,-0.27741,0.48575
576.062,28.32317,-3.85615,-0.28097,0.48557
576.562,28.3389,-3.85696,-0.28379,0.48539
577.062,28.35452,-3.85765,-0.28438,0.48521
577.562,28.37019,-3.85781,-0.28508,0.48504
578.062,28.3859,-3.8592,-0.28529,0.48486
578.562,28.40155,-3.85937,-0.29053,0.48468
579.062,28.4172,-3.86054,-0.29078,0.4845
579.562,28.4329,-3.86051,-0.29171,0.48432
580.062,28.44858,-3.86051,-0.29815,0.48414
580.562,28.4643,-3.86072,-0.29318,0.48397
581.062,28.47993,-3.86184,-0.2992,0.48379
581.562,28.49561,-3.86211,-0.29832,0.48361
582.062,28.5113,-3.86243,-0.30289,0.48343
582.562,28.52698,-3.8628,-0.30307,0.48325
583.062,28.5427,-3.86371,-0.30672,0.48308
583.562,28.5584,-3.86369,-0.30826,0.4829
584.062,28.57408,-3.86369,-0.30815,0.48272
584.562,28.58975,-3.86397,-0.31079,0.48254
585.062,28.60543,-3.86642,-0.3104,0.48236
585.562,28.6212,-3.86649,-0.31169,0.48219
586.062,28.6369,-3.86788,-0.31902,0.48201
586.562,28.65258,-3.86797,-0.31636,0.48183
587.062,28.6683,-3.86929,-0.31457,0.48165
587.562,28.68403,-3.86946,-0.31224,0.48148
588.062,28.69973,-3.87106,-0.31665,0.4813
588.562,28.71551,-3.86985,-0.31471,0.48112
589.062,28.7312,-3.86973,-0.32039,0.48094
589.562,28.747,-3.87055,-0.31987,0.48077
590.062,28.7628,-3.87122,-0.31988,0.48059
590.562,28.77852,-3.87219,-0.32075,0.48041
591.062,28.79427,-3.87258,-0.32555,0.48024
591.562,28.81002,-3.87258,-0.32942,0.48006
592.062,28.8258,-3.87258,-0.32541,0.47988
592.562,28.84153,-3.87419,-0.3283,0.4797
593.062,28.85731,-3.87452,-0.32544,0.47953
593.562,28.8731,-3.87564,-0.33118,0.47935
594.062,28.8888,-3.87631,-0.32893,0.47917
594.562,28.90462,-3.8772,-0.33415,0.479
595.062,28.92043,-3.87803,-0.32955,0.47882
595.562,28.93623,-3.8788,-0.33399,0.47864
596.062,28.9521,-3.88057,-0.33318,0.47847
596.562,28.9679,-3.8811,-0.33121,0.47829
597.062,28.9836,-3.88205,-0.3319,0.47811
597.562,28.9994,-3.88282,-0.33418,0.47794
598.062,29.0152,-3.8848,-0.33158,0.47776
598.562,29.03104,-3.88656,-0.33388,0.47758
599.062,29.04689,-3.88662,-0.33594,0.47741
599.562,29.06275,-3.88662,-0.33692,0.47723
600.062,29.0785,-3.88689,-0.33492,0.47705
600.562,29.0943,-3.88819,-0.3384,0.47688
601.062,29.1101,-3.88831,-0.33526,0.4767
601.562,29.12593,-3.88947,-0.33712,0.47653
602.062,29.1418,-3.88947,-0.34086,0.47635
602.562,29.15758,-3.88947,-0.33745,0.47617
603.062,29.17339,-3.88946,-0.33835,0.476
603.562,29.18918,-3.89076,-0.3373,0.47582
604.062,29.20497,-3.89112,-0.34024,0.47565
604.562,29.2208,-3.89169,-0.34219,0.47547
605.062,29.2367,-3.89246,-0.34323,0.47529
605.562,29.2526,-3.89331,-0.33878,0.47512
606.062,29.2685,-3.89428,-0.34146,0.47494
606.562,29.28435,-3.89461,-0.33834,0.47477
607.062,29.30022,-3.89461,-0.34,0.47459
607.562,29.31604,-3.89596,-0.34045,0.47442
608.062,29.33189,-3.8975,-0.34008,0.47424
608.562,29.3478,-3.89841,-0.33974,0.47406
609.062,29.3637,-3.89889,-0.33398,0.47389
609.562,29.3795,-3.8989,-0.33788,0.47371
610.062,29.3954,-3.8991,-0.33368,0.47354
610.562,29.41119,-3.90048,-0.33393,0.47336
611.062,29.42704,-3.90101,-0.33406,0.47319
611.562,29.44292,-3.90115,-0.32906,0.47301
612.062,29.45877,-3.90295,-0.32909,0.47284
612.562,29.47468,-3.90395,-0.32522,0.47266
613.062,29.49059,-3.90448,-0.3209,0.47249
613.562,29.5065,-3.90488,-0.3201,0.47231
614.062,29.5224,-3.90583,-0.32128,0.47214
614.562,29.53833,-3.90581,-0.32354,0.47196
615.062,29.55422,-3.90577,-0.32513,0.47179
615.562,29.5701,-3.90806,-0.33304,0.47162
616.062,29.586,-3.90889,-0.33893,0.47144
616.562,29.60196,-3.91006,-0.34431,0.47127
617.062,29.6179,-3.9102,-0.34738,0.47109
617.562,29.6338,-3.9102,-0.35942,0.47092
618.062,29.64975,-3.91021,-0.36891,0.47074
618.562,29.66562,-3.91051,-0.37098,0.47057
619.062,29.68147,-3.91165,-0.38037,0.4704
619.562,29.69721,-3.91133,-0.38738,0.47022
620.062,29.71309,-3.9124,-0.39233,0.47005
620.562,29.729,-3.91308,-0.40059,0.46987
621.062,29.74495,-3.91398,-0.40639,0.4697
621.562,29.761,-3.91379,-0.41275,0.46953
622.062,29.77706,-3.91462,-0.4177,0.46935
622.562,29.79305,-3.91544,-0.41855,0.46918
623.062,29.80899,-3.91639,-0.42432,0.469
623.562,29.82491,-3.91828,-0.43244,0.46883
624.062,29.8408,-3.9192,-0.43433,0.46866
624.562,29.8567,-3.91973,-0.4347,0.46848
625.062,29.8726,-3.91974,-0.43275,0.46831
625.562,29.88855,-3.92092,-0.43528,0.46814
626.062,29.90452,-3.92107,-0.43666,0.46796
626.562,29.92045,-3.92232,-0.43642,0.46779
627.062,29.93644,-3.92381,-0.43252,0.46762
627.562,29.95245,-3.9238,-0.43127,0.46744
628.062,29.96845,-3.9238,-0.42771,0.46727
628.562,29.9845,-3.9238,-0.42796,0.4671
628.962,29.99734,-3.9238,-0.42486,0.46696