File: 01_Data/Cotton_Raw/STA/N2/30K_min/Cotton_Raw_STA_N2_30KData_210709_R2.csv
##Temp./Â°C,Time/min,Mass loss(subtr.2)/mg,DSC(subtr.2)/(mW/mg),Sensit./(uV/mW)
50.627,10.00667,-0.03796,-0.007389115,0.6235
51.127,10.95399,-0.04269728,0.01412452,0.6235
51.627,11.1492,-0.0398523,0.03462866,0.62349
52.127,11.29164,-0.04166296,0.04820138,0.62348
52.627,11.39839,-0.04065237,0.06349807,0.62348
53.127,11.4881,-0.04319949,0.08096997,0.62347
53.627,11.56669,-0.04507958,0.08630073,0.62346
54.127,11.638,-0.04363136,0.10285,0.62346
54.627,11.7019,-0.0442219,0.11496,0.62345
55.127,11.76102,-0.04472205,0.1273,0.62344
55.627,11.81734,-0.04332132,0.13914,0.62343
56.127,11.86951,-0.04419453,0.15078,0.62342
56.627,11.91874,-0.04561369,0.15688,0.62341
57.127,11.96509,-0.04640267,0.16838,0.6234
57.627,12.00986,-0.04565542,0.17968,0.62339
58.127,12.05286,-0.0453982,0.18678,0.62338
58.627,12.0939,-0.04617361,0.19802,0.62337
59.127,12.13419,-0.04576111,0.2061,0.62336
59.627,12.1736,-0.04443821,0.2175,0.62335
60.127,12.21145,-0.04600267,0.22622,0.62334
60.627,12.2484,-0.04475096,0.23552,0.62333
61.127,12.28416,-0.04371549,0.24627,0.62331
61.627,12.31909,-0.04526895,0.25215,0.6233
62.127,12.35325,-0.0465092,0.26047,0.62329
62.627,12.38681,-0.04649087,0.26761,0.62327
63.127,12.4202,-0.04605382,0.27591,0.62326
63.627,12.45298,-0.04624504,0.28301,0.62324
64.127,12.48513,-0.04694501,0.29128,0.62323
64.627,12.51662,-0.04565249,0.29875,0.62321
65.127,12.54744,-0.04646032,0.30563,0.6232
65.627,12.5779,-0.04765888,0.31234,0.62318
66.127,12.60803,-0.04749282,0.32188,0.62317
66.627,12.63791,-0.04731136,0.3275,0.62315
67.127,12.66737,-0.04771146,0.33333,0.62313
67.627,12.69642,-0.0476872,0.34211,0.62311
68.127,12.72513,-0.04805027,0.35071,0.6231
68.627,12.75308,-0.04817978,0.35668,0.62308
69.127,12.78123,-0.04957782,0.36376,0.62306
69.627,12.80959,-0.0495425,0.36935,0.62304
70.127,12.83752,-0.04970411,0.37736,0.62302
70.627,12.8649,-0.04963695,0.38313,0.623
71.127,12.89236,-0.04915544,0.38902,0.62298
71.627,12.91947,-0.04977322,0.39623,0.62296
72.127,12.946,-0.05082297,0.40353,0.62294
72.627,12.9726,-0.05045776,0.41248,0.62292
73.127,12.9991,-0.04983574,0.41619,0.6229
73.627,13.0257,-0.05112668,0.42196,0.62287
74.127,13.0517,-0.05234928,0.42773,0.62285
74.627,13.07753,-0.0534744,0.43494,0.62283
75.127,13.10333,-0.05382199,0.44216,0.6228
75.627,13.1291,-0.05345964,0.44263,0.62278
76.127,13.1547,-0.05211347,0.44454,0.62276
76.627,13.1801,-0.05309229,0.45399,0.62273
77.127,13.2054,-0.05227004,0.45698,0.62271
77.627,13.23054,-0.05354651,0.46876,0.62268
78.127,13.25542,-0.05349983,0.47006,0.62266
78.627,13.28026,-0.05495519,0.47779,0.62263
79.127,13.305,-0.05642464,0.4877,0.62261
79.627,13.32973,-0.05624706,0.49154,0.62258
80.127,13.35425,-0.05648942,0.49815,0.62255
80.627,13.37868,-0.05649088,0.50361,0.62253
81.127,13.40301,-0.05673143,0.51257,0.6225
81.627,13.42709,-0.05647543,0.5193,0.62247
82.127,13.4511,-0.05725469,0.52352,0.62244
82.627,13.47497,-0.0578018,0.53168,0.62241
83.127,13.4988,-0.05775076,0.53658,0.62238
83.627,13.52255,-0.05775235,0.54207,0.62236
84.127,13.54609,-0.05929685,0.55256,0.62233
84.627,13.5696,-0.05942752,0.55608,0.6223
85.127,13.5929,-0.06066231,0.55962,0.62227
85.627,13.61611,-0.0606604,0.56835,0.62223
86.127,13.63925,-0.06064954,0.57256,0.6222
86.627,13.6623,-0.06198927,0.58048,0.62217
87.127,13.6852,-0.06196976,0.58688,0.62214
87.627,13.7079,-0.06196304,0.5935,0.62211
88.127,13.73051,-0.06320624,0.59649,0.62207
88.627,13.7531,-0.06328638,0.6031,0.62204
89.127,13.7755,-0.0648552,0.60995,0.62201
89.627,13.7981,-0.06523826,0.61604,0.62198
90.127,13.8203,-0.06625089,0.62172,0.62194
90.627,13.84249,-0.06642948,0.62829,0.62191
91.127,13.8646,-0.06755957,0.63429,0.62187
91.627,13.8866,-0.06789462,0.6386,0.62184
92.127,13.9084,-0.0688844,0.64476,0.6218
92.627,13.9303,-0.06777653,0.64743,0.62177
93.127,13.95204,-0.06888671,0.65154,0.62173
93.627,13.97366,-0.06888003,0.6597,0.62169
94.127,13.995,-0.06887811,0.66034,0.62166
94.627,14.0164,-0.06911403,0.66611,0.62162
95.127,14.03778,-0.07019562,0.6732,0.62158
95.627,14.05925,-0.07112538,0.67665,0.62154
96.127,14.0806,-0.07254612,0.68163,0.6215
96.627,14.1018,-0.07294678,0.68471,0.62147
97.127,14.1228,-0.0741232,0.69237,0.62143
97.627,14.1437,-0.0744414,0.69177,0.62139
98.127,14.1646,-0.07544656,0.697,0.62135
98.627,14.1854,-0.07460111,0.69899,0.62131
99.127,14.20597,-0.07415134,0.70705,0.62127
99.627,14.22647,-0.07586536,0.71244,0.62123
100.127,14.2468,-0.07699007,0.72012,0.62119
100.627,14.2673,-0.07815713,0.72443,0.62114
101.127,14.28781,-0.07853147,0.72781,0.6211
101.627,14.3081,-0.07852997,0.73378,0.62106
102.127,14.3282,-0.07852988,0.73943,0.62102
102.627,14.34835,-0.07853694,0.74396,0.62098
103.127,14.3683,-0.07939268,0.7444,0.62093
103.627,14.38849,-0.07985348,0.74732,0.62089
104.127,14.4086,-0.07984917,0.75052,0.62084
104.627,14.4286,-0.07989781,0.75614,0.6208
105.127,14.44863,-0.08131746,0.75488,0.62076
105.627,14.4683,-0.08245855,0.75677,0.62071
106.127,14.48789,-0.0837021,0.7582,0.62067
106.627,14.50739,-0.08402238,0.7613,0.62062
107.127,14.5268,-0.08435906,0.76171,0.62057
107.627,14.54626,-0.08467929,0.76182,0.62053
108.127,14.5657,-0.08467879,0.76748,0.62048
108.627,14.58496,-0.08490562,0.76594,0.62043
109.127,14.60425,-0.08530268,0.76757,0.62039
109.627,14.6235,-0.08683226,0.76743,0.62034
110.127,14.6427,-0.08795717,0.77306,0.62029
110.627,14.66189,-0.08797029,0.77255,0.62024
111.127,14.68092,-0.08796868,0.77285,0.62019
111.627,14.6999,-0.0876479,0.77705,0.62015
112.127,14.7188,-0.08664131,0.77413,0.6201
112.627,14.73761,-0.08695649,0.7767,0.62005
113.127,14.75649,-0.08955946,0.77621,0.62
113.627,14.7752,-0.09000887,0.77752,0.61995
114.127,14.79398,-0.09092567,0.77943,0.61989
114.627,14.8126,-0.09091883,0.77973,0.61984
115.127,14.8311,-0.09225574,0.77781,0.61979
115.627,14.8497,-0.09235219,0.77621,0.61974
116.127,14.86827,-0.09234977,0.77458,0.61969
116.627,14.88672,-0.09235028,0.77803,0.61964
117.127,14.90515,-0.0928984,0.77414,0.61958
117.627,14.9235,-0.09373805,0.77415,0.61953
118.127,14.9417,-0.09367491,0.77544,0.61948
118.627,14.95992,-0.09431837,0.77119,0.61942
119.127,14.9781,-0.09519482,0.76947,0.61937
119.627,14.9962,-0.09541998,0.76713,0.61931
120.127,15.0143,-0.09651096,0.76764,0.61926
120.627,15.03239,-0.09651973,0.76836,0.6192
121.127,15.05035,-0.09652002,0.76641,0.61915
121.627,15.06825,-0.09652,0.76234,0.61909
122.127,15.08615,-0.09652,0.75987,0.61904
122.627,15.1039,-0.09652003,0.7606,0.61898
123.127,15.1218,-0.09651925,0.75983,0.61892
123.627,15.13965,-0.09651469,0.76024,0.61887
124.127,15.15732,-0.09581598,0.75865,0.61881
124.627,15.17503,-0.09677933,0.75449,0.61875
125.127,15.1926,-0.09739644,0.75442,0.61869
125.627,15.2101,-0.09735024,0.7546,0.61863
126.127,15.2277,-0.0987449,0.75126,0.61858
126.627,15.24519,-0.09871164,0.75185,0.61852
127.127,15.2626,-0.09870887,0.7516,0.61846
127.627,15.27992,-0.0987087,0.74558,0.6184
128.127,15.2972,-0.09994652,0.74719,0.61834
128.627,15.31441,-0.10003,0.74768,0.61828
129.127,15.3316,-0.10003,0.74613,0.61822
129.627,15.3489,-0.10004,0.7453,0.61816
130.127,15.366,-0.1006,0.74297,0.61809
130.627,15.38308,-0.10134,0.73939,0.61803
131.127,15.40019,-0.10135,0.74558,0.61797
131.627,15.41731,-0.10247,0.73801,0.61791
132.127,15.43433,-0.10267,0.74101,0.61784
132.627,15.4513,-0.10267,0.73556,0.61778
133.127,15.46826,-0.10267,0.73304,0.61772
133.627,15.4851,-0.10267,0.73174,0.61765
134.127,15.50194,-0.10267,0.73421,0.61759
134.627,15.51885,-0.10267,0.73249,0.61753
135.127,15.5357,-0.10267,0.72833,0.61746
135.627,15.5524,-0.10292,0.72961,0.6174
136.127,15.5691,-0.10382,0.72863,0.61733
136.627,15.58576,-0.10265,0.72379,0.61727
137.127,15.6024,-0.10266,0.72547,0.6172
137.627,15.61899,-0.10266,0.72389,0.61713
138.127,15.6356,-0.10281,0.72369,0.61707
138.627,15.65209,-0.10411,0.71958,0.617
139.127,15.66854,-0.10409,0.72247,0.61693
139.627,15.685,-0.10409,0.7172,0.61687
140.127,15.7014,-0.10409,0.71555,0.6168
140.627,15.71786,-0.10409,0.71823,0.61673
141.127,15.7344,-0.10409,0.71467,0.61666
141.627,15.7508,-0.10407,0.7176,0.61659
142.127,15.7672,-0.10511,0.71687,0.61652
142.627,15.7835,-0.1054,0.71365,0.61645
143.127,15.7997,-0.1054,0.71569,0.61638
143.627,15.81591,-0.1054,0.7116,0.61631
144.127,15.8321,-0.1054,0.7133,0.61624
144.627,15.84825,-0.10539,0.71474,0.61617
145.127,15.8643,-0.10621,0.71084,0.6161
145.627,15.88039,-0.10539,0.71316,0.61603
146.127,15.89647,-0.10541,0.71503,0.61596
146.627,15.9125,-0.10541,0.71442,0.61589
147.127,15.9286,-0.10541,0.71487,0.61581
147.627,15.9447,-0.10541,0.72145,0.61574
148.127,15.9608,-0.10541,0.71944,0.61567
148.627,15.97675,-0.10541,0.71899,0.61559
149.127,15.9927,-0.10541,0.71818,0.61552
149.627,16.00858,-0.10541,0.71929,0.61545
150.127,16.02447,-0.10541,0.72358,0.61537
150.627,16.04038,-0.10578,0.72261,0.6153
151.127,16.05621,-0.10614,0.72024,0.61522
151.627,16.072,-0.10541,0.72266,0.61515
152.127,16.08785,-0.10585,0.71984,0.61507
152.627,16.10369,-0.10674,0.71842,0.615
153.127,16.11946,-0.10672,0.72155,0.61492
153.627,16.1353,-0.10672,0.72336,0.61485
154.127,16.15106,-0.10672,0.72192,0.61477
154.627,16.16679,-0.10672,0.72492,0.61469
155.127,16.18246,-0.10672,0.72634,0.61461
155.627,16.19804,-0.10672,0.72657,0.61454
156.127,16.21367,-0.10671,0.73077,0.61446
156.627,16.22934,-0.10745,0.734,0.61438
157.127,16.245,-0.10738,0.73147,0.6143
157.627,16.26059,-0.10737,0.73674,0.61422
158.127,16.27628,-0.1084,0.73425,0.61414
158.627,16.29182,-0.10871,0.73377,0.61406
159.127,16.30734,-0.1094,0.73585,0.61399
159.627,16.32285,-0.10935,0.73727,0.61391
160.127,16.33837,-0.1089,0.74276,0.61382
160.627,16.35386,-0.10805,0.74712,0.61374
161.127,16.3692,-0.10804,0.74312,0.61366
161.627,16.38465,-0.10804,0.74173,0.61358
162.127,16.40016,-0.1077,0.74471,0.6135
162.627,16.4156,-0.10671,0.74718,0.61342
163.127,16.4311,-0.10673,0.74933,0.61334
163.627,16.44664,-0.10673,0.74796,0.61325
164.127,16.46203,-0.10673,0.75311,0.61317
164.627,16.47736,-0.10673,0.75679,0.61309
165.127,16.49269,-0.10674,0.75807,0.61301
165.627,16.50796,-0.10755,0.76103,0.61292
166.127,16.52325,-0.10804,0.76055,0.61284
166.627,16.53858,-0.10805,0.76051,0.61275
167.127,16.55389,-0.10805,0.76472,0.61267
167.627,16.56921,-0.10814,0.76597,0.61258
168.127,16.58455,-0.10872,0.76472,0.6125
168.627,16.59981,-0.1087,0.77098,0.61241
169.127,16.61506,-0.1087,0.77234,0.61233
169.627,16.63029,-0.1087,0.77478,0.61224
170.127,16.64551,-0.1087,0.77664,0.61216
170.627,16.6607,-0.1087,0.77462,0.61207
171.127,16.67588,-0.10871,0.77611,0.61198
171.627,16.69102,-0.10889,0.78087,0.6119
172.127,16.7062,-0.10936,0.78159,0.61181
172.627,16.7214,-0.10936,0.77408,0.61172
173.127,16.7365,-0.10936,0.76195,0.61163
173.627,16.75165,-0.10936,0.76359,0.61154
174.127,16.76674,-0.10936,0.76886,0.61145
174.627,16.78182,-0.10936,0.77107,0.61137
175.127,16.7969,-0.10936,0.77188,0.61128
175.627,16.81194,-0.10934,0.77244,0.61119
176.127,16.82694,-0.11037,0.77845,0.6111
176.627,16.8418,-0.11068,0.7765,0.61101
177.127,16.85678,-0.11068,0.78734,0.61092
177.627,16.8718,-0.11068,0.78613,0.61083
178.127,16.88671,-0.11068,0.79059,0.61074
178.627,16.90165,-0.1102,0.79259,0.61064
179.127,16.91669,-0.10934,0.79575,0.61055
179.627,16.93163,-0.10936,0.79329,0.61046
180.127,16.9465,-0.10936,0.79722,0.61037
180.627,16.9614,-0.10936,0.80045,0.61028
181.127,16.9763,-0.10936,0.80294,0.61018
181.627,16.99116,-0.10936,0.8086,0.61009
182.127,17.00596,-0.10936,0.80804,0.61
182.627,17.0208,-0.10935,0.80835,0.6099
183.127,17.03556,-0.11029,0.81304,0.60981
183.627,17.0503,-0.11066,0.81649,0.60972
184.127,17.06504,-0.11067,0.81961,0.60962
184.627,17.0798,-0.11067,0.82323,0.60953
185.127,17.09453,-0.11067,0.82401,0.60943
185.627,17.1093,-0.11067,0.82653,0.60934
186.127,17.12397,-0.11067,0.83252,0.60924
186.627,17.13866,-0.11067,0.83419,0.60915
187.127,17.15335,-0.11067,0.8336,0.60905
187.627,17.16807,-0.11067,0.83903,0.60895
188.127,17.18272,-0.11067,0.84295,0.60886
188.627,17.1974,-0.11065,0.84178,0.60876
189.127,17.212,-0.11154,0.84645,0.60866
189.627,17.22665,-0.11199,0.84728,0.60857
190.127,17.24119,-0.11199,0.85229,0.60847
190.627,17.2558,-0.11199,0.85668,0.60837
191.127,17.27036,-0.11199,0.86006,0.60827
191.627,17.28493,-0.11199,0.86085,0.60817
192.127,17.29947,-0.11199,0.86117,0.60807
192.627,17.314,-0.11199,0.86339,0.60798
193.127,17.32852,-0.11199,0.86326,0.60788
193.627,17.343,-0.11199,0.86769,0.60778
194.127,17.35746,-0.11199,0.86712,0.60768
194.627,17.37186,-0.11199,0.87544,0.60758
195.127,17.38634,-0.11199,0.88669,0.60748
195.627,17.40081,-0.11238,0.88963,0.60738
196.127,17.41527,-0.11332,0.89141,0.60727
196.627,17.42974,-0.1133,0.89336,0.60717
197.127,17.44422,-0.1133,0.89685,0.60707
197.627,17.45862,-0.1133,0.895,0.60697
198.127,17.47306,-0.1133,0.90236,0.60687
198.627,17.48743,-0.11332,0.9004,0.60677
199.127,17.50179,-0.11442,0.90415,0.60666
199.627,17.5162,-0.11462,0.90514,0.60656
200.127,17.53053,-0.11462,0.90794,0.60646
200.627,17.54489,-0.11463,0.90828,0.60635
201.127,17.5593,-0.11492,0.91183,0.60625
201.627,17.57367,-0.11438,0.91305,0.60615
202.127,17.58803,-0.1144,0.91651,0.60604
202.627,17.60237,-0.1144,0.91472,0.60594
203.127,17.61671,-0.1144,0.91832,0.60583
203.627,17.63102,-0.1144,0.92328,0.60573
204.127,17.64529,-0.1144,0.92318,0.60562
204.627,17.65955,-0.1144,0.92334,0.60552
205.127,17.6738,-0.11512,0.92168,0.60541
205.627,17.688,-0.11571,0.92093,0.60531
206.127,17.70225,-0.11574,0.91596,0.6052
206.627,17.71646,-0.11536,0.91667,0.60509
207.127,17.73069,-0.11539,0.92151,0.60499
207.627,17.74491,-0.11539,0.92499,0.60488
208.127,17.75911,-0.11535,0.92163,0.60477
208.627,17.7733,-0.11605,0.92194,0.60466
209.127,17.78756,-0.11605,0.92533,0.60456
209.627,17.8018,-0.11605,0.92967,0.60445
210.127,17.816,-0.11618,0.93236,0.60434
210.627,17.83023,-0.11638,0.93753,0.60423
211.127,17.84442,-0.11658,0.93468,0.60412
211.627,17.8586,-0.11732,0.93601,0.60401
212.127,17.87276,-0.11737,0.9347,0.6039
212.627,17.8869,-0.11737,0.94045,0.60379
213.127,17.90105,-0.11736,0.93448,0.60368
213.627,17.91519,-0.11781,0.93862,0.60357
214.127,17.9293,-0.11801,0.9402,0.60346
214.627,17.94349,-0.11797,0.94104,0.60335
215.127,17.95766,-0.11917,0.94535,0.60324
215.627,17.97181,-0.11933,0.94834,0.60313
216.127,17.98594,-0.11934,0.94572,0.60302
216.627,18.00007,-0.11934,0.94602,0.60291
217.127,18.01416,-0.1201,0.94988,0.60279
217.627,18.02821,-0.12065,0.94966,0.60268
218.127,18.0423,-0.12066,0.9537,0.60257
218.627,18.0564,-0.12066,0.95131,0.60246
219.127,18.0705,-0.1208,0.95517,0.60234
219.627,18.0846,-0.12192,0.95724,0.60223
220.127,18.0987,-0.12197,0.95637,0.60212
220.627,18.11273,-0.12197,0.95766,0.602
221.127,18.1268,-0.12197,0.95685,0.60189
221.627,18.14082,-0.12273,0.9559,0.60178
222.127,18.1548,-0.12328,0.96032,0.60166
222.627,18.16881,-0.12329,0.96197,0.60155
223.127,18.18287,-0.1233,0.96524,0.60143
223.627,18.1968,-0.12357,0.9623,0.60132
224.127,18.2108,-0.12466,0.96997,0.6012
224.627,18.2248,-0.12505,0.97085,0.60109
225.127,18.23886,-0.12595,0.97206,0.60097
225.627,18.25284,-0.12651,0.97424,0.60085
226.127,18.26679,-0.12723,0.97701,0.60074
226.627,18.28075,-0.12619,0.97932,0.60062
227.127,18.2947,-0.12592,0.9804,0.6005
227.627,18.30868,-0.12592,0.97756,0.60039
228.127,18.32268,-0.12592,0.9802,0.60027
228.627,18.3367,-0.12592,0.9841,0.60015
229.127,18.35061,-0.12587,0.98039,0.60003
229.627,18.36458,-0.12718,0.98309,0.59991
230.127,18.3785,-0.12734,0.98569,0.5998
230.627,18.3924,-0.12732,0.98798,0.59968
231.127,18.40633,-0.12864,0.98824,0.59956
231.627,18.42024,-0.12866,0.98665,0.59944
232.127,18.4342,-0.13061,0.99059,0.59932
232.627,18.44814,-0.13153,0.98879,0.5992
233.127,18.46207,-0.13268,0.99353,0.59908
233.627,18.476,-0.13293,0.99282,0.59896
234.127,18.4899,-0.1329,1.00029,0.59884
234.627,18.50382,-0.13416,1.00209,0.59872
235.127,18.5176,-0.13444,1.00331,0.5986
235.627,18.53146,-0.13535,1.0076,0.59848
236.127,18.54534,-0.13603,1.01304,0.59836
236.627,18.55921,-0.13656,1.00787,0.59824
237.127,18.5731,-0.13755,1.01187,0.59811
237.627,18.5871,-0.13792,1.01526,0.59799
238.127,18.60097,-0.13931,1.01354,0.59787
238.627,18.61477,-0.14036,1.01551,0.59775
239.127,18.6286,-0.14137,1.02025,0.59763
239.627,18.64248,-0.14324,1.02208,0.5975
240.127,18.65628,-0.14336,1.02734,0.59738
240.627,18.67013,-0.14462,1.02717,0.59726
241.127,18.684,-0.14471,1.02958,0.59713
241.627,18.6979,-0.14599,1.03283,0.59701
242.127,18.71173,-0.14737,1.03559,0.59688
242.627,18.72556,-0.14791,1.03767,0.59676
243.127,18.7394,-0.14906,1.04503,0.59664
243.627,18.75328,-0.15048,1.05283,0.59651
244.127,18.76709,-0.15152,1.05597,0.59639
244.627,18.78089,-0.15291,1.05602,0.59626
245.127,18.7947,-0.15396,1.06146,0.59614
245.627,18.80848,-0.15405,1.07392,0.59601
246.127,18.82225,-0.15545,1.07553,0.59588
246.627,18.836,-0.15547,1.08314,0.59576
247.127,18.84974,-0.15675,1.09076,0.59563
247.627,18.86351,-0.15706,1.09743,0.59551
248.127,18.87734,-0.15844,1.10004,0.59538
248.627,18.89114,-0.15972,1.10471,0.59525
249.127,18.90493,-0.16138,1.11193,0.59513
249.627,18.91876,-0.16335,1.12119,0.595
250.127,18.93253,-0.16535,1.12727,0.59487
250.627,18.9463,-0.16699,1.13115,0.59474
251.127,18.96005,-0.16771,1.13898,0.59461
251.627,18.97383,-0.16949,1.14584,0.59449
252.127,18.9876,-0.16989,1.14927,0.59436
252.627,19.00134,-0.17127,1.15492,0.59423
253.127,19.0151,-0.17278,1.16399,0.5941
253.627,19.02879,-0.17335,1.16638,0.59397
254.127,19.04251,-0.1753,1.16462,0.59384
254.627,19.05632,-0.17777,1.16801,0.59371
255.127,19.07002,-0.17969,1.16523,0.59358
255.627,19.08372,-0.182,1.16875,0.59345
256.127,19.09747,-0.18522,1.16673,0.59332
256.627,19.11121,-0.18767,1.16111,0.59319
257.127,19.12493,-0.18965,1.16159,0.59306
257.627,19.1387,-0.19048,1.15664,0.59293
258.127,19.1524,-0.19193,1.15138,0.5928
258.627,19.16614,-0.19461,1.15153,0.59267
259.127,19.17984,-0.1962,1.14456,0.59254
259.627,19.19359,-0.19746,1.13905,0.5924
260.127,19.2073,-0.19945,1.13463,0.59227
260.627,19.22104,-0.20121,1.12985,0.59214
261.127,19.23473,-0.20305,1.12334,0.59201
261.627,19.24846,-0.20512,1.11769,0.59188
262.127,19.2622,-0.20779,1.11122,0.59174
262.627,19.27586,-0.21085,1.10948,0.59161
263.127,19.28952,-0.21296,1.10056,0.59148
263.627,19.30323,-0.21547,1.09676,0.59134
264.127,19.31691,-0.21738,1.09313,0.59121
264.627,19.33057,-0.21933,1.09386,0.59108
265.127,19.34423,-0.22174,1.0875,0.59094
265.627,19.35795,-0.22387,1.09291,0.59081
266.127,19.37162,-0.22676,1.0841,0.59067
266.627,19.3853,-0.22925,1.0868,0.59054
267.127,19.39892,-0.23209,1.07999,0.5904
267.627,19.41258,-0.2351,1.08231,0.59027
268.127,19.42613,-0.23763,1.08345,0.59013
268.627,19.4398,-0.24029,1.07733,0.59
269.127,19.45344,-0.24255,1.08007,0.58986
269.627,19.4671,-0.2452,1.07857,0.58973
270.127,19.48074,-0.24825,1.07811,0.58959
270.627,19.4944,-0.25154,1.083,0.58945
271.127,19.5081,-0.25464,1.08131,0.58932
271.627,19.52177,-0.25693,1.07777,0.58918
272.127,19.5354,-0.2597,1.08143,0.58904
272.627,19.54908,-0.26229,1.08454,0.58891
273.127,19.56275,-0.26533,1.08224,0.58877
273.627,19.5764,-0.26769,1.0844,0.58863
274.127,19.5901,-0.27006,1.08373,0.58849
274.627,19.6038,-0.27306,1.0813,0.58836
275.127,19.61745,-0.27595,1.08502,0.58822
275.627,19.63113,-0.28086,1.09127,0.58808
276.127,19.6448,-0.28422,1.08811,0.58794
276.627,19.65847,-0.28805,1.09306,0.5878
277.127,19.6721,-0.29175,1.09023,0.58766
277.627,19.6857,-0.29533,1.09245,0.58752
278.127,19.6993,-0.29903,1.09335,0.58739
278.627,19.71288,-0.30272,1.09797,0.58725
279.127,19.72648,-0.30641,1.10138,0.58711
279.627,19.74009,-0.30977,1.09827,0.58697
280.127,19.75378,-0.31281,1.10348,0.58683
280.627,19.76748,-0.31623,1.10423,0.58669
281.127,19.78115,-0.32007,1.10969,0.58655
281.627,19.7948,-0.32387,1.10825,0.58641
282.127,19.80844,-0.3278,1.10895,0.58626
282.627,19.82209,-0.33155,1.11219,0.58612
283.127,19.8357,-0.33517,1.11081,0.58598
283.627,19.84941,-0.33921,1.11542,0.58584
284.127,19.86305,-0.34359,1.11386,0.5857
284.627,19.8767,-0.34869,1.11567,0.58556
285.127,19.89034,-0.35256,1.11914,0.58542
285.627,19.904,-0.35647,1.12296,0.58527
286.127,19.9176,-0.35942,1.12971,0.58513
286.627,19.93122,-0.36409,1.12735,0.58499
287.127,19.94491,-0.36885,1.13011,0.58485
287.627,19.95857,-0.37317,1.12868,0.5847
288.127,19.97225,-0.37711,1.13085,0.58456
288.627,19.98594,-0.38147,1.13502,0.58442
289.127,19.9996,-0.38637,1.13505,0.58427
289.627,20.01321,-0.39164,1.13727,0.58413
290.127,20.0269,-0.39703,1.1386,0.58399
290.627,20.04051,-0.40185,1.14196,0.58384
291.127,20.05406,-0.40653,1.14426,0.5837
291.627,20.06759,-0.41132,1.14154,0.58355
292.127,20.08117,-0.41634,1.14389,0.58341
292.627,20.09479,-0.42282,1.1449,0.58326
293.127,20.1084,-0.42814,1.14858,0.58312
293.627,20.12211,-0.43333,1.15067,0.58297
294.127,20.13585,-0.43852,1.15609,0.58283
294.627,20.1496,-0.4437,1.15436,0.58268
295.127,20.16325,-0.44889,1.15882,0.58254
295.627,20.17691,-0.45476,1.15904,0.58239
296.127,20.19055,-0.46079,1.16414,0.58225
296.627,20.20426,-0.46647,1.16206,0.5821
297.127,20.2179,-0.47189,1.16542,0.58195
297.627,20.23149,-0.47742,1.1679,0.58181
298.127,20.2452,-0.48269,1.1726,0.58166
298.627,20.25883,-0.48897,1.17261,0.58151
299.127,20.27245,-0.49556,1.17256,0.58137
299.627,20.2861,-0.50198,1.17239,0.58122
300.127,20.29984,-0.50843,1.17851,0.58107
300.627,20.31345,-0.51504,1.1792,0.58092
301.127,20.32708,-0.52142,1.18424,0.58078
301.627,20.3407,-0.5277,1.183,0.58063
302.127,20.35438,-0.53398,1.18882,0.58048
302.627,20.368,-0.54054,1.1914,0.58033
303.127,20.38168,-0.54741,1.1941,0.58018
303.627,20.39536,-0.55453,1.1999,0.58004
304.127,20.409,-0.56171,1.20113,0.57989
304.627,20.42268,-0.56905,1.20451,0.57974
305.127,20.43631,-0.57643,1.20717,0.57959
305.627,20.44997,-0.5842,1.21227,0.57944
306.127,20.46361,-0.59184,1.21487,0.57929
306.627,20.47723,-0.59974,1.22043,0.57914
307.127,20.4909,-0.60752,1.22391,0.57899
307.627,20.50456,-0.61522,1.22803,0.57884
308.127,20.51819,-0.62289,1.22902,0.57869
308.627,20.53182,-0.63177,1.23235,0.57854
309.127,20.5455,-0.63985,1.23636,0.57839
309.627,20.55911,-0.64805,1.2411,0.57824
310.127,20.57273,-0.65663,1.25571,0.57809
310.627,20.5864,-0.66561,1.26275,0.57794
311.127,20.60008,-0.67507,1.26594,0.57779
311.627,20.61375,-0.6844,1.26882,0.57763
312.127,20.62738,-0.69336,1.27334,0.57748
312.627,20.64105,-0.70225,1.28244,0.57733
313.127,20.6547,-0.71128,1.27939,0.57718
313.627,20.66835,-0.72117,1.28708,0.57703
314.127,20.682,-0.73181,1.29378,0.57688
314.627,20.69569,-0.74257,1.3,0.57672
315.127,20.70934,-0.75283,1.30176,0.57657
315.627,20.72299,-0.76263,1.30698,0.57642
316.127,20.7367,-0.77205,1.30876,0.57627
316.627,20.75031,-0.78163,1.31311,0.57611
317.127,20.76395,-0.79157,1.3195,0.57596
317.627,20.77763,-0.80155,1.32304,0.57581
318.127,20.79126,-0.81188,1.32972,0.57565
318.627,20.80491,-0.82282,1.33565,0.5755
319.127,20.81855,-0.83451,1.3382,0.57535
319.627,20.83223,-0.84675,1.3421,0.57519
320.127,20.8459,-0.85901,1.34867,0.57504
320.627,20.85954,-0.87095,1.35248,0.57488
321.127,20.8732,-0.88254,1.35626,0.57473
321.627,20.8869,-0.894,1.36222,0.57458
322.127,20.90044,-0.90584,1.37054,0.57442
322.627,20.9141,-0.91821,1.37287,0.57427
323.127,20.92774,-0.93078,1.37817,0.57411
323.627,20.94139,-0.94334,1.38443,0.57396
324.127,20.955,-0.9555,1.39028,0.5738
324.627,20.96866,-0.96818,1.39304,0.57365
325.127,20.98246,-0.98148,1.39943,0.57349
325.627,20.99611,-0.99507,1.4062,0.57333
326.127,21.00976,-1.00917,1.41384,0.57318
326.627,21.02345,-1.02295,1.41862,0.57302
327.127,21.03716,-1.03645,1.42038,0.57287
327.627,21.05078,-1.05012,1.42706,0.57271
328.127,21.06446,-1.06423,1.43414,0.57255
328.627,21.0781,-1.07905,1.4396,0.5724
329.127,21.0918,-1.09434,1.44902,0.57224
329.627,21.10551,-1.10933,1.45774,0.57208
330.127,21.1192,-1.12441,1.46371,0.57193
330.627,21.1329,-1.13964,1.47007,0.57177
331.127,21.14665,-1.15542,1.47527,0.57161
331.627,21.1603,-1.17112,1.48649,0.57145
332.127,21.174,-1.18628,1.49111,0.5713
332.627,21.1877,-1.20264,1.50072,0.57114
333.127,21.20137,-1.21924,1.51033,0.57098
333.627,21.21504,-1.23662,1.52188,0.57082
334.127,21.22871,-1.25548,1.52903,0.57067
334.627,21.2424,-1.27563,1.5339,0.57051
335.127,21.25614,-1.29502,1.54826,0.57035
335.627,21.26981,-1.31215,1.55159,0.57019
336.127,21.2835,-1.32819,1.55821,0.57003
336.627,21.29716,-1.34428,1.57317,0.56987
337.127,21.31083,-1.36215,1.57953,0.56971
337.627,21.3245,-1.38192,1.58849,0.56955
338.127,21.3382,-1.40261,1.6004,0.56939
338.627,21.35185,-1.42369,1.61247,0.56924
339.127,21.36555,-1.44491,1.62482,0.56908
339.627,21.37925,-1.46629,1.63674,0.56892
340.127,21.39294,-1.48845,1.64768,0.56876
340.627,21.40664,-1.51099,1.65615,0.5686
341.127,21.4203,-1.53321,1.66993,0.56844
341.627,21.43396,-1.55483,1.67606,0.56828
342.127,21.4476,-1.57752,1.69195,0.56812
342.627,21.46131,-1.60091,1.70516,0.56796
343.127,21.47499,-1.62646,1.7134,0.56779
343.627,21.4887,-1.65217,1.72441,0.56763
344.127,21.50234,-1.67894,1.73314,0.56747
344.627,21.516,-1.70653,1.74475,0.56731
345.127,21.52966,-1.73353,1.75152,0.56715
345.627,21.54334,-1.76137,1.75863,0.56699
346.127,21.55698,-1.79121,1.76654,0.56683
346.627,21.57066,-1.82059,1.77263,0.56667
347.127,21.5843,-1.84982,1.77262,0.5665
347.627,21.5979,-1.87992,1.76914,0.56634
348.127,21.61157,-1.90977,1.76062,0.56618
348.627,21.6252,-1.94061,1.75197,0.56602
349.127,21.63888,-1.97305,1.73447,0.56586
349.627,21.65246,-2.00444,1.71653,0.56569
350.127,21.66615,-2.04521,1.69048,0.56553
350.627,21.67987,-2.08014,1.65718,0.56537
351.127,21.6936,-2.12519,1.62044,0.56521
351.627,21.70727,-2.16026,1.5837,0.56504
352.127,21.72104,-2.19395,1.54925,0.56488
352.627,21.73479,-2.22485,1.49906,0.56472
353.127,21.7485,-2.25108,1.45745,0.56455
353.627,21.76225,-2.27731,1.41443,0.56439
354.127,21.77596,-2.30407,1.36849,0.56423
354.627,21.7897,-2.33117,1.32102,0.56406
355.127,21.80347,-2.35745,1.28479,0.5639
355.627,21.81725,-2.3831,1.23726,0.56374
356.127,21.83105,-2.40648,1.19066,0.56357
356.627,21.8449,-2.42956,1.14846,0.56341
357.127,21.85876,-2.45109,1.1107,0.56324
357.627,21.8727,-2.47118,1.0707,0.56308
358.127,21.88666,-2.49052,1.02634,0.56291
358.627,21.90059,-2.50895,0.98826,0.56275
359.127,21.91455,-2.52668,0.95357,0.56259
359.627,21.9285,-2.54314,0.91284,0.56242
360.127,21.94246,-2.55873,0.88279,0.56226
360.627,21.95644,-2.57313,0.84637,0.56209
361.127,21.97041,-2.58594,0.81323,0.56193
361.627,21.98443,-2.5978,0.78496,0.56176
362.127,21.9985,-2.60886,0.75262,0.56159
362.627,22.01243,-2.61913,0.72434,0.56143
363.127,22.0264,-2.62782,0.70213,0.56126
363.627,22.0404,-2.6369,0.67482,0.5611
364.127,22.05441,-2.64491,0.64991,0.56093
364.627,22.0684,-2.65223,0.62905,0.56077
365.127,22.0824,-2.65942,0.60781,0.5606
365.627,22.0965,-2.66487,0.59084,0.56043
366.127,22.11056,-2.6708,0.57945,0.56027
366.627,22.12463,-2.67623,0.55916,0.5601
367.127,22.1387,-2.68112,0.54771,0.55993
367.627,22.1527,-2.6859,0.53577,0.55977
368.127,22.1667,-2.69017,0.52488,0.5596
368.627,22.18072,-2.69407,0.51384,0.55943
369.127,22.19471,-2.69762,0.50444,0.55927
369.627,22.2087,-2.70159,0.49255,0.5591
370.127,22.2227,-2.70591,0.48185,0.55893
370.627,22.23675,-2.7101,0.47613,0.55877
371.127,22.25081,-2.71384,0.46851,0.5586
371.627,22.26485,-2.71696,0.45998,0.55843
372.127,22.27889,-2.72009,0.45859,0.55826
372.627,22.29295,-2.72327,0.44746,0.55809
373.127,22.307,-2.72765,0.44404,0.55793
373.627,22.32101,-2.73057,0.43895,0.55776
374.127,22.3351,-2.73389,0.43493,0.55759
374.627,22.34916,-2.73577,0.43092,0.55742
375.127,22.36319,-2.73795,0.42937,0.55725
375.627,22.3772,-2.74026,0.42151,0.55709
376.127,22.39124,-2.74311,0.41927,0.55692
376.627,22.4053,-2.74681,0.41808,0.55675
377.127,22.4193,-2.75032,0.41282,0.55658
377.627,22.43335,-2.75334,0.41069,0.55641
378.127,22.44741,-2.75536,0.40519,0.55624
378.627,22.46144,-2.75732,0.40087,0.55607
379.127,22.47542,-2.75924,0.40161,0.5559
379.627,22.48953,-2.76119,0.40016,0.55573
380.127,22.50355,-2.76355,0.39704,0.55557
380.627,22.51765,-2.76514,0.39375,0.5554
381.127,22.53174,-2.76666,0.39023,0.55523
381.627,22.54588,-2.76834,0.39512,0.55506
382.127,22.55992,-2.77045,0.39023,0.55489
382.627,22.5741,-2.77352,0.38754,0.55472
383.127,22.58813,-2.77713,0.38684,0.55455
383.627,22.60226,-2.77972,0.38469,0.55438
384.127,22.6163,-2.78211,0.38403,0.55421
384.627,22.6304,-2.7838,0.3766,0.55404
385.127,22.6445,-2.7868,0.37832,0.55387
385.627,22.65855,-2.78907,0.37602,0.5537
386.127,22.6726,-2.79153,0.37624,0.55353
386.627,22.68671,-2.79492,0.374,0.55336
387.127,22.70085,-2.79706,0.37145,0.55318
387.627,22.71484,-2.79911,0.36833,0.55301
388.127,22.7289,-2.79993,0.36825,0.55284
388.627,22.743,-2.80174,0.36604,0.55267
389.127,22.75715,-2.80427,0.36373,0.5525
389.627,22.7713,-2.80674,0.36366,0.55233
390.127,22.7854,-2.8095,0.36346,0.55216
390.627,22.7997,-2.81152,0.36503,0.55199
391.127,22.81379,-2.81344,0.36005,0.55182
391.627,22.82796,-2.81524,0.35749,0.55164
392.127,22.84211,-2.81692,0.35768,0.55147
392.627,22.8563,-2.81888,0.35655,0.5513
393.127,22.87041,-2.82074,0.35553,0.55113
393.627,22.88457,-2.82351,0.34892,0.55096
394.127,22.8987,-2.82564,0.35323,0.55079
394.627,22.91283,-2.82792,0.35086,0.55061
395.127,22.9269,-2.83005,0.35148,0.55044
395.627,22.94109,-2.83208,0.34534,0.55027
396.127,22.9553,-2.8341,0.34614,0.5501
396.627,22.96947,-2.83628,0.3436,0.54992
397.127,22.98368,-2.83893,0.34605,0.54975
397.627,22.99792,-2.84079,0.34516,0.54958
398.127,23.01216,-2.84255,0.34008,0.54941
398.627,23.02627,-2.84394,0.33815,0.54923
399.127,23.04038,-2.84572,0.33558,0.54906
399.627,23.05454,-2.84715,0.33376,0.54889
400.127,23.06875,-2.84936,0.33457,0.54871
400.627,23.08292,-2.8527,0.33709,0.54854
401.127,23.09722,-2.85699,0.33235,0.54837
401.627,23.11157,-2.85913,0.33292,0.5482
402.127,23.12579,-2.86116,0.32699,0.54802
402.627,23.13999,-2.86281,0.33133,0.54785
403.127,23.1542,-2.86477,0.3252,0.54768
403.627,23.16848,-2.86672,0.32688,0.5475
404.127,23.18271,-2.86819,0.32624,0.54733
404.627,23.19697,-2.8694,0.32243,0.54715
405.127,23.2112,-2.87012,0.32106,0.54698
405.627,23.22534,-2.87135,0.31777,0.54681
406.127,23.2395,-2.8735,0.3161,0.54663
406.627,23.25371,-2.87725,0.31088,0.54646
407.127,23.26793,-2.87954,0.31411,0.54628
407.627,23.28219,-2.88182,0.31139,0.54611
408.127,23.2966,-2.88487,0.31024,0.54594
408.627,23.31091,-2.88675,0.30925,0.54576
409.127,23.32517,-2.88881,0.31051,0.54559
409.627,23.33944,-2.89085,0.30458,0.54541
410.127,23.35369,-2.89259,0.30226,0.54524
410.627,23.36796,-2.89325,0.3013,0.54506
411.127,23.38222,-2.89523,0.30033,0.54489
411.627,23.39649,-2.8968,0.30063,0.54471
412.127,23.4108,-2.89849,0.29978,0.54454
412.627,23.42511,-2.90055,0.30168,0.54436
413.127,23.43937,-2.90279,0.29865,0.54419
413.627,23.4537,-2.90485,0.2979,0.54401
414.127,23.46801,-2.90724,0.29742,0.54384
414.627,23.48229,-2.90899,0.29359,0.54366
415.127,23.4966,-2.91117,0.29186,0.54349
415.627,23.51088,-2.91305,0.29213,0.54331
416.127,23.5252,-2.91506,0.29124,0.54314
416.627,23.53949,-2.91729,0.28941,0.54296
417.127,23.55379,-2.91898,0.28935,0.54279
417.627,23.56816,-2.92048,0.28206,0.54261
418.127,23.5825,-2.9218,0.28009,0.54243
418.627,23.59691,-2.92395,0.27901,0.54226
419.127,23.61124,-2.9271,0.27852,0.54208
419.627,23.62562,-2.92929,0.27682,0.54191
420.127,23.63995,-2.93168,0.27486,0.54173
420.627,23.65426,-2.93351,0.27558,0.54156
421.127,23.66856,-2.9354,0.27516,0.54138
421.627,23.68296,-2.93711,0.27219,0.5412
422.127,23.69736,-2.93858,0.27172,0.54103
422.627,23.7117,-2.94066,0.27344,0.54085
423.127,23.7261,-2.94292,0.26424,0.54067
423.627,23.74054,-2.94473,0.26443,0.5405
424.127,23.7549,-2.94681,0.26168,0.54032
424.627,23.76923,-2.94777,0.26043,0.54014
425.127,23.78364,-2.94935,0.25949,0.53997
425.627,23.79799,-2.95145,0.25669,0.53979
426.127,23.8124,-2.95313,0.25252,0.53961
426.627,23.82675,-2.95462,0.25076,0.53944
427.127,23.8412,-2.95533,0.24577,0.53926
427.627,23.8556,-2.95731,0.24811,0.53908
428.127,23.87005,-2.95905,0.2443,0.53891
428.627,23.8845,-2.96096,0.24392,0.53873
429.127,23.899,-2.96333,0.24315,0.53855
429.627,23.91341,-2.96636,0.23958,0.53838
430.127,23.92786,-2.96823,0.23987,0.5382
430.627,23.94225,-2.97056,0.2378,0.53802
431.127,23.95668,-2.97257,0.23755,0.53784
431.627,23.9711,-2.97511,0.23266,0.53767
432.127,23.98556,-2.97684,0.23396,0.53749
432.627,24,-2.97941,0.23015,0.53731
433.127,24.01444,-2.98089,0.23062,0.53713
433.627,24.0289,-2.98334,0.2214,0.53696
434.127,24.04336,-2.98466,0.22415,0.53678
434.627,24.0578,-2.98551,0.21825,0.5366
435.127,24.0723,-2.98698,0.21589,0.53642
435.627,24.08682,-2.98896,0.21791,0.53625
436.127,24.10132,-2.99041,0.21272,0.53607
436.627,24.11583,-2.99254,0.20786,0.53589
437.127,24.13039,-2.99491,0.2027,0.53571
437.627,24.1449,-2.99743,0.19944,0.53553
438.127,24.15942,-2.99953,0.19671,0.53536
438.627,24.17389,-2.99998,0.19389,0.53518
439.127,24.18835,-3.00128,0.18867,0.535
439.627,24.20284,-3.00315,0.18614,0.53482
440.127,24.21735,-3.0058,0.1828,0.53464
440.627,24.23185,-3.008,0.18353,0.53446
441.127,24.24643,-3.01008,0.17532,0.53429
441.627,24.261,-3.01137,0.16817,0.53411
442.127,24.2756,-3.01325,0.16728,0.53393
442.627,24.2901,-3.01463,0.16492,0.53375
443.127,24.3047,-3.01561,0.1622,0.53357
443.627,24.31924,-3.01747,0.15832,0.53339
444.127,24.3337,-3.01936,0.15652,0.53321
444.627,24.34827,-3.01987,0.15247,0.53304
445.127,24.36287,-3.0213,0.14996,0.53286
445.627,24.37746,-3.02296,0.14512,0.53268
446.127,24.39206,-3.02498,0.14539,0.5325
446.627,24.4067,-3.02647,0.14125,0.53232
447.127,24.42127,-3.02773,0.13484,0.53214
447.627,24.43581,-3.0294,0.13244,0.53196
448.127,24.4504,-3.03102,0.13036,0.53178
448.627,24.46499,-3.03224,0.12547,0.5316
449.127,24.4796,-3.03344,0.1232,0.53143
449.627,24.49416,-3.03517,0.11825,0.53125
450.127,24.5088,-3.0367,0.11957,0.53107
450.627,24.5234,-3.03868,0.1139,0.53089
451.127,24.5381,-3.03986,0.11363,0.53071
451.627,24.55271,-3.0417,0.11064,0.53053
452.127,24.56735,-3.04417,0.11229,0.53035
452.627,24.58201,-3.04562,0.10474,0.53017
453.127,24.59666,-3.04686,0.1039,0.52999
453.627,24.61127,-3.04886,0.10201,0.52981
454.127,24.62598,-3.05064,0.09843408,0.52963
454.627,24.64068,-3.05161,0.09611284,0.52945
455.127,24.65534,-3.05282,0.09033068,0.52927
455.627,24.66999,-3.05516,0.09280346,0.52909
456.127,24.68469,-3.05682,0.08960582,0.52891
456.627,24.69933,-3.0579,0.08683324,0.52873
457.127,24.714,-3.05939,0.08521931,0.52855
457.627,24.72869,-3.06141,0.07873088,0.52837
458.127,24.74344,-3.06271,0.0806512,0.52819
458.627,24.75814,-3.06325,0.07533104,0.52801
459.127,24.77286,-3.06504,0.06817941,0.52783
459.627,24.78755,-3.06651,0.06783487,0.52765
460.127,24.80224,-3.06827,0.0673426,0.52747
460.627,24.81693,-3.06941,0.06806048,0.52729
461.127,24.83168,-3.07126,0.06772765,0.52711
461.627,24.8464,-3.07152,0.06630186,0.52693
462.127,24.86115,-3.07287,0.05695918,0.52675
462.627,24.87592,-3.07357,0.05670882,0.52657
463.127,24.8906,-3.07527,0.055273,0.52639
463.627,24.9054,-3.07751,0.05210475,0.52621
464.127,24.92009,-3.07869,0.05143235,0.52603
464.627,24.9348,-3.08005,0.04906718,0.52585
465.127,24.9496,-3.08178,0.04597339,0.52567
465.627,24.96436,-3.0834,0.04312619,0.52549
466.127,24.9791,-3.08424,0.0444844,0.52531
466.627,24.99395,-3.08524,0.04456588,0.52513
467.127,25.00875,-3.08537,0.03963097,0.52495
467.627,25.02352,-3.08683,0.03980189,0.52477
468.127,25.03829,-3.08812,0.0358669,0.52459
468.627,25.05309,-3.09001,0.03314868,0.52441
469.127,25.06784,-3.09337,0.03076473,0.52423
469.627,25.08265,-3.09556,0.02987733,0.52405
470.127,25.09743,-3.09719,0.02451513,0.52387
470.627,25.11225,-3.09729,0.03096314,0.52369
471.127,25.1271,-3.09834,0.02872533,0.52351
471.627,25.1419,-3.09877,0.02796914,0.52333
472.127,25.15671,-3.10032,0.02465683,0.52315
472.627,25.1716,-3.10098,0.02312123,0.52297
473.127,25.18645,-3.10237,0.02161228,0.52278
473.627,25.20125,-3.10264,0.02029126,0.5226
474.127,25.2161,-3.10309,0.02066204,0.52242
474.627,25.23096,-3.10502,0.01575996,0.52224
475.127,25.24579,-3.10668,0.01614596,0.52206
475.627,25.26064,-3.10715,0.01432117,0.52188
476.127,25.27554,-3.10842,0.01608402,0.5217
476.627,25.2904,-3.10927,0.01666279,0.52152
477.127,25.30529,-3.11047,0.01216061,0.52134
477.627,25.32019,-3.11247,0.01269208,0.52116
478.127,25.3351,-3.11436,0.01385848,0.52098
478.627,25.35,-3.1147,0.01218924,0.5208
479.127,25.36488,-3.11596,0.01122688,0.52061
479.627,25.37976,-3.11608,0.01581035,0.52043
480.127,25.3946,-3.1161,0.01171292,0.52025
480.627,25.4095,-3.11757,0.01141279,0.52007
481.127,25.42437,-3.11905,0.007436112,0.51989
481.627,25.4392,-3.12097,0.01386239,0.51971
482.127,25.45414,-3.12259,0.006500983,0.51953
482.627,25.46906,-3.1255,0.007431385,0.51935
483.127,25.484,-3.12696,0.005605415,0.51917
483.627,25.49889,-3.12768,0.00674576,0.51898
484.127,25.51384,-3.12926,0.01005728,0.5188
484.627,25.52875,-3.12923,0.00812858,0.51862
485.127,25.54368,-3.12918,0.00817656,0.51844
485.627,25.55859,-3.13046,0.00583652,0.51826
486.127,25.5735,-3.13055,0.0074359,0.51808
486.627,25.58846,-3.13156,0.007292069,0.5179
487.127,25.6035,-3.1329,0.00685031,0.51772
487.627,25.6185,-3.13346,0.01081994,0.51753
488.127,25.63349,-3.13438,0.006751627,0.51735
488.627,25.64851,-3.13551,0.006448513,0.51717
489.127,25.6635,-3.13639,0.00939693,0.51699
489.627,25.6785,-3.13826,0.007395466,0.51681
490.127,25.69349,-3.13869,0.008188124,0.51663
490.627,25.70844,-3.14091,0.009976476,0.51645
491.127,25.72336,-3.14259,0.005666781,0.51627
491.627,25.73839,-3.14353,0.00761086,0.51608
492.127,25.75339,-3.14503,0.004633428,0.5159
492.627,25.7684,-3.14552,0.007270624,0.51572
493.127,25.78342,-3.14636,0.00722032,0.51554
493.627,25.79855,-3.14653,0.005195158,0.51536
494.127,25.8136,-3.14821,0.000730017,0.51518
494.627,25.8286,-3.14928,0.005049011,0.515
495.127,25.84366,-3.14983,0.00505491,0.51481
495.627,25.85867,-3.14985,0.005429853,0.51463
496.127,25.87363,-3.14986,0.002478223,0.51445
496.627,25.88864,-3.15145,0.00347224,0.51427
497.127,25.90365,-3.15213,0.002571485,0.51409
497.627,25.9187,-3.15327,-0.004045267,0.51391
498.127,25.9338,-3.15516,0.00105528,0.51373
498.627,25.94887,-3.15728,0.00323736,0.51354
499.127,25.96396,-3.15784,-0.000705209,0.51336
499.627,25.97905,-3.15885,0.003194273,0.51318
500.127,25.99413,-3.1594,0.0003442235,0.513
500.627,26.0092,-3.1594,-0.00235774,0.51282
501.127,26.02434,-3.15956,-0.00585294,0.51264
501.627,26.03945,-3.16071,-0.00125965,0.51246
502.127,26.05453,-3.16075,-0.005739177,0.51227
502.627,26.06965,-3.16209,-0.00148424,0.51209
503.127,26.0848,-3.16272,0.000868286,0.51191
503.627,26.09988,-3.16401,-0.0003600207,0.51173
504.127,26.11497,-3.1654,-0.00197045,0.51155
504.627,26.13015,-3.1657,-0.00158929,0.51137
505.127,26.14525,-3.16728,-0.0008599262,0.51118
505.627,26.16037,-3.16743,-0.004838418,0.511
506.127,26.17546,-3.16929,0.0005699009,0.51082
506.627,26.19061,-3.16871,-0.0014813,0.51064
507.127,26.20569,-3.16973,-0.00263613,0.51046
507.627,26.22087,-3.17013,-0.0006531541,0.51028
508.127,26.236,-3.17146,-0.00294394,0.5101
508.627,26.2512,-3.17279,-0.0007322449,0.50991
509.127,26.26632,-3.173,-0.005782764,0.50973
509.627,26.28153,-3.17298,-0.002626362,0.50955
510.127,26.29669,-3.17434,-0.002759524,0.50937
510.627,26.3119,-3.17494,-0.001247662,0.50919
511.127,26.32702,-3.17674,-0.003133897,0.50901
511.627,26.3422,-3.17773,-0.00358693,0.50882
512.127,26.3573,-3.17824,-0.00186527,0.50864
512.627,26.3725,-3.17826,0.001484629,0.50846
513.127,26.38768,-3.17826,0.001842725,0.50828
513.627,26.40288,-3.17822,0.001698892,0.5081
514.127,26.41818,-3.17945,0.00176252,0.50792
514.627,26.4334,-3.1808,-0.00214487,0.50774
515.127,26.4486,-3.18138,0.001041139,0.50755
515.627,26.4638,-3.18276,0.004888863,0.50737
516.127,26.47905,-3.18311,0.001157392,0.50719
516.627,26.4942,-3.18465,0.00543658,0.50701
517.127,26.50947,-3.18524,0.002626442,0.50683
517.627,26.5247,-3.18596,0.007567725,0.50665
518.127,26.54,-3.18595,0.00364815,0.50647
518.627,26.5552,-3.18776,0.002863234,0.50628
519.127,26.57045,-3.18871,0.005794039,0.5061
519.627,26.58571,-3.19046,0.003789222,0.50592
520.127,26.60095,-3.19099,0.00159709,0.50574
520.627,26.6162,-3.19222,0.00294697,0.50556
521.127,26.6315,-3.1924,-1.63524e-06,0.50538
521.627,26.6467,-3.19253,-0.00185241,0.5052
522.127,26.662,-3.19225,0.0004282069,0.50501
522.627,26.6773,-3.19362,-0.001110233,0.50483
523.127,26.6926,-3.19372,0.002640514,0.50465
523.627,26.70782,-3.19481,0.0001722482,0.50447
524.127,26.72312,-3.19505,-0.001090619,0.50429
524.627,26.73841,-3.19526,-0.003688634,0.50411
525.127,26.75367,-3.19649,-0.009243556,0.50393
525.627,26.76894,-3.19749,-0.00890649,0.50374
526.127,26.78425,-3.19856,-0.006871335,0.50356
526.627,26.7996,-3.1991,-0.0065002,0.50338
527.127,26.8148,-3.1992,-0.00275915,0.5032
527.627,26.83013,-3.20081,-0.00713258,0.50302
528.127,26.84543,-3.20071,-0.008702859,0.50284
528.627,26.86075,-3.20209,-0.004319517,0.50266
529.127,26.87603,-3.20206,-0.00117886,0.50248
529.627,26.89132,-3.20206,-0.00123189,0.5023
530.127,26.90666,-3.20206,-0.004398892,0.50211
530.627,26.92199,-3.20258,-0.00305161,0.50193
531.127,26.93729,-3.2034,-0.0048214,0.50175
531.627,26.9526,-3.20341,-0.002114742,0.50157
532.127,26.968,-3.20284,-0.001297457,0.50139
532.627,26.9834,-3.20373,-0.002165101,0.50121
533.127,26.99878,-3.20368,-0.005357262,0.50103
533.627,27.01415,-3.20518,-0.0014696,0.50085
534.127,27.02952,-3.20522,-0.001087708,0.50066
534.627,27.04487,-3.20716,0.001194741,0.50048
535.127,27.0602,-3.2081,-0.000420857,0.5003
535.627,27.07553,-3.20864,0.0003095489,0.50012
536.127,27.09092,-3.20942,-0.003107175,0.49994
536.627,27.1063,-3.2094,-0.001225809,0.49976
537.127,27.1218,-3.21102,-3.292255e-05,0.49958
537.627,27.1372,-3.2109,-7.982241e-05,0.4994
538.127,27.1526,-3.21214,-0.003625245,0.49922
538.627,27.16793,-3.21183,-0.003013063,0.49904
539.127,27.1833,-3.21193,-0.00598681,0.49886
539.627,27.1987,-3.2132,-0.002928208,0.49867
540.127,27.2141,-3.21325,-0.00466715,0.49849
540.627,27.22956,-3.21347,-0.00216509,0.49831
541.127,27.24502,-3.21459,-0.004233791,0.49813
541.627,27.2604,-3.21458,-0.009880444,0.49795
542.127,27.2759,-3.2159,-0.006142154,0.49777
542.627,27.2913,-3.21648,-0.004552012,0.49759
543.127,27.30671,-3.21764,-0.004818606,0.49741
543.627,27.32211,-3.21764,-0.005958055,0.49723
544.127,27.33752,-3.21764,-0.008392195,0.49705
544.627,27.3528,-3.21765,-0.007847959,0.49687
545.127,27.3682,-3.21851,-0.00444723,0.49669
545.627,27.38368,-3.21899,-0.002433181,0.49651
546.127,27.39915,-3.22074,-0.00653434,0.49633
546.627,27.4146,-3.22086,-0.002070044,0.49615
547.127,27.43018,-3.22216,-0.003071554,0.49596
547.627,27.44568,-3.22344,-0.006757086,0.49578
548.127,27.46112,-3.22347,-0.007358929,0.4956
548.627,27.47658,-3.2237,-0.004291197,0.49542
549.127,27.4921,-3.2249,-0.00548783,0.49524
549.627,27.5076,-3.22493,-0.007451254,0.49506
550.127,27.52297,-3.22625,-0.008872592,0.49488
550.627,27.53844,-3.2262,-0.007692114,0.4947
551.127,27.55394,-3.2262,-0.0115477,0.49452
551.627,27.56938,-3.22619,-0.006730838,0.49434
552.127,27.5849,-3.22619,-0.006650321,0.49416
552.627,27.6004,-3.22656,-0.01102021,0.49398
553.127,27.61597,-3.22753,-0.006736045,0.4938
553.627,27.63151,-3.22749,-0.01011176,0.49362
554.127,27.64702,-3.22853,-0.008669141,0.49344
554.627,27.66252,-3.22901,-0.01273526,0.49326
555.127,27.678,-3.23039,-0.01007775,0.49308
555.627,27.6936,-3.23169,-0.008567564,0.4929
556.127,27.7091,-3.23166,-0.01336686,0.49272
556.627,27.7247,-3.23215,-0.0126654,0.49254
557.127,27.7402,-3.23179,-0.00448035,0.49236
557.627,27.75576,-3.23274,-0.009391641,0.49218
558.127,27.7713,-3.23309,-0.00521521,0.492
558.627,27.7868,-3.2331,-0.00858348,0.49182
559.127,27.8024,-3.23317,-0.005223633,0.49164
559.627,27.818,-3.23445,-0.00656849,0.49146
560.127,27.8335,-3.23453,-0.00599663,0.49128
560.627,27.8491,-3.23469,-0.006210635,0.4911
561.127,27.86465,-3.23668,-0.004525325,0.49092
561.627,27.88017,-3.23717,-0.00638766,0.49074
562.127,27.8957,-3.23778,-0.00581551,0.49056
562.627,27.9113,-3.23875,-0.007569706,0.49038
563.127,27.9269,-3.23872,-0.01160609,0.4902
563.627,27.94248,-3.23913,-0.008576425,0.49002
564.127,27.95808,-3.23914,-0.009861575,0.48984
564.627,27.97363,-3.2395,-0.0123724,0.48967
565.127,27.9892,-3.24047,-0.01515546,0.48949
565.627,28.00478,-3.24064,-0.0109014,0.48931
566.127,28.02037,-3.24189,-0.00748441,0.48913
566.627,28.03605,-3.24189,-0.00990794,0.48895
567.127,28.05169,-3.24208,-0.009497689,0.48877
567.627,28.06727,-3.2432,-0.01125438,0.48859
568.127,28.08291,-3.24328,-0.01586955,0.48841
568.627,28.09852,-3.24448,-0.01201891,0.48823
569.127,28.1141,-3.24491,-0.01592077,0.48805
569.627,28.12973,-3.24585,-0.01480023,0.48787
570.127,28.1454,-3.24605,-0.02099288,0.48769
570.627,28.1611,-3.24739,-0.01818306,0.48752
571.127,28.17667,-3.24763,-0.02212397,0.48734
571.627,28.19233,-3.2487,-0.01658076,0.48716
572.127,28.20797,-3.24868,-0.01867496,0.48698
572.627,28.22359,-3.24866,-0.01862602,0.4868
573.127,28.23925,-3.2496,-0.02070592,0.48662
573.627,28.25487,-3.25,-0.02004209,0.48644
574.127,28.2705,-3.25039,-0.01686466,0.48626
574.627,28.28615,-3.25066,-0.02159406,0.48608
575.127,28.30166,-3.25066,-0.01819075,0.48591
575.627,28.3172,-3.25062,-0.02153127,0.48573
576.127,28.3327,-3.25236,-0.02272939,0.48555
576.627,28.3483,-3.25242,-0.02090194,0.48537
577.127,28.364,-3.25313,-0.02286358,0.48519
577.627,28.3798,-3.25384,-0.0242879,0.48501
578.127,28.39568,-3.25486,-0.02118021,0.48483
578.627,28.4115,-3.25545,-0.02648595,0.48466
579.127,28.4272,-3.25545,-0.02239513,0.48448
579.627,28.4429,-3.25565,-0.02492128,0.4843
580.127,28.45859,-3.25573,-0.02320684,0.48412
580.627,28.4743,-3.2554,-0.02237046,0.48394
581.127,28.48987,-3.25658,-0.02546848,0.48377
581.627,28.50545,-3.25669,-0.02477382,0.48359
582.127,28.52107,-3.25671,-0.02706328,0.48341
582.627,28.53681,-3.25791,-0.02450684,0.48323
583.127,28.5526,-3.25801,-0.02376079,0.48305
583.627,28.56845,-3.25811,-0.02639867,0.48288
584.127,28.58434,-3.2596,-0.02361001,0.4827
584.627,28.60006,-3.25988,-0.02025631,0.48252
585.127,28.61575,-3.26111,-0.02638527,0.48234
585.627,28.63145,-3.26109,-0.02340831,0.48216
586.127,28.6471,-3.2618,-0.02733943,0.48199
586.627,28.6628,-3.26258,-0.01918056,0.48181
587.127,28.67843,-3.26362,-0.0298088,0.48163
587.627,28.6942,-3.26426,-0.02709899,0.48145
588.127,28.7099,-3.26437,-0.02908086,0.48128
588.627,28.7257,-3.26555,-0.02919691,0.4811
589.127,28.74158,-3.26557,-0.0283564,0.48092
589.627,28.75739,-3.26558,-0.0313567,0.48074
590.127,28.7732,-3.26589,-0.03134379,0.48057
590.627,28.78896,-3.26692,-0.03495882,0.48039
591.127,28.8047,-3.2673,-0.03141849,0.48021
591.627,28.8205,-3.26831,-0.03180871,0.48003
592.127,28.8363,-3.26897,-0.03587026,0.47986
592.627,28.852,-3.2687,-0.02963891,0.47968
593.127,28.8678,-3.27023,-0.03202707,0.4795
593.627,28.88363,-3.27018,-0.033134,0.47933
594.127,28.8994,-3.27017,-0.03271472,0.47915
594.627,28.91518,-3.27131,-0.02941801,0.47897
595.127,28.931,-3.27149,-0.0273133,0.4788
595.627,28.94678,-3.2715,-0.02730977,0.47862
596.127,28.96255,-3.27295,-0.02548615,0.47844
596.627,28.9783,-3.27433,-0.0254584,0.47827
597.127,28.99415,-3.2758,-0.02436596,0.47809
597.627,29.01,-3.27603,-0.0300229,0.47791
598.127,29.0258,-3.27721,-0.02917928,0.47774
598.627,29.04162,-3.27724,-0.02355184,0.47756
599.127,29.0574,-3.27847,-0.03053889,0.47738
599.627,29.07327,-3.27754,-0.02741558,0.47721
600.127,29.08907,-3.27717,-0.02257388,0.47703
600.627,29.1049,-3.2784,-0.02884831,0.47685
601.127,29.12073,-3.27852,-0.0281828,0.47668
601.627,29.13653,-3.27862,-0.02888153,0.4765
602.127,29.15233,-3.2799,-0.02938929,0.47633
602.627,29.1682,-3.27998,-0.02526645,0.47615
603.127,29.18406,-3.28118,-0.02515094,0.47597
603.627,29.19988,-3.28125,-0.02675757,0.4758
604.127,29.21575,-3.28263,-0.02696805,0.47562
604.627,29.23163,-3.28258,-0.02877682,0.47545
605.127,29.2475,-3.28257,-0.03013895,0.47527
605.627,29.26339,-3.28375,-0.02886603,0.4751
606.127,29.2793,-3.28411,-0.03039217,0.47492
606.627,29.2952,-3.28461,-0.03023646,0.47474
607.127,29.311,-3.28544,-0.03141893,0.47457
607.627,29.32685,-3.28543,-0.02945687,0.47439
608.127,29.34272,-3.28457,-0.02799834,0.47422
608.627,29.35857,-3.28443,-0.02693962,0.47404
609.127,29.37446,-3.28553,-0.02766406,0.47387
609.627,29.3902,-3.28589,-0.0207659,0.47369
610.127,29.4061,-3.28703,-0.02466928,0.47352
610.627,29.422,-3.28869,-0.01346862,0.47334
611.127,29.43795,-3.28873,-0.01767486,0.47317
611.627,29.45389,-3.28945,-0.01537714,0.47299
612.127,29.46984,-3.28978,-0.009325601,0.47282
612.627,29.4857,-3.28896,-0.01127419,0.47264
613.127,29.50158,-3.29005,-0.01229377,0.47247
613.627,29.51747,-3.29004,-0.007428788,0.47229
614.127,29.5334,-3.2907,-0.007025865,0.47212
614.627,29.5493,-3.29162,-0.01426133,0.47194
615.127,29.5652,-3.29306,-0.01519651,0.47177
615.627,29.5811,-3.29313,-0.02446629,0.47159
616.127,29.59696,-3.29502,-0.02281465,0.47142
616.627,29.61283,-3.29574,-0.03319962,0.47124
617.127,29.6287,-3.29573,-0.04299688,0.47107
617.627,29.6446,-3.29668,-0.04994644,0.4709
618.127,29.6605,-3.29738,-0.05073653,0.47072
618.627,29.6764,-3.29846,-0.05763719,0.47055
619.127,29.6924,-3.29881,-0.06515917,0.47037
619.627,29.7083,-3.29972,-0.07680463,0.4702
620.127,29.72428,-3.30072,-0.08370586,0.47002
620.627,29.74022,-3.30233,-0.09060436,0.46985
621.127,29.75615,-3.30416,-0.09820273,0.46968
621.627,29.77208,-3.30408,-0.09906727,0.4695
622.127,29.78799,-3.30408,-0.10628,0.46933
622.627,29.80382,-3.30408,-0.10695,0.46916
623.127,29.81959,-3.30437,-0.11499,0.46898
623.627,29.83551,-3.30564,-0.11854,0.46881
624.127,29.85148,-3.30601,-0.12114,0.46863
624.627,29.86745,-3.30638,-0.12717,0.46846
625.127,29.8836,-3.30653,-0.12533,0.46829
625.627,29.8997,-3.30715,-0.12196,0.46811
626.127,29.9156,-3.30715,-0.11931,0.46794
626.627,29.9316,-3.30715,-0.11952,0.46777
627.127,29.9475,-3.30715,-0.11634,0.46759
627.627,29.96351,-3.30715,-0.11544,0.46742
628.127,29.9795,-3.30715,-0.1156,0.46725
628.627,29.99555,-3.30715,-0.11525,0.46708
628.727,29.99871,-3.30715,-0.1158,0.46704