File: 01_Data/Gypsum_Wallboard_GypsumCore/MCC/Gypsum_Wallboard_GypsumCore_MCC_30K_min_211004_R1.txt
Sample ID:	C:\MCC\MCC Cal\Test\Gypsum_Wallboard_GypsumCore_MCC_30K_min_211004_R1.txt
Sample Weight (mg):	4.73
Heating Rate (C/s):	0.5
Combustor Temp (C):	900
N2 Flow Rate (cc/min):	80
O2 Flow Rate (cc/min):	20
Calibration File:	C:\MCC\MCC Cal\Coeff1 JN10440_30_210304.txt.txt
T Correction Coefficients:	0	1.024463	0
Time Shift (s):	14
*
Time (s)	Temperature (C)	N2 flow rate (cc/min)	O2 flow rate (cc/min)	Flow Rate (cc/min)	Oxygen (%)	HRR (W/g)	Heating rate (C/s)
0.000	106.812	79.994	19.997	100.627	20.034	-0.092	0.001
2.000	106.807	79.994	19.996	100.629	20.030	0.170	-0.003
4.000	106.800	79.993	19.996	100.622	20.032	0.036	0.004
6.000	106.813	79.993	19.996	100.626	20.031	0.092	0.009
8.000	106.791	79.993	19.996	100.631	20.028	0.298	0.008
10.000	106.777	79.992	19.996	100.650	20.028	0.291	-0.011
12.001	106.781	79.995	19.995	100.656	20.026	0.431	-0.008
14.000	106.786	79.996	19.997	100.674	20.024	0.586	-0.028
16.000	106.863	79.994	19.997	100.702	20.022	0.664	0.027
18.000	106.910	79.994	19.995	100.711	20.017	0.994	0.018
20.000	106.939	79.994	19.996	100.685	20.013	1.314	0.017
22.000	107.057	79.994	19.996	100.705	20.010	1.470	0.044
24.000	107.180	79.993	19.995	100.829	20.010	1.495	0.101
26.000	107.327	79.994	19.995	100.797	20.006	1.763	0.081
28.000	107.491	79.995	19.994	100.806	20.004	1.900	0.094
30.000	107.701	79.995	19.996	100.808	20.002	2.024	0.128
32.001	107.930	79.995	19.996	100.815	19.999	2.195	0.115
34.000	108.207	79.995	19.995	100.820	19.998	2.284	0.140
36.000	108.523	79.996	19.996	100.819	19.998	2.269	0.176
38.000	108.823	79.996	19.995	100.818	19.999	2.230	0.161
40.000	109.214	79.996	19.995	100.821	19.998	2.307	0.176
42.001	109.565	79.996	19.995	100.817	19.998	2.300	0.194
44.000	109.962	79.996	19.995	100.820	19.993	2.636	0.226
46.000	110.357	79.996	19.996	100.814	19.996	2.447	0.162
48.000	110.813	79.995	19.994	100.813	19.992	2.673	0.210
50.001	111.258	79.996	19.995	100.920	19.994	2.528	0.231
52.000	111.768	79.996	19.996	100.863	19.990	2.804	0.233
54.001	112.244	79.997	19.994	100.860	19.990	2.824	0.229
56.000	112.830	79.996	19.994	100.869	19.984	3.228	0.302
58.000	113.344	79.996	19.994	100.889	19.990	2.846	0.237
60.000	113.949	79.996	19.994	100.874	19.989	2.905	0.270
62.001	114.577	79.998	19.994	100.879	19.987	3.032	0.320
64.001	115.173	79.998	19.995	100.889	19.987	3.029	0.323
66.000	115.846	79.997	19.994	100.885	19.989	2.871	0.353
68.000	116.471	79.998	19.995	100.898	19.986	3.074	0.332
70.001	117.139	79.996	19.995	100.892	19.984	3.246	0.324
72.000	117.848	79.995	19.995	100.892	19.987	2.991	0.330
74.000	118.564	79.995	19.995	100.895	19.984	3.206	0.332
76.000	119.279	79.995	19.996	100.898	19.983	3.282	0.365
78.001	120.011	79.995	19.996	100.895	19.983	3.276	0.402
80.001	120.815	79.996	19.997	100.899	19.982	3.371	0.419
82.000	121.551	79.995	19.995	100.902	19.981	3.403	0.375
84.000	122.361	79.995	19.996	100.898	19.984	3.240	0.423
86.000	123.188	79.997	19.994	100.898	19.983	3.311	0.413
88.000	123.969	79.995	19.995	100.890	19.982	3.338	0.408
90.000	124.771	79.995	19.995	100.889	19.980	3.510	0.404
92.000	125.608	79.996	19.995	100.896	19.978	3.594	0.448
94.000	126.450	79.994	19.996	100.889	19.978	3.604	0.445
96.000	127.288	79.994	19.997	100.891	19.976	3.746	0.430
98.000	128.189	79.995	19.997	100.887	19.978	3.630	0.439
100.000	129.050	79.994	19.996	100.897	19.980	3.489	0.408
102.000	129.957	79.993	19.997	100.897	19.979	3.581	0.431
104.000	130.835	79.993	19.995	100.891	19.976	3.740	0.426
106.000	131.778	79.993	19.997	100.896	19.980	3.461	0.484
108.000	132.670	79.994	19.996	100.897	19.981	3.445	0.451
110.000	133.595	79.995	19.996	100.897	19.983	3.303	0.447
112.000	134.545	79.993	19.996	100.891	19.982	3.349	0.460
114.000	135.491	79.994	19.997	100.888	19.985	3.168	0.468
116.000	136.436	79.996	19.996	100.894	19.984	3.188	0.470
118.000	137.390	79.998	19.994	100.892	19.985	3.171	0.461
120.000	138.363	79.997	19.995	100.886	19.984	3.235	0.454
122.000	139.323	79.998	19.995	100.890	19.980	3.510	0.468
124.000	140.342	79.996	19.996	100.897	19.978	3.631	0.505
126.001	141.298	79.996	19.996	100.895	19.979	3.550	0.494
128.000	142.282	79.995	19.995	100.894	19.984	3.224	0.461
130.000	143.295	79.995	19.995	100.889	19.984	3.220	0.495
132.000	144.298	79.996	19.996	100.895	19.983	3.303	0.490
134.001	145.295	79.995	19.996	100.878	19.983	3.292	0.464
136.000	146.295	79.995	19.995	100.873	19.983	3.289	0.473
138.000	147.262	79.996	19.994	100.884	19.979	3.555	0.492
140.000	148.237	79.996	19.995	100.891	19.981	3.424	0.499
142.000	149.262	79.997	19.995	100.882	19.983	3.248	0.479
144.001	150.296	79.997	19.994	100.872	19.982	3.333	0.507
146.000	151.279	79.998	19.996	100.873	19.985	3.158	0.505
148.000	152.289	79.998	19.994	100.878	19.984	3.221	0.497
150.000	153.269	79.997	19.994	100.862	19.986	3.107	0.458
152.000	154.256	79.996	19.995	100.861	19.984	3.241	0.472
154.000	155.277	79.995	19.995	100.862	19.982	3.361	0.468
156.000	156.290	79.997	19.995	100.861	19.984	3.225	0.530
158.000	157.301	79.995	19.994	100.861	19.986	3.114	0.512
160.000	158.305	79.995	19.997	100.867	19.987	3.013	0.530
162.000	159.315	79.995	19.996	100.862	19.986	3.051	0.520
164.000	160.321	79.994	19.996	100.860	19.987	3.027	0.541
166.000	161.296	79.996	19.997	100.860	19.987	2.997	0.486
168.000	162.302	79.994	19.995	100.862	19.986	3.103	0.477
170.000	163.337	79.997	19.997	100.857	19.986	3.078	0.487
172.000	164.314	79.995	19.996	100.858	19.987	2.998	0.527
174.000	165.310	79.996	19.996	100.857	19.985	3.159	0.461
176.000	166.368	79.996	19.996	100.858	19.990	2.846	0.513
178.000	167.373	79.996	19.996	100.859	19.992	2.671	0.488
180.000	168.333	79.995	19.995	100.856	19.992	2.656	0.494
182.000	169.355	79.996	19.996	100.853	19.994	2.533	0.510
184.000	170.358	79.994	19.995	100.859	19.994	2.569	0.478
186.000	171.333	79.995	19.996	100.849	19.992	2.691	0.506
188.000	172.340	79.994	19.997	100.855	19.994	2.580	0.500
190.000	173.368	79.995	19.996	100.859	19.993	2.605	0.508
192.000	174.395	79.995	19.997	100.853	19.997	2.337	0.549
194.000	175.396	79.994	19.997	100.835	20.000	2.136	0.504
196.000	176.370	79.994	19.997	100.858	19.996	2.440	0.497
198.000	177.359	79.996	19.996	100.852	19.990	2.797	0.507
200.000	178.342	79.997	19.996	100.833	19.995	2.504	0.498
202.000	179.318	79.997	19.996	100.845	19.992	2.667	0.462
204.000	180.319	79.995	19.996	100.850	19.995	2.478	0.499
206.000	181.317	79.994	19.996	100.847	19.994	2.569	0.488
208.000	182.343	79.996	19.995	100.837	19.990	2.822	0.507
210.000	183.292	79.996	19.994	100.842	19.994	2.578	0.468
212.000	184.250	79.995	19.996	100.842	19.993	2.625	0.488
214.000	185.256	79.996	19.996	100.835	19.995	2.485	0.506
216.000	186.240	79.995	19.996	100.826	19.994	2.541	0.472
218.000	187.254	79.997	19.995	100.833	19.993	2.606	0.481
220.000	188.262	79.997	19.996	100.826	19.995	2.485	0.482
222.000	189.203	79.997	19.995	100.832	19.994	2.577	0.496
224.000	190.198	79.996	19.995	100.821	19.993	2.601	0.540
226.000	191.191	79.997	19.995	100.819	19.995	2.483	0.443
228.000	192.192	79.997	19.995	100.820	19.994	2.563	0.501
230.000	193.117	79.996	19.995	100.826	19.995	2.498	0.477
232.000	194.134	79.996	19.996	100.821	19.995	2.496	0.502
234.000	195.080	79.996	19.995	100.819	19.996	2.396	0.494
236.000	196.082	79.995	19.995	100.818	19.995	2.451	0.499
238.000	197.069	79.994	19.996	100.829	19.991	2.755	0.478
240.000	198.047	79.995	19.996	100.825	19.990	2.807	0.484
242.000	199.023	79.995	19.997	100.829	19.993	2.626	0.495
244.000	200.014	79.994	19.996	100.822	19.993	2.599	0.503
246.000	201.003	79.995	19.996	100.823	19.994	2.538	0.476
248.001	201.957	79.997	19.995	100.822	19.993	2.598	0.464
250.000	202.983	79.996	19.997	100.823	19.998	2.273	0.501
252.000	203.947	79.995	19.996	100.822	19.994	2.536	0.459
254.000	204.908	79.995	19.995	100.827	19.997	2.342	0.471
256.000	205.884	79.995	19.997	100.824	19.994	2.558	0.519
258.000	206.933	79.995	19.995	100.830	19.996	2.434	0.511
260.000	207.915	79.995	19.997	100.824	19.994	2.559	0.514
262.000	208.893	79.996	19.996	100.822	19.993	2.583	0.489
264.000	209.916	79.994	19.996	100.823	19.996	2.436	0.538
266.000	210.870	79.995	19.996	100.823	19.997	2.353	0.468
268.000	211.854	79.994	19.995	100.824	19.995	2.496	0.514
270.000	212.846	79.994	19.995	100.824	19.993	2.621	0.490
272.000	213.825	79.994	19.995	100.823	19.992	2.681	0.511
274.000	214.803	79.994	19.995	100.821	19.993	2.628	0.482
276.000	215.794	79.994	19.996	100.823	19.993	2.635	0.504
278.000	216.826	79.994	19.997	100.824	19.991	2.731	0.535
280.000	217.806	79.995	19.996	100.824	19.998	2.306	0.491
282.000	218.790	79.995	19.996	100.818	19.994	2.537	0.487
284.000	219.769	79.996	19.996	100.819	19.991	2.758	0.476
286.000	220.744	79.994	19.997	100.818	19.995	2.456	0.516
288.000	221.731	79.995	19.997	100.818	19.993	2.593	0.511
290.000	222.722	79.994	19.997	100.818	19.990	2.820	0.466
292.001	223.697	79.994	19.997	100.817	19.995	2.468	0.501
294.000	224.705	79.995	19.997	100.815	19.995	2.503	0.504
296.000	225.680	79.995	19.995	100.816	19.994	2.516	0.448
298.000	226.703	79.996	19.995	100.812	19.994	2.553	0.511
300.000	227.675	79.995	19.996	100.810	19.996	2.438	0.530
302.000	228.664	79.998	19.996	100.809	19.996	2.390	0.502
304.000	229.637	79.996	19.995	100.805	19.994	2.537	0.481
306.001	230.667	79.996	19.995	100.814	19.993	2.630	0.519
308.000	231.647	79.996	19.995	100.804	19.993	2.648	0.502
310.000	232.648	79.996	19.995	100.812	19.994	2.546	0.480
312.000	233.653	79.994	19.994	100.800	19.998	2.257	0.476
314.000	234.655	79.994	19.994	100.803	19.994	2.542	0.515
316.000	235.645	79.993	19.995	100.817	19.992	2.701	0.476
318.000	236.652	79.993	19.995	100.810	19.999	2.238	0.513
320.000	237.578	79.992	19.995	100.804	19.995	2.493	0.500
322.000	238.597	79.995	19.996	100.815	19.997	2.345	0.502
324.000	239.594	79.994	19.995	100.801	19.995	2.495	0.496
326.000	240.554	79.994	19.996	100.790	19.992	2.680	0.465
328.000	241.514	79.993	19.995	100.785	19.997	2.347	0.454
330.000	242.510	79.994	19.995	100.788	20.002	2.043	0.512
332.000	243.479	79.995	19.995	100.789	19.998	2.300	0.471
334.000	244.435	79.994	19.996	100.798	19.997	2.318	0.474
336.000	245.406	79.994	19.997	100.794	19.995	2.510	0.473
338.000	246.395	79.995	19.995	100.798	19.997	2.332	0.520
340.000	247.335	79.994	19.995	100.787	19.997	2.320	0.472
342.000	248.284	79.994	19.995	100.796	20.000	2.159	0.474
344.000	249.311	79.995	19.995	100.794	19.999	2.206	0.506
346.000	250.284	79.993	19.995	100.790	20.003	1.967	0.469
348.000	251.237	79.993	19.995	100.787	20.003	1.976	0.515
350.000	252.232	79.993	19.997	100.786	20.000	2.166	0.490
352.000	253.169	79.993	19.996	100.785	20.001	2.082	0.503
354.000	254.122	79.993	19.996	100.784	20.000	2.162	0.463
356.000	255.077	79.994	19.996	100.783	19.998	2.262	0.464
358.000	256.024	79.994	19.997	100.783	19.996	2.424	0.477
360.000	256.980	79.996	19.996	100.785	20.001	2.101	0.460
362.000	257.952	79.996	19.997	100.782	19.996	2.408	0.506
364.000	258.867	79.995	19.996	100.780	19.994	2.517	0.448
366.000	259.811	79.995	19.996	100.780	19.997	2.350	0.470
368.000	260.706	79.996	19.996	100.781	19.998	2.310	0.418
370.000	261.642	79.996	19.995	100.782	19.997	2.330	0.463
372.000	262.520	79.994	19.996	100.785	19.996	2.392	0.443
374.000	263.496	79.995	19.996	100.782	19.993	2.611	0.463
376.000	264.408	79.994	19.996	100.782	19.998	2.314	0.466
378.000	265.319	79.993	19.995	100.781	20.000	2.162	0.434
380.000	266.259	79.995	19.996	100.782	19.998	2.265	0.474
382.000	267.227	79.996	19.995	100.785	19.997	2.361	0.454
384.000	268.197	79.996	19.995	100.785	19.998	2.282	0.523
386.000	269.124	79.996	19.995	100.789	20.002	2.043	0.491
388.000	270.079	79.995	19.996	100.786	20.000	2.119	0.446
390.000	271.105	79.997	19.995	100.781	20.000	2.126	0.505
392.000	272.033	79.997	19.996	100.782	20.001	2.081	0.466
394.000	272.945	79.995	19.997	100.793	20.000	2.169	0.464
396.000	273.853	79.993	19.995	100.784	20.001	2.090	0.428
398.000	274.861	79.995	19.996	100.788	20.001	2.086	0.494
400.000	275.826	79.992	19.995	100.785	20.000	2.151	0.491
402.000	276.796	79.993	19.996	100.795	19.998	2.283	0.509
404.000	277.810	79.995	19.995	100.786	19.996	2.425	0.520
406.000	278.741	79.994	19.996	100.787	19.999	2.242	0.489
408.000	279.690	79.995	19.996	100.790	20.001	2.106	0.472
410.000	280.677	79.994	19.997	100.788	19.999	2.197	0.523
412.000	281.617	79.995	19.995	100.788	20.000	2.175	0.474
414.000	282.599	79.994	19.995	100.787	20.002	2.012	0.480
416.000	283.566	79.995	19.997	100.797	19.998	2.260	0.500
418.000	284.481	79.994	19.995	100.787	19.998	2.289	0.450
420.000	285.512	79.994	19.995	100.792	20.003	1.934	0.521
422.000	286.510	79.994	19.996	100.782	20.000	2.149	0.495
424.000	287.499	79.995	19.996	100.782	19.997	2.325	0.473
426.000	288.514	79.994	19.994	100.787	20.003	1.969	0.520
428.000	289.514	79.994	19.995	100.785	19.998	2.256	0.506
430.000	290.515	79.993	19.995	100.782	19.997	2.318	0.493
432.000	291.491	79.995	19.995	100.782	19.998	2.285	0.489
434.000	292.531	79.995	19.996	100.782	19.996	2.426	0.466
436.000	293.514	79.995	19.994	100.781	19.996	2.394	0.501
438.000	294.469	79.994	19.995	100.786	19.997	2.334	0.461
440.000	295.493	79.995	19.996	100.789	19.997	2.376	0.484
442.000	296.471	79.996	19.996	100.799	19.997	2.332	0.485
444.000	297.503	79.995	19.996	100.783	19.996	2.443	0.505
446.000	298.511	79.996	19.997	100.792	19.995	2.470	0.480
448.000	299.515	79.997	19.996	100.782	19.994	2.522	0.504
450.000	300.540	79.995	19.996	100.783	19.999	2.216	0.517
452.000	301.569	79.995	19.996	100.789	20.001	2.110	0.513
454.000	302.618	79.994	19.996	100.786	19.998	2.302	0.519
456.000	303.634	79.994	19.995	100.782	19.999	2.231	0.517
458.000	304.613	79.995	19.996	100.782	19.997	2.349	0.530
460.000	305.635	79.996	19.996	100.781	19.997	2.327	0.520
462.000	306.638	79.994	19.996	100.783	19.996	2.384	0.512
464.000	307.643	79.995	19.996	100.785	19.996	2.392	0.453
466.000	308.752	79.996	19.996	100.797	19.998	2.300	0.532
468.000	309.739	79.996	19.995	100.806	19.999	2.208	0.541
470.000	310.810	79.996	19.994	100.795	19.997	2.358	0.523
472.000	311.780	79.995	19.995	100.811	19.999	2.226	0.494
474.000	312.902	79.996	19.997	100.811	19.997	2.365	0.552
476.000	313.972	79.996	19.998	100.799	19.995	2.457	0.523
478.000	315.046	79.993	19.996	100.800	19.995	2.493	0.496
480.000	316.161	79.993	19.996	100.794	19.997	2.345	0.583
482.000	317.233	79.993	19.995	100.788	19.996	2.419	0.552
484.000	318.278	79.994	19.996	100.788	19.997	2.369	0.519
486.000	319.381	79.994	19.996	100.789	19.998	2.309	0.541
488.000	320.440	79.996	19.996	100.791	19.989	2.859	0.542
490.000	321.512	79.994	19.996	100.785	19.991	2.729	0.516
492.000	322.593	79.994	19.996	100.794	19.987	3.027	0.547
494.000	323.727	79.994	19.997	100.787	19.989	2.904	0.578
496.000	324.826	79.996	19.995	100.793	19.994	2.537	0.534
498.000	325.911	79.996	19.995	100.782	19.993	2.633	0.571
500.000	326.987	79.996	19.996	100.790	19.994	2.540	0.564
502.000	327.968	79.995	19.995	100.798	19.996	2.414	0.499
504.000	329.168	79.995	19.997	100.787	19.995	2.471	0.539
506.000	330.156	79.995	19.996	100.786	19.996	2.439	0.579
508.000	331.410	79.994	19.996	100.788	19.998	2.253	0.311
510.000	332.329	79.993	19.995	100.785	19.998	2.280	0.561
512.000	333.507	79.993	19.996	100.783	19.998	2.265	0.566
514.000	334.544	79.995	19.995	100.780	19.997	2.354	0.551
516.000	335.684	79.994	19.995	100.783	19.996	2.406	0.544
518.000	336.767	79.995	19.996	100.784	19.995	2.484	0.581
520.000	337.870	79.995	19.996	100.783	19.996	2.430	0.566
522.000	338.880	79.995	19.995	100.784	19.997	2.375	0.506
524.000	339.958	79.997	19.995	100.785	19.998	2.294	0.514
526.000	340.982	79.996	19.994	100.783	19.993	2.609	0.537
528.000	342.005	79.996	19.996	100.780	19.996	2.395	0.484
530.000	343.071	79.996	19.995	100.774	19.994	2.542	0.525
532.000	344.098	79.995	19.996	100.781	19.993	2.598	0.448
534.000	345.167	79.995	19.996	100.777	19.991	2.719	0.522
536.000	346.206	79.994	19.997	100.779	19.992	2.659	0.538
538.000	347.249	79.995	19.996	100.781	19.997	2.374	0.521
540.000	348.271	79.995	19.997	100.776	19.993	2.609	0.519
542.000	349.319	79.995	19.997	100.781	19.994	2.536	0.518
544.000	350.334	79.995	19.996	100.777	19.996	2.428	0.484
546.000	351.356	79.996	19.997	100.765	19.995	2.496	0.494
548.001	352.387	79.997	19.995	100.774	19.996	2.399	0.544
550.000	353.492	79.997	19.996	100.771	19.993	2.627	0.557
552.000	354.528	79.998	19.995	100.773	19.992	2.674	0.535
554.000	355.500	79.996	19.995	100.774	19.993	2.581	0.484
556.000	356.525	79.996	19.995	100.756	19.991	2.717	0.501
558.000	357.552	79.996	19.995	100.768	19.996	2.411	0.519
560.000	358.572	79.994	19.995	100.769	19.995	2.458	0.492
562.000	359.605	79.993	19.997	100.775	19.993	2.592	0.534
564.000	360.547	79.994	19.997	100.776	19.996	2.415	0.478
566.000	361.563	79.994	19.996	100.764	19.993	2.612	0.504
568.001	362.597	79.994	19.998	100.762	19.998	2.274	0.504
570.000	363.612	79.994	19.996	100.753	19.998	2.310	0.509
572.000	364.602	79.994	19.996	100.748	19.997	2.330	0.487
574.000	365.593	79.994	19.997	100.766	19.997	2.346	0.491
576.000	366.584	79.995	19.995	100.772	19.993	2.623	0.506
578.000	367.611	79.996	19.996	100.771	19.995	2.486	0.502
580.000	368.587	79.995	19.995	100.780	19.996	2.435	0.509
582.000	369.605	79.996	19.995	100.783	19.996	2.410	0.506
584.000	370.589	79.995	19.996	100.774	20.001	2.113	0.525
586.000	371.620	79.996	19.996	100.769	19.997	2.337	0.507
588.000	372.634	79.995	19.997	100.766	20.001	2.090	0.529
590.000	373.588	79.994	19.996	100.772	20.002	1.997	0.504
592.000	374.596	79.995	19.996	100.776	20.002	2.035	0.518
594.000	375.627	79.994	19.996	100.782	19.999	2.220	0.520
596.000	376.639	79.995	19.996	100.764	20.001	2.073	0.520
598.000	377.630	79.994	19.995	100.777	19.999	2.181	0.510
600.000	378.611	79.995	19.996	100.776	19.996	2.395	0.482
602.000	379.641	79.994	19.996	100.775	19.995	2.449	0.486
604.000	380.641	79.997	19.996	100.766	20.002	2.021	0.493
606.000	381.632	79.997	19.996	100.757	20.003	1.972	0.480
608.000	382.620	79.997	19.995	100.758	20.001	2.053	0.506
610.000	383.663	79.996	19.994	100.749	19.999	2.243	0.522
612.000	384.636	79.998	19.995	100.761	20.001	2.102	0.512
614.000	385.594	79.998	19.997	100.768	20.006	1.734	0.482
616.000	386.608	79.997	19.995	100.770	20.004	1.912	0.461
618.000	387.624	79.997	19.996	100.756	20.002	1.988	0.547
620.000	388.622	79.996	19.997	100.751	20.000	2.149	0.495
622.000	389.596	79.997	19.996	100.756	20.001	2.094	0.500
624.000	390.604	79.998	19.996	100.747	20.003	1.948	0.501
626.000	391.634	79.997	19.997	100.754	20.001	2.111	0.519
628.000	392.629	79.996	19.996	100.753	20.001	2.104	0.530
630.000	393.647	79.999	19.996	100.751	20.001	2.064	0.528
632.001	394.642	79.999	19.996	100.747	19.996	2.389	0.478
634.000	395.621	79.998	19.995	100.751	20.003	1.966	0.489
636.000	396.662	79.999	19.995	100.760	20.005	1.832	0.502
638.000	397.672	79.998	19.995	100.755	19.999	2.181	0.506
640.000	398.634	79.996	19.995	100.756	19.999	2.218	0.480
642.000	399.669	79.995	19.996	100.746	19.999	2.183	0.518
644.000	400.608	79.995	19.996	100.745	20.002	1.982	0.472
646.000	401.581	79.995	19.996	100.745	20.002	2.011	0.504
648.000	402.602	79.995	19.996	100.752	20.001	2.051	0.484
650.000	403.609	79.995	19.996	100.750	20.001	2.109	0.523
652.000	404.624	79.994	19.997	100.760	20.000	2.152	0.485
654.000	405.590	79.994	19.997	100.752	19.997	2.348	0.510
656.000	406.600	79.994	19.997	100.750	19.999	2.200	0.500
658.000	407.616	79.995	19.997	100.753	20.000	2.136	0.515
660.000	408.655	79.995	19.996	100.747	19.999	2.181	0.527
662.000	409.647	79.995	19.997	100.750	20.000	2.179	0.499
664.000	410.627	79.995	19.996	100.753	19.998	2.277	0.543
666.000	411.617	79.995	19.996	100.749	19.999	2.190	0.502
668.000	412.664	79.995	19.995	100.762	20.000	2.165	0.508
670.000	413.668	79.995	19.997	100.756	19.996	2.388	0.526
672.000	414.606	79.995	19.996	100.746	19.998	2.279	0.475
674.000	415.627	79.995	19.997	100.746	20.002	2.040	0.520
676.000	416.641	79.996	19.995	100.743	20.001	2.109	0.510
678.000	417.681	79.995	19.996	100.748	20.000	2.125	0.508
680.000	418.718	79.994	19.996	100.764	19.998	2.259	0.518
682.000	419.709	79.996	19.996	100.762	20.003	1.924	0.485
684.000	420.704	79.995	19.996	100.748	19.999	2.201	0.480
686.000	421.715	79.998	19.995	100.750	20.003	1.946	0.499
688.000	422.745	79.998	19.995	100.748	20.004	1.908	0.483
690.000	423.766	79.995	19.996	100.752	20.004	1.868	0.495
692.000	424.790	79.998	19.997	100.750	20.003	1.937	0.504
694.000	425.817	79.997	19.995	100.745	20.002	1.990	0.509
696.000	426.813	79.996	19.996	100.756	20.003	1.955	0.510
698.000	427.865	79.996	19.997	100.756	20.001	2.062	0.523
700.000	428.815	79.996	19.996	100.755	20.000	2.152	0.493
702.000	429.868	79.997	19.996	100.743	19.997	2.340	0.517
704.000	430.891	79.996	19.997	100.744	20.001	2.058	0.508
706.000	431.863	79.997	19.995	100.755	20.003	1.943	0.486
708.000	432.883	79.997	19.995	100.755	19.998	2.274	0.508
710.000	433.950	79.998	19.995	100.754	20.001	2.069	0.524
712.000	434.956	79.998	19.996	100.750	20.001	2.076	0.518
714.000	435.935	79.998	19.995	100.754	19.998	2.250	0.508
716.000	436.932	79.998	19.996	100.751	19.999	2.225	0.512
718.000	437.954	79.998	19.995	100.757	19.998	2.279	0.513
720.000	439.015	79.998	19.996	100.755	19.995	2.458	0.523
722.000	439.977	79.996	19.995	100.751	19.998	2.297	0.492
724.000	440.994	79.995	19.997	100.748	19.997	2.324	0.508
726.001	441.985	79.995	19.996	100.762	19.996	2.387	0.515
728.000	442.984	79.996	19.996	100.757	20.001	2.060	0.511
730.000	443.988	79.995	19.996	100.748	20.002	1.997	0.511
732.000	444.999	79.996	19.996	100.755	19.996	2.398	0.502
734.000	445.955	79.994	19.995	100.755	20.001	2.058	0.486
736.000	446.944	79.996	19.996	100.746	20.002	2.004	0.501
738.000	447.907	79.995	19.995	100.745	20.000	2.143	0.475
740.000	448.945	79.995	19.997	100.744	19.999	2.192	0.504
742.000	449.921	79.996	19.996	100.744	20.000	2.130	0.505
744.000	450.934	79.996	19.996	100.743	19.999	2.234	0.500
746.000	451.880	79.995	19.997	100.746	20.000	2.131	0.480
748.000	452.824	79.994	19.996	100.742	19.999	2.203	0.488
750.000	453.824	79.994	19.997	100.741	20.001	2.078	0.508
752.000	454.789	79.995	19.997	100.743	19.997	2.349	0.483
754.000	455.762	79.995	19.999	100.745	20.000	2.123	0.502
756.000	456.704	79.994	19.997	100.748	20.003	1.915	0.451
758.000	457.649	79.994	19.997	100.744	19.997	2.342	0.479
760.000	458.622	79.995	19.995	100.742	19.998	2.259	0.493
762.000	459.583	79.995	19.996	100.744	20.000	2.158	0.491
764.000	460.555	79.996	19.995	100.743	19.996	2.391	0.486
766.000	461.491	79.996	19.996	100.744	19.998	2.311	0.500
768.000	462.467	79.998	19.995	100.746	19.997	2.364	0.509
770.000	463.374	79.998	19.995	100.744	19.992	2.691	0.437
772.000	464.359	79.995	19.996	100.754	19.994	2.545	0.461
774.000	465.308	79.995	19.994	100.753	19.994	2.545	0.476
776.000	466.301	79.996	19.995	100.750	19.992	2.668	0.509
778.001	467.264	79.996	19.996	100.747	19.991	2.740	0.496
780.000	468.238	79.996	19.996	100.747	19.994	2.550	0.480
782.000	469.208	79.994	19.995	100.746	19.994	2.552	0.470
784.000	470.232	79.995	19.994	100.747	19.998	2.286	0.517
786.000	471.228	79.995	19.995	100.748	19.994	2.567	0.513
788.000	472.230	79.997	19.994	100.746	19.999	2.203	0.496
790.000	473.250	79.996	19.994	100.746	20.001	2.073	0.511
792.000	474.281	79.997	19.995	100.756	19.995	2.474	0.524
794.000	475.311	79.999	19.994	100.753	20.002	2.044	0.500
796.001	476.283	79.998	19.995	100.748	19.997	2.315	0.477
798.000	477.317	79.998	19.994	100.749	20.001	2.103	0.504
800.000	478.315	79.998	19.995	100.750	19.998	2.290	0.478
802.000	479.339	79.997	19.996	100.745	19.999	2.197	0.490
804.000	480.324	79.995	19.997	100.741	19.997	2.341	0.493
806.000	481.305	79.995	19.996	100.742	20.000	2.154	0.478
808.000	482.281	79.995	19.997	100.745	19.997	2.333	0.482
810.000	483.220	79.996	19.996	100.742	19.996	2.408	0.458
812.000	484.224	79.996	19.997	100.741	19.992	2.654	0.510
814.000	485.202	79.995	19.997	100.745	19.995	2.492	0.506
816.000	486.233	79.997	19.997	100.764	19.995	2.447	0.478
818.000	487.245	79.996	19.997	100.759	19.992	2.650	0.520
820.000	488.284	79.996	19.998	100.764	19.990	2.814	0.508
822.000	489.347	79.995	19.996	100.767	19.991	2.762	0.542
824.000	490.392	79.997	19.998	100.765	19.989	2.849	0.510
826.000	491.445	79.996	19.996	100.756	19.990	2.832	0.542
828.000	492.549	79.996	19.996	100.760	19.988	2.926	0.533
830.000	493.647	79.995	19.996	100.753	19.992	2.659	0.554
832.000	494.775	79.995	19.997	100.760	19.987	2.990	0.558
834.000	495.896	79.994	19.996	100.748	19.985	3.131	0.575
836.000	497.025	79.995	19.996	100.745	19.986	3.093	0.568
838.000	498.108	79.995	19.997	100.745	19.986	3.067	0.534
840.000	499.295	79.995	19.997	100.755	19.985	3.151	0.572
842.000	500.408	79.993	19.997	100.764	19.990	2.823	0.559
844.000	501.570	79.993	19.997	100.751	19.990	2.809	0.598
846.000	502.678	79.994	19.998	100.757	19.988	2.963	0.550
848.000	503.825	79.997	19.997	100.748	19.992	2.662	0.591
850.001	504.978	79.995	19.995	100.749	19.987	2.979	0.570
852.000	506.143	79.996	19.996	100.749	19.985	3.118	0.595
854.000	507.251	79.996	19.995	100.759	19.989	2.856	0.551
856.000	508.439	79.995	19.994	100.753	19.988	2.963	0.565
858.000	509.565	79.996	19.996	100.751	19.989	2.856	0.574
860.000	510.691	79.994	19.994	100.755	19.989	2.907	0.575
862.000	511.823	79.996	19.997	100.754	19.989	2.879	0.557
864.000	512.982	79.995	19.995	100.758	19.991	2.715	0.566
866.001	514.148	79.995	19.996	100.746	19.990	2.800	0.613
868.000	515.285	79.996	19.996	100.749	19.986	3.060	0.571
870.000	516.467	79.997	19.996	100.748	19.989	2.905	0.562
872.000	517.575	79.996	19.995	100.751	19.988	2.962	0.557
874.000	518.732	79.996	19.996	100.746	19.986	3.087	0.556
876.000	519.924	79.999	19.996	100.748	19.989	2.892	0.598
878.000	521.041	79.999	19.994	100.742	19.992	2.653	0.564
880.000	522.151	79.998	19.995	100.741	19.993	2.641	0.538
882.000	523.257	79.997	19.996	100.743	19.993	2.612	0.534
884.000	524.396	79.997	19.995	100.742	19.992	2.666	0.575
886.000	525.508	79.996	19.996	100.738	19.986	3.046	0.557
888.001	526.657	79.994	19.995	100.742	19.988	2.966	0.566
890.000	527.784	79.995	19.996	100.740	19.991	2.771	0.587
892.000	528.919	79.995	19.997	100.743	19.990	2.823	0.576
894.000	530.017	79.994	19.996	100.744	19.990	2.805	0.546
896.000	531.147	79.994	19.996	100.747	19.991	2.762	0.563
898.000	532.244	79.993	19.995	100.746	19.987	2.993	0.566
900.000	533.330	79.993	19.996	100.744	19.987	3.002	0.556
902.000	534.448	79.995	19.995	100.745	19.989	2.887	0.561
904.000	535.556	79.995	19.996	100.744	19.989	2.883	0.547
906.000	536.652	79.995	19.996	100.745	19.990	2.829	0.548
908.000	537.733	79.994	19.996	100.744	19.987	3.040	0.536
910.000	538.841	79.996	19.996	100.744	19.991	2.753	0.559
912.000	539.877	79.995	19.996	100.745	19.991	2.715	0.563
914.000	540.930	79.994	19.996	100.744	19.986	3.067	0.535
916.000	542.016	79.995	19.996	100.745	19.991	2.778	0.538
918.000	543.068	79.995	19.996	100.745	19.987	3.010	0.539
920.000	544.121	79.994	19.997	100.745	19.990	2.796	0.519
922.000	545.210	79.993	19.995	100.745	19.988	2.955	0.531
924.000	546.257	79.994	19.997	100.746	19.997	2.349	0.518
926.000	547.318	79.996	19.996	100.748	19.987	3.022	0.515
928.000	548.385	79.997	19.996	100.747	19.989	2.859	0.522
930.000	549.443	79.996	19.996	100.744	19.997	2.328	0.527
932.001	550.521	79.993	19.995	100.741	19.991	2.724	0.540
934.000	551.533	79.997	19.997	100.737	19.989	2.910	0.509
936.000	552.545	79.996	19.996	100.728	19.989	2.875	0.475
938.000	553.625	79.997	19.997	100.737	19.992	2.655	0.522
940.000	554.677	79.996	19.996	100.740	19.992	2.709	0.517
942.000	555.725	79.996	19.996	100.741	19.992	2.698	0.529
944.000	556.771	79.998	19.997	100.740	19.993	2.619	0.516
946.000	557.797	79.995	19.996	100.733	19.987	2.996	0.529
948.000	558.801	79.996	19.996	100.728	19.990	2.806	0.506
950.000	559.848	79.996	19.996	100.731	19.989	2.903	0.501
952.000	560.884	79.997	19.995	100.726	19.991	2.733	0.534
954.000	561.922	79.997	19.996	100.739	19.992	2.689	0.544
956.000	562.952	79.997	19.995	100.737	19.985	3.112	0.505
958.000	563.960	79.998	19.995	100.727	19.994	2.514	0.534
960.000	564.981	79.999	19.995	100.730	19.989	2.867	0.473
962.000	565.973	79.998	19.996	100.736	19.989	2.861	0.481
964.000	567.034	79.996	19.996	100.741	19.994	2.570	0.543
966.000	568.021	79.996	19.996	100.741	19.992	2.680	0.465
968.001	569.034	79.995	19.997	100.741	19.988	2.937	0.521
970.000	570.084	79.995	19.995	100.744	19.991	2.756	0.543
972.000	571.119	79.995	19.996	100.746	19.992	2.686	0.546
974.000	572.147	79.995	19.997	100.746	19.991	2.727	0.494
976.000	573.179	79.995	19.997	100.743	19.992	2.671	0.520
978.000	574.213	79.994	19.996	100.746	19.994	2.530	0.520
980.000	575.235	79.994	19.996	100.743	19.990	2.780	0.500
982.000	576.263	79.996	19.997	100.745	19.991	2.745	0.510
984.000	577.291	79.995	19.997	100.740	19.989	2.899	0.449
986.000	578.308	79.996	19.996	100.739	19.989	2.888	0.519
988.000	579.376	79.995	19.994	100.747	19.989	2.890	0.530
990.000	580.376	79.994	19.995	100.747	19.991	2.744	0.495
992.001	581.384	79.996	19.997	100.747	19.991	2.713	0.478
994.000	582.447	79.995	19.998	100.746	19.990	2.843	0.550
996.000	583.408	79.996	19.996	100.744	19.990	2.823	0.481
998.000	584.399	79.994	19.998	100.740	19.988	2.964	0.468
1000.000	585.441	79.994	19.997	100.742	19.990	2.820	0.530
1002.000	586.468	79.996	19.997	100.740	19.989	2.847	0.548
1004.000	587.453	79.995	19.997	100.741	19.991	2.720	0.499
1006.000	588.530	79.994	19.996	100.738	19.993	2.612	0.530
1008.000	589.521	79.995	19.998	100.742	19.992	2.659	0.499
1010.000	590.528	79.993	19.996	100.742	19.992	2.682	0.537
1012.000	591.553	79.997	19.997	100.743	19.991	2.776	0.491
1014.000	592.529	79.995	19.996	100.740	19.988	2.959	0.496
1016.000	593.565	79.998	19.995	100.744	19.993	2.617	0.496
1018.000	594.617	79.997	19.996	100.741	19.987	3.042	0.524
1020.000	595.656	79.997	19.997	100.741	19.989	2.879	0.522
1022.000	596.644	79.997	19.996	100.740	19.990	2.791	0.509
1024.000	597.616	79.996	19.996	100.741	19.988	2.943	0.471
1026.000	598.642	79.995	19.996	100.741	19.993	2.642	0.506
1028.000	599.678	79.993	19.997	100.741	19.984	3.179	0.513
1030.000	600.648	79.994	19.998	100.741	19.989	2.872	0.498
1032.000	601.718	79.996	19.997	100.741	19.986	3.105	0.506
1034.000	602.757	79.994	19.996	100.744	19.993	2.646	0.522
1036.000	603.717	79.994	19.995	100.741	19.992	2.648	0.490
1038.000	604.748	79.997	19.996	100.736	19.990	2.793	0.485
1040.000	605.772	79.997	19.995	100.742	19.991	2.725	0.530
1042.000	606.788	79.998	19.994	100.746	19.988	2.939	0.505
1044.000	607.806	79.999	19.996	100.743	19.996	2.386	0.509
1046.000	608.808	79.997	19.994	100.745	19.992	2.664	0.528
1048.000	609.861	79.998	19.995	100.745	19.989	2.906	0.530
1050.000	610.854	79.995	19.994	100.744	19.984	3.212	0.516
1052.000	611.875	79.993	19.995	100.741	19.989	2.874	0.489
1054.000	612.895	79.993	19.996	100.747	19.994	2.577	0.528
1056.000	613.941	79.994	19.996	100.746	19.992	2.669	0.528
1058.000	614.957	79.993	19.997	100.744	19.987	2.982	0.509
1060.000	615.992	79.993	19.996	100.745	19.988	2.953	0.519
1062.000	616.978	79.992	19.997	100.743	19.991	2.749	0.522
1064.000	617.995	79.997	19.996	100.744	19.984	3.230	0.495
1066.001	619.012	79.993	19.996	100.743	19.983	3.306	0.524
1068.001	620.068	79.997	19.998	100.740	19.986	3.096	0.509
1070.000	621.064	79.995	19.996	100.741	19.989	2.850	0.492
1072.000	622.072	79.998	19.996	100.742	19.987	3.020	0.508
1074.000	623.096	79.997	19.996	100.741	19.987	3.004	0.507
1076.000	624.120	79.995	19.996	100.743	19.989	2.870	0.508
1078.001	625.075	79.994	19.995	100.743	19.987	3.040	0.486
1080.000	626.081	79.997	19.996	100.743	19.985	3.169	0.486
1082.000	627.089	79.993	19.997	100.743	19.990	2.798	0.500
1084.000	628.113	79.996	19.996	100.741	19.989	2.859	0.511
1086.001	629.116	79.996	19.998	100.741	19.984	3.194	0.509
1088.001	630.144	79.994	19.997	100.743	19.985	3.125	0.529
1090.001	631.141	79.995	19.996	100.739	19.983	3.262	0.530
1092.000	632.148	79.996	19.996	100.743	19.990	2.834	0.477
1094.000	633.169	79.997	19.996	100.742	19.984	3.205	0.515
1096.000	634.165	79.998	19.996	100.742	19.986	3.111	0.513
1098.000	635.170	79.999	19.996	100.746	19.983	3.248	0.505
1100.000	636.182	79.996	19.995	100.738	19.986	3.062	0.497
1102.000	637.175	79.997	19.996	100.741	19.986	3.082	0.490
1104.000	638.203	79.995	19.995	100.745	19.993	2.617	0.549
1106.000	639.164	79.998	19.997	100.740	19.986	3.048	0.538
1108.001	640.181	79.995	19.996	100.744	19.987	3.026	0.512
1110.000	641.190	79.996	19.996	100.744	19.988	2.939	0.537
1112.000	642.183	79.995	19.994	100.745	19.991	2.751	0.500
1114.000	643.189	79.997	19.997	100.745	19.987	3.044	0.511
1116.000	644.179	79.994	19.997	100.745	19.983	3.277	0.489
1118.001	645.200	79.994	19.996	100.747	19.987	2.991	0.501
1120.000	646.219	79.996	19.996	100.747	19.988	2.935	0.497
1122.000	647.257	79.997	19.996	100.745	19.989	2.854	0.529
1124.001	648.221	79.997	19.994	100.743	19.989	2.863	0.493
1126.000	649.275	80.000	19.998	100.744	19.984	3.192	0.507
1128.000	650.265	79.997	19.995	100.741	19.982	3.362	0.482
1130.001	651.295	79.994	19.995	100.742	19.985	3.152	0.540
1132.000	652.319	79.994	19.996	100.749	19.987	3.011	0.499
1134.000	653.342	79.996	19.996	100.742	19.995	2.470	0.521
1136.000	654.379	79.996	19.996	100.742	19.992	2.700	0.524
1138.000	655.390	79.996	19.997	100.749	19.986	3.093	0.488
1140.001	656.429	79.995	19.995	100.748	19.990	2.811	0.515
1142.000	657.431	79.996	19.996	100.742	19.987	3.028	0.508
1144.001	658.458	79.995	19.996	100.742	19.984	3.223	0.544
1146.001	659.465	79.996	19.995	100.743	19.983	3.279	0.523
1148.000	660.491	79.997	19.997	100.753	19.987	2.997	0.543
1150.000	661.512	79.994	19.995	100.753	19.989	2.867	0.524
1152.000	662.492	79.996	19.995	100.758	19.990	2.827	0.492
1154.000	663.460	79.993	19.997	100.749	19.985	3.145	0.473
1156.000	664.487	79.997	19.997	100.743	19.984	3.189	0.503
1158.000	665.498	79.995	19.996	100.745	19.982	3.377	0.526
1160.001	666.547	79.995	19.995	100.743	19.988	2.943	0.497
1162.000	667.554	79.996	19.995	100.746	19.980	3.487	0.534
1164.000	668.577	79.995	19.995	100.746	19.984	3.201	0.496
1166.000	669.630	79.996	19.997	100.749	19.989	2.869	0.549
1168.000	670.603	79.995	19.995	100.753	19.986	3.053	0.532
1170.000	671.598	79.994	19.995	100.753	19.984	3.230	0.489
1172.000	672.616	79.997	19.996	100.748	19.986	3.078	0.501
1174.000	673.618	79.995	19.995	100.751	19.986	3.066	0.513
1176.000	674.655	79.995	19.996	100.747	19.988	2.937	0.498
1178.000	675.695	79.997	19.997	100.751	19.985	3.178	0.504
1180.000	676.695	79.996	19.996	100.752	19.989	2.897	0.506
1182.000	677.745	79.995	19.996	100.746	19.985	3.124	0.536
1184.001	678.715	79.995	19.995	100.753	19.989	2.899	0.487
1186.000	679.706	79.996	19.996	100.748	19.985	3.163	0.486
1188.000	680.707	79.997	19.997	100.751	19.986	3.104	0.493
1190.000	681.775	79.997	19.995	100.746	19.986	3.069	0.550
1192.000	682.778	79.995	19.996	100.743	19.989	2.865	0.522
1194.001	683.773	79.998	19.996	100.747	19.986	3.102	0.546
1196.000	684.744	79.995	19.996	100.749	19.987	2.986	0.485
1198.000	685.776	79.999	19.997	100.748	19.988	2.975	0.486
1200.000	686.775	79.998	19.997	100.751	19.984	3.232	0.489
1202.000	687.760	79.998	19.995	100.741	19.986	3.069	0.467
1204.001	688.777	79.998	19.997	100.741	19.984	3.188	0.503
1206.000	689.790	79.996	19.997	100.740	19.986	3.051	0.500
1208.000	690.755	79.996	19.998	100.741	19.981	3.431	0.488
1210.000	691.732	79.995	19.997	100.744	19.985	3.170	0.480
1212.000	692.789	79.994	19.998	100.744	19.984	3.199	0.530
1214.000	693.796	79.995	19.998	100.741	19.981	3.406	0.489
1216.000	694.827	79.994	19.997	100.743	19.982	3.337	0.528
1218.001	695.842	79.995	19.996	100.741	19.981	3.408	0.504
1220.000	696.875	79.996	19.996	100.742	19.980	3.451	0.533
1222.000	697.849	79.995	19.995	100.742	19.982	3.350	0.520
1224.001	698.841	79.997	19.996	100.747	19.984	3.187	0.515
1226.000	699.831	79.997	19.995	100.743	19.983	3.290	0.479
1228.001	700.829	79.996	19.996	100.746	19.984	3.183	0.468
1230.000	701.865	79.996	19.997	100.748	19.982	3.351	0.500
1232.001	702.879	79.996	19.995	100.749	19.982	3.344	0.492
1234.000	703.892	79.994	19.996	100.742	19.989	2.883	0.527
1236.000	704.896	79.996	19.995	100.746	19.986	3.080	0.482
1238.000	705.911	79.995	19.995	100.746	19.985	3.162	0.509
1240.000	706.958	79.994	19.994	100.751	19.988	2.917	0.509
1242.000	707.981	79.994	19.996	100.751	19.982	3.359	0.516
1244.001	708.986	79.994	19.996	100.744	19.979	3.532	0.492
1246.000	710.018	79.993	19.996	100.748	19.984	3.223	0.517
1248.001	711.023	79.994	19.994	100.746	19.987	3.011	0.504
1250.000	712.027	79.996	19.997	100.747	19.986	3.087	0.498
1252.000	713.041	79.996	19.995	100.747	19.988	2.971	0.496
1254.000	714.069	79.996	19.996	100.745	19.989	2.861	0.524
1256.000	715.080	79.996	19.996	100.740	19.990	2.785	0.508
1258.000	716.096	79.997	19.996	100.740	19.987	3.015	0.529
1260.001	717.098	79.997	19.995	100.742	19.983	3.299	0.508
1262.000	718.117	79.995	19.995	100.739	19.981	3.411	0.501
1264.000	719.076	79.998	19.997	100.739	19.985	3.170	0.459
1266.000	720.131	79.996	19.995	100.743	19.986	3.058	0.520
1268.001	721.119	79.997	19.996	100.743	19.983	3.272	0.518
1270.000	722.116	79.997	19.997	100.743	19.985	3.148	0.495
1272.000	723.088	79.998	19.998	100.736	19.986	3.058	0.477
1274.000	724.075	79.998	19.995	100.741	19.978	3.591	0.479
1276.000	725.067	79.998	19.996	100.738	19.983	3.281	0.480
1278.000	726.102	79.998	19.996	100.738	19.984	3.232	0.508
1280.000	727.096	79.999	19.997	100.736	19.985	3.149	0.542
1282.000	728.096	80.000	19.995	100.729	19.980	3.478	0.494
1284.000	729.091	79.999	19.996	100.732	19.978	3.641	0.508
1286.000	730.080	79.997	19.997	100.735	19.977	3.659	0.519
1288.000	731.054	79.997	19.995	100.738	19.981	3.425	0.476
1290.000	732.055	79.996	19.996	100.738	19.981	3.384	0.492
1292.001	733.113	79.996	19.995	100.742	19.985	3.152	0.505
1294.000	734.123	79.995	19.996	100.740	19.980	3.487	0.501
1296.000	735.128	79.995	19.996	100.743	19.980	3.454	0.470
1298.000	736.153	79.996	19.996	100.742	19.980	3.497	0.506
1300.001	737.156	79.994	19.996	100.740	19.979	3.510	0.503
1302.000	738.184	79.995	19.997	100.741	19.980	3.506	0.502
1304.001	739.218	79.994	19.997	100.743	19.982	3.347	0.528
1306.001	740.191	79.994	19.997	100.734	19.983	3.274	0.497
1308.000	741.213	79.995	19.997	100.736	19.980	3.449	0.497
1310.000	742.187	79.996	19.997	100.734	19.980	3.487	0.487
1312.000	743.219	79.995	19.995	100.738	19.980	3.459	0.536
1312.500	743.501	79.995	19.995	100.734	19.979	3.521	0.527