File: 01_Data/Polyester_Felt/STA/N2/10K_min/Polyester_Felt_STA_N2_10KData_210721_R3.csv
##Temp./Â°C,Time/min,Mass loss(subtr.2)/mg,DSC(subtr.2)/(mW/mg),Sensit./(uV/mW)
49.213,10.01,-0.00614,-0.05171091,0.61826
49.813,11.4055,-0.008880624,-0.03903378,0.61858
50.413,11.7441,-0.007203554,-0.02998519,0.61889
51.013,11.98554,-0.009536773,-0.02260844,0.61921
51.613,12.1875,-0.008742411,-0.01977296,0.61953
52.213,12.36239,-0.01076894,-0.01469437,0.61984
52.813,12.5204,-0.0005829543,-0.009933484,0.62015
53.413,12.66412,-0.01144803,-0.0042664,0.62047
54.013,12.80039,-0.01052724,0.0008936232,0.62078
54.613,12.9284,-0.01064236,0.0005891867,0.62109
55.213,13.05005,-0.01074923,0.004097787,0.6214
55.813,13.16726,-0.001986931,0.006353261,0.6217
56.413,13.2808,-0.01254333,0.01072708,0.62201
57.013,13.39096,-0.01259135,0.01293319,0.62231
57.613,13.49881,-0.01394098,0.0186041,0.62262
58.213,13.60375,-0.01256304,0.01774625,0.62292
58.813,13.70571,-0.01124096,0.01876597,0.62322
59.413,13.80529,-0.01261647,0.02126334,0.62352
60.013,13.90272,-0.01320958,0.02005306,0.62382
60.613,13.99911,-0.01256922,0.02392446,0.62411
61.213,14.09404,-0.01389125,0.02497017,0.62441
61.813,14.18721,-0.0137784,0.02649822,0.6247
62.413,14.27865,-0.01270779,0.02915169,0.625
63.013,14.36899,-0.01270114,0.03188194,0.62529
63.613,14.4585,-0.01291143,0.03518459,0.62558
64.213,14.54615,-0.01422515,0.03616251,0.62587
64.813,14.6328,-0.014302,0.04007895,0.62616
65.413,14.71814,-0.01293517,0.03906409,0.62644
66.013,14.8024,-0.01438392,0.04272677,0.62673
66.613,14.8862,-0.01570459,0.04324812,0.62701
67.213,14.9691,-0.01440224,0.04489364,0.6273
67.813,15.0514,-0.01436642,0.04385185,0.62758
68.413,15.1326,-0.01436802,0.04796388,0.62786
69.013,15.2125,-0.01480424,0.04896175,0.62814
69.613,15.29144,-0.01568006,0.04901854,0.62842
70.213,15.37009,-0.01700035,0.04795308,0.62869
70.813,15.4483,-0.0170027,0.05291308,0.62897
71.413,15.52605,-0.01567379,0.05324489,0.62924
72.013,15.6031,-0.01609408,0.05191898,0.62952
72.613,15.67905,-0.0169898,0.05192807,0.62979
73.213,15.75395,-0.01700524,0.05248597,0.63006
73.813,15.82823,-0.01557026,0.05145281,0.63033
74.413,15.90199,-0.01689309,0.05341683,0.63059
75.013,15.97574,-0.01678712,0.05103204,0.63086
75.613,16.0492,-0.01692897,0.04868338,0.63113
76.213,16.1221,-0.01689066,0.04683933,0.63139
76.813,16.19414,-0.01556289,0.04562289,0.63165
77.413,16.26557,-0.01693604,0.04881175,0.63192
78.013,16.33644,-0.01699588,0.04474986,0.63218
78.613,16.40703,-0.01684152,0.04631619,0.63244
79.213,16.47711,-0.01821377,0.04713672,0.63269
79.813,16.54694,-0.01688794,0.04652812,0.63295
80.413,16.61655,-0.01779206,0.04569728,0.63321
81.013,16.68592,-0.01756952,0.04582736,0.63346
81.613,16.75527,-0.01699187,0.04450468,0.63371
82.213,16.82405,-0.01767689,0.04307264,0.63396
82.813,16.89232,-0.01746839,0.04218802,0.63421
83.413,16.95968,-0.01730435,0.04123498,0.63446
84.013,17.02692,-0.01831689,0.0393248,0.63471
84.613,17.09392,-0.01700029,0.03946121,0.63496
85.213,17.16082,-0.01831416,0.03836844,0.6352
85.813,17.2272,-0.0183116,0.03791803,0.63545
86.413,17.29331,-0.0183211,0.03901952,0.63569
87.013,17.3592,-0.0169967,0.03775711,0.63593
87.613,17.4247,-0.01835558,0.03926251,0.63617
88.213,17.48978,-0.01700004,0.03570249,0.63641
88.813,17.55476,-0.01699841,0.03797499,0.63665
89.413,17.6195,-0.01829872,0.03795547,0.63688
90.013,17.6838,-0.01701856,0.0388718,0.63712
90.613,17.74792,-0.01841747,0.03771516,0.63735
91.213,17.81195,-0.019743,0.03667991,0.63758
91.813,17.87592,-0.0197405,0.03721219,0.63782
92.413,17.93952,-0.01843184,0.03552289,0.63805
93.013,18.00275,-0.01972602,0.03856622,0.63827
93.613,18.06566,-0.01883221,0.03765812,0.6385
94.213,18.12848,-0.0197293,0.03541863,0.63873
94.813,18.19121,-0.02045594,0.03650039,0.63895
95.413,18.2536,-0.01973966,0.03618839,0.63918
96.013,18.31569,-0.01974,0.03579734,0.6394
96.613,18.37725,-0.01974,0.03680168,0.63962
97.213,18.4392,-0.01973995,0.03767859,0.63984
97.813,18.50094,-0.01843215,0.03544292,0.64006
98.413,18.5626,-0.01900768,0.03409805,0.64028
99.013,18.6238,-0.01973649,0.03814362,0.64049
99.613,18.68495,-0.02072578,0.0346057,0.64071
100.213,18.74604,-0.02073,0.03824772,0.64092
100.813,18.807,-0.02073661,0.03601994,0.64113
101.413,18.86759,-0.0194093,0.03868171,0.64134
102.013,18.92813,-0.01837223,0.03655958,0.64155
102.613,18.9888,-0.01973964,0.03982889,0.64176
103.213,19.0494,-0.02069105,0.03950582,0.64197
103.813,19.10993,-0.02106038,0.03903583,0.64218
104.413,19.17033,-0.02104949,0.03931209,0.64238
105.013,19.23026,-0.01973997,0.0395765,0.64258
105.613,19.29008,-0.02106451,0.03986152,0.64279
106.213,19.34996,-0.02106,0.04124741,0.64299
106.813,19.4097,-0.02105997,0.03928974,0.64319
107.413,19.46912,-0.01998774,0.04089289,0.64339
108.013,19.52862,-0.02127781,0.04348371,0.64358
108.613,19.58811,-0.02259496,0.04539707,0.64378
109.213,19.64754,-0.0226,0.04517541,0.64397
109.813,19.7071,-0.02259949,0.04813784,0.64417
110.413,19.7664,-0.02173829,0.04693843,0.64436
111.013,19.82574,-0.02183411,0.04851795,0.64455
111.613,19.885,-0.02127178,0.05125158,0.64474
112.213,19.9439,-0.02127007,0.05081469,0.64493
112.813,20.00265,-0.02140713,0.05070351,0.64511
113.413,20.06131,-0.02391215,0.05199535,0.6453
114.013,20.12,-0.02258999,0.05290693,0.64548
114.613,20.1787,-0.02259993,0.05507404,0.64567
115.213,20.2373,-0.02260003,0.0540506,0.64585
115.813,20.29561,-0.02268984,0.0557696,0.64603
116.413,20.35374,-0.0225883,0.05363389,0.64621
117.013,20.41217,-0.0227555,0.05509923,0.64639
117.613,20.47034,-0.02391553,0.05791538,0.64657
118.213,20.52883,-0.02258989,0.0590823,0.64674
118.813,20.5869,-0.02258999,0.05980632,0.64692
119.413,20.6448,-0.0225326,0.06162673,0.64709
120.013,20.7029,-0.02259629,0.06016447,0.64726
120.613,20.76074,-0.02259,0.0623726,0.64743
121.213,20.8186,-0.02258998,0.06480351,0.6476
121.813,20.87621,-0.02249374,0.06350939,0.64777
122.413,20.93379,-0.02390986,0.06466303,0.64794
123.013,20.99132,-0.02390392,0.06610244,0.6481
123.613,21.04886,-0.02254813,0.06648563,0.64827
124.213,21.1063,-0.02390993,0.06753511,0.64843
124.813,21.1634,-0.02323163,0.06822024,0.64859
125.413,21.2208,-0.0225926,0.0670296,0.64875
126.013,21.27767,-0.02325235,0.07286859,0.64891
126.613,21.3348,-0.02318548,0.06912197,0.64907
127.213,21.39179,-0.02391028,0.07253732,0.64923
127.813,21.44876,-0.02390984,0.07106138,0.64938
128.413,21.50572,-0.02492047,0.07243253,0.64954
129.013,21.56255,-0.02390855,0.07410922,0.64969
129.613,21.6193,-0.02259326,0.07394311,0.64984
130.213,21.67587,-0.02410688,0.07500083,0.64999
130.813,21.73237,-0.02522991,0.07985094,0.65014
131.413,21.7887,-0.02523,0.07691608,0.65029
132.013,21.84509,-0.02521206,0.07919557,0.65044
132.613,21.90148,-0.02417893,0.07864994,0.65058
133.213,21.95777,-0.02390936,0.07728442,0.65073
133.813,22.01399,-0.02358967,0.0786626,0.65087
134.413,22.06991,-0.02358,0.07980491,0.65101
135.013,22.12598,-0.02358,0.0804212,0.65115
135.613,22.18198,-0.02358039,0.08063592,0.65129
136.213,22.23806,-0.02481369,0.08258218,0.65143
136.813,22.29411,-0.02486718,0.08296486,0.65157
137.413,22.34989,-0.02390987,0.08249284,0.6517
138.013,22.40569,-0.02390987,0.08064585,0.65184
138.613,22.4615,-0.02380651,0.08273951,0.65197
139.213,22.51706,-0.02457445,0.08395948,0.6521
139.813,22.5726,-0.02520131,0.08590097,0.65223
140.413,22.6281,-0.02523399,0.08382432,0.65236
141.013,22.6835,-0.02457007,0.08611266,0.65249
141.613,22.73886,-0.02324909,0.09065539,0.65262
142.213,22.7938,-0.02461667,0.08484424,0.65274
142.813,22.84903,-0.02589121,0.08729887,0.65287
143.413,22.90416,-0.02504861,0.08753674,0.65299
144.013,22.95939,-0.02648901,0.08736298,0.65311
144.613,23.01458,-0.02719939,0.0864845,0.65323
145.213,23.06938,-0.02589877,0.08618528,0.65335
145.813,23.12435,-0.02719854,0.08742835,0.65347
146.413,23.17919,-0.02657803,0.08909228,0.65359
147.013,23.2342,-0.0265401,0.08880529,0.6537
147.613,23.2892,-0.02654,0.0913745,0.65382
148.213,23.3439,-0.02654,0.0909389,0.65393
148.813,23.39858,-0.02654,0.09203531,0.65404
149.413,23.45329,-0.02654003,0.09117396,0.65415
150.013,23.50785,-0.02650992,0.09079946,0.65426
150.613,23.56261,-0.02691113,0.09147495,0.65437
151.213,23.61739,-0.02718568,0.09213394,0.65448
151.813,23.672,-0.02588959,0.09437446,0.65459
152.413,23.7267,-0.02588951,0.09555956,0.65469
153.013,23.78066,-0.0269315,0.09627658,0.65479
153.613,23.83507,-0.02719531,0.09525429,0.6549
154.213,23.88939,-0.02757608,0.09652672,0.655
154.813,23.9437,-0.0265395,0.09711166,0.6551
155.413,23.9985,-0.02654,0.09551266,0.6552
156.013,24.05313,-0.02654,0.09492742,0.65529
156.613,24.10762,-0.02654166,0.09592481,0.65539
157.213,24.16226,-0.0278661,0.0952783,0.65548
157.813,24.21676,-0.02785999,0.0925505,0.65558
158.413,24.27103,-0.02786,0.09493605,0.65567
159.013,24.3254,-0.02786,0.09427432,0.65576
159.613,24.37979,-0.02786,0.09640051,0.65585
160.213,24.43405,-0.02860445,0.09617718,0.65594
160.813,24.48834,-0.02917016,0.09940994,0.65603
161.413,24.54274,-0.02918404,0.09558633,0.65612
162.013,24.59689,-0.02850885,0.09770579,0.6562
162.613,24.65126,-0.02852206,0.09797699,0.65629
163.213,24.70561,-0.02721054,0.09990004,0.65637
163.813,24.75974,-0.02851941,0.10185,0.65645
164.413,24.8141,-0.02851997,0.10101,0.65653
165.013,24.8684,-0.02853763,0.10023,0.65661
165.613,24.92259,-0.02914589,0.10153,0.65669
166.213,24.97704,-0.02788251,0.10075,0.65676
166.813,25.03136,-0.02918456,0.10044,0.65684
167.413,25.0857,-0.02927647,0.10039,0.65691
168.013,25.14002,-0.02786,0.10147,0.65699
168.613,25.1939,-0.0278764,0.10253,0.65706
169.213,25.2476,-0.02983027,0.10141,0.65713
169.813,25.30174,-0.0301963,0.10198,0.6572
170.413,25.356,-0.03016789,0.10286,0.65727
171.013,25.41037,-0.02918586,0.10118,0.65734
171.613,25.4647,-0.02917996,0.10219,0.6574
172.213,25.5186,-0.02918,0.10058,0.65747
172.813,25.57281,-0.02918,0.09871649,0.65753
173.413,25.62715,-0.02917958,0.10256,0.65759
174.013,25.68157,-0.03047203,0.10238,0.65765
174.613,25.7359,-0.03019531,0.105,0.65771
175.213,25.7895,-0.02885043,0.10358,0.65777
175.813,25.8436,-0.03021308,0.10222,0.65783
176.413,25.89752,-0.03011462,0.10538,0.65789
177.013,25.9515,-0.03269596,0.1063,0.65794
177.613,26.00584,-0.03180597,0.1121,0.658
178.213,26.05954,-0.03281377,0.11657,0.65805
178.813,26.11339,-0.03146717,0.11128,0.6581
179.413,26.1673,-0.03081726,0.11308,0.65815
180.013,26.22125,-0.03082,0.11516,0.6582
180.613,26.2752,-0.03082,0.11001,0.65825
181.213,26.32905,-0.03082087,0.11134,0.6583
181.813,26.3827,-0.03213656,0.11303,0.65834
182.413,26.43637,-0.03212999,0.11012,0.65839
183.013,26.49012,-0.03212999,0.11007,0.65843
183.613,26.5436,-0.03230357,0.1093,0.65847
184.213,26.5973,-0.03360415,0.1087,0.65851
184.813,26.65093,-0.03477032,0.10541,0.65855
185.413,26.70465,-0.03335604,0.10394,0.65859
186.013,26.7585,-0.03224529,0.106,0.65863
186.613,26.8123,-0.03215913,0.10829,0.65867
187.213,26.86614,-0.03212323,0.10745,0.6587
187.813,26.9198,-0.03212656,0.10838,0.65874
188.413,26.97348,-0.03278031,0.11073,0.65877
189.013,27.02699,-0.03345034,0.11283,0.6588
189.613,27.0805,-0.03345,0.11252,0.65883
190.213,27.134,-0.03344619,0.11361,0.65886
190.813,27.1875,-0.03364472,0.11552,0.65889
191.413,27.24107,-0.03279976,0.11388,0.65892
192.013,27.2947,-0.0342028,0.11193,0.65894
192.613,27.3481,-0.03410998,0.11295,0.65897
193.213,27.4016,-0.03413999,0.11242,0.65899
193.813,27.45498,-0.03649193,0.11302,0.65901
194.413,27.50818,-0.03641553,0.1116,0.65903
195.013,27.56158,-0.03510031,0.11478,0.65906
195.613,27.61502,-0.03669914,0.11445,0.65907
196.213,27.66853,-0.03537442,0.11209,0.65909
196.813,27.72196,-0.03586615,0.11375,0.65911
197.413,27.7754,-0.03564224,0.11451,0.65912
198.013,27.8287,-0.03564001,0.11577,0.65914
198.613,27.88195,-0.0356522,0.11693,0.65915
199.213,27.93536,-0.03695472,0.1132,0.65916
199.813,27.98873,-0.03829172,0.11378,0.65918
200.413,28.0421,-0.03691789,0.11714,0.65919
201.013,28.09552,-0.03687792,0.11728,0.65919
201.613,28.14893,-0.03565036,0.11887,0.6592
202.213,28.2023,-0.03565,0.11688,0.65921
202.813,28.256,-0.03564311,0.11745,0.65921
203.413,28.3094,-0.03696991,0.11402,0.65922
204.013,28.36297,-0.03730247,0.11448,0.65922
204.613,28.4164,-0.03729968,0.11565,0.65922
205.213,28.46975,-0.0379342,0.1149,0.65922
205.813,28.52325,-0.03828009,0.11416,0.65922
206.413,28.57668,-0.0382764,0.11618,0.65922
207.013,28.63022,-0.03958827,0.11573,0.65922
207.613,28.68352,-0.03959318,0.11506,0.65922
208.213,28.7369,-0.03858951,0.11698,0.65921
208.813,28.79022,-0.03927875,0.11434,0.65921
209.413,28.84362,-0.03992037,0.11422,0.6592
210.013,28.897,-0.03981866,0.11559,0.65919
210.613,28.95052,-0.03992481,0.11601,0.65918
211.213,29.00402,-0.03991997,0.1158,0.65917
211.813,29.0574,-0.03992012,0.11798,0.65916
212.413,29.1108,-0.03996906,0.1161,0.65915
213.013,29.1638,-0.04123987,0.11772,0.65913
213.613,29.21722,-0.04124051,0.11987,0.65912
214.213,29.2704,-0.04022655,0.1188,0.6591
214.813,29.32334,-0.04025522,0.11816,0.65909
215.413,29.377,-0.03893397,0.11921,0.65907
216.013,29.43041,-0.04156795,0.1194,0.65905
216.613,29.48408,-0.04288728,0.12172,0.65903
217.213,29.53787,-0.04288578,0.11748,0.65901
217.813,29.59127,-0.04157115,0.11653,0.65898
218.413,29.6445,-0.04157,0.11693,0.65896
219.013,29.6977,-0.04157088,0.1187,0.65894
219.613,29.7512,-0.04290914,0.11742,0.65891
220.213,29.8047,-0.04287993,0.12093,0.65888
220.813,29.85837,-0.04288,0.11954,0.65886
221.413,29.91153,-0.04287796,0.12197,0.65883
222.013,29.96485,-0.04420656,0.1206,0.6588
222.613,30.0183,-0.04420535,0.12024,0.65877
223.213,30.07163,-0.04289128,0.12157,0.65873
223.813,30.12567,-0.04289,0.12028,0.6587
224.413,30.17935,-0.04289088,0.1225,0.65867
225.013,30.23295,-0.04255754,0.12243,0.65863
225.613,30.28639,-0.04255966,0.12178,0.65859
226.213,30.33962,-0.04319145,0.12381,0.65856
226.813,30.39292,-0.04420723,0.12613,0.65852
227.413,30.44595,-0.04419998,0.12435,0.65848
228.013,30.49928,-0.04420357,0.12768,0.65844
228.613,30.5528,-0.04452935,0.12659,0.65839
229.213,30.6062,-0.04452997,0.12914,0.65835
229.813,30.6598,-0.04453202,0.13242,0.65831
230.413,30.7133,-0.04503335,0.13457,0.65826
231.013,30.7669,-0.04387065,0.13558,0.65822
231.613,30.82047,-0.04387202,0.13716,0.65817
232.213,30.87414,-0.04529485,0.13852,0.65812
232.813,30.92772,-0.0453,0.14306,0.65807
233.413,30.98119,-0.0453,0.14307,0.65802
234.013,31.0347,-0.0453,0.14739,0.65797
234.613,31.08799,-0.0453,0.15176,0.65792
235.213,31.14135,-0.0453,0.15341,0.65786
235.813,31.19479,-0.0453,0.15496,0.65781
236.413,31.2482,-0.0453,0.1612,0.65775
237.013,31.30183,-0.0452999,0.16691,0.6577
237.613,31.35544,-0.045596,0.17383,0.65764
238.213,31.4089,-0.04661367,0.17829,0.65758
238.813,31.46248,-0.04530173,0.18498,0.65752
239.413,31.51595,-0.04520388,0.1911,0.65746
240.013,31.5695,-0.04661005,0.19557,0.6574
240.613,31.6232,-0.04661,0.20384,0.65733
241.213,31.6765,-0.04661001,0.21162,0.65727
241.813,31.73002,-0.04661005,0.22002,0.6572
242.413,31.78355,-0.0475956,0.22882,0.65714
243.013,31.8372,-0.04760013,0.23985,0.65707
243.613,31.89123,-0.04768433,0.25149,0.657
244.213,31.94502,-0.04891976,0.26739,0.65693
244.813,31.9988,-0.04897664,0.27995,0.65686
245.413,32.05237,-0.04760012,0.29894,0.65679
246.013,32.10589,-0.0476,0.31717,0.65672
246.613,32.15959,-0.0476,0.33676,0.65665
247.213,32.2132,-0.04759879,0.3596,0.65657
247.813,32.2669,-0.048276,0.38593,0.6565
248.413,32.32065,-0.04826008,0.41729,0.65642
249.013,32.37425,-0.0486253,0.45133,0.65634
249.613,32.42807,-0.04859002,0.49161,0.65626
250.213,32.48193,-0.0486426,0.52841,0.65619
250.813,32.536,-0.04891639,0.56862,0.65611
251.413,32.59022,-0.0502383,0.60326,0.65602
252.013,32.64434,-0.05022811,0.639,0.65594
252.613,32.69842,-0.04892415,0.66943,0.65586
253.213,32.75262,-0.04891939,0.6995,0.65577
253.813,32.8067,-0.04995106,0.72334,0.65569
254.413,32.86079,-0.04992368,0.74138,0.6556
255.013,32.9148,-0.04858718,0.74444,0.65552
255.613,32.9688,-0.04890897,0.74046,0.65543
256.213,33.02263,-0.04201723,0.71444,0.65534
256.813,33.07628,-0.05622947,0.68675,0.65525
257.413,33.1299,-0.05419217,0.64027,0.65516
258.013,33.18356,-0.051236,0.58394,0.65506
258.613,33.23705,-0.05121977,0.51658,0.65497
259.213,33.29056,-0.05254211,0.4509,0.65488
259.813,33.344,-0.05254001,0.38963,0.65478
260.413,33.39739,-0.05252721,0.33544,0.65469
261.013,33.45081,-0.05121846,0.29042,0.65459
261.613,33.50419,-0.05121988,0.25644,0.65449
262.213,33.55744,-0.0513172,0.23022,0.65439
262.813,33.6107,-0.05022892,0.20237,0.65429
263.413,33.6638,-0.05155694,0.18685,0.65419
264.013,33.7171,-0.05155006,0.17306,0.65409
264.613,33.77036,-0.05156186,0.15964,0.65399
265.213,33.82374,-0.05286942,0.15055,0.65388
265.813,33.8773,-0.05211133,0.14306,0.65378
266.413,33.93072,-0.05187918,0.13557,0.65367
267.013,33.98421,-0.05320715,0.13266,0.65356
267.613,34.0377,-0.0532061,0.1259,0.65346
268.213,34.091,-0.05188553,0.12529,0.65335
268.813,34.14459,-0.05330515,0.12491,0.65324
269.413,34.19826,-0.05331,0.12286,0.65313
270.013,34.2517,-0.05330999,0.12049,0.65302
270.613,34.30532,-0.05338464,0.11857,0.6529
271.213,34.35876,-0.05462957,0.11797,0.65279
271.813,34.41212,-0.0546302,0.11901,0.65268
272.413,34.4657,-0.05408894,0.11699,0.65256
273.013,34.51927,-0.05457318,0.11589,0.65245
273.613,34.57288,-0.05467633,0.11883,0.65233
274.213,34.62658,-0.05434176,0.11985,0.65221
274.813,34.68033,-0.05463003,0.11725,0.65209
275.413,34.73406,-0.05560718,0.11552,0.65197
276.013,34.78787,-0.05594012,0.11565,0.65185
276.613,34.84166,-0.05595001,0.11715,0.65173
277.213,34.89537,-0.05722379,0.11655,0.65161
277.813,34.9491,-0.05594034,0.11879,0.65148
278.413,35.00281,-0.05594,0.11698,0.65136
279.013,35.05652,-0.05594,0.1163,0.65123
279.613,35.1103,-0.05594004,0.11607,0.65111
280.213,35.16422,-0.0569754,0.11542,0.65098
280.813,35.21815,-0.05856981,0.11543,0.65085
281.413,35.27218,-0.05742535,0.1149,0.65072
282.013,35.32613,-0.05596013,0.11464,0.65059
282.613,35.3801,-0.0565898,0.11478,0.65046
283.213,35.43393,-0.05791644,0.11523,0.65033
283.813,35.48788,-0.05791,0.11464,0.6502
284.413,35.5417,-0.05791,0.11661,0.65006
285.013,35.59535,-0.05791,0.1122,0.64993
285.613,35.64918,-0.05791,0.11713,0.6498
286.213,35.70293,-0.05791,0.11565,0.64966
286.813,35.7569,-0.05790997,0.1133,0.64952
287.413,35.811,-0.05789762,0.11338,0.64938
288.013,35.86499,-0.05856873,0.11406,0.64925
288.613,35.9191,-0.0585691,0.11194,0.64911
289.213,35.97323,-0.05726988,0.1126,0.64897
289.813,36.02727,-0.05856887,0.11328,0.64882
290.413,36.0811,-0.05849634,0.11283,0.64868
291.013,36.13496,-0.05812065,0.11275,0.64854
291.613,36.1888,-0.05998735,0.11492,0.64839
292.213,36.24269,-0.06131642,0.11586,0.64825
292.813,36.2968,-0.06130998,0.11411,0.6481
293.413,36.3509,-0.06130173,0.11193,0.64796
294.013,36.40487,-0.06237904,0.11245,0.64781
294.613,36.45895,-0.06131023,0.11403,0.64766
295.213,36.51312,-0.06144897,0.11311,0.64751
295.813,36.5672,-0.06153216,0.1131,0.64736
296.413,36.6213,-0.06285553,0.1132,0.64721
297.013,36.67541,-0.06220669,0.11346,0.64706
297.613,36.72954,-0.06218953,0.11093,0.64691
298.213,36.7837,-0.060863,0.11216,0.64675
298.813,36.8379,-0.06087148,0.10885,0.6466
299.413,36.89215,-0.06219303,0.10796,0.64644
300.013,36.9465,-0.06351498,0.10539,0.64629
300.613,37.00065,-0.06351001,0.10804,0.64613
301.213,37.05485,-0.06346867,0.10786,0.64597
301.813,37.10908,-0.06350861,0.10954,0.64582
302.413,37.16325,-0.06254784,0.10809,0.64566
303.013,37.21763,-0.06252387,0.10889,0.6455
303.613,37.27205,-0.06351358,0.10569,0.64533
304.213,37.32642,-0.06350998,0.10759,0.64517
304.813,37.38085,-0.06350458,0.10755,0.64501
305.413,37.43512,-0.06411185,0.10827,0.64485
306.013,37.48958,-0.06513766,0.10481,0.64468
306.613,37.54385,-0.06504917,0.1062,0.64452
307.213,37.59827,-0.06526106,0.10453,0.64435
307.813,37.65267,-0.06526001,0.10735,0.64419
308.413,37.707,-0.06525262,0.10458,0.64402
309.013,37.76142,-0.06625495,0.10775,0.64385
309.613,37.81572,-0.06625003,0.10453,0.64368
310.213,37.87027,-0.06625481,0.10751,0.64351
310.813,37.92484,-0.06526197,0.10816,0.64334
311.413,37.97917,-0.06526,0.10492,0.64317
312.013,38.03346,-0.0652576,0.10675,0.643
312.613,38.0878,-0.06669344,0.1065,0.64282
313.213,38.14216,-0.06668997,0.10639,0.64265
313.813,38.1967,-0.06683873,0.10797,0.64247
314.413,38.2513,-0.06932064,0.10848,0.6423
315.013,38.30575,-0.06932,0.10797,0.64212
315.613,38.36019,-0.06932,0.10383,0.64195
316.213,38.4146,-0.06932001,0.10486,0.64177
316.813,38.46901,-0.06931825,0.10742,0.64159
317.413,38.5233,-0.07061598,0.11008,0.64141
318.013,38.57772,-0.07063586,0.10861,0.64123
318.613,38.63214,-0.06932164,0.10889,0.64105
319.213,38.68656,-0.0693195,0.10746,0.64087
319.813,38.74115,-0.07038657,0.10768,0.64069
320.413,38.79568,-0.06953763,0.1074,0.6405
321.013,38.8502,-0.06931978,0.10727,0.64032
321.613,38.90461,-0.07063676,0.10909,0.64013
322.213,38.9591,-0.07062978,0.10892,0.63995
322.813,39.01354,-0.07192367,0.10703,0.63976
323.413,39.06805,-0.07195158,0.10763,0.63958
324.013,39.12267,-0.07327041,0.10789,0.63939
324.613,39.17726,-0.07123556,0.10667,0.6392
325.213,39.23189,-0.07064936,0.10705,0.63901
325.813,39.2866,-0.07194865,0.10794,0.63882
326.413,39.34124,-0.07195323,0.1088,0.63863
327.013,39.3957,-0.0732487,0.10924,0.63844
327.613,39.45037,-0.07326,0.11186,0.63825
328.213,39.50505,-0.07326,0.11053,0.63805
328.813,39.55961,-0.07325999,0.1085,0.63786
329.413,39.61398,-0.07318341,0.10837,0.63767
330.013,39.66847,-0.07458014,0.11158,0.63747
330.613,39.72309,-0.07458,0.11118,0.63728
331.213,39.7778,-0.07458,0.11038,0.63708
331.813,39.83294,-0.07458,0.11318,0.63688
332.413,39.88767,-0.07458043,0.11196,0.63668
333.013,39.94242,-0.07724326,0.11246,0.63648
333.613,39.99709,-0.0772182,0.11243,0.63629
334.213,40.05174,-0.07589487,0.11085,0.63609
334.813,40.1064,-0.07590127,0.11023,0.63588
335.413,40.16113,-0.07691635,0.1098,0.63568
336.013,40.21605,-0.07721014,0.11187,0.63548
336.613,40.2709,-0.07721414,0.1131,0.63528
337.213,40.3258,-0.07852836,0.11111,0.63507
337.813,40.38067,-0.07853,0.11245,0.63487
338.413,40.43545,-0.07853,0.11048,0.63467
339.013,40.49026,-0.07853008,0.11047,0.63446
339.613,40.5453,-0.07982664,0.11024,0.63425
340.213,40.6002,-0.07984641,0.10944,0.63405
340.813,40.65515,-0.08114559,0.11031,0.63384
341.413,40.71024,-0.07984994,0.11038,0.63363
342.013,40.76501,-0.07984997,0.10761,0.63342
342.613,40.81987,-0.08016892,0.10961,0.63321
343.213,40.8748,-0.08116047,0.11013,0.633
343.813,40.92975,-0.08116,0.10881,0.63279
344.413,40.98466,-0.08117257,0.11172,0.63258
345.013,41.0398,-0.08247959,0.11266,0.63237
345.613,41.0948,-0.08389168,0.10921,0.63215
346.213,41.14991,-0.08380005,0.1101,0.63194
346.813,41.20499,-0.08515574,0.10954,0.63173
347.413,41.25977,-0.08379096,0.11334,0.63151
348.013,41.31462,-0.08460584,0.11074,0.63129
348.613,41.36949,-0.0854383,0.11054,0.63108
349.213,41.42453,-0.08502419,0.11229,0.63086
349.813,41.47974,-0.08643002,0.11148,0.63064
350.413,41.53474,-0.086443,0.11351,0.63043
351.013,41.58974,-0.08642526,0.11301,0.63021
351.613,41.6442,-0.08642993,0.11314,0.62999
352.213,41.69918,-0.08669641,0.11305,0.62977
352.813,41.7543,-0.08915563,0.11399,0.62955
353.413,41.80941,-0.08905999,0.11342,0.62932
354.013,41.86473,-0.08905997,0.11632,0.6291
354.613,41.9196,-0.08935618,0.11496,0.62888
355.213,41.97423,-0.0903806,0.11394,0.62866
355.813,42.02928,-0.09165426,0.11388,0.62843
356.413,42.08447,-0.09169987,0.11601,0.62821
357.013,42.13994,-0.09170004,0.11455,0.62798
357.613,42.1954,-0.09305604,0.11525,0.62776
358.213,42.2506,-0.09299967,0.11582,0.62753
358.813,42.3059,-0.09433041,0.11656,0.6273
359.413,42.36102,-0.09432929,0.11734,0.62707
360.013,42.4163,-0.09570329,0.11835,0.62685
360.613,42.47164,-0.09695599,0.11776,0.62662
361.213,42.52694,-0.09564849,0.11915,0.62639
361.813,42.58225,-0.09565506,0.11881,0.62616
362.413,42.63748,-0.09695858,0.11989,0.62593
363.013,42.69278,-0.09807677,0.11863,0.6257
363.613,42.74811,-0.09962011,0.11942,0.62546
364.213,42.80356,-0.10091,0.11942,0.62523
364.813,42.85895,-0.10091,0.11964,0.625
365.413,42.91438,-0.1022,0.12004,0.62476
366.013,42.96968,-0.10223,0.11812,0.62453
366.613,43.025,-0.1031,0.12193,0.6243
367.213,43.0804,-0.10223,0.12323,0.62406
367.813,43.13588,-0.10225,0.12369,0.62382
368.413,43.19135,-0.10533,0.12432,0.62359
369.013,43.24689,-0.10626,0.12238,0.62335
369.613,43.30249,-0.10627,0.12549,0.62311
370.213,43.3581,-0.10759,0.12761,0.62287
370.813,43.4137,-0.10921,0.12802,0.62264
371.413,43.4693,-0.11024,0.12881,0.6224
372.013,43.52489,-0.11161,0.13116,0.62216
372.613,43.58062,-0.11309,0.13171,0.62192
373.213,43.6363,-0.11308,0.13593,0.62167
373.813,43.692,-0.11594,0.13741,0.62143
374.413,43.7477,-0.11726,0.13924,0.62119
375.013,43.80318,-0.11659,0.14202,0.62095
375.613,43.859,-0.11938,0.14594,0.6207
376.213,43.9146,-0.1194,0.1466,0.62046
376.813,43.97027,-0.12221,0.14757,0.62022
377.413,44.02597,-0.12351,0.15086,0.61997
378.013,44.08177,-0.12594,0.15111,0.61973
378.613,44.13769,-0.1275,0.15344,0.61948
379.213,44.19357,-0.12875,0.15739,0.61923
379.813,44.24937,-0.13101,0.16134,0.61899
380.413,44.3052,-0.13331,0.16186,0.61874
381.013,44.3609,-0.13767,0.16566,0.61849
381.613,44.41677,-0.13893,0.16674,0.61824
382.213,44.4726,-0.1407,0.16965,0.61799
382.813,44.52856,-0.14206,0.17233,0.61774
383.413,44.5845,-0.14483,0.1754,0.61749
384.013,44.64045,-0.1481,0.17836,0.61724
384.613,44.69634,-0.15061,0.17913,0.61699
385.213,44.75199,-0.15316,0.18215,0.61674
385.813,44.80791,-0.15587,0.18145,0.61649
386.413,44.86392,-0.15921,0.1864,0.61624
387.013,44.91989,-0.16419,0.18962,0.61598
387.613,44.97613,-0.16811,0.19229,0.61573
388.213,45.03217,-0.17121,0.19396,0.61547
388.813,45.08801,-0.17414,0.19685,0.61522
389.413,45.14376,-0.17812,0.19817,0.61496
390.013,45.19972,-0.18228,0.20004,0.61471
390.613,45.25563,-0.18599,0.20265,0.61445
391.213,45.31175,-0.19005,0.20489,0.6142
391.813,45.36775,-0.1938,0.20684,0.61394
392.413,45.42371,-0.20096,0.21022,0.61368
393.013,45.4798,-0.20728,0.21112,0.61342
393.613,45.53598,-0.21072,0.21771,0.61316
394.213,45.59216,-0.21626,0.22135,0.61291
394.813,45.6482,-0.22371,0.22598,0.61265
395.413,45.7042,-0.22857,0.22771,0.61239
396.013,45.76003,-0.23495,0.23088,0.61213
396.613,45.81601,-0.24199,0.23503,0.61187
397.213,45.87213,-0.24691,0.23925,0.6116
397.813,45.92822,-0.25347,0.25119,0.61134
398.413,45.9844,-0.26046,0.26049,0.61108
399.013,46.04075,-0.26925,0.26527,0.61082
399.613,46.0968,-0.27503,0.27134,0.61055
400.213,46.15309,-0.28392,0.27055,0.61029
400.813,46.2093,-0.2935,0.27018,0.61003
401.413,46.26549,-0.3004,0.26471,0.60976
402.013,46.32154,-0.30872,0.26614,0.6095
402.613,46.37774,-0.31727,0.26457,0.60923
403.213,46.43391,-0.32663,0.26533,0.60897
403.813,46.49007,-0.33423,0.27039,0.6087
404.413,46.54642,-0.34626,0.26971,0.60843
405.013,46.60259,-0.35675,0.27111,0.60817
405.613,46.65896,-0.36493,0.2784,0.6079
406.213,46.7153,-0.37548,0.28407,0.60763
406.813,46.7716,-0.38871,0.29178,0.60736
407.413,46.8278,-0.39724,0.2926,0.60709
408.013,46.88386,-0.40778,0.29728,0.60682
408.613,46.94012,-0.42266,0.29889,0.60655
409.213,46.99672,-0.43516,0.30271,0.60629
409.813,47.05287,-0.44811,0.30138,0.60601
410.413,47.1095,-0.46116,0.30108,0.60574
411.013,47.16603,-0.47508,0.30575,0.60547
411.613,47.22253,-0.48759,0.31008,0.6052
412.213,47.27908,-0.50263,0.31791,0.60493
412.813,47.33546,-0.51826,0.32103,0.60466
413.413,47.392,-0.53266,0.33296,0.60438
414.013,47.4485,-0.54832,0.34103,0.60411
414.613,47.50541,-0.56535,0.35878,0.60384
415.213,47.56207,-0.58345,0.36627,0.60356
415.813,47.6188,-0.60175,0.37974,0.60329
416.413,47.67542,-0.62173,0.3901,0.60301
417.013,47.73199,-0.64092,0.39995,0.60274
417.613,47.78862,-0.65823,0.41164,0.60246
418.213,47.8453,-0.68375,0.43119,0.60219
418.813,47.90206,-0.70516,0.44823,0.60191
419.413,47.95897,-0.7281,0.46169,0.60163
420.013,48.01576,-0.75136,0.47781,0.60136
420.613,48.07278,-0.7744,0.49473,0.60108
421.213,48.12957,-0.80154,0.51076,0.6008
421.813,48.1864,-0.82736,0.52933,0.60052
422.413,48.2431,-0.85577,0.54312,0.60025
423.013,48.30007,-0.88333,0.55925,0.59997
423.613,48.3571,-0.91305,0.57643,0.59969
424.213,48.41407,-0.94174,0.59684,0.59941
424.813,48.4711,-0.97282,0.61537,0.59913
425.413,48.52795,-1.00709,0.63666,0.59885
426.013,48.585,-1.03929,0.66175,0.59857
426.613,48.64206,-1.07514,0.68429,0.59829
427.213,48.69937,-1.10919,0.70988,0.59801
427.813,48.75671,-1.1483,0.734,0.59773
428.413,48.814,-1.18455,0.75293,0.59744
429.013,48.8711,-1.22609,0.76644,0.59716
429.613,48.9283,-1.26551,0.78015,0.59688
430.213,48.98531,-1.30324,0.7911,0.5966
430.813,49.0424,-1.34582,0.80404,0.59631
431.413,49.09968,-1.38622,0.81003,0.59603
432.013,49.15697,-1.42827,0.82016,0.59575
432.613,49.21434,-1.47027,0.82984,0.59546
433.213,49.27165,-1.51508,0.83736,0.59518
433.813,49.32877,-1.56191,0.84714,0.59489
434.413,49.38583,-1.60428,0.85131,0.59461
435.013,49.4429,-1.65139,0.85412,0.59432
435.613,49.49985,-1.69639,0.85926,0.59404
436.213,49.55686,-1.74408,0.86152,0.59375
436.813,49.6137,-1.79146,0.86168,0.59346
437.413,49.6708,-1.83753,0.86389,0.59318
438.013,49.72788,-1.88563,0.86214,0.59289
438.613,49.7851,-1.93092,0.86032,0.5926
439.213,49.84252,-1.97919,0.85522,0.59232
439.813,49.89958,-2.02424,0.85037,0.59203
440.413,49.95628,-2.07324,0.84351,0.59174
441.013,50.01293,-2.11836,0.83368,0.59145
441.613,50.06986,-2.16541,0.82263,0.59116
442.213,50.1269,-2.2126,0.81159,0.59087
442.813,50.1845,-2.25847,0.79829,0.59058
443.413,50.24147,-2.30464,0.7827,0.59029
444.013,50.2984,-2.34565,0.76572,0.59001
444.613,50.3553,-2.3889,0.7462,0.58971
445.213,50.41218,-2.42888,0.72781,0.58942
445.813,50.46918,-2.46834,0.70269,0.58913
446.413,50.52618,-2.50799,0.68034,0.58884
447.013,50.5832,-2.54545,0.66013,0.58855
447.613,50.64006,-2.58479,0.63053,0.58826
448.213,50.6969,-2.61685,0.60284,0.58797
448.813,50.75371,-2.65067,0.57553,0.58768
449.413,50.81062,-2.67979,0.5486,0.58739
450.013,50.86748,-2.70856,0.51403,0.58709
450.613,50.92455,-2.73605,0.48851,0.5868
451.213,50.98157,-2.76167,0.45536,0.58651
451.813,51.03852,-2.78705,0.42217,0.58621
452.413,51.0955,-2.80833,0.39601,0.58592
453.013,51.15254,-2.82911,0.36954,0.58563
453.613,51.20949,-2.84907,0.34572,0.58533
454.213,51.2665,-2.86714,0.32279,0.58504
454.813,51.32351,-2.88457,0.30648,0.58475
455.413,51.3806,-2.90209,0.2867,0.58445
456.013,51.4377,-2.91882,0.27211,0.58416
456.613,51.49474,-2.93188,0.25638,0.58386
457.213,51.55195,-2.94579,0.24627,0.58357
457.813,51.60893,-2.95837,0.23495,0.58327
458.413,51.6661,-2.97068,0.22086,0.58297
459.013,51.72319,-2.98378,0.21305,0.58268
459.613,51.78028,-2.99513,0.19924,0.58238
460.213,51.83736,-3.00436,0.19178,0.58209
460.813,51.89459,-3.01368,0.17855,0.58179
461.413,51.95195,-3.02249,0.17161,0.58149
462.013,52.0093,-3.03453,0.16333,0.5812
462.613,52.06668,-3.04239,0.15017,0.5809
463.213,52.12383,-3.05148,0.14501,0.5806
463.813,52.18124,-3.0581,0.13392,0.5803
464.413,52.2386,-3.06496,0.12413,0.58001
465.013,52.2961,-3.07344,0.11749,0.57971
465.613,52.35365,-3.08104,0.10663,0.57941
466.213,52.411,-3.08836,0.09923073,0.57911
466.813,52.4682,-3.09348,0.08972225,0.57881
467.413,52.52556,-3.09816,0.07855253,0.57852
468.013,52.58288,-3.10469,0.06996996,0.57822
468.613,52.6403,-3.10963,0.06466222,0.57792
469.213,52.6979,-3.11567,0.05477817,0.57762
469.813,52.7554,-3.11996,0.04688496,0.57732
470.413,52.81292,-3.12507,0.03940959,0.57702
471.013,52.87033,-3.12904,0.03643274,0.57672
471.613,52.9277,-3.13392,0.02506233,0.57642
472.213,52.985,-3.13824,0.01821257,0.57612
472.813,53.0427,-3.14387,0.01188785,0.57582
473.413,53.10034,-3.14623,0.004760345,0.57552
474.013,53.15798,-3.14642,-0.001380678,0.57522
474.613,53.2156,-3.15193,-0.005928251,0.57492
475.213,53.27293,-3.15634,-0.01126441,0.57462
475.813,53.3305,-3.15857,-0.01367676,0.57432
476.413,53.38835,-3.16273,-0.01684821,0.57401
477.013,53.44619,-3.16508,-0.02041899,0.57371
477.613,53.50404,-3.16842,-0.02644323,0.57341
478.213,53.5619,-3.17112,-0.02741445,0.57311
478.813,53.6198,-3.1742,-0.02919281,0.57281
479.413,53.67762,-3.17637,-0.03091513,0.57251
480.013,53.73534,-3.18056,-0.03316791,0.5722
480.613,53.793,-3.18178,-0.03489442,0.5719
481.213,53.8506,-3.18281,-0.03267453,0.5716
481.813,53.90835,-3.1844,-0.03714112,0.5713
482.413,53.96603,-3.18754,-0.03273655,0.57099
483.013,54.02384,-3.19031,-0.03566937,0.57069
483.613,54.08172,-3.19194,-0.035352,0.57039
484.213,54.13949,-3.19183,-0.03918833,0.57009
484.813,54.19745,-3.19523,-0.03807763,0.56978
485.413,54.2554,-3.19762,-0.03902949,0.56948
486.013,54.3132,-3.19898,-0.03951944,0.56918
486.613,54.37121,-3.20031,-0.03871049,0.56887
487.213,54.4292,-3.20158,-0.03988711,0.56857
487.813,54.4873,-3.20296,-0.03969758,0.56827
488.413,54.54543,-3.20432,-0.03926442,0.56796
489.013,54.60343,-3.20564,-0.04079595,0.56766
489.613,54.66137,-3.20711,-0.04137123,0.56735
490.213,54.7194,-3.20974,-0.040701,0.56705
490.813,54.7776,-3.2116,-0.03971601,0.56675
491.413,54.83589,-3.21334,-0.04238278,0.56644
492.013,54.8941,-3.21453,-0.04839195,0.56614
492.613,54.95221,-3.21598,-0.05013476,0.56583
493.213,55.01025,-3.21676,-0.04878901,0.56553
493.813,55.0685,-3.21545,-0.05090586,0.56522
494.413,55.1266,-3.21634,-0.07534345,0.56492
495.013,55.1848,-3.21939,-0.07315264,0.56461
495.613,55.24285,-3.22071,-0.07140257,0.56431
496.213,55.3008,-3.22111,-0.06945374,0.564
496.813,55.359,-3.22267,-0.07192604,0.5637
497.413,55.41726,-3.22406,-0.07188556,0.56339
498.013,55.4756,-3.22483,-0.07488754,0.56309
498.613,55.5338,-3.22674,-0.08213339,0.56278
499.213,55.59203,-3.22674,-0.08480588,0.56248
499.813,55.6503,-3.22773,-0.07849559,0.56217
500.413,55.7087,-3.22804,-0.07675709,0.56187
501.013,55.767,-3.22926,-0.07584985,0.56156
501.613,55.8252,-3.23066,-0.07563663,0.56125
502.213,55.8834,-3.2319,-0.07656712,0.56095
502.813,55.94172,-3.23202,-0.0737826,0.56064
503.413,56.00011,-3.23322,-0.06970549,0.56034
504.013,56.0586,-3.23457,-0.07001193,0.56003
504.613,56.11715,-3.23585,-0.07127833,0.55972
505.213,56.1756,-3.23585,-0.07292809,0.55942
505.813,56.23386,-3.23589,-0.07203268,0.55911
506.413,56.2922,-3.23717,-0.06831284,0.55881
507.013,56.3505,-3.23849,-0.07125901,0.5585
507.613,56.40894,-3.23849,-0.06981701,0.55819
508.213,56.4673,-3.24063,-0.06873564,0.55789
508.813,56.52574,-3.24123,-0.06856137,0.55758
509.413,56.58421,-3.24376,-0.07144953,0.55727
510.013,56.6426,-3.24408,-0.07033063,0.55697
510.613,56.70094,-3.24408,-0.06833732,0.55666
511.213,56.7594,-3.24408,-0.0672093,0.55636
511.813,56.8179,-3.24408,-0.0671919,0.55605
512.413,56.8765,-3.24547,-0.06680719,0.55574
513.013,56.935,-3.24515,-0.06805419,0.55544
513.613,56.9935,-3.24539,-0.06677158,0.55513
514.213,57.0518,-3.24753,-0.0665771,0.55482
514.813,57.11017,-3.24934,-0.06711398,0.55452
515.413,57.16874,-3.24856,-0.06422445,0.55421
516.013,57.2274,-3.24982,-0.06385759,0.5539
516.613,57.28611,-3.25033,-0.06402904,0.5536
517.213,57.3446,-3.25069,-0.06045108,0.55329
517.813,57.4032,-3.25068,-0.0640433,0.55298
518.413,57.4617,-3.25198,-0.06196529,0.55268
519.013,57.52019,-3.25163,-0.05947705,0.55237
519.613,57.5788,-3.25066,-0.05864117,0.55206
520.213,57.63729,-3.25065,-0.0591942,0.55176
520.813,57.6959,-3.25197,-0.05744897,0.55145
521.413,57.7544,-3.2535,-0.05735745,0.55114
522.013,57.81312,-3.25463,-0.05438017,0.55083
522.613,57.87174,-3.25405,-0.05525078,0.55053
523.213,57.9305,-3.25537,-0.05686246,0.55022
523.813,57.9892,-3.25569,-0.05749768,0.54991
524.413,58.04792,-3.25603,-0.05715991,0.54961
525.013,58.10674,-3.25708,-0.05479646,0.5493
525.613,58.1653,-3.25735,-0.05439128,0.54899
526.213,58.22391,-3.25739,-0.05197188,0.54869
526.813,58.2824,-3.25603,-0.05380241,0.54838
527.413,58.34118,-3.25647,-0.05311109,0.54807
528.013,58.39983,-3.25867,-0.05074334,0.54777
528.613,58.4589,-3.25735,-0.04822376,0.54746
529.213,58.51777,-3.25866,-0.04435238,0.54715
529.813,58.5766,-3.25866,-0.04673909,0.54685
530.413,58.6355,-3.25865,-0.04525625,0.54654
531.013,58.69425,-3.26098,-0.0468065,0.54623
531.613,58.75311,-3.26127,-0.04657611,0.54593
532.213,58.8118,-3.26129,-0.04878369,0.54562
532.813,58.8707,-3.26228,-0.04520223,0.54532
533.413,58.92943,-3.26228,-0.04174181,0.54501
534.013,58.98842,-3.26262,-0.0448345,0.5447
534.613,59.0471,-3.26392,-0.0410618,0.5444
535.213,59.1061,-3.26397,-0.04029496,0.54409
535.813,59.1651,-3.26262,-0.04100486,0.54378
536.413,59.2238,-3.264,-0.04220983,0.54348
537.013,59.28275,-3.26404,-0.04199146,0.54317
537.613,59.3416,-3.26546,-0.03924164,0.54286
538.213,59.4006,-3.26547,-0.03741258,0.54256
538.813,59.45975,-3.26547,-0.03620112,0.54225
539.413,59.51875,-3.26547,-0.03491853,0.54195
540.013,59.5777,-3.26546,-0.03483371,0.54164
540.613,59.63671,-3.26668,-0.03449127,0.54134
541.213,59.6956,-3.2681,-0.03454053,0.54103
541.813,59.75445,-3.2681,-0.03140229,0.54072
542.413,59.81358,-3.26931,-0.0320963,0.54042
543.013,59.8726,-3.26942,-0.02977596,0.54011
543.613,59.9319,-3.26942,-0.03115922,0.53981
544.213,59.9913,-3.26942,-0.02887796,0.5395
544.813,60.0504,-3.27039,-0.02460772,0.5392
545.413,60.10931,-3.26941,-0.02658457,0.53889
546.013,60.16822,-3.26941,-0.02480191,0.53859
546.613,60.22726,-3.26957,-0.02412775,0.53828
547.213,60.28641,-3.27205,-0.02109273,0.53798
547.813,60.3458,-3.27204,-0.02106063,0.53767
548.413,60.40518,-3.27335,-0.01907755,0.53737
549.013,60.4645,-3.27204,-0.02083047,0.53706
549.613,60.5238,-3.27206,-0.0226735,0.53676
550.213,60.5831,-3.2735,-0.01726147,0.53645
550.813,60.6424,-3.27449,-0.02173436,0.53615
551.413,60.7017,-3.27015,-0.01764809,0.53584
552.013,60.761,-3.27989,-0.02030103,0.53554
552.613,60.8205,-3.27874,-0.02026026,0.53523
553.213,60.87989,-3.27643,-0.01598271,0.53493
553.813,60.9392,-3.27797,-0.01671584,0.53462
554.413,60.99856,-3.27797,-0.01488203,0.53432
555.013,61.05769,-3.27797,-0.01522038,0.53402
555.613,61.117,-3.27797,-0.01564331,0.53371
556.213,61.17632,-3.27658,-0.01416067,0.53341
556.813,61.2357,-3.27719,-0.01263167,0.5331
557.413,61.29505,-3.27804,-0.012066,0.5328
558.013,61.35456,-3.27796,-0.00732836,0.5325
558.613,61.4139,-3.27796,-0.007498225,0.53219
559.213,61.47305,-3.27805,-0.01171235,0.53189
559.813,61.53221,-3.27965,-0.009606135,0.53159
560.413,61.59137,-3.28099,-0.00769652,0.53128
561.013,61.6507,-3.28093,-0.00763362,0.53098
561.613,61.70978,-3.28224,-0.005821659,0.53068
562.213,61.769,-3.28224,-0.004159112,0.53038
562.813,61.8281,-3.28355,-0.00346007,0.53007
563.413,61.88735,-3.28356,-0.00575629,0.52977
564.013,61.9466,-3.28356,-0.00356388,0.52947
564.613,62.006,-3.28414,-0.004750338,0.52917
565.213,62.06544,-3.28636,-0.000751878,0.52886
565.813,62.1249,-3.2863,0.0005358626,0.52856
566.413,62.1843,-3.2863,-0.000166625,0.52826
567.013,62.24363,-3.28535,0.003379536,0.52796
567.613,62.3032,-3.285,0.00303335,0.52766
568.213,62.36261,-3.28762,-0.00159553,0.52736
568.813,62.42213,-3.28862,0.00190165,0.52706
569.413,62.4817,-3.28769,0.003911706,0.52675
570.013,62.54124,-3.28894,0.002438021,0.52645
570.613,62.60075,-3.28894,0.006162025,0.52615
571.213,62.66045,-3.28894,0.00102332,0.52585
571.813,62.7201,-3.28795,0.00346689,0.52555
572.413,62.7799,-3.28101,0.00310853,0.52525
573.013,62.83961,-3.29685,0.00615104,0.52495
573.613,62.89924,-3.29335,0.01042885,0.52465
574.213,62.9589,-3.29201,0.008713265,0.52435
574.813,63.0186,-3.29323,0.00884623,0.52405
575.413,63.0784,-3.29333,0.008339655,0.52375
576.013,63.1381,-3.29333,0.01109205,0.52345
576.613,63.19786,-3.29333,0.01051122,0.52315
577.213,63.25744,-3.29462,0.01241206,0.52285
577.813,63.3168,-3.29464,0.01439805,0.52255
578.413,63.37634,-3.29403,0.01638631,0.52225
579.013,63.436,-3.29462,0.01984246,0.52195
579.613,63.49575,-3.29464,0.02040963,0.52166
580.213,63.5557,-3.29593,0.01906661,0.52136
580.813,63.61549,-3.29856,0.0213426,0.52106
581.413,63.67515,-3.2986,0.02231021,0.52076
582.013,63.73469,-3.29727,0.02172762,0.52046
582.613,63.79419,-3.29989,0.02038132,0.52017
583.213,63.85365,-3.29973,0.02391968,0.51987
583.813,63.9129,-3.2999,0.02068183,0.51957
584.413,63.9725,-3.30077,0.02443399,0.51927
585.013,64.0319,-3.30122,0.02394737,0.51898
585.613,64.0916,-3.30121,0.0239071,0.51868
586.213,64.15159,-3.30123,0.02332974,0.51838
586.813,64.21136,-3.30123,0.02796071,0.51808
587.413,64.2713,-3.30254,0.02851149,0.51779
588.013,64.33107,-3.30254,0.03018219,0.51749
588.613,64.39072,-3.30387,0.03005875,0.5172
589.213,64.4507,-3.30385,0.03270736,0.5169
589.813,64.51061,-3.30517,0.03123205,0.5166
590.413,64.5703,-3.30517,0.03416969,0.51631
591.013,64.63005,-3.30582,0.0383523,0.51601
591.613,64.68982,-3.30517,0.04160352,0.51572
592.213,64.7496,-3.30649,0.03841122,0.51542
592.813,64.80932,-3.30647,0.03871602,0.51513
593.413,64.8691,-3.30916,0.03639353,0.51483
594.013,64.92885,-3.30781,0.04279438,0.51454
594.613,64.9887,-3.30781,0.04030344,0.51425
595.213,65.04871,-3.30781,0.04231283,0.51395
595.813,65.1087,-3.30887,0.04431919,0.51366
596.413,65.16872,-3.30846,0.04224934,0.51336
597.013,65.22861,-3.30841,0.04267838,0.51307
597.613,65.28865,-3.30912,0.04239367,0.51278
598.213,65.34865,-3.30912,0.0365081,0.51248
598.813,65.40867,-3.31043,0.03840867,0.51219
599.413,65.46858,-3.30912,0.04226972,0.5119
600.013,65.52852,-3.31045,0.03833104,0.51161
600.613,65.5886,-3.31173,0.03647742,0.51131
601.213,65.64885,-3.31043,0.04056283,0.51102
601.813,65.70916,-3.31175,0.04064705,0.51073
602.413,65.76938,-3.31175,0.03784873,0.51044
603.013,65.8296,-3.31306,0.04248634,0.51015
603.613,65.88982,-3.31306,0.03993686,0.50986
604.213,65.95005,-3.3157,0.04241964,0.50956
604.813,66.01038,-3.3157,0.03964031,0.50927
605.413,66.07038,-3.31504,0.03854127,0.50898
606.013,66.1307,-3.31504,0.03451869,0.50869
606.613,66.19102,-3.31635,0.03191356,0.5084
607.213,66.25144,-3.31635,0.03028273,0.50811
607.813,66.31175,-3.31767,0.03082753,0.50782
608.413,66.37195,-3.31767,0.03298728,0.50753
609.013,66.43215,-3.31755,0.03299274,0.50724
609.613,66.49248,-3.31775,0.02910982,0.50696
610.213,66.55277,-3.31708,0.03069552,0.50667
610.813,66.61296,-3.31763,0.0311278,0.50638
611.413,66.67311,-3.31834,0.03342491,0.50609
612.013,66.73335,-3.3207,0.03076773,0.5058
612.613,66.7938,-3.32184,0.03757479,0.50551
613.213,66.85409,-3.32194,0.03800006,0.50523
613.813,66.9145,-3.32327,0.04100801,0.50494
614.413,66.97474,-3.32202,0.04403968,0.50465
615.013,67.03477,-3.32197,0.0446263,0.50436
615.613,67.0951,-3.32326,0.04838949,0.50408
616.213,67.1554,-3.3219,0.05348237,0.50379
616.813,67.21568,-3.32288,0.0544073,0.50351
617.413,67.2758,-3.32199,0.05912709,0.50322
618.013,67.33582,-3.32318,0.06508281,0.50293
618.613,67.396,-3.32458,0.06574797,0.50265
619.213,67.45645,-3.32589,0.06343252,0.50236
619.813,67.5169,-3.3259,0.06364031,0.50208
620.413,67.57738,-3.32591,0.06189132,0.50179
621.013,67.63768,-3.32721,0.07165206,0.50151
621.613,67.6978,-3.32857,0.07190735,0.50122
622.213,67.758,-3.3273,0.07155454,0.50094
622.813,67.81818,-3.32804,0.07485795,0.50066
623.413,67.87881,-3.32854,0.07682156,0.50037
624.013,67.93893,-3.32606,0.07767815,0.50009
624.613,67.99929,-3.31691,0.07812099,0.49981
625.213,68.05935,-3.33854,0.08205777,0.49952
625.813,68.11968,-3.33162,0.08255247,0.49924
626.413,68.17979,-3.33029,0.08738281,0.49896
627.013,68.23988,-3.33029,0.08740621,0.49868
627.613,68.30017,-3.32963,0.09001911,0.49839
628.213,68.36049,-3.33094,0.08901473,0.49811
628.813,68.42096,-3.33094,0.09040188,0.49783
629.413,68.48154,-3.33094,0.0908832,0.49755
630.013,68.54224,-3.33094,0.09438662,0.49727
630.613,68.6028,-3.33225,0.09310025,0.49699
631.213,68.66341,-3.33226,0.09783035,0.49671
631.813,68.72404,-3.33355,0.0944703,0.49643
632.413,68.78442,-3.33358,0.09907158,0.49615
633.013,68.84487,-3.33358,0.10051,0.49587
633.613,68.90524,-3.33208,0.10231,0.49559
634.213,68.96562,-3.33128,0.10456,0.49531
634.813,69.02614,-3.33262,0.10784,0.49503
635.413,69.08669,-3.33332,0.1082,0.49475
636.013,69.1472,-3.33335,0.10645,0.49448
636.613,69.20755,-3.33467,0.10917,0.4942
637.213,69.26782,-3.33582,0.10979,0.49392
637.813,69.3281,-3.33665,0.1121,0.49364
638.413,69.38857,-3.33531,0.1113,0.49337
639.013,69.4489,-3.33665,0.11099,0.49309
639.613,69.5094,-3.33665,0.11114,0.49281
640.213,69.5699,-3.33665,0.11396,0.49254
640.813,69.6304,-3.33797,0.11732,0.49226
641.413,69.69104,-3.33797,0.1167,0.49199
642.013,69.7513,-3.33929,0.11975,0.49171
642.613,69.81187,-3.33929,0.1203,0.49143
643.213,69.87232,-3.33798,0.12216,0.49116
643.813,69.9329,-3.33929,0.12823,0.49089
644.413,69.99285,-3.3406,0.1307,0.49061