File: 01_Data/Polyester_Felt/STA/N2/10K_min/Polyester_Felt_STA_N2_10KData_210720_R2.csv
##Temp./Â°C,Time/min,Mass loss(subtr.2)/mg,DSC(subtr.2)/(mW/mg),Sensit./(uV/mW)
49.254,10.01,0.034,-0.008114492,0.61828
49.854,11.40095,0.0384353,0.008964864,0.6186
50.454,11.7417,0.03926202,0.02087565,0.61892
51.054,11.98552,0.03687196,0.03079404,0.61923
51.654,12.1857,0.03951321,0.03975074,0.61955
52.254,12.36012,0.04013656,0.04661118,0.61986
52.854,12.51849,0.04135016,0.04977234,0.62018
53.454,12.66179,0.0416049,0.05478109,0.62049
54.054,12.79866,0.04023434,0.05825994,0.6208
54.654,12.9255,0.04140537,0.06447611,0.62111
55.254,13.04835,0.04257963,0.06863241,0.62142
55.854,13.16639,0.04157223,0.06991362,0.62172
56.454,13.2798,0.04308574,0.07200543,0.62203
57.054,13.38976,0.04179767,0.07756867,0.62233
57.654,13.49651,0.04183462,0.07845206,0.62264
58.254,13.60106,0.0419708,0.08106008,0.62294
58.854,13.70217,0.04236113,0.0837439,0.62324
59.454,13.80134,0.04211256,0.08667349,0.62354
60.054,13.89964,0.04247105,0.08875502,0.62384
60.654,13.9959,0.04477272,0.0905736,0.62413
61.254,14.0896,0.04486131,0.095299,0.62443
61.854,14.1822,0.04419385,0.09834948,0.62472
62.454,14.27377,0.04404305,0.09750941,0.62502
63.054,14.3651,0.04373383,0.09900854,0.62531
63.654,14.45413,0.04503807,0.10165,0.6256
64.254,14.54185,0.0449689,0.10672,0.62589
64.854,14.62829,0.04367512,0.10757,0.62618
65.454,14.7136,0.04367974,0.10897,0.62646
66.054,14.7981,0.04379013,0.11349,0.62675
66.654,14.8819,0.0449625,0.11576,0.62703
67.254,14.96427,0.04543469,0.11763,0.62732
67.854,15.046,0.04495495,0.11675,0.6276
68.454,15.1266,0.04496392,0.12181,0.62788
69.054,15.20739,0.04512858,0.12119,0.62816
69.654,15.28675,0.04759078,0.12094,0.62843
70.254,15.3654,0.04666232,0.1219,0.62871
70.854,15.4432,0.04760195,0.12361,0.62899
71.454,15.52002,0.04760049,0.12399,0.62926
72.054,15.59668,0.04627642,0.12423,0.62953
72.654,15.67265,0.04613912,0.12663,0.62981
73.254,15.7485,0.04623342,0.12727,0.63008
73.854,15.8232,0.04704014,0.12666,0.63035
74.454,15.8973,0.04627994,0.1236,0.63061
75.054,15.97061,0.04757082,0.12783,0.63088
75.654,16.04372,0.04611327,0.12751,0.63115
76.254,16.11629,0.04749002,0.1252,0.63141
76.854,16.1889,0.04751788,0.12689,0.63167
77.454,16.2608,0.04747902,0.12641,0.63193
78.054,16.33235,0.04888536,0.12941,0.63219
78.654,16.4029,0.04748544,0.12788,0.63245
79.254,16.47291,0.04735492,0.1279,0.63271
79.854,16.5424,0.04687264,0.12915,0.63297
80.454,16.6117,0.04816751,0.12767,0.63322
81.054,16.68094,0.04736864,0.12893,0.63348
81.654,16.74961,0.04606028,0.1283,0.63373
82.254,16.81786,0.04689913,0.12974,0.63398
82.854,16.88567,0.0460759,0.12865,0.63423
83.454,16.9532,0.04829453,0.12879,0.63448
84.054,17.0205,0.04968235,0.13058,0.63473
84.654,17.08715,0.05108773,0.13094,0.63497
85.254,17.15392,0.04958029,0.13134,0.63522
85.854,17.22016,0.04825936,0.13016,0.63546
86.454,17.28637,0.0482502,0.13258,0.63571
87.054,17.35199,0.04825081,0.13238,0.63595
87.654,17.41723,0.04838633,0.1301,0.63619
88.254,17.4825,0.04826181,0.13206,0.63643
88.854,17.54724,0.04694418,0.13037,0.63666
89.454,17.61166,0.04826323,0.13119,0.6369
90.054,17.6757,0.04954982,0.13243,0.63713
90.654,17.7399,0.04957697,0.133,0.63737
91.254,17.80376,0.05029451,0.13357,0.6376
91.854,17.86727,0.05073914,0.13268,0.63783
92.454,17.93054,0.04957004,0.13367,0.63806
93.054,17.9936,0.04956971,0.13442,0.63829
93.654,18.05635,0.05004018,0.13161,0.63852
94.254,18.11886,0.0479923,0.13388,0.63874
94.854,18.18125,0.04940518,0.13453,0.63897
95.454,18.24343,0.05058965,0.13303,0.63919
96.054,18.30529,0.05000988,0.13377,0.63941
96.654,18.36693,0.05001001,0.13581,0.63964
97.254,18.42866,0.05002726,0.1361,0.63986
97.854,18.49051,0.05066943,0.13273,0.64007
98.454,18.5519,0.05067002,0.13514,0.64029
99.054,18.6131,0.05075838,0.1368,0.64051
99.654,18.6742,0.05068081,0.13848,0.64072
100.254,18.73509,0.0504748,0.13868,0.64094
100.854,18.79579,0.0517871,0.1363,0.64115
101.454,18.8564,0.05067131,0.13867,0.64136
102.054,18.917,0.05067,0.14091,0.64157
102.654,18.97731,0.05067,0.13969,0.64178
103.254,19.03772,0.05067,0.1436,0.64198
103.854,19.09804,0.05066961,0.14196,0.64219
104.454,19.1581,0.05197766,0.14665,0.64239
105.054,19.21789,0.05203302,0.14322,0.6426
105.654,19.27768,0.05067046,0.14674,0.6428
106.254,19.33742,0.05067002,0.14868,0.643
106.854,19.39699,0.05075039,0.14695,0.6432
107.454,19.45662,0.05080567,0.14889,0.6434
108.054,19.51605,0.05209737,0.15327,0.6436
108.654,19.5755,0.0507854,0.15274,0.64379
109.254,19.63488,0.04947286,0.1525,0.64399
109.854,19.694,0.05044426,0.15344,0.64418
110.454,19.75306,0.05077985,0.15544,0.64437
111.054,19.81196,0.05119159,0.15485,0.64456
111.654,19.87088,0.05182961,0.15615,0.64475
112.254,19.9297,0.05275983,0.15745,0.64494
112.854,19.98838,0.0514469,0.15836,0.64513
113.454,20.04724,0.05286242,0.16056,0.64531
114.054,20.1061,0.05228215,0.16249,0.6455
114.654,20.16483,0.05155169,0.16445,0.64568
115.254,20.22341,0.052877,0.16591,0.64586
115.854,20.28172,0.05290238,0.16322,0.64604
116.454,20.34028,0.0515622,0.16677,0.64622
117.054,20.39869,0.0528555,0.16792,0.6464
117.654,20.45712,0.0528605,0.16956,0.64658
118.254,20.51526,0.05159065,0.17043,0.64675
118.854,20.57329,0.05289276,0.17275,0.64693
119.454,20.63136,0.05286003,0.17392,0.6471
120.054,20.6893,0.05284223,0.17355,0.64727
120.654,20.74716,0.05417943,0.17522,0.64744
121.254,20.80491,0.05418701,0.17966,0.64761
121.854,20.86253,0.05265376,0.17895,0.64778
122.454,20.92018,0.05264721,0.18129,0.64795
123.054,20.9777,0.05396023,0.18301,0.64811
123.654,21.0353,0.05396638,0.18327,0.64828
124.254,21.09274,0.05263796,0.18547,0.64844
124.854,21.14989,0.05197988,0.18591,0.6486
125.454,21.2071,0.05329195,0.18644,0.64876
126.054,21.26435,0.05332085,0.18832,0.64892
126.654,21.3215,0.05265035,0.18877,0.64908
127.254,21.3784,0.05265137,0.19064,0.64924
127.854,21.43525,0.05396674,0.19246,0.64939
128.454,21.4919,0.0533331,0.19091,0.64955
129.054,21.54875,0.05395173,0.19365,0.6497
129.654,21.60543,0.05397174,0.19531,0.64985
130.254,21.66214,0.05449491,0.19492,0.65
130.854,21.71894,0.05527127,0.19584,0.65015
131.454,21.77544,0.05396735,0.1967,0.6503
132.054,21.83171,0.05395984,0.19762,0.65045
132.654,21.888,0.05474832,0.19802,0.65059
133.254,21.94399,0.05395301,0.19834,0.65074
133.854,22.0001,0.05396,0.20119,0.65088
134.454,22.0563,0.05396,0.20216,0.65102
135.054,22.1125,0.05396093,0.20245,0.65116
135.654,22.16861,0.0552727,0.20192,0.6513
136.254,22.2245,0.05527999,0.20114,0.65144
136.854,22.2805,0.05528003,0.20336,0.65157
137.454,22.33611,0.05489969,0.20237,0.65171
138.054,22.39165,0.05508707,0.20469,0.65184
138.654,22.44727,0.05561015,0.20495,0.65198
139.254,22.50265,0.05560986,0.20757,0.65211
139.854,22.55789,0.05608957,0.208,0.65224
140.454,22.61329,0.05658773,0.20782,0.65237
141.054,22.66865,0.05659032,0.20869,0.6525
141.654,22.72409,0.05530509,0.20955,0.65262
142.254,22.7791,0.0552687,0.21077,0.65275
142.854,22.8344,0.05395908,0.21406,0.65287
143.454,22.8896,0.05528711,0.21483,0.653
144.054,22.94463,0.05609914,0.21376,0.65312
144.654,23.00021,0.05659354,0.2161,0.65324
145.254,23.05509,0.0552808,0.21706,0.65336
145.854,23.11009,0.05527493,0.21575,0.65348
146.454,23.16515,0.05395361,0.21673,0.6536
147.054,23.2201,0.05526991,0.21383,0.65371
147.654,23.27507,0.05526997,0.21694,0.65383
148.254,23.32997,0.05527053,0.21667,0.65394
148.854,23.3847,0.05659048,0.21965,0.65405
149.454,23.4395,0.05659,0.22131,0.65416
150.054,23.4943,0.05659,0.2189,0.65427
150.654,23.549,0.05659001,0.22128,0.65438
151.254,23.6035,0.05586932,0.22344,0.65449
151.854,23.658,0.05660151,0.22631,0.65459
152.454,23.71237,0.0557433,0.22995,0.6547
153.054,23.7669,0.05527984,0.22917,0.6548
153.654,23.82169,0.05528225,0.22892,0.6549
154.254,23.8762,0.05593475,0.22874,0.655
154.854,23.93085,0.05594001,0.2295,0.6551
155.454,23.98547,0.05588907,0.22891,0.6552
156.054,24.0399,0.05725017,0.22835,0.6553
156.654,24.09445,0.05594383,0.23116,0.6554
157.254,24.14884,0.05593,0.23353,0.65549
157.854,24.2032,0.05593,0.23558,0.65558
158.454,24.2573,0.05593,0.24025,0.65568
159.054,24.31158,0.05593,0.23974,0.65577
159.654,24.36605,0.05592818,0.24191,0.65586
160.254,24.4204,0.05462741,0.24186,0.65595
160.854,24.47481,0.05147181,0.24385,0.65604
161.454,24.52918,0.05106716,0.24601,0.65612
162.054,24.58338,0.06477487,0.24569,0.65621
162.654,24.6377,0.0593792,0.2472,0.65629
163.254,24.69205,0.05641047,0.24696,0.65637
163.854,24.74636,0.05505963,0.24454,0.65646
164.454,24.8007,0.05506234,0.24623,0.65654
165.054,24.8552,0.05734248,0.24743,0.65661
165.654,24.90972,0.05738667,0.24919,0.65669
166.254,24.96406,0.0550082,0.2493,0.65677
166.854,25.01838,0.05503869,0.24967,0.65685
167.454,25.07258,0.05487117,0.24956,0.65692
168.054,25.12685,0.05538024,0.25147,0.65699
168.654,25.1812,0.05538304,0.25199,0.65706
169.254,25.23546,0.05669145,0.25253,0.65714
169.854,25.28961,0.05537668,0.25509,0.6572
170.454,25.3437,0.0556895,0.25488,0.65727
171.054,25.39793,0.05539548,0.25426,0.65734
171.654,25.45196,0.05539,0.25616,0.65741
172.254,25.50555,0.05539026,0.25875,0.65747
172.854,25.55967,0.05475774,0.25728,0.65753
173.454,25.61356,0.0540798,0.25818,0.6576
174.054,25.66788,0.05538435,0.25926,0.65766
174.654,25.7225,0.05538932,0.26061,0.65772
175.254,25.7765,0.05468033,0.26081,0.65778
175.854,25.83064,0.05472999,0.25929,0.65783
176.454,25.88437,0.05473,0.26106,0.65789
177.054,25.93822,0.05473001,0.2632,0.65795
177.654,25.99214,0.05473589,0.26098,0.658
178.254,26.04618,0.05603958,0.26161,0.65805
178.854,26.10051,0.05605,0.26025,0.6581
179.454,26.15479,0.05605638,0.26115,0.65816
180.054,26.2089,0.05472867,0.25798,0.6582
180.654,26.2628,0.05495342,0.26136,0.65825
181.254,26.3165,0.05604017,0.26284,0.6583
181.854,26.37033,0.0553527,0.26101,0.65835
182.454,26.4238,0.05472974,0.26077,0.65839
183.054,26.47762,0.05473001,0.26211,0.65843
183.654,26.53153,0.05473764,0.26382,0.65848
184.254,26.5853,0.05464284,0.26474,0.65852
184.854,26.63953,0.05341226,0.26479,0.65856
185.454,26.69339,0.05317891,0.26293,0.6586
186.054,26.7471,0.05337029,0.2648,0.65863
186.654,26.8007,0.05340999,0.26744,0.65867
187.254,26.8542,0.05341,0.26478,0.6587
187.854,26.9077,0.05341,0.26378,0.65874
188.454,26.9613,0.05341,0.26445,0.65877
189.054,27.015,0.05340975,0.26479,0.6588
189.654,27.0687,0.05396341,0.2626,0.65883
190.254,27.1223,0.05473024,0.2603,0.65886
190.854,27.1757,0.05473,0.26346,0.65889
191.454,27.2293,0.05473,0.26565,0.65892
192.054,27.2827,0.05472891,0.26797,0.65894
192.654,27.3362,0.05343953,0.26738,0.65897
193.254,27.3894,0.05342,0.26461,0.65899
193.854,27.44296,0.0534206,0.26433,0.65902
194.454,27.4963,0.05455861,0.26525,0.65904
195.054,27.54995,0.05473,0.26774,0.65906
195.654,27.6035,0.05473259,0.26714,0.65908
196.254,27.6569,0.05338998,0.2674,0.65909
196.854,27.7105,0.05572798,0.26935,0.65911
197.454,27.7637,0.05578838,0.26716,0.65913
198.054,27.81703,0.05472117,0.27077,0.65914
198.654,27.87032,0.05471305,0.26769,0.65915
199.254,27.92325,0.05320719,0.27159,0.65917
199.854,27.9761,0.05307997,0.27328,0.65918
200.454,28.0291,0.05308,0.27314,0.65919
201.054,28.08215,0.05308,0.27126,0.6592
201.654,28.1357,0.05307818,0.27449,0.6592
202.254,28.18945,0.05175212,0.27241,0.65921
202.854,28.24302,0.05209141,0.27425,0.65921
203.454,28.29669,0.05339279,0.27595,0.65922
204.054,28.3501,0.05307141,0.27922,0.65922
204.654,28.4034,0.05208696,0.27766,0.65922
205.254,28.45673,0.05344419,0.28129,0.65922
205.854,28.50998,0.05341007,0.28212,0.65922
206.454,28.56332,0.05209648,0.27997,0.65922
207.054,28.61672,0.05077512,0.28246,0.65922
207.654,28.67023,0.05077605,0.28237,0.65922
208.254,28.72349,0.05175799,0.28284,0.65921
208.854,28.7769,0.0517486,0.28712,0.65921
209.454,28.8305,0.05177198,0.28729,0.6592
210.054,28.88392,0.05306653,0.2868,0.65919
210.654,28.9375,0.05308001,0.28644,0.65918
211.254,28.991,0.05308,0.28717,0.65917
211.854,29.04447,0.05308,0.2865,0.65916
212.454,29.09805,0.05307975,0.28684,0.65915
213.054,29.15152,0.05205904,0.28476,0.65913
213.654,29.20488,0.05210008,0.28573,0.65912
214.254,29.25822,0.0521,0.28898,0.6591
214.854,29.31162,0.0520978,0.28511,0.65908
215.454,29.36515,0.05342639,0.28884,0.65907
216.054,29.41879,0.05340931,0.28663,0.65905
216.654,29.4725,0.05232957,0.28857,0.65903
217.254,29.52598,0.05209989,0.2889,0.65901
217.854,29.5794,0.05209999,0.29188,0.65898
218.454,29.63278,0.05206563,0.29144,0.65896
219.054,29.68628,0.05309088,0.29224,0.65893
219.654,29.7397,0.05309044,0.2935,0.65891
220.254,29.793,0.05275752,0.29625,0.65888
220.854,29.84638,0.05276,0.29752,0.65885
221.454,29.8998,0.05276,0.30093,0.65882
222.054,29.95324,0.05276,0.30045,0.65879
222.654,30.00695,0.05276,0.30361,0.65876
223.254,30.0604,0.05276,0.30359,0.65873
223.854,30.11383,0.05276021,0.30559,0.6587
224.454,30.1673,0.05232441,0.30949,0.65866
225.054,30.2207,0.05144103,0.31051,0.65863
225.654,30.27422,0.05177253,0.31287,0.65859
226.254,30.32757,0.05177,0.31522,0.65855
226.854,30.381,0.05177,0.31622,0.65851
227.454,30.43435,0.05177001,0.31911,0.65847
228.054,30.4878,0.0517673,0.32385,0.65843
228.654,30.5414,0.05176753,0.32327,0.65839
229.254,30.59494,0.05176409,0.32618,0.65835
229.854,30.64857,0.0507697,0.32768,0.6583
230.454,30.702,0.05045293,0.33032,0.65826
231.054,30.75545,0.04914727,0.33385,0.65821
231.654,30.8088,0.05044625,0.33847,0.65816
232.254,30.8622,0.05142614,0.33977,0.65812
232.854,30.9158,0.05144002,0.34319,0.65807
233.454,30.9692,0.05144,0.34615,0.65802
234.054,31.0229,0.05143972,0.35022,0.65796
234.654,31.07651,0.05282902,0.35302,0.65791
235.254,31.13,0.05176713,0.35581,0.65786
235.854,31.1836,0.05143996,0.36163,0.6578
236.454,31.237,0.05144,0.36472,0.65775
237.054,31.29053,0.05143977,0.36829,0.65769
237.654,31.34409,0.05175077,0.37207,0.65763
238.254,31.3975,0.05175856,0.37963,0.65757
238.854,31.45115,0.05044618,0.38471,0.65751
239.454,31.50484,0.05044993,0.39209,0.65745
240.054,31.5585,0.05069183,0.39981,0.65739
240.654,31.61225,0.0514405,0.4066,0.65733
241.254,31.6658,0.05088252,0.4189,0.65726
241.854,31.7193,0.05012001,0.42498,0.6572
242.454,31.77283,0.05012,0.4367,0.65713
243.054,31.82651,0.05012,0.44861,0.65707
243.654,31.87995,0.05012,0.46212,0.657
244.254,31.9335,0.05012,0.47347,0.65693
244.854,31.98692,0.05012,0.48868,0.65686
245.454,32.04023,0.05012,0.50478,0.65679
246.054,32.09414,0.05013135,0.52444,0.65671
246.654,32.14801,0.05143454,0.54406,0.65664
247.254,32.2021,0.05144,0.57155,0.65657
247.854,32.25605,0.05144027,0.59749,0.65649
248.454,32.30989,0.05078896,0.63142,0.65642
249.054,32.36381,0.05011973,0.66249,0.65634
249.654,32.41773,0.05012,0.6968,0.65626
250.254,32.47172,0.05012228,0.73603,0.65618
250.854,32.52558,0.04879403,0.77191,0.6561
251.454,32.57946,0.04879805,0.8103,0.65602
252.054,32.63358,0.05011812,0.84713,0.65594
252.654,32.68772,0.05012,0.87857,0.65585
253.254,32.74198,0.05011995,0.91121,0.65577
253.854,32.79623,0.05021692,0.93893,0.65568
254.454,32.85045,0.04880004,0.95864,0.6556
255.054,32.90459,0.04875394,0.97296,0.65551
255.654,32.95879,0.05012085,0.97498,0.65542
256.254,33.0129,0.05011891,0.95873,0.65533
256.854,33.067,0.04882447,0.93152,0.65524
257.454,33.12104,0.04880264,0.89433,0.65515
258.054,33.17485,0.05011315,0.83306,0.65506
258.654,33.22867,0.04879824,0.76657,0.65496
259.254,33.28221,0.0488,0.69674,0.65487
259.854,33.33565,0.0488,0.62662,0.65477
260.454,33.3891,0.0488,0.57279,0.65468
261.054,33.44236,0.0488,0.52717,0.65458
261.654,33.4957,0.04880027,0.49136,0.65448
262.254,33.54906,0.04821791,0.45624,0.65438
262.854,33.6023,0.04758413,0.434,0.65428
263.454,33.65563,0.04879913,0.41469,0.65418
264.054,33.7089,0.0488,0.39686,0.65408
264.654,33.7622,0.0488,0.38658,0.65398
265.254,33.81538,0.04879987,0.37728,0.65387
265.854,33.86889,0.0475631,0.37055,0.65377
266.454,33.92239,0.04635692,0.36204,0.65366
267.054,33.976,0.04749019,0.35978,0.65356
267.654,34.02952,0.04687078,0.35594,0.65345
268.254,34.08287,0.04786955,0.35053,0.65334
268.854,34.13626,0.04781995,0.34778,0.65323
269.454,34.1897,0.04782,0.3462,0.65312
270.054,34.24337,0.04783854,0.34706,0.65301
270.654,34.29692,0.04845258,0.34758,0.6529
271.254,34.35055,0.04847069,0.34546,0.65278
271.854,34.40424,0.04715315,0.34374,0.65267
272.454,34.45779,0.04716,0.34386,0.65255
273.054,34.5116,0.04715887,0.3453,0.65244
273.654,34.56518,0.04852733,0.34435,0.65232
274.254,34.6188,0.04824444,0.3457,0.6522
274.854,34.67244,0.04847572,0.34372,0.65208
275.454,34.72605,0.04846999,0.34427,0.65196
276.054,34.77985,0.04847,0.34424,0.65184
276.654,34.83357,0.04847971,0.34206,0.65172
277.254,34.88695,0.04848,0.34065,0.6516
277.854,34.9407,0.0484791,0.34284,0.65147
278.454,34.99452,0.04979508,0.34541,0.65135
279.054,35.04833,0.04847822,0.3444,0.65122
279.654,35.1026,0.04847001,0.34398,0.6511
280.254,35.15654,0.04847,0.34311,0.65097
280.854,35.21027,0.04847,0.34585,0.65084
281.454,35.26416,0.04847,0.34711,0.65071
282.054,35.31788,0.04847,0.34633,0.65058
282.654,35.37178,0.04847,0.34782,0.65045
283.254,35.4257,0.04847049,0.34759,0.65032
283.854,35.4798,0.04750556,0.34698,0.65019
284.454,35.53387,0.04715996,0.3464,0.65006
285.054,35.5878,0.04716001,0.34554,0.64992
285.654,35.6419,0.04716969,0.3458,0.64979
286.254,35.69583,0.04846823,0.34764,0.64965
286.854,35.74977,0.04717397,0.3484,0.64951
287.454,35.80372,0.04715993,0.34884,0.64937
288.054,35.85765,0.0476272,0.34602,0.64924
288.654,35.91147,0.04847017,0.34795,0.6491
289.254,35.96544,0.04847053,0.34922,0.64896
289.854,36.01951,0.04752268,0.35059,0.64881
290.454,36.07363,0.04656442,0.35016,0.64867
291.054,36.12782,0.04618029,0.35098,0.64853
291.654,36.182,0.04619386,0.352,0.64838
292.254,36.23601,0.04585053,0.35331,0.64824
292.854,36.28998,0.04585012,0.35343,0.64809
293.454,36.34406,0.04617931,0.35625,0.64795
294.054,36.39824,0.046179,0.35249,0.6478
294.654,36.4523,0.04553617,0.35486,0.64765
295.254,36.50659,0.04551998,0.3542,0.6475
295.854,36.56078,0.04552,0.35139,0.64735
296.454,36.61487,0.04551987,0.35644,0.6472
297.054,36.66923,0.04424977,0.35349,0.64705
297.654,36.72327,0.04416559,0.35551,0.6469
298.254,36.77746,0.04552066,0.35487,0.64674
298.854,36.8316,0.04487306,0.35646,0.64659
299.454,36.8855,0.04485998,0.35743,0.64643
300.054,36.93907,0.04486,0.35542,0.64628
300.654,36.993,0.04486,0.3579,0.64612
301.254,37.0472,0.04485819,0.35724,0.64596
301.854,37.10185,0.04353458,0.35587,0.6458
302.454,37.15687,0.04354722,0.35585,0.64564
303.054,37.2113,0.04222051,0.35586,0.64548
303.654,37.2656,0.04254178,0.35679,0.64532
304.254,37.31921,0.04255,0.35906,0.64516
304.854,37.37328,0.04255,0.35848,0.645
305.454,37.42743,0.04255,0.35757,0.64484
306.054,37.48146,0.04255001,0.35688,0.64467
306.654,37.536,0.04253661,0.35824,0.64451
307.254,37.59,0.04124,0.35844,0.64434
307.854,37.64412,0.04254635,0.36085,0.64417
308.454,37.69836,0.04252126,0.36053,0.64401
309.054,37.7528,0.04025149,0.36204,0.64384
309.654,37.80705,0.04024947,0.36227,0.64367
310.254,37.86144,0.04130936,0.3631,0.6435
310.854,37.91581,0.0412658,0.36137,0.64333
311.454,37.97017,0.04256006,0.36393,0.64316
312.054,38.02462,0.04114981,0.36346,0.64298
312.654,38.0792,0.03991255,0.36421,0.64281
313.254,38.13362,0.03991998,0.36518,0.64264
313.854,38.18828,0.03992,0.36643,0.64246
314.454,38.24317,0.03992,0.36517,0.64229
315.054,38.29793,0.03992,0.36736,0.64211
315.654,38.35282,0.03992056,0.36872,0.64193
316.254,38.40747,0.0411316,0.3672,0.64176
316.854,38.46202,0.04124005,0.36594,0.64158
317.454,38.5165,0.04086607,0.36823,0.6414
318.054,38.57099,0.03860647,0.36761,0.64122
318.654,38.62543,0.03890484,0.36806,0.64104
319.254,38.68007,0.03993001,0.36741,0.64086
319.854,38.73454,0.03993,0.36976,0.64067
320.454,38.78904,0.03993,0.37031,0.64049
321.054,38.84359,0.03993,0.36922,0.64031
321.654,38.898,0.0399299,0.37008,0.64012
322.254,38.9527,0.03851934,0.37187,0.63994
322.854,39.0073,0.03860995,0.37221,0.63975
323.454,39.06193,0.03721303,0.37184,0.63956
324.054,39.11657,0.03793083,0.37413,0.63938
324.654,39.17123,0.03860402,0.36933,0.63919
325.254,39.22599,0.03729147,0.36913,0.639
325.854,39.28076,0.03728998,0.37145,0.63881
326.454,39.33554,0.03636935,0.37102,0.63862
327.054,39.39055,0.03465798,0.37234,0.63843
327.654,39.4452,0.03495321,0.37037,0.63823
328.254,39.49993,0.03664005,0.37256,0.63804
328.854,39.55446,0.03664003,0.37072,0.63785
329.454,39.60911,0.03637898,0.37215,0.63765
330.054,39.66407,0.03531965,0.37126,0.63746
330.654,39.71881,0.03479389,0.3743,0.63726
331.254,39.7739,0.03301015,0.37503,0.63707
331.854,39.82853,0.03421754,0.37494,0.63687
332.454,39.88329,0.03561431,0.37599,0.63667
333.054,39.93812,0.03562004,0.37676,0.63647
333.654,39.9929,0.03291647,0.37832,0.63627
334.254,40.04784,0.03299861,0.37596,0.63607
334.854,40.10244,0.03169481,0.37584,0.63587
335.454,40.15719,0.03303828,0.37627,0.63567
336.054,40.21213,0.03301001,0.37802,0.63547
336.654,40.2667,0.033009,0.37574,0.63526
337.254,40.3212,0.03166082,0.37602,0.63506
337.854,40.3761,0.03169006,0.37625,0.63486
338.454,40.43108,0.03169,0.37501,0.63465
339.054,40.48665,0.03169,0.37675,0.63445
339.654,40.5421,0.03169283,0.37969,0.63424
340.254,40.59713,0.03036665,0.3796,0.63403
340.854,40.65201,0.03069229,0.37961,0.63382
341.454,40.707,0.03069908,0.37775,0.63362
342.054,40.7617,0.02935163,0.38038,0.63341
342.654,40.8167,0.02939005,0.3817,0.6332
343.254,40.87167,0.02938796,0.38004,0.63299
343.854,40.9263,0.02852881,0.38118,0.63278
344.454,40.9818,0.02841,0.38068,0.63256
345.054,41.0368,0.02848451,0.38472,0.63235
345.654,41.0918,0.02708585,0.38161,0.63214
346.254,41.14723,0.02709001,0.38108,0.63192
346.854,41.2023,0.02709306,0.38564,0.63171
347.454,41.25739,0.02566057,0.38531,0.6315
348.054,41.31252,0.02566999,0.38412,0.63128
348.654,41.36758,0.02567006,0.38614,0.63106
349.254,41.42259,0.02578175,0.38671,0.63085
349.854,41.47765,0.02698282,0.39059,0.63063
350.454,41.53289,0.02567322,0.39201,0.63041
351.054,41.58802,0.02566001,0.38974,0.63019
351.654,41.64335,0.02569268,0.39096,0.62997
352.254,41.69852,0.02429172,0.39117,0.62975
352.854,41.75353,0.02262255,0.39371,0.62953
353.454,41.8088,0.02160997,0.39169,0.62931
354.054,41.86394,0.02217866,0.39179,0.62909
354.654,41.91912,0.02127011,0.39168,0.62886
355.254,41.97436,0.02256484,0.39286,0.62864
355.854,42.02957,0.02163756,0.39277,0.62842
356.454,42.08489,0.02126996,0.39375,0.62819
357.054,42.1402,0.02126944,0.39448,0.62797
357.654,42.19559,0.01996207,0.39558,0.62774
358.254,42.25085,0.01997816,0.39748,0.62751
358.854,42.30628,0.01896735,0.39424,0.62729
359.454,42.36175,0.01897,0.394,0.62706
360.054,42.41722,0.01897025,0.39385,0.62683
360.654,42.47287,0.01807339,0.39405,0.6266
361.254,42.52839,0.01766739,0.39451,0.62637
361.854,42.5838,0.01754316,0.39724,0.62614
362.454,42.63923,0.01621702,0.39912,0.62591
363.054,42.69469,0.01622925,0.39769,0.62568
363.654,42.7502,0.01457242,0.40107,0.62545
364.254,42.80581,0.01437382,0.40246,0.62522
364.854,42.8613,0.01839682,0.39954,0.62498
365.454,42.9168,0.01478141,0.40108,0.62475
366.054,42.97237,0.007686475,0.40548,0.62451
366.654,43.02789,0.01109497,0.40373,0.62428
367.254,43.08332,0.00969823,0.40394,0.62404
367.854,43.1388,0.008418372,0.40565,0.62381
368.454,43.19427,0.008445759,0.40715,0.62357
369.054,43.24981,0.007119778,0.40743,0.62333
369.654,43.30556,0.00711905,0.40679,0.6231
370.254,43.36122,0.00578034,0.41004,0.62286
370.854,43.4169,0.00578466,0.40974,0.62262
371.454,43.47248,0.004492969,0.41505,0.62238
372.054,43.52814,0.003177236,0.41819,0.62214
372.654,43.58385,0.002140131,0.41646,0.6219
373.254,43.63966,0.001861531,0.41828,0.62166
373.854,43.6954,-0.0006859505,0.4222,0.62142
374.454,43.7511,-0.002424753,0.42491,0.62117
375.054,43.8068,-0.00372465,0.42819,0.62093
375.654,43.86254,-0.00372659,0.4296,0.62069
376.254,43.91838,-0.005049522,0.43099,0.62044
376.854,43.97417,-0.006305775,0.43665,0.6202
377.454,44.03004,-0.008453349,0.4398,0.61995
378.054,44.08594,-0.01028216,0.44221,0.61971
378.654,44.14175,-0.01313781,0.44513,0.61946
379.254,44.19762,-0.01589983,0.45029,0.61922
379.854,44.25318,-0.01614275,0.45048,0.61897
380.454,44.3088,-0.01829944,0.45247,0.61872
381.054,44.36442,-0.02049975,0.45579,0.61847
381.654,44.42009,-0.01249069,0.45838,0.61823
382.254,44.47566,-0.0299795,0.46132,0.61798
382.854,44.53141,-0.03413309,0.46497,0.61773
383.454,44.5872,-0.03140453,0.46501,0.61748
384.054,44.64291,-0.03410429,0.47229,0.61723
384.654,44.6993,-0.03694525,0.47607,0.61697
385.254,44.75568,-0.04142285,0.47753,0.61672
385.854,44.81214,-0.0448696,0.47742,0.61647
386.454,44.8686,-0.04678256,0.48419,0.61622
387.054,44.92455,-0.05078687,0.4875,0.61596
387.654,44.98052,-0.05403102,0.49029,0.61571
388.254,45.03655,-0.058451,0.49598,0.61546
388.854,45.09241,-0.06163099,0.49791,0.6152
389.454,45.14847,-0.06557008,0.50151,0.61495
390.054,45.20448,-0.07199827,0.50362,0.61469
390.654,45.26061,-0.07777413,0.50743,0.61443
391.254,45.31687,-0.07723561,0.51062,0.61418
391.854,45.37298,-0.08325812,0.51391,0.61392
392.454,45.42899,-0.08907798,0.51709,0.61366
393.054,45.48509,-0.09575109,0.52164,0.61341
393.654,45.54122,-0.10099,0.52494,0.61315
394.254,45.59725,-0.10684,0.52668,0.61289
394.854,45.65333,-0.11248,0.53185,0.61263
395.454,45.70957,-0.1196,0.53424,0.61237
396.054,45.76562,-0.12656,0.53834,0.61211
396.654,45.82175,-0.13283,0.54236,0.61185
397.254,45.87786,-0.1408,0.54704,0.61159
397.854,45.9341,-0.14745,0.55691,0.61132
398.454,45.9903,-0.15622,0.55891,0.61106
399.054,46.04675,-0.16297,0.56308,0.6108
399.654,46.10324,-0.17095,0.56617,0.61054
400.254,46.15955,-0.18051,0.56635,0.61027
400.854,46.21583,-0.18796,0.57307,0.61001
401.454,46.27213,-0.19743,0.57855,0.60974
402.054,46.32844,-0.20458,0.58091,0.60948
402.654,46.38479,-0.2173,0.58094,0.60921
403.254,46.4411,-0.22521,0.58261,0.60895
403.854,46.49772,-0.2377,0.59461,0.60868
404.454,46.55423,-0.2478,0.60426,0.60841
405.054,46.61074,-0.25914,0.61739,0.60815
405.654,46.66725,-0.27146,0.61792,0.60788
406.254,46.7236,-0.28217,0.6174,0.60761
406.854,46.78009,-0.2942,0.61556,0.60734
407.454,46.83656,-0.30582,0.61797,0.60708
408.054,46.8929,-0.3193,0.61816,0.60681
408.654,46.9494,-0.33158,0.62082,0.60654
409.254,47.00595,-0.34603,0.63331,0.60627
409.854,47.06281,-0.36015,0.63687,0.606
410.454,47.1193,-0.37505,0.64368,0.60573
411.054,47.1761,-0.39165,0.6537,0.60545
411.654,47.23258,-0.40641,0.66595,0.60518
412.254,47.28907,-0.42262,0.6742,0.60491
412.854,47.34554,-0.43857,0.6804,0.60464
413.454,47.40215,-0.45655,0.69104,0.60437
414.054,47.45897,-0.47654,0.705,0.60409
414.654,47.5159,-0.49498,0.71949,0.60382
415.254,47.57269,-0.51504,0.73789,0.60354
415.854,47.6293,-0.53545,0.75685,0.60327
416.454,47.68585,-0.56032,0.77563,0.603
417.054,47.7425,-0.58291,0.78827,0.60272
417.654,47.7992,-0.60503,0.807,0.60244
418.254,47.85609,-0.63053,0.81363,0.60217
418.854,47.9131,-0.65633,0.83042,0.60189
419.454,47.97,-0.68148,0.84026,0.60162
420.054,48.02691,-0.70951,0.85229,0.60134
420.654,48.0839,-0.739,0.86319,0.60106
421.254,48.1406,-0.76927,0.88233,0.60078
421.854,48.19762,-0.79908,0.89474,0.60051
422.454,48.2545,-0.82896,0.90752,0.60023
423.054,48.31149,-0.86058,0.92134,0.59995
423.654,48.36872,-0.89472,0.93405,0.59967
424.254,48.42565,-0.92831,0.95705,0.59939
424.854,48.48278,-0.96398,0.9778,0.59911
425.454,48.53979,-1.00195,0.99346,0.59883
426.054,48.59687,-1.03983,1.00417,0.59855
426.654,48.65377,-1.08021,1.01681,0.59827
427.254,48.7108,-1.11907,1.02485,0.59799
427.854,48.76777,-1.16057,1.03862,0.59771
428.454,48.82479,-1.20016,1.05205,0.59742
429.054,48.88201,-1.2408,1.06796,0.59714
429.654,48.93908,-1.28413,1.07904,0.59686
430.254,48.99629,-1.32899,1.08681,0.59658
430.854,49.0535,-1.37292,1.09358,0.59629
431.454,49.1109,-1.4186,1.10205,0.59601
432.054,49.16814,-1.46238,1.11006,0.59573
432.654,49.22527,-1.51088,1.11553,0.59544
433.254,49.28245,-1.55688,1.12052,0.59516
433.854,49.3395,-1.60943,1.12831,0.59487
434.454,49.39675,-1.65606,1.13332,0.59459
435.054,49.45414,-1.70523,1.13583,0.5943
435.654,49.5114,-1.75321,1.13137,0.59402
436.254,49.5687,-1.80254,1.13302,0.59373
436.854,49.62565,-1.85081,1.13117,0.59344
437.454,49.6824,-1.8998,1.13292,0.59316
438.054,49.73878,-1.95096,1.12696,0.59287
438.654,49.79545,-1.99931,1.12527,0.59258
439.254,49.85268,-2.05034,1.11943,0.5923
439.854,49.9105,-2.09987,1.10873,0.59201
440.454,49.96829,-2.14919,1.09996,0.59172
441.054,50.0259,-2.19737,1.08391,0.59143
441.654,50.08337,-2.24896,1.07575,0.59114
442.254,50.14048,-2.29111,1.06363,0.59085
442.854,50.19757,-2.33419,1.04906,0.59056
443.454,50.25478,-2.38529,1.03194,0.59027
444.054,50.3118,-2.42785,1.013,0.58999
444.654,50.36906,-2.46933,0.99434,0.5897
445.254,50.42625,-2.51144,0.97154,0.5894
445.854,50.48346,-2.55043,0.95287,0.58911
446.454,50.54068,-2.59083,0.93249,0.58882
447.054,50.5979,-2.62665,0.90801,0.58853
447.654,50.65513,-2.66879,0.88564,0.58824
448.254,50.7123,-2.70298,0.86086,0.58795
448.854,50.76956,-2.708,0.83395,0.58766
449.454,50.82659,-2.75231,0.80538,0.58737
450.054,50.88353,-2.78112,0.78101,0.58707
450.654,50.94043,-2.81122,0.754,0.58678
451.254,50.99757,-2.83271,0.72796,0.58649
451.854,51.05472,-2.85582,0.70982,0.58619
452.454,51.1122,-2.87825,0.68767,0.5859
453.054,51.1693,-2.89567,0.66958,0.58561
453.654,51.2265,-2.91514,0.65109,0.58531
454.254,51.28367,-2.93287,0.63343,0.58502
454.854,51.34094,-2.95464,0.62289,0.58473
455.454,51.39823,-2.96893,0.60762,0.58443
456.054,51.45558,-2.98469,0.59242,0.58414
456.654,51.51293,-2.99865,0.57743,0.58384
457.254,51.57032,-3.01228,0.56977,0.58355
457.854,51.62762,-3.02307,0.55879,0.58325
458.454,51.68475,-3.03387,0.55101,0.58295
459.054,51.742,-3.04742,0.54118,0.58266
459.654,51.7992,-3.05491,0.53058,0.58236
460.254,51.85645,-3.06714,0.52248,0.58207
460.854,51.91398,-3.07825,0.51371,0.58177
461.454,51.97133,-3.08705,0.50733,0.58147
462.054,52.02877,-3.09457,0.49954,0.58118
462.654,52.0861,-3.10413,0.49245,0.58088
463.254,52.14351,-3.11241,0.48241,0.58058
463.854,52.20094,-3.12075,0.47417,0.58028
464.454,52.2583,-3.12896,0.46271,0.57999
465.054,52.31578,-3.13394,0.45365,0.57969
465.654,52.37295,-3.14047,0.44689,0.57939
466.254,52.4303,-3.14641,0.43584,0.57909
466.854,52.48786,-3.15389,0.42898,0.57879
467.454,52.5453,-3.15869,0.42281,0.5785
468.054,52.6031,-3.16486,0.41273,0.5782
468.654,52.661,-3.16949,0.40683,0.5779
469.254,52.7189,-3.17469,0.39808,0.5776
469.854,52.77635,-3.17873,0.39223,0.5773
470.454,52.8338,-3.18599,0.38646,0.577
471.054,52.89108,-3.1899,0.38024,0.5767
471.654,52.94866,-3.19406,0.37124,0.5764
472.254,53.00645,-3.19788,0.36873,0.5761
472.854,53.0643,-3.20287,0.36241,0.5758
473.454,53.12211,-3.20655,0.35559,0.5755
474.054,53.1799,-3.21084,0.35252,0.5752
474.654,53.2376,-3.21457,0.34469,0.5749
475.254,53.2956,-3.21955,0.34408,0.5746
475.854,53.3536,-3.22147,0.34065,0.5743
476.454,53.4116,-3.22415,0.33934,0.57399
477.054,53.46988,-3.22751,0.33354,0.57369
477.654,53.52779,-3.23069,0.33065,0.57339
478.254,53.58589,-3.23419,0.33093,0.57309
478.854,53.64391,-3.23544,0.32751,0.57279
479.454,53.702,-3.23859,0.32706,0.57249
480.054,53.75999,-3.23848,0.32201,0.57218
480.654,53.81763,-3.24152,0.3198,0.57188
481.254,53.87559,-3.24382,0.31594,0.57158
481.854,53.93351,-3.24806,0.3067,0.57128
482.454,53.9913,-3.25,0.30173,0.57097
483.054,54.04955,-3.25062,0.30023,0.57067
483.654,54.10759,-3.25189,0.30014,0.57037
484.254,54.16594,-3.25502,0.30015,0.57007
484.854,54.2241,-3.2579,0.29831,0.56976
485.454,54.2823,-3.25917,0.2979,0.56946
486.054,54.3405,-3.26123,0.29788,0.56916
486.654,54.39826,-3.26331,0.29501,0.56885
487.254,54.45618,-3.26459,0.29734,0.56855
487.854,54.51412,-3.26581,0.29732,0.56825
488.454,54.57215,-3.26685,0.29538,0.56794
489.054,54.6304,-3.26922,0.29532,0.56764
489.654,54.68854,-3.27099,0.30256,0.56733
490.254,54.74666,-3.27142,0.30426,0.56703
490.854,54.8047,-3.27164,0.30717,0.56672
491.454,54.8629,-3.27284,0.30762,0.56642
492.054,54.9212,-3.274,0.30821,0.56612
492.654,54.97936,-3.27642,0.30768,0.56581
493.254,55.03767,-3.27667,0.30208,0.56551
493.854,55.09568,-3.27845,0.3034,0.5652
494.454,55.1539,-3.27914,0.30453,0.5649
495.054,55.2123,-3.27973,0.30633,0.56459
495.654,55.27065,-3.28104,0.30623,0.56429
496.254,55.32891,-3.28236,0.30063,0.56398
496.854,55.38723,-3.28378,0.30239,0.56368
497.454,55.44548,-3.28505,0.30455,0.56337
498.054,55.5038,-3.28643,0.29832,0.56307
498.654,55.56194,-3.28724,0.27563,0.56276
499.254,55.62025,-3.28906,0.2883,0.56246
499.854,55.67866,-3.28992,0.27905,0.56215
500.454,55.7371,-3.29153,0.28393,0.56184
501.054,55.79577,-3.29334,0.28708,0.56154
501.654,55.8542,-3.29325,0.29062,0.56123
502.254,55.91284,-3.29465,0.29177,0.56093
502.854,55.9715,-3.29595,0.28911,0.56062
503.454,56.0301,-3.29728,0.28714,0.56032
504.054,56.08879,-3.29729,0.28557,0.56001
504.654,56.14745,-3.29827,0.28179,0.5597
505.254,56.20554,-3.30042,0.28385,0.5594
505.854,56.2634,-3.2998,0.28317,0.55909
506.454,56.3215,-3.2998,0.28297,0.55879
507.054,56.38013,-3.30112,0.28469,0.55848
507.654,56.4384,-3.30134,0.2867,0.55817
508.254,56.49714,-3.30101,0.29001,0.55787
508.854,56.5557,-3.30245,0.28661,0.55756
509.454,56.6142,-3.30377,0.28839,0.55725
510.054,56.67285,-3.30506,0.29,0.55695
510.654,56.7312,-3.30582,0.28947,0.55664
511.254,56.78957,-3.30638,0.29451,0.55633
511.854,56.8482,-3.30768,0.29721,0.55603
512.454,56.9068,-3.30898,0.2985,0.55572
513.054,56.96546,-3.31033,0.29792,0.55541
513.654,57.02409,-3.31013,0.29789,0.55511
514.254,57.0828,-3.30901,0.29533,0.5548
514.854,57.1413,-3.30901,0.29988,0.55449
515.454,57.20001,-3.30836,0.30312,0.55419
516.054,57.25878,-3.31028,0.30561,0.55388
516.654,57.31755,-3.31033,0.30984,0.55357
517.254,57.3763,-3.31147,0.30727,0.55327
517.854,57.43501,-3.31167,0.31079,0.55296
518.454,57.4937,-3.31297,0.30853,0.55265
519.054,57.55242,-3.31297,0.31399,0.55235
519.654,57.61119,-3.31439,0.31383,0.55204
520.254,57.6698,-3.31439,0.31296,0.55173
520.854,57.72871,-3.3157,0.31645,0.55143
521.454,57.78761,-3.31702,0.31808,0.55112
522.054,57.8467,-3.3157,0.31917,0.55081
522.654,57.9056,-3.31573,0.31661,0.55051
523.254,57.96434,-3.31702,0.31956,0.5502
523.854,58.02287,-3.31702,0.3206,0.54989
524.454,58.0816,-3.31702,0.32392,0.54959
525.054,58.14025,-3.31966,0.32345,0.54928
525.654,58.1993,-3.31833,0.32345,0.54897
526.254,58.25832,-3.31965,0.32443,0.54867
526.854,58.3174,-3.31965,0.32598,0.54836
527.454,58.3764,-3.32098,0.32718,0.54805
528.054,58.4354,-3.32097,0.32901,0.54775
528.654,58.49436,-3.32175,0.32891,0.54744
529.254,58.5533,-3.32224,0.32922,0.54713
529.854,58.61229,-3.32492,0.33049,0.54683
530.454,58.6712,-3.32492,0.33007,0.54652
531.054,58.73024,-3.32526,0.33257,0.54621
531.654,58.78943,-3.32589,0.33519,0.54591
532.254,58.84851,-3.32723,0.33744,0.5456
532.854,58.9075,-3.32728,0.33742,0.54529
533.454,58.9664,-3.32537,0.3393,0.54499
534.054,59.0251,-3.32612,0.34037,0.54468
534.654,59.08406,-3.32612,0.34236,0.54438
535.254,59.14303,-3.32611,0.3467,0.54407
535.854,59.20208,-3.32599,0.3484,0.54376
536.454,59.26115,-3.32743,0.35055,0.54346
537.054,59.32031,-3.32954,0.3523,0.54315
537.654,59.3797,-3.33082,0.3563,0.54284
538.254,59.439,-3.32925,0.35847,0.54254
538.854,59.49841,-3.32821,0.35788,0.54223
539.454,59.55771,-3.32951,0.35778,0.54193
540.054,59.61687,-3.32848,0.35885,0.54162
540.654,59.6759,-3.32986,0.36021,0.54131
541.254,59.7349,-3.32985,0.35996,0.54101
541.854,59.7941,-3.33117,0.36144,0.5407
542.454,59.85325,-3.33236,0.36188,0.5404
543.054,59.91245,-3.33381,0.36733,0.54009
543.654,59.9717,-3.3325,0.3666,0.53979
544.254,60.0307,-3.3335,0.36751,0.53948
544.854,60.08974,-3.33348,0.36542,0.53918
545.454,60.149,-3.33349,0.36799,0.53887
546.054,60.2082,-3.33428,0.36737,0.53856
546.654,60.26749,-3.33347,0.36964,0.53826
547.254,60.3267,-3.33485,0.37017,0.53795
547.854,60.38586,-3.33495,0.37044,0.53765
548.454,60.4449,-3.33479,0.3714,0.53734
549.054,60.50385,-3.33616,0.37197,0.53704
549.654,60.5633,-3.33611,0.37225,0.53673
550.254,60.6225,-3.3374,0.36848,0.53643
550.854,60.6819,-3.33742,0.37162,0.53613
551.454,60.74111,-3.33749,0.36937,0.53582
552.054,60.8004,-3.33874,0.37256,0.53552
552.654,60.8597,-3.33743,0.37171,0.53521
553.254,60.9191,-3.33743,0.3733,0.53491
553.854,60.97831,-3.34001,0.37379,0.5346
554.454,61.03759,-3.34005,0.37529,0.5343
555.054,61.09665,-3.34005,0.37402,0.534
555.654,61.1557,-3.34003,0.37574,0.53369
556.254,61.2146,-3.34043,0.37707,0.53339
556.854,61.2738,-3.34038,0.37896,0.53308
557.454,61.3331,-3.34171,0.37764,0.53278
558.054,61.39236,-3.3417,0.38009,0.53248
558.654,61.45188,-3.34171,0.38089,0.53217
559.254,61.5113,-3.34267,0.3813,0.53187
559.854,61.5708,-3.34269,0.37919,0.53157
560.454,61.6302,-3.34269,0.37807,0.53126
561.054,61.6897,-3.34401,0.38677,0.53096
561.654,61.7491,-3.34527,0.38564,0.53066
562.254,61.80855,-3.34533,0.38448,0.53036
562.854,61.86812,-3.34532,0.38407,0.53005
563.454,61.9277,-3.34744,0.38669,0.52975
564.054,61.98715,-3.34762,0.38502,0.52945
564.654,62.04668,-3.34893,0.38754,0.52915
565.254,62.10612,-3.34892,0.38934,0.52884
565.854,62.1655,-3.34761,0.38996,0.52854
566.454,62.22511,-3.34762,0.38879,0.52824
567.054,62.2847,-3.34762,0.38888,0.52794
567.654,62.3445,-3.34903,0.38938,0.52764
568.254,62.40406,-3.35022,0.39243,0.52734
568.854,62.4637,-3.3489,0.38905,0.52703
569.454,62.52336,-3.35026,0.39132,0.52673
570.054,62.583,-3.35089,0.39181,0.52643
570.654,62.64274,-3.35157,0.3942,0.52613
571.254,62.7025,-3.3529,0.39315,0.52583
571.854,62.7622,-3.35289,0.39375,0.52553
572.454,62.8215,-3.35267,0.39535,0.52523
573.054,62.8812,-3.35289,0.40042,0.52493
573.654,62.9408,-3.35419,0.40074,0.52463
574.254,63.00059,-3.3542,0.40348,0.52433
574.854,63.0603,-3.35421,0.40634,0.52403
575.454,63.11948,-3.35519,0.40754,0.52373
576.054,63.17905,-3.35553,0.40781,0.52343
576.654,63.23854,-3.35552,0.41117,0.52313
577.254,63.29849,-3.35683,0.41228,0.52283
577.854,63.35844,-3.35818,0.41104,0.52253
578.454,63.41814,-3.35815,0.41265,0.52223
579.054,63.4776,-3.35688,0.41306,0.52193
579.654,63.5372,-3.35945,0.41792,0.52164
580.254,63.59678,-3.35938,0.41724,0.52134
580.854,63.6567,-3.36078,0.41822,0.52104
581.454,63.7167,-3.36079,0.41796,0.52074
582.054,63.7766,-3.36079,0.41786,0.52044
582.654,63.83628,-3.36276,0.41976,0.52014
583.254,63.89566,-3.36285,0.41587,0.51985
583.854,63.95482,-3.36408,0.41831,0.51955
584.454,64.01455,-3.36408,0.42002,0.51925
585.054,64.0745,-3.36419,0.42156,0.51896
585.654,64.1346,-3.36408,0.42163,0.51866
586.254,64.19464,-3.36511,0.42396,0.51836
586.854,64.25444,-3.36539,0.42267,0.51806
587.454,64.31403,-3.36614,0.4303,0.51777
588.054,64.37374,-3.36689,0.42748,0.51747
588.654,64.4336,-3.36803,0.43184,0.51718
589.254,64.4936,-3.36682,0.43178,0.51688
589.854,64.55359,-3.36773,0.43378,0.51658
590.454,64.61366,-3.36934,0.43633,0.51629
591.054,64.67356,-3.37063,0.43812,0.51599
591.654,64.73349,-3.37065,0.43745,0.5157
592.254,64.79326,-3.37066,0.44152,0.5154
592.854,64.85296,-3.37194,0.44007,0.51511
593.454,64.91284,-3.37197,0.44253,0.51481
594.054,64.97288,-3.37193,0.44332,0.51452
594.654,65.03279,-3.37332,0.43985,0.51423
595.254,65.0929,-3.37382,0.44071,0.51393
595.854,65.15266,-3.37415,0.4416,0.51364
596.454,65.21256,-3.37296,0.44392,0.51334
597.054,65.27248,-3.37328,0.4458,0.51305
597.654,65.33241,-3.36717,0.44823,0.51276
598.254,65.39251,-3.38107,0.44859,0.51246
598.854,65.45236,-3.37874,0.44754,0.51217
599.454,65.51224,-3.37878,0.45161,0.51188
600.054,65.572,-3.37878,0.45293,0.51159
600.654,65.63175,-3.37879,0.45625,0.51129
601.254,65.69159,-3.37779,0.45582,0.511
601.854,65.75137,-3.37779,0.45835,0.51071
602.454,65.81137,-3.37976,0.44955,0.51042
603.054,65.87146,-3.3801,0.44825,0.51013
603.654,65.93165,-3.38108,0.45648,0.50984
604.254,65.99199,-3.38173,0.45941,0.50954
604.854,66.05211,-3.38306,0.46284,0.50925
605.454,66.11194,-3.38306,0.46401,0.50896
606.054,66.1721,-3.38435,0.46761,0.50867
606.654,66.23214,-3.38437,0.46636,0.50838
607.254,66.2923,-3.38304,0.46736,0.50809
607.854,66.35266,-3.38015,0.4752,0.5078
608.454,66.41277,-3.38727,0.46878,0.50751
609.054,66.47293,-3.38988,0.4704,0.50722
609.654,66.53324,-3.38527,0.47634,0.50694
610.254,66.59362,-3.387,0.48254,0.50665
610.854,66.65398,-3.38604,0.4861,0.50636
611.454,66.71426,-3.38601,0.48937,0.50607
612.054,66.77464,-3.38596,0.48724,0.50578
612.654,66.8349,-3.38735,0.49021,0.50549
613.254,66.89503,-3.38864,0.4932,0.50521
613.854,66.9553,-3.38864,0.4948,0.50492
614.454,67.0156,-3.38867,0.49738,0.50463
615.054,67.0758,-3.38996,0.49853,0.50435
615.654,67.13602,-3.38997,0.49983,0.50406
616.254,67.19617,-3.39127,0.50137,0.50377
616.854,67.2564,-3.39095,0.5038,0.50349
617.454,67.3168,-3.39098,0.50458,0.5032
618.054,67.3773,-3.39107,0.50692,0.50291
618.654,67.43779,-3.39083,0.51363,0.50263
619.254,67.49799,-3.37967,0.51397,0.50234
619.854,67.55819,-3.40467,0.51723,0.50206
620.454,67.6185,-3.39609,0.52034,0.50177
621.054,67.6792,-3.39208,0.5243,0.50149
621.654,67.7398,-3.39073,0.52669,0.5012
622.254,67.8002,-3.3949,0.52705,0.50092
622.854,67.86085,-3.39384,0.5315,0.50064
623.454,67.9214,-3.39358,0.53158,0.50035
624.054,67.98216,-3.39442,0.52989,0.50007
624.654,68.0427,-3.39599,0.52396,0.49979
625.254,68.10314,-3.39589,0.27553,0.4995
625.854,68.1635,-3.39589,0.25761,0.49922
626.454,68.22369,-3.39589,0.25344,0.49894
627.054,68.28412,-3.39597,0.25139,0.49866
627.654,68.3444,-3.39489,0.24721,0.49838
628.254,68.40505,-3.39575,0.24746,0.49809
628.854,68.46553,-3.39743,0.24786,0.49781
629.454,68.526,-3.39886,0.24678,0.49753
630.054,68.58664,-3.39753,0.24848,0.49725
630.654,68.6471,-3.39826,0.25067,0.49697
631.254,68.7076,-3.39848,0.25206,0.49669
631.854,68.76827,-3.39891,0.2522,0.49641
632.454,68.8287,-3.39885,0.25339,0.49613
633.054,68.889,-3.39885,0.25237,0.49585
633.654,68.94917,-3.39881,0.2504,0.49557
634.254,69.00933,-3.40017,0.25784,0.49529
634.854,69.06965,-3.40017,0.25577,0.49501
635.454,69.1302,-3.40148,0.25807,0.49474
636.054,69.19071,-3.40148,0.25464,0.49446
636.654,69.25135,-3.40018,0.25675,0.49418
637.254,69.31191,-3.40142,0.25608,0.4939
637.854,69.3725,-3.40275,0.2594,0.49362
638.454,69.43321,-3.40478,0.26338,0.49335
639.054,69.49381,-3.40674,0.26372,0.49307
639.654,69.55444,-3.40682,0.26628,0.49279
640.254,69.61497,-3.40542,0.26463,0.49252
640.854,69.67557,-3.40511,0.26663,0.49224
641.454,69.73625,-3.40642,0.27045,0.49197
642.054,69.79696,-3.40642,0.27336,0.49169
642.654,69.85777,-3.40592,0.27643,0.49142
643.254,69.91851,-3.40674,0.27335,0.49114
643.854,69.97921,-3.40674,0.27382,0.49087
644.054,69.9993,-3.40674,0.27458,0.49077