File: 01_Data/Polyester_Felt/STA/N2/10K_min/Polyester_Felt_STA_N2_10KData_210720_R1.csv
##Temp./Â°C,Time/min,Mass loss(subtr.2)/mg,DSC(subtr.2)/(mW/mg),Sensit./(uV/mW)
49.242,10.01,0.00624,-0.06108182,0.61827
49.842,11.39681,0.00390061,-0.03838911,0.61859
50.442,11.74259,0.004493293,-0.02490078,0.61891
51.042,11.9862,0.003679788,-0.01450739,0.61923
51.642,12.18724,0.00258979,-0.00740122,0.61954
52.242,12.3607,0.004151269,0.00410904,0.61986
52.842,12.51554,0.003149071,0.0127203,0.62017
53.442,12.66137,0.00413572,0.0176084,0.62048
54.042,12.79769,0.002770354,0.02226704,0.62079
54.642,12.92585,0.001241785,0.02882155,0.6211
55.242,13.04796,-0.0001215773,0.03233774,0.62141
55.842,13.16505,0.001193242,0.03498339,0.62172
56.442,13.2778,0.003708248,0.03684158,0.62202
57.042,13.3879,0.002471414,0.03952574,0.62233
57.642,13.4954,0.00118606,0.04402059,0.62263
58.242,13.5999,0.001089614,0.04838533,0.62293
58.842,13.7016,0.002506082,0.04991071,0.62323
59.442,13.8005,0.002512739,0.05198814,0.62353
60.042,13.8972,0.001815979,0.05733889,0.62383
60.642,13.99298,0.001307935,0.06115397,0.62413
61.242,14.08756,0.002622,0.06320996,0.62442
61.842,14.1807,0.001303356,0.06748005,0.62472
62.442,14.272,0.001299979,0.07183467,0.62501
63.042,14.3618,-5.57883e-05,0.07578856,0.6253
63.642,14.45055,0.001023882,0.07564803,0.62559
64.242,14.5385,0.000895989,0.07905398,0.62588
64.842,14.6248,0.0003047196,0.08578547,0.62617
65.442,14.71,0.00163957,0.08738049,0.62646
66.042,14.7943,-7.4497e-05,0.09275803,0.62674
66.642,14.8774,0.0009081941,0.09460434,0.62703
67.242,14.95948,-0.0003400842,0.09786282,0.62731
67.842,15.0413,-9.39982e-05,0.09909682,0.62759
68.442,15.1223,-0.000335257,0.10405,0.62787
69.042,15.2025,0.0009821851,0.1035,0.62815
69.642,15.28139,-0.002054261,0.10792,0.62843
70.242,15.35949,-0.0006514495,0.10986,0.62871
70.842,15.4374,0.0004939389,0.10986,0.62898
71.442,15.51416,0.000648995,0.11535,0.62926
72.042,15.5908,-0.0007487397,0.11392,0.62953
72.642,15.66676,-0.0007700417,0.11491,0.6298
73.242,15.7422,0.000586845,0.11644,0.63007
73.842,15.8171,-0.00217897,0.11849,0.63034
74.442,15.89119,-0.002067589,0.11704,0.63061
75.042,15.9649,-0.001947479,0.1166,0.63087
75.642,16.0379,-0.002309893,0.11701,0.63114
76.242,16.1103,-0.0009989203,0.11782,0.6314
76.842,16.18225,-0.002308002,0.11692,0.63167
77.442,16.25401,-0.000963255,0.11867,0.63193
78.042,16.32518,-0.00158371,0.11633,0.63219
78.642,16.39499,-0.001017461,0.11631,0.63245
79.242,16.4653,-0.00235524,0.11889,0.63271
79.842,16.5353,-0.00237934,0.11723,0.63296
80.442,16.6057,-0.00230999,0.1195,0.63322
81.042,16.67468,-0.002322111,0.12049,0.63347
81.642,16.74334,-0.00360269,0.12345,0.63372
82.242,16.81159,-0.0007791084,0.1221,0.63398
82.842,16.87924,-0.0007849317,0.12269,0.63423
83.442,16.94685,-0.003485275,0.12185,0.63447
84.042,17.01415,-0.00361871,0.12186,0.63472
84.642,17.08108,-0.003502136,0.12183,0.63497
85.242,17.14765,-0.002529743,0.12051,0.63521
85.842,17.21369,-0.002491853,0.12434,0.63546
86.442,17.2798,-0.00385588,0.12363,0.6357
87.042,17.3456,-0.002529835,0.12305,0.63594
87.642,17.41139,-0.00331795,0.12398,0.63618
88.242,17.47617,-0.003953715,0.12442,0.63642
88.842,17.54068,-0.00263869,0.12558,0.63666
89.442,17.60512,-0.00264094,0.12406,0.63689
90.042,17.66936,-0.003965835,0.12603,0.63713
90.642,17.73337,-0.00392848,0.12708,0.63736
91.242,17.79714,-0.00400049,0.12746,0.6376
91.842,17.86084,-0.005380115,0.12681,0.63783
92.442,17.92418,-0.005380396,0.12842,0.63806
93.042,17.98736,-0.004003278,0.12773,0.63829
93.642,18.0502,-0.00396,0.13024,0.63851
94.242,18.113,-0.0039597,0.12886,0.63874
94.842,18.17546,-0.005329043,0.12664,0.63896
95.442,18.23783,-0.00452988,0.12987,0.63919
96.042,18.2998,-0.004936027,0.12648,0.63941
96.642,18.3616,-0.003976523,0.12927,0.63963
97.242,18.42315,-0.005279361,0.13175,0.63985
97.842,18.48461,-0.00617916,0.13294,0.64007
98.442,18.54588,-0.005279972,0.13472,0.64029
99.042,18.60708,-0.00528,0.13217,0.6405
99.642,18.66826,-0.00527723,0.13318,0.64072
100.242,18.72915,-0.00525933,0.13595,0.64093
100.842,18.7898,-0.006590085,0.13772,0.64114
101.442,18.85032,-0.005274636,0.13708,0.64135
102.042,18.91082,-0.00527027,0.13953,0.64156
102.642,18.9714,-0.00670125,0.14042,0.64177
103.242,19.03179,-0.00667851,0.14293,0.64198
103.842,19.0921,-0.005379381,0.14602,0.64219
104.442,19.15205,-0.00667955,0.14424,0.64239
105.042,19.2122,-0.008025516,0.14501,0.64259
105.642,19.27208,-0.00786439,0.14828,0.6428
106.242,19.3319,-0.006697909,0.14693,0.643
106.842,19.39154,-0.00668578,0.15256,0.6432
107.442,19.4509,-0.00670004,0.15353,0.6434
108.042,19.51032,-0.00601347,0.15506,0.64359
108.642,19.56973,-0.00670423,0.15496,0.64379
109.242,19.62912,-0.006700881,0.15792,0.64398
109.842,19.6884,-0.00802251,0.15838,0.64418
110.442,19.7476,-0.00671703,0.15768,0.64437
111.042,19.80663,-0.0066739,0.16135,0.64456
111.642,19.8658,-0.0066779,0.16285,0.64475
112.242,19.92462,-0.006693815,0.16457,0.64494
112.842,19.98347,-0.00801815,0.16724,0.64512
113.442,20.04211,-0.008019605,0.16575,0.64531
114.042,20.10096,-0.008031559,0.16784,0.64549
114.642,20.1597,-0.008010649,0.16894,0.64568
115.242,20.2182,-0.006757799,0.16701,0.64586
115.842,20.27681,-0.006970004,0.16975,0.64604
116.442,20.33533,-0.00680119,0.16843,0.64622
117.042,20.39374,-0.008128122,0.17084,0.6464
117.642,20.4522,-0.008117588,0.17321,0.64657
118.242,20.5103,-0.007140335,0.17432,0.64675
118.842,20.56844,-0.0071465,0.17586,0.64692
119.442,20.6262,-0.007469515,0.17916,0.6471
120.042,20.68402,-0.007562779,0.18289,0.64727
120.642,20.74174,-0.00679498,0.18276,0.64744
121.242,20.79935,-0.00740541,0.18347,0.64761
121.842,20.8571,-0.0081205,0.18446,0.64778
122.442,20.915,-0.0074046,0.18959,0.64794
123.042,20.97265,-0.006744737,0.18732,0.64811
123.642,21.03039,-0.00681006,0.19207,0.64827
124.242,21.08788,-0.00802706,0.19183,0.64844
124.842,21.14495,-0.007834397,0.19318,0.6486
125.442,21.20172,-0.007791851,0.19754,0.64876
126.042,21.2587,-0.008450449,0.19991,0.64892
126.642,21.31569,-0.008419184,0.20254,0.64908
127.242,21.3731,-0.008115204,0.19874,0.64923
127.842,21.43066,-0.008120008,0.20121,0.64939
128.442,21.48761,-0.0080742,0.20404,0.64954
129.042,21.54447,-0.00921076,0.20492,0.6497
129.642,21.6012,-0.00812988,0.20744,0.64985
130.242,21.65793,-0.008050394,0.20929,0.65
130.842,21.71451,-0.009498318,0.21082,0.65015
131.442,21.77076,-0.01073368,0.21183,0.6503
132.042,21.82721,-0.009450549,0.21295,0.65044
132.642,21.88341,-0.009451113,0.21396,0.65059
133.242,21.93936,-0.01075652,0.21487,0.65073
133.842,21.9957,-0.009445214,0.21535,0.65088
134.442,22.05187,-0.009447039,0.21723,0.65102
135.042,22.10823,-0.009349639,0.21803,0.65116
135.642,22.16432,-0.01134694,0.22027,0.6513
136.242,22.2204,-0.01098639,0.2222,0.65144
136.842,22.27611,-0.009652541,0.22149,0.65157
137.442,22.33184,-0.01098123,0.22529,0.65171
138.042,22.38751,-0.009397209,0.22588,0.65184
138.642,22.44316,-0.009330023,0.22453,0.65198
139.242,22.49867,-0.009346003,0.22577,0.65211
139.842,22.55397,-0.01051928,0.22565,0.65224
140.442,22.60941,-0.009661877,0.22691,0.65237
141.042,22.66481,-0.009660007,0.22782,0.6525
141.642,22.72029,-0.009660003,0.23093,0.65262
142.242,22.77594,-0.009609527,0.23333,0.65275
142.842,22.8309,-0.01098177,0.23372,0.65287
143.442,22.88598,-0.01228882,0.23691,0.653
144.042,22.94089,-0.0123,0.23572,0.65312
144.642,22.99592,-0.01229995,0.23812,0.65324
145.242,23.05094,-0.01227726,0.24079,0.65336
145.842,23.10582,-0.0109712,0.23786,0.65348
146.442,23.16065,-0.01195971,0.24203,0.65359
147.042,23.21558,-0.01187506,0.24463,0.65371
147.642,23.27069,-0.00931131,0.2425,0.65382
148.242,23.3255,-0.009133532,0.24562,0.65394
148.842,23.38051,-0.01163011,0.24617,0.65405
149.442,23.43508,-0.01163002,0.24942,0.65416
150.042,23.49001,-0.01163009,0.2475,0.65427
150.642,23.54482,-0.01162339,0.2484,0.65438
151.242,23.59956,-0.01164,0.24897,0.65448
151.842,23.6544,-0.01162805,0.2514,0.65459
152.442,23.70896,-0.01032262,0.25023,0.6547
153.042,23.76365,-0.01032006,0.25038,0.6548
153.642,23.8185,-0.0102853,0.25039,0.6549
154.242,23.87322,-0.01163329,0.25303,0.655
154.842,23.92802,-0.0116528,0.25576,0.6551
155.442,23.98251,-0.01163968,0.25267,0.6552
156.042,24.03697,-0.0112819,0.25437,0.6553
156.642,24.09154,-0.01261861,0.25475,0.65539
157.242,24.14595,-0.01261564,0.25639,0.65549
157.842,24.20048,-0.01162884,0.25777,0.65558
158.442,24.25496,-0.01163001,0.25891,0.65568
159.042,24.30944,-0.01162999,0.25762,0.65577
159.642,24.36394,-0.0115757,0.25885,0.65586
160.242,24.41828,-0.01359971,0.26344,0.65595
160.842,24.4727,-0.01363826,0.26515,0.65603
161.442,24.52704,-0.01228106,0.26872,0.65612
162.042,24.5811,-0.011629,0.27143,0.65621
162.642,24.63557,-0.01163,0.27767,0.65629
163.242,24.68994,-0.01163,0.27664,0.65637
163.842,24.7442,-0.01087002,0.27621,0.65645
164.442,24.79885,-0.0103238,0.27632,0.65653
165.042,24.8532,-0.01295176,0.2776,0.65661
165.642,24.90768,-0.01295047,0.27635,0.65669
166.242,24.96216,-0.01168918,0.27791,0.65677
166.842,25.01647,-0.01189655,0.27981,0.65684
167.442,25.0707,-0.01316689,0.28054,0.65692
168.042,25.12487,-0.01186151,0.27943,0.65699
168.642,25.17922,-0.01185989,0.28334,0.65706
169.242,25.2336,-0.01280194,0.28194,0.65713
169.842,25.28787,-0.01317011,0.28187,0.6572
170.442,25.34215,-0.01317,0.28355,0.65727
171.042,25.39631,-0.01317,0.28587,0.65734
171.642,25.4506,-0.01317,0.28371,0.6574
172.242,25.5049,-0.01317641,0.28619,0.65747
172.842,25.55901,-0.01184887,0.28409,0.65753
173.442,25.6132,-0.01203958,0.28578,0.6576
174.042,25.6674,-0.01388696,0.28553,0.65766
174.642,25.72133,-0.01449909,0.2846,0.65772
175.242,25.77562,-0.01447249,0.28604,0.65778
175.842,25.82992,-0.01448,0.2856,0.65783
176.442,25.88416,-0.01447999,0.28624,0.65789
177.042,25.93834,-0.01448497,0.28799,0.65794
177.642,25.9924,-0.01177669,0.28387,0.658
178.242,26.04637,-0.01462026,0.28721,0.65805
178.842,26.10037,-0.01448326,0.2892,0.6581
179.442,26.15428,-0.01316633,0.28825,0.65815
180.042,26.20815,-0.01317143,0.28761,0.6582
180.642,26.26197,-0.01449809,0.28917,0.65825
181.242,26.3158,-0.01316443,0.28928,0.6583
181.842,26.36989,-0.01317001,0.28826,0.65834
182.442,26.4237,-0.01458679,0.28885,0.65839
183.042,26.47764,-0.01448994,0.28831,0.65843
183.642,26.53153,-0.01449,0.2905,0.65847
184.242,26.5853,-0.0144915,0.29091,0.65852
184.842,26.63914,-0.01579595,0.29198,0.65856
185.442,26.6929,-0.01579934,0.29293,0.65859
186.042,26.74673,-0.01439911,0.29125,0.65863
186.642,26.8006,-0.0143802,0.29131,0.65867
187.242,26.85432,-0.01567432,0.29336,0.6587
187.842,26.9079,-0.01577958,0.29283,0.65874
188.442,26.9615,-0.01515207,0.29304,0.65877
189.042,27.01489,-0.01569034,0.29226,0.6588
189.642,27.06839,-0.01564674,0.29111,0.65883
190.242,27.1221,-0.01591648,0.29183,0.65886
190.842,27.17561,-0.01678744,0.29348,0.65889
191.442,27.22942,-0.01701007,0.29553,0.65892
192.042,27.2831,-0.01842499,0.29344,0.65894
192.642,27.33677,-0.01830439,0.29584,0.65897
193.242,27.39038,-0.01700992,0.29473,0.65899
193.842,27.44385,-0.01560425,0.29379,0.65901
194.442,27.49727,-0.01699583,0.29653,0.65904
195.042,27.5507,-0.01832898,0.29785,0.65906
195.642,27.60414,-0.01624056,0.29745,0.65908
196.242,27.6575,-0.01723468,0.30003,0.65909
196.842,27.7109,-0.01734416,0.30276,0.65911
197.442,27.76432,-0.01865817,0.3052,0.65913
198.042,27.81772,-0.01866,0.30314,0.65914
198.642,27.8712,-0.01866,0.30285,0.65915
199.242,27.92458,-0.01866,0.30079,0.65917
199.842,27.97792,-0.01866,0.30447,0.65918
200.442,28.0312,-0.01865988,0.3071,0.65919
201.042,28.08452,-0.01906787,0.30766,0.65919
201.642,28.1379,-0.01998554,0.30407,0.6592
202.242,28.1913,-0.01855156,0.30524,0.65921
202.842,28.2446,-0.01991258,0.30795,0.65921
203.442,28.29797,-0.01849911,0.30863,0.65922
204.042,28.3513,-0.01996926,0.30974,0.65922
204.642,28.4047,-0.01996664,0.31021,0.65922
205.242,28.4582,-0.02130695,0.30843,0.65922
205.842,28.51159,-0.01996502,0.31107,0.65922
206.442,28.56508,-0.01997013,0.3136,0.65922
207.042,28.61852,-0.01990559,0.31418,0.65922
207.642,28.6721,-0.02128978,0.31495,0.65922
208.242,28.7252,-0.02156806,0.31497,0.65921
208.842,28.7782,-0.02260965,0.31702,0.65921
209.442,28.8315,-0.02261,0.31795,0.6592
210.042,28.88467,-0.02261002,0.31682,0.65919
210.642,28.93835,-0.02260021,0.31891,0.65918
211.242,28.992,-0.02128732,0.31961,0.65917
211.842,29.0454,-0.02237635,0.32101,0.65916
212.442,29.09897,-0.02261005,0.32063,0.65915
213.042,29.1523,-0.02261,0.32191,0.65913
213.642,29.20575,-0.02261001,0.32227,0.65912
214.242,29.25923,-0.02260799,0.32701,0.6591
214.842,29.31273,-0.02327473,0.32574,0.65909
215.442,29.3663,-0.023277,0.32909,0.65907
216.042,29.41964,-0.02194958,0.32844,0.65905
216.642,29.473,-0.02261066,0.33211,0.65903
217.242,29.5263,-0.02338042,0.33194,0.65901
217.842,29.5796,-0.02338,0.33138,0.65898
218.442,29.6331,-0.02337082,0.33421,0.65896
219.042,29.6867,-0.02337005,0.33723,0.65894
219.642,29.7401,-0.02337001,0.33955,0.65891
220.242,29.7935,-0.02307283,0.33884,0.65888
220.842,29.84706,-0.02207296,0.34094,0.65885
221.442,29.90052,-0.02337106,0.34624,0.65883
222.042,29.9541,-0.02336997,0.34568,0.6588
222.642,30.0076,-0.02338852,0.3489,0.65876
223.242,30.06107,-0.02535257,0.3503,0.65873
223.842,30.11457,-0.02410706,0.35076,0.6587
224.442,30.16805,-0.02092242,0.35378,0.65866
225.042,30.2216,-0.02475879,0.35122,0.65863
225.642,30.27492,-0.03002432,0.35669,0.65859
226.242,30.3284,-0.02538556,0.35898,0.65855
226.842,30.38182,-0.02538595,0.35834,0.65851
227.442,30.43536,-0.02459244,0.35993,0.65847
228.042,30.48906,-0.0248371,0.36523,0.65843
228.642,30.54265,-0.02590182,0.36589,0.65839
229.242,30.59628,-0.02557711,0.36843,0.65835
229.842,30.64975,-0.02556934,0.37116,0.6583
230.442,30.70322,-0.02549576,0.37408,0.65826
231.042,30.7566,-0.02589016,0.37485,0.65821
231.642,30.80997,-0.02589025,0.37877,0.65817
232.242,30.8634,-0.02490118,0.38053,0.65812
232.842,30.91674,-0.0249,0.38449,0.65807
233.442,30.97018,-0.0249,0.38495,0.65802
234.042,31.0238,-0.02489999,0.39038,0.65797
234.642,31.07742,-0.02491278,0.39188,0.65791
235.242,31.1311,-0.02622191,0.39616,0.65786
235.842,31.18485,-0.02621999,0.40077,0.6578
236.442,31.23831,-0.02621994,0.40348,0.65775
237.042,31.29188,-0.02667869,0.40775,0.65769
237.642,31.3454,-0.02720662,0.41415,0.65763
238.242,31.3989,-0.02854312,0.41572,0.65758
238.842,31.45257,-0.02222443,0.42168,0.65752
239.442,31.5063,-0.02528838,0.43118,0.65745
240.042,31.56,-0.03041406,0.43781,0.65739
240.642,31.6136,-0.02786173,0.44767,0.65733
241.242,31.6673,-0.03450844,0.45358,0.65727
241.842,31.72086,-0.0286042,0.46302,0.6572
242.442,31.77447,-0.02526804,0.47259,0.65713
243.042,31.82818,-0.02691912,0.48116,0.65707
243.642,31.8818,-0.02754539,0.49162,0.657
244.242,31.93546,-0.02850619,0.50655,0.65693
244.842,31.9893,-0.02819967,0.52021,0.65686
245.442,32.04293,-0.02817927,0.53326,0.65679
246.042,32.0967,-0.02846102,0.54987,0.65672
246.642,32.15043,-0.02918012,0.57213,0.65664
247.242,32.20406,-0.02879298,0.59149,0.65657
247.842,32.25793,-0.02818937,0.61838,0.65649
248.442,32.3117,-0.02930323,0.64343,0.65642
249.042,32.36558,-0.02815504,0.67902,0.65634
249.642,32.41962,-0.02819892,0.71097,0.65626
250.242,32.4735,-0.02933354,0.74539,0.65618
250.842,32.5276,-0.03071852,0.78241,0.6561
251.442,32.58165,-0.03070284,0.81767,0.65602
252.042,32.6354,-0.02824464,0.85457,0.65594
252.642,32.68902,-0.02953971,0.89086,0.65585
253.242,32.74277,-0.03083049,0.92078,0.65577
253.842,32.79679,-0.03083,0.95371,0.65568
254.442,32.85113,-0.03083,0.97883,0.6556
255.042,32.9056,-0.03083001,0.99371,0.65551
255.642,32.95985,-0.03051368,1.00485,0.65542
256.242,33.0139,-0.0301681,0.99817,0.65533
256.842,33.0679,-0.03018141,0.98017,0.65524
257.442,33.12189,-0.0314883,0.94347,0.65515
258.042,33.1758,-0.0254375,0.88902,0.65506
258.642,33.22958,-0.03889982,0.82708,0.65497
259.242,33.2833,-0.03591115,0.75565,0.65487
259.842,33.33709,-0.03316285,0.68197,0.65478
260.442,33.39079,-0.03456838,0.61876,0.65468
261.042,33.44421,-0.03356881,0.57122,0.65458
261.642,33.49722,-0.03357065,0.52893,0.65449
262.242,33.55049,-0.03389748,0.49367,0.65439
262.842,33.6036,-0.03390001,0.46576,0.65429
263.442,33.65715,-0.03390001,0.44921,0.65419
264.042,33.71097,-0.03390614,0.42842,0.65408
264.642,33.76419,-0.03361264,0.41665,0.65398
265.242,33.81756,-0.03225816,0.40676,0.65388
265.842,33.8708,-0.03225996,0.40005,0.65377
266.442,33.92405,-0.03246046,0.39342,0.65367
267.042,33.9776,-0.03356953,0.38614,0.65356
267.642,34.03103,-0.03357,0.38407,0.65345
268.242,34.0845,-0.03356895,0.38076,0.65334
268.842,34.13794,-0.03457451,0.37857,0.65323
269.442,34.19148,-0.03501795,0.37648,0.65312
270.042,34.2451,-0.03587046,0.37367,0.65301
270.642,34.29868,-0.03587,0.37385,0.6529
271.242,34.35219,-0.03586998,0.375,0.65279
271.842,34.4054,-0.03589505,0.37486,0.65267
272.442,34.45883,-0.03719348,0.37247,0.65256
273.042,34.51236,-0.03587366,0.37355,0.65244
273.642,34.56627,-0.03486771,0.37447,0.65232
274.242,34.62024,-0.03488,0.37321,0.6522
274.842,34.674,-0.03487999,0.37283,0.65209
275.442,34.72767,-0.03489,0.37496,0.65197
276.042,34.78133,-0.03653043,0.3719,0.65185
276.642,34.83488,-0.03524509,0.37258,0.65172
277.242,34.8886,-0.0368558,0.37108,0.6516
277.842,34.94226,-0.0355349,0.3736,0.65148
278.442,34.99603,-0.03661331,0.37134,0.65135
279.042,35.0499,-0.03684837,0.37404,0.65123
279.642,35.10368,-0.03785049,0.37471,0.6511
280.242,35.1575,-0.03785624,0.37458,0.65097
280.842,35.2112,-0.036531,0.3775,0.65085
281.442,35.26502,-0.03669555,0.37346,0.65072
282.042,35.31889,-0.03686021,0.37382,0.65059
282.642,35.37265,-0.03790655,0.37553,0.65046
283.242,35.42671,-0.0377985,0.37598,0.65032
283.842,35.48073,-0.03916168,0.3741,0.65019
284.442,35.5347,-0.04016114,0.37589,0.65006
285.042,35.5889,-0.04016,0.37558,0.64992
285.642,35.64286,-0.04015995,0.37495,0.64979
286.242,35.69685,-0.04022025,0.37418,0.64965
286.842,35.75083,-0.03811516,0.37544,0.64952
287.442,35.80482,-0.03785087,0.37628,0.64938
288.042,35.85868,-0.03912173,0.37639,0.64924
288.642,35.91274,-0.03997113,0.37522,0.6491
289.242,35.96671,-0.04049026,0.37836,0.64896
289.842,36.02089,-0.04048992,0.3808,0.64882
290.442,36.0751,-0.04096324,0.37646,0.64867
291.042,36.12937,-0.04179996,0.37737,0.64853
291.642,36.18365,-0.04162547,0.3776,0.64839
292.242,36.2378,-0.04065895,0.37995,0.64824
292.842,36.29195,-0.0418004,0.37723,0.6481
293.442,36.3461,-0.04179999,0.37797,0.64795
294.042,36.40039,-0.04179829,0.37658,0.6478
294.642,36.45453,-0.04049154,0.37709,0.64765
295.242,36.5087,-0.04049105,0.37906,0.6475
295.842,36.56286,-0.04091154,0.37793,0.64735
296.442,36.61685,-0.04047981,0.37797,0.6472
297.042,36.67107,-0.04046989,0.37798,0.64705
297.642,36.72533,-0.0418167,0.37629,0.6469
298.242,36.77949,-0.0431188,0.37572,0.64675
298.842,36.83384,-0.04309703,0.37738,0.64659
299.442,36.88808,-0.04442362,0.37717,0.64644
300.042,36.94236,-0.04443,0.37524,0.64628
300.642,36.9966,-0.04441811,0.37674,0.64612
301.242,37.05082,-0.04443136,0.3763,0.64597
301.842,37.10524,-0.0453051,0.37746,0.64581
302.442,37.15951,-0.04479249,0.37759,0.64565
303.042,37.21375,-0.04442997,0.3774,0.64549
303.642,37.26806,-0.04443,0.37433,0.64533
304.242,37.3221,-0.04443,0.37614,0.64517
304.842,37.37632,-0.04443,0.37424,0.645
305.442,37.43053,-0.04443,0.37318,0.64484
306.042,37.48471,-0.04443,0.37239,0.64467
306.642,37.539,-0.04442998,0.37055,0.64451
307.242,37.5934,-0.04436448,0.37167,0.64434
307.842,37.64747,-0.04574562,0.37155,0.64418
308.442,37.70167,-0.04641182,0.37231,0.64401
309.042,37.7559,-0.0477257,0.37062,0.64384
309.642,37.81012,-0.04771931,0.371,0.64367
310.242,37.86459,-0.04804934,0.36999,0.6435
310.842,37.919,-0.04805,0.37237,0.64333
311.442,37.97313,-0.04804994,0.37271,0.64316
312.042,38.0272,-0.0481167,0.36761,0.64299
312.642,38.08093,-0.04738984,0.36748,0.64282
313.242,38.13477,-0.04733594,0.37033,0.64264
313.842,38.18874,-0.04838028,0.36855,0.64247
314.442,38.24305,-0.04838483,0.37089,0.64229
315.042,38.29746,-0.04741526,0.36912,0.64211
315.642,38.35185,-0.0487489,0.37053,0.64194
316.242,38.40648,-0.04754481,0.3684,0.64176
316.842,38.4609,-0.04871023,0.36999,0.64158
317.442,38.51532,-0.04869583,0.36962,0.6414
318.042,38.56985,-0.04836766,0.37003,0.64122
318.642,38.62429,-0.04948334,0.36854,0.64104
319.242,38.6787,-0.05001594,0.37165,0.64086
319.842,38.73317,-0.05133818,0.37302,0.64068
320.442,38.7879,-0.05134,0.37366,0.64049
321.042,38.84256,-0.05134,0.37187,0.64031
321.642,38.89716,-0.05134,0.37228,0.64013
322.242,38.95169,-0.05134,0.37274,0.63994
322.842,39.00605,-0.05133962,0.37262,0.63975
323.442,39.06057,-0.05201797,0.37191,0.63957
324.042,39.1153,-0.0523293,0.37657,0.63938
324.642,39.17028,-0.05233,0.37446,0.63919
325.242,39.22529,-0.05233,0.3731,0.639
325.842,39.28033,-0.05233001,0.37441,0.63881
326.442,39.3354,-0.0532289,0.37324,0.63862
327.042,39.38997,-0.05332253,0.37405,0.63843
327.642,39.44455,-0.05232951,0.37462,0.63824
328.242,39.4992,-0.05232892,0.37528,0.63804
328.842,39.55402,-0.05257577,0.37604,0.63785
329.442,39.6089,-0.0539701,0.37422,0.63766
330.042,39.6638,-0.05396962,0.37478,0.63746
330.642,39.7186,-0.05531573,0.37462,0.63727
331.242,39.773,-0.05670184,0.37485,0.63707
331.842,39.82767,-0.05660994,0.37418,0.63687
332.442,39.88238,-0.05661,0.37319,0.63667
333.042,39.9371,-0.05661,0.37567,0.63648
333.642,39.99215,-0.05660994,0.37181,0.63628
334.242,40.0471,-0.05681956,0.37308,0.63608
334.842,40.102,-0.05727029,0.37266,0.63588
335.442,40.1569,-0.0578639,0.37288,0.63567
336.042,40.2119,-0.05923505,0.37458,0.63547
336.642,40.2667,-0.05790728,0.37537,0.63527
337.242,40.3215,-0.06020724,0.37187,0.63506
337.842,40.37627,-0.06054912,0.37379,0.63486
338.442,40.4311,-0.05924095,0.37481,0.63466
339.042,40.48595,-0.0592418,0.3762,0.63445
339.642,40.54085,-0.0606781,0.37708,0.63424
340.242,40.5958,-0.06066998,0.37693,0.63404
340.842,40.65065,-0.06067002,0.37511,0.63383
341.442,40.70576,-0.06160776,0.37768,0.63362
342.042,40.76077,-0.06197901,0.37852,0.63341
342.642,40.81585,-0.06329617,0.38096,0.6332
343.242,40.87075,-0.06329,0.38108,0.63299
343.842,40.9257,-0.06327279,0.37717,0.63278
344.442,40.98068,-0.06329362,0.37837,0.63257
345.042,41.0358,-0.06330015,0.3794,0.63236
345.642,41.0907,-0.06334729,0.37669,0.63214
346.242,41.14573,-0.06461174,0.38242,0.63193
346.842,41.20084,-0.06591924,0.37854,0.63171
347.442,41.25588,-0.06460225,0.38285,0.6315
348.042,41.31102,-0.06429033,0.38679,0.63128
348.642,41.3662,-0.06429001,0.38201,0.63107
349.242,41.42119,-0.06429543,0.38439,0.63085
349.842,41.4763,-0.06561292,0.38566,0.63063
350.442,41.5316,-0.06691237,0.38577,0.63041
351.042,41.58668,-0.06656806,0.38421,0.6302
351.642,41.6419,-0.06795057,0.38291,0.62998
352.242,41.69705,-0.06790997,0.38438,0.62976
352.842,41.75221,-0.06792125,0.3849,0.62953
353.442,41.80749,-0.069219,0.38647,0.62931
354.042,41.86271,-0.06921998,0.38323,0.62909
354.642,41.91792,-0.0692415,0.38211,0.62887
355.242,41.97327,-0.07054073,0.38483,0.62864
355.842,42.0284,-0.06998113,0.3875,0.62842
356.442,42.0837,-0.07120069,0.38564,0.6282
357.042,42.13898,-0.07244263,0.38452,0.62797
357.642,42.19407,-0.07250992,0.38619,0.62774
358.242,42.24925,-0.07249017,0.3875,0.62752
358.842,42.30455,-0.07381902,0.3876,0.62729
359.442,42.36,-0.07382,0.38721,0.62706
360.042,42.4154,-0.07372603,0.38824,0.62684
360.642,42.47068,-0.07513989,0.39208,0.62661
361.242,42.52595,-0.07653772,0.39254,0.62638
361.842,42.5813,-0.07645845,0.39139,0.62615
362.442,42.63669,-0.07712721,0.3909,0.62592
363.042,42.69214,-0.07643802,0.39273,0.62568
363.642,42.7475,-0.07772506,0.39089,0.62545
364.242,42.80288,-0.07910408,0.39328,0.62522
364.842,42.85835,-0.07906025,0.39325,0.62499
365.442,42.9139,-0.08040187,0.39322,0.62475
366.042,42.9694,-0.08172084,0.39801,0.62452
366.642,43.02495,-0.08093743,0.3999,0.62428
367.242,43.0805,-0.0821021,0.3979,0.62405
367.842,43.13593,-0.08294436,0.39676,0.62381
368.442,43.19119,-0.08435253,0.39898,0.62358
369.042,43.24662,-0.08436991,0.40298,0.62334
369.642,43.30215,-0.08567637,0.40514,0.6231
370.242,43.3577,-0.08566998,0.40451,0.62286
370.842,43.41372,-0.08641505,0.40692,0.62262
371.442,43.46938,-0.08852697,0.40755,0.62238
372.042,43.52485,-0.08877381,0.4105,0.62214
372.642,43.58047,-0.09021038,0.41188,0.6219
373.242,43.63588,-0.09123876,0.40921,0.62166
373.842,43.69149,-0.09387353,0.4132,0.62142
374.442,43.74726,-0.09390009,0.41549,0.62118
375.042,43.80299,-0.09540927,0.41714,0.62094
375.642,43.85875,-0.09833345,0.42086,0.62069
376.242,43.91442,-0.09971741,0.42296,0.62045
376.842,43.97012,-0.10102,0.42225,0.6202
377.442,44.02601,-0.10234,0.42421,0.61996
378.042,44.08183,-0.10366,0.42856,0.61971
378.642,44.13756,-0.10496,0.43368,0.61947
379.242,44.19331,-0.10641,0.43406,0.61922
379.842,44.24905,-0.10772,0.4347,0.61897
380.442,44.30495,-0.11032,0.43992,0.61873
381.042,44.36092,-0.11265,0.44216,0.61848
381.642,44.41673,-0.11542,0.44739,0.61823
382.242,44.4727,-0.11832,0.44747,0.61798
382.842,44.5287,-0.11995,0.45054,0.61773
383.442,44.58467,-0.12007,0.45385,0.61748
384.042,44.6404,-0.12324,0.45643,0.61723
384.642,44.69617,-0.12615,0.45985,0.61698
385.242,44.7521,-0.12896,0.45901,0.61673
385.842,44.808,-0.13349,0.46187,0.61648
386.442,44.86449,-0.13496,0.46422,0.61622
387.042,44.92047,-0.13912,0.46786,0.61597
387.642,44.97643,-0.14103,0.46947,0.61572
388.242,45.03268,-0.14532,0.47111,0.61546
388.842,45.0887,-0.14848,0.47584,0.61521
389.442,45.14484,-0.1526,0.47376,0.61495
390.042,45.20088,-0.15439,0.48041,0.6147
390.642,45.2569,-0.15942,0.47953,0.61444
391.242,45.31292,-0.16388,0.48669,0.61418
391.842,45.36893,-0.16858,0.48829,0.61393
392.442,45.4249,-0.17331,0.49399,0.61367
393.042,45.48086,-0.17906,0.49484,0.61341
393.642,45.53694,-0.18255,0.50168,0.61315
394.242,45.5929,-0.18582,0.50255,0.61289
394.842,45.64897,-0.19411,0.50306,0.61263
395.442,45.70496,-0.19959,0.5091,0.61237
396.042,45.76093,-0.20377,0.51009,0.61211
396.642,45.81707,-0.20928,0.51426,0.61185
397.242,45.87318,-0.21722,0.52251,0.61159
397.842,45.92949,-0.22599,0.52754,0.61133
398.442,45.9859,-0.22999,0.53612,0.61107
399.042,46.04221,-0.23257,0.54482,0.6108
399.642,46.09868,-0.24143,0.54674,0.61054
400.242,46.15481,-0.24823,0.54108,0.61028
400.842,46.2111,-0.25481,0.54017,0.61001
401.442,46.26732,-0.26302,0.53346,0.60975
402.042,46.32362,-0.27016,0.53422,0.60948
402.642,46.38006,-0.27686,0.5291,0.60922
403.242,46.43638,-0.28773,0.52779,0.60895
403.842,46.49286,-0.29545,0.52924,0.60869
404.442,46.54922,-0.30699,0.52989,0.60842
405.042,46.60539,-0.31466,0.53331,0.60815
405.642,46.66171,-0.32519,0.53532,0.60789
406.242,46.71781,-0.33682,0.53273,0.60762
406.842,46.77413,-0.34537,0.53092,0.60735
407.442,46.83038,-0.35523,0.53509,0.60708
408.042,46.8867,-0.36595,0.53214,0.60681
408.642,46.94331,-0.37558,0.53383,0.60654
409.242,46.99969,-0.38831,0.53893,0.60627
409.842,47.05616,-0.39851,0.53928,0.606
410.442,47.11262,-0.41077,0.54694,0.60573
411.042,47.1689,-0.42367,0.55295,0.60546
411.642,47.22542,-0.43731,0.56132,0.60519
412.242,47.28148,-0.45092,0.5668,0.60492
412.842,47.33815,-0.46482,0.57758,0.60464
413.442,47.39505,-0.47861,0.58878,0.60437
414.042,47.45203,-0.49414,0.59636,0.6041
414.642,47.50892,-0.51034,0.60144,0.60382
415.242,47.56544,-0.52539,0.61566,0.60355
415.842,47.62223,-0.54273,0.62778,0.60328
416.442,47.67885,-0.56173,0.63745,0.603
417.042,47.73563,-0.58121,0.65085,0.60273
417.642,47.79242,-0.59802,0.66477,0.60245
418.242,47.84913,-0.61804,0.68114,0.60217
418.842,47.90597,-0.63923,0.69012,0.6019
419.442,47.96285,-0.6609,0.70145,0.60162
420.042,48.01977,-0.6838,0.71705,0.60134
420.642,48.0766,-0.70701,0.73335,0.60107
421.242,48.13345,-0.73042,0.75012,0.60079
421.842,48.1903,-0.7551,0.76522,0.60051
422.442,48.24733,-0.78109,0.7817,0.60023
423.042,48.30435,-0.80678,0.79818,0.59995
423.642,48.36146,-0.83421,0.80785,0.59968
424.242,48.41833,-0.86262,0.82597,0.5994
424.842,48.47533,-0.8923,0.84263,0.59912
425.442,48.5325,-0.92289,0.85256,0.59884
426.042,48.58959,-0.95354,0.86534,0.59856
426.642,48.64676,-0.9845,0.89326,0.59827
427.242,48.704,-1.01686,0.925,0.59799
427.842,48.7612,-1.05284,0.95113,0.59771
428.442,48.81852,-1.08885,0.96944,0.59743
429.042,48.87578,-1.12415,0.99823,0.59715
429.642,48.93302,-1.16284,1.01199,0.59686
430.242,48.99023,-1.2012,1.02348,0.59658
430.842,49.04716,-1.23897,1.03152,0.5963
431.442,49.10426,-1.27876,1.04139,0.59602
432.042,49.16145,-1.31631,1.05345,0.59573
432.642,49.21873,-1.36149,1.06203,0.59545
433.242,49.2761,-1.40247,1.06776,0.59516
433.842,49.33336,-1.44417,1.07564,0.59488
434.442,49.39053,-1.48888,1.08356,0.59459
435.042,49.4478,-1.53039,1.08458,0.59431
435.642,49.5051,-1.57533,1.08588,0.59402
436.242,49.56244,-1.61797,1.09406,0.59374
436.842,49.61975,-1.66516,1.09374,0.59345
437.442,49.6768,-1.7084,1.09614,0.59316
438.042,49.7338,-1.75498,1.09333,0.59288
438.642,49.79088,-1.79998,1.0932,0.59259
439.242,49.84815,-1.8441,1.09033,0.5923
439.842,49.90533,-1.89381,1.08619,0.59201
440.442,49.9627,-1.93622,1.08007,0.59173
441.042,50.0199,-1.98208,1.07201,0.59144
441.642,50.077,-2.02525,1.0625,0.59115
442.242,50.13387,-2.07126,1.05018,0.59086
442.842,50.1909,-2.11358,1.03589,0.59057
443.442,50.24816,-2.15681,1.02389,0.59028
444.042,50.3056,-2.20135,1.0085,0.58999
444.642,50.36305,-2.23924,0.99439,0.5897
445.242,50.42023,-2.27835,0.97041,0.58941
445.842,50.47742,-2.3157,0.95085,0.58912
446.442,50.53455,-2.35459,0.93099,0.58883
447.042,50.5916,-2.39259,0.90273,0.58854
447.642,50.64893,-2.42789,0.87572,0.58825
448.242,50.70597,-2.46174,0.8577,0.58796
448.842,50.7633,-2.49242,0.82492,0.58766
449.442,50.82055,-2.52383,0.79611,0.58737
450.042,50.87753,-2.54844,0.76751,0.58708
450.642,50.93476,-2.57333,0.73977,0.58679
451.242,50.99183,-2.60003,0.70924,0.58649
451.842,51.0488,-2.6203,0.68078,0.5862
452.442,51.106,-2.64303,0.64965,0.58591
453.042,51.1631,-2.66167,0.6244,0.58561
453.642,51.22015,-2.68276,0.60211,0.58532
454.242,51.27752,-2.70017,0.58259,0.58503
454.842,51.33485,-2.71515,0.56053,0.58473
455.442,51.39213,-2.73023,0.54388,0.58444
456.042,51.44942,-2.74545,0.52836,0.58414
456.642,51.5066,-2.75977,0.51256,0.58385
457.242,51.56394,-2.77081,0.50169,0.58355
457.842,51.62129,-2.78502,0.48905,0.58326
458.442,51.67861,-2.79659,0.47633,0.58296
459.042,51.73608,-2.80721,0.46886,0.58266
459.642,51.79345,-2.81553,0.45915,0.58237
460.242,51.85085,-2.82571,0.44775,0.58207
460.842,51.9082,-2.83748,0.43617,0.58178
461.442,51.9651,-2.84911,0.42922,0.58148
462.042,52.0223,-2.85308,0.41527,0.58118
462.642,52.07907,-2.86091,0.40441,0.58089
463.242,52.13625,-2.86934,0.39761,0.58059
463.842,52.1938,-2.87586,0.38367,0.58029
464.442,52.2513,-2.88229,0.37459,0.57999
465.042,52.30901,-2.89025,0.36565,0.57969
465.642,52.3671,-2.89756,0.35339,0.5794
466.242,52.42465,-2.90386,0.34576,0.5791
466.842,52.4821,-2.91156,0.3357,0.5788
467.442,52.53963,-2.91533,0.32308,0.5785
468.042,52.5971,-2.92262,0.31837,0.5782
468.642,52.6548,-2.92802,0.30938,0.5779
469.242,52.71252,-2.9322,0.30472,0.5776
469.842,52.77009,-2.93511,0.29601,0.5773
470.442,52.8277,-2.93952,0.28794,0.57701
471.042,52.88539,-2.94271,0.28182,0.57671
471.642,52.94301,-2.94683,0.27554,0.57641
472.242,53.0008,-2.95139,0.26735,0.57611
472.842,53.0585,-2.95585,0.26532,0.57581
473.442,53.11616,-2.95898,0.25466,0.5755
474.042,53.17383,-2.96274,0.25378,0.5752
474.642,53.2316,-2.96654,0.24917,0.5749
475.242,53.28932,-2.96974,0.24339,0.5746
475.842,53.347,-2.97257,0.24241,0.5743
476.442,53.4048,-2.9772,0.23602,0.574
477.042,53.4628,-2.98084,0.23191,0.5737
477.642,53.5207,-2.98473,0.22725,0.5734
478.242,53.5786,-2.98646,0.2286,0.5731
478.842,53.63632,-2.99083,0.22427,0.57279
479.442,53.6941,-2.99261,0.22452,0.57249
480.042,53.7521,-2.99562,0.22162,0.57219
480.642,53.81005,-2.99652,0.21712,0.57189
481.242,53.86809,-2.99808,0.21658,0.57159
481.842,53.926,-3.00022,0.21342,0.57128
482.442,53.98385,-3.00157,0.21504,0.57098
483.042,54.0417,-3.00157,0.21299,0.57068
483.642,54.0998,-3.00221,0.202,0.57037
484.242,54.15784,-3.00766,0.20116,0.57007
484.842,54.21591,-3.01019,0.20365,0.56977
485.442,54.274,-3.0121,0.20058,0.56947
486.042,54.3321,-3.01343,0.19846,0.56916
486.642,54.39011,-3.01584,0.19747,0.56886
487.242,54.4482,-3.01638,0.19652,0.56855
487.842,54.5062,-3.01632,0.2006,0.56825
488.442,54.5644,-3.01934,0.19673,0.56795
489.042,54.62254,-3.01923,0.19937,0.56764
489.642,54.68075,-3.02056,0.20076,0.56734
490.242,54.73874,-3.02187,0.19604,0.56704
490.842,54.7967,-3.02317,0.19975,0.56673
491.442,54.8548,-3.02461,0.19779,0.56643
492.042,54.91291,-3.02463,0.19694,0.56612
492.642,54.97101,-3.02404,0.20449,0.56582
493.242,55.029,-3.02604,0.20606,0.56551
493.842,55.087,-3.02711,0.2075,0.56521
494.442,55.14518,-3.02875,0.20859,0.5649
495.042,55.20329,-3.02749,0.21021,0.5646
495.642,55.26177,-3.02875,0.21748,0.56429
496.242,55.3199,-3.03074,0.21407,0.56399
496.842,55.37815,-3.03108,0.21655,0.56368
497.442,55.43635,-3.0343,0.21419,0.56338
498.042,55.4945,-3.03691,0.21679,0.56307
498.642,55.55281,-3.03865,0.21318,0.56277
499.242,55.61096,-3.03864,0.20918,0.56246
499.842,55.66901,-3.03952,0.21214,0.56216
500.442,55.7273,-3.04007,0.21736,0.56185
501.042,55.7851,-3.04146,0.21918,0.56155
501.642,55.84341,-3.03513,0.22197,0.56124
502.242,55.90144,-3.05402,0.22304,0.56093
502.842,55.95949,-3.04676,0.22791,0.56063
503.442,56.01831,-3.04676,0.22972,0.56032
504.042,56.0768,-3.04801,0.22831,0.56002
504.642,56.13553,-3.04688,0.23058,0.55971
505.242,56.19419,-3.04687,0.2292,0.5594
505.842,56.25277,-3.04686,0.23115,0.5591
506.442,56.3113,-3.04448,0.23504,0.55879
507.042,56.3697,-3.03847,0.23089,0.55849
507.642,56.4281,-3.05463,0.22999,0.55818
508.242,56.4866,-3.04634,0.23164,0.55787
508.842,56.54515,-3.04793,0.2353,0.55757
509.442,56.6036,-3.04809,0.23755,0.55726
510.042,56.662,-3.04806,0.24025,0.55695
510.642,56.72056,-3.04829,0.24053,0.55665
511.242,56.77921,-3.04831,0.2415,0.55634
511.842,56.83795,-3.04961,0.24202,0.55603
512.442,56.8966,-3.05094,0.24516,0.55573
513.042,56.95522,-3.05226,0.24438,0.55542
513.642,57.01376,-3.05093,0.24676,0.55511
514.242,57.07255,-3.05024,0.24939,0.55481
514.842,57.13137,-3.0535,0.24915,0.5545
515.442,57.1903,-3.05639,0.24919,0.55419
516.042,57.24896,-3.05518,0.25334,0.55389
516.642,57.30754,-3.05411,0.25304,0.55358
517.242,57.36619,-3.05411,0.25425,0.55327
517.842,57.42504,-3.05411,0.25682,0.55297
518.442,57.48381,-3.05561,0.25874,0.55266
519.042,57.5426,-3.05707,0.25991,0.55235
519.642,57.6014,-3.05839,0.2614,0.55205
520.242,57.66,-3.05839,0.26204,0.55174
520.842,57.7188,-3.0598,0.25943,0.55143
521.442,57.77749,-3.06113,0.25876,0.55113
522.042,57.83619,-3.06242,0.25958,0.55082
522.642,57.8951,-3.065,0.26393,0.55051
523.242,57.954,-3.06502,0.25931,0.55021
523.842,58.0128,-3.06367,0.25824,0.5499
524.442,58.07135,-3.06365,0.2609,0.54959
525.042,58.1299,-3.06365,0.26252,0.54929
525.642,58.1885,-3.06497,0.26369,0.54898
526.242,58.24734,-3.06366,0.26372,0.54867
526.842,58.30614,-3.06367,0.26505,0.54837
527.442,58.3649,-3.06535,0.26136,0.54806
528.042,58.42357,-3.06657,0.26765,0.54775
528.642,58.4822,-3.06694,0.26532,0.54745
529.242,58.5409,-3.06563,0.26418,0.54714
529.842,58.59965,-3.06593,0.26753,0.54683
530.442,58.65846,-3.0641,0.26651,0.54653
531.042,58.7173,-3.06684,0.26706,0.54622
531.642,58.7762,-3.06815,0.26815,0.54591
532.242,58.83503,-3.06655,0.26431,0.54561
532.842,58.894,-3.06669,0.26745,0.5453
533.442,58.953,-3.06815,0.26976,0.54499
534.042,59.0121,-3.06947,0.2682,0.54469
534.642,59.07122,-3.06947,0.27152,0.54438
535.242,59.1302,-3.06815,0.27099,0.54407
535.842,59.1892,-3.07038,0.27148,0.54377
536.442,59.2482,-3.07196,0.27224,0.54346
537.042,59.30698,-3.07277,0.27305,0.54316
537.642,59.366,-3.07275,0.27582,0.54285
538.242,59.4249,-3.07416,0.27667,0.54254
538.842,59.48389,-3.07407,0.27662,0.54224
539.442,59.54314,-3.07407,0.27775,0.54193
540.042,59.60219,-3.07537,0.27994,0.54163
540.642,59.66141,-3.0766,0.28224,0.54132
541.242,59.72068,-3.07538,0.28226,0.54101
541.842,59.7799,-3.07538,0.28465,0.54071
542.442,59.8392,-3.0767,0.28272,0.5404
543.042,59.89849,-3.0767,0.27974,0.5401
543.642,59.95766,-3.07666,0.27991,0.53979
544.242,60.01681,-3.07951,0.28029,0.53949
544.842,60.07604,-3.07813,0.27977,0.53918
545.442,60.13511,-3.07945,0.27938,0.53888
546.042,60.1943,-3.07944,0.27965,0.53857
546.642,60.25342,-3.07944,0.278,0.53827
547.242,60.3126,-3.07941,0.28266,0.53796
547.842,60.37165,-3.08076,0.28203,0.53766
548.442,60.4308,-3.08076,0.28157,0.53735
549.042,60.48984,-3.08076,0.28378,0.53705
549.642,60.5489,-3.08209,0.28358,0.53674
550.242,60.6082,-3.08306,0.27818,0.53644
550.842,60.6673,-3.08307,0.28102,0.53613
551.442,60.72668,-3.08208,0.28467,0.53583
552.042,60.7858,-3.08208,0.2841,0.53552
552.642,60.8449,-3.08487,0.28519,0.53522
553.242,60.90396,-3.08394,0.28667,0.53491
553.842,60.9633,-3.08384,0.28999,0.53461
554.442,61.02234,-3.08416,0.28676,0.53431
555.042,61.0814,-3.08416,0.28531,0.534
555.642,61.1408,-3.08419,0.28348,0.5337
556.242,61.20013,-3.08448,0.28606,0.53339
556.842,61.2598,-3.08416,0.28413,0.53309
557.442,61.3193,-3.08549,0.28436,0.53279
558.042,61.3787,-3.0868,0.2864,0.53248
558.642,61.4383,-3.08682,0.2852,0.53218
559.242,61.49771,-3.08778,0.29007,0.53188
559.842,61.5572,-3.08778,0.29195,0.53157
560.442,61.6168,-3.08884,0.29099,0.53127
561.042,61.67655,-3.08738,0.29228,0.53097
561.642,61.7363,-3.08606,0.2925,0.53066
562.242,61.79589,-3.08669,0.29337,0.53036
562.842,61.8554,-3.08835,0.29395,0.53006
563.442,61.9148,-3.08879,0.29726,0.52976
564.042,61.97433,-3.09002,0.29753,0.52945
564.642,62.0339,-3.0907,0.29484,0.52915
565.242,62.09349,-3.08942,0.29816,0.52885
565.842,62.1529,-3.08936,0.29724,0.52855
566.442,62.2122,-3.09072,0.29842,0.52825
567.042,62.27176,-3.09139,0.29706,0.52794
567.642,62.3313,-3.0914,0.30245,0.52764
568.242,62.3908,-3.09182,0.30178,0.52734
568.842,62.45055,-3.09458,0.30326,0.52704
569.442,62.5102,-3.09645,0.30343,0.52674
570.042,62.5699,-3.09787,0.30326,0.52644
570.642,62.62939,-3.09787,0.303,0.52614
571.242,62.6888,-3.0953,0.30167,0.52584
571.842,62.74827,-3.09656,0.30426,0.52554
572.442,62.808,-3.09788,0.3057,0.52524
573.042,62.8676,-3.09885,0.30598,0.52494
573.642,62.92742,-3.10017,0.30825,0.52464
574.242,62.98698,-3.10041,0.30591,0.52434
574.842,63.04648,-3.09912,0.30957,0.52404
575.442,63.1059,-3.10018,0.31158,0.52374
576.042,63.16545,-3.10126,0.31348,0.52344
576.642,63.22515,-3.1011,0.31215,0.52314
577.242,63.28499,-3.10215,0.31182,0.52284
577.842,63.3448,-3.10215,0.31379,0.52254
578.442,63.40439,-3.10216,0.31482,0.52224
579.042,63.4642,-3.10083,0.31658,0.52194
579.642,63.52401,-3.10083,0.31818,0.52164
580.242,63.58418,-3.10034,0.31688,0.52134
580.842,63.6441,-3.10019,0.3178,0.52104
581.442,63.7039,-3.10147,0.32034,0.52075
582.042,63.76355,-3.10424,0.32227,0.52045
582.642,63.8233,-3.10435,0.323,0.52015
583.242,63.88306,-3.10435,0.32827,0.51985
583.842,63.9429,-3.10435,0.32418,0.51956
584.442,64.00277,-3.10435,0.32456,0.51926
585.042,64.0627,-3.10447,0.32611,0.51896
585.642,64.12265,-3.10566,0.32714,0.51866
586.242,64.18251,-3.10566,0.32582,0.51837
586.842,64.24221,-3.10566,0.32823,0.51807
587.442,64.30198,-3.10434,0.32859,0.51777
588.042,64.36165,-3.10434,0.3305,0.51748
588.642,64.42134,-3.10566,0.32985,0.51718
589.242,64.4812,-3.10702,0.33136,0.51689
589.842,64.54093,-3.10797,0.33238,0.51659
590.442,64.6008,-3.10725,0.33016,0.51629
591.042,64.6605,-3.10798,0.33037,0.516
591.642,64.72028,-3.11059,0.33552,0.5157
592.242,64.78005,-3.10928,0.34009,0.51541
592.842,64.83989,-3.10928,0.33734,0.51511
593.442,64.89986,-3.10961,0.34009,0.51482
594.042,64.95992,-3.11092,0.3403,0.51453
594.642,65.01983,-3.11224,0.3446,0.51423
595.242,65.07973,-3.11225,0.34513,0.51394
595.842,65.13959,-3.11221,0.34645,0.51364
596.442,65.19949,-3.11377,0.34331,0.51335
597.042,65.2595,-3.11509,0.34724,0.51306
597.642,65.31947,-3.11509,0.35043,0.51276
598.242,65.37925,-3.11641,0.34946,0.51247
598.842,65.43899,-3.11641,0.34833,0.51218
599.442,65.49911,-3.11637,0.35029,0.51188
600.042,65.55911,-3.11863,0.35081,0.51159
600.642,65.61931,-3.11904,0.35821,0.5113
601.242,65.67942,-3.11904,0.35882,0.51101
601.842,65.7394,-3.11773,0.3592,0.51072
602.442,65.7991,-3.118,0.35071,0.51042
603.042,65.859,-3.12035,0.35547,0.51013
603.642,65.91901,-3.12043,0.35922,0.50984
604.242,65.97888,-3.12168,0.36008,0.50955
604.842,66.03926,-3.12172,0.36383,0.50926
605.442,66.0993,-3.12107,0.37091,0.50897
606.042,66.15956,-3.1224,0.3717,0.50868
606.642,66.21991,-3.12364,0.37516,0.50839
607.242,66.28009,-3.12365,0.38102,0.5081
607.842,66.34025,-3.12496,0.38767,0.50781
608.442,66.40025,-3.12564,0.39054,0.50752
609.042,66.46053,-3.12497,0.3955,0.50723
609.642,66.52069,-3.12497,0.40035,0.50694
610.242,66.58104,-3.12497,0.40273,0.50665
610.842,66.64132,-3.12628,0.40283,0.50636
611.442,66.70165,-3.12628,0.40312,0.50608
612.042,66.76228,-3.12629,0.40545,0.50579
612.642,66.8227,-3.12761,0.39933,0.5055
613.242,66.88298,-3.12628,0.39819,0.50521
613.842,66.94318,-3.12495,0.40118,0.50492
614.442,67.0033,-3.12497,0.40371,0.50464
615.042,67.0635,-3.12562,0.40135,0.50435
615.642,67.1237,-3.12559,0.40306,0.50406
616.242,67.18386,-3.12858,0.4066,0.50378
616.842,67.2441,-3.12984,0.40533,0.50349
617.442,67.30436,-3.13112,0.40346,0.50321
618.042,67.36458,-3.12854,0.40215,0.50292
618.642,67.42486,-3.12842,0.40255,0.50263
619.242,67.48517,-3.12979,0.402,0.50235
619.842,67.54549,-3.12979,0.39917,0.50206
620.442,67.6058,-3.13119,0.4012,0.50178
621.042,67.6661,-3.13111,0.40468,0.50149
621.642,67.7265,-3.131,0.40896,0.50121
622.242,67.7867,-3.1311,0.41177,0.50093
622.842,67.8469,-3.1311,0.41293,0.50064
623.442,67.90733,-3.1311,0.41637,0.50036
624.042,67.96766,-3.13125,0.42038,0.50008
624.642,68.02796,-3.13301,0.42353,0.49979
625.242,68.08836,-3.13431,0.42651,0.49951
625.842,68.14876,-3.13399,0.42723,0.49923
626.442,68.2093,-3.13528,0.4288,0.49894
627.042,68.26971,-3.13396,0.43179,0.49866
627.642,68.33036,-3.13396,0.43211,0.49838
628.242,68.39075,-3.13076,0.44553,0.4981
628.842,68.45129,-3.13123,0.44286,0.49782
629.442,68.5117,-3.14314,0.44742,0.49754
630.042,68.57206,-3.13563,0.45286,0.49726
630.642,68.63258,-3.13711,0.44968,0.49698
631.242,68.69291,-3.13714,0.45273,0.4967
631.842,68.75332,-3.13714,0.4522,0.49642
632.442,68.8139,-3.13714,0.45033,0.49614
633.042,68.87442,-3.13844,0.43689,0.49586
633.642,68.93516,-3.13979,0.44043,0.49558
634.242,68.9958,-3.14033,0.43662,0.4953
634.842,69.05659,-3.14109,0.44035,0.49502
635.442,69.11723,-3.14114,0.4393,0.49474
636.042,69.17787,-3.13978,0.43964,0.49446
636.642,69.2386,-3.1412,0.43444,0.49418
637.242,69.2993,-3.14255,0.43878,0.49391
637.842,69.35995,-3.1412,0.4401,0.49363
638.442,69.42056,-3.1412,0.44503,0.49335
639.042,69.48139,-3.1412,0.45194,0.49308
639.642,69.54223,-3.1412,0.45485,0.4928
640.242,69.60303,-3.14252,0.45446,0.49252
640.842,69.6638,-3.14315,0.45751,0.49225
641.442,69.72459,-3.14244,0.45873,0.49197
642.042,69.78534,-3.14249,0.45953,0.4917
642.642,69.84616,-3.14251,0.46195,0.49142
643.242,69.90685,-3.14382,0.46568,0.49115
643.842,69.96759,-3.14383,0.46121,0.49087
644.442,70.02831,-3.14431,0.46527,0.4906
645.042,70.0887,-3.14422,0.46884,0.49032
645.642,70.14887,-3.13967,0.4582,0.49005
646.242,70.20939,-3.15073,0.46068,0.48978
646.842,70.27011,-3.14701,0.46369,0.4895
647.442,70.33118,-3.14701,0.46708,0.48923
648.042,70.39228,-3.14566,0.46666,0.48896
648.642,70.4529,-3.1457,0.46439,0.48869
649.242,70.51371,-3.14572,0.46967,0.48841
649.842,70.5746,-3.14692,0.47207,0.48814
650.442,70.63531,-3.14833,0.4716,0.48787
651.042,70.69629,-3.14703,0.47108,0.4876
651.642,70.75709,-3.14701,0.4705,0.48733
652.242,70.81787,-3.14832,0.47163,0.48706
652.842,70.8788,-3.14833,0.47049,0.48679
653.442,70.93952,-3.14623,0.4716,0.48652
654.042,71.00035,-3.14528,0.46637,0.48625
654.642,71.06092,-3.15428,0.46613,0.48598
655.242,71.12179,-3.15012,0.46509,0.48571
655.842,71.18242,-3.15017,0.46297,0.48544
656.442,71.2433,-3.15018,0.45129,0.48517
657.042,71.30409,-3.15024,0.45497,0.4849
657.642,71.36511,-3.14879,0.44769,0.48464
658.242,71.4261,-3.15023,0.44918,0.48437
658.842,71.48687,-3.15019,0.4454,0.4841
659.442,71.54764,-3.15123,0.44191,0.48383
660.042,71.60821,-3.15252,0.44352,0.48357
660.642,71.66881,-3.15254,0.44969,0.4833
661.242,71.7294,-3.15118,0.45131,0.48303
661.842,71.78993,-3.15249,0.44723,0.48277
662.442,71.85077,-3.15249,0.44668,0.4825
663.042,71.9118,-3.1525,0.44815,0.48224
663.642,71.97298,-3.15348,0.452,0.48197
664.242,72.03424,-3.15348,0.45495,0.48171
664.842,72.0955,-3.15257,0.45695,0.48144
665.442,72.15674,-3.15117,0.45255,0.48118
666.042,72.21812,-3.15117,0.45392,0.48092
666.642,72.27937,-3.15117,0.45241,0.48065
667.242,72.34022,-3.15217,0.45185,0.48039
667.842,72.40085,-3.15087,0.45125,0.48013
668.442,72.46151,-3.14986,0.45337,0.47986
669.042,72.52221,-3.15114,0.44987,0.4796
669.642,72.58312,-3.15204,0.45093,0.47934
670.242,72.6441,-3.15272,0.45014,0.47908
670.842,72.70515,-3.14876,0.46832,0.47882
671.442,72.76613,-3.15116,0.46638,0.47856
672.042,72.82711,-3.15862,0.37023,0.4783
672.642,72.88807,-3.15623,0.34968,0.47804
673.242,72.94918,-3.15531,0.34851,0.47778
673.842,73.0103,-3.15489,0.3472,0.47752
674.442,73.07155,-3.15491,0.34919,0.47726
675.042,73.1327,-3.15622,0.34694,0.477
675.642,73.19355,-3.15606,0.34859,0.47674
676.242,73.25455,-3.15358,0.35219,0.47648
676.842,73.31506,-3.155,0.35599,0.47622
677.442,73.3757,-3.15491,0.36128,0.47596
678.042,73.4366,-3.15476,0.36347,0.47571
678.642,73.49756,-3.15045,0.37533,0.47545
679.242,73.55917,-3.15756,0.36751,0.47519
679.842,73.62061,-3.15845,0.36591,0.47494
680.442,73.68228,-3.15587,0.36526,0.47468
681.042,73.7436,-3.15636,0.36967,0.47442
681.642,73.80499,-3.156,0.36968,0.47417
682.242,73.86635,-3.15733,0.37611,0.47391
682.842,73.92761,-3.156,0.3693,0.47366
683.442,73.9892,-3.15781,0.3752,0.4734
684.042,74.05045,-3.15646,0.37899,0.47315
684.642,74.1118,-3.15381,0.37631,0.4729
685.242,74.17321,-3.16197,0.37698,0.47264
685.842,74.23456,-3.15864,0.38101,0.47239
686.442,74.29602,-3.15675,0.38507,0.47214
687.042,74.35705,-3.15841,0.38324,0.47188
687.642,74.4181,-3.15955,0.38265,0.47163
688.242,74.47941,-3.16122,0.38469,0.47138
688.842,74.5406,-3.16222,0.38424,0.47113
689.442,74.60181,-3.15952,0.38767,0.47087
690.042,74.6631,-3.16084,0.3882,0.47062
690.642,74.72449,-3.16354,0.39002,0.47037
691.242,74.7859,-3.16348,0.38834,0.47012
691.842,74.84724,-3.16215,0.39022,0.46987
692.442,74.90836,-3.16236,0.39054,0.46962
693.042,74.9697,-3.16346,0.39332,0.46937
693.642,75.03087,-3.16346,0.3988,0.46912
694.242,75.0923,-3.16346,0.39659,0.46888
694.842,75.1537,-3.16209,0.39849,0.46863
695.442,75.21486,-3.16346,0.39906,0.46838
696.042,75.2758,-3.16457,0.39905,0.46813
696.642,75.33713,-3.16478,0.40229,0.46788
697.242,75.39855,-3.16478,0.40072,0.46764
697.842,75.4605,-3.16508,0.40684,0.46739
698.442,75.52229,-3.16346,0.40672,0.46714
699.042,75.58395,-3.16488,0.40928,0.4669
699.642,75.64545,-3.16478,0.4076,0.46665
700.242,75.7068,-3.1654,0.40354,0.46641
700.842,75.76828,-3.16544,0.40355,0.46616
701.442,75.82965,-3.16543,0.40332,0.46592
702.042,75.89129,-3.16676,0.39475,0.46567
702.642,75.95268,-3.16676,0.39582,0.46543
703.242,76.01428,-3.16681,0.40081,0.46518
703.842,76.07565,-3.16808,0.40182,0.46494
704.442,76.13705,-3.16678,0.40103,0.4647
705.042,76.1985,-3.16677,0.40432,0.46445
705.642,76.26005,-3.16742,0.4113,0.46421
706.242,76.3215,-3.16742,0.41949,0.46397
706.842,76.38291,-3.16676,0.4203,0.46373
707.442,76.44428,-3.16676,0.42682,0.46349
708.042,76.50576,-3.16675,0.43006,0.46324
708.642,76.56719,-3.16742,0.42849,0.463
709.242,76.6287,-3.16741,0.42522,0.46276
709.842,76.69037,-3.16741,0.42267,0.46252
710.442,76.75187,-3.16741,0.4191,0.46228
711.042,76.8134,-3.16874,0.41984,0.46204
711.642,76.87473,-3.16931,0.41657,0.4618
712.242,76.93607,-3.17137,0.41764,0.46157
712.842,76.9975,-3.17156,0.41356,0.46133
713.442,77.05884,-3.17136,0.40924,0.46109
714.042,77.1203,-3.17268,0.40316,0.46085
714.642,77.18172,-3.17268,0.4023,0.46061
715.242,77.24332,-3.17268,0.40094,0.46038
715.842,77.3047,-3.17007,0.41049,0.46014
716.442,77.36587,-3.16672,0.40555,0.4599
717.042,77.42725,-3.1727,0.41112,0.45967
717.642,77.4889,-3.16906,0.41541,0.45943
718.242,77.55074,-3.16946,0.42121,0.4592
718.842,77.61267,-3.17038,0.42499,0.45896
719.442,77.67433,-3.17034,0.43173,0.45873
720.042,77.73586,-3.1717,0.43988,0.45849
720.642,77.79725,-3.1717,0.44102,0.45826
721.242,77.85876,-3.17174,0.44358,0.45802
721.842,77.9204,-3.17169,0.44289,0.45779
722.442,77.98228,-3.17169,0.4484,0.45756
723.042,78.0442,-3.17169,0.44234,0.45733
723.642,78.10594,-3.17178,0.44452,0.45709
724.242,78.16735,-3.17302,0.44711,0.45686
724.842,78.22845,-3.17221,0.4451,0.45663
725.442,78.28973,-3.17441,0.43128,0.4564
726.042,78.35132,-3.17399,0.42994,0.45617
726.642,78.41315,-3.17312,0.42347,0.45594
727.242,78.4751,-3.17424,0.42315,0.45571
727.842,78.53667,-3.17449,0.42444,0.45548
728.442,78.5982,-3.17586,0.42678,0.45525
729.042,78.65985,-3.17488,0.43172,0.45502
729.642,78.72156,-3.17465,0.43392,0.45479
730.242,78.7834,-3.17465,0.43984,0.45456
730.842,78.84496,-3.17594,0.43695,0.45433
731.442,78.9066,-3.17728,0.43719,0.4541
732.042,78.9683,-3.17728,0.4388,0.45387
732.642,79.0301,-3.17728,0.43936,0.45365
733.242,79.0919,-3.17729,0.43751,0.45342
733.842,79.1538,-3.17915,0.44422,0.45319
734.442,79.21562,-3.17884,0.44125,0.45297
735.042,79.27735,-3.17882,0.44046,0.45274
735.642,79.33926,-3.18013,0.44588,0.45252
736.242,79.4007,-3.18014,0.44275,0.45229
736.842,79.46214,-3.18014,0.4414,0.45207
737.442,79.52338,-3.17673,0.44427,0.45184
738.042,79.58521,-3.18305,0.43663,0.45162
738.642,79.6472,-3.18453,0.44204,0.45139
739.242,79.70944,-3.1832,0.44174,0.45117
739.842,79.7713,-3.18218,0.44175,0.45095
740.442,79.833,-3.18189,0.43685,0.45072
741.042,79.89463,-3.18298,0.44214,0.4505
741.642,79.95621,-3.18288,0.44026,0.45028
742.042,79.9978,-3.18288,0.44327,0.45013