File: 01_Data/Cotton_Raw/MCC/Cotton_Raw_MCC_30K_min_210708_R1.txt
Sample ID:	C:\MCC\MCC Cal\Test\New folder\Cotton_Raw_MCC_30K_min_210708_R1.txt
Sample Weight (mg):	4
Heating Rate (C/s):	0.5
Combustor Temp (C):	900
N2 Flow Rate (cc/min):	80
O2 Flow Rate (cc/min):	20
Calibration File:	C:\MCC\MCC Cal\Coeff1 JN10440_30_210304.txt.txt
T Correction Coefficients:	0	1.024463	0
Time Shift (s):	14
*
Time (s)	Temperature (C)	N2 flow rate (cc/min)	O2 flow rate (cc/min)	Flow Rate (cc/min)	Oxygen (%)	HRR (W/g)	Heating rate (C/s)
0.000	110.017	79.991	19.995	99.896	20.151	-0.094	-0.027
1.998	110.007	79.993	19.995	99.898	20.147	0.186	-0.005
3.999	109.989	79.994	19.997	99.899	20.153	-0.252	-0.020
5.999	109.992	79.994	19.995	99.897	20.150	-0.053	-0.006
7.998	109.935	79.992	19.997	99.899	20.148	0.169	-0.025
9.998	109.971	79.991	19.996	99.896	20.144	0.423	-0.013
11.998	109.905	79.994	19.997	99.892	20.147	0.244	-0.008
13.998	109.920	79.993	19.997	99.894	20.148	0.169	-0.020
15.998	109.911	79.993	19.997	99.911	20.141	0.714	0.005
17.998	109.897	79.994	19.997	99.913	20.148	0.124	-0.021
19.998	109.903	79.993	19.997	99.937	20.137	1.009	-0.020
21.998	109.934	79.993	19.995	99.967	20.138	0.928	0.012
23.998	109.949	79.993	19.995	99.981	20.137	0.969	0.009
25.998	110.004	79.994	19.996	100.006	20.132	1.407	0.033
27.998	110.092	79.993	19.996	100.029	20.129	1.619	0.050
29.998	110.200	79.993	19.994	100.054	20.119	2.426	0.024
31.999	110.385	79.994	19.995	100.078	20.118	2.500	0.067
33.999	110.596	79.993	19.994	100.092	20.116	2.601	0.122
35.998	110.774	79.994	19.995	100.093	20.114	2.749	0.128
37.998	111.047	79.993	19.996	100.096	20.114	2.822	0.114
39.999	111.312	79.994	19.997	100.111	20.110	3.067	0.149
41.998	111.594	79.994	19.996	100.104	20.109	3.204	0.117
43.998	111.979	79.994	19.994	100.098	20.111	3.054	0.191
45.998	112.319	79.992	19.995	100.108	20.110	3.083	0.161
47.998	112.704	79.994	19.996	100.115	20.107	3.310	0.213
49.998	113.114	79.993	19.995	100.105	20.108	3.263	0.186
51.998	113.574	79.994	19.993	100.098	20.109	3.156	0.235
53.998	114.039	79.993	19.993	100.086	20.113	2.885	0.253
55.998	114.461	79.997	19.995	100.068	20.113	2.890	0.222
57.998	114.946	79.997	19.995	100.066	20.111	3.041	0.243
59.998	115.425	79.995	19.994	100.066	20.118	2.460	0.199
61.998	115.890	79.996	19.994	100.068	20.114	2.748	0.223
63.998	116.371	79.996	19.995	100.080	20.110	3.061	0.278
65.999	116.853	79.994	19.995	100.090	20.110	3.134	0.215
67.999	117.390	79.995	19.996	100.091	20.104	3.547	0.252
69.999	117.930	79.991	19.994	100.093	20.114	2.779	0.256
71.999	118.444	79.993	19.996	100.092	20.110	3.092	0.248
74.000	119.002	79.994	19.996	100.104	20.111	3.025	0.262
75.999	119.587	79.993	19.997	100.104	20.116	2.597	0.295
77.999	120.160	79.992	19.995	100.105	20.111	2.995	0.251
79.999	120.743	79.993	19.996	100.111	20.106	3.438	0.298
81.999	121.317	79.994	19.996	100.125	20.110	3.070	0.277
83.999	122.018	79.993	19.996	100.130	20.109	3.156	0.317
85.999	122.608	79.991	19.995	100.122	20.104	3.597	0.308
87.999	123.305	79.993	19.995	100.123	20.107	3.351	0.334
89.999	123.982	79.995	19.996	100.128	20.105	3.484	0.317
91.999	124.662	79.992	19.995	100.129	20.104	3.569	0.352
93.999	125.312	79.992	19.996	100.132	20.104	3.584	0.317
95.999	126.081	79.992	19.995	100.134	20.098	4.008	0.359
97.999	126.768	79.992	19.997	100.135	20.104	3.576	0.358
99.999	127.448	79.990	19.996	100.141	20.101	3.839	0.336
101.999	128.216	79.992	19.995	100.141	20.107	3.360	0.381
104.000	128.981	79.992	19.997	100.138	20.107	3.315	0.392
105.999	129.735	79.992	19.996	100.147	20.102	3.713	0.396
107.999	130.473	79.992	19.995	100.145	20.107	3.338	0.389
109.999	131.295	79.994	19.994	100.153	20.103	3.678	0.417
111.999	132.076	79.993	19.996	100.157	20.099	3.989	0.402
114.000	132.887	79.995	19.995	100.154	20.098	4.002	0.415
115.999	133.724	79.994	19.995	100.138	20.098	4.062	0.432
117.999	134.528	79.997	19.995	100.137	20.100	3.910	0.405
119.999	135.378	79.996	19.995	100.137	20.098	4.010	0.437
121.999	136.220	79.994	19.996	100.146	20.099	3.935	0.413
123.999	137.093	79.994	19.995	100.147	20.102	3.722	0.425
125.999	137.914	79.993	19.995	100.154	20.103	3.647	0.420
127.999	138.801	79.994	19.994	100.147	20.104	3.533	0.443
129.999	139.653	79.995	19.996	100.142	20.102	3.754	0.374
131.999	140.557	79.995	19.995	100.137	20.099	3.946	0.458
133.999	141.410	79.995	19.995	100.149	20.102	3.698	0.458
135.999	142.337	79.995	19.996	100.146	20.103	3.629	0.446
137.999	143.220	79.997	19.996	100.151	20.101	3.802	0.451
139.999	144.137	79.997	19.995	100.147	20.105	3.497	0.468
141.999	145.038	79.997	19.994	100.154	20.106	3.439	0.488
143.999	145.966	79.996	19.995	100.140	20.102	3.760	0.476
145.999	146.875	79.995	19.995	100.150	20.099	3.947	0.444
148.000	147.791	79.996	19.996	100.134	20.103	3.643	0.429
149.999	148.763	79.992	19.994	100.141	20.106	3.443	0.499
151.999	149.722	79.992	19.994	100.160	20.103	3.634	0.494
153.999	150.602	79.993	19.996	100.156	20.104	3.541	0.439
155.999	151.567	79.992	19.996	100.156	20.103	3.614	0.496
157.999	152.524	79.992	19.996	100.160	20.103	3.657	0.477
159.999	153.479	79.994	19.997	100.149	20.102	3.691	0.450
161.999	154.407	79.992	19.996	100.156	20.101	3.837	0.439
163.999	155.362	79.994	19.997	100.145	20.101	3.773	0.471
165.999	156.328	79.993	19.996	100.140	20.103	3.657	0.502
167.999	157.264	79.991	19.995	100.139	20.100	3.865	0.481
169.999	158.263	79.993	19.998	100.143	20.100	3.860	0.469
171.999	159.219	79.991	19.996	100.145	20.100	3.883	0.477
173.999	160.210	79.993	19.995	100.147	20.106	3.377	0.497
175.999	161.201	79.992	19.996	100.150	20.101	3.798	0.490
177.999	162.177	79.993	19.996	100.140	20.100	3.864	0.501
179.999	163.172	79.991	19.996	100.144	20.104	3.558	0.512
181.999	164.155	79.991	19.997	100.133	20.104	3.541	0.509
183.999	165.148	79.994	19.997	100.133	20.104	3.595	0.478
185.999	166.151	79.991	19.997	100.138	20.102	3.749	0.517
187.999	167.166	79.992	19.997	100.132	20.105	3.494	0.506
189.999	168.145	79.993	19.996	100.139	20.105	3.515	0.489
191.999	169.138	79.994	19.995	100.132	20.105	3.522	0.508
193.999	170.159	79.993	19.996	100.133	20.101	3.811	0.482
195.999	171.153	79.997	19.997	100.132	20.108	3.289	0.520
197.999	172.183	79.996	19.996	100.132	20.101	3.811	0.522
199.999	173.175	79.997	19.995	100.132	20.106	3.436	0.500
202.000	174.189	79.994	19.995	100.129	20.105	3.453	0.503
203.999	175.211	79.994	19.995	100.129	20.104	3.603	0.526
205.999	176.206	79.994	19.996	100.129	20.102	3.736	0.507
207.999	177.209	79.996	19.995	100.130	20.104	3.547	0.524
209.999	178.213	79.993	19.995	100.129	20.098	4.014	0.529
211.999	179.230	79.994	19.996	100.133	20.101	3.827	0.547
213.999	180.225	79.994	19.995	100.133	20.102	3.710	0.533
215.999	181.264	79.994	19.996	100.134	20.102	3.746	0.505
217.999	182.251	79.995	19.996	100.127	20.103	3.646	0.501
219.999	183.290	79.996	19.996	100.121	20.101	3.819	0.506
221.999	184.275	79.996	19.994	100.126	20.102	3.707	0.494
223.999	185.274	79.996	19.994	100.122	20.100	3.877	0.491
226.000	186.319	79.994	19.994	100.124	20.102	3.751	0.500
227.999	187.339	79.993	19.995	100.120	20.105	3.496	0.482
229.999	188.341	79.994	19.995	100.129	20.099	3.941	0.486
231.999	189.358	79.992	19.994	100.115	20.098	4.073	0.494
233.999	190.376	79.994	19.995	100.118	20.102	3.726	0.530
235.999	191.368	79.993	19.995	100.132	20.099	3.953	0.470
237.999	192.355	79.993	19.994	100.128	20.098	3.998	0.516
239.999	193.400	79.993	19.996	100.125	20.101	3.778	0.492
241.999	194.393	79.993	19.996	100.117	20.104	3.602	0.515
243.999	195.366	79.994	19.996	100.104	20.105	3.509	0.520
245.999	196.366	79.991	19.997	100.102	20.100	3.897	0.505
247.999	197.408	79.996	19.997	100.105	20.107	3.367	0.537
249.999	198.365	79.993	19.996	100.111	20.098	4.009	0.495
251.999	199.393	79.993	19.996	100.098	20.102	3.728	0.487
253.999	200.346	79.993	19.996	100.111	20.102	3.732	0.470
255.999	201.361	79.993	19.997	100.109	20.105	3.514	0.507
257.999	202.385	79.993	19.995	100.099	20.103	3.639	0.530
259.999	203.371	79.994	19.997	100.110	20.099	3.934	0.539
261.999	204.374	79.992	19.995	100.106	20.103	3.668	0.510
263.999	205.351	79.993	19.996	100.101	20.103	3.675	0.507
265.999	206.346	79.993	19.997	100.095	20.102	3.690	0.502
267.999	207.359	79.993	19.996	100.100	20.097	4.124	0.522
269.999	208.345	79.994	19.996	100.116	20.100	3.874	0.493
271.999	209.334	79.996	19.997	100.106	20.103	3.621	0.488
273.999	210.327	79.995	19.997	100.096	20.102	3.737	0.519
275.999	211.304	79.995	19.996	100.104	20.097	4.122	0.468
277.999	212.289	79.995	19.997	100.100	20.097	4.130	0.481
279.999	213.253	79.995	19.997	100.098	20.095	4.241	0.476
281.999	214.248	79.995	19.996	100.100	20.100	3.880	0.473
283.999	215.246	79.994	19.996	100.098	20.095	4.233	0.512
285.999	216.235	79.995	19.994	100.109	20.095	4.235	0.495
287.999	217.211	79.994	19.996	100.104	20.097	4.098	0.515
289.999	218.224	79.993	19.996	100.098	20.094	4.358	0.499
291.999	219.174	79.994	19.996	100.099	20.090	4.686	0.497
293.999	220.122	79.995	19.995	100.100	20.083	5.222	0.460
295.999	221.155	79.995	19.995	100.102	20.090	4.685	0.497
297.999	222.155	79.998	19.994	100.101	20.089	4.713	0.511
299.999	223.089	79.995	19.994	100.106	20.082	5.274	0.499
301.999	224.081	79.995	19.995	100.118	20.085	5.051	0.483
303.999	225.059	79.994	19.995	100.121	20.080	5.440	0.496
305.999	226.045	79.996	19.995	100.101	20.081	5.385	0.479
307.999	227.001	79.995	19.997	100.117	20.076	5.714	0.485
309.999	228.009	79.994	19.996	100.113	20.075	5.840	0.534
311.999	229.044	79.993	19.995	100.124	20.070	6.250	0.519
313.999	230.000	79.995	19.995	100.122	20.068	6.343	0.468
315.999	230.990	79.994	19.996	100.116	20.067	6.429	0.482
317.999	231.988	79.993	19.995	100.113	20.069	6.301	0.485
319.999	232.974	79.994	19.993	100.121	20.064	6.673	0.498
321.999	233.925	79.995	19.996	100.107	20.059	7.076	0.474
323.999	234.941	79.995	19.996	100.101	20.059	7.078	0.494
325.999	235.919	79.995	19.996	100.117	20.055	7.358	0.496
327.999	236.893	79.994	19.996	100.120	20.053	7.587	0.496
329.999	237.919	79.994	19.995	100.132	20.050	7.779	0.531
331.999	238.867	79.993	19.996	100.131	20.048	7.933	0.476
333.999	239.841	79.991	19.996	100.131	20.043	8.325	0.458
335.999	240.805	79.990	19.997	100.131	20.046	8.114	0.467
337.999	241.838	79.992	19.997	100.130	20.040	8.527	0.525
339.999	242.845	79.991	19.996	100.125	20.035	8.935	0.513
341.999	243.845	79.993	19.996	100.124	20.039	8.617	0.519
343.999	244.863	79.992	19.996	100.125	20.030	9.326	0.510
345.999	245.801	79.994	19.995	100.135	20.021	10.019	0.476
347.999	246.830	79.994	19.996	100.135	20.025	9.748	0.500
349.999	247.853	79.994	19.995	100.135	20.019	10.170	0.523
352.000	248.856	79.994	19.996	100.133	20.017	10.360	0.482
353.999	249.896	79.994	19.996	100.137	20.014	10.615	0.539
355.999	250.905	79.994	19.996	100.145	20.012	10.774	0.502
357.999	251.923	79.994	19.995	100.133	20.006	11.233	0.520
359.999	252.903	79.993	19.996	100.137	20.006	11.202	0.498
361.999	253.909	79.993	19.995	100.137	20.002	11.527	0.490
363.999	254.953	79.992	19.995	100.136	20.001	11.582	0.531
365.999	255.940	79.994	19.997	100.135	19.997	11.950	0.518
367.999	256.943	79.993	19.997	100.136	19.996	12.023	0.552
369.999	257.983	79.994	19.996	100.137	19.992	12.332	0.545
371.999	259.004	79.993	19.996	100.138	19.986	12.767	0.536
373.999	260.022	79.996	19.996	100.135	19.983	12.980	0.525
375.999	261.037	79.995	19.995	100.129	19.977	13.488	0.495
377.999	262.021	79.996	19.995	100.131	19.976	13.533	0.501
379.999	263.035	79.998	19.995	100.139	19.971	13.932	0.515
381.999	264.037	79.996	19.995	100.135	19.974	13.691	0.521
383.999	265.055	79.995	19.995	100.134	19.962	14.669	0.490
385.999	266.019	79.994	19.995	100.146	19.960	14.813	0.521
387.999	266.978	79.994	19.996	100.144	19.956	15.124	0.470
389.999	268.037	79.994	19.996	100.142	19.953	15.334	0.510
391.999	269.051	79.994	19.996	100.142	19.947	15.860	0.519
393.999	270.034	79.996	19.997	100.142	19.943	16.173	0.524
395.999	271.088	79.993	19.995	100.146	19.937	16.637	0.516
397.999	272.050	79.993	19.996	100.151	19.932	17.013	0.436
399.999	273.087	79.994	19.996	100.151	19.929	17.279	0.484
401.999	274.080	79.994	19.995	100.152	19.917	18.197	0.513
403.999	275.074	79.995	19.995	100.168	19.915	18.360	0.501
405.999	276.060	79.995	19.995	100.160	19.902	19.343	0.497
407.999	277.067	79.993	19.995	100.168	19.901	19.406	0.502
409.999	278.064	79.993	19.995	100.174	19.891	20.215	0.532
411.999	279.050	79.995	19.995	100.175	19.888	20.472	0.467
413.999	280.031	79.992	19.996	100.178	19.881	20.972	0.519
415.999	281.038	79.994	19.995	100.177	19.872	21.680	0.499
417.999	281.995	79.993	19.996	100.180	19.867	22.133	0.520
419.999	283.003	79.993	19.997	100.183	19.861	22.574	0.498
421.999	284.006	79.993	19.996	100.189	19.853	23.218	0.517
423.999	284.947	79.994	19.996	100.189	19.842	24.065	0.487
425.999	285.913	79.994	19.996	100.201	19.836	24.514	0.489
427.999	286.951	79.995	19.996	100.208	19.825	25.363	0.528
429.999	287.939	79.994	19.995	100.211	19.820	25.803	0.496
431.999	288.936	79.995	19.996	100.212	19.811	26.497	0.473
433.999	289.935	79.993	19.996	100.209	19.803	27.091	0.494
435.999	290.929	79.995	19.996	100.207	19.789	28.163	0.491
437.999	291.924	79.996	19.996	100.215	19.787	28.389	0.500
439.999	292.933	79.997	19.995	100.211	19.772	29.500	0.507
441.999	293.979	79.998	19.996	100.210	19.759	30.549	0.510
443.999	294.997	79.996	19.996	100.224	19.753	31.006	0.527
445.999	295.954	79.993	19.996	100.232	19.738	32.217	0.489
447.999	296.977	79.993	19.997	100.227	19.726	33.114	0.516
449.999	297.990	79.994	19.996	100.238	19.719	33.704	0.494
451.999	298.994	79.997	19.998	100.249	19.706	34.668	0.498
453.999	299.975	79.996	19.997	100.248	19.694	35.658	0.497
455.999	300.974	79.995	19.997	100.254	19.680	36.734	0.513
457.999	301.989	79.999	19.996	100.249	19.668	37.688	0.543
459.999	302.979	79.995	19.996	100.252	19.650	39.061	0.482
461.999	303.999	79.997	19.996	100.253	19.644	39.563	0.500
463.999	304.970	79.998	19.995	100.268	19.629	40.717	0.489
465.999	305.933	79.996	19.995	100.271	19.612	42.085	0.483
467.999	306.968	79.996	19.995	100.285	19.597	43.283	0.499
469.999	307.968	79.994	19.996	100.294	19.588	43.931	0.472
471.999	308.975	79.993	19.995	100.294	19.570	45.371	0.482
473.999	309.974	79.996	19.996	100.301	19.555	46.516	0.477
475.999	311.002	79.992	19.996	100.316	19.537	47.975	0.514
477.999	311.980	79.994	19.995	100.329	19.525	48.941	0.507
479.999	313.038	79.995	19.996	100.332	19.506	50.382	0.518
481.999	314.055	79.994	19.996	100.332	19.487	51.905	0.522
483.999	315.057	79.995	19.995	100.338	19.471	53.121	0.491
485.999	316.066	79.994	19.995	100.346	19.445	55.215	0.504
487.999	317.061	79.994	19.995	100.363	19.423	56.889	0.489
489.999	318.060	79.994	19.996	100.369	19.399	58.780	0.524
491.999	319.064	79.992	19.993	100.374	19.377	60.531	0.488
493.999	320.093	79.994	19.995	100.382	19.353	62.401	0.502
495.999	321.076	79.994	19.996	100.393	19.325	64.643	0.499
497.999	322.091	79.995	19.996	100.408	19.301	66.471	0.490
499.999	323.103	79.993	19.994	100.409	19.266	69.267	0.516
501.999	324.082	79.993	19.995	100.426	19.237	71.510	0.538
503.999	325.036	79.994	19.995	100.447	19.206	73.940	0.478
505.999	326.095	79.997	19.994	100.452	19.167	77.042	0.541
507.999	327.047	79.996	19.995	100.456	19.133	79.682	0.492
509.999	328.053	79.998	19.995	100.480	19.095	82.643	0.513
511.999	329.063	79.997	19.996	100.488	19.057	85.627	0.553
513.999	329.980	79.996	19.995	100.495	19.021	88.431	0.470
515.999	330.993	79.995	19.997	100.507	18.987	90.995	0.490
517.999	332.006	79.997	19.996	100.501	18.955	93.479	0.499
519.999	332.999	79.995	19.995	100.485	18.929	95.463	0.498
521.999	334.000	79.998	19.996	100.466	18.914	96.635	0.489
523.999	335.027	79.994	19.996	100.430	18.910	96.874	0.492
525.999	336.037	79.993	19.996	100.398	18.927	95.541	0.509
527.999	336.997	79.996	19.996	100.343	18.948	93.853	0.489
529.999	337.994	79.999	19.995	100.289	18.993	90.294	0.495
531.999	339.042	79.994	19.996	100.246	19.040	86.657	0.500
533.999	340.015	79.996	19.995	100.202	19.108	81.353	0.492
535.999	341.035	79.994	19.996	100.172	19.174	76.176	0.535
537.999	342.056	79.996	19.996	100.138	19.246	70.531	0.509
539.999	343.037	79.994	19.996	100.133	19.326	64.338	0.505
541.999	344.005	79.994	19.997	100.114	19.405	58.160	0.488
543.999	345.027	79.994	19.997	100.103	19.476	52.582	0.510
545.999	346.019	79.994	19.996	100.099	19.541	47.503	0.504
547.999	347.020	79.993	19.995	100.098	19.607	42.379	0.483
549.999	347.980	79.994	19.996	100.097	19.665	37.874	0.479
551.999	349.037	79.995	19.995	100.097	19.719	33.657	0.486
553.999	350.078	79.996	19.996	100.093	19.759	30.484	0.527
555.999	351.068	79.994	19.996	100.096	19.800	27.290	0.507
557.999	352.076	79.995	19.996	100.092	19.834	24.627	0.497
559.999	353.115	79.996	19.995	100.095	19.860	22.615	0.496
561.999	354.131	79.996	19.995	100.093	19.893	20.047	0.519
563.999	355.158	79.992	19.996	100.094	19.911	18.628	0.519
565.999	356.191	79.993	19.995	100.087	19.931	17.098	0.519
567.999	357.206	79.993	19.995	100.093	19.943	16.100	0.575
569.999	358.139	79.996	19.996	100.084	19.954	15.235	0.478
571.999	359.335	79.992	19.995	100.070	19.963	14.536	0.490
573.999	360.330	79.994	19.996	100.088	19.973	13.803	0.767
575.999	361.329	79.991	19.996	100.090	19.978	13.404	0.538
577.999	362.181	79.993	19.996	100.090	19.985	12.884	0.677
579.999	363.322	79.995	19.996	100.088	19.991	12.360	0.535
581.999	364.260	79.993	19.996	100.080	19.990	12.462	0.470
583.999	365.299	79.994	19.995	100.084	19.996	11.984	0.520
585.999	366.289	79.996	19.994	100.084	19.998	11.805	0.486
587.999	367.259	79.996	19.996	100.080	20.001	11.598	0.500
589.999	368.329	79.998	19.995	100.073	20.002	11.503	0.510
591.999	369.329	79.995	19.996	100.082	20.007	11.154	0.473
593.999	370.345	79.997	19.995	100.081	20.008	11.049	0.506
595.999	371.344	79.997	19.996	100.072	20.009	10.960	0.521
597.999	372.358	79.995	19.996	100.069	20.008	11.093	0.495
599.999	373.385	79.995	19.996	100.076	20.009	10.945	0.497
601.999	374.377	79.994	19.995	100.077	20.012	10.736	0.497
603.999	375.406	79.995	19.996	100.071	20.011	10.854	0.532
605.999	376.454	79.996	19.996	100.076	20.011	10.832	0.502
607.999	377.460	79.996	19.996	100.086	20.012	10.750	0.505
609.999	378.476	79.998	19.996	100.081	20.015	10.498	0.491
611.999	379.487	79.997	19.995	100.080	20.017	10.342	0.513
613.999	380.557	79.997	19.995	100.086	20.016	10.397	0.533
615.999	381.487	79.998	19.995	100.068	20.017	10.347	0.507
617.999	382.500	79.996	19.995	100.068	20.017	10.371	0.503
619.999	383.504	79.994	19.996	100.067	20.020	10.139	0.507
621.999	384.550	79.994	19.996	100.062	20.014	10.559	0.525
623.999	385.516	79.992	19.997	100.063	20.017	10.355	0.496
625.999	386.488	79.993	19.997	100.060	20.019	10.193	0.489
627.999	387.518	79.992	19.997	100.073	20.017	10.373	0.508
629.999	388.546	79.994	19.997	100.063	20.019	10.185	0.468
631.999	389.545	79.994	19.997	100.068	20.019	10.175	0.504
633.999	390.552	79.995	19.996	100.062	20.024	9.846	0.503
635.999	391.522	79.993	19.996	100.058	20.024	9.794	0.505
637.999	392.553	79.996	19.994	100.065	20.023	9.921	0.519
639.999	393.611	79.997	19.995	100.066	20.020	10.118	0.545
641.999	394.603	79.995	19.995	100.069	20.022	9.950	0.505
643.999	395.607	79.997	19.995	100.058	20.028	9.510	0.495
645.999	396.636	79.995	19.996	100.064	20.024	9.812	0.523
647.999	397.643	79.996	19.995	100.058	20.030	9.360	0.507
649.999	398.648	79.995	19.996	100.068	20.033	9.115	0.521
651.999	399.643	79.996	19.995	100.072	20.033	9.119	0.485
653.999	400.657	79.993	19.996	100.063	20.035	8.985	0.505
655.999	401.683	79.994	19.995	100.061	20.037	8.824	0.512
657.999	402.678	79.993	19.996	100.065	20.035	8.929	0.506
659.999	403.727	79.994	19.995	100.071	20.034	9.030	0.504
661.999	404.753	79.995	19.995	100.060	20.042	8.386	0.515
664.000	405.773	79.994	19.996	100.061	20.047	8.033	0.517
665.999	406.760	79.997	19.995	100.066	20.044	8.273	0.497
667.999	407.837	79.994	19.996	100.060	20.044	8.258	0.521
669.999	408.853	79.995	19.995	100.063	20.046	8.052	0.511
671.999	409.827	79.995	19.995	100.061	20.047	8.033	0.505
673.999	410.862	79.996	19.994	100.059	20.045	8.184	0.500
675.999	411.896	79.996	19.996	100.067	20.049	7.870	0.521
677.999	412.917	79.995	19.995	100.061	20.047	7.977	0.530
679.999	413.930	79.994	19.996	100.062	20.053	7.571	0.504
681.999	414.867	79.994	19.994	100.060	20.054	7.459	0.464
683.999	415.897	79.997	19.996	100.060	20.055	7.400	0.479
685.999	416.902	79.995	19.996	100.056	20.054	7.489	0.478
687.999	417.893	79.995	19.995	100.054	20.059	7.099	0.495
689.999	418.958	79.999	19.995	100.054	20.056	7.273	0.501
691.999	419.913	79.997	19.996	100.052	20.058	7.169	0.495
693.999	420.961	79.996	19.996	100.054	20.061	6.889	0.500
695.999	421.982	79.997	19.996	100.056	20.058	7.133	0.496
697.999	423.013	79.996	19.996	100.052	20.059	7.106	0.498
699.999	423.988	79.994	19.997	100.043	20.064	6.696	0.499
701.999	424.999	79.994	19.996	100.053	20.064	6.660	0.515
703.999	426.029	79.994	19.996	100.054	20.064	6.655	0.533
705.999	426.994	79.994	19.995	100.046	20.067	6.480	0.467
707.999	428.048	79.994	19.996	100.042	20.068	6.337	0.524
709.999	429.064	79.996	19.995	100.049	20.068	6.348	0.528
711.999	430.046	79.993	19.997	100.054	20.072	6.078	0.485
713.999	431.063	79.995	19.998	100.051	20.073	6.014	0.537
715.999	432.062	79.993	19.998	100.046	20.070	6.198	0.507
717.999	433.074	79.994	19.997	100.049	20.077	5.689	0.497
719.999	434.137	79.993	19.997	100.053	20.078	5.565	0.504
721.999	435.150	79.994	19.997	100.054	20.077	5.642	0.525
723.999	436.157	79.996	19.996	100.055	20.078	5.580	0.521
725.999	437.146	79.998	19.996	100.053	20.080	5.460	0.523
727.999	438.144	79.995	19.995	100.054	20.081	5.356	0.507
729.999	439.112	79.996	19.994	100.056	20.081	5.353	0.502
731.999	440.143	79.995	19.995	100.052	20.082	5.310	0.510
733.999	441.136	79.992	19.996	100.054	20.087	4.891	0.463
735.999	442.121	79.994	19.996	100.052	20.087	4.922	0.484
737.999	443.139	79.993	19.995	100.054	20.090	4.635	0.513
739.999	444.121	79.994	19.995	100.051	20.094	4.369	0.530
741.999	445.084	79.995	19.996	100.048	20.092	4.487	0.484
743.999	446.166	79.996	19.995	100.046	20.094	4.361	0.524
745.999	447.130	79.997	19.995	100.055	20.092	4.534	0.489
747.999	448.162	79.997	19.996	100.048	20.096	4.164	0.494
749.999	449.163	79.996	19.995	100.041	20.096	4.203	0.495
751.999	450.166	79.996	19.996	100.043	20.096	4.190	0.463
753.999	451.196	79.995	19.995	100.048	20.096	4.214	0.525
755.999	452.162	79.996	19.995	100.047	20.099	3.953	0.468
757.999	453.164	79.996	19.996	100.043	20.097	4.072	0.507
759.999	454.184	79.999	19.995	100.036	20.100	3.858	0.510
761.999	455.217	79.996	19.995	100.047	20.093	4.393	0.500
763.999	456.206	79.997	19.994	100.047	20.101	3.807	0.506
765.999	457.240	79.997	19.995	100.046	20.098	4.031	0.496
767.999	458.209	79.996	19.996	100.033	20.099	3.982	0.508
769.999	459.282	79.997	19.995	100.038	20.101	3.767	0.526
771.999	460.288	79.997	19.996	100.039	20.103	3.604	0.526
773.999	461.298	79.995	19.996	100.030	20.102	3.743	0.531
775.999	462.300	79.995	19.997	100.033	20.107	3.347	0.523
777.999	463.313	79.994	19.996	100.029	20.104	3.578	0.512
779.999	464.311	79.994	19.995	100.034	20.105	3.517	0.517
781.999	465.316	79.992	19.995	100.037	20.108	3.273	0.506
783.999	466.381	79.993	19.997	100.037	20.107	3.363	0.519
785.999	467.403	79.993	19.995	100.040	20.107	3.292	0.515
787.999	468.394	79.996	19.996	100.035	20.110	3.089	0.482
789.999	469.454	79.993	19.995	100.039	20.113	2.839	0.533
791.999	470.470	79.994	19.996	100.040	20.111	2.980	0.518
793.999	471.486	79.993	19.996	100.039	20.112	2.950	0.487
795.999	472.531	79.993	19.996	100.040	20.112	2.933	0.513
797.999	473.566	79.993	19.996	100.032	20.115	2.685	0.496
799.999	474.626	79.995	19.996	100.042	20.116	2.606	0.513
801.999	475.675	79.992	19.996	100.042	20.115	2.708	0.518
803.999	476.663	79.992	19.996	100.031	20.118	2.481	0.508
805.999	477.741	79.992	19.996	100.034	20.117	2.580	0.501
807.999	478.709	79.994	19.996	100.043	20.118	2.486	0.508
809.999	479.752	79.992	19.996	100.029	20.120	2.351	0.488
811.999	480.750	79.994	19.996	100.026	20.119	2.411	0.506
813.999	481.783	79.994	19.995	100.023	20.118	2.454	0.529
815.999	482.792	79.994	19.996	100.021	20.118	2.451	0.493
817.999	483.811	79.996	19.996	100.023	20.119	2.402	0.492
819.999	484.824	79.995	19.996	100.020	20.116	2.661	0.501
821.999	485.878	79.997	19.994	100.035	20.120	2.312	0.512
823.999	486.919	79.995	19.996	100.019	20.119	2.370	0.519
825.999	487.915	79.994	19.996	100.020	20.119	2.366	0.533
827.999	488.921	79.996	19.996	100.014	20.124	1.981	0.476
829.999	489.942	79.996	19.995	100.014	20.122	2.125	0.496
831.999	490.922	79.996	19.996	100.014	20.121	2.255	0.524
833.999	491.934	79.994	19.996	100.023	20.125	1.947	0.480
835.999	492.964	79.996	19.995	100.020	20.125	1.908	0.493
837.999	493.965	79.994	19.995	100.026	20.124	1.983	0.508
839.999	495.012	79.994	19.995	100.026	20.125	1.960	0.509
842.000	495.996	79.995	19.996	100.019	20.125	1.924	0.500
843.999	497.021	79.997	19.995	100.024	20.128	1.686	0.495
845.999	498.018	79.997	19.995	100.015	20.129	1.582	0.504
847.999	498.982	79.997	19.995	100.020	20.125	1.919	0.476
849.999	500.000	79.997	19.995	100.024	20.126	1.845	0.474
851.999	501.036	79.998	19.996	100.024	20.129	1.626	0.512
853.999	502.027	79.996	19.994	100.021	20.130	1.528	0.482
855.999	503.082	79.998	19.995	100.016	20.130	1.560	0.523
857.999	504.092	79.995	19.996	100.020	20.133	1.329	0.499
859.999	505.076	79.993	19.996	100.020	20.131	1.494	0.517
861.999	506.042	79.993	19.995	100.025	20.132	1.370	0.484
863.999	507.093	79.993	19.996	100.022	20.132	1.415	0.513
865.999	508.085	79.994	19.995	100.028	20.134	1.220	0.482
867.999	509.127	79.995	19.996	100.038	20.133	1.329	0.482
869.999	510.147	79.993	19.996	100.020	20.139	0.864	0.561
871.999	511.160	79.992	19.996	100.025	20.132	1.349	0.519
873.999	512.144	79.995	19.996	100.027	20.135	1.156	0.543
875.999	513.106	79.994	19.996	100.025	20.134	1.240	0.497
877.999	514.136	79.995	19.996	100.016	20.133	1.285	0.520
879.999	515.186	79.994	19.996	100.027	20.137	0.964	0.530
881.999	516.208	79.994	19.996	100.030	20.137	0.990	0.502
883.999	517.221	79.994	19.996	100.024	20.135	1.163	0.506
885.999	518.224	79.993	19.996	100.029	20.135	1.146	0.483
887.999	519.239	79.993	19.997	100.039	20.133	1.287	0.509
889.999	520.270	79.992	19.997	100.023	20.137	0.958	0.489
891.999	521.338	79.993	19.997	100.024	20.131	1.494	0.522
894.000	522.352	79.993	19.997	100.025	20.137	0.955	0.525
895.999	523.332	79.994	19.996	100.027	20.135	1.124	0.482
897.999	524.365	79.995	19.995	100.027	20.137	0.994	0.513
899.999	525.434	79.996	19.996	100.027	20.130	1.548	0.532
901.999	526.455	79.996	19.996	100.030	20.134	1.227	0.538
903.999	527.443	79.995	19.995	100.021	20.136	1.056	0.481
905.999	528.477	79.998	19.995	100.028	20.133	1.274	0.520
907.999	529.513	79.996	19.996	100.036	20.136	1.028	0.496
909.999	530.582	79.996	19.996	100.040	20.134	1.197	0.520
911.999	531.663	79.994	19.996	100.025	20.136	1.088	0.563
913.999	532.658	79.996	19.995	100.026	20.133	1.268	0.492
915.999	533.644	79.995	19.995	100.037	20.135	1.152	0.516
917.999	534.733	79.996	19.995	100.020	20.137	1.015	0.532
919.999	535.729	79.995	19.995	100.025	20.134	1.184	0.492
921.999	536.796	79.995	19.995	100.027	20.134	1.208	0.554
923.999	537.801	79.996	19.995	100.041	20.133	1.319	0.521
925.999	538.830	79.995	19.995	100.040	20.134	1.238	0.513
927.999	539.899	79.996	19.994	100.037	20.133	1.280	0.545
929.999	540.871	79.998	19.995	100.025	20.135	1.109	0.509
931.999	541.927	79.997	19.995	100.035	20.132	1.347	0.543
933.999	542.910	79.997	19.996	100.030	20.133	1.280	0.499
935.999	543.951	79.996	19.995	100.020	20.132	1.349	0.516
937.999	544.948	79.994	19.995	100.034	20.131	1.449	0.505
939.999	546.009	79.994	19.996	100.019	20.132	1.415	0.529
941.999	546.995	79.994	19.997	100.030	20.131	1.451	0.494
943.999	548.070	79.993	19.996	100.023	20.135	1.167	0.530
945.999	549.091	79.995	19.996	100.021	20.132	1.370	0.522
947.999	550.136	79.993	19.996	100.021	20.135	1.126	0.538
949.999	551.097	79.996	19.996	100.035	20.130	1.524	0.520
951.999	552.150	79.993	19.996	100.049	20.132	1.372	0.515
953.999	553.192	79.994	19.996	100.022	20.129	1.622	0.556
955.999	554.228	79.995	19.996	100.025	20.131	1.464	0.515
957.999	555.265	79.997	19.996	100.017	20.131	1.494	0.527
960.000	556.291	79.996	19.997	100.025	20.128	1.716	0.484
961.999	557.365	79.994	19.997	100.029	20.129	1.612	0.547
963.999	558.380	79.996	19.996	100.015	20.127	1.770	0.509
965.999	559.405	79.994	19.996	100.033	20.125	1.898	0.536
967.999	560.399	79.992	19.997	100.030	20.126	1.819	0.523
969.999	561.475	79.992	19.996	100.029	20.129	1.592	0.494
971.999	562.497	79.995	19.997	100.019	20.137	0.979	0.507
973.999	563.511	79.994	19.997	100.039	20.136	1.050	0.513
976.000	564.501	79.993	19.996	100.050	20.132	1.404	0.481
977.999	565.558	79.993	19.997	100.041	20.130	1.500	0.521
979.999	566.612	79.995	19.996	100.027	20.133	1.328	0.501
981.999	567.645	79.994	19.997	100.031	20.128	1.668	0.536
983.999	568.714	79.997	19.996	100.032	20.127	1.740	0.536
985.999	569.738	79.995	19.996	100.029	20.132	1.345	0.515
987.999	570.799	79.993	19.996	100.019	20.132	1.370	0.514
989.999	571.829	79.994	19.995	100.040	20.131	1.454	0.531
991.999	572.827	79.995	19.995	100.046	20.132	1.381	0.496
993.999	573.893	79.993	19.995	100.051	20.134	1.259	0.522
995.999	574.940	79.996	19.995	100.049	20.134	1.184	0.512
997.999	575.995	79.996	19.996	100.046	20.131	1.421	0.525
999.999	577.040	79.995	19.995	100.041	20.135	1.111	0.503
1001.999	578.052	79.997	19.995	100.039	20.131	1.443	0.515
1003.999	579.073	79.997	19.996	100.022	20.128	1.701	0.512
1005.999	580.113	79.998	19.995	100.021	20.130	1.528	0.546
1007.999	581.116	79.997	19.995	100.029	20.130	1.571	0.512
1009.999	582.155	79.997	19.995	100.025	20.128	1.697	0.512
1011.999	583.148	79.998	19.995	100.021	20.126	1.819	0.472
1013.999	584.198	79.995	19.995	100.022	20.127	1.776	0.515
1015.999	585.195	79.995	19.996	100.035	20.126	1.874	0.516
1017.999	586.225	79.996	19.996	100.031	20.128	1.669	0.504
1019.999	587.239	79.995	19.996	100.027	20.127	1.742	0.522
1021.999	588.197	79.995	19.995	100.025	20.125	1.889	0.499
1023.999	589.252	79.994	19.996	100.018	20.125	1.936	0.521
1025.998	590.231	79.994	19.995	100.025	20.123	2.094	0.463
1027.998	591.252	79.995	19.996	100.019	20.125	1.962	0.506
1029.998	592.271	79.996	19.995	100.018	20.121	2.261	0.528
1031.999	593.255	79.995	19.996	100.023	20.125	1.892	0.507
1033.998	594.320	79.996	19.996	100.023	20.123	2.080	0.535
1035.998	595.306	79.995	19.996	100.017	20.124	1.968	0.464
1037.999	596.322	79.995	19.996	100.021	20.125	1.911	0.486
1039.998	597.323	79.993	19.997	100.020	20.123	2.112	0.508
1041.998	598.352	79.992	19.996	100.023	20.124	2.020	0.516
1043.998	599.377	79.996	19.997	100.026	20.123	2.067	0.515
1045.998	600.425	79.996	19.996	100.022	20.122	2.148	0.537
1047.998	601.425	79.994	19.997	100.019	20.123	2.060	0.494
1049.998	602.423	79.993	19.996	100.019	20.122	2.135	0.496
1051.998	603.411	79.992	19.996	100.020	20.128	1.703	0.486
1053.998	604.426	79.993	19.996	100.019	20.125	1.898	0.476
1055.998	605.437	79.994	19.995	100.018	20.125	1.908	0.511
1057.998	606.409	79.995	19.996	100.016	20.126	1.821	0.481
1059.998	607.428	79.995	19.997	100.019	20.128	1.710	0.489
1061.998	608.427	79.995	19.996	100.021	20.129	1.594	0.468
1063.998	609.452	79.996	19.996	100.015	20.132	1.378	0.498
1065.998	610.461	79.994	19.998	100.014	20.133	1.280	0.530
1067.998	611.477	79.994	19.997	100.012	20.134	1.214	0.506
1069.999	612.491	79.996	19.997	100.012	20.132	1.400	0.544
1071.998	613.475	79.997	19.997	100.013	20.135	1.128	0.502
1073.999	614.527	79.994	19.996	100.014	20.136	1.090	0.535
1075.998	615.541	79.995	19.996	100.014	20.132	1.353	0.509
1077.998	616.585	79.995	19.995	100.013	20.130	1.524	0.549
1079.998	617.575	79.995	19.995	100.015	20.133	1.274	0.504
1081.998	618.600	79.997	19.995	100.015	20.132	1.402	0.513
1083.998	619.603	79.997	19.996	100.013	20.136	1.043	0.517
1085.998	620.663	79.997	19.994	100.012	20.135	1.150	0.539
1087.999	621.657	79.997	19.996	100.011	20.136	1.092	0.479
1089.998	622.634	79.997	19.995	100.011	20.133	1.295	0.507
1091.998	623.630	79.996	19.995	100.012	20.134	1.222	0.502
1093.998	624.711	79.995	19.996	100.002	20.136	1.084	0.521
1095.998	625.725	79.995	19.995	100.011	20.137	0.970	0.515
1097.999	626.715	79.996	19.996	100.014	20.138	0.883	0.491
1099.998	627.749	79.995	19.995	100.016	20.135	1.124	0.516
1101.998	628.764	79.994	19.994	100.017	20.137	0.983	0.505
1103.998	629.749	79.994	19.996	100.021	20.135	1.139	0.510
1105.998	630.744	79.995	19.995	100.019	20.135	1.113	0.496
1107.998	631.799	79.996	19.996	100.011	20.138	0.895	0.499
1109.998	632.819	79.996	19.996	100.014	20.137	0.981	0.512
1111.998	633.830	79.995	19.996	100.016	20.137	0.985	0.502
1113.998	634.857	79.994	19.996	100.020	20.138	0.940	0.523
1115.998	635.893	79.994	19.995	100.018	20.136	1.037	0.541
1117.998	636.885	79.994	19.995	100.016	20.136	1.041	0.519
1119.999	637.948	79.993	19.996	100.016	20.140	0.727	0.527
1121.998	639.021	79.993	19.996	100.016	20.137	0.957	0.536
1123.998	640.035	79.992	19.996	100.008	20.135	1.118	0.527
1125.998	641.057	79.992	19.996	100.017	20.138	0.936	0.529
1127.998	642.092	79.994	19.997	100.013	20.136	1.077	0.502
1129.998	643.135	79.994	19.997	100.012	20.135	1.152	0.549
1131.999	644.153	79.994	19.997	100.012	20.137	1.011	0.493
1133.998	645.175	79.995	19.996	100.009	20.135	1.158	0.521
1135.998	646.224	79.995	19.996	100.013	20.133	1.267	0.537
1137.998	647.243	79.996	19.996	100.013	20.133	1.284	0.512
1139.998	648.263	79.998	19.997	100.013	20.138	0.910	0.504
1141.998	649.281	79.995	19.996	100.011	20.134	1.192	0.502
1143.999	650.297	79.996	19.996	100.011	20.133	1.295	0.504
1145.999	651.371	79.995	19.996	100.013	20.136	1.064	0.512
1147.998	652.404	79.995	19.997	100.011	20.135	1.120	0.501
1149.998	653.474	79.995	19.998	100.006	20.135	1.124	0.554
1151.998	654.517	79.994	19.997	100.001	20.136	1.086	0.529
1153.998	655.565	79.994	19.996	100.004	20.136	1.098	0.546
1155.998	656.596	79.995	19.997	100.011	20.136	1.101	0.510
1157.998	657.610	79.995	19.997	100.014	20.138	0.942	0.518
1159.998	658.643	79.995	19.995	100.008	20.136	1.030	0.517
1161.998	659.703	79.997	19.996	100.002	20.135	1.126	0.530
1163.998	660.731	79.998	19.996	100.012	20.135	1.150	0.533
1165.998	661.739	79.997	19.995	100.012	20.136	1.081	0.522
1167.998	662.769	79.996	19.995	100.006	20.134	1.214	0.532
1169.998	663.767	79.995	19.996	100.014	20.133	1.321	0.511
1171.998	664.793	79.994	19.997	100.004	20.135	1.120	0.490
1173.998	665.811	79.994	19.995	100.014	20.133	1.287	0.511
1175.998	666.846	79.993	19.996	100.014	20.134	1.197	0.504
1177.998	667.853	79.993	19.995	100.008	20.136	1.036	0.508
1179.998	668.895	79.994	19.996	100.011	20.136	1.047	0.498
1181.998	669.920	79.993	19.995	100.015	20.136	1.041	0.499
1183.998	670.920	79.994	19.995	100.017	20.137	0.994	0.481
1185.998	671.942	79.995	19.996	100.010	20.138	0.945	0.523
1187.999	672.986	79.993	19.996	100.000	20.138	0.938	0.510
1189.998	673.936	79.994	19.995	100.010	20.139	0.829	0.509
1191.998	675.025	79.996	19.995	100.010	20.137	1.024	0.547
1193.998	676.007	79.994	19.996	99.997	20.137	0.972	0.505
1195.998	677.045	79.996	19.995	100.007	20.137	1.024	0.536
1197.998	678.025	79.995	19.995	100.009	20.139	0.861	0.507
1199.998	679.060	79.994	19.996	99.999	20.139	0.801	0.566
1201.998	680.051	79.993	19.995	99.998	20.136	1.043	0.487
1203.999	681.054	79.994	19.996	100.012	20.138	0.904	0.501
1205.999	682.079	79.993	19.996	100.011	20.134	1.224	0.514
1207.998	683.032	79.993	19.996	100.002	20.133	1.274	0.496
1209.998	684.035	79.995	19.997	99.997	20.137	0.996	0.524
1211.998	685.101	79.994	19.997	100.011	20.134	1.218	0.527
1213.998	686.086	79.995	19.997	100.010	20.133	1.306	0.500
1215.998	687.105	79.995	19.996	99.993	20.135	1.111	0.512
1217.998	688.093	79.996	19.996	100.004	20.138	0.942	0.524
1219.998	689.081	79.996	19.996	100.010	20.138	0.895	0.489
1221.998	690.074	79.995	19.996	100.010	20.136	1.034	0.484
1223.998	691.127	79.995	19.996	100.012	20.138	0.942	0.518
1225.998	692.099	79.995	19.996	100.006	20.138	0.904	0.512
1227.998	693.132	79.995	19.995	100.011	20.138	0.944	0.519
1229.998	694.147	79.994	19.996	100.011	20.135	1.135	0.532
1231.998	695.183	79.995	19.996	99.999	20.138	0.917	0.520
1233.998	696.150	79.994	19.996	99.993	20.138	0.921	0.504
1235.998	697.137	79.996	19.997	100.005	20.138	0.874	0.500
1237.998	698.189	79.996	19.996	99.998	20.138	0.876	0.513
1239.998	699.217	79.995	19.997	100.004	20.140	0.757	0.519
1241.998	700.212	79.997	19.996	99.995	20.143	0.483	0.491
1243.998	701.184	79.996	19.996	99.996	20.140	0.722	0.498
1245.998	702.196	79.997	19.996	100.013	20.139	0.808	0.489
1247.998	703.218	79.997	19.996	100.009	20.137	1.009	0.497
1249.998	704.261	79.997	19.996	100.009	20.137	0.979	0.521
1251.999	705.260	79.994	19.996	100.015	20.137	0.964	0.495
1253.999	706.269	79.994	19.995	100.014	20.137	0.979	0.494
1255.998	707.239	79.995	19.996	100.005	20.136	1.049	0.492
1257.998	708.267	79.996	19.996	100.014	20.136	1.073	0.475
1259.998	709.289	79.996	19.995	100.011	20.138	0.915	0.502
1261.998	710.282	79.995	19.996	99.998	20.135	1.165	0.505
1263.998	711.349	79.995	19.996	99.996	20.135	1.152	0.532
1265.998	712.358	79.996	19.996	100.004	20.133	1.323	0.520
1267.998	713.383	79.995	19.995	100.005	20.135	1.111	0.491
1269.998	714.424	79.997	19.995	100.005	20.135	1.130	0.534
1271.999	715.464	79.994	19.996	100.008	20.134	1.246	0.532
1273.998	716.502	79.995	19.996	99.999	20.136	1.069	0.531
1275.998	717.537	79.994	19.997	99.997	20.138	0.934	0.524
1277.998	718.586	79.994	19.996	100.008	20.140	0.769	0.505
1279.998	719.596	79.993	19.996	99.999	20.136	1.068	0.497
1281.998	720.629	79.995	19.996	100.007	20.136	1.054	0.537
1283.998	721.685	79.994	19.997	100.008	20.139	0.833	0.495
1285.998	722.701	79.995	19.995	100.017	20.136	1.083	0.501
1287.998	723.736	79.995	19.996	100.004	20.137	0.964	0.515
1289.999	724.767	79.994	19.996	100.003	20.138	0.891	0.497
1291.998	725.810	79.995	19.997	99.999	20.134	1.192	0.531
1293.998	726.790	79.996	19.996	100.000	20.135	1.141	0.496
1295.998	727.818	79.997	19.996	99.990	20.134	1.252	0.519
1297.998	728.780	79.997	19.996	100.008	20.135	1.107	0.501
1299.998	729.855	79.995	19.996	99.995	20.138	0.906	0.500
1301.998	730.871	79.997	19.996	100.002	20.134	1.194	0.536
1303.998	731.879	79.995	19.995	100.011	20.135	1.141	0.483
1305.998	732.888	79.994	19.996	100.006	20.134	1.218	0.491
1307.998	733.906	79.995	19.996	100.010	20.137	0.998	0.500
1309.998	734.947	79.996	19.996	100.018	20.134	1.207	0.510
1311.998	735.936	79.995	19.996	100.004	20.133	1.267	0.515
1313.998	736.945	79.995	19.995	99.995	20.135	1.180	0.521
1315.998	737.941	79.997	19.995	100.003	20.135	1.120	0.506
1317.998	738.902	79.998	19.996	100.002	20.133	1.323	0.501
1319.998	739.931	79.998	19.996	100.007	20.136	1.096	0.510
1321.998	740.951	79.997	19.997	99.997	20.135	1.173	0.499
1323.998	741.977	79.996	19.996	99.993	20.137	0.992	0.538
1325.998	742.957	79.995	19.996	100.003	20.136	1.088	0.514
1326.998	743.473	79.996	19.997	100.004	20.133	1.291	0.507