File: 01_Data/Cotton_Raw/MCC/Cotton_Raw_MCC_30K_min_210708_R3.txt
Sample ID:	C:\MCC\MCC Cal\Test\New folder\Cotton_Raw_MCC_30K_min_210708_R3.txt
Sample Weight (mg):	3.2
Heating Rate (C/s):	0.5
Combustor Temp (C):	900
N2 Flow Rate (cc/min):	80
O2 Flow Rate (cc/min):	20
Calibration File:	C:\MCC\MCC Cal\Coeff1 JN10440_30_210304.txt.txt
T Correction Coefficients:	0	1.024463	0
Time Shift (s):	14
*
Time (s)	Temperature (C)	N2 flow rate (cc/min)	O2 flow rate (cc/min)	Flow Rate (cc/min)	Oxygen (%)	HRR (W/g)	Heating rate (C/s)
0.000	107.699	79.993	19.995	99.901	20.266	0.099	-0.018
2.000	107.675	79.992	19.995	99.897	20.262	0.456	-0.010
4.000	107.706	79.993	19.995	99.898	20.266	0.133	0.003
6.000	107.678	79.994	19.995	99.901	20.266	0.147	-0.009
8.000	107.676	79.993	19.995	99.897	20.263	0.440	0.013
10.000	107.666	79.992	19.995	99.895	20.261	0.582	0.009
12.000	107.633	79.993	19.994	99.895	20.260	0.652	-0.024
14.000	107.628	79.991	19.994	99.895	20.259	0.766	0.011
16.000	107.645	79.991	19.995	99.921	20.256	1.068	0.013
18.000	107.650	79.993	19.995	99.923	20.254	1.237	0.003
20.000	107.654	79.992	19.995	99.856	20.254	1.264	-0.001
22.001	107.645	79.994	19.993	100.034	20.252	1.502	-0.020
24.000	107.701	79.993	19.995	99.975	20.254	1.286	0.003
26.000	107.756	79.995	19.995	99.971	20.251	1.545	0.028
28.000	107.813	79.995	19.994	99.981	20.243	2.334	0.012
30.000	107.931	79.995	19.994	100.031	20.240	2.645	0.068
32.000	108.003	79.995	19.994	100.044	20.235	3.134	0.035
34.000	108.154	79.993	19.995	100.078	20.232	3.439	0.085
36.000	108.354	79.995	19.995	100.093	20.228	3.848	0.096
38.000	108.566	79.994	19.995	100.087	20.228	3.806	0.140
40.000	108.831	79.995	19.994	100.106	20.223	4.343	0.137
42.001	109.110	79.996	19.995	100.099	20.220	4.632	0.165
44.000	109.442	79.996	19.994	100.112	20.219	4.657	0.169
46.000	109.761	79.996	19.995	100.124	20.217	4.900	0.141
48.000	110.161	79.997	19.995	100.124	20.215	5.103	0.185
50.001	110.551	79.997	19.994	100.126	20.214	5.184	0.186
52.000	110.961	79.996	19.995	100.128	20.216	5.021	0.220
54.000	111.425	79.995	19.995	100.138	20.217	4.941	0.232
56.000	111.877	79.997	19.995	100.133	20.213	5.294	0.229
58.000	112.373	79.996	19.995	100.138	20.209	5.686	0.259
60.000	112.900	79.994	19.996	100.139	20.208	5.730	0.277
62.000	113.502	79.994	19.995	100.150	20.209	5.637	0.294
64.000	114.050	79.992	19.994	100.156	20.208	5.811	0.280
66.000	114.688	79.993	19.995	100.164	20.209	5.634	0.330
68.000	115.326	79.993	19.995	100.141	20.210	5.597	0.311
70.001	115.958	79.995	19.994	100.145	20.209	5.675	0.344
72.000	116.593	79.992	19.995	100.161	20.207	5.846	0.356
74.000	117.266	79.993	19.995	100.161	20.205	6.025	0.332
76.000	117.993	79.992	19.995	100.153	20.208	5.792	0.370
78.000	118.711	79.992	19.995	100.168	20.205	6.113	0.373
80.000	119.433	79.992	19.995	100.169	20.210	5.571	0.350
82.000	120.157	79.993	19.995	100.164	20.208	5.767	0.366
84.000	120.922	79.992	19.995	100.155	20.206	6.020	0.384
86.000	121.679	79.992	19.996	100.160	20.207	5.888	0.370
88.000	122.506	79.992	19.997	100.163	20.203	6.271	0.428
90.000	123.323	79.993	19.996	100.097	20.210	5.613	0.391
92.000	124.112	79.993	19.995	100.171	20.208	5.757	0.422
94.000	124.928	79.994	19.995	100.208	20.209	5.722	0.408
96.000	125.765	79.993	19.995	100.161	20.206	5.966	0.405
98.000	126.604	79.993	19.995	100.162	20.207	5.918	0.419
100.000	127.455	79.992	19.995	100.159	20.204	6.144	0.433
102.000	128.348	79.993	19.995	100.162	20.207	5.909	0.435
104.000	129.234	79.994	19.995	100.161	20.204	6.193	0.435
106.000	130.086	79.995	19.995	100.152	20.210	5.611	0.451
108.000	130.943	79.993	19.994	100.157	20.207	5.879	0.428
110.000	131.851	79.995	19.995	100.148	20.209	5.714	0.445
112.000	132.730	79.996	19.994	100.142	20.208	5.790	0.453
114.000	133.657	79.995	19.994	100.159	20.205	6.023	0.459
116.000	134.569	79.994	19.995	100.142	20.207	5.878	0.452
118.000	135.448	79.993	19.994	100.132	20.206	6.014	0.460
120.000	136.417	79.994	19.995	100.141	20.206	5.942	0.463
122.000	137.379	79.992	19.994	100.149	20.208	5.792	0.455
124.000	138.289	79.992	19.994	100.087	20.204	6.137	0.482
126.000	139.249	79.994	19.993	100.164	20.205	6.026	0.458
128.000	140.201	79.994	19.994	100.195	20.209	5.710	0.480
130.000	141.172	79.993	19.994	100.166	20.207	5.900	0.501
132.000	142.186	79.995	19.994	100.160	20.209	5.716	0.483
134.000	143.106	79.997	19.993	100.148	20.210	5.545	0.478
136.000	144.084	79.994	19.994	100.143	20.210	5.571	0.504
138.000	145.075	79.994	19.994	100.134	20.211	5.453	0.507
140.000	145.998	79.993	19.995	100.135	20.210	5.549	0.472
142.000	147.007	79.992	19.994	100.132	20.208	5.792	0.482
144.000	148.013	79.992	19.994	100.140	20.207	5.825	0.538
146.000	149.005	79.992	19.995	100.144	20.206	5.967	0.510
148.000	150.007	79.993	19.995	100.062	20.210	5.622	0.502
150.000	150.897	79.993	19.996	100.144	20.211	5.523	0.455
152.000	151.895	79.991	19.995	100.214	20.213	5.244	0.526
154.000	152.871	79.993	19.995	100.132	20.210	5.614	0.482
156.000	153.915	79.992	19.995	100.127	20.208	5.750	0.557
158.000	154.788	79.993	19.995	100.127	20.211	5.469	0.458
160.000	155.804	79.993	19.994	100.126	20.212	5.354	0.474
162.000	156.782	79.991	19.995	100.125	20.209	5.669	0.483
164.000	157.778	79.992	19.995	100.125	20.212	5.426	0.468
166.000	158.753	79.991	19.996	100.124	20.210	5.583	0.463
168.000	159.745	79.993	19.995	100.124	20.211	5.514	0.484
170.000	160.726	79.993	19.997	100.120	20.210	5.536	0.467
172.000	161.755	79.992	19.996	100.123	20.214	5.223	0.531
174.000	162.743	79.992	19.997	100.121	20.207	5.877	0.495
176.000	163.693	79.993	19.997	100.117	20.207	5.865	0.481
178.000	164.721	79.994	19.997	100.113	20.209	5.651	0.513
180.000	165.714	79.993	19.996	100.123	20.208	5.749	0.494
182.000	166.746	79.993	19.996	100.124	20.208	5.731	0.516
184.000	167.723	79.993	19.995	100.122	20.209	5.640	0.517
186.000	168.688	79.994	19.996	100.110	20.208	5.785	0.505
188.000	169.644	79.993	19.994	100.128	20.206	5.952	0.455
190.000	170.658	79.994	19.994	100.115	20.206	5.928	0.492
192.000	171.679	79.995	19.995	100.127	20.207	5.891	0.503
194.000	172.644	79.993	19.995	100.127	20.208	5.792	0.514
196.000	173.663	79.993	19.994	100.125	20.207	5.829	0.502
198.000	174.649	79.993	19.995	100.125	20.206	5.934	0.504
200.000	175.659	79.994	19.995	100.106	20.210	5.612	0.521
202.000	176.639	79.994	19.995	100.113	20.209	5.644	0.502
204.000	177.612	79.993	19.995	100.112	20.206	5.960	0.528
206.000	178.607	79.994	19.995	100.109	20.208	5.786	0.515
208.000	179.599	79.994	19.994	100.107	20.210	5.560	0.483
210.000	180.570	79.995	19.994	100.111	20.206	5.943	0.480
212.000	181.576	79.996	19.994	100.101	20.203	6.257	0.496
214.000	182.623	79.997	19.994	100.039	20.201	6.446	0.526
216.000	183.557	79.996	19.995	100.049	20.204	6.141	0.488
218.000	184.538	79.998	19.994	100.182	20.207	5.890	0.475
220.000	185.564	79.995	19.994	100.099	20.208	5.792	0.495
222.000	186.578	79.994	19.995	100.102	20.205	6.091	0.498
224.000	187.569	79.993	19.994	100.091	20.206	5.933	0.486
226.000	188.546	79.993	19.995	100.090	20.205	6.103	0.461
228.000	189.515	79.993	19.995	100.097	20.204	6.162	0.509
230.000	190.506	79.993	19.995	100.099	20.205	6.104	0.491
232.000	191.550	79.992	19.995	100.115	20.208	5.780	0.539
234.000	192.534	79.994	19.995	100.110	20.206	5.986	0.502
236.000	193.505	79.992	19.995	100.096	20.209	5.668	0.479
238.000	194.524	79.992	19.995	100.086	20.207	5.856	0.509
240.000	195.497	79.992	19.995	100.100	20.208	5.759	0.490
242.000	196.478	79.993	19.996	100.103	20.207	5.847	0.479
244.000	197.460	79.994	19.996	100.091	20.210	5.607	0.465
246.000	198.457	79.992	19.996	100.102	20.207	5.861	0.489
248.000	199.472	79.993	19.994	100.106	20.208	5.762	0.518
250.000	200.456	79.993	19.995	100.099	20.206	5.925	0.484
252.000	201.436	79.994	19.995	100.093	20.203	6.219	0.476
254.000	202.456	79.993	19.995	100.095	20.204	6.136	0.499
256.000	203.497	79.991	19.995	100.098	20.202	6.332	0.503
258.000	204.426	79.991	19.996	100.099	20.202	6.387	0.479
260.000	205.446	79.992	19.995	100.103	20.199	6.678	0.482
262.000	206.490	79.993	19.996	100.098	20.197	6.807	0.510
264.000	207.439	79.992	19.995	100.097	20.201	6.475	0.496
266.000	208.474	79.992	19.995	100.105	20.199	6.670	0.506
268.000	209.463	79.993	19.995	100.101	20.199	6.630	0.523
270.000	210.467	79.994	19.996	100.093	20.197	6.873	0.515
272.000	211.452	79.994	19.994	100.093	20.194	7.159	0.461
274.000	212.450	79.994	19.995	100.101	20.194	7.114	0.485
276.000	213.461	79.994	19.994	100.092	20.194	7.098	0.496
278.000	214.458	79.993	19.994	100.088	20.192	7.307	0.492
280.000	215.474	79.995	19.995	100.091	20.195	7.060	0.522
282.000	216.461	79.995	19.995	100.087	20.190	7.502	0.518
284.000	217.446	79.993	19.993	100.087	20.194	7.108	0.515
286.000	218.490	79.995	19.995	100.088	20.191	7.431	0.517
288.000	219.477	79.992	19.995	100.099	20.191	7.426	0.511
290.000	220.511	79.997	19.995	100.097	20.189	7.649	0.524
292.000	221.497	79.995	19.996	100.090	20.189	7.660	0.518
294.000	222.516	79.994	19.995	100.090	20.187	7.857	0.504
296.000	223.492	79.996	19.995	100.082	20.186	7.927	0.490
298.000	224.506	79.996	19.996	100.084	20.186	7.927	0.489
300.000	225.524	79.996	19.994	100.086	20.186	7.954	0.485
302.000	226.455	79.996	19.995	100.093	20.184	8.088	0.477
304.000	227.489	79.993	19.995	100.090	20.181	8.449	0.471
306.000	228.512	79.993	19.994	100.087	20.181	8.457	0.519
308.000	229.546	79.995	19.995	100.089	20.179	8.561	0.522
310.000	230.513	79.993	19.994	100.096	20.178	8.667	0.510
312.000	231.517	79.992	19.995	100.097	20.177	8.770	0.505
314.000	232.514	79.992	19.996	100.102	20.173	9.182	0.515
316.000	233.495	79.993	19.994	100.097	20.171	9.369	0.489
318.000	234.461	79.993	19.995	100.098	20.167	9.750	0.495
320.000	235.441	79.993	19.995	100.094	20.165	9.928	0.498
322.000	236.448	79.994	19.995	100.092	20.160	10.490	0.520
324.000	237.463	79.994	19.996	100.108	20.162	10.236	0.525
326.000	238.414	79.992	19.995	100.099	20.160	10.437	0.476
328.000	239.382	79.992	19.994	100.113	20.157	10.746	0.500
330.000	240.336	79.993	19.995	100.111	20.153	11.142	0.488
332.000	241.348	79.993	19.995	100.105	20.148	11.612	0.497
334.000	242.342	79.993	19.994	100.105	20.147	11.684	0.503
336.000	243.310	79.993	19.996	100.111	20.143	12.163	0.484
338.000	244.324	79.993	19.995	100.109	20.143	12.100	0.497
340.000	245.319	79.993	19.995	100.101	20.143	12.160	0.513
342.000	246.329	79.992	19.996	100.099	20.138	12.631	0.509
344.000	247.286	79.995	19.995	100.100	20.138	12.656	0.486
346.000	248.239	79.993	19.996	100.101	20.131	13.284	0.470
348.000	249.251	79.994	19.995	100.105	20.130	13.373	0.507
350.000	250.295	79.996	19.997	100.115	20.130	13.395	0.508
352.000	251.308	79.995	19.996	100.114	20.129	13.452	0.482
354.000	252.334	79.996	19.997	100.099	20.124	14.003	0.502
356.000	253.339	79.996	19.995	100.110	20.122	14.219	0.511
358.000	254.291	79.994	19.996	100.109	20.120	14.379	0.457
360.000	255.269	79.994	19.995	100.120	20.123	14.080	0.482
362.000	256.310	79.993	19.996	100.117	20.117	14.615	0.517
364.000	257.276	79.994	19.996	100.124	20.114	14.953	0.489
366.001	258.298	79.994	19.994	100.121	20.112	15.185	0.503
368.000	259.262	79.996	19.995	100.116	20.109	15.429	0.477
370.001	260.299	79.994	19.996	100.115	20.108	15.496	0.496
372.000	261.276	79.996	19.995	100.124	20.108	15.544	0.481
374.000	262.307	79.998	19.993	100.124	20.106	15.750	0.507
376.000	263.265	79.995	19.995	100.126	20.098	16.494	0.460
378.000	264.275	79.996	19.994	100.128	20.096	16.678	0.508
380.000	265.283	79.995	19.994	100.127	20.092	17.123	0.498
382.000	266.300	79.996	19.995	100.129	20.087	17.614	0.511
384.000	267.308	79.993	19.994	100.128	20.085	17.765	0.522
386.000	268.313	79.992	19.995	100.130	20.080	18.245	0.498
388.000	269.314	79.993	19.994	100.132	20.078	18.483	0.499
390.000	270.317	79.993	19.995	100.134	20.070	19.235	0.520
392.000	271.375	79.993	19.993	100.078	20.066	19.647	0.517
394.000	272.360	79.993	19.994	100.108	20.063	19.916	0.491
396.000	273.346	79.993	19.994	100.218	20.063	19.900	0.487
398.000	274.410	79.994	19.994	100.156	20.058	20.428	0.523
400.000	275.369	79.993	19.995	100.086	20.055	20.745	0.490
402.000	276.379	79.995	19.994	100.137	20.051	21.127	0.509
404.000	277.385	79.993	19.995	100.204	20.044	21.807	0.520
406.000	278.400	79.994	19.994	100.143	20.039	22.272	0.492
408.000	279.420	79.995	19.995	100.137	20.035	22.719	0.496
410.000	280.431	79.994	19.994	100.153	20.030	23.120	0.518
412.000	281.396	79.993	19.995	100.143	20.022	23.969	0.486
414.000	282.412	79.992	19.996	100.157	20.014	24.770	0.493
416.000	283.429	79.993	19.996	100.161	20.007	25.406	0.533
418.000	284.411	79.993	19.996	100.161	20.000	26.056	0.519
420.000	285.381	79.994	19.995	100.161	19.994	26.688	0.483
422.000	286.451	79.994	19.997	100.160	19.989	27.182	0.503
424.000	287.426	79.994	19.995	100.166	19.981	27.997	0.522
426.000	288.409	79.997	19.994	100.165	19.971	28.891	0.501
428.000	289.381	79.995	19.995	100.163	19.968	29.219	0.506
430.000	290.359	79.994	19.996	100.166	19.956	30.361	0.472
432.000	291.373	79.996	19.995	100.167	19.952	30.811	0.496
434.000	292.423	79.994	19.995	100.170	19.943	31.689	0.504
436.000	293.410	79.994	19.994	100.191	19.937	32.260	0.506
438.000	294.392	79.995	19.994	100.190	19.924	33.553	0.500
440.000	295.425	79.993	19.996	100.191	19.918	34.165	0.510
442.000	296.410	79.995	19.995	100.195	19.908	35.080	0.491
444.000	297.408	79.993	19.995	100.200	19.899	36.001	0.517
446.000	298.448	79.996	19.995	100.204	19.891	36.764	0.517
448.000	299.430	79.994	19.994	100.206	19.880	37.788	0.502
450.000	300.416	79.996	19.994	100.215	19.870	38.797	0.498
452.000	301.372	79.996	19.993	100.221	19.861	39.706	0.459
454.000	302.399	79.996	19.994	100.209	19.852	40.544	0.493
456.000	303.422	79.995	19.994	100.210	19.843	41.416	0.499
458.000	304.388	79.996	19.995	100.216	19.832	42.577	0.500
460.000	305.384	79.995	19.994	100.219	19.820	43.715	0.493
462.000	306.415	79.995	19.994	100.219	19.808	44.850	0.511
464.000	307.382	79.992	19.997	100.226	19.795	46.194	0.471
466.000	308.393	79.994	19.994	100.238	19.787	46.961	0.497
468.000	309.382	79.994	19.995	100.237	19.774	48.224	0.474
470.000	310.363	79.988	20.004	100.242	19.763	49.258	0.472
472.000	311.380	79.991	19.997	100.218	19.747	50.856	0.495
474.000	312.438	79.991	19.996	100.177	19.740	51.562	0.514
476.000	313.408	79.994	19.996	100.313	19.728	52.767	0.512
478.000	314.414	79.994	19.995	100.297	19.713	54.210	0.489
480.000	315.424	79.996	19.995	100.277	19.698	55.626	0.494
482.000	316.398	79.995	19.995	100.275	19.687	56.761	0.497
484.000	317.427	79.993	19.996	100.281	19.667	58.693	0.496
486.000	318.365	79.995	19.994	100.283	19.656	59.809	0.505
488.000	319.382	79.995	19.995	100.284	19.634	61.925	0.505
490.000	320.400	79.995	19.995	100.288	19.615	63.835	0.537
492.000	321.380	79.994	19.995	100.287	19.601	65.185	0.499
494.000	322.327	79.995	19.995	100.303	19.581	67.132	0.470
496.000	323.330	80.000	19.994	100.324	19.557	69.451	0.507
498.000	324.352	79.993	19.995	100.331	19.538	71.331	0.501
500.000	325.328	79.994	19.996	100.346	19.515	73.644	0.518
502.000	326.309	79.994	19.997	100.337	19.489	76.158	0.497
504.000	327.258	79.994	19.996	100.360	19.463	78.676	0.490
506.000	328.292	79.994	19.995	100.373	19.439	81.074	0.496
508.000	329.278	79.995	19.996	100.376	19.412	83.733	0.504
510.000	330.251	79.992	19.995	100.400	19.383	86.504	0.488
512.000	331.256	79.995	19.996	100.400	19.354	89.295	0.503
514.000	332.255	79.996	19.995	100.403	19.326	92.005	0.485
516.000	333.280	79.996	19.995	100.404	19.304	94.135	0.529
518.000	334.320	79.994	19.996	100.400	19.283	96.173	0.543
520.000	335.343	79.994	19.995	100.394	19.272	97.207	0.537
522.000	336.333	79.994	19.995	100.360	19.269	97.459	0.509
524.000	337.399	79.994	19.996	100.327	19.273	97.046	0.547
526.000	338.410	79.995	19.995	100.295	19.289	95.532	0.517
528.000	339.426	79.994	19.996	100.257	19.316	92.797	0.522
530.000	340.494	79.996	19.995	100.221	19.353	89.210	0.497
532.000	341.501	79.997	19.997	100.184	19.396	85.016	0.533
534.000	342.544	79.998	19.995	100.158	19.450	79.739	0.543
536.000	343.540	79.997	19.996	100.128	19.503	74.576	0.481
538.000	344.601	79.998	19.993	100.119	19.560	69.027	0.485
540.000	345.569	79.994	19.992	100.102	19.617	63.408	0.497
542.000	346.616	79.997	19.993	100.097	19.670	58.312	0.530
544.000	347.663	79.994	19.996	100.086	19.720	53.410	0.480
546.000	348.671	79.995	19.996	100.085	19.770	48.481	0.516
548.000	349.716	79.995	19.996	100.084	19.820	43.623	0.548
550.000	350.761	79.994	19.995	100.064	19.862	39.487	0.530
552.000	351.752	79.993	19.995	100.082	19.900	35.849	0.501
554.000	352.769	79.995	19.995	100.074	19.935	32.364	0.538
556.000	353.820	79.993	19.995	100.078	19.963	29.681	0.544
558.000	354.814	79.994	19.997	100.076	19.987	27.348	0.522
560.000	355.790	79.994	19.996	100.075	20.008	25.269	0.520
562.000	356.816	79.995	19.995	100.069	20.031	23.008	0.550
564.000	357.850	79.995	19.994	100.074	20.049	21.284	0.515
566.001	358.876	79.995	19.994	100.061	20.061	20.165	0.517
568.001	359.887	79.994	19.995	100.063	20.068	19.452	0.532
570.000	360.853	79.995	19.995	100.065	20.078	18.485	0.491
572.000	361.842	79.994	19.995	100.075	20.087	17.604	0.480
574.000	362.880	79.994	19.995	100.070	20.092	17.128	0.513
576.000	363.887	79.994	19.993	100.079	20.095	16.774	0.498
578.000	364.931	79.994	19.995	100.086	20.102	16.132	0.521
580.000	365.910	79.993	19.995	100.078	20.107	15.660	0.513
582.000	366.840	79.994	19.994	100.073	20.109	15.461	0.479
584.000	367.850	79.992	19.996	100.085	20.113	15.075	0.514
586.000	368.872	79.995	19.995	100.085	20.111	15.191	0.504
588.000	369.848	79.997	19.995	100.081	20.115	14.835	0.508
590.000	370.848	79.995	19.996	100.073	20.118	14.528	0.497
592.000	371.862	79.995	19.994	100.076	20.115	14.857	0.508
594.000	372.897	79.996	19.996	100.075	20.119	14.467	0.532
596.000	373.905	79.996	19.995	100.067	20.119	14.424	0.534
598.000	374.919	79.994	19.996	100.058	20.118	14.565	0.521
600.000	375.859	79.996	19.996	100.061	20.122	14.172	0.491
602.001	376.875	79.994	19.995	100.071	20.122	14.176	0.518
604.000	377.900	79.996	19.995	100.076	20.122	14.197	0.525
606.000	378.873	79.995	19.994	100.065	20.121	14.234	0.504
608.001	379.897	79.997	19.996	100.069	20.126	13.781	0.500
610.000	380.898	79.995	19.987	100.073	20.122	14.117	0.518
612.000	381.842	79.994	20.001	100.066	20.121	14.251	0.499
614.000	382.876	79.996	19.996	100.067	20.125	13.825	0.522
616.000	383.868	79.996	19.997	100.077	20.124	13.931	0.503
618.000	384.892	79.995	19.995	100.072	20.123	14.037	0.517
620.001	385.861	79.997	19.996	100.069	20.121	14.231	0.491
622.000	386.921	79.994	19.996	100.071	20.124	13.982	0.507
624.000	387.925	79.995	19.995	100.067	20.126	13.796	0.491
626.000	388.929	79.995	19.995	100.078	20.129	13.521	0.489
628.000	389.973	79.993	19.995	100.073	20.128	13.608	0.516
630.000	390.971	79.993	19.994	100.074	20.128	13.555	0.508
632.000	392.004	79.994	19.995	100.067	20.130	13.403	0.505
634.000	393.047	79.994	19.993	100.066	20.129	13.458	0.528
636.000	394.042	79.994	19.993	100.058	20.131	13.304	0.515
638.000	395.085	79.996	19.995	100.064	20.129	13.454	0.515
640.000	396.107	79.993	19.994	100.073	20.133	13.117	0.486
642.000	397.130	79.997	19.995	100.067	20.133	13.091	0.503
644.000	398.172	79.994	19.994	100.055	20.133	13.089	0.510
646.000	399.166	79.996	19.995	100.056	20.138	12.603	0.518
648.000	400.210	79.995	19.993	100.070	20.137	12.718	0.514
650.000	401.244	79.993	19.994	100.068	20.138	12.595	0.549
652.000	402.200	79.993	19.995	100.059	20.137	12.737	0.469
654.000	403.298	79.993	19.996	100.060	20.137	12.655	0.519
656.000	404.269	79.994	19.995	100.050	20.141	12.325	0.504
658.000	405.345	79.992	19.995	100.054	20.139	12.499	0.518
660.000	406.311	79.993	19.995	100.047	20.149	11.572	0.485
662.000	407.349	79.991	19.995	100.051	20.154	11.069	0.512
664.000	408.263	79.993	19.995	100.059	20.148	11.622	0.520
666.000	409.327	79.996	19.994	100.032	20.149	11.566	0.481
668.000	410.356	79.995	19.996	100.005	20.146	11.796	0.579
670.000	411.461	79.994	19.996	100.122	20.146	11.801	0.476
672.000	412.359	79.995	19.995	100.051	20.147	11.707	0.538
674.000	413.672	79.993	19.996	100.051	20.147	11.694	0.599
676.000	414.483	79.996	19.995	100.049	20.150	11.443	0.362
678.000	415.669	79.995	19.996	100.050	20.152	11.262	0.584
680.000	416.495	79.998	19.995	100.052	20.152	11.275	0.574
682.000	417.426	79.990	19.997	100.049	20.149	11.486	0.520
684.000	418.442	79.994	19.996	100.048	20.153	11.179	0.478
686.000	419.520	79.994	19.995	100.049	20.155	10.922	0.493
688.000	420.521	79.995	19.995	100.050	20.153	11.128	0.523
690.000	421.564	79.997	19.993	100.055	20.157	10.788	0.493
692.000	422.566	79.995	19.996	100.055	20.158	10.601	0.502
694.000	423.578	79.997	19.994	100.051	20.159	10.545	0.507
696.000	424.557	79.995	19.995	100.050	20.156	10.861	0.470
698.000	425.577	79.995	19.995	100.053	20.159	10.546	0.481
700.000	426.634	79.994	19.996	100.047	20.160	10.500	0.539
702.000	427.648	79.993	19.996	100.051	20.159	10.564	0.508
704.000	428.654	79.994	19.995	100.048	20.163	10.123	0.504
706.000	429.670	79.993	19.995	100.053	20.163	10.134	0.494
708.000	430.742	79.993	19.996	100.057	20.165	9.954	0.529
710.000	431.711	79.994	19.997	100.062	20.167	9.788	0.477
712.000	432.725	79.994	19.995	100.053	20.167	9.756	0.487
714.000	433.788	79.994	19.995	100.048	20.168	9.666	0.507
716.000	434.832	79.993	19.995	100.047	20.170	9.524	0.515
718.000	435.828	79.996	19.994	100.050	20.170	9.432	0.518
720.000	436.879	79.994	19.994	100.043	20.169	9.614	0.539
722.000	437.873	79.995	19.996	100.045	20.170	9.430	0.507
724.000	438.904	79.994	19.996	100.046	20.172	9.318	0.520
726.000	439.912	79.994	19.995	100.047	20.170	9.481	0.520
728.000	440.904	79.994	19.995	100.040	20.172	9.257	0.487
730.000	441.931	79.994	19.996	100.035	20.175	9.016	0.498
732.000	442.926	79.995	19.995	100.043	20.177	8.831	0.466
734.000	443.948	79.989	19.997	100.041	20.179	8.577	0.500
736.000	444.971	79.998	19.995	100.046	20.176	8.939	0.491
738.000	445.960	79.994	19.996	100.042	20.177	8.818	0.496
740.000	446.977	79.995	19.995	100.045	20.175	8.965	0.515
742.000	447.957	79.994	19.991	100.039	20.181	8.402	0.497
744.000	448.998	79.993	19.994	100.033	20.183	8.193	0.505
746.000	450.010	79.994	19.994	100.042	20.184	8.075	0.518
748.000	451.031	79.996	19.993	100.045	20.181	8.396	0.506
750.000	452.021	79.995	19.994	100.041	20.181	8.441	0.473
752.000	453.061	79.994	19.996	100.043	20.186	7.945	0.505
754.000	454.061	79.995	19.994	100.049	20.185	8.052	0.501
756.000	455.090	79.993	19.996	100.045	20.183	8.166	0.481
758.000	456.132	79.996	19.993	100.038	20.184	8.142	0.515
760.000	457.154	79.994	19.994	100.045	20.180	8.503	0.528
762.000	458.142	79.994	19.994	100.042	20.188	7.700	0.503
764.000	459.182	79.994	19.993	100.049	20.186	7.871	0.528
766.000	460.202	79.992	19.997	100.045	20.187	7.857	0.532
768.000	461.202	79.995	19.997	100.041	20.187	7.812	0.507
770.000	462.245	79.993	19.992	100.045	20.188	7.755	0.530
772.000	463.236	79.996	19.994	100.034	20.192	7.345	0.506
774.000	464.187	79.996	19.995	100.030	20.191	7.380	0.494
776.000	465.230	79.994	19.997	100.020	20.192	7.296	0.529
778.000	466.238	79.993	19.995	100.021	20.194	7.122	0.495
780.000	467.252	79.993	19.994	100.033	20.192	7.294	0.510
782.000	468.267	79.996	19.997	100.037	20.192	7.312	0.528
784.000	469.285	79.996	19.993	100.041	20.192	7.334	0.559
786.000	470.316	79.995	19.992	100.024	20.190	7.484	0.544
788.000	471.318	80.000	19.991	100.015	20.193	7.211	0.495
790.000	472.331	79.990	19.991	100.022	20.196	6.943	0.506
792.000	473.373	79.993	19.997	100.028	20.195	7.076	0.556
794.000	474.364	79.991	19.996	100.019	20.193	7.232	0.495
796.000	475.423	79.990	19.998	100.028	20.197	6.882	0.517
798.000	476.419	79.994	19.996	100.029	20.195	7.058	0.497
800.000	477.474	79.994	19.993	100.014	20.196	6.978	0.543
802.000	478.485	79.996	19.995	100.036	20.199	6.664	0.532
804.000	479.522	79.992	19.993	100.037	20.198	6.698	0.520
806.000	480.535	79.994	19.995	100.019	20.200	6.541	0.550
808.000	481.544	79.988	19.994	100.017	20.197	6.795	0.512
810.000	482.564	79.992	20.000	100.023	20.203	6.265	0.511
812.000	483.558	79.993	19.994	100.022	20.202	6.342	0.502
814.000	484.600	79.994	19.994	100.043	20.203	6.289	0.512
816.000	485.639	79.992	19.995	100.023	20.202	6.353	0.514
818.000	486.725	79.993	19.995	100.036	20.204	6.177	0.517
820.000	487.698	79.993	19.993	100.023	20.199	6.619	0.535
822.000	488.726	79.994	19.996	100.021	20.201	6.482	0.532
824.000	489.755	79.996	19.994	100.022	20.203	6.215	0.519
826.000	490.819	79.999	19.987	100.026	20.204	6.164	0.542
828.000	491.805	79.995	19.996	100.030	20.205	6.105	0.504
830.000	492.852	79.999	19.991	100.028	20.204	6.164	0.549
832.000	493.852	79.995	19.999	100.042	20.205	6.065	0.514
834.000	494.883	79.991	19.995	100.031	20.204	6.160	0.535
836.000	495.876	79.988	20.003	100.031	20.206	5.987	0.491
838.000	496.947	80.000	19.992	100.021	20.205	6.054	0.536
840.000	497.998	79.994	19.992	100.019	20.204	6.188	0.517
842.000	498.973	79.996	19.998	100.035	20.206	5.939	0.499
844.000	500.004	79.991	19.998	100.021	20.208	5.789	0.517
846.000	501.030	79.996	19.994	100.011	20.208	5.754	0.517
848.000	502.085	79.999	19.992	100.030	20.210	5.571	0.510
850.000	503.098	79.993	19.992	100.025	20.207	5.841	0.510
852.000	504.129	79.997	19.996	100.030	20.208	5.747	0.522
854.000	505.141	79.994	19.996	100.023	20.207	5.851	0.495
856.000	506.170	79.995	19.997	100.020	20.206	5.971	0.530
858.000	507.211	79.995	19.996	100.020	20.207	5.863	0.519
860.000	508.273	79.997	19.993	100.025	20.211	5.477	0.511
862.001	509.303	79.993	19.995	100.037	20.209	5.682	0.545
864.000	510.331	79.991	19.998	100.019	20.208	5.810	0.518
866.000	511.350	79.993	19.995	100.018	20.208	5.730	0.505
868.000	512.380	79.996	19.995	100.008	20.205	6.102	0.500
870.000	513.392	79.995	19.994	100.020	20.208	5.747	0.530
872.000	514.484	79.993	19.995	100.016	20.207	5.835	0.551
874.000	515.488	80.000	19.996	100.010	20.207	5.891	0.531
876.000	516.560	79.988	20.001	100.014	20.208	5.750	0.525
878.000	517.615	79.992	19.994	100.015	20.204	6.126	0.502
880.000	518.620	79.994	19.996	100.029	20.211	5.497	0.514
882.000	519.664	79.994	19.995	100.034	20.207	5.902	0.509
884.000	520.751	79.993	19.998	100.022	20.211	5.523	0.542
886.000	521.792	79.995	19.994	100.026	20.209	5.681	0.517
888.000	522.839	79.997	19.993	100.020	20.208	5.790	0.550
890.000	523.895	79.994	19.995	100.031	20.209	5.664	0.551
892.000	524.898	79.993	19.996	100.042	20.212	5.381	0.536
894.000	525.987	79.989	19.997	100.032	20.212	5.397	0.549
896.000	526.996	79.990	19.996	100.044	20.213	5.284	0.516
898.000	528.062	79.997	19.998	100.029	20.214	5.229	0.548
900.000	529.086	79.993	19.996	100.022	20.213	5.258	0.530
902.000	530.132	79.995	19.994	100.019	20.214	5.204	0.514
904.000	531.191	79.996	19.991	100.032	20.211	5.429	0.545
906.000	532.191	79.995	19.998	100.025	20.211	5.447	0.484
908.000	533.268	79.995	19.995	100.021	20.213	5.265	0.514
910.000	534.281	79.988	20.003	100.025	20.211	5.463	0.531
912.000	535.355	79.996	19.994	100.018	20.211	5.503	0.530
914.000	536.390	79.989	20.000	100.026	20.210	5.562	0.514
916.000	537.391	79.992	19.998	100.024	20.210	5.594	0.507
918.000	538.429	79.989	19.994	100.009	20.209	5.640	0.488
920.000	539.473	80.002	19.985	100.011	20.209	5.670	0.523
922.000	540.488	80.000	19.990	100.008	20.211	5.509	0.551
924.000	541.464	79.998	19.994	100.015	20.210	5.592	0.491
926.000	542.509	79.992	19.996	100.010	20.214	5.167	0.539
928.000	543.555	79.995	19.994	100.016	20.213	5.305	0.536
930.000	544.522	79.999	19.992	100.032	20.217	4.854	0.505
932.000	545.534	79.991	19.998	100.030	20.217	4.921	0.470
934.000	546.570	79.997	19.994	100.021	20.213	5.300	0.509
936.000	547.623	79.996	19.995	100.025	20.214	5.140	0.522
938.000	548.651	79.995	19.991	100.010	20.213	5.295	0.487
940.000	549.674	79.994	19.996	100.022	20.211	5.519	0.525
942.000	550.700	79.993	19.997	100.014	20.213	5.247	0.515
944.000	551.731	79.998	19.997	100.017	20.213	5.236	0.518
946.001	552.724	79.998	19.994	100.015	20.210	5.546	0.521
948.000	553.773	79.993	19.996	100.012	20.207	5.840	0.521
950.000	554.770	79.994	19.995	100.016	20.208	5.766	0.496
952.000	555.780	79.994	19.998	100.017	20.213	5.319	0.495
954.000	556.795	79.991	19.988	100.014	20.210	5.536	0.486
956.001	557.772	79.995	19.994	100.018	20.213	5.266	0.484
958.000	558.832	79.996	19.995	100.016	20.210	5.567	0.505
960.000	559.821	79.995	19.996	100.027	20.214	5.214	0.471
962.000	560.844	79.990	20.000	100.024	20.210	5.583	0.517
964.000	561.861	79.995	19.995	100.013	20.212	5.393	0.522
966.000	562.906	79.996	19.995	100.022	20.209	5.623	0.532
968.000	563.908	79.992	19.997	100.017	20.213	5.281	0.509
970.000	564.943	79.996	19.996	100.005	20.213	5.252	0.525
972.000	565.938	79.992	19.996	100.010	20.211	5.476	0.527
974.000	566.941	79.994	19.996	100.007	20.211	5.469	0.511
976.000	567.954	80.000	19.992	100.012	20.210	5.552	0.519
978.000	569.018	79.988	20.000	100.008	20.209	5.699	0.532
980.000	570.029	79.989	19.997	100.016	20.212	5.368	0.517
982.000	571.116	79.994	19.995	100.016	20.209	5.625	0.553
984.000	572.092	80.000	19.995	100.016	20.210	5.616	0.494
986.000	573.130	79.992	19.997	100.022	20.209	5.626	0.528
988.000	574.193	79.998	19.995	100.034	20.212	5.394	0.562
990.000	575.246	79.996	19.996	100.030	20.213	5.253	0.526
992.000	576.275	79.997	19.994	100.035	20.216	5.015	0.517
994.000	577.283	79.993	19.999	100.036	20.212	5.360	0.502
996.000	578.301	79.996	19.995	100.024	20.212	5.357	0.549
998.000	579.361	79.994	19.995	100.014	20.209	5.674	0.492
1000.000	580.392	79.996	19.994	100.037	20.210	5.575	0.496
1002.000	581.472	79.995	19.993	100.024	20.209	5.682	0.541
1004.000	582.479	79.999	19.995	100.035	20.210	5.614	0.503
1006.000	583.493	79.990	20.003	100.035	20.211	5.509	0.494
1008.000	584.554	79.999	19.990	100.023	20.210	5.616	0.520
1010.000	585.550	79.992	19.996	100.015	20.208	5.765	0.504
1012.000	586.607	79.998	19.993	100.022	20.209	5.714	0.511
1014.000	587.607	79.996	19.997	100.020	20.210	5.557	0.524
1016.001	588.615	79.995	19.995	100.032	20.209	5.698	0.503
1018.000	589.663	79.996	19.995	100.028	20.210	5.538	0.517
1020.000	590.685	79.994	19.994	100.022	20.207	5.903	0.485
1022.000	591.693	79.994	19.995	100.010	20.207	5.870	0.485
1024.000	592.708	79.996	19.995	100.015	20.204	6.129	0.511
1026.000	593.739	79.993	19.998	100.022	20.204	6.139	0.528
1028.000	594.759	79.995	19.995	100.009	20.206	5.923	0.521
1030.000	595.797	79.999	19.991	100.009	20.205	6.014	0.528
1032.000	596.793	79.994	19.996	100.017	20.206	5.944	0.527
1034.000	597.792	79.992	19.997	100.030	20.206	5.922	0.498
1036.000	598.782	79.994	19.996	100.020	20.207	5.856	0.520
1038.000	599.771	79.996	19.994	100.015	20.207	5.840	0.444
1040.000	600.826	79.993	19.996	100.029	20.207	5.882	0.501
1042.000	601.812	79.996	19.996	100.022	20.211	5.447	0.525
1044.000	602.844	79.995	19.995	100.012	20.210	5.620	0.499
1046.000	603.831	79.995	19.996	100.011	20.208	5.800	0.493
1048.000	604.867	79.995	19.996	100.011	20.212	5.340	0.509
1050.000	605.861	79.995	19.997	100.008	20.208	5.802	0.526
1052.000	606.845	79.992	19.997	100.009	20.207	5.904	0.489
1054.000	607.847	79.993	19.996	100.008	20.213	5.316	0.523
1056.000	608.862	79.994	19.997	100.019	20.213	5.311	0.525
1058.000	609.831	79.992	19.996	100.016	20.214	5.169	0.485
1060.000	610.805	79.993	19.997	100.011	20.211	5.442	0.501
1062.000	611.848	79.995	19.995	100.018	20.217	4.865	0.506
1064.000	612.817	79.995	19.997	100.016	20.214	5.218	0.482
1066.000	613.806	79.997	19.995	100.015	20.215	5.050	0.484
1068.000	614.862	79.997	19.994	100.019	20.212	5.359	0.497
1070.000	615.839	79.997	19.995	100.027	20.212	5.359	0.490
1072.000	616.883	79.995	19.996	100.018	20.218	4.838	0.506
1074.000	617.886	79.994	19.995	100.023	20.217	4.878	0.491
1076.000	618.915	79.995	19.996	100.033	20.216	5.011	0.524
1078.000	619.927	79.996	19.994	100.024	20.217	4.916	0.495
1080.000	620.956	79.995	19.994	100.012	20.216	5.017	0.520
1082.000	621.974	79.994	19.995	100.014	20.215	5.067	0.505
1084.000	623.005	79.994	19.996	100.020	20.217	4.872	0.544
1086.000	624.040	79.995	19.997	100.022	20.218	4.824	0.528
1088.000	625.069	79.997	19.994	100.014	20.214	5.156	0.509
1090.000	626.111	79.998	19.995	100.017	20.216	5.001	0.544
1092.000	627.144	79.997	19.995	100.007	20.216	5.033	0.507
1094.000	628.140	79.996	19.995	100.008	20.215	5.116	0.497
1096.000	629.214	79.995	19.995	100.010	20.215	5.123	0.552
1098.000	630.252	79.997	19.995	100.011	20.215	5.086	0.543
1100.001	631.236	79.996	19.995	100.009	20.217	4.910	0.514
1102.000	632.308	79.997	19.995	100.012	20.218	4.779	0.536
1104.000	633.354	79.996	19.995	100.017	20.218	4.760	0.513
1106.000	634.391	79.994	19.995	100.010	20.215	5.110	0.548
1108.000	635.427	79.994	19.996	100.009	20.217	4.931	0.502
1110.000	636.506	79.995	19.995	100.003	20.217	4.897	0.550
1112.000	637.525	79.997	19.994	100.012	20.214	5.147	0.503
1114.001	638.553	79.994	19.996	100.008	20.222	4.442	0.517
1116.001	639.597	79.995	19.996	100.005	20.221	4.504	0.516
1118.000	640.642	79.995	19.996	100.008	20.217	4.899	0.543
1120.000	641.669	79.995	19.996	100.009	20.217	4.911	0.505
1122.000	642.719	79.996	19.994	100.009	20.213	5.333	0.528
1124.000	643.760	79.995	19.995	100.008	20.218	4.838	0.513
1126.000	644.805	79.995	19.995	100.011	20.216	5.025	0.534
1128.000	645.846	79.994	19.995	100.013	20.212	5.421	0.518
1130.000	646.883	79.994	19.994	99.951	20.214	5.191	0.514
1132.001	647.936	79.995	19.995	100.014	20.218	4.835	0.528
1134.000	648.955	79.994	19.995	100.087	20.216	5.022	0.492
1136.000	650.019	79.993	19.995	100.011	20.216	4.963	0.532
1138.000	651.058	79.993	19.995	100.019	20.215	5.094	0.516
1140.000	652.108	79.993	19.996	100.020	20.216	4.955	0.520
1142.001	653.166	79.992	19.996	100.011	20.217	4.902	0.545
1144.000	654.201	79.994	19.996	100.010	20.219	4.715	0.515
1146.000	655.280	79.994	19.997	100.005	20.213	5.286	0.536
1148.001	656.269	79.997	19.995	100.007	20.212	5.335	0.489
1150.000	657.327	79.993	20.000	100.012	20.218	4.838	0.527
1152.000	658.382	79.994	19.995	100.007	20.217	4.934	0.545
1154.000	659.378	79.994	19.995	100.007	20.217	4.915	0.509
1156.000	660.425	79.996	19.995	100.001	20.216	4.958	0.507
1158.000	661.459	79.995	19.996	100.006	20.217	4.915	0.524
1160.000	662.522	79.993	19.995	100.007	20.215	5.046	0.518
1162.000	663.511	79.995	19.994	100.006	20.215	5.118	0.489
1164.000	664.580	79.994	19.995	100.005	20.217	4.907	0.545
1166.000	665.580	79.995	19.996	100.003	20.216	5.003	0.545
1168.000	666.571	79.997	19.995	100.005	20.218	4.808	0.506
1170.000	667.625	79.995	19.995	100.005	20.221	4.488	0.499
1172.000	668.660	79.996	19.996	100.005	20.215	5.062	0.487
1174.000	669.694	79.996	19.995	100.005	20.215	5.097	0.510
1176.000	670.693	79.994	19.995	100.007	20.213	5.260	0.488
1178.000	671.703	79.996	19.996	100.003	20.216	4.977	0.506
1180.000	672.704	79.997	19.994	100.004	20.216	5.001	0.528
1182.000	673.779	79.994	19.996	100.006	20.216	4.953	0.514
1184.000	674.815	79.993	19.996	100.003	20.217	4.917	0.507
1186.000	675.782	79.995	19.994	100.008	20.217	4.896	0.522
1188.000	676.795	79.993	19.995	100.010	20.216	4.950	0.490
1190.000	677.757	79.992	19.995	100.009	20.216	4.979	0.491
1192.000	678.784	79.995	19.996	100.010	20.216	4.995	0.505
1194.000	679.792	79.990	19.998	100.009	20.215	5.113	0.510
1196.000	680.787	79.993	19.995	100.002	20.217	4.891	0.506
1198.000	681.802	79.995	19.995	100.010	20.217	4.912	0.494
1200.000	682.780	79.994	19.992	100.009	20.214	5.212	0.498
1202.000	683.812	79.994	19.995	100.008	20.217	4.929	0.526
1204.000	684.781	79.992	19.995	100.009	20.216	5.033	0.498
1206.000	685.775	79.993	19.996	100.008	20.213	5.321	0.501
1208.000	686.808	79.992	19.996	100.006	20.213	5.292	0.524
1210.000	687.792	79.993	19.996	100.008	20.212	5.380	0.484
1212.000	688.809	79.994	19.996	100.010	20.213	5.281	0.521
1214.000	689.799	79.992	19.996	100.010	20.214	5.230	0.487
1216.000	690.799	79.993	19.996	100.010	20.214	5.182	0.502
1218.000	691.851	79.993	19.995	100.008	20.211	5.449	0.556
1220.000	692.793	79.992	19.995	100.008	20.214	5.205	0.513
1222.000	693.842	79.993	19.996	100.007	20.212	5.382	0.530
1224.000	694.854	79.993	19.996	100.004	20.214	5.185	0.507
1226.000	695.878	79.993	19.996	100.004	20.216	4.990	0.510
1228.000	696.918	79.995	19.995	100.006	20.210	5.548	0.535
1230.000	697.906	79.994	19.996	99.996	20.209	5.714	0.499
1232.000	698.937	79.993	19.996	99.994	20.211	5.436	0.507
1234.000	699.970	79.994	19.997	100.005	20.214	5.185	0.492
1236.000	701.022	79.995	19.997	100.004	20.211	5.470	0.513
1238.000	702.010	79.992	19.998	100.005	20.211	5.500	0.484
1240.000	703.037	79.993	19.995	100.003	20.209	5.687	0.492
1242.000	704.038	79.994	19.995	100.006	20.211	5.513	0.520
1244.001	705.043	79.994	19.996	100.006	20.214	5.182	0.516
1246.000	706.075	79.996	19.995	100.004	20.213	5.256	0.504
1248.000	707.113	79.996	19.995	100.004	20.213	5.254	0.483
1250.000	708.136	79.995	19.995	99.999	20.211	5.462	0.516
1252.001	709.130	79.997	19.995	100.002	20.210	5.527	0.523
1254.000	710.159	79.998	19.994	100.000	20.210	5.553	0.503
1256.000	711.160	79.995	19.995	99.997	20.212	5.359	0.529
1258.000	712.182	79.995	19.995	100.002	20.215	5.078	0.501
1260.000	713.218	79.994	19.995	99.997	20.216	5.014	0.513
1262.000	714.268	79.993	19.996	100.001	20.212	5.409	0.493
1264.000	715.297	79.994	19.996	100.004	20.213	5.321	0.529
1266.001	716.326	79.994	19.995	100.011	20.216	4.985	0.507
1268.000	717.378	79.993	19.995	100.015	20.211	5.439	0.527
1270.000	718.435	79.993	19.994	100.013	20.216	4.963	0.532
1272.000	719.475	79.993	19.996	100.011	20.214	5.198	0.527
1274.000	720.501	79.994	19.995	100.014	20.209	5.631	0.513
1276.000	721.536	79.993	19.995	100.010	20.213	5.329	0.551
1278.000	722.548	79.995	19.995	100.011	20.213	5.329	0.506
1280.000	723.570	79.995	19.993	100.002	20.214	5.163	0.494
1282.000	724.600	79.995	19.995	100.006	20.212	5.369	0.497
1284.000	725.642	79.994	19.995	100.007	20.210	5.540	0.530
1286.001	726.649	79.995	19.995	100.006	20.212	5.417	0.496
1288.000	727.673	79.994	19.996	100.002	20.212	5.348	0.507
1290.001	728.686	79.995	19.996	100.007	20.213	5.305	0.481
1292.000	729.714	79.992	19.996	100.005	20.209	5.706	0.498
1294.000	730.754	79.992	19.996	100.002	20.213	5.268	0.523
1296.000	731.743	79.994	19.995	100.001	20.210	5.585	0.517
1298.000	732.743	79.994	19.996	100.008	20.211	5.436	0.506
1300.000	733.761	79.995	19.997	100.009	20.212	5.347	0.500
1302.000	734.746	79.994	19.995	100.006	20.207	5.844	0.499
1304.000	735.743	79.995	19.996	100.006	20.205	6.092	0.503
1306.000	736.720	79.998	19.996	100.008	20.208	5.774	0.458
1308.000	737.749	79.997	19.995	99.996	20.208	5.804	0.513
1310.000	738.707	79.995	19.995	100.001	20.209	5.689	0.480
1312.000	739.752	79.995	19.995	99.981	20.209	5.708	0.526
1314.000	740.730	79.994	19.996	100.004	20.205	6.080	0.526
1316.000	741.731	79.995	19.995	99.990	20.204	6.151	0.500
1318.000	742.708	79.996	19.996	100.001	20.209	5.655	0.531
1320.000	743.716	79.997	19.996	100.007	20.211	5.511	0.517