File: 01_Data/Cotton_Raw/MCC/Cotton_Raw_MCC_30K_min_210708_R2.txt
Sample ID:	C:\MCC\MCC Cal\Test\New folder\Cotton_Raw_MCC_30K_min_210708_R2.txt
Sample Weight (mg):	4.47
Heating Rate (C/s):	0.5
Combustor Temp (C):	900
N2 Flow Rate (cc/min):	80
O2 Flow Rate (cc/min):	20
Calibration File:	C:\MCC\MCC Cal\Coeff1 JN10440_30_210304.txt.txt
T Correction Coefficients:	0	1.024463	0
Time Shift (s):	14
*
Time (s)	Temperature (C)	N2 flow rate (cc/min)	O2 flow rate (cc/min)	Flow Rate (cc/min)	Oxygen (%)	HRR (W/g)	Heating rate (C/s)
0.000	109.880	79.995	19.996	99.917	20.199	-0.224	0.001
2.000	109.857	79.994	19.995	99.912	20.200	-0.246	-0.033
4.000	109.833	79.993	19.997	99.925	20.196	-0.008	-0.022
6.000	109.844	79.995	19.995	99.926	20.196	0.019	0.017
8.000	109.838	79.995	19.996	99.929	20.199	-0.164	0.013
10.001	109.831	79.994	19.995	99.928	20.196	-0.013	-0.011
12.000	109.794	79.996	19.995	99.926	20.191	0.369	0.007
14.000	109.814	79.996	19.995	99.912	20.191	0.344	-0.006
16.001	109.803	79.999	19.995	99.909	20.195	0.067	0.022
18.000	109.788	79.993	19.995	99.920	20.194	0.174	-0.020
20.000	109.771	79.996	19.994	99.936	20.191	0.363	-0.014
22.001	109.772	79.996	19.995	99.963	20.189	0.526	0.020
24.001	109.779	79.996	19.996	99.977	20.184	0.875	0.014
26.000	109.730	79.995	19.996	99.984	20.185	0.796	-0.044
28.000	109.821	79.993	19.996	100.015	20.184	0.837	-0.013
30.000	109.918	79.995	19.996	100.017	20.179	1.189	0.069
32.000	110.039	79.994	19.996	100.047	20.175	1.467	0.037
34.000	110.150	79.994	19.997	100.095	20.170	1.817	0.077
36.000	110.311	79.993	19.997	100.110	20.172	1.723	0.072
38.000	110.524	79.994	19.996	100.106	20.169	1.930	0.101
40.000	110.755	79.994	19.996	100.114	20.162	2.394	0.136
42.000	111.059	79.995	19.996	100.124	20.160	2.541	0.174
44.000	111.318	79.995	19.996	100.132	20.159	2.576	0.156
46.000	111.619	79.995	19.995	100.141	20.159	2.588	0.142
48.000	112.007	79.995	19.996	100.145	20.154	2.948	0.183
50.000	112.385	79.996	19.996	100.146	20.154	2.927	0.215
52.000	112.830	79.995	19.996	100.148	20.152	3.057	0.230
54.000	113.265	79.995	19.996	100.165	20.154	2.973	0.223
56.000	113.692	79.995	19.996	100.168	20.149	3.273	0.223
58.001	114.236	79.995	19.998	100.168	20.151	3.185	0.236
60.000	114.759	79.995	19.996	100.168	20.151	3.170	0.268
62.000	115.299	79.996	19.997	100.173	20.150	3.250	0.272
64.000	115.875	79.996	19.997	100.169	20.150	3.218	0.262
66.000	116.490	79.996	19.995	100.168	20.147	3.463	0.292
68.001	117.056	79.996	19.996	100.169	20.146	3.494	0.291
70.000	117.738	79.996	19.995	100.174	20.148	3.402	0.330
72.000	118.399	79.998	19.995	100.171	20.145	3.586	0.343
74.000	119.033	79.997	19.994	100.168	20.145	3.578	0.319
76.000	119.756	79.998	19.995	100.168	20.145	3.549	0.361
78.001	120.485	79.997	19.995	100.168	20.149	3.276	0.370
80.000	121.176	79.996	19.995	100.168	20.150	3.260	0.343
82.000	121.899	79.996	19.995	100.168	20.151	3.136	0.372
84.000	122.678	79.997	19.995	100.169	20.149	3.298	0.385
86.000	123.421	79.993	19.995	100.174	20.149	3.335	0.366
88.000	124.226	79.995	19.995	100.176	20.144	3.625	0.386
90.001	124.995	79.995	19.996	100.169	20.147	3.443	0.385
92.001	125.780	79.995	19.995	100.109	20.145	3.548	0.405
94.000	126.607	79.994	19.995	100.249	20.146	3.504	0.383
96.000	127.401	79.996	19.995	100.185	20.153	3.046	0.384
98.000	128.287	79.996	19.996	100.187	20.150	3.232	0.452
100.000	129.106	79.996	19.995	100.183	20.145	3.566	0.443
102.000	130.003	79.996	19.995	100.188	20.148	3.378	0.426
104.000	130.824	79.995	19.996	100.186	20.148	3.338	0.428
106.000	131.701	79.994	19.995	100.183	20.147	3.431	0.443
108.000	132.548	79.995	19.994	100.188	20.149	3.287	0.428
110.000	133.490	79.994	19.995	100.123	20.145	3.586	0.475
112.000	134.396	79.995	19.995	100.148	20.151	3.130	0.475
114.000	135.359	79.993	19.995	100.260	20.145	3.605	0.485
116.000	136.230	79.995	19.997	100.180	20.149	3.274	0.438
118.000	137.185	79.994	19.997	100.182	20.149	3.320	0.509
120.000	138.100	79.994	19.996	100.174	20.149	3.295	0.455
122.001	139.057	79.997	19.995	100.183	20.152	3.122	0.465
124.000	139.991	79.995	19.996	100.179	20.146	3.530	0.472
126.000	140.971	79.995	19.995	100.179	20.145	3.586	0.498
128.000	141.904	79.996	19.996	100.177	20.148	3.346	0.470
130.000	142.874	79.997	19.995	100.179	20.149	3.285	0.492
132.000	143.861	79.996	19.996	100.176	20.148	3.383	0.497
134.000	144.878	79.995	19.996	100.184	20.150	3.210	0.510
136.000	145.872	79.996	19.996	100.172	20.150	3.206	0.522
138.000	146.825	79.996	19.996	100.177	20.147	3.405	0.473
140.000	147.792	79.994	19.996	100.171	20.149	3.268	0.504
142.000	148.823	79.994	19.996	100.176	20.148	3.376	0.523
144.000	149.807	79.995	19.995	100.170	20.147	3.412	0.502
146.000	150.813	79.994	19.997	100.169	20.149	3.279	0.493
148.000	151.809	79.996	19.996	100.145	20.147	3.448	0.507
150.000	152.817	79.997	19.995	100.074	20.152	3.118	0.527
152.000	153.826	79.998	19.996	100.248	20.150	3.235	0.492
154.000	154.806	79.997	19.996	100.193	20.150	3.247	0.499
156.000	155.792	79.996	19.995	100.172	20.155	2.894	0.476
158.000	156.801	79.995	19.995	100.171	20.148	3.342	0.494
160.001	157.788	79.995	19.995	100.171	20.149	3.283	0.480
162.000	158.809	79.994	19.996	100.172	20.152	3.110	0.494
164.000	159.813	79.995	19.996	100.171	20.153	3.041	0.509
166.000	160.852	79.994	19.995	100.173	20.150	3.227	0.485
168.000	161.863	79.994	19.996	100.173	20.149	3.271	0.497
170.000	162.887	79.995	19.995	100.170	20.147	3.412	0.506
172.000	163.883	79.995	19.996	100.161	20.148	3.363	0.503
174.000	164.904	79.994	19.996	100.163	20.146	3.511	0.509
176.000	165.956	79.994	19.995	100.166	20.147	3.438	0.498
178.000	166.958	79.993	19.996	100.171	20.147	3.456	0.518
180.000	167.967	79.994	19.996	100.158	20.149	3.273	0.502
182.000	168.992	79.995	19.995	100.149	20.149	3.288	0.504
184.000	169.964	79.995	19.995	100.178	20.151	3.165	0.463
186.000	170.995	79.995	19.995	100.078	20.149	3.284	0.502
188.000	172.001	79.996	19.996	100.206	20.150	3.219	0.504
190.000	172.984	79.995	19.996	100.189	20.157	2.740	0.496
192.000	174.030	79.996	19.995	100.160	20.153	2.985	0.514
194.000	175.008	79.993	19.996	100.151	20.151	3.175	0.517
196.000	175.988	79.994	19.995	100.141	20.152	3.074	0.492
198.000	177.018	79.995	19.995	100.143	20.150	3.230	0.478
200.000	178.022	79.996	19.996	100.139	20.155	2.903	0.519
202.000	179.024	79.996	19.995	100.138	20.156	2.813	0.471
204.000	180.043	79.996	19.996	100.129	20.152	3.068	0.502
206.000	181.024	79.997	19.996	100.069	20.150	3.212	0.508
208.000	182.040	79.997	19.996	100.219	20.152	3.074	0.473
210.000	182.991	79.996	19.995	100.142	20.152	3.108	0.491
212.000	184.023	79.996	19.996	100.133	20.148	3.355	0.482
214.000	184.977	79.996	19.995	100.065	20.147	3.471	0.449
216.000	186.019	79.996	19.996	100.159	20.152	3.071	0.510
218.001	187.034	79.996	19.996	100.222	20.151	3.132	0.518
220.000	187.999	79.995	19.996	100.140	20.154	2.981	0.491
222.000	188.986	79.996	19.996	100.134	20.153	3.000	0.497
224.000	189.971	79.996	19.995	100.133	20.154	2.966	0.527
226.000	190.941	79.996	19.996	100.131	20.157	2.771	0.515
228.000	191.910	79.997	19.995	100.132	20.159	2.591	0.487
230.000	192.887	79.997	19.996	100.130	20.157	2.742	0.489
232.000	193.861	79.996	19.996	100.135	20.152	3.079	0.473
234.000	194.884	79.996	19.996	100.136	20.156	2.841	0.467
236.000	195.830	79.995	19.996	100.131	20.151	3.127	0.469
238.000	196.790	79.995	19.996	100.131	20.152	3.109	0.455
240.000	197.786	79.995	19.995	100.131	20.149	3.322	0.474
242.000	198.792	79.995	19.995	100.131	20.153	3.010	0.511
244.000	199.764	79.995	19.996	100.127	20.152	3.090	0.481
246.000	200.697	79.996	19.995	100.127	20.150	3.263	0.457
248.000	201.700	79.995	19.996	100.130	20.151	3.186	0.501
250.000	202.635	79.995	19.995	100.130	20.146	3.481	0.497
252.000	203.595	79.995	19.995	100.130	20.143	3.689	0.474
254.000	204.552	79.994	19.994	100.131	20.145	3.559	0.466
256.000	205.545	79.995	19.995	100.130	20.150	3.253	0.485
258.000	206.524	79.995	19.995	100.130	20.146	3.515	0.470
260.000	207.500	79.996	19.996	100.133	20.148	3.397	0.486
262.000	208.487	79.995	19.996	100.130	20.144	3.653	0.480
264.000	209.442	79.997	19.995	100.130	20.147	3.422	0.493
266.000	210.428	79.996	19.996	100.128	20.143	3.711	0.483
268.000	211.407	79.994	19.996	100.124	20.139	3.986	0.511
270.000	212.395	79.995	19.995	100.130	20.141	3.860	0.510
272.000	213.341	79.995	19.995	100.131	20.138	4.048	0.486
274.000	214.360	79.994	19.996	100.133	20.136	4.187	0.508
276.000	215.273	79.995	19.994	100.132	20.138	4.080	0.445
278.000	216.259	79.994	19.995	100.133	20.138	4.078	0.488
280.000	217.280	79.995	19.995	100.136	20.129	4.697	0.504
282.000	218.233	79.995	19.995	100.133	20.130	4.625	0.485
284.000	219.213	79.996	19.994	100.059	20.130	4.601	0.486
286.000	220.164	79.997	19.995	100.205	20.130	4.639	0.480
288.000	221.169	79.996	19.995	100.162	20.125	4.971	0.488
290.000	222.150	79.997	19.996	100.140	20.126	4.895	0.509
292.000	223.157	79.995	19.995	100.144	20.121	5.277	0.532
294.000	224.094	79.996	19.995	100.149	20.124	5.017	0.493
296.000	225.108	79.995	19.996	100.131	20.119	5.411	0.516
298.000	226.093	79.995	19.996	100.138	20.120	5.313	0.491
300.000	227.106	79.994	19.996	100.144	20.110	6.058	0.513
302.000	228.111	79.995	19.995	100.140	20.114	5.735	0.498
304.000	229.157	79.996	19.995	100.141	20.109	6.130	0.528
306.000	230.177	79.998	19.996	100.137	20.108	6.182	0.520
308.000	231.174	79.998	19.996	100.130	20.107	6.218	0.522
310.000	232.153	79.997	19.996	100.130	20.103	6.504	0.489
312.000	233.132	79.998	19.996	100.139	20.102	6.556	0.510
314.000	234.131	79.997	19.996	100.157	20.097	6.957	0.492
316.000	235.142	79.997	19.995	100.140	20.094	7.131	0.512
318.000	236.131	79.996	19.996	100.139	20.092	7.254	0.502
320.000	237.129	79.993	19.997	100.152	20.089	7.512	0.518
322.000	238.118	79.994	19.996	100.166	20.086	7.692	0.509
324.000	239.159	79.994	19.997	100.156	20.087	7.602	0.495
326.000	240.165	79.995	19.997	100.155	20.083	7.945	0.513
328.000	241.155	79.995	19.996	100.152	20.081	8.041	0.532
330.000	242.144	79.996	19.996	100.155	20.075	8.502	0.515
332.000	243.163	79.996	19.997	100.164	20.072	8.700	0.487
334.000	244.148	79.996	19.995	100.166	20.070	8.855	0.491
336.000	245.130	79.993	19.995	100.168	20.064	9.215	0.497
338.000	246.164	79.994	19.995	100.168	20.062	9.378	0.482
340.000	247.186	79.996	19.995	100.169	20.056	9.769	0.486
342.000	248.193	79.994	19.996	100.166	20.050	10.236	0.505
344.000	249.191	79.994	19.996	100.171	20.049	10.277	0.496
346.000	250.246	79.994	19.995	100.170	20.042	10.773	0.519
348.000	251.253	79.995	19.995	100.171	20.043	10.730	0.520
350.000	252.291	79.995	19.996	100.171	20.037	11.160	0.491
352.000	253.282	79.995	19.995	100.173	20.029	11.698	0.488
354.000	254.250	79.994	19.996	100.174	20.030	11.639	0.493
356.000	255.242	79.994	19.996	100.174	20.025	11.992	0.473
358.000	256.313	79.994	19.997	100.173	20.024	12.068	0.526
360.000	257.301	79.993	19.995	100.172	20.022	12.175	0.500
362.000	258.295	79.996	19.996	100.176	20.013	12.811	0.508
364.000	259.294	79.999	19.994	100.178	20.015	12.677	0.521
366.000	260.269	79.997	19.994	100.179	20.009	13.097	0.496
368.000	261.232	79.998	19.995	100.180	20.008	13.157	0.499
370.000	262.229	79.997	19.995	100.176	19.999	13.771	0.492
372.000	263.286	79.996	19.996	100.173	19.996	14.003	0.502
374.000	264.303	79.996	19.995	100.176	19.991	14.362	0.503
376.000	265.280	79.997	19.994	100.177	19.987	14.661	0.479
378.000	266.289	79.996	19.996	100.181	19.984	14.843	0.489
380.000	267.263	79.996	19.995	100.191	19.976	15.401	0.502
382.000	268.285	79.996	19.995	100.189	19.971	15.742	0.484
384.000	269.298	79.995	19.995	100.203	19.968	15.984	0.488
386.000	270.274	79.996	19.995	100.201	19.966	16.135	0.485
388.000	271.298	79.996	19.995	100.197	19.958	16.665	0.491
390.000	272.367	79.997	19.995	100.203	19.956	16.801	0.524
392.000	273.362	79.997	19.995	100.203	19.950	17.228	0.518
394.000	274.322	79.998	19.994	100.207	19.940	17.926	0.492
396.000	275.365	79.996	19.995	100.206	19.935	18.268	0.525
398.000	276.355	79.994	19.995	100.205	19.925	18.994	0.512
400.000	277.362	79.994	19.995	100.211	19.918	19.445	0.492
402.000	278.397	79.994	19.996	100.211	19.911	19.931	0.503
404.000	279.355	79.994	19.996	100.213	19.903	20.498	0.482
406.000	280.373	79.994	19.996	100.230	19.899	20.785	0.476
408.000	281.388	79.994	19.996	100.223	19.891	21.353	0.513
410.000	282.369	79.994	19.996	100.241	19.883	21.914	0.514
412.000	283.379	79.994	19.996	100.247	19.875	22.466	0.504
414.000	284.332	79.996	19.996	100.244	19.864	23.215	0.489
416.001	285.329	79.995	19.996	100.241	19.856	23.794	0.499
418.000	286.335	79.994	19.995	100.249	19.845	24.571	0.486
420.000	287.349	79.994	19.995	100.248	19.839	24.999	0.497
422.000	288.389	79.996	19.995	100.250	19.825	25.974	0.543
424.000	289.357	79.995	19.995	100.256	19.818	26.463	0.495
426.000	290.319	79.994	19.995	100.253	19.811	26.969	0.505
428.000	291.336	79.995	19.995	100.266	19.792	28.309	0.514
430.000	292.338	79.993	19.995	100.281	19.784	28.842	0.510
432.000	293.361	79.994	19.996	100.276	19.778	29.334	0.502
434.000	294.379	79.995	19.995	100.286	19.764	30.261	0.510
436.000	295.414	79.995	19.995	100.286	19.751	31.192	0.515
438.000	296.381	79.995	19.995	100.288	19.739	32.038	0.489
440.000	297.392	79.997	19.995	100.215	19.727	32.871	0.490
442.000	298.416	79.998	19.995	100.338	19.710	34.055	0.499
444.000	299.365	79.997	19.994	100.340	19.698	34.915	0.468
446.000	300.486	79.997	19.995	100.306	19.681	36.068	0.539
448.000	301.436	79.995	19.994	100.310	19.671	36.780	0.518
450.000	302.440	79.997	19.995	100.318	19.653	38.020	0.568
452.000	303.490	79.997	19.994	100.325	19.646	38.569	0.559
454.000	304.324	79.996	19.994	100.327	19.626	39.944	0.404
456.000	305.442	79.995	19.996	100.329	19.608	41.183	0.531
458.000	306.375	79.995	19.996	100.334	19.595	42.089	0.562
460.000	307.391	79.996	19.995	100.349	19.577	43.402	0.427
462.000	308.461	79.996	19.995	100.353	19.560	44.611	0.518
464.000	309.408	79.997	19.994	100.359	19.546	45.594	0.502
466.000	310.432	79.996	19.994	100.366	19.527	46.886	0.518
468.000	311.375	79.997	19.995	100.364	19.507	48.304	0.453
470.000	312.416	79.996	19.996	100.317	19.484	49.923	0.509
472.000	313.445	79.997	19.996	100.460	19.463	51.384	0.516
474.000	314.457	79.995	19.997	100.413	19.441	52.988	0.518
476.000	315.398	79.994	19.996	100.411	19.420	54.470	0.507
478.000	316.415	79.995	19.996	100.420	19.400	55.854	0.503
480.000	317.410	79.993	19.995	100.434	19.372	57.806	0.536
482.000	318.352	79.993	19.996	100.445	19.350	59.380	0.499
484.000	319.433	79.994	19.995	100.453	19.322	61.336	0.593
486.000	320.395	79.992	19.994	100.481	19.289	63.652	0.525
488.000	321.382	79.994	19.995	100.487	19.259	65.778	0.518
490.000	322.353	79.993	19.995	100.501	19.224	68.255	0.468
492.000	323.357	79.995	19.996	100.500	19.188	70.782	0.512
494.000	324.324	79.994	19.996	100.524	19.151	73.381	0.459
496.000	325.339	79.994	19.997	100.546	19.109	76.404	0.492
498.000	326.380	79.994	19.997	100.560	19.063	79.634	0.520
500.000	327.369	79.995	19.996	100.574	19.017	82.842	0.499
502.000	328.343	79.995	19.996	100.597	18.969	86.182	0.484
504.000	329.373	79.994	19.996	100.616	18.917	89.782	0.522
506.000	330.327	79.995	19.996	100.633	18.873	92.845	0.472
508.000	331.329	79.994	19.997	100.638	18.824	96.222	0.484
510.000	332.352	79.994	19.996	100.639	18.779	99.286	0.503
512.000	333.376	79.993	19.996	100.621	18.747	101.432	0.507
514.001	334.392	79.995	19.996	100.600	18.729	102.626	0.522
516.000	335.387	79.995	19.996	100.553	18.726	102.820	0.493
518.000	336.430	79.995	19.996	100.469	18.744	101.563	0.518
520.000	337.415	79.996	19.995	100.404	18.787	98.528	0.485
522.000	338.455	79.997	19.996	100.334	18.845	94.407	0.506
524.000	339.437	79.996	19.995	100.259	18.917	89.393	0.490
526.000	340.510	79.996	19.995	100.204	19.002	83.457	0.551
528.000	341.501	79.995	19.995	100.177	19.095	76.945	0.505
530.000	342.508	79.996	19.995	100.161	19.187	70.550	0.500
532.000	343.493	79.994	19.995	100.139	19.282	63.896	0.458
534.000	344.504	79.995	19.995	100.131	19.380	57.052	0.517
536.000	345.547	79.996	19.995	100.130	19.464	51.186	0.520
538.000	346.505	79.995	19.995	100.132	19.542	45.736	0.507
540.000	347.535	79.997	19.995	100.121	19.613	40.746	0.503
542.000	348.553	79.997	19.996	100.123	19.679	36.168	0.511
544.000	349.620	79.997	19.995	100.129	19.736	32.153	0.516
546.000	350.625	79.998	19.995	100.128	19.784	28.802	0.500
548.000	351.655	79.997	19.994	100.132	19.828	25.747	0.512
550.000	352.691	79.997	19.994	100.133	19.863	23.292	0.533
552.000	353.711	79.997	19.995	100.130	19.895	21.037	0.505
554.000	354.769	79.997	19.996	100.131	19.918	19.414	0.491
556.000	355.791	79.996	19.996	100.132	19.937	18.083	0.518
558.000	356.808	79.995	19.996	100.128	19.955	16.882	0.511
560.001	357.877	79.996	19.997	100.127	19.969	15.900	0.525
562.000	358.955	79.996	19.996	100.126	19.979	15.190	0.526
564.000	359.912	79.995	19.996	100.120	19.990	14.434	0.496
566.000	360.976	79.994	19.996	100.126	19.996	14.016	0.516
568.000	362.019	79.995	19.997	100.117	20.001	13.652	0.524
570.000	363.027	79.996	19.995	100.115	20.006	13.270	0.505
572.000	364.121	79.996	19.996	100.129	20.005	13.336	0.549
574.000	365.144	79.995	19.996	100.115	20.010	13.017	0.516
576.000	366.159	79.996	19.996	100.118	20.016	12.562	0.529
578.000	367.173	79.995	19.995	100.113	20.016	12.562	0.511
580.000	368.230	79.996	19.996	100.123	20.021	12.240	0.518
582.000	369.197	79.994	19.996	100.120	20.024	11.999	0.491
584.000	370.252	79.994	19.997	100.116	20.027	11.828	0.519
586.000	371.213	79.994	19.997	100.113	20.024	12.048	0.492
588.000	372.268	79.994	19.997	100.112	20.030	11.640	0.507
590.000	373.297	79.993	19.996	100.113	20.032	11.446	0.530
592.000	374.328	79.994	19.996	100.110	20.032	11.449	0.499
594.000	375.339	79.994	19.997	100.118	20.032	11.453	0.499
596.000	376.375	79.997	19.996	100.121	20.033	11.414	0.516
598.000	377.399	79.996	19.996	100.117	20.032	11.446	0.521
600.000	378.394	79.997	19.995	100.116	20.035	11.296	0.490
602.000	379.452	79.997	19.995	100.127	20.036	11.162	0.486
604.000	380.428	79.996	19.995	100.120	20.034	11.334	0.496
606.001	381.432	79.998	19.996	100.103	20.039	10.968	0.470
608.000	382.435	79.997	19.995	100.107	20.036	11.180	0.489
610.000	383.425	79.995	19.995	100.115	20.037	11.121	0.501
612.000	384.441	79.996	19.995	100.115	20.040	10.925	0.499
614.000	385.430	79.995	19.994	100.108	20.036	11.170	0.488
616.000	386.374	79.996	19.998	100.119	20.040	10.885	0.484
618.000	387.393	80.015	20.003	100.136	20.048	10.384	0.506
620.000	388.416	80.013	20.003	100.154	20.049	10.285	0.500
622.000	389.413	80.020	20.008	100.158	20.049	10.283	0.495
624.000	390.323	80.036	20.011	100.148	20.051	10.159	0.460
626.000	391.353	80.018	20.004	100.138	20.052	10.111	0.510
628.000	392.314	80.012	20.000	100.116	20.050	10.247	0.475
630.000	393.325	79.998	19.995	100.102	20.050	10.204	0.529
632.000	394.344	79.997	19.995	100.112	20.052	10.087	0.517
634.000	395.370	79.996	19.994	100.100	20.052	10.049	0.474
636.000	396.343	79.995	19.995	100.101	20.055	9.840	0.491
638.000	397.332	79.996	19.995	100.106	20.053	10.010	0.479
640.000	398.310	79.996	19.996	100.112	20.058	9.680	0.488
642.000	399.284	79.995	19.995	100.095	20.056	9.790	0.493
644.000	400.307	79.995	19.997	100.104	20.062	9.380	0.511
646.000	401.320	79.995	19.996	100.098	20.061	9.425	0.525
648.000	402.273	79.995	19.996	100.099	20.058	9.625	0.526
650.000	403.262	79.996	19.996	100.099	20.062	9.371	0.502
652.000	404.288	79.994	19.996	100.102	20.064	9.233	0.503
654.000	405.315	79.996	19.995	100.095	20.060	9.535	0.511
656.000	406.338	79.996	19.996	100.099	20.065	9.166	0.538
658.000	407.349	79.994	19.996	100.101	20.064	9.224	0.573
660.000	408.271	79.995	19.996	100.094	20.065	9.138	0.506
662.000	409.262	79.995	19.995	100.095	20.067	8.996	0.520
664.000	410.224	79.994	19.996	100.103	20.065	9.179	0.513
666.000	411.277	79.994	19.996	100.102	20.067	9.010	0.519
668.000	412.237	79.994	19.995	100.095	20.067	9.038	0.506
670.000	413.268	79.995	19.996	100.104	20.065	9.147	0.504
672.000	414.228	79.994	19.996	100.098	20.069	8.898	0.463
674.000	415.273	79.995	19.996	100.095	20.071	8.718	0.527
676.000	416.259	79.994	19.997	100.096	20.071	8.746	0.457
678.000	417.208	79.995	19.996	100.101	20.073	8.624	0.450
680.000	418.224	79.995	19.996	100.093	20.075	8.469	0.504
682.000	419.233	79.995	19.996	100.093	20.081	8.080	0.495
684.000	420.238	79.996	19.995	100.093	20.076	8.367	0.498
686.000	421.273	79.995	19.995	100.091	20.078	8.279	0.539
688.000	422.250	79.994	19.995	100.088	20.082	7.969	0.498
690.000	423.263	79.995	19.996	100.088	20.081	8.061	0.487
692.000	424.268	79.996	19.996	100.089	20.086	7.726	0.507
694.000	425.281	79.996	19.995	100.090	20.085	7.776	0.525
696.000	426.292	79.997	19.995	100.089	20.086	7.669	0.523
698.000	427.324	79.997	19.995	100.092	20.088	7.525	0.517
700.000	428.303	79.996	19.995	100.091	20.093	7.223	0.491
702.000	429.392	79.999	19.997	100.089	20.096	6.968	0.554
704.000	430.355	79.997	19.995	100.086	20.096	6.972	0.495
706.000	431.396	79.998	19.996	100.085	20.092	7.273	0.492
708.000	432.419	79.998	19.995	100.087	20.096	6.970	0.486
710.000	433.489	79.994	19.995	100.087	20.099	6.758	0.619
712.000	434.484	79.996	19.995	100.088	20.095	7.054	0.522
714.000	435.524	79.997	19.994	100.087	20.098	6.831	0.553
716.000	436.522	79.994	19.996	100.088	20.098	6.841	0.509
718.000	437.591	79.995	19.994	100.088	20.099	6.809	0.514
720.000	438.609	79.995	19.995	100.087	20.102	6.547	0.480
722.000	439.632	79.994	19.994	100.088	20.102	6.557	0.545
724.000	440.692	79.994	19.995	100.089	20.104	6.418	0.517
726.000	441.674	79.994	19.995	100.089	20.105	6.378	0.492
728.000	442.676	79.994	19.996	100.079	20.101	6.629	0.473
730.000	443.714	79.995	19.995	100.087	20.104	6.472	0.520
732.000	444.729	79.995	19.996	100.091	20.110	6.007	0.510
734.000	445.749	79.995	19.995	100.084	20.106	6.321	0.519
736.000	446.768	79.996	19.996	100.077	20.108	6.135	0.471
738.000	447.740	79.994	19.996	100.086	20.109	6.097	0.490
740.000	448.794	79.994	19.995	100.075	20.112	5.896	0.528
742.000	449.769	79.992	19.996	100.082	20.112	5.869	0.514
744.000	450.781	79.993	19.996	100.083	20.112	5.884	0.522
746.000	451.818	79.993	19.994	100.085	20.115	5.639	0.492
748.000	452.803	79.994	19.995	100.076	20.117	5.567	0.495
750.000	453.802	79.994	19.996	100.075	20.118	5.436	0.500
752.000	454.844	79.994	19.995	100.074	20.116	5.571	0.522
754.000	455.866	79.997	19.995	100.071	20.120	5.358	0.519
756.000	456.851	79.996	19.995	100.079	20.119	5.424	0.483
758.000	457.885	79.996	19.996	100.076	20.119	5.363	0.528
760.000	458.910	79.996	19.998	100.075	20.125	4.992	0.528
762.000	459.894	79.997	19.997	100.078	20.122	5.187	0.497
764.000	460.923	79.995	19.997	100.083	20.123	5.110	0.490
766.000	461.941	79.996	19.996	100.063	20.125	4.986	0.523
768.000	462.905	79.995	19.996	100.060	20.124	5.032	0.523
770.000	463.935	79.995	19.995	100.067	20.127	4.821	0.505
772.000	464.888	79.995	19.996	100.064	20.129	4.667	0.478
774.000	465.921	79.996	19.996	100.078	20.129	4.713	0.521
776.001	466.886	79.996	19.995	100.075	20.130	4.660	0.498
778.000	467.939	79.995	19.997	100.067	20.131	4.561	0.529
780.000	468.915	79.996	19.995	100.065	20.128	4.734	0.531
782.000	469.916	79.996	19.996	100.056	20.131	4.534	0.515
784.000	470.932	79.997	19.996	100.062	20.132	4.481	0.516
786.000	471.941	79.998	19.994	100.071	20.134	4.355	0.508
788.000	472.927	79.996	19.994	100.069	20.136	4.171	0.502
790.000	474.016	79.996	19.994	100.056	20.139	3.976	0.519
792.000	475.014	79.995	19.993	100.081	20.137	4.169	0.490
794.000	476.010	79.994	19.995	100.075	20.140	3.957	0.490
796.000	477.019	79.995	19.996	100.078	20.139	4.030	0.516
798.000	478.091	79.993	19.995	100.072	20.139	4.028	0.541
800.000	479.088	79.994	19.993	100.071	20.141	3.825	0.499
802.000	480.110	79.994	19.994	100.058	20.138	4.073	0.549
804.000	481.143	79.993	19.994	100.071	20.142	3.779	0.480
806.000	482.147	79.995	19.994	100.072	20.138	4.079	0.505
808.000	483.178	79.994	19.992	100.071	20.141	3.875	0.509
810.000	484.179	79.995	19.996	100.067	20.144	3.668	0.509
812.000	485.188	79.995	19.996	100.060	20.145	3.582	0.498
814.000	486.214	79.996	19.996	100.058	20.145	3.570	0.505
816.000	487.281	79.995	19.995	100.067	20.145	3.545	0.525
818.000	488.297	79.994	19.995	100.066	20.142	3.784	0.492
820.000	489.350	79.995	19.995	100.071	20.147	3.423	0.511
822.000	490.356	79.994	19.997	100.064	20.146	3.486	0.527
824.000	491.383	79.994	19.995	100.063	20.147	3.434	0.474
826.000	492.469	79.993	19.995	100.054	20.146	3.537	0.525
828.000	493.507	79.994	19.996	100.058	20.148	3.371	0.549
830.000	494.548	79.995	19.998	100.057	20.147	3.436	0.527
832.000	495.577	79.995	19.995	100.059	20.147	3.458	0.522
834.000	496.596	79.996	19.996	100.055	20.149	3.306	0.522
836.000	497.566	79.996	19.994	100.053	20.149	3.279	0.474
838.000	498.604	79.996	19.998	100.059	20.151	3.176	0.492
840.000	499.638	79.995	19.996	100.065	20.152	3.075	0.509
842.000	500.687	79.997	19.995	100.066	20.152	3.083	0.513
844.000	501.679	79.994	19.996	100.061	20.153	3.052	0.506
846.000	502.713	79.995	19.995	100.056	20.153	3.007	0.529
848.000	503.735	79.994	19.996	100.068	20.152	3.096	0.510
850.001	504.778	79.994	19.996	100.057	20.150	3.226	0.509
852.000	505.796	79.994	19.998	100.065	20.152	3.101	0.522
854.000	506.771	79.996	19.997	100.068	20.153	3.012	0.481
856.000	507.828	79.997	19.995	100.054	20.152	3.090	0.491
858.000	508.868	79.997	19.994	100.055	20.150	3.234	0.539
860.000	509.885	79.997	19.995	100.056	20.152	3.084	0.498
862.000	510.907	79.998	19.996	100.057	20.151	3.126	0.492
864.000	511.885	79.997	19.995	100.058	20.152	3.069	0.489
866.000	512.925	79.997	19.993	100.064	20.155	2.881	0.490
868.000	513.958	79.994	19.994	100.059	20.154	2.935	0.533
870.000	515.020	79.995	19.994	100.061	20.155	2.843	0.519
872.001	516.037	79.996	19.996	100.054	20.154	2.956	0.515
874.000	517.059	79.995	19.995	100.064	20.152	3.063	0.534
876.000	518.021	79.995	19.995	100.058	20.154	2.918	0.483
878.000	519.117	79.995	19.994	100.051	20.155	2.887	0.509
880.000	520.147	79.994	19.997	100.063	20.158	2.680	0.520
882.000	521.175	79.994	19.995	100.056	20.155	2.895	0.508
884.000	522.179	79.994	19.997	100.059	20.157	2.753	0.491
886.000	523.162	79.994	19.996	100.052	20.154	2.939	0.509
888.001	524.216	79.996	19.994	100.054	20.157	2.734	0.514
890.000	525.261	79.996	19.995	100.054	20.152	3.065	0.522
892.000	526.277	79.995	19.996	100.057	20.158	2.677	0.511
894.000	527.287	79.997	19.996	100.066	20.156	2.810	0.501
896.000	528.357	79.995	19.997	100.056	20.157	2.768	0.543
898.000	529.371	79.996	19.995	100.060	20.159	2.587	0.502
900.000	530.403	79.994	19.996	100.065	20.156	2.812	0.518
902.000	531.447	79.996	19.997	100.062	20.158	2.638	0.520
904.000	532.460	79.993	19.996	100.055	20.157	2.751	0.481
906.000	533.558	79.995	19.995	100.052	20.155	2.849	0.526
908.000	534.616	79.993	19.996	100.053	20.157	2.740	0.527
910.000	535.625	79.994	19.996	100.054	20.160	2.560	0.514
912.000	536.700	79.996	19.997	100.053	20.157	2.713	0.535
914.000	537.711	79.996	19.996	100.051	20.159	2.596	0.515
916.000	538.761	79.997	19.995	100.053	20.156	2.812	0.517
918.000	539.750	79.995	19.994	100.055	20.157	2.749	0.477
920.000	540.779	79.996	19.994	100.052	20.155	2.862	0.524
922.000	541.792	79.996	19.996	100.053	20.157	2.742	0.502
924.000	542.849	79.996	19.994	100.054	20.156	2.780	0.517
926.000	543.835	79.995	19.996	100.056	20.160	2.542	0.494
928.000	544.881	79.996	19.996	100.059	20.161	2.474	0.503
930.000	545.882	79.995	19.995	100.061	20.160	2.558	0.495
932.000	546.930	79.995	19.996	100.057	20.159	2.602	0.519
934.000	547.931	79.996	19.997	100.053	20.157	2.707	0.499
936.000	548.962	79.997	19.997	100.053	20.158	2.638	0.538
938.000	549.944	79.997	19.997	100.049	20.156	2.789	0.506
940.000	551.028	79.998	19.995	100.049	20.157	2.755	0.530
942.000	552.015	79.997	19.996	100.047	20.155	2.847	0.498
944.000	553.017	79.996	19.996	100.047	20.160	2.506	0.505
946.000	554.075	79.997	19.995	100.051	20.157	2.707	0.527
948.000	555.057	79.996	19.996	100.053	20.158	2.663	0.506
950.000	556.074	79.996	19.994	100.052	20.156	2.830	0.512
952.000	557.090	79.994	19.995	100.051	20.156	2.789	0.505
954.000	558.086	79.996	19.997	100.052	20.159	2.629	0.494
956.000	559.119	79.995	19.997	100.053	20.161	2.464	0.551
958.000	560.119	79.996	19.996	100.053	20.158	2.640	0.500
960.000	561.145	79.995	19.996	100.053	20.158	2.654	0.522
962.000	562.174	79.995	19.994	100.049	20.157	2.768	0.536
964.000	563.180	79.995	19.994	100.048	20.159	2.629	0.520
966.000	564.149	79.995	19.994	100.055	20.157	2.753	0.496
968.000	565.231	79.996	19.996	100.058	20.158	2.682	0.539
970.000	566.225	79.995	19.997	100.052	20.153	3.004	0.517
972.000	567.218	79.996	19.996	100.052	20.152	3.054	0.527
974.000	568.237	79.995	19.996	100.053	20.156	2.818	0.531
976.000	569.258	79.994	19.993	100.054	20.157	2.745	0.506
978.000	570.281	79.994	19.995	100.053	20.158	2.646	0.497
980.000	571.280	79.995	19.995	100.064	20.158	2.644	0.507
982.000	572.286	79.994	19.995	100.060	20.155	2.851	0.485
984.000	573.328	79.993	19.996	100.069	20.157	2.730	0.508
986.000	574.384	79.994	19.997	100.058	20.157	2.744	0.534
988.000	575.410	79.993	19.996	100.055	20.155	2.877	0.491
990.000	576.461	79.995	19.994	100.055	20.153	2.987	0.540
992.000	577.480	79.994	19.993	100.059	20.152	3.086	0.533
994.000	578.479	79.995	19.995	100.058	20.152	3.118	0.510
996.000	579.502	79.995	19.996	100.056	20.152	3.113	0.511
998.000	580.515	79.994	19.995	100.055	20.151	3.153	0.513
1000.000	581.502	79.995	19.996	100.054	20.153	3.042	0.498
1002.000	582.538	79.996	19.995	100.057	20.154	2.944	0.499
1004.000	583.524	79.995	19.997	100.049	20.157	2.728	0.509
1006.000	584.507	79.995	19.997	100.050	20.155	2.912	0.473
1008.000	585.530	79.995	19.996	100.051	20.148	3.337	0.469
1010.000	586.577	79.996	19.996	100.052	20.152	3.078	0.537
1012.000	587.579	79.997	19.995	100.051	20.150	3.203	0.488
1014.000	588.595	79.996	19.996	100.051	20.151	3.153	0.504
1016.000	589.618	79.997	19.996	100.050	20.152	3.107	0.528
1018.000	590.668	79.997	19.997	100.055	20.150	3.235	0.563
1020.000	591.660	79.998	19.995	100.052	20.155	2.862	0.503
1022.000	592.646	79.995	19.995	100.050	20.148	3.344	0.488
1024.000	593.695	79.996	19.998	100.050	20.151	3.168	0.544
1026.000	594.690	79.995	19.996	100.048	20.149	3.319	0.496
1028.000	595.740	79.995	19.998	100.048	20.149	3.321	0.514
1030.000	596.764	79.994	19.996	100.048	20.148	3.335	0.507
1032.000	597.759	79.995	19.996	100.048	20.146	3.497	0.493
1034.000	598.834	79.993	20.001	100.052	20.146	3.478	0.546
1036.001	599.845	79.993	19.995	100.056	20.145	3.576	0.503
1038.000	600.822	79.994	19.995	100.057	20.146	3.488	0.517
1040.000	601.900	79.994	19.996	100.054	20.149	3.319	0.490
1042.000	602.912	79.995	19.995	100.056	20.149	3.281	0.519
1044.000	603.942	79.995	19.994	100.055	20.151	3.155	0.495
1046.000	604.938	79.993	19.994	100.055	20.150	3.207	0.529
1048.000	606.006	79.995	19.995	100.055	20.156	2.799	0.546
1050.000	606.999	79.995	19.994	100.051	20.154	2.965	0.502
1052.000	608.034	79.993	19.996	100.051	20.157	2.711	0.534
1054.000	609.077	79.994	19.996	100.054	20.159	2.590	0.519
1056.000	610.064	79.994	19.996	100.055	20.158	2.649	0.501
1058.000	611.114	79.993	19.994	100.054	20.158	2.682	0.519
1060.000	612.139	79.994	19.995	100.050	20.159	2.564	0.503
1062.000	613.205	79.995	19.997	100.056	20.158	2.695	0.526
1064.000	614.220	79.994	19.994	100.053	20.162	2.386	0.505
1066.000	615.260	79.995	19.993	100.045	20.162	2.378	0.498
1068.000	616.305	79.995	19.997	100.042	20.164	2.229	0.533
1070.000	617.336	79.997	19.995	100.051	20.162	2.361	0.500
1072.000	618.384	79.997	19.995	100.049	20.166	2.139	0.520
1074.000	619.367	79.998	19.995	100.043	20.166	2.137	0.489
1076.000	620.405	79.997	19.995	100.050	20.164	2.217	0.535
1078.000	621.413	79.997	19.996	100.041	20.165	2.156	0.515
1080.000	622.441	79.996	19.995	100.040	20.165	2.165	0.532
1082.000	623.458	79.996	19.995	100.042	20.161	2.427	0.504
1084.001	624.455	79.995	19.995	100.047	20.166	2.095	0.514
1086.000	625.480	79.995	19.995	100.042	20.164	2.276	0.507
1088.001	626.459	79.996	19.996	100.043	20.164	2.270	0.508
1090.000	627.468	79.996	19.996	100.031	20.166	2.133	0.478
1092.000	628.486	79.995	19.996	100.036	20.167	2.041	0.504
1094.000	629.499	79.995	19.996	100.037	20.165	2.163	0.501
1096.001	630.508	79.996	19.996	100.031	20.165	2.186	0.522
1098.001	631.496	79.996	19.994	100.029	20.164	2.257	0.520
1100.001	632.478	79.996	19.995	100.043	20.164	2.280	0.495
1102.000	633.484	79.996	19.998	100.045	20.164	2.278	0.526
1104.000	634.491	79.996	19.996	100.026	20.159	2.573	0.529
1106.000	635.538	79.995	19.996	100.033	20.160	2.541	0.538
1108.000	636.510	79.994	19.996	100.044	20.163	2.317	0.487
1110.000	637.534	79.993	19.996	100.045	20.161	2.481	0.495
1112.000	638.544	79.994	19.997	100.043	20.163	2.303	0.509
1114.001	639.541	79.993	19.996	100.041	20.163	2.345	0.520
1116.000	640.519	79.995	19.997	100.047	20.162	2.389	0.484
1118.000	641.519	79.993	19.996	100.051	20.158	2.636	0.494
1120.000	642.522	79.994	19.995	100.052	20.163	2.309	0.528
1122.000	643.528	79.994	19.995	100.046	20.161	2.456	0.484
1124.000	644.483	79.995	19.995	100.044	20.163	2.324	0.483
1126.000	645.523	79.994	19.996	100.038	20.166	2.089	0.492
1128.000	646.574	79.996	19.996	100.042	20.165	2.202	0.519
1130.000	647.511	79.994	19.993	100.047	20.162	2.365	0.484
1132.000	648.548	79.995	19.995	100.046	20.165	2.167	0.511
1134.000	649.610	79.994	19.994	100.048	20.165	2.207	0.547
1136.000	650.614	79.993	19.995	100.034	20.164	2.255	0.476
1138.000	651.644	79.994	19.996	100.034	20.163	2.288	0.510
1140.000	652.674	79.994	19.996	100.050	20.167	2.031	0.529
1142.000	653.687	79.993	19.995	100.041	20.162	2.380	0.511
1144.000	654.715	79.993	19.996	100.035	20.166	2.141	0.508
1146.000	655.728	79.995	19.997	100.038	20.162	2.391	0.501
1148.000	656.732	79.996	19.995	100.039	20.163	2.328	0.484
1150.000	657.787	79.996	19.994	100.036	20.165	2.206	0.505
1152.000	658.807	79.995	19.997	100.036	20.166	2.112	0.556
1154.000	659.800	79.998	19.996	100.041	20.163	2.296	0.469
1156.001	660.809	79.997	19.996	100.043	20.166	2.137	0.510
1158.000	661.806	79.998	19.997	100.032	20.164	2.228	0.498
1160.000	662.859	79.996	19.995	100.047	20.165	2.188	0.504
1162.001	663.889	79.996	19.995	100.040	20.162	2.395	0.527
1164.000	664.910	79.995	19.994	100.051	20.163	2.299	0.500
1166.000	665.889	79.996	19.996	100.036	20.165	2.211	0.521
1168.000	666.896	79.995	19.996	100.047	20.160	2.500	0.484
1170.000	667.943	79.996	19.997	100.024	20.161	2.468	0.552
1172.000	668.981	79.995	19.997	100.038	20.163	2.296	0.529
1174.000	669.998	79.995	19.997	100.042	20.162	2.380	0.508
1176.000	670.993	79.997	19.996	100.043	20.162	2.374	0.501
1178.000	671.965	79.998	19.996	100.020	20.165	2.177	0.499
1180.000	672.989	79.996	19.997	100.031	20.167	2.045	0.517
1182.000	673.987	79.996	19.995	100.044	20.165	2.152	0.513
1184.000	675.040	79.997	19.996	100.047	20.164	2.265	0.499
1186.001	676.063	79.995	19.996	100.040	20.165	2.161	0.519
1188.000	677.041	79.994	19.995	100.033	20.162	2.412	0.500
1190.000	678.088	79.995	19.995	100.028	20.162	2.420	0.502
1192.001	679.122	79.996	19.995	100.041	20.162	2.386	0.535
1194.000	680.146	79.993	19.996	100.026	20.162	2.412	0.518
1196.000	681.104	79.994	19.996	100.029	20.162	2.400	0.509
1198.000	682.108	79.993	19.996	100.030	20.163	2.332	0.480
1200.000	683.118	79.995	19.996	100.036	20.163	2.353	0.503
1202.000	684.094	79.992	19.998	100.042	20.163	2.318	0.488
1204.000	685.127	79.994	19.995	100.043	20.163	2.330	0.503
1206.001	686.123	79.994	19.997	100.031	20.161	2.487	0.505
1208.000	687.132	79.996	19.995	100.035	20.163	2.330	0.488
1210.000	688.165	79.996	19.995	100.050	20.160	2.494	0.512
1212.000	689.162	79.994	19.996	100.044	20.160	2.515	0.496
1214.000	690.177	79.996	19.994	100.036	20.162	2.404	0.495
1216.000	691.199	79.993	19.995	100.042	20.161	2.473	0.504
1218.001	692.202	79.994	19.995	100.021	20.161	2.456	0.476
1220.001	693.219	79.993	19.996	100.026	20.163	2.293	0.496
1222.001	694.217	79.994	19.996	100.025	20.162	2.414	0.472
1224.000	695.235	79.995	19.995	100.038	20.163	2.315	0.476
1226.000	696.317	79.995	19.996	100.036	20.162	2.370	0.503
1228.001	697.319	79.995	19.996	100.031	20.162	2.399	0.528
1230.000	698.344	79.995	19.995	100.031	20.167	2.056	0.516
1232.000	699.361	79.995	19.994	100.039	20.163	2.328	0.476
1234.000	700.407	79.996	19.995	100.036	20.164	2.219	0.518
1236.000	701.404	79.995	19.995	100.038	20.166	2.122	0.497
1238.000	702.466	79.992	19.995	100.039	20.162	2.364	0.517
1240.000	703.439	79.995	19.994	100.025	20.159	2.599	0.481
1242.000	704.482	79.995	19.995	100.028	20.163	2.340	0.512
1244.000	705.524	79.994	19.994	100.036	20.160	2.500	0.484
1246.000	706.547	79.997	19.994	100.054	20.163	2.299	0.517
1248.000	707.542	79.995	19.995	100.042	20.163	2.341	0.511
1250.000	708.615	79.996	19.994	100.021	20.162	2.399	0.526
1252.000	709.643	79.996	19.995	100.037	20.161	2.479	0.513
1254.000	710.670	79.997	19.996	100.041	20.161	2.459	0.511
1256.000	711.699	79.997	19.996	100.019	20.162	2.415	0.511
1258.000	712.712	79.996	19.996	100.029	20.159	2.616	0.506
1260.000	713.739	79.997	19.995	100.035	20.164	2.281	0.506
1262.000	714.720	79.996	19.995	100.032	20.160	2.529	0.503
1264.000	715.766	79.995	19.996	100.018	20.160	2.535	0.478
1266.000	716.784	79.994	19.997	100.011	20.162	2.414	0.521
1268.000	717.748	79.994	19.996	100.015	20.159	2.577	0.504
1270.000	718.773	79.995	19.996	100.013	20.160	2.561	0.510
1272.000	719.792	79.995	19.996	100.020	20.160	2.532	0.496
1274.000	720.788	79.994	19.997	100.040	20.159	2.565	0.508
1276.000	721.780	79.995	19.997	100.029	20.161	2.429	0.459
1278.000	722.774	79.995	19.996	100.041	20.161	2.473	0.486
1280.000	723.810	79.995	19.996	100.039	20.156	2.779	0.505
1282.000	724.757	79.995	19.997	100.031	20.161	2.479	0.476
1284.000	725.775	79.994	19.996	100.024	20.158	2.636	0.477
1286.000	726.752	79.994	19.996	100.024	20.159	2.611	0.474
1288.000	727.781	79.994	19.996	100.021	20.156	2.796	0.511
1290.000	728.752	79.995	19.996	100.027	20.156	2.791	0.500
1292.000	729.751	79.995	19.997	100.036	20.159	2.584	0.494
1294.000	730.723	79.993	19.997	100.043	20.159	2.611	0.490
1296.000	731.742	79.993	19.996	100.030	20.158	2.634	0.525
1298.000	732.703	79.993	19.996	100.031	20.158	2.668	0.512
1300.000	733.682	79.993	19.995	100.032	20.160	2.561	0.500
1302.000	734.687	79.994	19.995	100.042	20.159	2.577	0.492
1304.000	735.659	79.995	19.995	100.039	20.159	2.619	0.493
1306.000	736.646	79.995	19.995	100.032	20.158	2.701	0.503
1308.000	737.619	79.996	19.995	100.033	20.161	2.469	0.466
1310.000	738.692	79.996	19.994	100.030	20.161	2.488	0.526
1312.000	739.709	79.996	19.996	100.033	20.159	2.615	0.520
1314.000	740.697	79.996	19.996	100.042	20.159	2.624	0.489
1316.000	741.720	79.995	19.996	100.033	20.156	2.818	0.496
1318.000	742.742	79.993	19.996	100.038	20.158	2.680	0.527
1319.500	743.521	79.995	19.995	100.027	20.157	2.750	0.502