File: 01_Data/LDPE/STA/N2/30K_min/LDPE_STA_N2_30KData_210908_R1.csv
##Temp./Â°C,Time/min,Mass(subtr.2)/%,DSC(subtr.2)/(mW/mg),Sensit./(uV/mW)
49.277,10.01,98.9067,0.0204162,1.05401
49.777,10.9734,98.857,0.05692403,1.05402
50.277,11.18702,98.89944,0.08948198,1.05403
50.777,11.33187,98.87509,0.11999,1.05404
51.277,11.44463,98.7909,0.14644,1.05404
51.777,11.54092,98.86143,0.17674,1.05405
52.277,11.62487,98.84,0.20126,1.05405
52.777,11.69957,98.8053,0.22368,1.05406
53.277,11.76747,98.84769,0.24453,1.05406
53.777,11.83123,98.8505,0.26686,1.05406
54.277,11.89093,98.8617,0.28966,1.05406
54.777,11.94638,98.7796,0.30937,1.05406
55.277,11.99896,98.81044,0.33138,1.05406
55.777,12.0501,98.8862,0.3492,1.05406
56.277,12.09902,98.8522,0.36825,1.05405
56.777,12.1455,98.8629,0.38798,1.05404
57.277,12.19103,98.81649,0.40606,1.05404
57.777,12.23522,98.8408,0.42611,1.05403
58.277,12.2775,98.8139,0.44218,1.05402
58.777,12.31878,98.8215,0.45733,1.05401
59.277,12.35925,98.84317,0.47364,1.054
59.777,12.3986,98.792,0.48863,1.05398
60.277,12.4368,98.77744,0.50067,1.05397
60.777,12.47461,98.81017,0.51486,1.05395
61.277,12.512,98.76562,0.52743,1.05394
61.777,12.54936,98.77316,0.53992,1.05392
62.277,12.5853,98.78053,0.54487,1.0539
62.777,12.62043,98.8152,0.55997,1.05388
63.277,12.65513,98.80631,0.56789,1.05386
63.777,12.6897,98.80144,0.5761,1.05383
64.277,12.72385,98.81795,0.58557,1.05381
64.777,12.7575,98.81506,0.59429,1.05378
65.277,12.79065,98.7684,0.59929,1.05376
65.777,12.82363,98.73399,0.61033,1.05373
66.277,12.8562,98.76442,0.61535,1.0537
66.777,12.88798,98.80968,0.62458,1.05367
67.277,12.91955,98.833,0.63232,1.05364
67.777,12.95086,98.80539,0.6381,1.05361
68.277,12.98217,98.7957,0.64502,1.05357
68.777,13.0132,98.74812,0.65144,1.05354
69.277,13.04388,98.73184,0.66198,1.0535
69.777,13.07437,98.75888,0.66621,1.05346
70.277,13.10455,98.7569,0.67594,1.05343
70.777,13.1345,98.73996,0.68255,1.05339
71.277,13.1642,98.72721,0.69054,1.05335
71.777,13.1937,98.73082,0.69861,1.0533
72.277,13.22303,98.80504,0.70624,1.05326
72.777,13.2522,98.80089,0.71397,1.05322
73.277,13.2812,98.75219,0.72138,1.05317
73.777,13.31,98.74167,0.73071,1.05312
74.277,13.33844,98.7531,0.73828,1.05308
74.777,13.36679,98.76143,0.74417,1.05303
75.277,13.39489,98.7547,0.75531,1.05298
75.777,13.42283,98.72876,0.76408,1.05293
76.277,13.4507,98.74249,0.77341,1.05287
76.777,13.4783,98.77024,0.78281,1.05282
77.277,13.5059,98.7804,0.79287,1.05276
77.777,13.53315,98.78189,0.80248,1.05271
78.277,13.5603,98.7453,0.80813,1.05265
78.777,13.58715,98.75685,0.82049,1.05259
79.277,13.6138,98.74874,0.83013,1.05253
79.777,13.64052,98.76869,0.84155,1.05247
80.277,13.66705,98.7745,0.85035,1.05241
80.777,13.6936,98.7769,0.85999,1.05235
81.277,13.7198,98.74824,0.87224,1.05228
81.777,13.74564,98.7329,0.88399,1.05222
82.277,13.77149,98.74596,0.89613,1.05215
82.777,13.7971,98.7401,0.9082,1.05208
83.277,13.82252,98.74359,0.91942,1.05201
83.777,13.84784,98.7693,0.93398,1.05194
84.277,13.87302,98.72959,0.94892,1.05187
84.777,13.898,98.72977,0.96286,1.0518
85.277,13.92293,98.72384,0.97639,1.05173
85.777,13.94764,98.6969,0.99187,1.05165
86.277,13.97204,98.71719,1.00607,1.05158
86.777,13.99649,98.7321,1.01792,1.0515
87.277,14.02074,98.76572,1.03112,1.05142
87.777,14.045,98.72331,1.05008,1.05134
88.277,14.06916,98.70495,1.06414,1.05126
88.777,14.093,98.675,1.0813,1.05118
89.277,14.11684,98.70589,1.10517,1.0511
89.777,14.1404,98.69373,1.12319,1.05101
90.277,14.1638,98.66072,1.13919,1.05093
90.777,14.1871,98.6898,1.15496,1.05084
91.277,14.2103,98.7071,1.1722,1.05076
91.777,14.23356,98.70237,1.19087,1.05067
92.277,14.2566,98.70759,1.2111,1.05058
92.777,14.2796,98.71361,1.22986,1.05049
93.277,14.3024,98.73991,1.25138,1.0504
93.777,14.32492,98.7177,1.27551,1.0503
94.277,14.3474,98.73892,1.29513,1.05021
94.777,14.3699,98.717,1.31951,1.05011
95.277,14.39201,98.71695,1.34825,1.05002
95.777,14.41426,98.74266,1.37706,1.04992
96.277,14.43622,98.718,1.40438,1.04982
96.777,14.45824,98.76862,1.43762,1.04972
97.277,14.4801,98.74851,1.47554,1.04962
97.777,14.5019,98.7632,1.51982,1.04952
98.277,14.5237,98.70443,1.56363,1.04942
98.777,14.5451,98.7004,1.60118,1.04931
99.277,14.5667,98.6602,1.64444,1.04921
99.777,14.58816,98.70375,1.69246,1.0491
100.277,14.60946,98.71235,1.73119,1.04899
100.777,14.63093,98.68892,1.76949,1.04889
101.277,14.6521,98.7037,1.80608,1.04878
101.777,14.67317,98.65876,1.84157,1.04867
102.277,14.6942,98.68094,1.88493,1.04855
102.777,14.7151,98.66159,1.92713,1.04844
103.277,14.7359,98.71299,1.97358,1.04833
103.777,14.75656,98.70985,2.02027,1.04821
104.277,14.7772,98.74035,2.07631,1.0481
104.777,14.7979,98.7089,2.13951,1.04798
105.277,14.8184,98.7299,2.20834,1.04786
105.777,14.8388,98.7098,2.27555,1.04774
106.277,14.85945,98.73116,2.34366,1.04762
106.777,14.8798,98.7028,2.40917,1.0475
107.277,14.90003,98.6782,2.48118,1.04738
107.777,14.92036,98.68802,2.55374,1.04725
108.277,14.94046,98.64673,2.62693,1.04713
108.777,14.9606,98.64669,2.6996,1.047
109.277,14.98064,98.60306,2.77423,1.04688
109.777,15.00066,98.6417,2.84035,1.04675
110.277,15.0206,98.65446,2.90643,1.04662
110.777,15.0405,98.6563,2.95734,1.04649
111.277,15.06024,98.69259,2.99298,1.04636
111.777,15.07986,98.661,3.00159,1.04623
112.277,15.09954,98.6613,2.97831,1.04609
112.777,15.11917,98.66309,2.919,1.04596
113.277,15.1387,98.66366,2.81603,1.04582
113.777,15.15816,98.6891,2.6839,1.04569
114.277,15.17755,98.66761,2.54518,1.04555
114.777,15.19675,98.67856,2.40439,1.04541
115.277,15.21602,98.7086,2.27172,1.04527
115.777,15.23515,98.70804,2.14872,1.04513
116.277,15.2543,98.67916,2.03479,1.04499
116.777,15.27335,98.70886,1.93401,1.04484
117.277,15.29226,98.6684,1.84449,1.0447
117.777,15.31105,98.64398,1.7629,1.04455
118.277,15.32981,98.62559,1.69231,1.04441
118.777,15.34852,98.6254,1.62585,1.04426
119.277,15.36716,98.65994,1.56751,1.04411
119.777,15.38579,98.65644,1.51823,1.04396
120.277,15.4043,98.64924,1.47391,1.04381
120.777,15.4229,98.66877,1.43292,1.04366
121.277,15.4413,98.6326,1.39681,1.04351
121.777,15.4597,98.64593,1.3683,1.04336
122.277,15.47805,98.6528,1.33886,1.0432
122.777,15.4964,98.61822,1.31356,1.04305
123.277,15.5147,98.63996,1.29369,1.04289
123.777,15.53292,98.61459,1.27366,1.04273
124.277,15.5511,98.61713,1.26038,1.04257
124.777,15.56918,98.6167,1.24042,1.04241
125.277,15.5872,98.61685,1.22849,1.04225
125.777,15.6052,98.57677,1.2193,1.04209
126.277,15.62309,98.5829,1.20911,1.04193
126.777,15.641,98.5609,1.19703,1.04176
127.277,15.65894,98.56081,1.19233,1.0416
127.777,15.6768,98.60684,1.18747,1.04143
128.277,15.6947,98.58922,1.18218,1.04127
128.777,15.7125,98.61021,1.1794,1.0411
129.277,15.73024,98.608,1.1755,1.04093
129.777,15.7478,98.5718,1.17508,1.04076
130.277,15.7653,98.57576,1.17192,1.04059
130.777,15.78289,98.6097,1.16619,1.04042
131.277,15.80049,98.60805,1.16799,1.04024
131.777,15.81805,98.608,1.16846,1.04007
132.277,15.83575,98.60598,1.16371,1.0399
132.777,15.85338,98.5714,1.17006,1.03972
133.277,15.87079,98.6119,1.16767,1.03954
133.777,15.88824,98.5956,1.16559,1.03936
134.277,15.9054,98.57336,1.16521,1.03919
134.777,15.92276,98.60593,1.16717,1.03901
135.277,15.93997,98.56605,1.16757,1.03882
135.777,15.9572,98.56618,1.1706,1.03864
136.277,15.97445,98.5929,1.17242,1.03846
136.777,15.99175,98.59467,1.17223,1.03828
137.277,16.0089,98.60834,1.17563,1.03809
137.777,16.02609,98.6135,1.17892,1.0379
138.277,16.04318,98.59441,1.18074,1.03772
138.777,16.06019,98.61146,1.18459,1.03753
139.277,16.07724,98.61159,1.18518,1.03734
139.777,16.09425,98.60996,1.19046,1.03715
140.277,16.11119,98.56711,1.18999,1.03696
140.777,16.1281,98.58569,1.19576,1.03677
141.277,16.1451,98.61174,1.19781,1.03658
141.777,16.1619,98.5715,1.20037,1.03638
142.277,16.17877,98.61151,1.20181,1.03619
142.777,16.19556,98.61156,1.20539,1.03599
143.277,16.21236,98.61168,1.20916,1.03579
143.777,16.2291,98.61104,1.21224,1.0356
144.277,16.24585,98.58899,1.21357,1.0354
144.777,16.26259,98.599,1.21526,1.0352
145.277,16.27929,98.60445,1.2212,1.035
145.777,16.29586,98.60146,1.2232,1.0348
146.277,16.31244,98.6418,1.22795,1.03459
146.777,16.32903,98.65207,1.2293,1.03439
147.277,16.34554,98.61737,1.23306,1.03419
147.777,16.362,98.64751,1.23719,1.03398
148.277,16.37848,98.60778,1.23812,1.03377
148.777,16.39491,98.6052,1.24176,1.03357
149.277,16.4114,98.60445,1.24252,1.03336
149.777,16.42774,98.6103,1.24683,1.03315
150.277,16.44412,98.62562,1.24995,1.03294
150.777,16.46047,98.60475,1.25382,1.03273
151.277,16.47681,98.60425,1.2567,1.03252
151.777,16.49302,98.60396,1.26016,1.0323
152.277,16.50926,98.60569,1.26406,1.03209
152.777,16.52553,98.56381,1.26549,1.03188
153.277,16.54179,98.56215,1.26881,1.03166
153.777,16.558,98.5628,1.27281,1.03144
154.277,16.57422,98.57419,1.27348,1.03122
154.777,16.59044,98.60454,1.27824,1.03101
155.277,16.60657,98.60464,1.28081,1.03079
155.777,16.62267,98.58578,1.28563,1.03057
156.277,16.63876,98.56179,1.28803,1.03034
156.777,16.65485,98.56234,1.2917,1.03012
157.277,16.67095,98.56265,1.29513,1.0299
157.777,16.687,98.59669,1.29835,1.02968
158.277,16.70303,98.6037,1.30262,1.02945
158.777,16.71898,98.6045,1.30508,1.02922
159.277,16.7349,98.60445,1.30841,1.029
159.777,16.75089,98.60436,1.31461,1.02877
160.277,16.76684,98.60749,1.31538,1.02854
160.777,16.78271,98.56692,1.316,1.02831
161.277,16.79861,98.56264,1.32128,1.02808
161.777,16.81459,98.5754,1.32348,1.02785
162.277,16.83042,98.60454,1.32819,1.02762
162.777,16.8462,98.6044,1.33101,1.02738
163.277,16.862,98.60444,1.33799,1.02715
163.777,16.87785,98.60993,1.34035,1.02691
164.277,16.89359,98.64442,1.3425,1.02668
164.777,16.90934,98.60542,1.34774,1.02644
165.277,16.92509,98.60517,1.34764,1.0262
165.777,16.94086,98.60485,1.35231,1.02597
166.277,16.95655,98.601,1.35567,1.02573
166.777,16.97224,98.55983,1.35876,1.02549
167.277,16.98788,98.56283,1.35856,1.02524
167.777,17.0035,98.56238,1.36641,1.025
168.277,17.0191,98.57059,1.36547,1.02476
168.777,17.0346,98.61018,1.37093,1.02451
169.277,17.05015,98.57234,1.37422,1.02427
169.777,17.06568,98.5579,1.37562,1.02402
170.277,17.0812,98.55793,1.37901,1.02378
170.777,17.09672,98.57969,1.38104,1.02353
171.277,17.11226,98.60078,1.38568,1.02328
171.777,17.12783,98.60353,1.38778,1.02303
172.277,17.14334,98.56288,1.39089,1.02278
172.777,17.15878,98.55905,1.39397,1.02253
173.277,17.17432,98.5616,1.39618,1.02228
173.777,17.1898,98.52787,1.40208,1.02203
174.277,17.20513,98.51646,1.40342,1.02177
174.777,17.22043,98.51666,1.40853,1.02152
175.277,17.23581,98.5167,1.41159,1.02126
175.777,17.25119,98.5167,1.41335,1.02101
176.277,17.26645,98.51644,1.41939,1.02075
176.777,17.2817,98.53229,1.42193,1.02049
177.277,17.297,98.56058,1.4232,1.02023
177.777,17.31223,98.5591,1.4256,1.01997
178.277,17.32743,98.55207,1.43141,1.01971
178.777,17.3426,98.5422,1.43293,1.01945
179.277,17.3578,98.5641,1.43573,1.01919
179.777,17.373,98.57011,1.43867,1.01893
180.277,17.38808,98.60409,1.44314,1.01866
180.777,17.4032,98.60457,1.44438,1.0184
181.277,17.41832,98.6039,1.45008,1.01813
181.777,17.43339,98.59544,1.4481,1.01787
182.277,17.44846,98.56279,1.45044,1.0176
182.777,17.46354,98.56254,1.45497,1.01733
183.277,17.47865,98.56257,1.46041,1.01706
183.777,17.49365,98.56371,1.46387,1.01679
184.277,17.50863,98.545,1.46478,1.01652
184.777,17.52366,98.51852,1.46716,1.01625
185.277,17.53865,98.52031,1.47162,1.01598
185.777,17.55358,98.52022,1.47491,1.01571
186.277,17.56845,98.52019,1.4772,1.01543
186.777,17.5834,98.52019,1.48066,1.01516
187.277,17.59835,98.52019,1.48426,1.01488
187.777,17.6132,98.52022,1.4893,1.01461
188.277,17.62804,98.52009,1.49137,1.01433
188.777,17.6429,98.54083,1.4931,1.01405
189.277,17.65778,98.5674,1.49432,1.01377
189.777,17.6726,98.54698,1.49976,1.01349
190.277,17.68737,98.5271,1.49994,1.01321
190.777,17.70214,98.5684,1.50499,1.01293
191.277,17.717,98.5656,1.50893,1.01265
191.777,17.73175,98.566,1.51222,1.01237
192.277,17.7465,98.56603,1.51284,1.01209
192.777,17.76119,98.566,1.51635,1.0118
193.277,17.77594,98.56625,1.51667,1.01152
193.777,17.79068,98.55354,1.52381,1.01123
194.277,17.80534,98.52094,1.52532,1.01094
194.777,17.82006,98.52371,1.5243,1.01066
195.277,17.8347,98.52378,1.52549,1.01037
195.777,17.84933,98.52372,1.53128,1.01008
196.277,17.86395,98.52369,1.53255,1.00979
196.777,17.87857,98.52379,1.53621,1.0095
197.277,17.89311,98.52476,1.53803,1.00921
197.777,17.90768,98.50873,1.54063,1.00892
198.277,17.92227,98.47998,1.54518,1.00862
198.777,17.9368,98.4817,1.54473,1.00833
199.277,17.95136,98.48143,1.54893,1.00804
199.777,17.96595,98.4814,1.55203,1.00774
200.277,17.9805,98.48141,1.55454,1.00744
200.777,17.9951,98.48141,1.55731,1.00715
201.277,18.0096,98.48141,1.56088,1.00685
201.777,18.02415,98.48142,1.56113,1.00655
202.277,18.03874,98.48138,1.56682,1.00625
202.777,18.05325,98.48094,1.5679,1.00595
203.277,18.0677,98.4837,1.57252,1.00565
203.777,18.08214,98.46154,1.57326,1.00535
204.277,18.09658,98.498,1.57929,1.00505
204.777,18.11111,98.50235,1.58184,1.00475
205.277,18.12562,98.50267,1.58113,1.00444
205.777,18.1401,98.5026,1.58659,1.00414
206.277,18.15456,98.50202,1.58941,1.00383
206.777,18.16902,98.50366,1.59144,1.00353
207.277,18.1835,98.47912,1.59237,1.00322
207.777,18.19792,98.4817,1.59623,1.00291
208.277,18.21229,98.48145,1.59982,1.00261
208.777,18.22665,98.4814,1.59998,1.0023
209.277,18.24099,98.48141,1.60311,1.00199
209.777,18.2554,98.48141,1.60589,1.00168
210.277,18.2697,98.48141,1.61095,1.00137
210.777,18.28405,98.48148,1.61097,1.00106
211.277,18.2984,98.4812,1.61325,1.00074
211.777,18.31269,98.47892,1.61596,1.00043
212.277,18.327,98.47014,1.61844,1.00012
212.777,18.3413,98.47078,1.62227,0.9998
213.277,18.3555,98.47085,1.62441,0.99949
213.777,18.36986,98.47083,1.62799,0.99917
214.277,18.38419,98.47083,1.62803,0.99885
214.777,18.39846,98.47083,1.63221,0.99854
215.277,18.4127,98.47083,1.63687,0.99822
215.777,18.42698,98.47083,1.63897,0.9979
216.277,18.44125,98.47083,1.64099,0.99758
216.777,18.4555,98.47083,1.64286,0.99726
217.277,18.46963,98.47083,1.64741,0.99694
217.777,18.4838,98.47083,1.64893,0.99662
218.277,18.4981,98.47083,1.6496,0.9963
218.777,18.51235,98.47083,1.65315,0.99597
219.277,18.52654,98.4709,1.65532,0.99565
219.777,18.54073,98.4709,1.65626,0.99533
220.277,18.55495,98.46771,1.66166,0.995
220.777,18.56912,98.44028,1.66356,0.99467
221.277,18.58326,98.4396,1.6664,0.99435
221.777,18.59745,98.43903,1.66894,0.99402
222.277,18.61157,98.43908,1.67125,0.99369
222.777,18.62567,98.43927,1.67184,0.99337
223.277,18.6397,98.43899,1.67617,0.99304
223.777,18.65387,98.43131,1.67471,0.99271
224.277,18.66798,98.41806,1.67683,0.99238
224.777,18.6821,98.40473,1.67941,0.99204
225.277,18.6963,98.39653,1.68479,0.99171
225.777,18.71043,98.3971,1.68671,0.99138
226.277,18.72468,98.39713,1.6891,0.99105
226.777,18.73882,98.39711,1.69034,0.99071
227.277,18.7529,98.39709,1.69584,0.99038
227.777,18.76696,98.39725,1.69503,0.99004
228.277,18.781,98.39748,1.69588,0.98971
228.777,18.79506,98.4195,1.69948,0.98937
229.277,18.8091,98.42917,1.70042,0.98903
229.777,18.82312,98.429,1.7034,0.9887
230.277,18.83716,98.42885,1.70574,0.98836
230.777,18.8512,98.42891,1.71199,0.98802
231.277,18.86528,98.42775,1.71101,0.98768
231.777,18.8793,98.4389,1.71452,0.98734
232.277,18.89331,98.4391,1.71622,0.987
232.777,18.9073,98.43947,1.71926,0.98666
233.277,18.9213,98.43943,1.72011,0.98631
233.777,18.93529,98.43944,1.72599,0.98597
234.277,18.9493,98.4394,1.72179,0.98563
234.777,18.9633,98.4385,1.73168,0.98528
235.277,18.97729,98.40403,1.73042,0.98494
235.777,18.99132,98.3976,1.73301,0.98459
236.277,19.00532,98.39692,1.73425,0.98425
236.777,19.0193,98.39712,1.73756,0.9839
237.277,19.0333,98.39712,1.73994,0.98355
237.777,19.0472,98.39711,1.7413,0.9832
238.277,19.06116,98.39712,1.74294,0.98286
238.777,19.07507,98.39712,1.74639,0.98251
239.277,19.08897,98.39712,1.74972,0.98216
239.777,19.10291,98.39712,1.74898,0.98181
240.277,19.11685,98.39712,1.75208,0.98146
240.777,19.1308,98.39712,1.75674,0.9811
241.277,19.14471,98.39711,1.75968,0.98075
241.777,19.15864,98.39712,1.75897,0.9804
242.277,19.17258,98.39715,1.75962,0.98005
242.777,19.18649,98.3969,1.76409,0.97969
243.277,19.20041,98.4088,1.76555,0.97934
243.777,19.21428,98.44216,1.76888,0.97898
244.277,19.22816,98.43881,1.76989,0.97862
244.777,19.2421,98.43905,1.77081,0.97827
245.277,19.25593,98.4391,1.77539,0.97791
245.777,19.26976,98.4391,1.77682,0.97755
246.277,19.2836,98.4391,1.77821,0.9772
246.777,19.2974,98.4391,1.78026,0.97684
247.277,19.31131,98.4391,1.78353,0.97648
247.777,19.32514,98.4393,1.78654,0.97612
248.277,19.33899,98.4387,1.7873,0.97576
248.777,19.3529,98.43165,1.78862,0.9754
249.277,19.3668,98.398,1.78945,0.97503
249.777,19.38061,98.39713,1.79113,0.97467
250.277,19.39441,98.39711,1.79506,0.97431
250.777,19.40823,98.3912,1.79665,0.97394
251.277,19.4221,98.3575,1.79974,0.97358
251.777,19.4359,98.39635,1.80012,0.97322
252.277,19.4497,98.39711,1.80366,0.97285
252.777,19.46354,98.39652,1.80644,0.97249
253.277,19.4774,98.39998,1.80824,0.97212
253.777,19.4912,98.36293,1.80971,0.97175
254.277,19.505,98.35202,1.81518,0.97138
254.777,19.51884,98.3832,1.8131,0.97102
255.277,19.53259,98.3973,1.81495,0.97065
255.777,19.54636,98.39707,1.8189,0.97028
256.277,19.5601,98.39712,1.82078,0.96991
256.777,19.57386,98.39712,1.8189,0.96954
257.277,19.58762,98.39712,1.82442,0.96917
257.777,19.60143,98.39712,1.82389,0.9688
258.277,19.61516,98.39712,1.82463,0.96842
258.777,19.62891,98.39712,1.82845,0.96805
259.277,19.64263,98.39712,1.82849,0.96768
259.777,19.6564,98.39712,1.83351,0.96731
260.277,19.67013,98.39712,1.83577,0.96693
260.777,19.6839,98.39712,1.84026,0.96656
261.277,19.6976,98.39711,1.84055,0.96618
261.777,19.71143,98.3971,1.8418,0.96581
262.277,19.72515,98.3973,1.8454,0.96543
262.777,19.73892,98.39668,1.84557,0.96505
263.277,19.7527,98.3903,1.84921,0.96468
263.777,19.76644,98.35588,1.85169,0.9643
264.277,19.7801,98.35481,1.85289,0.96392
264.777,19.79364,98.3548,1.8517,0.96354
265.277,19.80728,98.35481,1.8539,0.96316
265.777,19.82104,98.35481,1.85809,0.96278
266.277,19.83473,98.35481,1.85952,0.9624
266.777,19.84842,98.35481,1.86371,0.96202
267.277,19.8621,98.35481,1.86358,0.96164
267.777,19.87594,98.35481,1.86664,0.96126
268.277,19.88976,98.35481,1.86817,0.96088
268.777,19.90344,98.35481,1.86859,0.96049
269.277,19.9171,98.35481,1.86975,0.96011
269.777,19.9308,98.3548,1.87184,0.95973
270.277,19.94438,98.35491,1.87587,0.95934
270.777,19.9581,98.35446,1.87618,0.95896
271.277,19.97176,98.35259,1.87833,0.95857
271.777,19.98545,98.31994,1.88004,0.95819
272.277,19.99917,98.31228,1.88397,0.9578
272.777,20.0128,98.31286,1.88435,0.95741
273.277,20.02659,98.30946,1.88615,0.95703
273.777,20.0403,98.345,1.88901,0.95664
274.277,20.05399,98.35486,1.88984,0.95625
274.777,20.0676,98.35551,1.8919,0.95586
275.277,20.0813,98.35766,1.89603,0.95547
275.777,20.0949,98.39492,1.89665,0.95508
276.277,20.10855,98.39718,1.8951,0.95469
276.777,20.12221,98.3971,1.90086,0.9543
277.277,20.13586,98.39705,1.9016,0.95391
277.777,20.14951,98.39718,1.90242,0.95352
278.277,20.16315,98.37635,1.90172,0.95313
278.777,20.17679,98.35282,1.90247,0.95274
279.277,20.19044,98.35475,1.90713,0.95234
279.777,20.20411,98.3549,1.91062,0.95195
280.277,20.21774,98.3548,1.91071,0.95156
280.777,20.23135,98.35481,1.91285,0.95116
281.277,20.24504,98.35481,1.91796,0.95077
281.777,20.25868,98.35481,1.9204,0.95037
282.277,20.27233,98.3548,1.91972,0.94998
282.777,20.286,98.35475,1.92173,0.94958
283.277,20.29965,98.35485,1.92142,0.94918
283.777,20.31329,98.33355,1.92399,0.94879
284.277,20.32689,98.31055,1.92517,0.94839
284.777,20.3405,98.3124,1.92625,0.94799
285.277,20.35416,98.31259,1.93074,0.94759
285.777,20.36776,98.3124,1.92968,0.94719
286.277,20.3814,98.3121,1.93295,0.9468
286.777,20.39503,98.32096,1.93636,0.9464
287.277,20.40869,98.35337,1.93575,0.946
287.777,20.4223,98.3558,1.93504,0.9456
288.277,20.43595,98.33683,1.93975,0.94519
288.777,20.4496,98.3129,1.94041,0.94479
289.277,20.4632,98.3126,1.9429,0.94439
289.777,20.47683,98.31452,1.94238,0.94399
290.277,20.49045,98.29055,1.94735,0.94359
290.777,20.5041,98.292,1.94545,0.94318
291.277,20.51773,98.32263,1.94691,0.94278
291.777,20.53136,98.32304,1.9491,0.94238
292.277,20.54499,98.3231,1.95202,0.94197
292.777,20.5586,98.32306,1.95369,0.94157
293.277,20.5722,98.32294,1.95613,0.94116
293.777,20.5858,98.32421,1.95759,0.94076
294.277,20.5994,98.3129,1.95881,0.94035
294.777,20.61301,98.3128,1.95749,0.93995
295.277,20.6266,98.31245,1.96199,0.93954
295.777,20.64021,98.3125,1.96093,0.93913
296.277,20.65384,98.31246,1.96376,0.93872
296.777,20.66749,98.3127,1.96347,0.93832
297.277,20.6811,98.31312,1.96522,0.93791
297.777,20.69473,98.2988,1.96392,0.9375
298.277,20.70838,98.27083,1.96685,0.93709
298.777,20.72204,98.27056,1.9686,0.93668
299.277,20.7357,98.2705,1.97212,0.93627
299.777,20.7493,98.27051,1.97302,0.93586
300.277,20.76295,98.2705,1.974,0.93545
300.777,20.77657,98.27048,1.97216,0.93504
301.277,20.79018,98.2705,1.9746,0.93463
301.777,20.80378,98.2717,1.97673,0.93422
302.277,20.81737,98.25656,1.97948,0.93381
302.777,20.83099,98.22771,1.97934,0.93339
303.277,20.84461,98.22896,1.98299,0.93298
303.777,20.8582,98.22848,1.98316,0.93257
304.277,20.8718,98.2285,1.98555,0.93215
304.777,20.88543,98.22853,1.98647,0.93174
305.277,20.8991,98.22853,1.98248,0.93133
305.777,20.9127,98.22853,1.98428,0.93091
306.277,20.92624,98.22853,1.98777,0.9305
306.777,20.93982,98.22853,1.98976,0.93008
307.277,20.9534,98.22851,1.98791,0.92967
307.777,20.967,98.22859,1.99118,0.92925
308.277,20.98057,98.22861,1.99111,0.92883
308.777,20.99417,98.25286,1.99462,0.92842
309.277,21.00777,98.27186,1.99458,0.928
309.777,21.02141,98.27064,1.99542,0.92758
310.277,21.03504,98.2707,1.99559,0.92716
310.777,21.04866,98.27001,1.99578,0.92675
311.277,21.06232,98.26488,1.99932,0.92633
311.777,21.0759,98.23,2.00109,0.92591
312.277,21.08953,98.22851,2.00442,0.92549
312.777,21.10313,98.22851,2.00112,0.92507
313.277,21.11675,98.22853,2.00412,0.92465
313.777,21.13034,98.22853,2.00571,0.92423
314.277,21.1439,98.22853,2.00352,0.92381
314.777,21.15754,98.22853,2.00764,0.92339
315.277,21.17115,98.22853,2.0064,0.92297
315.777,21.18473,98.22853,2.00769,0.92255
316.277,21.19829,98.2285,2.00707,0.92213
316.777,21.21193,98.22851,2.00956,0.9217
317.277,21.22554,98.22869,2.00573,0.92128
317.777,21.23914,98.22825,2.01039,0.92086
318.277,21.2528,98.22325,2.00968,0.92044
318.777,21.2664,98.20939,2.01075,0.92001
319.277,21.28005,98.24945,2.00923,0.91959
319.777,21.2937,98.24857,2.01086,0.91917
320.277,21.3073,98.24947,2.01144,0.91874
320.777,21.3209,98.24937,2.01074,0.91832
321.277,21.3345,98.24936,2.01176,0.91789
321.777,21.34816,98.24936,2.0195,0.91747
322.277,21.36176,98.24935,2.01508,0.91704
322.777,21.37538,98.24947,2.01872,0.91662
323.277,21.389,98.24915,2.01759,0.91619
323.777,21.40261,98.2458,2.0192,0.91576
324.277,21.41621,98.21325,2.02025,0.91534
324.777,21.42984,98.20733,2.02166,0.91491
325.277,21.44343,98.20725,2.02258,0.91448
325.777,21.45707,98.20739,2.02225,0.91406
326.277,21.47074,98.20737,2.02429,0.91363
326.777,21.4844,98.20737,2.02592,0.9132
327.277,21.49811,98.20737,2.02864,0.91277
327.777,21.51175,98.20737,2.03155,0.91234
328.277,21.5254,98.20737,2.03348,0.91192
328.777,21.53906,98.20737,2.03393,0.91149
329.277,21.5527,98.20737,2.03604,0.91106
329.777,21.56628,98.20737,2.03776,0.91063
330.277,21.5799,98.20737,2.03696,0.9102
330.777,21.59348,98.20737,2.04214,0.90977
331.277,21.6071,98.20737,2.04235,0.90934
331.777,21.62071,98.20737,2.04916,0.90891
332.277,21.6343,98.20737,2.04961,0.90848
332.777,21.64799,98.20737,2.05175,0.90805
333.277,21.66166,98.20735,2.05641,0.90761
333.777,21.67533,98.20764,2.05807,0.90718
334.277,21.689,98.20685,2.06242,0.90675
334.777,21.70262,98.19888,2.06347,0.90632
335.277,21.71629,98.14792,2.06408,0.90589
335.777,21.72992,98.1439,2.06868,0.90545
336.277,21.74355,98.1438,2.07135,0.90502
336.777,21.7572,98.14392,2.07551,0.90459
337.277,21.77084,98.1439,2.07866,0.90415
337.777,21.78452,98.1439,2.07922,0.90372
338.277,21.79822,98.1439,2.08413,0.90329
338.777,21.8119,98.1439,2.08594,0.90285
339.277,21.82558,98.1439,2.08857,0.90242
339.777,21.83929,98.1439,2.09239,0.90198
340.277,21.85295,98.1439,2.09513,0.90155
340.777,21.8666,98.1439,2.09847,0.90111
341.277,21.88029,98.1439,2.10035,0.90068
341.777,21.89399,98.1439,2.10602,0.90024
342.277,21.90768,98.1439,2.10733,0.89981
342.777,21.92139,98.1439,2.1072,0.89937
343.277,21.93505,98.1439,2.11314,0.89894
343.777,21.9487,98.14401,2.11414,0.8985
344.277,21.9623,98.14494,2.11707,0.89806
344.777,21.97599,98.12867,2.12176,0.89763
345.277,21.9896,98.07091,2.12324,0.89719
345.777,22.00335,98.0591,2.12649,0.89675
346.277,22.01703,98.05936,2.12896,0.89631
346.777,22.03075,98.05938,2.13279,0.89588
347.277,22.0445,98.05734,2.13482,0.89544
347.777,22.0582,98.08335,2.13826,0.895
348.277,22.072,98.13805,2.13862,0.89456
348.777,22.08568,98.14405,2.14453,0.89413
349.277,22.09937,98.1439,2.14434,0.89369
349.777,22.11308,98.14363,2.14676,0.89325
350.277,22.1268,98.14555,2.14953,0.89281
350.777,22.14053,98.12133,2.15423,0.89237
351.277,22.1542,98.09996,2.15544,0.89193
351.777,22.1679,98.10178,2.15662,0.89149
352.277,22.18168,98.10162,2.15963,0.89105
352.777,22.1954,98.10169,2.16134,0.89061
353.277,22.20916,98.0933,2.16741,0.89017
353.777,22.22291,98.0605,2.16837,0.88973
354.277,22.23666,98.0972,2.17021,0.88929
354.777,22.25045,98.10151,2.17091,0.88885
355.277,22.26422,98.10171,2.17379,0.88841
355.777,22.27797,98.10159,2.17689,0.88797
356.277,22.2917,98.1016,2.17835,0.88753
356.777,22.30542,98.1016,2.18156,0.88709
357.277,22.31919,98.1016,2.18496,0.88664
357.777,22.3329,98.10159,2.1862,0.8862
358.277,22.34662,98.10166,2.18778,0.88576
358.777,22.36039,98.10165,2.1923,0.88532
359.277,22.3741,98.09845,2.19268,0.88488
359.777,22.38789,98.0822,2.19273,0.88443
360.277,22.40164,98.0809,2.1974,0.88399
360.777,22.41538,98.08072,2.20049,0.88355
361.277,22.42919,98.08077,2.20039,0.88311
361.777,22.443,98.08077,2.20105,0.88266
362.277,22.45673,98.08077,2.20818,0.88222
362.777,22.47053,98.08077,2.20666,0.88178
363.277,22.48433,98.08077,2.21455,0.88133
363.777,22.49814,98.08077,2.2167,0.88089
364.277,22.51195,98.08077,2.21708,0.88045
364.777,22.52575,98.08077,2.21904,0.88
365.277,22.5396,98.08077,2.22157,0.87956
365.777,22.55339,98.08076,2.22362,0.87912
366.277,22.56718,98.08083,2.22612,0.87867
366.777,22.58098,98.0809,2.22793,0.87823
367.277,22.59478,98.07766,2.23053,0.87778
367.777,22.60859,98.10903,2.23531,0.87734
368.277,22.62242,98.11168,2.2358,0.87689
368.777,22.6362,98.11275,2.24233,0.87645
369.277,22.65002,98.1125,2.2404,0.876
369.777,22.66386,98.10947,2.24593,0.87556
370.277,22.67772,98.09297,2.24749,0.87511
370.777,22.69156,98.09198,2.24878,0.87467
371.277,22.7054,98.0822,2.25048,0.87422
371.777,22.7193,98.0495,2.2521,0.87378
372.277,22.73315,98.04114,2.25436,0.87333
372.777,22.74701,98.00744,2.25826,0.87288
373.277,22.76085,98.00675,2.26256,0.87244
373.777,22.77469,98.00672,2.26283,0.87199
374.277,22.78857,98.00673,2.26755,0.87155
374.777,22.80244,98.00673,2.26974,0.8711
375.277,22.8163,98.00673,2.27224,0.87065
375.777,22.83013,98.00673,2.27841,0.87021
376.277,22.844,98.00673,2.27938,0.86976
376.777,22.85785,98.00673,2.28229,0.86931
377.277,22.87172,98.00673,2.28744,0.86887
377.777,22.8856,98.00675,2.28835,0.86842
378.277,22.89948,98.00671,2.29123,0.86797
378.777,22.91336,98.00575,2.29331,0.86753
379.277,22.9273,97.97157,2.29594,0.86708
379.777,22.94121,97.96522,2.2959,0.86663
380.277,22.95516,97.96454,2.30199,0.86618
380.777,22.9691,97.96475,2.30358,0.86574
381.277,22.98297,97.96475,2.30895,0.86529
381.777,22.9969,97.96474,2.30743,0.86484
382.277,23.0108,97.96474,2.31034,0.86439
382.777,23.02467,97.96474,2.31364,0.86395
383.277,23.03858,97.96474,2.31825,0.8635
383.777,23.05247,97.96474,2.32005,0.86305
384.277,23.06639,97.96474,2.32584,0.8626
384.777,23.0803,97.96474,2.3289,0.86216
385.277,23.0942,97.96474,2.33066,0.86171
385.777,23.10814,97.96474,2.33365,0.86126
386.277,23.12205,97.96474,2.33649,0.86081
386.777,23.13599,97.96474,2.34008,0.86036
387.277,23.1499,97.96474,2.34232,0.85991
387.777,23.16386,97.96474,2.34519,0.85947
388.277,23.17782,97.96474,2.34867,0.85902
388.777,23.19179,97.96474,2.35128,0.85857
389.277,23.20577,97.96474,2.3555,0.85812
389.777,23.21975,97.96474,2.3612,0.85767
390.277,23.23375,97.96474,2.3648,0.85722
390.777,23.2477,97.96474,2.36828,0.85677
391.277,23.26166,97.96474,2.37336,0.85632
391.777,23.27562,97.96474,2.37664,0.85588
392.277,23.28959,97.96474,2.3792,0.85543
392.777,23.30355,97.96475,2.38304,0.85498
393.277,23.31755,97.96469,2.38452,0.85453
393.777,23.33152,97.9645,2.38998,0.85408
394.277,23.34556,97.9678,2.39461,0.85363
394.777,23.3596,97.93417,2.39709,0.85318
395.277,23.37356,97.92217,2.40228,0.85273
395.777,23.3876,97.92266,2.40256,0.85228
396.277,23.4016,97.92341,2.40624,0.85183
396.777,23.41566,97.90517,2.41267,0.85138
397.277,23.42965,97.88051,2.41789,0.85093
397.777,23.44365,97.88171,2.42013,0.85049
398.277,23.45757,97.86573,2.42508,0.85004
398.777,23.47156,97.83699,2.43152,0.84959
399.277,23.48555,97.8385,2.43282,0.84914
399.777,23.49954,97.83814,2.43777,0.84869
400.277,23.51359,97.83829,2.44137,0.84824
400.777,23.5276,97.8327,2.4415,0.84779
401.277,23.54178,97.79386,2.44811,0.84734
401.777,23.55593,97.79682,2.45329,0.84689
402.277,23.57,97.79615,2.45414,0.84644
402.777,23.58409,97.7962,2.46131,0.84599
403.277,23.59816,97.7958,2.46599,0.84554
403.777,23.61222,97.7932,2.46975,0.84509
404.277,23.62624,97.75958,2.47512,0.84464
404.777,23.6403,97.7539,2.47783,0.84419
405.277,23.6543,97.75636,2.48285,0.84374
405.777,23.66839,97.72697,2.48817,0.84329
406.277,23.68246,97.71134,2.49589,0.84284
406.777,23.69652,97.7116,2.50038,0.84239
407.277,23.71066,97.71157,2.50599,0.84194
407.777,23.72476,97.71079,2.50942,0.84149
408.277,23.73886,97.7132,2.51206,0.84104
408.777,23.75296,97.67415,2.51709,0.84059
409.277,23.76706,97.66898,2.52508,0.84014
409.777,23.78114,97.66821,2.52658,0.83969
410.277,23.79526,97.63506,2.52996,0.83925
410.777,23.80937,97.62714,2.53689,0.8388
411.277,23.82347,97.6293,2.54182,0.83835
411.777,23.83766,97.6031,2.54625,0.8379
412.277,23.8518,97.5851,2.55045,0.83745
412.777,23.86598,97.58492,2.55855,0.837
413.277,23.88009,97.5852,2.56155,0.83655
413.777,23.89423,97.54997,2.56911,0.8361
414.277,23.90839,97.53619,2.57307,0.83565
414.777,23.92256,97.50631,2.58119,0.8352
415.277,23.93671,97.4845,2.58564,0.83475
415.777,23.95089,97.4854,2.58809,0.8343
416.277,23.96493,97.45505,2.59137,0.83385
416.777,23.97907,97.4251,2.59974,0.8334
417.277,23.99322,97.41219,2.60574,0.83295
417.777,24.0074,97.41288,2.61017,0.8325
418.277,24.02151,97.4127,2.61314,0.83205
418.777,24.03565,97.4145,2.6217,0.8316
419.277,24.0499,97.39194,2.62489,0.83115
419.777,24.0642,97.3681,2.63425,0.83071
420.277,24.07841,97.373,2.63791,0.83026
420.777,24.09262,97.3287,2.64543,0.82981
421.277,24.10686,97.32275,2.64948,0.82936
421.777,24.12109,97.29734,2.65519,0.82891
422.277,24.13532,97.2787,2.66214,0.82846
422.777,24.14955,97.26901,2.66836,0.82801
423.277,24.16375,97.27128,2.67612,0.82756
423.777,24.178,97.24301,2.68214,0.82711
424.277,24.1922,97.22573,2.68969,0.82666
424.777,24.2064,97.22935,2.69496,0.82622
425.277,24.2207,97.19315,2.70406,0.82577
425.777,24.23491,97.17581,2.71019,0.82532
426.277,24.24919,97.1523,2.71699,0.82487
426.777,24.26344,97.09493,2.72894,0.82442
427.277,24.27767,97.09538,2.73661,0.82397
427.777,24.2919,97.04755,2.73956,0.82352
428.277,24.30617,97.05278,2.75048,0.82308
428.777,24.3204,97.02806,2.75512,0.82263
429.277,24.33469,97.00335,2.76115,0.82218
429.777,24.349,96.95648,2.76965,0.82173
430.277,24.3633,96.9298,2.77471,0.82128
430.777,24.37762,96.88973,2.78904,0.82083
431.277,24.3919,96.86672,2.79339,0.82039
431.777,24.40631,96.8297,2.80352,0.81994
432.277,24.42066,96.78435,2.80939,0.81949
432.777,24.435,96.75729,2.82256,0.81904
433.277,24.44934,96.7173,2.83083,0.8186
433.777,24.4637,96.7036,2.84132,0.81815
434.277,24.4781,96.65902,2.854,0.8177
434.777,24.49239,96.62278,2.86201,0.81725
435.277,24.50668,96.57796,2.87427,0.81681
435.777,24.521,96.53227,2.88103,0.81636
436.277,24.5353,96.4957,2.89232,0.81591
436.777,24.54962,96.47442,2.90513,0.81546
437.277,24.56396,96.42914,2.91438,0.81502
437.777,24.5783,96.40264,2.93164,0.81457
438.277,24.5927,96.35551,2.95137,0.81412
438.777,24.60709,96.307,2.96865,0.81368
439.277,24.62143,96.29078,2.9836,0.81323
439.777,24.63579,96.2364,2.99432,0.81278
440.277,24.6501,96.18518,3.00303,0.81234
440.777,24.66451,96.14135,3.01034,0.81189
441.277,24.67886,96.0911,3.01687,0.81144
441.777,24.6932,96.01911,3.02652,0.811
442.277,24.70761,95.94879,3.03399,0.81055
442.777,24.72198,95.90485,3.04544,0.81011
443.277,24.73637,95.83461,3.05732,0.80966
443.777,24.7508,95.7766,3.07447,0.80921
444.277,24.76517,95.6914,3.08484,0.80877
444.777,24.77959,95.61887,3.09832,0.80832
445.277,24.794,95.5418,3.11065,0.80788
445.777,24.80837,95.46297,3.12382,0.80743
446.277,24.82275,95.42051,3.13687,0.80699
446.777,24.8371,95.34435,3.15045,0.80654
447.277,24.85154,95.28271,3.16764,0.8061
447.777,24.86593,95.2035,3.18372,0.80565
448.277,24.88035,95.1468,3.19583,0.80521
448.777,24.89479,95.0825,3.21884,0.80476
449.277,24.90922,94.98143,3.23074,0.80432
449.777,24.92372,94.91162,3.2505,0.80387
450.277,24.93814,94.81013,3.26463,0.80343
450.777,24.95262,94.73045,3.28033,0.80299
451.277,24.96709,94.64465,3.29783,0.80254
451.777,24.98154,94.55991,3.31693,0.8021
452.277,24.99594,94.46819,3.33633,0.80165
452.777,25.01035,94.34467,3.35096,0.80121
453.277,25.0248,94.27594,3.37253,0.80077
453.777,25.03924,94.16158,3.38989,0.80032
454.277,25.05369,94.0624,3.41365,0.79988
454.777,25.0682,93.9559,3.42907,0.79944
455.277,25.0827,93.8245,3.45102,0.799
455.777,25.09723,93.7132,3.47623,0.79855
456.277,25.1117,93.5933,3.502,0.79811
456.777,25.12621,93.43519,3.52452,0.79767
457.277,25.1407,93.3193,3.56686,0.79722
457.777,25.1552,93.21378,3.72332,0.79678
458.277,25.16966,93.08768,3.80393,0.79634
458.777,25.1841,92.98652,3.80225,0.7959
459.277,25.1986,92.8453,3.79441,0.79546
459.777,25.21311,92.66248,3.78851,0.79502
460.277,25.22764,92.515,3.78918,0.79457
460.777,25.24212,92.3213,3.78642,0.79413
461.277,25.25662,92.08375,3.79579,0.79369
461.777,25.27114,91.89153,3.80207,0.79325
462.277,25.28566,91.66584,3.81542,0.79281
462.777,25.30016,91.49808,3.82973,0.79237
463.277,25.31464,91.32234,3.84913,0.79193
463.777,25.32917,91.0905,3.86895,0.79149
464.277,25.34369,90.89658,3.88592,0.79105
464.777,25.35826,90.66048,3.9058,0.79061
465.277,25.37279,90.39777,3.9303,0.79017
465.777,25.38734,90.20992,3.9496,0.78973
466.277,25.4019,89.9817,3.9758,0.78929
466.777,25.41649,89.7639,4.00173,0.78885
467.277,25.43102,89.55201,4.02708,0.78841
467.777,25.4456,89.27216,4.05749,0.78797
468.277,25.46017,89.0395,4.08689,0.78753
468.777,25.47471,88.78791,4.11562,0.78709
469.277,25.48925,88.4601,4.14662,0.78665
469.777,25.5038,88.19775,4.18174,0.78622
470.277,25.5183,87.87925,4.21172,0.78578
470.777,25.53286,87.51003,4.25146,0.78534
471.277,25.54738,87.23901,4.28264,0.7849
471.777,25.56193,86.89369,4.32834,0.78446
472.277,25.57649,86.54892,4.36227,0.78403
472.777,25.59103,86.25187,4.39746,0.78359
473.277,25.60557,85.86576,4.43657,0.78315
473.777,25.62011,85.5346,4.46994,0.78271
474.277,25.63466,85.17047,4.5047,0.78228
474.777,25.64925,84.70793,4.53915,0.78184
475.277,25.66381,84.33265,4.58389,0.7814
475.777,25.67837,83.90188,4.62893,0.78097
476.277,25.69291,83.42496,4.67994,0.78053
476.777,25.70748,83.04693,4.73101,0.7801
477.277,25.72201,82.56726,4.77054,0.77966
477.777,25.73655,82.0886,4.8104,0.77922
478.277,25.75106,81.6602,4.85453,0.77879
478.777,25.7656,81.11064,4.9064,0.77835
479.277,25.7802,80.6205,4.95686,0.77792
479.777,25.7947,80.09485,5.00755,0.77748
480.277,25.80925,79.43009,5.05633,0.77705
480.777,25.82379,78.93186,5.08639,0.77662
481.277,25.83834,78.34732,5.15349,0.77618
481.777,25.85285,77.6734,5.21475,0.77575
482.277,25.86736,77.13457,5.26677,0.77531
482.777,25.88188,76.4655,5.31091,0.77488
483.277,25.8964,75.78846,5.35427,0.77445
483.777,25.9109,75.1925,5.39854,0.77401
484.277,25.9254,74.41888,5.447,0.77358
484.777,25.93994,73.7377,5.49963,0.77315
485.277,25.95446,73.02816,5.54657,0.77272
485.777,25.969,72.15363,5.61416,0.77228
486.277,25.9835,71.4918,5.65388,0.77185
486.777,25.99802,70.71275,5.71242,0.77142
487.277,26.01256,69.79077,5.77561,0.77099
487.777,26.02702,69.0799,5.81559,0.77056
488.277,26.04155,68.18563,5.8314,0.77013
488.777,26.05611,67.25508,5.86077,0.76969
489.277,26.07064,66.43455,5.8985,0.76926
489.777,26.08507,65.36834,5.94892,0.76883
490.277,26.0996,64.47927,6.0066,0.7684
490.777,26.1142,63.5834,6.07437,0.76797
491.277,26.12866,62.49063,6.11721,0.76754
491.777,26.14319,61.64585,6.15145,0.76711
492.277,26.15769,60.64686,6.20155,0.76668
492.777,26.17233,59.44014,6.25756,0.76625
493.277,26.18685,58.52535,6.2771,0.76583
493.777,26.20134,57.38253,6.30307,0.7654
494.277,26.21589,56.32728,6.34724,0.76497
494.777,26.23038,55.03286,6.37966,0.76454
495.277,26.24488,53.66457,6.39652,0.76411
495.777,26.25941,52.1197,6.41165,0.76368
496.277,26.27393,50.92507,6.44209,0.76326
496.777,26.28848,49.6952,6.47389,0.76283
497.277,26.30302,48.40227,6.48503,0.7624
497.777,26.3176,47.1351,6.48368,0.76197
498.277,26.33217,45.88821,6.49816,0.76155
498.777,26.34678,44.54633,6.50411,0.76112
499.277,26.3613,43.13628,6.50084,0.7607
499.777,26.37595,41.79477,6.48674,0.76027
500.277,26.3906,40.47092,6.46381,0.75984
500.777,26.4052,39.05996,6.43538,0.75942
501.277,26.41985,37.63017,6.40849,0.75899
501.777,26.4345,36.2725,6.36988,0.75857
502.277,26.4492,34.9137,6.32587,0.75814
502.777,26.4639,33.47058,6.26777,0.75772
503.277,26.47865,32.03901,6.19703,0.75729
503.777,26.4934,30.66781,6.12632,0.75687
504.277,26.5082,29.24843,6.04274,0.75645
504.777,26.523,27.782,5.95043,0.75602
505.277,26.5378,26.34245,5.85143,0.7556
505.777,26.5526,24.9889,5.73542,0.75518
506.277,26.5674,23.6185,5.61778,0.75475
506.777,26.58225,22.20804,5.48537,0.75433
507.277,26.59713,20.88286,5.35134,0.75391
507.777,26.612,19.61016,5.20552,0.75349
508.277,26.62695,18.3209,5.05232,0.75307
508.777,26.64183,17.01737,4.89223,0.75264
509.277,26.65677,15.80047,4.72552,0.75222
509.777,26.67175,14.6616,4.55535,0.7518
510.277,26.68672,13.48995,4.38122,0.75138
510.777,26.70174,12.21439,4.19847,0.75096
511.277,26.71677,11.4572,4.01347,0.75054
511.777,26.73191,10.48034,3.83061,0.75012
512.277,26.74705,9.49344,3.64396,0.7497
512.777,26.76225,8.63937,3.45701,0.74928
513.277,26.7775,7.63808,3.26802,0.74886
513.777,26.79283,6.87538,3.08606,0.74844
514.277,26.8082,6.08127,2.90487,0.74802
514.777,26.82355,5.25269,2.72262,0.74761
515.277,26.839,4.64767,2.54981,0.74719
515.777,26.8545,3.94358,2.38336,0.74677
516.277,26.87,3.36122,2.22553,0.74635
516.777,26.88553,2.83386,2.07314,0.74594
517.277,26.9011,2.2801,1.92884,0.74552
517.777,26.91675,1.88051,1.79398,0.7451
518.277,26.9323,1.41528,1.6705,0.74469
518.777,26.9479,0.99903,1.55544,0.74427
519.277,26.9635,0.67135,1.44827,0.74385
519.777,26.97907,0.30041,1.34923,0.74344
520.277,26.9946,0.07070767,1.26069,0.74302
520.777,27.01019,-0.14742,1.17389,0.74261
521.277,27.0257,-0.33922,1.09833,0.74219
521.777,27.0412,-0.49358,1.02892,0.74178
522.277,27.0567,-0.63581,0.96717,0.74136
522.777,27.07217,-0.7431,0.91112,0.74095
523.277,27.08757,-0.87052,0.85283,0.74054
523.777,27.10295,-1.00836,0.80143,0.74012
524.277,27.11833,-1.0775,0.75537,0.73971
524.777,27.13365,-1.18947,0.7115,0.7393
525.277,27.14892,-1.24387,0.6729,0.73889
525.777,27.16422,-1.28072,0.63003,0.73847
526.277,27.17949,-1.31094,0.5922,0.73806
526.777,27.1947,-1.36713,0.56307,0.73765
527.277,27.20999,-1.382,0.53238,0.73724
527.777,27.22522,-1.42773,0.50229,0.73683
528.277,27.2404,-1.47138,0.48037,0.73642
528.777,27.25563,-1.51462,0.45516,0.73601
529.277,27.27082,-1.55651,0.43474,0.7356
529.777,27.28598,-1.60992,0.41801,0.73519
530.277,27.30118,-1.59084,0.39596,0.73478
530.777,27.31638,-1.62029,0.3868,0.73437
531.277,27.3316,-1.61781,0.3722,0.73396
531.777,27.3467,-1.61764,0.35868,0.73355
532.277,27.36177,-1.61797,0.35353,0.73314
532.777,27.3769,-1.65179,0.34232,0.73273
533.277,27.39208,-1.65881,0.33568,0.73233
533.777,27.40724,-1.62486,0.32894,0.73192
534.277,27.42237,-1.61849,0.32689,0.73151
534.777,27.4376,-1.6168,0.32024,0.7311
535.277,27.45294,-1.60995,0.31469,0.7307
535.777,27.46813,-1.57593,0.31137,0.73029
536.277,27.4833,-1.57539,0.30181,0.72989
536.777,27.4985,-1.57676,0.2983,0.72948
537.277,27.5137,-1.54487,0.2943,0.72907
537.777,27.5289,-1.53299,0.29089,0.72867
538.277,27.54405,-1.53321,0.29132,0.72827
538.777,27.5592,-1.53334,0.2844,0.72786
539.277,27.5744,-1.53333,0.28121,0.72746
539.777,27.5896,-1.53334,0.27303,0.72705
540.277,27.6048,-1.53354,0.27399,0.72665
540.777,27.62006,-1.53336,0.27169,0.72625
541.277,27.6353,-1.51755,0.27053,0.72584
541.777,27.6506,-1.49127,0.26824,0.72544
542.277,27.66585,-1.49146,0.26978,0.72504
542.777,27.68105,-1.49153,0.26943,0.72464
543.277,27.69632,-1.5233,0.26726,0.72424
543.777,27.71155,-1.53277,0.27288,0.72383
544.277,27.72683,-1.53347,0.27272,0.72343
544.777,27.7421,-1.53335,0.27519,0.72303
545.277,27.75736,-1.53333,0.27417,0.72263
545.777,27.77263,-1.5333,0.27625,0.72223
546.277,27.7879,-1.53354,0.27971,0.72183
546.777,27.8032,-1.53551,0.27829,0.72143
547.277,27.81847,-1.5057,0.27995,0.72103
547.777,27.83373,-1.50267,0.28121,0.72064
548.277,27.849,-1.5023,0.28491,0.72024
548.777,27.8641,-1.51357,0.28568,0.71984
549.277,27.87945,-1.54383,0.28861,0.71944
549.777,27.89472,-1.54385,0.28961,0.71904
550.277,27.91,-1.54391,0.28957,0.71865
550.777,27.9253,-1.5439,0.29267,0.71825
551.277,27.9406,-1.5439,0.29482,0.71785
551.777,27.956,-1.54436,0.2913,0.71746
552.277,27.97131,-1.54547,0.2963,0.71706
552.777,27.9866,-1.58112,0.29965,0.71667
553.277,28.00191,-1.58583,0.29862,0.71627
553.777,28.01724,-1.5867,0.30018,0.71588
554.277,28.0326,-1.58969,0.308,0.71548
554.777,28.0479,-1.62541,0.3083,0.71509
555.277,28.0632,-1.62775,0.30851,0.71469
555.777,28.07858,-1.62826,0.30855,0.7143
556.277,28.09393,-1.62862,0.31375,0.71391
556.777,28.1093,-1.61903,0.31273,0.71352
557.277,28.1247,-1.59456,0.31321,0.71312
557.777,28.14,-1.59647,0.31222,0.71273
558.277,28.1554,-1.59651,0.31355,0.71234
558.777,28.1708,-1.59648,0.31701,0.71195
559.277,28.1862,-1.59648,0.31638,0.71156
559.777,28.2015,-1.59648,0.31735,0.71117
560.277,28.21684,-1.59648,0.31591,0.71078
560.777,28.23218,-1.59647,0.32142,0.71039
561.277,28.2475,-1.59653,0.31836,0.71
561.777,28.2629,-1.59696,0.32063,0.70961
562.277,28.2782,-1.59418,0.3221,0.70922
562.777,28.2936,-1.63512,0.32219,0.70883
563.277,28.30892,-1.63883,0.32195,0.70844
563.777,28.32433,-1.6388,0.32059,0.70805
564.277,28.3397,-1.63878,0.32169,0.70767
564.777,28.35503,-1.63878,0.31925,0.70728
565.277,28.3704,-1.63878,0.32719,0.70689
565.777,28.3858,-1.63878,0.32094,0.7065
566.277,28.40121,-1.63878,0.322,0.70612
566.777,28.41657,-1.63875,0.3218,0.70573
567.277,28.432,-1.6386,0.32475,0.70535
567.777,28.44738,-1.64034,0.32399,0.70496
568.277,28.46276,-1.61055,0.324,0.70458
568.777,28.47816,-1.59558,0.32331,0.70419
569.277,28.4936,-1.5869,0.3221,0.70381
569.777,28.509,-1.55466,0.325,0.70342
570.277,28.52437,-1.55454,0.32491,0.70304
570.777,28.53983,-1.55449,0.31951,0.70266
571.277,28.5553,-1.55667,0.32727,0.70227
571.777,28.5707,-1.5976,0.32141,0.70189
572.277,28.58608,-1.59583,0.32459,0.70151
572.777,28.6015,-1.59644,0.32664,0.70113
573.277,28.617,-1.59649,0.32647,0.70075
573.777,28.63239,-1.59651,0.33118,0.70037
574.277,28.6478,-1.59629,0.32616,0.69999
574.777,28.6633,-1.61763,0.33058,0.69961
575.277,28.67875,-1.6395,0.32617,0.69923
575.777,28.69414,-1.63891,0.32952,0.69885
576.277,28.7095,-1.63889,0.32585,0.69847
576.777,28.72498,-1.64716,0.33136,0.69809
577.277,28.7405,-1.68149,0.32951,0.69771
577.777,28.75593,-1.6824,0.32881,0.69733
578.277,28.77137,-1.65625,0.32833,0.69695
578.777,28.78685,-1.63778,0.32922,0.69658
579.277,28.80235,-1.63889,0.32587,0.6962
579.777,28.8178,-1.63736,0.32853,0.69582
580.277,28.8332,-1.66831,0.32885,0.69545
580.777,28.8487,-1.68104,0.33186,0.69507
581.277,28.8641,-1.67835,0.33253,0.69469
581.777,28.8796,-1.7115,0.33355,0.69432
582.277,28.89517,-1.72328,0.33793,0.69394
582.777,28.91072,-1.72308,0.33437,0.69357
583.277,28.9262,-1.72319,0.33344,0.6932
583.777,28.94173,-1.72362,0.33713,0.69282
584.277,28.95727,-1.70916,0.3402,0.69245
584.777,28.97284,-1.67943,0.33865,0.69208
585.277,28.98835,-1.67972,0.33597,0.6917
585.777,29.0039,-1.71195,0.33488,0.69133
586.277,29.01939,-1.71482,0.33419,0.69096
586.777,29.0349,-1.67181,0.33667,0.69059
587.277,29.05041,-1.65149,0.33615,0.69022
587.777,29.0659,-1.62203,0.33707,0.68985
588.277,29.08144,-1.55799,0.33237,0.68947
588.777,29.097,-1.52043,0.33083,0.6891
589.277,29.11255,-1.51115,0.33162,0.68873
589.777,29.12813,-1.48401,0.33427,0.68837
590.277,29.1437,-1.43444,0.33132,0.688
590.777,29.1593,-1.42051,0.3344,0.68763
591.277,29.1749,-1.38544,0.3313,0.68726
591.777,29.19045,-1.33601,0.33313,0.68689
592.277,29.20604,-1.33394,0.33157,0.68652
592.777,29.22158,-1.28451,0.33531,0.68616
593.277,29.2371,-1.28431,0.33045,0.68579
593.777,29.25266,-1.23041,0.32893,0.68542
594.277,29.26822,-1.23474,0.33552,0.68506
594.777,29.28375,-1.23519,0.33201,0.68469
595.277,29.29932,-1.23285,0.33505,0.68433
595.777,29.3149,-1.2906,0.33939,0.68396
596.277,29.33042,-1.36979,0.33845,0.6836
596.777,29.346,-1.42549,0.34206,0.68323
597.277,29.36154,-1.49527,0.34198,0.68287
597.777,29.37711,-1.53011,0.34215,0.68251
598.277,29.39263,-1.60797,0.34289,0.68214
598.777,29.40819,-1.61867,0.34499,0.68178
599.277,29.4238,-1.65397,0.34797,0.68142
599.777,29.43937,-1.67197,0.34364,0.68106
600.277,29.4549,-1.69637,0.34649,0.6807
600.777,29.47052,-1.69486,0.34576,0.68033
601.277,29.4861,-1.69652,0.34406,0.67997
601.777,29.50178,-1.66898,0.34704,0.67961
602.277,29.51735,-1.65169,0.34754,0.67925
602.777,29.53293,-1.65245,0.35037,0.67889
603.277,29.5485,-1.65257,0.34692,0.67854
603.777,29.56417,-1.65257,0.34917,0.67818
604.277,29.57977,-1.65257,0.35034,0.67782
604.777,29.5954,-1.65256,0.34864,0.67746
605.277,29.61099,-1.65255,0.34306,0.6771
605.777,29.6266,-1.65278,0.35112,0.67675
606.277,29.6422,-1.65392,0.34986,0.67639
606.777,29.6578,-1.62777,0.35068,0.67603
607.277,29.6735,-1.61036,0.3467,0.67568
607.777,29.6891,-1.61053,0.34754,0.67532
608.277,29.70485,-1.60905,0.34947,0.67496
608.777,29.72052,-1.63311,0.35386,0.67461
609.277,29.7362,-1.65381,0.35133,0.67426
609.777,29.75184,-1.65266,0.3542,0.6739
610.277,29.76747,-1.65255,0.3521,0.67355
610.777,29.7831,-1.65256,0.34976,0.67319
611.277,29.79873,-1.65257,0.35039,0.67284
611.777,29.81435,-1.65262,0.35373,0.67249
612.277,29.83,-1.65256,0.35107,0.67214
612.777,29.8456,-1.64924,0.35686,0.67178
613.277,29.86127,-1.69155,0.35648,0.67143
613.777,29.87691,-1.7006,0.35864,0.67108
614.277,29.8926,-1.72983,0.35515,0.67073
614.777,29.9082,-1.74444,0.35462,0.67038
615.277,29.9239,-1.74374,0.35407,0.67003
615.777,29.9396,-1.74422,0.35544,0.66968
616.277,29.95528,-1.70544,0.35525,0.66933
616.777,29.97097,-1.70759,0.35636,0.66898
617.277,29.98665,-1.69709,0.35683,0.66863
617.677,29.99942,-1.68726,0.35749,0.66836