File: 01_Data/LDPE/STA/N2/30K_min/LDPE_STA_N2_30KData_210908_R2.csv
##Temp./Â°C,Time/min,Mass(subtr.2)/%,DSC(subtr.2)/(mW/mg),Sensit./(uV/mW)
49.265,10.01,99.5,-0.007516877,1.05401
49.765,10.97333,99.38186,0.0346665,1.05402
50.265,11.1942,99.37635,0.07096351,1.05403
50.765,11.3361,99.34696,0.10382,1.05404
51.265,11.44935,99.34788,0.13225,1.05404
51.765,11.54317,99.37365,0.16246,1.05405
52.265,11.62723,99.38696,0.18916,1.05405
52.765,11.70275,99.39061,0.21558,1.05406
53.265,11.77074,99.3689,0.2388,1.05406
53.765,11.83464,99.3634,0.26424,1.05406
54.265,11.8941,99.3332,0.28907,1.05406
54.765,11.9502,99.33543,0.31091,1.05406
55.265,12.00297,99.33323,0.33535,1.05406
55.765,12.05438,99.32568,0.35648,1.05406
56.265,12.1024,99.36345,0.37699,1.05405
56.765,12.14865,99.37156,0.39861,1.05404
57.265,12.19385,99.36743,0.41851,1.05404
57.765,12.23767,99.3956,0.43833,1.05403
58.265,12.28016,99.36495,0.45844,1.05402
58.765,12.32193,99.3545,0.47408,1.05401
59.265,12.36238,99.39748,0.49358,1.054
59.765,12.4018,99.39361,0.50866,1.05398
60.265,12.44042,99.38176,0.52738,1.05397
60.765,12.47865,99.38115,0.541,1.05395
61.265,12.51634,99.38765,0.55366,1.05394
61.765,12.55293,99.40852,0.56713,1.05392
62.265,12.58874,99.3767,0.57954,1.0539
62.765,12.62423,99.34957,0.59267,1.05388
63.265,12.65927,99.36875,0.60381,1.05386
63.765,12.6937,99.3759,0.61409,1.05383
64.265,12.72771,99.392,0.62393,1.05381
64.765,12.7617,99.35292,0.6341,1.05378
65.265,12.79502,99.36579,0.64319,1.05376
65.765,12.82765,99.3788,0.65048,1.05373
66.265,12.85971,99.35895,0.65957,1.0537
66.765,12.89188,99.3364,0.66695,1.05367
67.265,12.92357,99.3446,0.67645,1.05364
67.765,12.9552,99.35105,0.68392,1.05361
68.265,12.9864,99.35145,0.69282,1.05357
68.765,13.01731,99.34946,0.6999,1.05354
69.265,13.04808,99.32721,0.70725,1.0535
69.765,13.0785,99.33419,0.71637,1.05347
70.265,13.1089,99.33709,0.72404,1.05343
70.765,13.1389,99.34902,0.73282,1.05339
71.265,13.1688,99.35885,0.74103,1.05335
71.765,13.19837,99.37422,0.74915,1.0533
72.265,13.22759,99.35416,0.75595,1.05326
72.765,13.25655,99.34294,0.76487,1.05322
73.265,13.28554,99.34607,0.77374,1.05317
73.765,13.31426,99.34419,0.78261,1.05312
74.265,13.34304,99.3449,0.79065,1.05308
74.765,13.37132,99.35518,0.80029,1.05303
75.265,13.3993,99.35499,0.80938,1.05298
75.765,13.42712,99.3445,0.8182,1.05293
76.265,13.45495,99.33077,0.82709,1.05287
76.765,13.4825,99.34562,0.83817,1.05282
77.265,13.5098,99.34132,0.8478,1.05277
77.765,13.537,99.33937,0.85744,1.05271
78.265,13.56414,99.33946,0.86666,1.05265
78.765,13.5915,99.33114,0.87886,1.05259
79.265,13.6182,99.32552,0.88786,1.05253
79.765,13.6449,99.313,0.89886,1.05247
80.265,13.6715,99.30978,0.90859,1.05241
80.765,13.69796,99.31271,0.92148,1.05235
81.265,13.7241,99.31911,0.93149,1.05228
81.765,13.7499,99.33314,0.94157,1.05222
82.265,13.7756,99.3263,0.95232,1.05215
82.765,13.80125,99.31512,0.965,1.05208
83.265,13.82686,99.31604,0.9766,1.05202
83.765,13.8523,99.31266,0.98865,1.05195
84.265,13.8775,99.3143,1.00261,1.05187
84.765,13.9025,99.31444,1.01511,1.0518
85.265,13.92738,99.33944,1.02664,1.05173
85.765,13.952,99.33672,1.03891,1.05165
86.265,13.97666,99.33249,1.052,1.05158
86.765,14.00102,99.33081,1.0662,1.0515
87.265,14.02527,99.30666,1.08305,1.05142
87.765,14.0494,99.30735,1.09657,1.05134
88.265,14.07344,99.31363,1.1097,1.05126
88.765,14.0974,99.32494,1.12627,1.05118
89.265,14.1212,99.32432,1.14403,1.0511
89.765,14.14473,99.3399,1.15929,1.05102
90.265,14.16816,99.31732,1.18029,1.05093
90.765,14.1915,99.30282,1.19468,1.05084
91.265,14.21473,99.31989,1.21034,1.05076
91.765,14.2379,99.31752,1.22674,1.05067
92.265,14.261,99.33527,1.24653,1.05058
92.765,14.2839,99.35335,1.26545,1.05049
93.265,14.30676,99.34532,1.28512,1.0504
93.765,14.32945,99.3373,1.30149,1.05031
94.265,14.35196,99.35181,1.31918,1.05021
94.765,14.37429,99.3605,1.33445,1.05012
95.265,14.3966,99.33758,1.34864,1.05002
95.765,14.4189,99.35263,1.36205,1.04992
96.265,14.441,99.33978,1.37339,1.04982
96.765,14.46311,99.34264,1.37891,1.04972
97.265,14.4851,99.36479,1.38455,1.04962
97.765,14.507,99.35494,1.39107,1.04952
98.265,14.52863,99.37937,1.40509,1.04942
98.765,14.5502,99.3668,1.42578,1.04932
99.265,14.5717,99.37884,1.45228,1.04921
99.765,14.5931,99.36015,1.48307,1.0491
100.265,14.61449,99.34851,1.51916,1.049
100.765,14.6356,99.33686,1.55332,1.04889
101.265,14.6569,99.31396,1.5891,1.04878
101.765,14.67791,99.29779,1.63277,1.04867
102.265,14.6988,99.28686,1.67714,1.04856
102.765,14.71986,99.2744,1.72057,1.04844
103.265,14.74071,99.30343,1.76762,1.04833
103.765,14.7615,99.28742,1.81728,1.04822
104.265,14.78231,99.30364,1.87429,1.0481
104.765,14.803,99.30852,1.93026,1.04798
105.265,14.82368,99.32955,1.9889,1.04786
105.765,14.8442,99.3365,2.04881,1.04774
106.265,14.86469,99.35061,2.11101,1.04762
106.765,14.88519,99.33995,2.17325,1.0475
107.265,14.90526,99.32683,2.23298,1.04738
107.765,14.9253,99.32494,2.29578,1.04726
108.265,14.94546,99.32596,2.36047,1.04713
108.765,14.96574,99.32507,2.42557,1.04701
109.265,14.9857,99.35361,2.48962,1.04688
109.765,15.006,99.32736,2.55421,1.04675
110.265,15.02625,99.32478,2.6213,1.04662
110.765,15.04626,99.32093,2.68119,1.04649
111.265,15.06626,99.2965,2.73539,1.04636
111.765,15.0863,99.30589,2.78041,1.04623
112.265,15.10614,99.29994,2.81572,1.04609
112.765,15.12585,99.31851,2.84113,1.04596
113.265,15.14543,99.3089,2.84915,1.04583
113.765,15.165,99.3186,2.83481,1.04569
114.265,15.18445,99.3088,2.79656,1.04555
114.765,15.20391,99.31811,2.72707,1.04541
115.265,15.22335,99.2975,2.63461,1.04527
115.765,15.24259,99.3279,2.53068,1.04513
116.265,15.26181,99.3103,2.41781,1.04499
116.765,15.28085,99.3289,2.30895,1.04485
117.265,15.29977,99.32934,2.20095,1.0447
117.765,15.3186,99.32629,2.10065,1.04456
118.265,15.33735,99.32687,2.00711,1.04441
118.765,15.35607,99.3276,1.92073,1.04426
119.265,15.37473,99.31945,1.8427,1.04412
119.765,15.39337,99.32844,1.77148,1.04397
120.265,15.412,99.31151,1.70654,1.04382
120.765,15.43053,99.30245,1.64593,1.04367
121.265,15.449,99.32685,1.59531,1.04351
121.765,15.4673,99.30315,1.54708,1.04336
122.265,15.4856,99.30915,1.50455,1.0432
122.765,15.5037,99.3049,1.46696,1.04305
123.265,15.52188,99.30028,1.43165,1.04289
123.765,15.53997,99.3229,1.40092,1.04274
124.265,15.5581,99.29895,1.37463,1.04258
124.765,15.5761,99.29919,1.34749,1.04242
125.265,15.5941,99.3179,1.32671,1.04226
125.765,15.6121,99.29535,1.30719,1.04209
126.265,15.6299,99.3207,1.28967,1.04193
126.765,15.6477,99.2971,1.27406,1.04177
127.265,15.66557,99.29729,1.25944,1.0416
127.765,15.6834,99.271,1.2467,1.04144
128.265,15.70113,99.28246,1.23546,1.04127
128.765,15.7189,99.2889,1.22581,1.0411
129.265,15.7367,99.269,1.21863,1.04093
129.765,15.75436,99.29651,1.21066,1.04076
130.265,15.77201,99.26615,1.20334,1.04059
130.765,15.7896,99.2739,1.19768,1.04042
131.265,15.8072,99.2715,1.1924,1.04025
131.765,15.8247,99.2684,1.18931,1.04007
132.265,15.84216,99.26746,1.18403,1.0399
132.765,15.8596,99.28053,1.18217,1.03972
133.265,15.87696,99.269,1.18087,1.03955
133.765,15.89434,99.26785,1.17784,1.03937
134.265,15.91167,99.2671,1.17734,1.03919
134.765,15.92891,99.261,1.17572,1.03901
135.265,15.94615,99.2684,1.17675,1.03883
135.765,15.9634,99.268,1.176,1.03865
136.265,15.98045,99.268,1.17478,1.03846
136.765,15.99746,99.2537,1.17722,1.03828
137.265,16.01448,99.24169,1.17793,1.0381
137.765,16.0316,99.25789,1.17745,1.03791
138.265,16.04861,99.26831,1.18017,1.03772
138.765,16.0657,99.2675,1.17971,1.03753
139.265,16.08287,99.2626,1.18119,1.03735
139.765,16.09977,99.2612,1.18288,1.03716
140.265,16.11673,99.2654,1.18398,1.03697
140.765,16.1337,99.2395,1.18581,1.03677
141.265,16.1505,99.26246,1.18784,1.03658
141.765,16.16721,99.26756,1.1905,1.03639
142.265,16.18421,99.25945,1.1915,1.03619
142.765,16.201,99.26314,1.19505,1.036
143.265,16.2178,99.26816,1.19682,1.0358
143.765,16.23449,99.26815,1.19907,1.0356
144.265,16.25123,99.2593,1.20114,1.0354
144.765,16.26792,99.25114,1.20419,1.0352
145.265,16.2846,99.2687,1.2062,1.035
145.765,16.30114,99.2679,1.20838,1.0348
146.265,16.3177,99.26782,1.21109,1.0346
146.765,16.33425,99.26717,1.21378,1.0344
147.265,16.3507,99.27417,1.21649,1.03419
147.765,16.36719,99.2676,1.22043,1.03399
148.265,16.38365,99.26765,1.22221,1.03378
148.765,16.4001,99.26796,1.22438,1.03357
149.265,16.41646,99.2457,1.22795,1.03336
149.765,16.43287,99.27076,1.23285,1.03315
150.265,16.44925,99.2501,1.23412,1.03294
150.765,16.46558,99.2424,1.23782,1.03273
151.265,16.48188,99.2425,1.23999,1.03252
151.765,16.49814,99.24245,1.24304,1.03231
152.265,16.51438,99.2418,1.24689,1.03209
152.765,16.53056,99.2488,1.24946,1.03188
153.265,16.5467,99.24214,1.25156,1.03166
153.765,16.5628,99.24271,1.2546,1.03145
154.265,16.57907,99.23774,1.25755,1.03123
154.765,16.5952,99.21562,1.26125,1.03101
155.265,16.61134,99.21729,1.2644,1.03079
155.765,16.6275,99.21641,1.26699,1.03057
156.265,16.64367,99.23571,1.27004,1.03035
156.765,16.6596,99.24277,1.27321,1.03013
157.265,16.6756,99.24302,1.27677,1.0299
157.765,16.69162,99.2439,1.28066,1.02968
158.265,16.70766,99.26595,1.28351,1.02946
158.765,16.72364,99.26725,1.2881,1.02923
159.265,16.73951,99.2684,1.29079,1.029
159.765,16.75558,99.2424,1.29228,1.02877
160.265,16.77144,99.2406,1.29671,1.02855
160.765,16.78735,99.2407,1.29813,1.02832
161.265,16.8032,99.22816,1.30174,1.02809
161.765,16.81907,99.21445,1.30501,1.02785
162.265,16.83488,99.2363,1.30902,1.02762
162.765,16.85071,99.24263,1.31195,1.02739
163.265,16.86656,99.2409,1.31427,1.02716
163.765,16.8823,99.26464,1.31939,1.02692
164.265,16.89798,99.2689,1.32239,1.02668
164.765,16.91364,99.24971,1.32594,1.02645
165.265,16.92933,99.24257,1.32775,1.02621
165.765,16.94495,99.24262,1.3316,1.02597
166.265,16.96058,99.24269,1.3346,1.02573
166.765,16.97631,99.2427,1.33845,1.02549
167.265,16.992,99.24296,1.34233,1.02525
167.765,17.00764,99.26395,1.34273,1.02501
168.265,17.02329,99.2623,1.34812,1.02476
168.765,17.03891,99.24085,1.34944,1.02452
169.265,17.05454,99.2398,1.35389,1.02428
169.765,17.0701,99.25339,1.35598,1.02403
170.265,17.08569,99.26866,1.35905,1.02378
170.765,17.10118,99.24525,1.36262,1.02354
171.265,17.11668,99.24047,1.36588,1.02329
171.765,17.13215,99.24055,1.36926,1.02304
172.265,17.14759,99.2407,1.3732,1.02279
172.765,17.163,99.22845,1.37581,1.02254
173.265,17.17837,99.21463,1.37916,1.02229
173.765,17.1938,99.21526,1.38187,1.02203
174.265,17.20915,99.21476,1.38449,1.02178
174.765,17.22449,99.23472,1.3869,1.02152
175.265,17.23978,99.24042,1.39117,1.02127
175.765,17.2551,99.24045,1.39438,1.02101
176.265,17.27047,99.24039,1.39573,1.02076
176.765,17.2857,99.2401,1.3997,1.0205
177.265,17.30097,99.23974,1.40316,1.02024
177.765,17.31619,99.2187,1.40586,1.01998
178.265,17.33151,99.21534,1.41173,1.01972
178.765,17.34669,99.21556,1.41289,1.01946
179.265,17.36187,99.21741,1.41509,1.0192
179.765,17.37705,99.2488,1.41902,1.01893
180.265,17.39218,99.25985,1.4222,1.01867
180.765,17.40737,99.25959,1.42412,1.01841
181.265,17.42243,99.25968,1.42828,1.01814
181.765,17.4375,99.25912,1.43016,1.01787
182.265,17.45251,99.25541,1.43538,1.01761
182.765,17.46755,99.2338,1.43483,1.01734
183.265,17.48262,99.2568,1.43967,1.01707
183.765,17.49759,99.23334,1.443,1.0168
184.265,17.5126,99.23042,1.4447,1.01653
184.765,17.52761,99.22994,1.44808,1.01626
185.265,17.5426,99.22999,1.45101,1.01599
185.765,17.55755,99.23001,1.45371,1.01571
186.265,17.5725,99.23007,1.45608,1.01544
186.765,17.58735,99.227,1.45933,1.01517
187.265,17.60224,99.2032,1.46322,1.01489
187.765,17.61713,99.205,1.46691,1.01461
188.265,17.63195,99.20414,1.47046,1.01434
188.765,17.6468,99.2175,1.47289,1.01406
189.265,17.66163,99.2301,1.47413,1.01378
189.765,17.6765,99.22994,1.47777,1.0135
190.265,17.69124,99.2299,1.48099,1.01322
190.765,17.70606,99.21119,1.48473,1.01294
191.265,17.72087,99.20474,1.48725,1.01266
191.765,17.73561,99.2079,1.4894,1.01238
192.265,17.75037,99.21072,1.4934,1.01209
192.765,17.7651,99.20188,1.49617,1.01181
193.265,17.77983,99.20271,1.49962,1.01152
193.765,17.7945,99.20433,1.5025,1.01124
194.265,17.8092,99.1851,1.5059,1.01095
194.765,17.82388,99.17718,1.50786,1.01066
195.265,17.83857,99.17727,1.51136,1.01038
195.765,17.85322,99.17666,1.51368,1.01009
196.265,17.8679,99.1867,1.51708,1.0098
196.765,17.88252,99.20359,1.51953,1.00951
197.265,17.8972,99.20255,1.52258,1.00921
197.765,17.9118,99.20272,1.52674,1.00892
198.265,17.92644,99.2022,1.52938,1.00863
198.765,17.941,99.2014,1.53145,1.00834
199.265,17.95555,99.1783,1.53556,1.00804
199.765,17.9701,99.1773,1.53731,1.00775
200.265,17.98464,99.1773,1.54189,1.00745
200.765,17.99917,99.1773,1.54498,1.00715
201.265,18.01364,99.1773,1.54636,1.00686
201.765,18.02808,99.17734,1.54981,1.00656
202.265,18.04255,99.17756,1.5536,1.00626
202.765,18.05704,99.17551,1.55724,1.00596
203.265,18.07157,99.1985,1.55935,1.00566
203.765,18.08607,99.2028,1.56267,1.00536
204.265,18.10054,99.2027,1.56735,1.00506
204.765,18.11514,99.20269,1.56939,1.00475
205.265,18.12963,99.20269,1.57201,1.00445
205.765,18.1441,99.20267,1.57656,1.00415
206.265,18.1585,99.20277,1.58028,1.00384
206.765,18.17289,99.19062,1.58295,1.00354
207.265,18.1873,99.17971,1.58818,1.00323
207.765,18.20165,99.1969,1.58988,1.00292
208.265,18.2161,99.19593,1.59321,1.00261
208.765,18.23045,99.19615,1.59429,1.00231
209.265,18.24484,99.1961,1.59739,1.002
209.765,18.25919,99.19621,1.60176,1.00169
210.265,18.2736,99.19748,1.60444,1.00138
210.765,18.28797,99.18103,1.60656,1.00106
211.265,18.30228,99.17084,1.60998,1.00075
211.765,18.3166,99.17099,1.61213,1.00044
212.265,18.3309,99.17096,1.61449,1.00012
212.765,18.3452,99.17096,1.6183,0.99981
213.265,18.35953,99.17096,1.61991,0.9995
213.765,18.37378,99.1711,1.62411,0.99918
214.265,18.388,99.17041,1.62635,0.99886
214.765,18.40227,99.1779,1.62893,0.99855
215.265,18.41651,99.17718,1.6325,0.99823
215.765,18.43074,99.1773,1.63449,0.99791
216.265,18.44501,99.17744,1.638,0.99759
216.765,18.4592,99.17711,1.63946,0.99727
217.265,18.47348,99.18638,1.64389,0.99695
217.765,18.48774,99.19023,1.64551,0.99663
218.265,18.50196,99.19,1.64802,0.9963
218.765,18.5162,99.19,1.65121,0.99598
219.265,18.5304,99.19,1.6515,0.99566
219.765,18.54457,99.18988,1.65635,0.99533
220.265,18.5588,99.19028,1.659,0.99501
220.765,18.57295,99.18132,1.66157,0.99468
221.265,18.58719,99.17702,1.66267,0.99436
221.765,18.60129,99.1773,1.66486,0.99403
222.265,18.6155,99.17745,1.66891,0.9937
222.765,18.62963,99.17721,1.67269,0.99337
223.265,18.64379,99.171,1.67545,0.99304
223.765,18.658,99.15218,1.67734,0.99271
224.265,18.67216,99.15195,1.68193,0.99238
224.765,18.68631,99.1519,1.68365,0.99205
225.265,18.70041,99.15194,1.68541,0.99172
225.765,18.7145,99.15109,1.68848,0.99139
226.265,18.72853,99.1622,1.69143,0.99106
226.765,18.74261,99.1773,1.69399,0.99072
227.265,18.75664,99.18946,1.69575,0.99039
227.765,18.77068,99.20254,1.6996,0.99005
228.265,18.78475,99.2025,1.70086,0.98972
228.765,18.79881,99.2025,1.70279,0.98938
229.265,18.81286,99.2025,1.70617,0.98904
229.765,18.8269,99.20251,1.70993,0.9887
230.265,18.84096,99.2025,1.71183,0.98837
230.765,18.85501,99.20191,1.71487,0.98803
231.265,18.86909,99.20357,1.71721,0.98769
231.765,18.88314,99.17105,1.72028,0.98735
232.265,18.89714,99.16422,1.72299,0.98701
232.765,18.91112,99.16452,1.72404,0.98666
233.265,18.92514,99.16589,1.72711,0.98632
233.765,18.93917,99.1527,1.73069,0.98598
234.265,18.9531,99.15345,1.73336,0.98564
234.765,18.96709,99.13855,1.73571,0.98529
235.265,18.98109,99.12663,1.73766,0.98495
235.765,18.99513,99.1272,1.74184,0.9846
236.265,19.00914,99.1259,1.74395,0.98425
236.765,19.02311,99.1493,1.74765,0.98391
237.265,19.03704,99.15201,1.74905,0.98356
237.765,19.05104,99.1519,1.75221,0.98321
238.265,19.06502,99.1519,1.75437,0.98286
238.765,19.07897,99.1519,1.75648,0.98252
239.265,19.0929,99.1519,1.75919,0.98217
239.765,19.10684,99.1519,1.76118,0.98181
240.265,19.12075,99.1519,1.76383,0.98146
240.765,19.13472,99.15191,1.76641,0.98111
241.265,19.14862,99.152,1.76872,0.98076
241.765,19.16242,99.1524,1.77199,0.98041
242.265,19.17632,99.14499,1.77423,0.98005
242.765,19.19019,99.12643,1.77602,0.9797
243.265,19.20411,99.1268,1.77839,0.97934
243.765,19.21801,99.12651,1.78143,0.97899
244.265,19.23178,99.12653,1.78314,0.97863
244.765,19.2457,99.12654,1.78502,0.97828
245.265,19.25964,99.12653,1.78785,0.97792
245.765,19.2735,99.12635,1.7904,0.97756
246.265,19.28736,99.12747,1.79157,0.9772
246.765,19.30124,99.11188,1.7933,0.97685
247.265,19.31512,99.10046,1.79766,0.97649
247.765,19.32905,99.1014,1.79953,0.97613
248.265,19.34293,99.10136,1.80224,0.97577
248.765,19.3568,99.1013,1.8031,0.9754
249.265,19.3706,99.1013,1.80539,0.97504
249.765,19.38447,99.10157,1.80785,0.97468
250.265,19.39829,99.1006,1.8103,0.97432
250.765,19.41212,99.1172,1.81112,0.97395
251.265,19.42596,99.12736,1.81305,0.97359
251.765,19.4398,99.12653,1.81616,0.97322
252.265,19.45362,99.12584,1.81913,0.97286
252.765,19.46745,99.10518,1.82072,0.97249
253.265,19.4813,99.10167,1.82154,0.97213
253.765,19.49511,99.10075,1.8269,0.97176
254.265,19.50887,99.1112,1.82566,0.97139
254.765,19.52263,99.1498,1.82757,0.97103
255.265,19.53641,99.15183,1.83009,0.97066
255.765,19.55021,99.1519,1.83257,0.97029
256.265,19.56397,99.15191,1.83434,0.96992
256.765,19.57773,99.15201,1.83589,0.96955
257.265,19.59154,99.1523,1.83643,0.96918
257.765,19.60535,99.12515,1.84093,0.96881
258.265,19.6191,99.10114,1.84096,0.96843
258.765,19.63287,99.10125,1.84357,0.96806
259.265,19.6466,99.10136,1.8448,0.96769
259.765,19.6604,99.10135,1.84752,0.96732
260.265,19.6741,99.10135,1.84927,0.96694
260.765,19.6879,99.1013,1.85153,0.96657
261.265,19.70168,99.10133,1.85182,0.96619
261.765,19.7154,99.1015,1.85456,0.96582
262.265,19.72919,99.09621,1.85564,0.96544
262.765,19.74294,99.07417,1.8589,0.96506
263.265,19.75669,99.07629,1.86074,0.96469
263.765,19.77042,99.07597,1.86191,0.96431
264.265,19.78407,99.07595,1.86421,0.96393
264.765,19.79778,99.07596,1.86511,0.96355
265.265,19.81149,99.07596,1.86755,0.96317
265.765,19.82519,99.07596,1.86905,0.96279
266.265,19.8389,99.07596,1.87021,0.96241
266.765,19.8526,99.07596,1.87486,0.96203
267.265,19.86627,99.07596,1.87437,0.96165
267.765,19.87995,99.07596,1.8758,0.96127
268.265,19.8936,99.07596,1.87832,0.96089
268.765,19.9073,99.07596,1.87786,0.9605
269.265,19.921,99.07596,1.88115,0.96012
269.765,19.9347,99.07596,1.88303,0.95974
270.265,19.94839,99.07596,1.88598,0.95935
270.765,19.96215,99.07596,1.8867,0.95897
271.265,19.9758,99.07596,1.88846,0.95858
271.765,19.98951,99.07596,1.8892,0.9582
272.265,20.0031,99.07596,1.89126,0.95781
272.765,20.0167,99.07596,1.89337,0.95742
273.265,20.03029,99.07596,1.89549,0.95704
273.765,20.044,99.07596,1.89631,0.95665
274.265,20.05762,99.07596,1.89771,0.95626
274.765,20.0713,99.07596,1.90145,0.95587
275.265,20.08501,99.07596,1.90279,0.95548
275.765,20.0988,99.07596,1.90473,0.95509
276.265,20.1125,99.07596,1.90596,0.9547
276.765,20.1262,99.07596,1.90652,0.95431
277.265,20.13989,99.07596,1.90687,0.95392
277.765,20.15355,99.07596,1.91238,0.95353
278.265,20.16721,99.07596,1.91445,0.95314
278.765,20.18084,99.07596,1.91331,0.95275
279.265,20.19448,99.07596,1.916,0.95235
279.765,20.20808,99.07596,1.91743,0.95196
280.265,20.22171,99.07596,1.91886,0.95157
280.765,20.2354,99.07596,1.92116,0.95117
281.265,20.249,99.07596,1.92148,0.95078
281.765,20.26264,99.07596,1.9231,0.95038
282.265,20.27634,99.07596,1.92697,0.94999
282.765,20.28998,99.07596,1.92596,0.94959
283.265,20.30367,99.07596,1.92815,0.94919
283.765,20.3173,99.07597,1.92929,0.9488
284.265,20.3309,99.07599,1.92953,0.9484
284.765,20.34459,99.07539,1.93369,0.948
285.265,20.35819,99.0813,1.93356,0.9476
285.765,20.3718,99.0817,1.93568,0.9472
286.265,20.38541,99.08931,1.93586,0.9468
286.765,20.39904,99.09524,1.93633,0.94641
287.265,20.41265,99.09509,1.94055,0.94601
287.765,20.42626,99.09498,1.94098,0.9456
288.265,20.43988,99.095,1.94199,0.9452
288.765,20.45352,99.095,1.94435,0.9448
289.265,20.46718,99.09498,1.94466,0.9444
289.765,20.48078,99.09496,1.94687,0.944
290.265,20.49442,99.09586,1.94942,0.9436
290.765,20.50807,99.08539,1.94936,0.94319
291.265,20.5217,99.06885,1.95231,0.94279
291.765,20.5353,99.0713,1.9541,0.94239
292.265,20.54895,99.09363,1.9525,0.94198
292.765,20.56255,99.0945,1.95528,0.94158
293.265,20.5762,99.0951,1.9585,0.94117
293.765,20.58979,99.095,1.95901,0.94077
294.265,20.60343,99.095,1.95923,0.94036
294.765,20.61704,99.095,1.96093,0.93996
295.265,20.63071,99.095,1.96271,0.93955
295.765,20.64435,99.095,1.96275,0.93914
296.265,20.658,99.095,1.96357,0.93873
296.765,20.67163,99.095,1.96469,0.93833
297.265,20.68525,99.095,1.96627,0.93792
297.765,20.69887,99.095,1.96866,0.93751
298.265,20.71246,99.095,1.9683,0.9371
298.765,20.72606,99.095,1.96932,0.93669
299.265,20.73968,99.095,1.9708,0.93628
299.765,20.75321,99.095,1.97377,0.93587
300.265,20.7668,99.09499,1.97457,0.93546
300.765,20.78042,99.09499,1.9755,0.93505
301.265,20.79399,99.0955,1.97762,0.93464
301.765,20.8076,99.08999,1.97926,0.93423
302.265,20.8212,99.08887,1.98095,0.93382
302.765,20.83472,99.08625,1.98063,0.9334
303.265,20.84834,99.07659,1.98236,0.93299
303.765,20.86194,99.07607,1.98306,0.93258
304.265,20.87556,99.07593,1.98535,0.93216
304.765,20.88918,99.07597,1.98537,0.93175
305.265,20.90278,99.07604,1.98632,0.93134
305.765,20.91643,99.07376,1.98597,0.93092
306.265,20.93007,99.0505,1.98958,0.93051
306.765,20.94367,99.05108,1.98952,0.93009
307.265,20.95727,99.05049,1.99138,0.92968
307.765,20.9709,99.05054,1.99164,0.92926
308.265,20.98444,99.05116,1.99388,0.92884
308.765,20.99803,99.04526,1.99519,0.92843
309.265,21.01163,99.04436,1.99479,0.92801
309.765,21.02523,99.04419,1.99526,0.92759
310.265,21.0388,99.04423,1.99616,0.92717
310.765,21.0524,99.04423,1.99733,0.92676
311.265,21.06606,99.04423,1.99779,0.92634
311.765,21.07966,99.04423,1.99813,0.92592
312.265,21.09326,99.04423,1.9997,0.9255
312.765,21.10687,99.04423,1.99976,0.92508
313.265,21.12051,99.04423,2.00088,0.92466
313.765,21.1341,99.04426,2.00171,0.92424
314.265,21.14771,99.0441,2.00257,0.92382
314.765,21.16132,99.04372,2.00272,0.9234
315.265,21.17493,99.0536,2.00315,0.92298
315.765,21.1886,99.0638,2.00377,0.92256
316.265,21.2022,99.06339,2.0045,0.92214
316.765,21.21576,99.06325,2.00542,0.92171
317.265,21.22935,99.06326,2.00559,0.92129
317.765,21.24297,99.063,2.00563,0.92087
318.265,21.2565,99.06515,2.00707,0.92045
318.765,21.27008,99.04411,2.00648,0.92002
319.265,21.28366,99.03775,2.00751,0.9196
319.765,21.2973,99.0379,2.00755,0.91918
320.265,21.31091,99.03789,2.00842,0.91875
320.765,21.32452,99.03788,2.00827,0.91833
321.265,21.33813,99.03788,2.00898,0.9179
321.765,21.35184,99.03788,2.00883,0.91748
322.265,21.36542,99.03798,2.01031,0.91705
322.765,21.37904,99.03771,2.01207,0.91663
323.265,21.39265,99.035,2.01199,0.9162
323.765,21.40626,99.02439,2.01291,0.91577
324.265,21.41989,99.02539,2.01338,0.91535
324.765,21.43348,99.02541,2.01414,0.91492
325.265,21.44714,99.0254,2.01508,0.91449
325.765,21.4607,99.02535,2.01575,0.91407
326.265,21.47435,99.0262,2.01574,0.91364
326.765,21.48796,99.0161,2.01737,0.91321
327.265,21.50155,98.99971,2.01949,0.91278
327.765,21.51516,98.99715,2.01802,0.91235
328.265,21.5288,98.99367,2.02036,0.91193
328.765,21.54233,98.9938,2.02107,0.9115
329.265,21.55595,98.99386,2.02177,0.91107
329.765,21.56956,98.99385,2.0245,0.91064
330.265,21.5832,98.99385,2.02304,0.91021
330.765,21.5968,98.99385,2.02532,0.90978
331.265,21.61048,98.99385,2.02754,0.90935
331.765,21.62409,98.99385,2.02874,0.90892
332.265,21.63774,98.99385,2.0279,0.90849
332.765,21.65139,98.99385,2.03146,0.90806
333.265,21.665,98.99385,2.03053,0.90762
333.765,21.67865,98.99385,2.03357,0.90719
334.265,21.69229,98.99384,2.03489,0.90676
334.765,21.70594,98.99388,2.03588,0.90633
335.265,21.71965,98.99382,2.03889,0.9059
335.765,21.73329,98.99261,2.03908,0.90546
336.265,21.74694,99.00684,2.04077,0.90503
336.765,21.7606,99.01908,2.04151,0.9046
337.265,21.77415,99.019,2.04436,0.90416
337.765,21.78771,99.01905,2.04461,0.90373
338.265,21.80133,99.01906,2.04514,0.9033
338.765,21.81495,99.01879,2.04728,0.90286
339.265,21.82862,99.01966,2.0484,0.90243
339.765,21.84229,99.00291,2.05099,0.90199
340.265,21.85599,98.99305,2.05297,0.90156
340.765,21.86978,98.99386,2.05342,0.90112
341.265,21.88353,98.99387,2.05693,0.90069
341.765,21.8972,98.99384,2.05453,0.90025
342.265,21.9109,98.99385,2.05826,0.89982
342.765,21.92455,98.99385,2.0597,0.89938
343.265,21.93821,98.99385,2.06171,0.89895
343.765,21.95194,98.99385,2.06295,0.89851
344.265,21.96561,98.99385,2.06264,0.89807
344.765,21.97931,98.99385,2.06654,0.89764
345.265,21.993,98.99385,2.0663,0.8972
345.765,22.00674,98.99382,2.06943,0.89676
346.265,22.0204,98.99382,2.07014,0.89633
346.765,22.03412,98.9948,2.07149,0.89589
347.265,22.04778,98.98127,2.07422,0.89545
347.765,22.0615,98.94115,2.07713,0.89501
348.265,22.0751,98.94379,2.07962,0.89457
348.765,22.0888,98.943,2.0822,0.89414
349.265,22.10254,98.9431,2.08227,0.8937
349.765,22.11626,98.94304,2.08352,0.89326
350.265,22.12997,98.9431,2.08768,0.89282
350.765,22.1436,98.92962,2.0875,0.89238
351.265,22.15739,98.9169,2.08912,0.89194
351.765,22.1711,98.91781,2.09026,0.8915
352.265,22.1848,98.91794,2.09224,0.89106
352.765,22.19855,98.9178,2.09259,0.89062
353.265,22.21227,98.91735,2.09509,0.89018
353.765,22.22609,98.92517,2.0939,0.88974
354.265,22.23984,98.93689,2.09792,0.8893
354.765,22.25357,98.93684,2.09763,0.88886
355.265,22.2673,98.93694,2.09921,0.88842
355.765,22.28102,98.93692,2.10204,0.88798
356.265,22.2948,98.93692,2.10264,0.88754
356.765,22.3085,98.93692,2.10459,0.8871
357.265,22.3222,98.93692,2.10644,0.88665
357.765,22.33594,98.93692,2.10819,0.88621
358.265,22.34969,98.93692,2.10793,0.88577
358.765,22.36345,98.93697,2.11156,0.88533
359.265,22.37716,98.9367,2.11252,0.88489
359.765,22.39091,98.9363,2.11283,0.88445
360.265,22.4047,98.91702,2.11714,0.884
360.765,22.41846,98.91125,2.1164,0.88356
361.265,22.43219,98.9115,2.11966,0.88312
361.765,22.44593,98.91155,2.12065,0.88267
362.265,22.45968,98.91154,2.12335,0.88223
362.765,22.47346,98.91163,2.12387,0.88179
363.265,22.48719,98.9111,2.12563,0.88134
363.765,22.50098,98.91029,2.12662,0.8809
364.265,22.51476,98.88755,2.12887,0.88046
364.765,22.5286,98.8861,2.13292,0.88001
365.265,22.54245,98.88615,2.13176,0.87957
365.765,22.55623,98.88616,2.13293,0.87913
366.265,22.57003,98.88615,2.13444,0.87868
366.765,22.58384,98.88615,2.13585,0.87824
367.265,22.59761,98.88615,2.13643,0.87779
367.765,22.61141,98.88615,2.13811,0.87735
368.265,22.62516,98.88615,2.14115,0.8769
368.765,22.63899,98.88615,2.14232,0.87646
369.265,22.6528,98.88615,2.14512,0.87601
369.765,22.66664,98.88615,2.14376,0.87557
370.265,22.68047,98.88615,2.14618,0.87512
370.765,22.69427,98.88615,2.14659,0.87468
371.265,22.70809,98.88616,2.14979,0.87423
371.765,22.722,98.8862,2.15076,0.87379
372.265,22.7358,98.88601,2.15303,0.87334
372.765,22.74964,98.89194,2.15367,0.8729
373.265,22.7634,98.91339,2.15515,0.87245
373.765,22.7772,98.91122,2.15609,0.872
374.265,22.79104,98.9114,2.15899,0.87156
374.765,22.80485,98.9132,2.16082,0.87111
375.265,22.81868,98.89497,2.16322,0.87066
375.765,22.83258,98.88371,2.16488,0.87022
376.265,22.84649,98.884,2.16551,0.86977
376.765,22.8604,98.88396,2.16898,0.86932
377.265,22.87433,98.87167,2.16965,0.86888
377.765,22.8882,98.86459,2.17176,0.86843
378.265,22.9021,98.86493,2.17415,0.86798
378.765,22.91597,98.86502,2.17315,0.86754
379.265,22.92985,98.865,2.17665,0.86709
379.765,22.94371,98.865,2.18063,0.86664
380.265,22.9576,98.865,2.18132,0.8662
380.765,22.97148,98.865,2.18247,0.86575
381.265,22.98534,98.86499,2.1865,0.8653
381.765,22.9992,98.86502,2.18765,0.86485
382.265,23.0131,98.86543,2.18863,0.86441
382.765,23.027,98.8603,2.18979,0.86396
383.265,23.04094,98.85869,2.19406,0.86351
383.765,23.05487,98.85953,2.19583,0.86306
384.265,23.06876,98.8479,2.19633,0.86261
384.765,23.08268,98.8325,2.19861,0.86217
385.265,23.09659,98.83371,2.20167,0.86172
385.765,23.1105,98.8336,2.20502,0.86127
386.265,23.12448,98.82908,2.2055,0.86082
386.765,23.1384,98.80927,2.2079,0.86037
387.265,23.15234,98.80832,2.2101,0.85992
387.765,23.16629,98.80799,2.212,0.85948
388.265,23.18025,98.80805,2.2137,0.85903
388.765,23.1942,98.79332,2.21656,0.85858
389.265,23.20814,98.78203,2.21963,0.85813
389.765,23.22208,98.78264,2.22359,0.85768
390.265,23.23607,98.7808,2.22752,0.85723
390.765,23.25008,98.75741,2.23115,0.85678
391.265,23.26408,98.75799,2.23198,0.85634
391.765,23.27807,98.75745,2.23353,0.85589
392.265,23.29208,98.75749,2.23606,0.85544
392.765,23.30609,98.75751,2.23741,0.85499
393.265,23.32006,98.7575,2.23923,0.85454
393.765,23.33406,98.7571,2.24212,0.85409
394.265,23.34802,98.759,2.24255,0.85364
394.765,23.36197,98.73601,2.24486,0.85319
395.265,23.376,98.7322,2.2469,0.85274
395.765,23.38994,98.73231,2.24891,0.85229
396.265,23.40395,98.73232,2.25231,0.85184
396.765,23.41796,98.73228,2.25474,0.85139
397.265,23.4319,98.73213,2.25792,0.85095
397.765,23.44593,98.73411,2.26092,0.8505
398.265,23.46,98.71332,2.26176,0.85005
398.765,23.47404,98.70456,2.26529,0.8496
399.265,23.48807,98.7011,2.26674,0.84915
399.765,23.50209,98.6781,2.2712,0.8487
400.265,23.51614,98.67995,2.2753,0.84825
400.765,23.53022,98.6796,2.27848,0.8478
401.265,23.54429,98.6812,2.27889,0.84735
401.765,23.5583,98.66367,2.28157,0.8469
402.265,23.57235,98.65417,2.28698,0.84645
402.765,23.58643,98.65377,2.28905,0.846
403.265,23.6005,98.6537,2.29082,0.84555
403.765,23.6145,98.6301,2.29409,0.8451
404.265,23.6286,98.62965,2.29928,0.84465
404.765,23.64275,98.6147,2.29947,0.8442
405.265,23.65687,98.61734,2.3038,0.84375
405.765,23.67098,98.6021,2.30831,0.8433
406.265,23.6851,98.59,2.3129,0.84285
406.765,23.6993,98.59104,2.31258,0.8424
407.265,23.71336,98.59199,2.31793,0.84195
407.765,23.72743,98.57804,2.3214,0.8415
408.265,23.74152,98.5519,2.32445,0.84105
408.765,23.75564,98.55335,2.32676,0.8406
409.265,23.76972,98.54698,2.33236,0.84016
409.765,23.78385,98.5256,2.33426,0.83971
410.265,23.79796,98.5277,2.3388,0.83926
410.765,23.8121,98.52752,2.34334,0.83881
411.265,23.82619,98.52762,2.34652,0.83836
411.765,23.8403,98.52759,2.35156,0.83791
412.265,23.8544,98.52024,2.35572,0.83746
412.765,23.86859,98.50023,2.35923,0.83701
413.265,23.88273,98.4957,2.36493,0.83656
413.765,23.89692,98.47139,2.36918,0.83611
414.265,23.9111,98.46165,2.37468,0.83566
414.765,23.92524,98.43531,2.37695,0.83521
415.265,23.9394,98.42529,2.38155,0.83476
415.765,23.95364,98.40834,2.38735,0.83431
416.265,23.96783,98.4091,2.39324,0.83386
416.765,23.98201,98.4066,2.39614,0.83341
417.265,23.9962,98.38499,2.4006,0.83296
417.765,24.01037,98.38424,2.40341,0.83251
418.265,24.02454,98.38345,2.40943,0.83206
418.765,24.03867,98.35857,2.41495,0.83161
419.265,24.05281,98.35486,2.41942,0.83117
419.765,24.06702,98.3254,2.426,0.83072
420.265,24.0812,98.31194,2.4316,0.83027
420.765,24.09538,98.28563,2.43513,0.82982
421.265,24.10961,98.27314,2.4419,0.82937
421.765,24.12388,98.2543,2.44414,0.82892
422.265,24.13811,98.2522,2.45155,0.82847
422.765,24.15232,98.22346,2.45562,0.82802
423.265,24.16657,98.23049,2.46364,0.82757
423.765,24.18085,98.18081,2.47036,0.82712
424.265,24.1951,98.16112,2.47888,0.82667
424.765,24.2093,98.12976,2.48711,0.82623
425.265,24.22354,98.11253,2.49466,0.82578
425.765,24.2378,98.09245,2.50118,0.82533
426.265,24.25206,98.07616,2.50778,0.82488
426.765,24.2663,98.06124,2.51433,0.82443
427.265,24.28053,98.0312,2.51966,0.82398
427.765,24.29486,98.02124,2.52685,0.82353
428.265,24.30915,97.99461,2.53128,0.82309
428.765,24.32345,97.9708,2.53976,0.82264
429.265,24.33774,97.95479,2.54584,0.82219
429.765,24.35202,97.92273,2.55695,0.82174
430.265,24.36632,97.9114,2.56423,0.82129
430.765,24.38056,97.89163,2.58252,0.82085
431.265,24.39483,97.86154,2.62389,0.8204
431.765,24.4091,97.82554,2.6529,0.81995
432.265,24.42342,97.7884,2.67447,0.8195
432.765,24.43773,97.7394,2.68323,0.81905
433.265,24.45203,97.6917,2.68491,0.81861
433.765,24.46635,97.6688,2.6859,0.81816
434.265,24.4806,97.65115,2.68392,0.81771
434.765,24.49494,97.62221,2.68456,0.81726
435.265,24.50927,97.5883,2.68641,0.81682
435.765,24.52358,97.5874,2.69085,0.81637
436.265,24.53792,97.54381,2.69438,0.81592
436.765,24.5522,97.50261,2.69676,0.81548
437.265,24.56664,97.45068,2.70051,0.81503
437.765,24.58103,97.41011,2.70251,0.81458
438.265,24.59542,97.37017,2.70587,0.81413
438.765,24.6098,97.31521,2.70902,0.81369
439.265,24.62421,97.2911,2.71162,0.81324
439.765,24.6386,97.2606,2.71763,0.81279
440.265,24.65298,97.22174,2.7245,0.81235
440.765,24.66732,97.19029,2.72924,0.8119
441.265,24.68165,97.1299,2.73451,0.81146
441.765,24.69603,97.08775,2.74279,0.81101
442.265,24.7104,97.02622,2.74621,0.81056
442.765,24.7247,96.96061,2.75534,0.81012
443.265,24.7391,96.9102,2.76687,0.80967
443.765,24.75347,96.84499,2.77433,0.80923
444.265,24.7679,96.7898,2.78552,0.80878
444.765,24.78225,96.72136,2.7937,0.80833
445.265,24.79665,96.68689,2.80451,0.80789
445.765,24.81105,96.63277,2.81486,0.80744
446.265,24.82548,96.57274,2.82459,0.807
446.765,24.83989,96.52,2.83445,0.80655
447.265,24.85427,96.44035,2.84692,0.80611
447.765,24.8687,96.37546,2.8591,0.80566
448.265,24.88307,96.3051,2.8714,0.80522
448.765,24.89751,96.2135,2.88651,0.80477
449.265,24.9119,96.14862,2.8964,0.80433
449.765,24.92636,96.0783,2.91086,0.80389
450.265,24.9407,95.99031,2.92591,0.80344
450.765,24.9551,95.91928,2.94003,0.803
451.265,24.96937,95.83027,2.95333,0.80255
451.765,24.98379,95.7285,2.96738,0.80211
452.265,24.99822,95.65262,2.98389,0.80167
452.765,25.0126,95.5659,2.99564,0.80122
453.265,25.0271,95.48795,3.01412,0.80078
453.765,25.0416,95.4135,3.03152,0.80034
454.265,25.05622,95.3146,3.04975,0.79989
454.765,25.07068,95.22907,3.06777,0.79945
455.265,25.08515,95.1326,3.08551,0.79901
455.765,25.0996,95.00994,3.10192,0.79856
456.265,25.1141,94.91525,3.12018,0.79812
456.765,25.12859,94.8005,3.13917,0.79768
457.265,25.14305,94.67,3.15722,0.79724
457.765,25.15757,94.5706,3.17655,0.79679
458.265,25.17209,94.4438,3.19604,0.79635
458.765,25.18661,94.31914,3.21725,0.79591
459.265,25.20112,94.20465,3.24006,0.79547
459.765,25.2156,94.07104,3.26166,0.79503
460.265,25.23012,93.95997,3.28006,0.79458
460.765,25.24465,93.81401,3.30163,0.79414
461.265,25.25916,93.64694,3.32823,0.7937
461.765,25.27364,93.51857,3.35206,0.79326
462.265,25.28817,93.3638,3.38005,0.79282
462.765,25.30271,93.18182,3.40651,0.79238
463.265,25.31723,93.04254,3.43417,0.79194
463.765,25.3317,92.86492,3.45941,0.7915
464.265,25.34621,92.6844,3.4862,0.79106
464.765,25.36074,92.52593,3.51732,0.79062
465.265,25.37529,92.33032,3.54388,0.79018
465.765,25.3898,92.17656,3.56595,0.78974
466.265,25.40429,91.99316,3.58805,0.7893
466.765,25.41881,91.75586,3.61126,0.78886
467.265,25.4333,91.5693,3.64355,0.78842
467.765,25.4478,91.34499,3.67311,0.78798
468.265,25.46227,91.07947,3.69678,0.78754
468.765,25.4768,90.86449,3.73495,0.7871
469.265,25.49129,90.57927,3.76714,0.78666
469.765,25.5058,90.31948,3.79626,0.78623
470.265,25.5204,90.09827,3.82423,0.78579
470.765,25.53497,89.81319,3.85799,0.78535
471.265,25.54952,89.55366,3.89813,0.78491
471.765,25.56405,89.28538,3.933,0.78447
472.265,25.57864,88.9391,3.96509,0.78404
472.765,25.5932,88.67475,3.99159,0.7836
473.265,25.6077,88.36691,4.02687,0.78316
473.765,25.6222,88.0024,4.06591,0.78272
474.265,25.6367,87.72876,4.10848,0.78229
474.765,25.65115,87.38592,4.1507,0.78185
475.265,25.6656,87.0142,4.1981,0.78141
475.765,25.68008,86.6794,4.23414,0.78098
476.265,25.69455,86.23874,4.2768,0.78054
476.765,25.70898,85.84489,4.32073,0.78011
477.265,25.72344,85.45663,4.3624,0.77967
477.765,25.7379,84.98348,4.41164,0.77924
478.265,25.75243,84.599,4.45064,0.7788
478.765,25.76689,84.162,4.49125,0.77836
479.265,25.78135,83.6383,4.53523,0.77793
479.765,25.79585,83.2353,4.58134,0.77749
480.265,25.81032,82.73042,4.62814,0.77706
480.765,25.8248,82.17164,4.66739,0.77663
481.265,25.83919,81.70997,4.71374,0.77619
481.765,25.8536,81.11013,4.7683,0.77576
482.265,25.868,80.556,4.82484,0.77532
482.765,25.88243,80.04029,4.87688,0.77489
483.265,25.89688,79.3797,4.92635,0.77446
483.765,25.91133,78.8332,4.9794,0.77402
484.265,25.92576,78.21556,5.0291,0.77359
484.765,25.94022,77.47465,5.08415,0.77316
485.265,25.95467,76.9007,5.1365,0.77273
485.765,25.96904,76.25458,5.19811,0.77229
486.265,25.98345,75.48863,5.25572,0.77186
486.765,25.99788,74.6289,5.31847,0.77143
487.265,26.01231,73.31631,5.37912,0.771
487.765,26.02674,72.6492,5.42686,0.77057
488.265,26.04114,71.92498,5.48009,0.77014
488.765,26.05558,71.23918,5.54016,0.7697
489.265,26.07,70.3047,5.5963,0.76927
489.765,26.08435,69.46261,5.65328,0.76884
490.265,26.09872,68.56478,5.7106,0.76841
490.765,26.11311,67.59017,5.75524,0.76798
491.265,26.12751,66.62575,5.81191,0.76755
491.765,26.14195,65.67766,5.86378,0.76712
492.265,26.15645,64.65219,5.91139,0.76669
492.765,26.17095,63.58501,5.95793,0.76626
493.265,26.1855,62.6009,6.00639,0.76584
493.765,26.2,61.13304,6.04719,0.76541
494.265,26.2146,60.0253,6.09121,0.76498
494.765,26.2291,58.8718,6.13401,0.76455
495.265,26.24365,57.691,6.17151,0.76412
495.765,26.25818,56.49304,6.21168,0.76369
496.265,26.27275,55.25936,6.24739,0.76327
496.765,26.2873,54.0023,6.28252,0.76284
497.265,26.30187,52.7298,6.30611,0.76241
497.765,26.3164,51.4544,6.3375,0.76198
498.265,26.331,50.125,6.36009,0.76156
498.765,26.34556,48.77113,6.38424,0.76113
499.265,26.36007,47.43025,6.39955,0.76071
499.765,26.3745,46.06723,6.4078,0.76028
500.265,26.38904,44.69317,6.41516,0.75985
500.765,26.4036,43.29697,6.41999,0.75943
501.265,26.418,41.88798,6.42359,0.759
501.765,26.4325,40.46846,6.41601,0.75858
502.265,26.4469,39.04253,6.40911,0.75815
502.765,26.46132,37.61262,6.39486,0.75773
503.265,26.47573,36.16572,6.38283,0.7573
503.765,26.4901,34.71305,6.3605,0.75688
504.265,26.5045,33.2545,6.33064,0.75646
504.765,26.51887,31.79464,6.29345,0.75603
505.265,26.53316,30.3477,6.26282,0.75561
505.765,26.54743,28.90235,6.21092,0.75519
506.265,26.5617,27.46705,6.16074,0.75476
506.765,26.57595,26.05786,6.10116,0.75434
507.265,26.59021,24.68307,6.0316,0.75392
507.765,26.60456,23.3832,5.94667,0.7535
508.265,26.619,22.18328,5.84157,0.75308
508.765,26.6337,21.07169,5.72047,0.75265
509.265,26.6486,19.97768,5.58407,0.75223
509.765,26.6637,18.83643,5.4355,0.75181
510.265,26.6791,17.61086,5.27248,0.75139
510.765,26.69456,16.35325,5.10115,0.75097
511.265,26.71015,15.13821,4.92084,0.75055
511.765,26.72581,13.96845,4.73188,0.75013
512.265,26.74134,12.83056,4.5347,0.74971
512.765,26.7568,11.71303,4.32968,0.74929
513.265,26.77225,10.62682,4.1246,0.74887
513.765,26.78763,9.58824,3.91415,0.74845
514.265,26.80295,8.61117,3.70016,0.74803
514.765,26.8182,7.68187,3.48443,0.74762
515.265,26.83355,6.84812,3.27007,0.7472
515.765,26.8488,6.17386,3.05913,0.74678
516.265,26.864,5.51174,2.84596,0.74636
516.765,26.87922,4.80535,2.64503,0.74595
517.265,26.89443,4.16071,2.44658,0.74553
517.765,26.90966,3.61774,2.2565,0.74511
518.265,26.9248,3.09582,2.07705,0.7447
518.765,26.94012,2.63362,1.90596,0.74428
519.265,26.9554,2.1991,1.74555,0.74386
519.765,26.97083,1.7321,1.6009,0.74345
520.265,26.98627,1.40898,1.46381,0.74303
520.765,27.00178,1.05027,1.33751,0.74262
521.265,27.0174,0.73377,1.22676,0.7422
521.765,27.03305,0.48554,1.12038,0.74179
522.265,27.0488,0.21258,1.02161,0.74137
522.765,27.06447,0.03382007,0.93888,0.74096
523.265,27.0802,-0.14852,0.86269,0.74055
523.765,27.09597,-0.308,0.79355,0.74013
524.265,27.11167,-0.42951,0.7328,0.73972
524.765,27.1273,-0.57208,0.67714,0.73931
525.265,27.14295,-0.67305,0.62434,0.7389
525.765,27.15857,-0.76202,0.58153,0.73848
526.265,27.17414,-0.84001,0.54036,0.73807
526.765,27.18968,-0.88658,0.50072,0.73766
527.265,27.2052,-0.93602,0.46794,0.73725
527.765,27.22079,-0.95644,0.4384,0.73684
528.265,27.2363,-0.96949,0.40944,0.73643
528.765,27.2516,-0.99242,0.37965,0.73602
529.265,27.26701,-1.02102,0.35751,0.73561
529.765,27.28238,-1.03002,0.336,0.7352
530.265,27.2977,-1.05552,0.31521,0.73479
530.765,27.31294,-1.07977,0.29499,0.73438
531.265,27.3282,-1.10667,0.27804,0.73397
531.765,27.3435,-1.12055,0.26207,0.73356
532.265,27.3588,-1.13315,0.24561,0.73315
532.765,27.374,-1.13326,0.23172,0.73274
533.265,27.38922,-1.13188,0.22008,0.73234
533.765,27.4044,-1.15981,0.20981,0.73193
534.265,27.41968,-1.16228,0.19952,0.73152
534.765,27.4349,-1.1776,0.19102,0.73111
535.265,27.4502,-1.20044,0.18666,0.73071
535.765,27.4654,-1.21389,0.1792,0.7303
536.265,27.4806,-1.21291,0.17613,0.7299
536.765,27.4958,-1.21289,0.17245,0.72949
537.265,27.511,-1.21293,0.16678,0.72908
537.765,27.5262,-1.21189,0.16665,0.72868
538.265,27.54135,-1.22774,0.1624,0.72827
538.765,27.55658,-1.24083,0.15816,0.72787
539.265,27.5718,-1.26951,0.1555,0.72747
539.765,27.587,-1.26732,0.1547,0.72706
540.265,27.60227,-1.26766,0.15452,0.72666
540.765,27.61748,-1.26771,0.15196,0.72626
541.265,27.63277,-1.26774,0.15043,0.72585
541.765,27.64803,-1.26748,0.15132,0.72545
542.265,27.6633,-1.26477,0.15174,0.72505
542.765,27.6786,-1.24333,0.15037,0.72465
543.265,27.6939,-1.24257,0.14869,0.72424
543.765,27.7092,-1.24229,0.14701,0.72384
544.265,27.7245,-1.2423,0.1463,0.72344
544.765,27.7398,-1.2423,0.14511,0.72304
545.265,27.75505,-1.2423,0.14405,0.72264
545.765,27.7703,-1.2423,0.14365,0.72224
546.265,27.78562,-1.2423,0.14205,0.72184
546.765,27.80091,-1.2423,0.1421,0.72144
547.265,27.8162,-1.2423,0.13925,0.72104
547.765,27.83147,-1.2423,0.13696,0.72065
548.265,27.8468,-1.2423,0.13532,0.72025
548.765,27.86208,-1.2423,0.13451,0.71985
549.265,27.87735,-1.2423,0.12943,0.71945
549.765,27.89268,-1.2423,0.1307,0.71905
550.265,27.90798,-1.2423,0.12912,0.71866
550.765,27.9233,-1.24231,0.13082,0.71826
551.265,27.9385,-1.2423,0.12776,0.71786
551.765,27.9539,-1.2422,0.12861,0.71747
552.265,27.96922,-1.24747,0.1266,0.71707
552.765,27.9845,-1.26951,0.12762,0.71668
553.265,27.99992,-1.26769,0.12741,0.71628
553.765,28.0153,-1.26779,0.12613,0.71589
554.265,28.0307,-1.26792,0.12633,0.71549
554.765,28.046,-1.25645,0.12754,0.7151
555.265,28.06135,-1.24175,0.12715,0.7147
555.765,28.07671,-1.25495,0.12927,0.71431
556.265,28.09202,-1.26782,0.12982,0.71392
556.765,28.10738,-1.26755,0.1299,0.71352
557.265,28.12272,-1.27923,0.13008,0.71313
557.765,28.138,-1.29379,0.13279,0.71274
558.265,28.15343,-1.29322,0.13383,0.71235
558.765,28.16879,-1.29305,0.13735,0.71196
559.265,28.18415,-1.29266,0.13544,0.71157
559.765,28.1995,-1.29358,0.13881,0.71118
560.265,28.21493,-1.26899,0.13579,0.71079
560.765,28.23037,-1.2677,0.13886,0.7104
561.265,28.24578,-1.26769,0.13998,0.71001
561.765,28.2612,-1.26769,0.14069,0.70962
562.265,28.27662,-1.2677,0.14007,0.70923
562.765,28.29206,-1.2677,0.13852,0.70884
563.265,28.30745,-1.26766,0.13936,0.70845
563.765,28.32283,-1.26739,0.14264,0.70806
564.265,28.33819,-1.26924,0.14134,0.70767
564.765,28.35363,-1.24682,0.14609,0.70729
565.265,28.369,-1.24894,0.14497,0.7069
565.765,28.3844,-1.24888,0.14558,0.70651
566.265,28.3998,-1.24884,0.14254,0.70613
566.765,28.41527,-1.24884,0.14541,0.70574
567.265,28.43068,-1.24884,0.14495,0.70536
567.765,28.4461,-1.24884,0.14218,0.70497
568.265,28.46153,-1.24884,0.14456,0.70459
568.765,28.47697,-1.24884,0.14287,0.7042
569.265,28.4924,-1.24885,0.14304,0.70382
569.765,28.5078,-1.24878,0.14475,0.70343
570.265,28.5233,-1.2482,0.14506,0.70305
570.765,28.53868,-1.25926,0.14516,0.70267
571.265,28.5541,-1.27504,0.14616,0.70228
571.765,28.5696,-1.27402,0.14528,0.7019
572.265,28.585,-1.27402,0.14565,0.70152
572.765,28.6006,-1.27404,0.14549,0.70114
573.265,28.61598,-1.27404,0.14621,0.70076
573.765,28.63138,-1.27404,0.14417,0.70038
574.265,28.6468,-1.27406,0.14645,0.69999
574.765,28.6622,-1.27418,0.14634,0.69961
575.265,28.67772,-1.27303,0.14632,0.69923
575.765,28.69315,-1.28989,0.14653,0.69885
576.265,28.70869,-1.29315,0.14645,0.69848
576.765,28.72424,-1.2931,0.14604,0.6981
577.265,28.7398,-1.29308,0.14716,0.69772
577.765,28.7553,-1.29308,0.14784,0.69734
578.265,28.77078,-1.29308,0.14986,0.69696
578.765,28.7863,-1.29304,0.14709,0.69659
579.265,28.80177,-1.29291,0.14789,0.69621
579.765,28.81727,-1.29482,0.1455,0.69583
580.265,28.8328,-1.27053,0.14683,0.69545
580.765,28.8484,-1.26765,0.14871,0.69508
581.265,28.86385,-1.26769,0.14892,0.6947
581.765,28.87939,-1.2677,0.14938,0.69433
582.265,28.8949,-1.2677,0.14853,0.69395
582.765,28.91041,-1.2677,0.1484,0.69358
583.265,28.92592,-1.2677,0.14795,0.6932
583.765,28.94143,-1.2677,0.14874,0.69283
584.265,28.95695,-1.2677,0.14806,0.69246
584.765,28.9725,-1.2677,0.1483,0.69208
585.265,28.98803,-1.2677,0.15045,0.69171
585.765,29.0035,-1.2677,0.14662,0.69134
586.265,29.0191,-1.26769,0.1493,0.69097
586.765,29.0346,-1.26758,0.14927,0.6906
587.265,29.0501,-1.26765,0.14817,0.69022
587.765,29.06565,-1.27801,0.14929,0.68985
588.265,29.08117,-1.29315,0.14757,0.68948
588.765,29.0967,-1.29305,0.14841,0.68911
589.265,29.11225,-1.29308,0.14733,0.68874
589.765,29.12777,-1.29308,0.14958,0.68837
590.265,29.1433,-1.29308,0.14956,0.68801
590.765,29.1589,-1.29308,0.1501,0.68764
591.265,29.1745,-1.29308,0.14881,0.68727
591.765,29.1901,-1.29308,0.14994,0.6869
592.265,29.2056,-1.29308,0.14864,0.68653
592.765,29.22113,-1.29308,0.15016,0.68617
593.265,29.2366,-1.29308,0.14992,0.6858
593.765,29.25211,-1.29308,0.14924,0.68543
594.265,29.26766,-1.29308,0.14967,0.68507
594.765,29.28322,-1.29308,0.14924,0.6847
595.265,29.2988,-1.29308,0.151,0.68434
595.765,29.3144,-1.29308,0.15104,0.68397
596.265,29.33,-1.29308,0.14873,0.68361
596.765,29.3456,-1.29321,0.15038,0.68324
597.265,29.36117,-1.29348,0.14954,0.68288
597.765,29.37675,-1.2804,0.15,0.68252
598.265,29.3923,-1.2677,0.15078,0.68215
598.765,29.4079,-1.26688,0.14869,0.68179
599.265,29.42352,-1.2859,0.15081,0.68143
599.765,29.43911,-1.29324,0.15064,0.68107
600.265,29.4547,-1.29315,0.14909,0.6807
600.765,29.47033,-1.29308,0.1482,0.68034
601.265,29.486,-1.29308,0.15064,0.67998
601.765,29.50161,-1.29308,0.14983,0.67962
602.265,29.51715,-1.29308,0.15173,0.67926
602.765,29.5327,-1.29308,0.14897,0.6789
603.265,29.5483,-1.29308,0.14921,0.67854
603.765,29.56397,-1.29308,0.15139,0.67819
604.265,29.57955,-1.29308,0.14993,0.67783
604.765,29.5951,-1.29308,0.15175,0.67747
605.265,29.6109,-1.29308,0.14908,0.67711
605.765,29.6265,-1.29306,0.15068,0.67675
606.265,29.64215,-1.29296,0.15264,0.6764
606.765,29.6578,-1.29393,0.14805,0.67604
607.265,29.6734,-1.27499,0.15044,0.67568
607.765,29.68913,-1.26754,0.14914,0.67533
608.265,29.70478,-1.26763,0.14686,0.67497
608.765,29.72045,-1.26769,0.14637,0.67462
609.265,29.7361,-1.2677,0.14731,0.67426
609.765,29.7518,-1.2677,0.14875,0.67391
610.265,29.76744,-1.26768,0.14583,0.67356
610.765,29.78313,-1.26753,0.14769,0.6732
611.265,29.79877,-1.27255,0.14914,0.67285
611.765,29.8145,-1.30268,0.14827,0.6725
612.265,29.8302,-1.31849,0.1454,0.67214
612.765,29.84589,-1.3184,0.14823,0.67179
613.265,29.86154,-1.31844,0.14768,0.67144
613.765,29.87722,-1.31872,0.14732,0.67109
614.265,29.89293,-1.30758,0.14543,0.67074
614.765,29.9086,-1.27605,0.14883,0.67039
615.265,29.92428,-1.26743,0.14717,0.67004
615.765,29.94,-1.2677,0.14657,0.66969
616.265,29.9556,-1.2677,0.14696,0.66934
616.765,29.97133,-1.2677,0.14659,0.66899
617.265,29.98694,-1.2677,0.1466,0.66864
617.665,29.99959,-1.2677,0.14668,0.66836