File: 01_Data/LDPE/STA/N2/30K_min/LDPE_STA_N2_30KData_210908_R3.csv
##Temp./Â°C,Time/min,Mass(subtr.2)/%,DSC(subtr.2)/(mW/mg),Sensit./(uV/mW)
49.22,10.01,100.073,0.02235887,1.054
49.72,10.97702,100.044,0.07128504,1.05402
50.22,11.19201,100.043,0.11932,1.05403
50.72,11.33629,99.99435,0.15936,1.05403
51.22,11.45139,100.137,0.19774,1.05404
51.72,11.54607,100.145,0.23413,1.05405
52.22,11.63057,100.106,0.26736,1.05405
52.72,11.7059,100.103,0.30096,1.05406
53.22,11.77465,100.051,0.33282,1.05406
53.72,11.83801,100.108,0.36244,1.05406
54.22,11.8972,99.9849,0.39198,1.05406
54.72,11.95311,99.87778,0.42015,1.05406
55.22,12.00635,99.9184,0.44802,1.05406
55.72,12.0575,99.90406,0.47456,1.05406
56.22,12.1065,99.7688,0.49967,1.05405
56.72,12.15354,99.6829,0.52474,1.05405
57.22,12.19843,99.56619,0.54956,1.05404
57.72,12.2424,99.75939,0.57247,1.05403
58.22,12.2852,99.90737,0.59699,1.05402
58.72,12.32651,99.97609,0.61838,1.05401
59.22,12.36695,100.025,0.63864,1.054
59.72,12.40643,100.031,0.65557,1.05398
60.22,12.4454,100.019,0.6774,1.05397
60.72,12.48373,100.024,0.69811,1.05395
61.22,12.52085,100.035,0.71491,1.05394
61.72,12.55758,100.053,0.73298,1.05392
62.22,12.5935,100.036,0.74767,1.0539
62.72,12.62908,100.005,0.76176,1.05388
63.22,12.66409,100.018,0.77776,1.05386
63.72,12.69871,100.063,0.78863,1.05384
64.22,12.73295,100.0728,0.8016,1.05381
64.72,12.76644,100.065,0.81508,1.05379
65.22,12.7993,100.028,0.82622,1.05376
65.72,12.83228,100.05,0.8374,1.05373
66.22,12.86513,100.048,0.85031,1.0537
66.72,12.89749,100.047,0.86281,1.05367
67.22,12.92941,100.035,0.8729,1.05364
67.72,12.96085,100.04,0.88388,1.05361
68.22,12.99198,100.035,0.89265,1.05358
68.72,13.0229,100.04,0.90301,1.05354
69.22,13.05357,100.075,0.91478,1.05351
69.72,13.08347,100.124,0.92654,1.05347
70.22,13.1136,100.145,0.93661,1.05343
70.72,13.14385,100.1262,0.94765,1.05339
71.22,13.1743,100.105,0.96159,1.05335
71.72,13.20408,100.108,0.97564,1.05331
72.22,13.23325,100.125,0.98738,1.05327
72.72,13.2625,100.117,1.00046,1.05322
73.22,13.2914,100.065,1.01094,1.05318
73.72,13.32045,100.04,1.02163,1.05313
74.22,13.34896,100.037,1.03017,1.05308
74.72,13.3772,100.061,1.04008,1.05303
75.22,13.4054,100.064,1.05093,1.05298
75.72,13.4333,100.067,1.05954,1.05293
76.22,13.46093,100.067,1.06454,1.05288
76.72,13.48867,100.09,1.07947,1.05282
77.22,13.51612,100.142,1.09158,1.05277
77.72,13.5436,100.141,1.10585,1.05271
78.22,13.5709,100.112,1.11512,1.05266
78.72,13.59774,100.035,1.124,1.0526
79.22,13.62447,100.044,1.13338,1.05254
79.72,13.65104,100.0638,1.14098,1.05248
80.22,13.6776,100.131,1.1569,1.05242
80.72,13.70381,100.171,1.17035,1.05235
81.22,13.72986,100.181,1.18007,1.05229
81.72,13.75576,100.184,1.19669,1.05222
82.22,13.7811,100.152,1.20934,1.05216
82.72,13.80664,100.127,1.21991,1.05209
83.22,13.83204,100.119,1.23134,1.05202
83.72,13.8575,100.092,1.2367,1.05195
84.22,13.88301,100.043,1.24269,1.05188
84.72,13.9081,100.015,1.24603,1.05181
85.22,13.933,100.042,1.24882,1.05173
85.72,13.95778,100.068,1.25642,1.05166
86.22,13.9823,100.078,1.26614,1.05158
86.72,14.0067,100.111,1.27337,1.05151
87.22,14.031,100.133,1.27641,1.05143
87.72,14.05511,100.138,1.27582,1.05135
88.22,14.07918,100.159,1.2717,1.05127
88.72,14.1031,100.146,1.26726,1.05119
89.22,14.1269,100.138,1.26591,1.05111
89.72,14.1506,100.133,1.26048,1.05102
90.22,14.174,100.138,1.25365,1.05094
90.72,14.1973,100.14,1.24567,1.05085
91.22,14.22045,100.125,1.2413,1.05077
91.72,14.24361,100.149,1.2297,1.05068
92.22,14.26663,100.152,1.21318,1.05059
92.72,14.28955,100.134,1.195,1.0505
93.22,14.31233,100.1261,1.1836,1.05041
93.72,14.3349,100.143,1.17304,1.05031
94.22,14.3574,100.1143,1.1578,1.05022
94.72,14.37979,100.1,1.14432,1.05012
95.22,14.40211,100.094,1.13507,1.05003
95.72,14.42426,100.101,1.13852,1.04993
96.22,14.44635,100.092,1.15021,1.04983
96.72,14.46826,100.1042,1.17869,1.04973
97.22,14.49,100.12,1.21849,1.04963
97.72,14.5117,100.106,1.2569,1.04953
98.22,14.53319,100.12,1.28274,1.04943
98.72,14.55464,100.116,1.30774,1.04933
99.22,14.57606,100.119,1.3438,1.04922
99.72,14.59729,100.129,1.3915,1.04911
100.22,14.6186,100.116,1.44766,1.04901
100.72,14.6398,100.142,1.50438,1.0489
101.22,14.661,100.123,1.56479,1.04879
101.72,14.6821,100.133,1.62906,1.04868
102.22,14.70309,100.141,1.69343,1.04857
102.72,14.72395,100.134,1.75913,1.04845
103.22,14.7448,100.121,1.82395,1.04834
103.72,14.76556,100.097,1.88564,1.04823
104.22,14.78631,100.098,1.95104,1.04811
104.72,14.80698,100.098,2.02206,1.04799
105.22,14.82763,100.099,2.09576,1.04787
105.72,14.84823,100.066,2.16158,1.04776
106.22,14.8687,100.098,2.22936,1.04764
106.72,14.88911,100.069,2.30052,1.04751
107.22,14.9094,100.083,2.3722,1.04739
107.72,14.92959,100.0659,2.44416,1.04727
108.22,14.9498,100.073,2.5205,1.04714
108.72,14.97,100.0658,2.59207,1.04702
109.22,14.9902,100.076,2.65864,1.04689
109.72,15.01021,100.081,2.72036,1.04676
110.22,15.0303,100.085,2.77264,1.04663
110.72,15.0503,100.071,2.81047,1.0465
111.22,15.0702,100.1,2.83252,1.04637
111.72,15.09,100.071,2.82989,1.04624
112.22,15.1097,100.102,2.80676,1.04611
112.72,15.1294,100.102,2.75847,1.04597
113.22,15.14901,100.135,2.68724,1.04584
113.72,15.1685,100.1041,2.5977,1.0457
114.22,15.18791,100.122,2.49085,1.04556
114.72,15.20723,100.099,2.37847,1.04542
115.22,15.2264,100.0755,2.26602,1.04528
115.72,15.2454,100.101,2.1539,1.04514
116.22,15.26445,100.103,2.05068,1.045
116.72,15.2834,100.136,1.95349,1.04486
117.22,15.3022,100.132,1.86693,1.04472
117.72,15.3211,100.14,1.78579,1.04457
118.22,15.3399,100.146,1.71121,1.04442
118.72,15.35859,100.142,1.64845,1.04428
119.22,15.3773,100.168,1.58697,1.04413
119.72,15.3959,100.142,1.53489,1.04398
120.22,15.41429,100.142,1.4866,1.04383
120.72,15.43261,100.1282,1.445,1.04368
121.22,15.45094,100.139,1.40585,1.04353
121.72,15.46923,100.101,1.37267,1.04337
122.22,15.48746,100.08,1.34086,1.04322
122.72,15.50567,100.063,1.3139,1.04306
123.22,15.52396,100.061,1.2895,1.04291
123.72,15.54219,100.085,1.26868,1.04275
124.22,15.56029,100.066,1.24908,1.04259
124.72,15.5783,100.0844,1.23308,1.04243
125.22,15.5963,100.093,1.21938,1.04227
125.72,15.61426,100.064,1.206,1.04211
126.22,15.63211,100.078,1.19391,1.04195
126.72,15.64998,100.098,1.18445,1.04178
127.22,15.66792,100.096,1.17654,1.04162
127.72,15.68576,100.1297,1.16685,1.04145
128.22,15.7035,100.106,1.16283,1.04129
128.72,15.72129,100.129,1.15642,1.04112
129.22,15.739,100.096,1.14956,1.04095
129.72,15.75665,100.086,1.14694,1.04078
130.22,15.7743,100.089,1.14214,1.04061
130.72,15.7919,100.099,1.13919,1.04044
131.22,15.8095,100.114,1.14033,1.04026
131.72,15.82691,100.13,1.13556,1.04009
132.22,15.84436,100.129,1.13493,1.03992
132.72,15.8618,100.129,1.13346,1.03974
133.22,15.8792,100.129,1.13449,1.03956
133.72,15.89662,100.129,1.13397,1.03938
134.22,15.91397,100.129,1.13327,1.03921
134.72,15.9313,100.1294,1.13434,1.03903
135.22,15.9486,100.129,1.13568,1.03885
135.72,15.96582,100.131,1.13619,1.03866
136.22,15.98299,100.123,1.13684,1.03848
136.72,16.00016,100.115,1.13732,1.0383
137.22,16.0173,100.107,1.1394,1.03811
137.72,16.03446,100.091,1.14049,1.03793
138.22,16.0514,100.073,1.14312,1.03774
138.72,16.06839,100.058,1.14267,1.03755
139.22,16.08537,100.072,1.14534,1.03736
139.72,16.10229,100.054,1.14692,1.03717
140.22,16.11921,100.056,1.14928,1.03698
140.72,16.1361,100.043,1.15167,1.03679
141.22,16.15302,100.0298,1.15454,1.0366
141.72,16.16986,100.056,1.15571,1.0364
142.22,16.18667,100.056,1.16129,1.03621
142.72,16.20352,100.06,1.16193,1.03601
143.22,16.22031,100.086,1.16569,1.03582
143.72,16.23704,100.086,1.16626,1.03562
144.22,16.25368,100.089,1.16928,1.03542
144.72,16.2701,100.115,1.1705,1.03522
145.22,16.2867,100.1,1.17486,1.03502
145.72,16.3033,100.085,1.17605,1.03482
146.22,16.31984,100.092,1.17932,1.03462
146.72,16.33635,100.116,1.18183,1.03441
147.22,16.353,100.115,1.18338,1.03421
147.72,16.36961,100.1147,1.18802,1.034
148.22,16.38608,100.093,1.18972,1.0338
148.72,16.40257,100.0863,1.19321,1.03359
149.22,16.41902,100.113,1.19569,1.03338
149.72,16.43543,100.114,1.19901,1.03317
150.22,16.4518,100.114,1.20207,1.03296
150.72,16.46809,100.11,1.20529,1.03275
151.22,16.48433,100.083,1.20673,1.03254
151.72,16.50057,100.0849,1.21066,1.03233
152.22,16.5168,100.056,1.21214,1.03211
152.72,16.53301,100.057,1.21517,1.0319
153.22,16.5492,100.08,1.22025,1.03168
153.72,16.56547,100.08,1.2222,1.03147
154.22,16.5816,100.08,1.22611,1.03125
154.72,16.5977,100.081,1.22741,1.03103
155.22,16.6138,100.085,1.22821,1.03081
155.72,16.62991,100.095,1.23247,1.03059
156.22,16.646,100.08,1.23639,1.03037
156.72,16.66206,100.082,1.23767,1.03015
157.22,16.67811,100.11,1.24219,1.02992
157.72,16.69416,100.112,1.24591,1.0297
158.22,16.71015,100.112,1.24754,1.02948
158.72,16.72608,100.114,1.25153,1.02925
159.22,16.74195,100.087,1.25309,1.02902
159.72,16.7578,100.081,1.25739,1.0288
160.22,16.77371,100.1094,1.25978,1.02857
160.72,16.78952,100.113,1.26254,1.02834
161.22,16.80537,100.083,1.26488,1.02811
161.72,16.82123,100.0805,1.26807,1.02788
162.22,16.8371,100.081,1.26873,1.02764
162.72,16.85298,100.082,1.27409,1.02741
163.22,16.86881,100.061,1.2756,1.02718
163.72,16.8846,100.051,1.27916,1.02694
164.22,16.90036,100.051,1.28118,1.02671
164.72,16.91606,100.051,1.28511,1.02647
165.22,16.93176,100.051,1.28663,1.02623
165.72,16.9474,100.047,1.28875,1.02599
166.22,16.963,100.042,1.2941,1.02575
166.72,16.97871,100.059,1.29727,1.02551
167.22,16.99435,100.0591,1.29985,1.02527
167.72,17.00998,100.059,1.30336,1.02503
168.22,17.02559,100.083,1.30545,1.02479
168.72,17.04116,100.088,1.3073,1.02454
169.22,17.05678,100.088,1.31019,1.0243
169.72,17.0722,100.088,1.31532,1.02405
170.22,17.08771,100.088,1.31602,1.02381
170.72,17.10316,100.079,1.31904,1.02356
171.22,17.11851,100.081,1.32355,1.02331
171.72,17.1339,100.059,1.32484,1.02306
172.22,17.14926,100.0509,1.32667,1.02281
172.72,17.16471,100.069,1.33164,1.02256
173.22,17.1801,100.0804,1.33453,1.02231
173.72,17.19557,100.081,1.33584,1.02206
174.22,17.211,100.08,1.33849,1.0218
174.72,17.22649,100.081,1.34039,1.02155
175.22,17.24181,100.084,1.34439,1.02129
175.72,17.2571,100.094,1.34722,1.02104
176.22,17.2724,100.08,1.34966,1.02078
176.72,17.28772,100.08,1.35318,1.02052
177.22,17.303,100.08,1.35673,1.02026
177.72,17.31814,100.085,1.35889,1.02
178.22,17.3333,100.112,1.36276,1.01974
178.72,17.34848,100.109,1.36345,1.01948
179.22,17.36361,100.109,1.36637,1.01922
179.72,17.37872,100.111,1.3696,1.01896
180.22,17.39384,100.08,1.37274,1.01869
180.72,17.409,100.063,1.37451,1.01843
181.22,17.42411,100.034,1.37709,1.01816
181.72,17.43921,100.032,1.38025,1.0179
182.22,17.45427,100.023,1.38189,1.01763
182.72,17.46933,100.003,1.3859,1.01736
183.22,17.4844,100.011,1.38807,1.01709
183.72,17.49935,100.031,1.39102,1.01682
184.22,17.51435,100.056,1.39397,1.01655
184.72,17.5293,100.066,1.39612,1.01628
185.22,17.5443,100.083,1.39983,1.01601
185.72,17.55921,100.095,1.40373,1.01574
186.22,17.57416,100.095,1.40685,1.01546
186.72,17.58909,100.096,1.40852,1.01519
187.22,17.60397,100.067,1.40993,1.01492
187.72,17.61881,100.065,1.41377,1.01464
188.22,17.6337,100.033,1.41589,1.01436
188.72,17.64849,100.029,1.41786,1.01408
189.22,17.6633,100.03,1.42132,1.01381
189.72,17.6781,100.055,1.42539,1.01353
190.22,17.69282,100.0579,1.42677,1.01325
190.72,17.7076,100.059,1.4296,1.01297
191.22,17.7224,100.058,1.43192,1.01268
191.72,17.73713,100.058,1.43468,1.0124
192.22,17.75185,100.058,1.43834,1.01212
192.72,17.76653,100.058,1.44188,1.01183
193.22,17.78128,100.058,1.44497,1.01155
193.72,17.79593,100.058,1.44564,1.01126
194.22,17.8106,100.058,1.44801,1.01098
194.72,17.82527,100.057,1.45207,1.01069
195.22,17.83995,100.073,1.4558,1.0104
195.72,17.85464,100.089,1.45721,1.01011
196.22,17.8693,100.088,1.46052,1.00982
196.72,17.88392,100.088,1.46322,1.00953
197.22,17.89846,100.088,1.46418,1.00924
197.72,17.91301,100.087,1.4685,1.00895
198.22,17.92759,100.063,1.46865,1.00866
198.72,17.94211,100.059,1.4711,1.00836
199.22,17.95666,100.059,1.47424,1.00807
199.72,17.97121,100.06,1.47563,1.00777
200.22,17.98586,100.099,1.47702,1.00748
200.72,18.0004,100.117,1.4806,1.00718
201.22,18.01491,100.117,1.48334,1.00688
201.72,18.0294,100.117,1.48543,1.00659
202.22,18.0439,100.119,1.48975,1.00629
202.72,18.0582,100.099,1.49031,1.00599
203.22,18.07266,100.088,1.49357,1.00569
203.72,18.0871,100.088,1.49581,1.00539
204.22,18.1016,100.088,1.49919,1.00508
204.72,18.11607,100.088,1.50025,1.00478
205.22,18.13055,100.088,1.50159,1.00448
205.72,18.14507,100.088,1.50622,1.00417
206.22,18.15956,100.088,1.50814,1.00387
206.72,18.17399,100.087,1.50949,1.00356
207.22,18.18844,100.112,1.51313,1.00326
207.72,18.20285,100.113,1.51498,1.00295
208.22,18.21725,100.137,1.51894,1.00264
208.72,18.23161,100.141,1.52207,1.00233
209.22,18.246,100.143,1.5222,1.00202
209.72,18.26032,100.124,1.52706,1.00171
210.22,18.27466,100.09,1.52728,1.0014
210.72,18.289,100.06,1.52996,1.00109
211.22,18.30333,100.041,1.53172,1.00078
211.72,18.31769,100.019,1.53432,1.00047
212.22,18.332,100.046,1.53637,1.00015
212.72,18.34628,100.025,1.53733,0.99984
213.22,18.36055,100.024,1.53811,0.99952
213.72,18.3748,100.024,1.54161,0.99921
214.22,18.389,100.024,1.54494,0.99889
214.72,18.40315,100.025,1.54678,0.99857
215.22,18.41726,100.019,1.54942,0.99826
215.72,18.43154,100.017,1.55227,0.99794
216.22,18.44578,100.0192,1.55412,0.99762
216.72,18.46,99.99517,1.5579,0.9973
217.22,18.47419,99.9876,1.55782,0.99698
217.72,18.48847,99.9878,1.56254,0.99666
218.22,18.5028,99.98795,1.56358,0.99633
218.72,18.517,99.98665,1.56515,0.99601
219.22,18.53115,100.005,1.56769,0.99569
219.72,18.54535,100.0187,1.56797,0.99536
220.22,18.55956,100.017,1.57239,0.99504
220.72,18.57372,100.044,1.57396,0.99471
221.22,18.5879,100.046,1.57732,0.99439
221.72,18.60207,100.043,1.57863,0.99406
222.22,18.6162,100.018,1.58131,0.99373
222.72,18.6303,100.017,1.58165,0.9934
223.22,18.6445,100.0171,1.58453,0.99307
223.72,18.65858,100.017,1.58614,0.99274
224.22,18.6727,100.017,1.58792,0.99241
224.72,18.68679,100.017,1.59036,0.99208
225.22,18.70091,100.017,1.59067,0.99175
225.72,18.71501,100.017,1.5932,0.99142
226.22,18.7291,100.017,1.59629,0.99109
226.72,18.74328,100.017,1.59863,0.99075
227.22,18.75731,100.017,1.59973,0.99042
227.72,18.77139,100.017,1.60182,0.99008
228.22,18.7854,100.017,1.60284,0.98975
228.72,18.79942,100.017,1.60637,0.98941
229.22,18.8134,100.017,1.60701,0.98907
229.72,18.82742,100.0171,1.60894,0.98873
230.22,18.84147,100.017,1.60993,0.9884
230.72,18.85556,99.994,1.61301,0.98806
231.22,18.8696,99.9829,1.61371,0.98772
231.72,18.88366,99.98292,1.61391,0.98738
232.22,18.89776,99.98313,1.61651,0.98704
232.72,18.91175,99.98311,1.6201,0.9867
233.22,18.9257,99.98311,1.62068,0.98635
233.72,18.93966,99.98311,1.62091,0.98601
234.22,18.95363,99.98311,1.62573,0.98567
234.72,18.96763,99.98311,1.62688,0.98532
235.22,18.98163,99.98311,1.62904,0.98498
235.72,18.9956,99.98311,1.63093,0.98463
236.22,19.00965,99.98311,1.63254,0.98429
236.72,19.02362,99.983,1.63397,0.98394
237.22,19.03758,99.98684,1.6355,0.98359
237.72,19.05153,100.014,1.63805,0.98324
238.22,19.06551,100.012,1.63801,0.9829
238.72,19.07945,100.012,1.63982,0.98255
239.22,19.0934,100.012,1.64334,0.9822
239.72,19.10735,100.011,1.64392,0.98185
240.22,19.12124,100.029,1.64409,0.9815
240.72,19.13518,100.043,1.64539,0.98114
241.22,19.1491,100.0415,1.64846,0.98079
241.72,19.16297,100.042,1.64901,0.98044
242.22,19.17686,100.042,1.65031,0.98009
242.72,19.19075,100.042,1.65259,0.97973
243.22,19.20466,100.036,1.65536,0.97938
243.72,19.21858,100.014,1.65782,0.97902
244.22,19.23245,100.013,1.65819,0.97867
244.72,19.24636,100.012,1.65931,0.97831
245.22,19.26022,100.012,1.66202,0.97795
245.72,19.2741,100.012,1.66194,0.97759
246.22,19.288,100.012,1.66408,0.97724
246.72,19.3018,100.012,1.66597,0.97688
247.22,19.3157,100.012,1.66701,0.97652
247.72,19.3295,100.012,1.66964,0.97616
248.22,19.34338,100.013,1.66957,0.9758
248.72,19.35724,100.01,1.67261,0.97544
249.22,19.37106,100.036,1.67128,0.97507
249.72,19.3849,100.042,1.67678,0.97471
250.22,19.39871,100.041,1.67655,0.97435
250.72,19.4125,100.039,1.67702,0.97399
251.22,19.42634,100.013,1.67995,0.97362
251.72,19.44019,100.008,1.68211,0.97326
252.22,19.45404,100.009,1.68267,0.97289
252.72,19.46787,99.99551,1.68504,0.97253
253.22,19.4817,99.9932,1.68609,0.97216
253.72,19.4955,99.9928,1.68857,0.97179
254.22,19.50929,99.99286,1.69064,0.97143
254.72,19.52306,99.9922,1.6904,0.97106
255.22,19.5368,100.002,1.69276,0.97069
255.72,19.55058,100.025,1.695,0.97032
256.22,19.56436,100.024,1.69551,0.96995
256.72,19.57809,100.024,1.69599,0.96958
257.22,19.59185,100.043,1.70031,0.96921
257.72,19.60566,100.055,1.70093,0.96884
258.22,19.6194,100.054,1.70198,0.96847
258.72,19.63319,100.054,1.70195,0.96809
259.22,19.6469,100.053,1.70424,0.96772
259.72,19.66072,100.053,1.70602,0.96735
260.22,19.67449,100.0237,1.70644,0.96697
260.72,19.68822,100.011,1.70988,0.9666
261.22,19.70195,100.01,1.71114,0.96623
261.72,19.71568,100.01,1.71214,0.96585
262.22,19.72942,100.01,1.71583,0.96547
262.72,19.74318,100.01,1.7164,0.9651
263.22,19.75688,100.01,1.71707,0.96472
263.72,19.77062,100.01,1.72058,0.96434
264.22,19.78438,100.01,1.71944,0.96396
264.72,19.79812,100.011,1.72289,0.96359
265.22,19.8119,99.9919,1.72375,0.96321
265.72,19.82555,99.97966,1.72354,0.96283
266.22,19.83929,99.9807,1.72541,0.96245
266.72,19.85299,99.98091,1.72628,0.96207
267.22,19.8667,99.97711,1.7305,0.96168
267.72,19.88036,99.9584,1.73085,0.9613
268.22,19.89404,99.95903,1.73256,0.96092
268.72,19.9077,99.95862,1.73279,0.96054
269.22,19.92145,99.95866,1.73451,0.96015
269.72,19.93516,99.95867,1.73581,0.95977
270.22,19.9488,99.95866,1.73803,0.95939
270.72,19.96247,99.95859,1.73811,0.959
271.22,19.97616,99.96099,1.74055,0.95862
271.72,19.98985,99.9876,1.74155,0.95823
272.22,20.0035,99.98721,1.74452,0.95784
272.72,20.01718,99.98787,1.74602,0.95746
273.22,20.0308,99.98779,1.74623,0.95707
273.72,20.0445,99.9875,1.7468,0.95668
274.22,20.05828,99.98864,1.74924,0.9563
274.72,20.0719,99.9701,1.75141,0.95591
275.22,20.0856,99.9534,1.75277,0.95552
275.72,20.09929,99.95133,1.754,0.95513
276.22,20.1129,99.95257,1.75325,0.95474
276.72,20.1266,99.93717,1.75883,0.95435
277.22,20.14025,99.9222,1.75802,0.95396
277.72,20.1539,99.92226,1.76038,0.95356
278.22,20.16762,99.92222,1.76068,0.95317
278.72,20.18125,99.92222,1.76222,0.95278
279.22,20.19494,99.9222,1.76363,0.95239
279.72,20.20864,99.92225,1.76428,0.95199
280.22,20.22222,99.92246,1.768,0.9516
280.72,20.23593,99.92019,1.7675,0.95121
281.22,20.24962,99.94321,1.76972,0.95081
281.72,20.26325,99.95353,1.77103,0.95042
282.22,20.2769,99.9622,1.77214,0.95002
282.72,20.29052,99.9885,1.77353,0.94963
283.22,20.3041,99.98755,1.77395,0.94923
283.72,20.31778,99.98805,1.77707,0.94883
284.22,20.33138,99.98801,1.77753,0.94843
284.72,20.34498,99.988,1.77798,0.94804
285.22,20.3586,99.988,1.78031,0.94764
285.72,20.37223,99.988,1.78095,0.94724
286.22,20.38588,99.98801,1.78293,0.94684
286.72,20.39954,99.98799,1.78541,0.94644
287.22,20.4131,99.98764,1.78693,0.94604
287.72,20.42675,99.9901,1.78761,0.94564
288.22,20.4404,99.96531,1.78882,0.94524
288.72,20.45404,99.9585,1.78854,0.94484
289.22,20.4677,99.9588,1.78928,0.94444
289.72,20.48132,99.95921,1.79247,0.94404
290.22,20.49501,99.94835,1.79232,0.94363
290.72,20.50872,99.92968,1.79408,0.94323
291.22,20.5224,99.92959,1.79319,0.94283
291.72,20.53601,99.92955,1.79583,0.94242
292.22,20.5496,99.92956,1.79631,0.94202
292.72,20.56319,99.92956,1.79903,0.94161
293.22,20.57679,99.92956,1.7999,0.94121
293.72,20.59038,99.92956,1.80029,0.9408
294.22,20.6039,99.92956,1.80168,0.9404
294.72,20.61751,99.92956,1.80437,0.93999
295.22,20.63114,99.92956,1.80313,0.93959
295.72,20.6448,99.93034,1.80582,0.93918
296.22,20.65847,99.96043,1.80878,0.93877
296.72,20.6721,99.96207,1.80826,0.93836
297.22,20.68572,99.97582,1.8087,0.93795
297.72,20.6994,99.9928,1.8102,0.93755
298.22,20.713,99.9925,1.81098,0.93714
298.72,20.7266,99.99505,1.81312,0.93673
299.22,20.74019,99.97054,1.81325,0.93632
299.72,20.75378,99.96337,1.81471,0.93591
300.22,20.76737,99.96372,1.8139,0.9355
300.72,20.78096,99.9543,1.81716,0.93509
301.22,20.7946,99.93214,1.81626,0.93468
301.72,20.8082,99.9344,1.81893,0.93426
302.22,20.82185,99.93425,1.81938,0.93385
302.72,20.83549,99.93421,1.8218,0.93344
303.22,20.84911,99.93422,1.82103,0.93303
303.72,20.8628,99.9342,1.82271,0.93261
304.22,20.8764,99.93435,1.8238,0.9322
304.72,20.88994,99.9272,1.82465,0.93179
305.22,20.90356,99.90294,1.82441,0.93137
305.72,20.91712,99.90545,1.82555,0.93096
306.22,20.93069,99.90513,1.82707,0.93054
306.72,20.9443,99.90496,1.82629,0.93013
307.22,20.95786,99.9092,1.82645,0.92971
307.72,20.97146,99.93564,1.83057,0.9293
308.22,20.98507,99.9334,1.82916,0.92888
308.72,20.99869,99.93496,1.83166,0.92846
309.22,21.01234,99.91526,1.83031,0.92805
309.72,21.02597,99.90396,1.83112,0.92763
310.22,21.0396,99.90491,1.83341,0.92721
310.72,21.0532,99.90481,1.83292,0.92679
311.22,21.06677,99.90772,1.83274,0.92638
311.72,21.0804,99.9347,1.83283,0.92596
312.22,21.094,99.93364,1.83382,0.92554
312.72,21.1076,99.9343,1.83355,0.92512
313.22,21.12119,99.93423,1.83418,0.9247
313.72,21.13475,99.93421,1.83317,0.92428
314.22,21.1484,99.93426,1.83352,0.92386
314.72,21.16198,99.93451,1.83656,0.92344
315.22,21.17555,99.93155,1.83598,0.92302
315.72,21.1891,99.9554,1.83723,0.9226
316.22,21.20269,99.93777,1.8376,0.92217
316.72,21.21633,99.9341,1.83754,0.92175
317.22,21.22995,99.93422,1.83708,0.92133
317.72,21.24351,99.9342,1.83746,0.92091
318.22,21.25712,99.93437,1.83879,0.92048
318.72,21.27073,99.9345,1.83674,0.92006
319.22,21.28435,99.92562,1.83962,0.91964
319.72,21.29796,99.9051,1.83964,0.91921
320.22,21.31156,99.90427,1.83775,0.91879
320.72,21.32517,99.91558,1.83892,0.91837
321.22,21.3388,99.9341,1.8413,0.91794
321.72,21.3524,99.93417,1.84008,0.91752
322.22,21.36605,99.9344,1.83976,0.91709
322.72,21.37967,99.93412,1.83973,0.91667
323.22,21.39327,99.9282,1.84092,0.91624
323.72,21.4069,99.90549,1.84114,0.91581
324.22,21.42045,99.90491,1.84192,0.91539
324.72,21.43403,99.90442,1.8418,0.91496
325.22,21.44761,99.90677,1.8411,0.91453
325.72,21.46119,99.88114,1.84304,0.91411
326.22,21.4748,99.87561,1.84211,0.91368
326.72,21.48845,99.8758,1.84286,0.91325
327.22,21.50206,99.87601,1.84324,0.91282
327.72,21.51567,99.8737,1.84446,0.91239
328.22,21.52935,99.89641,1.84377,0.91196
328.72,21.5429,99.9077,1.8442,0.91154
329.22,21.55659,99.90726,1.84439,0.91111
329.72,21.57019,99.90733,1.84443,0.91068
330.22,21.58385,99.90734,1.84663,0.91025
330.72,21.59754,99.90733,1.84531,0.90982
331.22,21.61117,99.90733,1.84914,0.90939
331.72,21.62482,99.90731,1.84595,0.90896
332.22,21.63842,99.9074,1.84802,0.90853
332.72,21.65205,99.90788,1.84976,0.90809
333.22,21.6657,99.8996,1.84853,0.90766
333.72,21.67928,99.88551,1.84898,0.90723
334.22,21.69291,99.88542,1.85202,0.9068
334.72,21.7065,99.88534,1.85276,0.90637
335.22,21.72022,99.88535,1.85463,0.90594
335.72,21.73386,99.88395,1.85508,0.9055
336.22,21.7475,99.86632,1.85676,0.90507
336.72,21.76117,99.86376,1.85685,0.90464
337.22,21.7748,99.86346,1.85916,0.9042
337.72,21.78849,99.86357,1.85627,0.90377
338.22,21.80213,99.86358,1.85875,0.90334
338.72,21.81575,99.86339,1.86234,0.9029
339.22,21.8294,99.86376,1.86238,0.90247
339.72,21.84305,99.86961,1.86203,0.90203
340.22,21.8567,99.88712,1.86607,0.9016
340.72,21.87035,99.8856,1.86625,0.90116
341.22,21.88399,99.88558,1.8664,0.90073
341.72,21.89764,99.88529,1.86717,0.90029
342.22,21.91135,99.8844,1.8673,0.89986
342.72,21.92501,99.86206,1.86951,0.89942
343.22,21.9387,99.85594,1.86881,0.89899
343.72,21.95239,99.85615,1.87187,0.89855
344.22,21.9661,99.8562,1.87149,0.89811
344.72,21.97984,99.8562,1.87378,0.89768
345.22,21.99353,99.85664,1.87377,0.89724
345.72,22.0072,99.85417,1.87536,0.8968
346.22,22.0209,99.87975,1.8754,0.89636
346.72,22.03458,99.88547,1.87735,0.89593
347.22,22.04825,99.88529,1.87953,0.89549
347.72,22.06194,99.88509,1.87913,0.89505
348.22,22.07563,99.88765,1.88161,0.89461
348.72,22.08933,99.8626,1.88191,0.89418
349.22,22.10306,99.85064,1.88307,0.89374
349.72,22.11673,99.8535,1.88578,0.8933
350.22,22.13041,99.8288,1.88556,0.89286
350.72,22.14415,99.82205,1.88747,0.89242
351.22,22.15784,99.8222,1.88924,0.89198
351.72,22.17155,99.82222,1.88966,0.89154
352.22,22.18529,99.82222,1.89148,0.8911
352.72,22.19896,99.82222,1.89364,0.89066
353.22,22.21269,99.82214,1.8944,0.89022
353.72,22.22642,99.8228,1.89231,0.88978
354.22,22.2401,99.8224,1.89402,0.88934
354.72,22.2539,99.8492,1.89537,0.8889
355.22,22.26763,99.85133,1.8973,0.88846
355.72,22.28135,99.85109,1.8989,0.88802
356.22,22.29513,99.85585,1.90006,0.88758
356.72,22.30883,99.85215,1.90107,0.88714
357.22,22.32261,99.85158,1.90028,0.88669
357.72,22.3364,99.85128,1.9001,0.88625
358.22,22.35012,99.85133,1.90539,0.88581
358.72,22.3639,99.8513,1.90427,0.88537
359.22,22.37763,99.848,1.90642,0.88493
359.72,22.3915,99.8156,1.90725,0.88448
360.22,22.40525,99.81801,1.91027,0.88404
360.72,22.41903,99.81725,1.91155,0.8836
361.22,22.4328,99.81639,1.91127,0.88316
361.72,22.44661,99.79939,1.9132,0.88271
362.22,22.4604,99.79541,1.91571,0.88227
362.72,22.4742,99.79524,1.91611,0.88183
363.22,22.48797,99.79534,1.91828,0.88138
363.72,22.50175,99.79533,1.92054,0.88094
364.22,22.51551,99.79533,1.92013,0.8805
364.72,22.52927,99.79533,1.92139,0.88005
365.22,22.54306,99.79533,1.92501,0.87961
365.72,22.5568,99.79535,1.9256,0.87917
366.22,22.57062,99.79535,1.92424,0.87872
366.72,22.5844,99.79478,1.92768,0.87828
367.22,22.59821,99.79714,1.92931,0.87783
367.72,22.61206,99.77141,1.93199,0.87739
368.22,22.62589,99.77365,1.93276,0.87694
368.72,22.6397,99.77346,1.9345,0.8765
369.22,22.65348,99.76544,1.93481,0.87605
369.72,22.6673,99.76635,1.93755,0.87561
370.22,22.68112,99.76629,1.93693,0.87516
370.72,22.695,99.7652,1.93737,0.87472
371.22,22.7088,99.77853,1.94113,0.87427
371.72,22.72263,99.7991,1.94133,0.87383
372.22,22.73651,99.79695,1.9427,0.87338
372.72,22.75038,99.79727,1.94667,0.87294
373.22,22.76422,99.77045,1.94648,0.87249
373.72,22.77807,99.7684,1.94852,0.87204
374.22,22.7919,99.76844,1.95093,0.8716
374.72,22.80575,99.76845,1.95252,0.87115
375.22,22.81963,99.76844,1.95399,0.8707
375.72,22.8335,99.76844,1.95699,0.87026
376.22,22.8474,99.76844,1.95763,0.86981
376.72,22.8612,99.76844,1.96018,0.86937
377.22,22.87507,99.76845,1.95892,0.86892
377.72,22.889,99.7684,1.96011,0.86847
378.22,22.90286,99.768,1.96174,0.86802
378.72,22.91676,99.74535,1.96357,0.86758
379.22,22.93061,99.73952,1.96618,0.86713
379.72,22.94452,99.73918,1.9677,0.86668
380.22,22.95842,99.73935,1.96976,0.86624
380.72,22.97232,99.73934,1.97133,0.86579
381.22,22.98622,99.7393,1.97298,0.86534
381.72,23.0001,99.7393,1.97184,0.86489
382.22,23.01409,99.7393,1.97694,0.86445
382.72,23.02805,99.7393,1.97913,0.864
383.22,23.04198,99.7393,1.98044,0.86355
383.72,23.0559,99.73949,1.98129,0.8631
384.22,23.06983,99.7393,1.98539,0.86265
384.72,23.0838,99.73185,1.98392,0.86221
385.22,23.0977,99.71133,1.9878,0.86176
385.72,23.11161,99.69229,1.98905,0.86131
386.22,23.12556,99.6808,1.98977,0.86086
386.72,23.13953,99.6669,1.99193,0.86041
387.22,23.15353,99.65045,1.99429,0.85997
387.72,23.1675,99.65171,1.9963,0.85952
388.22,23.18145,99.6516,1.99677,0.85907
388.72,23.19541,99.65151,2.00093,0.85862
389.22,23.20939,99.6516,2.00237,0.85817
389.72,23.22334,99.653,2.00382,0.85772
390.22,23.2373,99.63553,2.00513,0.85727
390.72,23.25119,99.62212,2.00756,0.85682
391.22,23.2652,99.62256,2.00768,0.85638
391.72,23.27915,99.62171,2.01035,0.85593
392.22,23.29316,99.64243,2.0125,0.85548
392.72,23.3071,99.65334,2.01451,0.85503
393.22,23.32111,99.6349,2.01731,0.85458
393.72,23.33511,99.62115,2.01942,0.85413
394.22,23.34911,99.62227,2.02182,0.85368
394.72,23.363,99.62224,2.02345,0.85323
395.22,23.37702,99.62223,2.02531,0.85278
395.72,23.39104,99.62225,2.02505,0.85233
396.22,23.40506,99.62168,2.02892,0.85188
396.72,23.41907,99.62321,2.03049,0.85144
397.22,23.43307,99.59614,2.03253,0.85099
397.72,23.44716,99.593,2.03438,0.85054
398.22,23.46126,99.593,2.03772,0.85009
398.72,23.4753,99.57324,2.03759,0.84964
399.22,23.48937,99.56359,2.03902,0.84919
399.72,23.50346,99.54847,2.04125,0.84874
400.22,23.51752,99.53341,2.04406,0.84829
400.72,23.5316,99.53439,2.04659,0.84784
401.22,23.54567,99.5325,2.04917,0.84739
401.72,23.55973,99.50569,2.05027,0.84694
402.22,23.5738,99.506,2.05207,0.84649
402.72,23.58785,99.5048,2.05569,0.84604
403.22,23.60192,99.50216,2.05923,0.84559
403.72,23.61599,99.4769,2.06024,0.84514
404.22,23.63005,99.476,2.06475,0.84469
404.72,23.64414,99.47595,2.06693,0.84424
405.22,23.6582,99.47613,2.06989,0.84379
405.72,23.67227,99.47703,2.07187,0.84334
406.22,23.6863,99.46119,2.07642,0.84289
406.72,23.70039,99.4419,2.07897,0.84244
407.22,23.7145,99.43219,2.0819,0.84199
407.72,23.72853,99.40814,2.08459,0.84154
408.22,23.74261,99.40743,2.08855,0.8411
408.72,23.75675,99.38441,2.09172,0.84065
409.22,23.77084,99.3786,2.09512,0.8402
409.72,23.785,99.38032,2.10381,0.83975
410.22,23.7991,99.35816,2.10723,0.8393
410.72,23.8133,99.3493,2.11301,0.83885
411.22,23.82744,99.346,2.1184,0.8384
411.72,23.84159,99.3157,2.12302,0.83795
412.22,23.85574,99.3202,2.12583,0.8375
412.72,23.86991,99.29573,2.13323,0.83705
413.22,23.88404,99.30149,2.13468,0.8366
413.72,23.89819,99.31765,2.13808,0.83615
414.22,23.91239,99.28658,2.13814,0.8357
414.72,23.9266,99.282,2.14354,0.83525
415.22,23.94076,99.26505,2.14461,0.8348
415.72,23.9549,99.25019,2.15141,0.83435
416.22,23.96915,99.2527,2.15278,0.8339
416.72,23.98335,99.22408,2.15678,0.83345
417.22,23.99748,99.22214,2.16124,0.833
417.72,24.01163,99.1926,2.16077,0.83255
418.22,24.0258,99.18491,2.16796,0.8321
418.72,24.03998,99.15178,2.17152,0.83165
419.22,24.05411,99.1752,2.17363,0.83121
419.72,24.0683,99.14216,2.1806,0.83076
420.22,24.08253,99.1251,2.18505,0.83031
420.72,24.0967,99.09845,2.1877,0.82986
421.22,24.111,99.0915,2.19546,0.82941
421.72,24.12518,99.0555,2.19863,0.82896
422.22,24.13941,99.0406,2.2059,0.82851
422.72,24.15362,99.00905,2.20749,0.82806
423.22,24.1678,99.0072,2.21242,0.82761
423.72,24.18209,98.98061,2.22036,0.82716
424.22,24.19632,98.97576,2.22337,0.82672
424.72,24.2105,98.97573,2.23017,0.82627
425.22,24.22476,98.92737,2.23506,0.82582
425.72,24.23901,98.9136,2.24326,0.82537
426.22,24.2532,98.8779,2.24809,0.82492
426.72,24.26744,98.82648,2.25345,0.82447
427.22,24.28171,98.80121,2.26037,0.82402
427.72,24.29598,98.76212,2.2668,0.82358
428.22,24.3102,98.7174,2.2716,0.82313
428.72,24.32453,98.68414,2.28176,0.82268
429.22,24.33886,98.65278,2.28694,0.82223
429.72,24.35321,98.5945,2.29535,0.82178
430.22,24.3675,98.56478,2.3011,0.82133
430.72,24.3818,98.54208,2.31069,0.82089
431.22,24.39614,98.50508,2.31555,0.82044
431.72,24.4104,98.46088,2.32501,0.81999
432.22,24.4247,98.42793,2.33108,0.81954
432.72,24.43897,98.3938,2.3378,0.81909
433.22,24.45334,98.3486,2.34859,0.81865
433.72,24.4677,98.30705,2.35228,0.8182
434.22,24.48198,98.28563,2.36277,0.81775
434.72,24.49628,98.2719,2.37023,0.8173
435.22,24.51063,98.23652,2.38164,0.81686
435.72,24.525,98.2196,2.39065,0.81641
436.22,24.53932,98.1926,2.39976,0.81596
436.72,24.5536,98.18366,2.40863,0.81552
437.22,24.56801,98.17952,2.42395,0.81507
437.72,24.58234,98.13231,2.43769,0.81462
438.22,24.5967,98.0915,2.44393,0.81417
438.72,24.61107,98.04717,2.45213,0.81373
439.22,24.6254,97.97674,2.45857,0.81328
439.72,24.6398,97.9314,2.46905,0.81283
440.22,24.65417,97.86916,2.47759,0.81239
440.72,24.66856,97.8189,2.48437,0.81194
441.22,24.68294,97.75331,2.49675,0.8115
441.72,24.6973,97.6805,2.50577,0.81105
442.22,24.71164,97.63263,2.51274,0.8106
442.72,24.726,97.56286,2.52362,0.81016
443.22,24.74038,97.51455,2.53679,0.80971
443.72,24.75477,97.44246,2.54611,0.80927
444.22,24.7692,97.38221,2.55688,0.80882
444.72,24.78355,97.31381,2.5684,0.80837
445.22,24.79794,97.23299,2.57964,0.80793
445.72,24.81231,97.18349,2.59286,0.80748
446.22,24.82675,97.1082,2.6059,0.80704
446.72,24.84123,97.051,2.6184,0.80659
447.22,24.85559,96.9671,2.63159,0.80615
447.72,24.87002,96.88721,2.64717,0.8057
448.22,24.8845,96.82003,2.66148,0.80526
448.72,24.899,96.72454,2.67658,0.80481
449.22,24.91347,96.62861,2.69041,0.80437
449.72,24.92784,96.53146,2.70769,0.80393
450.22,24.94231,96.4032,2.72648,0.80348
450.72,24.95678,96.29351,2.74041,0.80304
451.22,24.97119,96.18627,2.7587,0.80259
451.72,24.98563,96.05115,2.77544,0.80215
452.22,25.00004,95.94618,2.7909,0.80171
452.72,25.0145,95.82043,2.81136,0.80126
453.22,25.02896,95.7116,2.82465,0.80082
453.72,25.04339,95.6084,2.83834,0.80038
454.22,25.05782,95.47362,2.85672,0.79993
454.72,25.07228,95.3668,2.87126,0.79949
455.22,25.08673,95.24775,2.89022,0.79905
455.72,25.10109,95.09278,2.91117,0.7986
456.22,25.11538,94.97616,2.9329,0.79816
456.72,25.12979,94.83259,2.95558,0.79772
457.22,25.14425,94.67692,2.97687,0.79728
457.72,25.1587,94.55014,2.99493,0.79683
458.22,25.17315,94.3907,3.01867,0.79639
458.72,25.18773,94.2321,3.03854,0.79595
459.22,25.20239,94.0758,3.05845,0.79551
459.72,25.21698,93.8708,3.07604,0.79507
460.22,25.2315,93.70259,3.09323,0.79462
460.72,25.246,93.50686,3.11089,0.79418
461.22,25.26056,93.27016,3.13028,0.79374
461.72,25.275,93.1086,3.14915,0.7933
462.22,25.28952,92.90734,3.17063,0.79286
462.72,25.30401,92.69461,3.19074,0.79242
463.22,25.31851,92.55572,3.21393,0.79198
463.72,25.33301,92.34966,3.2386,0.79154
464.22,25.3475,92.1459,3.26394,0.7911
464.72,25.36204,91.94704,3.28694,0.79066
465.22,25.37661,91.68177,3.31189,0.79022
465.72,25.39112,91.46528,3.33515,0.78978
466.22,25.40567,91.22905,3.36176,0.78934
466.72,25.42018,90.93687,3.39204,0.7889
467.22,25.43468,90.72001,3.42061,0.78846
467.72,25.4492,90.45487,3.44747,0.78802
468.22,25.46367,90.1497,3.46899,0.78758
468.72,25.47821,89.90433,3.49646,0.78714
469.22,25.4927,89.59523,3.52436,0.7867
469.72,25.50729,89.2856,3.55392,0.78627
470.22,25.5218,88.99675,3.58517,0.78583
470.72,25.53632,88.62094,3.62059,0.78539
471.22,25.55085,88.33117,3.65549,0.78495
471.72,25.56532,88.01793,3.68623,0.78451
472.22,25.57979,87.62253,3.71832,0.78408
472.72,25.5943,87.34329,3.74673,0.78364
473.22,25.6088,86.97153,3.77658,0.7832
473.72,25.62335,86.56067,3.81417,0.78276
474.22,25.63786,86.23173,3.8452,0.78233
474.72,25.6524,85.83192,3.87728,0.78189
475.22,25.667,85.40648,3.90935,0.78145
475.72,25.6815,85.0197,3.94769,0.78102
476.22,25.6961,84.49922,3.97845,0.78058
476.72,25.7106,84.03658,4.01767,0.78015
477.22,25.72511,83.57414,4.05571,0.77971
477.72,25.7396,82.99231,4.10345,0.77927
478.22,25.75415,82.56105,4.1468,0.77884
478.72,25.7686,82.0589,4.18178,0.7784
479.22,25.78311,81.4838,4.22096,0.77797
479.72,25.7976,81.04605,4.25621,0.77753
480.22,25.81212,80.46422,4.29129,0.7771
480.72,25.8266,79.8643,4.32879,0.77667
481.22,25.84111,79.3069,4.36256,0.77623
481.72,25.85558,78.62493,4.40104,0.7758
482.22,25.87004,78.02025,4.43648,0.77536
482.72,25.8845,77.40181,4.47749,0.77493
483.22,25.89892,76.6138,4.5237,0.7745
483.72,25.91341,75.99724,4.56658,0.77406
484.22,25.92782,75.28269,4.60373,0.77363
484.72,25.94229,74.44083,4.64118,0.7732
485.22,25.9568,73.8236,4.68371,0.77277
485.72,25.9712,73.04736,4.72547,0.77233
486.22,25.98573,72.30659,4.76103,0.7719
486.72,26.0002,71.39536,4.80388,0.77147
487.22,26.01476,70.3501,4.84772,0.77104
487.72,26.02925,68.99709,4.89577,0.77061
488.22,26.04375,68.13554,4.93815,0.77017
488.72,26.05828,67.44326,4.98416,0.76974
489.22,26.07285,66.50219,5.03279,0.76931
489.72,26.08738,65.428,5.08334,0.76888
490.22,26.1019,64.46529,5.12299,0.76845
490.72,26.11648,63.39196,5.17043,0.76802
491.22,26.13102,62.2735,5.21466,0.76759
491.72,26.14558,61.1687,5.25514,0.76716
492.22,26.1601,60.0509,5.30517,0.76673
492.72,26.1746,58.82215,5.34352,0.7663
493.22,26.18907,57.6225,5.37775,0.76587
493.72,26.20354,55.95242,5.41111,0.76545
494.22,26.218,54.7407,5.44306,0.76502
494.72,26.2324,53.47464,5.47503,0.76459
495.22,26.2469,52.19597,5.50937,0.76416
495.72,26.2613,50.8941,5.53979,0.76373
496.22,26.27565,49.5745,5.57155,0.7633
496.72,26.29004,48.21752,5.59205,0.76288
497.22,26.30442,46.82799,5.61729,0.76245
497.72,26.31877,45.43119,5.63038,0.76202
498.22,26.3331,44.01944,5.64304,0.7616
498.72,26.34743,42.5967,5.65005,0.76117
499.22,26.36181,41.15935,5.64929,0.76074
499.72,26.37612,39.71812,5.64317,0.76032
500.22,26.39044,38.29565,5.63241,0.75989
500.72,26.40475,36.86107,5.6084,0.75947
501.22,26.41905,35.4397,5.58232,0.75904
501.72,26.4333,34.01972,5.55267,0.75862
502.22,26.44765,32.6081,5.51331,0.75819
502.72,26.4621,31.25092,5.46762,0.75777
503.22,26.4767,29.96367,5.40757,0.75734
503.72,26.4915,28.7637,5.34508,0.75692
504.22,26.5064,27.55616,5.26946,0.75649
504.72,26.5215,26.26701,5.19899,0.75607
505.22,26.5367,24.8479,5.11954,0.75565
505.72,26.55187,23.3534,5.034,0.75522
506.22,26.56703,21.86536,4.93194,0.7548
506.72,26.582,20.45877,4.81868,0.75438
507.22,26.597,19.10838,4.69378,0.75396
507.72,26.61185,17.8142,4.56453,0.75354
508.22,26.6267,16.5931,4.41721,0.75311
508.72,26.6415,15.4029,4.26912,0.75269
509.22,26.65625,14.2819,4.11646,0.75227
509.72,26.67101,13.1563,3.95751,0.75185
510.22,26.6857,12.07362,3.79552,0.75143
510.72,26.7005,11.00949,3.62707,0.75101
511.22,26.71514,10.01559,3.46429,0.75059
511.72,26.72982,9.08381,3.29999,0.75017
512.22,26.7446,8.51731,3.12821,0.74975
512.72,26.75945,7.77895,2.95457,0.74933
513.22,26.77447,7.14245,2.77585,0.74891
513.72,26.7897,6.6298,2.59784,0.74849
514.22,26.8051,5.9902,2.41641,0.74807
514.72,26.82064,5.42706,2.23915,0.74765
515.22,26.8362,4.85682,2.06919,0.74724
515.72,26.85186,4.22418,1.90522,0.74682
516.22,26.8675,3.7923,1.75171,0.7464
516.72,26.88311,3.30467,1.60593,0.74598
517.22,26.89878,2.88728,1.46997,0.74557
517.72,26.91449,2.52706,1.34984,0.74515
518.22,26.9302,2.13927,1.24126,0.74473
518.72,26.9459,1.8802,1.13772,0.74432
519.22,26.9617,1.60464,1.04737,0.7439
519.72,26.97748,1.36058,0.96624,0.74349
520.22,26.9932,1.15965,0.89672,0.74307
520.72,27.00897,0.93668,0.82852,0.74266
521.22,27.0247,0.79931,0.77023,0.74224
521.72,27.04042,0.67502,0.71956,0.74183
522.22,27.0561,0.57489,0.67178,0.74141
522.72,27.0717,0.49607,0.62514,0.741
523.22,27.08717,0.40554,0.58466,0.74058
523.72,27.1026,0.34664,0.54572,0.74017
524.22,27.11805,0.27715,0.50984,0.73976
524.72,27.13352,0.22205,0.4745,0.73934
525.22,27.14896,0.18564,0.44327,0.73893
525.72,27.1644,0.13441,0.41291,0.73852
526.22,27.1799,0.10063,0.38101,0.73811
526.72,27.1954,0.10288,0.35617,0.7377
527.22,27.21077,0.08537967,0.33318,0.73729
527.72,27.22612,0.10305,0.30736,0.73687
528.22,27.24137,0.10678,0.2876,0.73646
528.72,27.2567,0.10006,0.26816,0.73605
529.22,27.272,0.08849497,0.253,0.73564
529.72,27.2872,0.06730751,0.23786,0.73523
530.22,27.30247,0.06822956,0.22465,0.73482
530.72,27.3177,0.0415031,0.21635,0.73441
531.22,27.3329,0.03782083,0.20369,0.73401
531.72,27.34814,0.03263672,0.19524,0.7336
532.22,27.36335,0.00564261,0.18774,0.73319
532.72,27.37857,0.007880638,0.18243,0.73278
533.22,27.39381,0.006949279,0.17649,0.73237
533.72,27.409,0.02057305,0.17205,0.73196
534.22,27.42425,0.0382549,0.16901,0.73156
534.72,27.43947,0.03708008,0.16546,0.73115
535.22,27.4547,0.03708687,0.1618,0.73074
535.72,27.46991,0.03710865,0.1618,0.73034
536.22,27.48514,0.03711939,0.15788,0.72993
536.72,27.5004,0.03711928,0.15807,0.72953
537.22,27.51567,0.03520481,0.15474,0.72912
537.72,27.53091,0.0068027,0.15277,0.72872
538.22,27.5462,0.008231907,0.14772,0.72831
538.72,27.5614,0.00784747,0.14246,0.72791
539.22,27.5767,0.004998423,0.14425,0.7275
539.72,27.59188,-0.02298871,0.1417,0.7271
540.22,27.60707,-0.02099457,0.13742,0.7267
540.72,27.6223,-0.02129515,0.13444,0.72629
541.22,27.6376,-0.02133431,0.13423,0.72589
541.72,27.65288,-0.02131855,0.12663,0.72549
542.22,27.6682,-0.02139313,0.12431,0.72508
542.72,27.68344,-0.02211533,0.12286,0.72468
543.22,27.6988,-0.009102012,0.11986,0.72428
543.72,27.71408,0.008939648,0.11713,0.72388
544.22,27.7294,0.007743408,0.11452,0.72348
544.72,27.74462,0.00775607,0.11263,0.72308
545.22,27.75992,0.00777782,0.11098,0.72268
545.72,27.77522,0.00777819,0.10821,0.72228
546.22,27.7905,0.00777782,0.10395,0.72188
546.72,27.8058,0.00777476,0.10275,0.72148
547.22,27.821,0.007770064,0.10078,0.72108
547.72,27.83633,0.007932672,0.09981786,0.72068
548.22,27.85153,0.008414455,0.09896935,0.72028
548.72,27.86678,-0.00699801,0.09717508,0.71988
549.22,27.88208,-0.02168295,0.0936889,0.71949
549.72,27.89743,-0.02149558,0.0935913,0.71909
550.22,27.91283,-0.02106776,0.09321641,0.71869
550.72,27.92817,0.004841209,0.09615147,0.7183
551.22,27.9437,0.007972701,0.09071338,0.7179
551.72,27.95905,0.03581345,0.09227075,0.7175
552.22,27.9744,0.03833377,0.09357949,0.71711
552.72,27.98971,0.01570694,0.0938353,0.71671
553.22,28.00504,0.005108791,0.09595573,0.71632
553.72,28.0204,-0.00274716,0.09550934,0.71592
554.22,28.0357,-0.02555464,0.09612734,0.71553
554.72,28.05105,-0.0238715,0.09378857,0.71513
555.22,28.0664,-0.02344536,0.09527831,0.71474
555.72,28.0818,-0.02220639,0.0946397,0.71435
556.22,28.0972,0.002590101,0.09400399,0.71395
556.72,28.1126,0.00504091,0.09394962,0.71356
557.22,28.12793,0.00538181,0.09914472,0.71317
557.72,28.14325,0.005532025,0.09928527,0.71278
558.22,28.1586,0.004636112,0.10229,0.71238
558.72,28.17401,0.02766518,0.10131,0.71199
559.22,28.1893,0.03404882,0.10135,0.7116
559.72,28.2047,0.06231402,0.103,0.71121
560.22,28.22,0.06377954,0.1028,0.71082
560.72,28.2353,0.06393775,0.10418,0.71043
561.22,28.25054,0.06398255,0.10387,0.71004
561.72,28.266,0.07623094,0.10636,0.70965
562.22,28.28136,0.07834792,0.10826,0.70926
562.72,28.29675,0.07847223,0.11081,0.70887
563.22,28.3122,0.07844749,0.10794,0.70848
563.72,28.32773,0.07844507,0.11019,0.7081
564.22,28.34323,0.07844933,0.10963,0.70771
564.72,28.3586,0.07842847,0.1133,0.70732
565.22,28.37394,0.07816926,0.11427,0.70693
565.72,28.3894,0.07888802,0.11298,0.70655
566.22,28.40475,0.03701739,0.11673,0.70616
566.72,28.42019,0.02008995,0.11484,0.70578
567.22,28.4356,0.01979462,0.11447,0.70539
567.72,28.45103,0.01998688,0.11864,0.70501
568.22,28.4665,0.01999859,0.11744,0.70462
568.72,28.4819,0.01999562,0.12102,0.70424
569.22,28.4972,0.01999532,0.11814,0.70385
569.72,28.5126,0.01999537,0.12081,0.70347
570.22,28.52798,0.01999537,0.11833,0.70308
570.72,28.5434,0.01999537,0.11899,0.7027
571.22,28.5588,0.01999537,0.11771,0.70232
571.72,28.5742,0.01999537,0.12076,0.70194
572.22,28.58969,0.01999537,0.11955,0.70155
572.72,28.6051,0.01999537,0.12236,0.70117
573.22,28.62058,0.01999537,0.12287,0.70079
573.72,28.636,0.01999537,0.11868,0.70041
574.22,28.65142,0.01999537,0.12285,0.70003
574.72,28.66692,0.01999537,0.1261,0.69965
575.22,28.68239,0.01999537,0.12578,0.69927
575.72,28.6979,0.01999537,0.12518,0.69889
576.22,28.7133,0.01999538,0.12646,0.69851
576.72,28.72878,0.01999534,0.12533,0.69813
577.22,28.74424,0.01999467,0.12771,0.69775
577.72,28.75965,0.01999597,0.12505,0.69737
578.22,28.77512,0.02003664,0.1245,0.697
578.72,28.79056,0.02005547,0.12832,0.69662
579.22,28.806,0.04153011,0.1273,0.69624
579.72,28.8216,0.04872245,0.12682,0.69587
580.22,28.83708,0.04916458,0.12729,0.69549
580.72,28.8526,0.04882943,0.12558,0.69511
581.22,28.8681,0.05079141,0.12671,0.69474
581.72,28.8835,0.02261247,0.12907,0.69436
582.22,28.89893,0.01996475,0.13084,0.69399
582.72,28.9144,0.01999417,0.13093,0.69361
583.22,28.92993,0.01999375,0.13034,0.69324
583.72,28.9454,0.01823942,0.13286,0.69286
584.22,28.96091,-0.01008278,0.13336,0.69249
584.72,28.97645,-0.008708105,0.13288,0.69212
585.22,28.99195,-0.009084591,0.13499,0.69175
585.72,29.0074,-0.00908083,0.13332,0.69137
586.22,29.0229,-0.008781052,0.13234,0.691
586.72,29.03837,-0.01062585,0.13471,0.69063
587.22,29.0539,0.01768638,0.13687,0.69026
587.72,29.0694,0.02003217,0.13511,0.68989
588.22,29.0849,0.02073369,0.1362,0.68952
588.72,29.1004,0.01248719,0.13577,0.68915
589.22,29.11593,0.01283274,0.13491,0.68878
589.72,29.13144,0.01267248,0.13229,0.68841
590.22,29.14702,0.01266026,0.13601,0.68804
590.72,29.16258,0.01266239,0.1367,0.68767
591.22,29.17819,0.01266279,0.13666,0.6873
591.72,29.1938,0.01266389,0.13987,0.68693
592.22,29.20932,0.01266055,0.14121,0.68657
592.72,29.22493,0.01258568,0.14048,0.6862
593.22,29.2404,0.01257649,0.1389,0.68583
593.72,29.25599,0.02013755,0.14034,0.68547
594.22,29.2715,0.04252976,0.13906,0.6851
594.72,29.28705,0.04160318,0.13902,0.68473
595.22,29.3026,0.04176136,0.14012,0.68437
595.72,29.31798,0.04178454,0.1402,0.684
596.22,29.33356,0.04179064,0.13876,0.68364
596.72,29.3491,0.04176101,0.13702,0.68328
597.22,29.36467,0.04121475,0.14018,0.68291
597.72,29.38027,0.04138939,0.14107,0.68255
598.22,29.39593,0.01812251,0.13945,0.68219
598.72,29.4116,0.01987526,0.14101,0.68182
599.22,29.42724,0.02002015,0.13861,0.68146
599.72,29.44288,0.01999665,0.14115,0.6811
600.22,29.45846,0.02000314,0.14344,0.68074
600.72,29.474,0.02012614,0.14293,0.68038
601.22,29.4897,0.01327244,0.14438,0.68002
601.72,29.50528,-0.0110428,0.14221,0.67965
602.22,29.5209,-0.009182352,0.14962,0.67929
602.72,29.5365,-0.009084428,0.1436,0.67894
603.22,29.55225,-0.009110397,0.14142,0.67858
603.72,29.56793,-0.009113009,0.14233,0.67822
604.22,29.5835,-0.009110545,0.1457,0.67786
604.72,29.5991,-0.009118586,0.14774,0.6775
605.22,29.6148,-0.009272213,0.14638,0.67714
605.72,29.6304,-0.009276318,0.14792,0.67679
606.22,29.64612,0.00445273,0.1495,0.67643
606.72,29.66173,0.012005,0.15026,0.67607
607.22,29.67755,0.01464113,0.14941,0.67572
607.72,29.6932,-0.01380158,0.15255,0.67536
608.22,29.7089,-0.0167007,0.15309,0.67501
608.72,29.72455,-0.016679,0.15048,0.67465
609.22,29.7402,-0.01666822,0.15138,0.6743
609.72,29.75593,-0.01666772,0.15151,0.67394
610.22,29.7716,-0.01666718,0.15114,0.67359
610.72,29.78728,-0.01667851,0.15045,0.67323
611.22,29.80292,-0.01675943,0.15038,0.67288
611.72,29.8185,-0.0117261,0.1517,0.67253
612.22,29.83414,0.01479763,0.14883,0.67218
612.72,29.8498,0.01264305,0.15118,0.67182
613.22,29.86543,0.01254491,0.15134,0.67147
613.72,29.8811,0.01242546,0.15093,0.67112
614.22,29.89681,0.021553,0.15103,0.67077
614.72,29.9125,0.04279886,0.15052,0.67042
615.22,29.92823,0.0416763,0.15285,0.67007
615.72,29.9439,0.04172584,0.15083,0.66972
616.22,29.9596,0.04181555,0.15339,0.66937
616.72,29.97535,0.0219976,0.1525,0.66902
617.22,29.9909,0.01295602,0.15508,0.66867
617.42,29.9972,0.01312307,0.15476,0.66854