File: 01_Data/Cotton_Raw/STA/N2/10K_min/Cotton_Raw_STA_N2_10KData_210708_R3.csv
##Temp./Â°C,Time/min,Mass loss(subtr.2)/mg,DSC(subtr.2)/(mW/mg),Sensit./(uV/mW)
49.277,10.00917,-0.05298,0.02221077,0.61829
49.877,11.40417,-0.05745298,0.03660285,0.61861
50.477,11.74413,-0.05788848,0.05124259,0.61893
51.077,11.98657,-0.05780353,0.06460524,0.61925
51.677,12.1846,-0.05908086,0.07074876,0.61956
52.277,12.3599,-0.05896505,0.08342751,0.61988
52.877,12.51707,-0.06054581,0.08803707,0.62019
53.477,12.66244,-0.06084002,0.09872602,0.6205
54.077,12.7972,-0.0592668,0.10246,0.62081
54.677,12.9247,-0.05580479,0.10902,0.62112
55.277,13.04646,-0.06224997,0.11306,0.62143
55.877,13.16325,-0.06156664,0.11819,0.62173
56.477,13.2763,-0.06518556,0.12734,0.62204
57.077,13.386,-0.06318944,0.1304,0.62234
57.677,13.49289,-0.06335825,0.13679,0.62265
58.277,13.5969,-0.06320798,0.14271,0.62295
58.877,13.69759,-0.0644912,0.14332,0.62325
59.477,13.79682,-0.06451022,0.14659,0.62355
60.077,13.89497,-0.06450464,0.1541,0.62385
60.677,13.99116,-0.06494033,0.1576,0.62414
61.277,14.0852,-0.06581223,0.1606,0.62444
61.877,14.17785,-0.06719271,0.16306,0.62473
62.477,14.2691,-0.06669599,0.16813,0.62503
63.077,14.359,-0.07018969,0.17081,0.62532
63.677,14.4478,-0.06878215,0.17412,0.62561
64.277,14.53553,-0.06491224,0.17994,0.6259
64.877,14.62239,-0.06977548,0.18469,0.62619
65.477,14.7076,-0.06976986,0.18596,0.62647
66.077,14.79142,-0.07123856,0.19219,0.62676
66.677,14.8748,-0.07118941,0.19096,0.62704
67.277,14.9571,-0.07200909,0.19619,0.62733
67.877,15.0385,-0.07250939,0.19933,0.62761
68.477,15.11919,-0.07185006,0.20686,0.62789
69.077,15.20023,-0.07388163,0.20443,0.62817
69.677,15.2798,-0.07350674,0.21049,0.62845
70.277,15.35852,-0.07524962,0.21408,0.62872
70.877,15.4365,-0.07732039,0.21995,0.629
71.477,15.51394,-0.07620514,0.22127,0.62927
72.077,15.59066,-0.07624234,0.23168,0.62954
72.677,15.66676,-0.07663249,0.23154,0.62982
73.277,15.74179,-0.07667383,0.23252,0.63009
73.877,15.81606,-0.07931398,0.23582,0.63036
74.477,15.89005,-0.07788095,0.23654,0.63062
75.077,15.964,-0.07919822,0.23979,0.63089
75.677,16.03707,-0.08051005,0.24551,0.63116
76.277,16.10983,-0.07977116,0.24409,0.63142
76.877,16.182,-0.07862849,0.25112,0.63168
77.477,16.25394,-0.08480711,0.25127,0.63194
78.077,16.32554,-0.0840775,0.25399,0.6322
78.677,16.39658,-0.08441551,0.2551,0.63246
79.277,16.46707,-0.0834869,0.2623,0.63272
79.877,16.537,-0.08348002,0.26184,0.63298
80.477,16.60651,-0.08449918,0.26826,0.63323
81.077,16.67589,-0.08747198,0.26804,0.63349
81.677,16.74465,-0.08741738,0.27019,0.63374
82.277,16.81308,-0.08816506,0.27375,0.63399
82.877,16.881,-0.08946553,0.27424,0.63424
83.477,16.949,-0.08906993,0.27502,0.63449
84.077,17.0165,-0.09039373,0.28049,0.63474
84.677,17.08384,-0.09040699,0.28202,0.63498
85.277,17.15038,-0.09302343,0.28241,0.63523
85.877,17.21673,-0.09312483,0.28474,0.63547
86.477,17.28289,-0.09302709,0.28268,0.63571
87.077,17.34858,-0.09333315,0.28602,0.63596
87.677,17.4144,-0.09467024,0.28548,0.6362
88.277,17.47968,-0.09467246,0.28652,0.63643
88.877,17.54455,-0.09597754,0.28621,0.63667
89.477,17.6092,-0.09444247,0.2884,0.63691
90.077,17.67364,-0.09263045,0.28969,0.63714
90.677,17.73789,-0.10549,0.29045,0.63738
91.277,17.80169,-0.09873526,0.29307,0.63761
91.877,17.86541,-0.09839553,0.29192,0.63784
92.477,17.9286,-0.09719149,0.29258,0.63807
93.077,17.9919,-0.09986715,0.29038,0.6383
93.677,18.05479,-0.09855961,0.28924,0.63853
94.277,18.1171,-0.09861777,0.28973,0.63875
94.877,18.1793,-0.10113,0.29072,0.63898
95.477,18.24149,-0.10113,0.29232,0.6392
96.077,18.30385,-0.10244,0.28838,0.63942
96.677,18.36587,-0.10242,0.28902,0.63964
97.277,18.42734,-0.10377,0.28674,0.63986
97.877,18.48892,-0.10519,0.29025,0.64008
98.477,18.55033,-0.11093,0.29064,0.6403
99.077,18.61176,-0.10934,0.28738,0.64052
99.677,18.67286,-0.10676,0.28372,0.64073
100.277,18.73414,-0.10673,0.2821,0.64094
100.877,18.79518,-0.10815,0.28362,0.64116
101.477,18.856,-0.10486,0.2812,0.64137
102.077,18.91637,-0.10758,0.27899,0.64158
102.677,18.97627,-0.10965,0.279,0.64179
103.277,19.03639,-0.10938,0.27667,0.64199
103.877,19.09675,-0.10936,0.27428,0.6422
104.477,19.15713,-0.10936,0.2744,0.6424
105.077,19.21755,-0.11067,0.27261,0.64261
105.677,19.27736,-0.11091,0.27066,0.64281
106.277,19.3371,-0.11302,0.26932,0.64301
106.877,19.3967,-0.11298,0.26651,0.64321
107.477,19.4563,-0.11307,0.26555,0.64341
108.077,19.51596,-0.11218,0.26632,0.6436
108.677,19.57537,-0.11298,0.2632,0.6438
109.277,19.63409,-0.11298,0.26435,0.64399
109.877,19.69391,-0.113,0.26408,0.64419
110.477,19.7531,-0.1143,0.26144,0.64438
111.077,19.81265,-0.1143,0.26159,0.64457
111.677,19.87184,-0.1145,0.25862,0.64476
112.277,19.9308,-0.1143,0.25894,0.64495
112.877,19.98912,-0.11562,0.26048,0.64513
113.477,20.0476,-0.11562,0.25754,0.64532
114.077,20.10603,-0.11562,0.25265,0.6455
114.677,20.1647,-0.11563,0.25667,0.64569
115.277,20.2233,-0.11422,0.25262,0.64587
115.877,20.2816,-0.11561,0.24714,0.64605
116.477,20.33999,-0.11561,0.25303,0.64623
117.077,20.3983,-0.1162,0.24853,0.64641
117.677,20.45618,-0.11693,0.25236,0.64658
118.277,20.51456,-0.11693,0.25061,0.64676
118.877,20.57268,-0.11556,0.25231,0.64693
119.477,20.6309,-0.11693,0.24748,0.64711
120.077,20.68887,-0.11693,0.24894,0.64728
120.677,20.74669,-0.11693,0.24743,0.64745
121.277,20.80445,-0.11782,0.24542,0.64762
121.877,20.86218,-0.11915,0.24853,0.64779
122.477,20.91976,-0.11826,0.24688,0.64795
123.077,20.97719,-0.11825,0.24489,0.64812
123.677,21.03431,-0.11825,0.24548,0.64828
124.277,21.09136,-0.11824,0.24568,0.64845
124.877,21.14787,-0.11693,0.24545,0.64861
125.477,21.20512,-0.1175,0.24499,0.64877
126.077,21.26226,-0.11825,0.24383,0.64893
126.677,21.31952,-0.11855,0.24069,0.64909
127.277,21.37673,-0.11958,0.24478,0.64924
127.877,21.43358,-0.11962,0.24347,0.6494
128.477,21.49042,-0.11949,0.24106,0.64955
129.077,21.54714,-0.11956,0.24269,0.6497
129.677,21.6038,-0.12087,0.24399,0.64986
130.277,21.66028,-0.12088,0.24034,0.65001
130.877,21.71667,-0.12174,0.24215,0.65016
131.477,21.773,-0.12088,0.24461,0.6503
132.077,21.82938,-0.11956,0.24199,0.65045
132.677,21.88564,-0.12085,0.2393,0.6506
133.277,21.94189,-0.11956,0.2372,0.65074
133.877,21.9981,-0.1209,0.24275,0.65088
134.477,22.05419,-0.12088,0.24236,0.65103
135.077,22.1101,-0.12088,0.24293,0.65117
135.677,22.16605,-0.12203,0.24022,0.65131
136.277,22.22202,-0.12088,0.24036,0.65144
136.877,22.2778,-0.12088,0.24016,0.65158
137.477,22.33357,-0.12088,0.24271,0.65172
138.077,22.38926,-0.12286,0.23935,0.65185
138.677,22.4449,-0.12352,0.24302,0.65198
139.277,22.50026,-0.12219,0.24308,0.65211
139.877,22.5558,-0.12214,0.24385,0.65225
140.477,22.61135,-0.1222,0.24454,0.65237
141.077,22.66656,-0.1222,0.2457,0.6525
141.677,22.72201,-0.12452,0.24718,0.65263
142.277,22.77722,-0.12447,0.24994,0.65276
142.877,22.83238,-0.12318,0.24827,0.65288
143.477,22.88755,-0.12263,0.24629,0.653
144.077,22.94259,-0.12219,0.24642,0.65312
144.677,22.99759,-0.12241,0.24886,0.65325
145.277,23.05262,-0.12324,0.24975,0.65336
145.877,23.10763,-0.12186,0.24894,0.65348
146.477,23.16255,-0.12307,0.25112,0.6536
147.077,23.21762,-0.12219,0.25081,0.65372
147.677,23.27267,-0.12339,0.2513,0.65383
148.277,23.32745,-0.12351,0.24975,0.65394
148.877,23.38221,-0.12287,0.24925,0.65406
149.477,23.4364,-0.12363,0.25564,0.65417
150.077,23.49071,-0.1222,0.25343,0.65428
150.677,23.5453,-0.1222,0.25318,0.65438
151.277,23.59994,-0.12219,0.25515,0.65449
151.877,23.65479,-0.12405,0.25537,0.6546
152.477,23.70948,-0.12482,0.25423,0.6547
153.077,23.76415,-0.12615,0.2571,0.65481
153.677,23.8187,-0.12614,0.25489,0.65491
154.277,23.8734,-0.12492,0.25321,0.65501
154.877,23.92788,-0.12483,0.25532,0.65511
155.477,23.98237,-0.12483,0.25777,0.65521
156.077,24.03678,-0.12583,0.25816,0.6553
156.677,24.09132,-0.12582,0.2571,0.6554
157.277,24.14581,-0.12582,0.25681,0.65549
157.877,24.2001,-0.12582,0.25875,0.65559
158.477,24.25473,-0.12582,0.26256,0.65568
159.077,24.30915,-0.12582,0.26352,0.65577
159.677,24.3634,-0.1244,0.26423,0.65586
160.277,24.41785,-0.12352,0.26251,0.65595
160.877,24.47205,-0.12352,0.26327,0.65604
161.477,24.52635,-0.1247,0.26048,0.65612
162.077,24.5807,-0.12436,0.26418,0.65621
162.677,24.635,-0.12352,0.26644,0.65629
163.277,24.68931,-0.12483,0.2694,0.65638
163.877,24.7436,-0.12483,0.2686,0.65646
164.477,24.7978,-0.12483,0.26874,0.65654
165.077,24.85202,-0.12583,0.26886,0.65662
165.677,24.90633,-0.12582,0.27433,0.6567
166.277,24.96071,-0.12582,0.27662,0.65677
166.877,25.01517,-0.12618,0.27416,0.65685
167.477,25.06948,-0.12713,0.27417,0.65692
168.077,25.12355,-0.12163,0.27387,0.657
168.677,25.1778,-0.12905,0.27679,0.65707
169.277,25.23196,-0.13198,0.28312,0.65714
169.877,25.28635,-0.12738,0.27801,0.65721
170.477,25.3406,-0.12747,0.28079,0.65728
171.077,25.39474,-0.12812,0.28235,0.65734
171.677,25.44889,-0.12812,0.28023,0.65741
172.277,25.50284,-0.12895,0.28129,0.65747
172.877,25.55697,-0.12932,0.28521,0.65754
173.477,25.611,-0.1287,0.28359,0.6576
174.077,25.6651,-0.12779,0.28316,0.65766
174.677,25.71936,-0.12911,0.28272,0.65772
175.277,25.77339,-0.12911,0.28379,0.65778
175.877,25.82754,-0.13044,0.28703,0.65784
176.477,25.88166,-0.12911,0.28551,0.65789
177.077,25.93569,-0.12911,0.28843,0.65795
177.677,25.9897,-0.12911,0.29616,0.658
178.277,26.0438,-0.12909,0.29152,0.65805
178.877,26.09767,-0.12976,0.29274,0.65811
179.477,26.15159,-0.12976,0.29207,0.65816
180.077,26.20561,-0.12978,0.29473,0.65821
180.677,26.25935,-0.13109,0.29474,0.65825
181.277,26.313,-0.1324,0.29783,0.6583
181.877,26.3668,-0.1324,0.29976,0.65835
182.477,26.42056,-0.13162,0.30217,0.65839
183.077,26.47451,-0.13108,0.30103,0.65843
183.677,26.5285,-0.13108,0.30651,0.65848
184.277,26.58207,-0.1317,0.30529,0.65852
184.877,26.63573,-0.13239,0.30796,0.65856
185.477,26.68938,-0.1324,0.3155,0.6586
186.077,26.74294,-0.1324,0.31279,0.65863
186.677,26.7965,-0.13241,0.30499,0.65867
187.277,26.8501,-0.13372,0.3132,0.65871
187.877,26.90372,-0.13372,0.31407,0.65874
188.477,26.95738,-0.13372,0.31345,0.65877
189.077,27.0112,-0.13372,0.31531,0.6588
189.677,27.06472,-0.13504,0.31983,0.65883
190.277,27.11812,-0.13503,0.32071,0.65886
190.877,27.17168,-0.13503,0.32301,0.65889
191.477,27.2252,-0.13504,0.32055,0.65892
192.077,27.2786,-0.13371,0.31656,0.65895
192.677,27.3321,-0.13433,0.31644,0.65897
193.277,27.38552,-0.13503,0.31479,0.65899
193.877,27.43918,-0.13503,0.31605,0.65902
194.477,27.49268,-0.13635,0.31477,0.65904
195.077,27.54624,-0.13634,0.31398,0.65906
195.677,27.5996,-0.13734,0.3145,0.65908
196.277,27.65268,-0.13712,0.31658,0.65909
196.877,27.7059,-0.13668,0.31522,0.65911
197.477,27.7591,-0.13229,0.31774,0.65913
198.077,27.81205,-0.13729,0.32039,0.65914
198.677,27.8656,-0.14295,0.31783,0.65915
199.277,27.9193,-0.1382,0.31744,0.65917
199.877,27.97275,-0.13954,0.31921,0.65918
200.477,28.0267,-0.13803,0.31899,0.65919
201.077,28.08008,-0.137,0.323,0.6592
201.677,28.13342,-0.13701,0.32272,0.6592
202.277,28.1867,-0.13696,0.32289,0.65921
202.877,28.24002,-0.13963,0.32099,0.65921
203.477,28.29325,-0.13963,0.3199,0.65922
204.077,28.3464,-0.14073,0.32202,0.65922
204.677,28.3995,-0.14095,0.31916,0.65922
205.277,28.45262,-0.13997,0.323,0.65922
205.877,28.506,-0.14234,0.32373,0.65922
206.477,28.55955,-0.1426,0.3258,0.65922
207.077,28.61314,-0.14161,0.32631,0.65922
207.677,28.6664,-0.14179,0.32809,0.65922
208.277,28.7199,-0.1426,0.32642,0.65921
208.877,28.77307,-0.1426,0.325,0.65921
209.477,28.8262,-0.14355,0.32644,0.6592
210.077,28.87955,-0.14392,0.32494,0.65919
210.677,28.93285,-0.14389,0.3282,0.65918
211.277,28.9863,-0.14556,0.32343,0.65917
211.877,29.03994,-0.14556,0.32157,0.65916
212.477,29.09365,-0.14556,0.32344,0.65915
213.077,29.14705,-0.14761,0.32495,0.65913
213.677,29.2004,-0.14789,0.32491,0.65912
214.277,29.25385,-0.14919,0.3243,0.6591
214.877,29.3071,-0.15049,0.32399,0.65908
215.477,29.36045,-0.15048,0.32228,0.65907
216.077,29.4139,-0.14917,0.3263,0.65905
216.677,29.46717,-0.14917,0.32591,0.65903
217.277,29.5205,-0.15049,0.32264,0.659
217.877,29.574,-0.15133,0.3272,0.65898
218.477,29.6274,-0.15181,0.32336,0.65896
219.077,29.6809,-0.15213,0.32373,0.65893
219.677,29.73435,-0.15214,0.3235,0.65891
220.277,29.7876,-0.15207,0.32208,0.65888
220.877,29.84122,-0.15476,0.31712,0.65885
221.477,29.89477,-0.15477,0.31664,0.65882
222.077,29.9483,-0.15618,0.3171,0.65879
222.677,30.00165,-0.15752,0.31525,0.65876
223.277,30.05497,-0.15784,0.31068,0.65873
223.877,30.10841,-0.1591,0.31389,0.6587
224.477,30.16198,-0.16098,0.31087,0.65866
225.077,30.2157,-0.16224,0.30801,0.65863
225.677,30.26928,-0.16289,0.30608,0.65859
226.277,30.3228,-0.16431,0.30964,0.65855
226.877,30.37622,-0.16422,0.30938,0.65851
227.477,30.42945,-0.16553,0.30586,0.65847
228.077,30.483,-0.16678,0.30442,0.65843
228.677,30.5365,-0.16825,0.30704,0.65839
229.277,30.5898,-0.16958,0.3098,0.65835
229.877,30.64367,-0.17003,0.30766,0.6583
230.477,30.69718,-0.17221,0.30561,0.65826
231.077,30.7507,-0.17301,0.30984,0.65821
231.677,30.8045,-0.17361,0.31111,0.65816
232.277,30.8579,-0.17617,0.31046,0.65811
232.877,30.91139,-0.17746,0.30894,0.65807
233.477,30.96472,-0.17941,0.31269,0.65801
234.077,31.0183,-0.18165,0.30913,0.65796
234.677,31.0719,-0.18298,0.31281,0.65791
235.277,31.12551,-0.18428,0.31326,0.65786
235.877,31.17885,-0.18521,0.31576,0.6578
236.477,31.2325,-0.18844,0.31956,0.65775
237.077,31.286,-0.19112,0.31846,0.65769
237.677,31.33963,-0.1924,0.31648,0.65763
238.277,31.3936,-0.19416,0.323,0.65757
238.877,31.44707,-0.1961,0.32233,0.65751
239.477,31.5007,-0.19832,0.31896,0.65745
240.077,31.5541,-0.20092,0.32584,0.65739
240.677,31.6076,-0.20302,0.32658,0.65733
241.277,31.66122,-0.20454,0.32712,0.65726
241.877,31.71472,-0.20711,0.32906,0.6572
242.477,31.7683,-0.20953,0.33175,0.65713
243.077,31.82201,-0.2128,0.33143,0.65706
243.677,31.87565,-0.21597,0.3342,0.65699
244.277,31.92929,-0.21817,0.33714,0.65693
244.877,31.98312,-0.21953,0.3425,0.65686
245.477,32.03666,-0.22096,0.34523,0.65678
246.077,32.0903,-0.22401,0.34539,0.65671
246.677,32.1441,-0.22918,0.34843,0.65664
247.277,32.19768,-0.23144,0.35405,0.65656
247.877,32.25117,-0.23578,0.35434,0.65649
248.477,32.30477,-0.2408,0.35571,0.65641
249.077,32.3583,-0.24502,0.35863,0.65633
249.677,32.41171,-0.24505,0.36566,0.65626
250.277,32.46557,-0.24808,0.37402,0.65618
250.877,32.51916,-0.25195,0.37472,0.6561
251.477,32.57301,-0.25538,0.37995,0.65602
252.077,32.6268,-0.25948,0.38338,0.65593
252.677,32.68043,-0.2625,0.39003,0.65585
253.277,32.73403,-0.26632,0.39784,0.65577
253.877,32.7875,-0.27108,0.3996,0.65568
254.477,32.8411,-0.275,0.40219,0.65559
255.077,32.8947,-0.27838,0.40632,0.65551
255.677,32.9485,-0.2826,0.40468,0.65542
256.277,33.00227,-0.28678,0.40502,0.65533
256.877,33.05583,-0.28948,0.40315,0.65524
257.477,33.10938,-0.29508,0.40323,0.65515
258.077,33.16279,-0.29722,0.39973,0.65505
258.677,33.21624,-0.30377,0.39883,0.65496
259.277,33.26996,-0.30855,0.39242,0.65487
259.877,33.3235,-0.31064,0.38789,0.65477
260.477,33.3771,-0.31512,0.38459,0.65468
261.077,33.4308,-0.32059,0.38241,0.65458
261.677,33.4844,-0.32548,0.37794,0.65448
262.277,33.5382,-0.33072,0.37207,0.65438
262.877,33.5921,-0.33502,0.37099,0.65428
263.477,33.6457,-0.33827,0.36744,0.65418
264.077,33.69921,-0.34387,0.36685,0.65408
264.677,33.7528,-0.35014,0.36388,0.65397
265.277,33.80652,-0.35884,0.36108,0.65387
265.877,33.8604,-0.36206,0.36141,0.65377
266.477,33.91417,-0.36661,0.35947,0.65366
267.077,33.96775,-0.37189,0.35823,0.65355
267.677,34.02094,-0.3763,0.36105,0.65345
268.277,34.07452,-0.38241,0.35943,0.65334
268.877,34.12842,-0.38645,0.36044,0.65323
269.477,34.18231,-0.39326,0.36084,0.65312
270.077,34.23649,-0.39896,0.36155,0.653
270.677,34.29048,-0.40743,0.3617,0.65289
271.277,34.3442,-0.41152,0.36346,0.65278
271.877,34.39797,-0.41677,0.36528,0.65266
272.477,34.4519,-0.42344,0.36636,0.65255
273.077,34.50567,-0.42776,0.36676,0.65243
273.677,34.5595,-0.43615,0.3623,0.65232
274.277,34.61332,-0.44194,0.36571,0.6522
274.877,34.66698,-0.44966,0.36638,0.65208
275.477,34.72067,-0.45556,0.36951,0.65196
276.077,34.77449,-0.46203,0.36895,0.65184
276.677,34.8285,-0.46984,0.37107,0.65172
277.277,34.8824,-0.47673,0.37058,0.65159
277.877,34.93631,-0.48685,0.37373,0.65147
278.477,34.99,-0.49192,0.37296,0.65135
279.077,35.04356,-0.49815,0.3754,0.65122
279.677,35.0974,-0.50671,0.37524,0.65109
280.277,35.15137,-0.51399,0.38193,0.65097
280.877,35.20534,-0.52182,0.38333,0.65084
281.477,35.25932,-0.53113,0.38159,0.65071
282.077,35.31335,-0.53699,0.38452,0.65058
282.677,35.3673,-0.5442,0.38374,0.65045
283.277,35.42143,-0.55569,0.39109,0.65032
283.877,35.47538,-0.57201,0.38773,0.65018
284.477,35.5293,-0.56361,0.38994,0.65005
285.077,35.58297,-0.57978,0.39079,0.64992
285.677,35.63649,-0.58997,0.39322,0.64978
286.277,35.69039,-0.59718,0.39952,0.64964
286.877,35.74447,-0.60774,0.39824,0.64951
287.477,35.7988,-0.61737,0.40504,0.64937
288.077,35.85324,-0.62774,0.40448,0.64923
288.677,35.9073,-0.63732,0.40875,0.64909
289.277,35.96125,-0.6456,0.4094,0.64895
289.877,36.01528,-0.65591,0.41088,0.64881
290.477,36.06924,-0.66714,0.4143,0.64867
291.077,36.12334,-0.6777,0.41512,0.64852
291.677,36.17738,-0.68836,0.4184,0.64838
292.277,36.23121,-0.69886,0.42197,0.64823
292.877,36.2853,-0.7106,0.42229,0.64809
293.477,36.3393,-0.72265,0.42537,0.64794
294.077,36.39346,-0.73456,0.42805,0.64779
294.677,36.4478,-0.74489,0.42984,0.64765
295.277,36.5019,-0.75718,0.432,0.6475
295.877,36.55616,-0.76931,0.43286,0.64735
296.477,36.61022,-0.78232,0.43891,0.64719
297.077,36.6643,-0.79739,0.44332,0.64704
297.677,36.7185,-0.81276,0.44117,0.64689
298.277,36.77281,-0.80725,0.44555,0.64674
298.877,36.82694,-0.83012,0.44715,0.64658
299.477,36.88098,-0.84439,0.45106,0.64643
300.077,36.93505,-0.85407,0.45412,0.64627
300.677,36.98897,-0.8714,0.45608,0.64611
301.277,37.04326,-0.88463,0.4608,0.64596
301.877,37.0975,-0.89754,0.46171,0.6458
302.477,37.15173,-0.91212,0.4635,0.64564
303.077,37.20597,-0.9271,0.46497,0.64548
303.677,37.2601,-0.94293,0.47113,0.64532
304.277,37.31428,-0.95607,0.47204,0.64516
304.877,37.36846,-0.9704,0.47304,0.64499
305.477,37.42282,-0.9864,0.4774,0.64483
306.077,37.4771,-1.00335,0.48255,0.64467
306.677,37.53152,-1.01851,0.48398,0.6445
307.277,37.58575,-1.03451,0.4848,0.64433
307.877,37.63991,-1.04817,0.48775,0.64417
308.477,37.69425,-1.06671,0.48923,0.644
309.077,37.7485,-1.08373,0.49175,0.64383
309.677,37.80292,-1.09848,0.49476,0.64366
310.277,37.85729,-1.11713,0.49699,0.64349
310.877,37.91149,-1.13498,0.4988,0.64332
311.477,37.96582,-1.15314,0.50437,0.64315
312.077,38.02009,-1.17012,0.50948,0.64298
312.677,38.07441,-1.18934,0.51091,0.6428
313.277,38.12876,-1.20741,0.51166,0.64263
313.877,38.18314,-1.22544,0.5173,0.64246
314.477,38.2376,-1.24476,0.51715,0.64228
315.077,38.29198,-1.2641,0.52323,0.6421
315.677,38.34629,-1.28449,0.52321,0.64193
316.277,38.40056,-1.30466,0.52898,0.64175
316.877,38.45479,-1.32389,0.53384,0.64157
317.477,38.50904,-1.34734,0.53438,0.64139
318.077,38.5629,-1.36851,0.54107,0.64121
318.677,38.61703,-1.3916,0.54306,0.64103
319.277,38.67135,-1.41504,0.54894,0.64085
319.877,38.72573,-1.4368,0.54974,0.64067
320.477,38.7806,-1.46029,0.55532,0.64048
321.077,38.8351,-1.48343,0.56134,0.6403
321.677,38.88958,-1.5074,0.56737,0.64011
322.277,38.94407,-1.53364,0.56629,0.63993
322.877,38.99868,-1.55976,0.56915,0.63974
323.477,39.05339,-1.58757,0.57479,0.63956
324.077,39.1081,-1.61754,0.58055,0.63937
324.677,39.1627,-1.64163,0.59008,0.63918
325.277,39.2174,-1.67208,0.59337,0.63899
325.877,39.27187,-1.70194,0.59893,0.6388
326.477,39.32642,-1.73143,0.60197,0.63861
327.077,39.381,-1.76418,0.60362,0.63842
327.677,39.43551,-1.79774,0.60572,0.63823
328.277,39.49021,-1.83076,0.60946,0.63803
328.877,39.54504,-1.86536,0.60978,0.63784
329.477,39.59977,-1.90142,0.60491,0.63765
330.077,39.65447,-1.93786,0.60226,0.63745
330.677,39.7091,-1.97422,0.59622,0.63725
331.277,39.7637,-2.01149,0.5872,0.63706
331.877,39.81821,-2.04912,0.57851,0.63686
332.477,39.87281,-2.08798,0.56439,0.63666
333.077,39.9272,-2.123,0.54221,0.63646
333.677,39.98205,-2.16037,0.52046,0.63626
334.277,40.03692,-2.19531,0.50112,0.63606
334.877,40.092,-2.2298,0.4799,0.63586
335.477,40.14713,-2.26458,0.45794,0.63566
336.077,40.20218,-2.29332,0.43834,0.63546
336.677,40.257,-2.32393,0.41776,0.63526
337.277,40.31198,-2.35241,0.40298,0.63505
337.877,40.367,-2.3735,0.38077,0.63485
338.477,40.42198,-2.39666,0.36275,0.63464
339.077,40.47704,-2.41793,0.34416,0.63444
339.677,40.53179,-2.43724,0.3253,0.63423
340.277,40.5867,-2.45635,0.30953,0.63402
340.877,40.6419,-2.47091,0.29382,0.63382
341.477,40.6971,-2.48786,0.27925,0.63361
342.077,40.75223,-2.50141,0.26081,0.6334
342.677,40.80743,-2.51368,0.25168,0.63319
343.277,40.86254,-2.52587,0.2356,0.63298
343.877,40.91753,-2.53373,0.22182,0.63277
344.477,40.9728,-2.54409,0.21234,0.63256
345.077,41.02783,-2.55218,0.20308,0.63234
345.677,41.08303,-2.57405,0.19713,0.63213
346.277,41.1382,-2.55772,0.18527,0.63192
346.877,41.1933,-2.56766,0.17739,0.6317
347.477,41.24838,-2.57837,0.16837,0.63149
348.077,41.30348,-2.58455,0.1623,0.63127
348.677,41.35882,-2.59021,0.15837,0.63105
349.277,41.41401,-2.59538,0.15319,0.63084
349.877,41.4693,-2.60045,0.15216,0.63062
350.477,41.5244,-2.6033,0.14493,0.6304
351.077,41.5795,-2.60871,0.14181,0.63018
351.677,41.63478,-2.60987,0.13913,0.62996
352.277,41.69,-2.61233,0.13645,0.62974
352.877,41.74528,-2.61658,0.1325,0.62952
353.477,41.8003,-2.62002,0.13249,0.6293
354.077,41.85555,-2.62316,0.12557,0.62908
354.677,41.911,-2.62762,0.12635,0.62886
355.277,41.9664,-2.63221,0.12736,0.62863
355.877,42.02182,-2.63607,0.12439,0.62841
356.477,42.07715,-2.63844,0.12264,0.62818
357.077,42.13247,-2.64072,0.11731,0.62796
357.677,42.18784,-2.64478,0.11746,0.62773
358.277,42.24303,-2.64771,0.11587,0.62751
358.877,42.2984,-2.64854,0.11217,0.62728
359.477,42.3538,-2.65173,0.1134,0.62705
360.077,42.40902,-2.65452,0.11163,0.62682
360.677,42.4646,-2.65745,0.11187,0.62659
361.277,42.52004,-2.65879,0.10964,0.62636
361.877,42.57524,-2.6622,0.11087,0.62613
362.477,42.63084,-2.66548,0.10869,0.6259
363.077,42.686,-2.6672,0.10713,0.62567
363.677,42.74118,-2.67136,0.10497,0.62544
364.277,42.7968,-2.67301,0.10604,0.62521
364.877,42.8523,-2.67694,0.10455,0.62497
365.477,42.90814,-2.6801,0.1034,0.62474
366.077,42.9638,-2.68314,0.10397,0.62451
366.677,43.01925,-2.68447,0.10328,0.62427
367.277,43.0748,-2.6883,0.1023,0.62403
367.877,43.1304,-2.68973,0.1065,0.6238
368.477,43.18585,-2.69251,0.10386,0.62356
369.077,43.24142,-2.69433,0.10006,0.62332
369.677,43.2969,-2.69944,0.10328,0.62309
370.277,43.3523,-2.70213,0.09875957,0.62285
370.877,43.40786,-2.70406,0.09628661,0.62261
371.477,43.46348,-2.70804,0.10149,0.62237
372.077,43.51907,-2.71045,0.09596254,0.62213
372.677,43.57489,-2.71355,0.1009,0.62189
373.277,43.6306,-2.71442,0.10244,0.62165
373.877,43.68636,-2.71671,0.09911518,0.62141
374.477,43.7416,-2.71756,0.0967922,0.62116
375.077,43.79718,-2.72216,0.09813686,0.62092
375.677,43.8527,-2.7252,0.09718924,0.62068
376.277,43.90838,-2.72588,0.09958496,0.62043
376.877,43.96415,-2.72963,0.09929337,0.62019
377.477,44.0197,-2.73341,0.09973851,0.61995
378.077,44.07544,-2.73501,0.09878544,0.6197
378.677,44.13078,-2.73813,0.09534096,0.61945
379.277,44.18658,-2.74087,0.09815396,0.61921
379.877,44.24232,-2.74285,0.09486171,0.61896
380.477,44.29772,-2.74572,0.09545643,0.61871
381.077,44.35387,-2.74844,0.09166261,0.61846
381.677,44.40961,-2.75042,0.09443802,0.61822
382.277,44.46547,-2.75458,0.09301679,0.61797
382.877,44.52128,-2.7576,0.09540248,0.61772
383.477,44.5772,-2.75993,0.09611037,0.61747
384.077,44.633,-2.76189,0.09547702,0.61722
384.677,44.68872,-2.76532,0.09614368,0.61696
385.277,44.74459,-2.76586,0.09444661,0.61671
385.877,44.80045,-2.76835,0.09128743,0.61646
386.477,44.85634,-2.77096,0.09168887,0.61621
387.077,44.91217,-2.77386,0.09381709,0.61595
387.677,44.9681,-2.77791,0.0922082,0.6157
388.277,45.02383,-2.77913,0.09324201,0.61545
388.877,45.07976,-2.77948,0.09124953,0.61519
389.477,45.13584,-2.78253,0.09028306,0.61494
390.077,45.19178,-2.78721,0.08924917,0.61468
390.677,45.2479,-2.78839,0.08883778,0.61443
391.277,45.30375,-2.79143,0.08787926,0.61417
391.877,45.3598,-2.79365,0.08802209,0.61391
392.477,45.41576,-2.79572,0.08578089,0.61365
393.077,45.47185,-2.79829,0.08759706,0.6134
393.677,45.52789,-2.80141,0.08638231,0.61314
394.277,45.58401,-2.80494,0.0822399,0.61288
394.877,45.64001,-2.80622,0.07989376,0.61262
395.477,45.6961,-2.80805,0.08411468,0.61236
396.077,45.75235,-2.80988,0.08397701,0.6121
396.677,45.8083,-2.81408,0.0855315,0.61184
397.277,45.86452,-2.81596,0.08200305,0.61158
397.877,45.92067,-2.81736,0.07971899,0.61131
398.477,45.97687,-2.82068,0.077491,0.61105
399.077,46.03307,-2.82282,0.07842964,0.61079
399.677,46.0893,-2.82574,0.07589372,0.61053
400.277,46.1456,-2.82855,0.0734872,0.61026
400.877,46.2018,-2.82916,0.07660793,0.61
401.477,46.25817,-2.83224,0.07573995,0.60973
402.077,46.3143,-2.8354,0.07266952,0.60947
402.677,46.3706,-2.83791,0.07124812,0.6092
403.277,46.42695,-2.84086,0.07542915,0.60894
403.877,46.4832,-2.84215,0.07593154,0.60867
404.477,46.53987,-2.84481,0.07090372,0.6084
405.077,46.5963,-2.84605,0.07182353,0.60814
405.677,46.65276,-2.84763,0.06940203,0.60787
406.277,46.70915,-2.85031,0.07188882,0.6076
406.877,46.76555,-2.85314,0.06786965,0.60733
407.477,46.8221,-2.85687,0.06828207,0.60707
408.077,46.87855,-2.85859,0.06703062,0.6068
408.677,46.935,-2.85926,0.06272152,0.60653
409.277,46.99138,-2.86065,0.06143843,0.60626
409.877,47.0478,-2.86422,0.063142,0.60599
410.477,47.10427,-2.86733,0.06286028,0.60571
411.077,47.16083,-2.87054,0.06340983,0.60544
411.677,47.21731,-2.87149,0.06049089,0.60517
412.277,47.27387,-2.87187,0.06040776,0.6049
412.877,47.33035,-2.8752,0.06224549,0.60463
413.477,47.38697,-2.87668,0.06113416,0.60435
414.077,47.44337,-2.87937,0.05792956,0.60408
414.677,47.49991,-2.88109,0.05736129,0.60381
415.277,47.5563,-2.88322,0.05622259,0.60353
415.877,47.6128,-2.88621,0.05750147,0.60326
416.477,47.66935,-2.88805,0.05442786,0.60298
417.077,47.726,-2.88871,0.05549449,0.60271
417.677,47.78265,-2.89189,0.0579727,0.60243
418.277,47.83919,-2.8933,0.05226527,0.60216
418.877,47.89549,-2.89508,0.05474729,0.60188
419.477,47.95194,-2.89721,0.05204348,0.60161
420.077,48.00847,-2.89869,0.05189735,0.60133
420.677,48.0651,-2.90112,0.05176456,0.60105
421.277,48.122,-2.90532,0.05132539,0.60077
421.877,48.17861,-2.90649,0.04832441,0.6005
422.477,48.23545,-2.90538,0.04924576,0.60022
423.077,48.29221,-2.9084,0.04513251,0.59994
423.677,48.34896,-2.91195,0.04648599,0.59966
424.277,48.40555,-2.91338,0.04675422,0.59938
424.877,48.46199,-2.91387,0.04870265,0.5991
425.477,48.51863,-2.91643,0.04915285,0.59882
426.077,48.57544,-2.92564,0.04781715,0.59854
426.677,48.63219,-2.91244,0.04374843,0.59826
427.277,48.68906,-2.9205,0.04051359,0.59798
427.877,48.74562,-2.92292,0.04233163,0.5977
428.477,48.80216,-2.92303,0.04229469,0.59741
429.077,48.85892,-2.926,0.04442787,0.59713
429.677,48.91557,-2.92874,0.03930328,0.59685
430.277,48.9724,-2.9306,0.04064949,0.59657
430.877,49.02933,-2.93324,0.03875023,0.59628
431.477,49.0862,-2.93679,0.03604541,0.596
432.077,49.14326,-2.93803,0.03500503,0.59571
432.677,49.20005,-2.93806,0.033093,0.59543
433.277,49.25685,-2.93937,0.03227386,0.59515
433.877,49.3137,-2.94192,0.03303953,0.59486
434.477,49.37065,-2.94491,0.03222402,0.59458
435.077,49.4275,-2.94486,0.02624168,0.59429
435.677,49.48449,-2.9484,0.02989551,0.59401
436.277,49.54137,-2.95245,0.02880007,0.59372
436.877,49.59836,-2.94215,0.02574667,0.59343
437.477,49.6552,-2.94845,0.02252881,0.59315
438.077,49.71203,-2.95313,0.02936122,0.59286
438.677,49.76879,-2.95612,0.02326839,0.59257
439.277,49.8257,-2.95872,0.02276576,0.59228
439.877,49.8827,-2.95893,0.02553258,0.592
440.477,49.93976,-2.96021,0.02431925,0.59171
441.077,49.997,-2.96145,0.02376783,0.59142
441.677,50.0542,-2.9656,0.02143242,0.59113
442.277,50.11119,-2.97513,0.02463531,0.59084
442.877,50.16812,-2.95898,0.02356613,0.59055
443.477,50.22498,-2.96644,0.02301497,0.59026
444.077,50.2819,-2.96907,0.01982509,0.58997
444.677,50.3388,-2.97147,0.02292382,0.58968
445.277,50.39574,-2.97474,0.0220133,0.58939
445.877,50.45278,-2.977,0.01562768,0.5891
446.477,50.50955,-2.97669,0.01655831,0.58881
447.077,50.56657,-2.98121,0.01753742,0.58852
447.677,50.62365,-2.98002,0.02148842,0.58823
448.277,50.68072,-2.98286,0.01923703,0.58794
448.877,50.7381,-2.98413,0.01639467,0.58765
449.477,50.7953,-2.98542,0.0170291,0.58735
450.077,50.85265,-2.98565,0.02056019,0.58706
450.677,50.9099,-2.98698,0.01952093,0.58677
451.277,50.9673,-2.9896,0.01836287,0.58648
451.877,51.02453,-2.99051,0.01934596,0.58618
452.477,51.0818,-2.99191,0.01442373,0.58589
453.077,51.13905,-2.99267,0.02048797,0.5856
453.677,51.19623,-2.99567,0.01498879,0.5853
454.277,51.25363,-2.99825,0.01401641,0.58501
454.877,51.311,-2.99962,0.01572039,0.58471
455.477,51.36851,-3.00219,0.01368067,0.58442
456.077,51.42605,-3.01061,0.01335365,0.58412
456.677,51.48361,-2.99377,0.01251484,0.58383
457.277,51.5411,-2.99869,0.01370872,0.58353
457.877,51.5987,-3.00234,0.0140998,0.58324
458.477,51.6562,-3.00638,0.01152343,0.58294
459.077,51.71378,-3.00835,0.01151195,0.58265
459.677,51.77135,-3.01112,0.01088127,0.58235
460.277,51.82865,-3.01155,0.01275186,0.58206
460.877,51.88615,-3.01296,0.01090234,0.58176
461.477,51.94363,-3.01255,0.01309523,0.58146
462.077,52.0011,-3.01197,0.01110407,0.58116
462.677,52.05855,-3.01331,0.01160423,0.58087
463.277,52.11592,-3.01619,0.0118009,0.58057
463.877,52.1734,-3.01802,0.01431073,0.58027
464.477,52.23087,-3.01938,0.01541908,0.57998
465.077,52.28829,-3.0224,0.01290449,0.57968
465.677,52.34582,-3.02244,0.01453798,0.57938
466.277,52.40323,-3.02373,0.01199885,0.57908
466.877,52.46079,-3.02374,0.0118228,0.57878
467.477,52.5182,-3.02504,0.01451496,0.57848
468.077,52.5755,-3.026,0.01156039,0.57818
468.677,52.633,-3.02973,0.01228404,0.57789
469.277,52.6906,-3.02842,0.00950556,0.57759
469.877,52.74831,-3.02859,0.01306888,0.57729
470.477,52.8059,-3.02998,0.01127601,0.57699
471.077,52.86345,-3.0314,0.00854618,0.57669
471.677,52.921,-3.03153,0.009578968,0.57639
472.277,52.97863,-3.0328,0.01227972,0.57609
472.877,53.0361,-3.03414,0.00448486,0.57579
473.477,53.09389,-3.03547,0.005216837,0.57549
474.077,53.1516,-3.03646,0.00906918,0.57519
474.677,53.20952,-3.03778,0.009313626,0.57489
475.277,53.267,-3.04059,0.01430155,0.57458
475.877,53.3247,-3.04194,0.01226816,0.57428
476.477,53.38202,-3.04116,0.01273856,0.57398
477.077,53.4396,-3.04249,0.007967728,0.57368
477.677,53.49748,-3.04348,0.005266165,0.57338
478.277,53.55519,-3.04422,0.01103667,0.57308
478.877,53.6135,-3.04336,0.00808863,0.57278
479.477,53.67126,-3.04449,0.0068628,0.57247
480.077,53.72903,-3.04631,0.00970012,0.57217
480.677,53.7868,-3.04768,0.007131679,0.57187
481.277,53.84463,-3.0489,0.008397519,0.57157
481.877,53.9025,-3.05179,0.005597055,0.57127
482.477,53.9605,-3.05301,0.00625596,0.57096
483.077,54.01837,-3.05209,0.005818664,0.57066
483.677,54.07606,-3.05168,0.009324915,0.57036
484.277,54.1337,-3.05302,0.002771744,0.57005
484.877,54.1916,-3.0554,0.01069388,0.56975
485.477,54.24954,-3.05664,0.01121402,0.56945
486.077,54.3079,-3.05805,0.009724579,0.56914
486.677,54.3662,-3.05805,0.01074345,0.56884
487.277,54.4243,-3.05932,0.01041195,0.56854
487.877,54.48255,-3.05954,0.011445,0.56823
488.477,54.54064,-3.0608,0.01038403,0.56793
489.077,54.59871,-3.06143,0.009511539,0.56763
489.677,54.6569,-3.06478,0.01207645,0.56732
490.277,54.7149,-3.06482,0.01496352,0.56702
490.877,54.77312,-3.06462,0.01454202,0.56671
491.477,54.83113,-3.06497,0.01391863,0.56641
492.077,54.88916,-3.0653,0.01212983,0.5661
492.677,54.94706,-3.06814,0.01414096,0.5658
493.277,55.00509,-3.06815,0.01000371,0.5655
493.877,55.06305,-3.06815,0.01079286,0.56519
494.477,55.12104,-3.0694,0.01247793,0.56489
495.077,55.179,-3.0688,0.01346367,0.56458
495.677,55.237,-3.06926,0.01521135,0.56428
496.277,55.29504,-3.07077,0.01469444,0.56397
496.877,55.35314,-3.07212,0.01112874,0.56367
497.477,55.41129,-3.07277,0.01148964,0.56336
498.077,55.46965,-3.07272,0.01138586,0.56306
498.677,55.5279,-3.07298,0.01752097,0.56275
499.277,55.58608,-3.07555,0.01839556,0.56244
499.877,55.6444,-3.07676,0.01579626,0.56214
500.477,55.70251,-3.07813,0.01911001,0.56183
501.077,55.76051,-3.07811,0.01500725,0.56153
501.677,55.8186,-3.07944,0.01464491,0.56122
502.277,55.87687,-3.08083,0.0150202,0.56092
502.877,55.93532,-3.0839,0.01911588,0.56061
503.477,55.99377,-3.08383,0.02022951,0.5603
504.077,56.05206,-3.08383,0.02245141,0.56
504.677,56.11035,-3.08339,0.02354427,0.55969
505.277,56.16874,-3.0825,0.02553179,0.55939
505.877,56.22727,-3.08382,0.02507372,0.55908
506.477,56.2857,-3.08515,0.02390459,0.55877
507.077,56.34406,-3.08644,0.02625017,0.55847
507.677,56.40255,-3.0865,0.0258058,0.55816
508.277,56.4609,-3.08614,0.02735388,0.55785
508.877,56.51919,-3.08613,0.0249723,0.55755
509.477,56.5776,-3.08646,0.02490826,0.55724
510.077,56.6355,-3.08786,0.02545897,0.55694
510.677,56.69392,-3.08936,0.02380009,0.55663
511.277,56.7523,-3.09214,0.02687219,0.55632
511.877,56.8109,-3.09205,0.02556556,0.55602
512.477,56.8695,-3.09205,0.03158259,0.55571
513.077,56.92816,-3.09245,0.02712321,0.5554
513.677,56.9866,-3.09353,0.02545677,0.5551
514.277,57.04532,-3.0959,0.03403705,0.55479
514.877,57.1039,-3.09737,0.03083473,0.55448
515.477,57.1624,-3.09598,0.02604264,0.55418
516.077,57.22096,-3.09469,0.03199374,0.55387
516.677,57.27939,-3.09537,0.03442666,0.55356
517.277,57.3379,-3.09623,0.03156677,0.55326
517.877,57.3964,-3.09782,0.03168952,0.55295
518.477,57.45505,-3.09959,0.03499896,0.55264
519.077,57.5136,-3.09896,0.0356747,0.55234
519.677,57.57216,-3.10026,0.0346558,0.55203
520.277,57.6303,-3.10159,0.03472291,0.55172
520.877,57.68871,-3.10292,0.03332654,0.55142
521.477,57.74754,-3.10034,0.03185693,0.55111
522.077,57.8063,-3.1016,0.03567346,0.5508
522.677,57.86524,-3.10293,0.03375047,0.5505
523.277,57.92391,-3.10456,0.03611855,0.55019
523.877,57.9826,-3.10445,0.02777368,0.54988
524.477,58.0414,-3.11236,0.02854718,0.54958
525.077,58.1001,-3.09783,0.033829,0.54927
525.677,58.1588,-3.10311,0.03431971,0.54896
526.277,58.21761,-3.10567,0.0345941,0.54865
526.877,58.27633,-3.10829,0.03015014,0.54835
527.477,58.335,-3.10951,0.03358211,0.54804
528.077,58.39371,-3.10829,0.03701887,0.54773
528.677,58.45253,-3.10962,0.03076111,0.54743
529.277,58.5115,-3.10962,0.03407227,0.54712
529.877,58.5705,-3.11092,0.03811177,0.54681
530.477,58.6294,-3.11092,0.0355667,0.54651
531.077,58.6882,-3.11092,0.03098988,0.5462
531.677,58.747,-3.11245,0.03180923,0.5459
532.277,58.8059,-3.11383,0.0365646,0.54559
532.877,58.86486,-3.1152,0.03900842,0.54528
533.477,58.9239,-3.11525,0.03752599,0.54498
534.077,58.9828,-3.11522,0.03744349,0.54467
534.677,59.0416,-3.11657,0.03594437,0.54436
535.277,59.1003,-3.11508,0.03189943,0.54406
535.877,59.1592,-3.11542,0.03613371,0.54375
536.477,59.21825,-3.11443,0.03358146,0.54344
537.077,59.27746,-3.11708,0.03256902,0.54314
537.677,59.3365,-3.11836,0.03284783,0.54283
538.277,59.39555,-3.11981,0.0318009,0.54253
538.877,59.4545,-3.11849,0.03676675,0.54222
539.477,59.5134,-3.11849,0.03154797,0.54191
540.077,59.5724,-3.11846,0.03012374,0.54161
540.677,59.63129,-3.12155,0.03158532,0.5413
541.277,59.6905,-3.12146,0.03122324,0.541
541.877,59.74971,-3.1208,0.03034319,0.54069
542.477,59.8088,-3.12211,0.03287059,0.54039
543.077,59.86785,-3.12266,0.03317998,0.54008
543.677,59.9266,-3.12447,0.03112163,0.53977
544.277,59.9856,-3.12357,0.03038468,0.53947
544.877,60.04465,-3.1248,0.02695525,0.53916
545.477,60.104,-3.12617,0.02631087,0.53886
546.077,60.16304,-3.12617,0.03130344,0.53855
546.677,60.2221,-3.12757,0.02764751,0.53825
547.277,60.28135,-3.12755,0.03061777,0.53794
547.877,60.3405,-3.12896,0.03095787,0.53764
548.477,60.39954,-3.12954,0.0323387,0.53733
549.077,60.45865,-3.1288,0.03706433,0.53703
549.677,60.5176,-3.12749,0.03082965,0.53672
550.277,60.57666,-3.12882,0.03367193,0.53642
550.877,60.63585,-3.13011,0.03549359,0.53611
551.477,60.695,-3.13011,0.03309477,0.53581
552.077,60.75422,-3.13148,0.03049501,0.5355
552.677,60.81355,-3.13162,0.03266536,0.5352
553.277,60.8728,-3.13286,0.03030337,0.5349
553.877,60.93195,-3.13153,0.02714336,0.53459
554.477,60.99128,-3.13345,0.02664821,0.53429
555.077,61.05059,-3.13483,0.03011974,0.53398
555.677,61.10999,-3.13484,0.02649295,0.53368
556.277,61.16956,-3.13466,0.03003078,0.53338
556.877,61.2291,-3.13636,0.02899522,0.53307
557.477,61.2885,-3.13637,0.02987494,0.53277
558.077,61.34803,-3.12949,0.02835949,0.53247
558.677,61.4074,-3.14167,0.03029538,0.53216
559.277,61.46677,-3.14071,0.0271109,0.53186
559.877,61.5262,-3.13747,0.0261462,0.53156
560.477,61.5856,-3.13758,0.02955498,0.53125
561.077,61.64501,-3.13879,0.02828173,0.53095
561.677,61.70435,-3.13772,0.03038248,0.53065
562.277,61.76376,-3.13747,0.02958433,0.53034
562.877,61.8232,-3.1383,0.0287918,0.53004
563.477,61.8826,-3.14033,0.02597546,0.52974
564.077,61.94185,-3.14033,0.03064141,0.52944
564.677,62.00116,-3.14163,0.03129749,0.52913
565.277,62.0603,-3.14398,0.02951113,0.52883
565.877,62.11965,-3.14529,0.02962956,0.52853
566.477,62.179,-3.14525,0.02881404,0.52823
567.077,62.23845,-3.14525,0.02680739,0.52793
567.677,62.29781,-3.14525,0.03106656,0.52763
568.277,62.35702,-3.14603,0.02782322,0.52732
568.877,62.4164,-3.14728,0.02953192,0.52702
569.477,62.47541,-3.14788,0.03189276,0.52672
570.077,62.53485,-3.14652,0.03277539,0.52642
570.677,62.59425,-3.14811,0.03251836,0.52612
571.277,62.654,-3.14767,0.03177938,0.52582
571.877,62.71331,-3.14751,0.03356509,0.52552
572.477,62.77244,-3.14279,0.03098751,0.52522
573.077,62.8316,-3.15448,0.02660331,0.52492
573.677,62.89065,-3.15032,0.03100946,0.52462
574.277,62.9499,-3.15403,0.0302193,0.52432
574.877,63.0093,-3.1515,0.03380887,0.52402
575.477,63.06875,-3.15391,0.03187872,0.52372
576.077,63.1284,-3.15392,0.03483017,0.52342
576.677,63.1878,-3.15392,0.03393819,0.52312
577.277,63.2474,-3.15394,0.03476749,0.52282
577.877,63.3072,-3.15623,0.0348944,0.52252
578.477,63.36688,-3.15567,0.03117338,0.52222
579.077,63.4267,-3.15603,0.03851353,0.52192
579.677,63.48646,-3.15689,0.03667425,0.52162
580.277,63.54617,-3.15559,0.04155166,0.52133
580.877,63.6059,-3.15688,0.03960033,0.52103
581.477,63.6657,-3.15751,0.04373223,0.52073
582.077,63.7254,-3.16166,0.03486318,0.52043
582.677,63.7853,-3.16263,0.04285656,0.52013
583.277,63.84499,-3.15531,0.0442722,0.51984
583.877,63.9048,-3.15925,0.04214034,0.51954
584.477,63.9645,-3.16104,0.04487981,0.51924
585.077,64.02433,-3.16246,0.04525673,0.51894
585.677,64.08408,-3.16104,0.04720726,0.51865
586.277,64.14415,-3.16367,0.04762147,0.51835
586.877,64.20403,-3.16393,0.04821625,0.51805
587.477,64.26387,-3.165,0.05331798,0.51776
588.077,64.3237,-3.16376,0.05463924,0.51746
588.677,64.38329,-3.16228,0.05529566,0.51716
589.277,64.44322,-3.16454,0.05714124,0.51687
589.877,64.50318,-3.16489,0.0553693,0.51657
590.477,64.56323,-3.16663,0.06155303,0.51628
591.077,64.62307,-3.16651,0.06059511,0.51598
591.677,64.68292,-3.16555,0.05867766,0.51569
592.277,64.74282,-3.16586,0.05412171,0.51539
592.877,64.80278,-3.16704,0.05303954,0.5151
593.477,64.86291,-3.16811,0.05399677,0.5148
594.077,64.92291,-3.1695,0.05359799,0.51451
594.677,64.98285,-3.16954,0.0516878,0.51421
595.277,65.0429,-3.17082,0.05069558,0.51392
595.877,65.10259,-3.1705,0.0486716,0.51363
596.477,65.16291,-3.17081,0.0486418,0.51333
597.077,65.22317,-3.1718,0.04576486,0.51304
597.677,65.28362,-3.1718,0.04723583,0.51275
598.277,65.34391,-3.17321,0.04713438,0.51245
598.877,65.40391,-3.17175,0.0449885,0.51216
599.477,65.4641,-3.17323,0.05141466,0.51187
600.077,65.52423,-3.17378,0.05281871,0.51157
600.677,65.58439,-3.17378,0.04774727,0.51128
601.277,65.6446,-3.17378,0.0512811,0.51099
601.877,65.70438,-3.17404,0.05179713,0.5107
602.477,65.76451,-3.1741,0.05447033,0.51041
603.077,65.8245,-3.17411,0.06111692,0.51012
603.677,65.88459,-3.17542,0.06351535,0.50982
604.277,65.94467,-3.17409,0.06257872,0.50953
604.877,66.00456,-3.17401,0.06555519,0.50924
605.477,66.06458,-3.17552,0.07102825,0.50895
606.077,66.1246,-3.17784,0.07228554,0.50866
606.677,66.18495,-3.17794,0.07377788,0.50837
607.277,66.2453,-3.17684,0.07709699,0.50808
607.877,66.3056,-3.17684,0.08122135,0.50779
608.477,66.3657,-3.17684,0.07870021,0.5075
609.077,66.42574,-3.17684,0.08132935,0.50721
609.677,66.48565,-3.17814,0.0798293,0.50692
610.277,66.5457,-3.17816,0.08554944,0.50664
610.877,66.60597,-3.17816,0.08738736,0.50635
611.477,66.66601,-3.17816,0.0830789,0.50606
612.077,66.7261,-3.1795,0.0866855,0.50577
612.677,66.78602,-3.18079,0.08462042,0.50548
613.277,66.84594,-3.18177,0.08363937,0.5052
613.877,66.90599,-3.18042,0.08560215,0.50491
614.477,66.9659,-3.18158,0.0867681,0.50462
615.077,67.02611,-3.18046,0.08677186,0.50433
615.677,67.08612,-3.18046,0.08347823,0.50405
616.277,67.1463,-3.18051,0.08880587,0.50376
616.877,67.20644,-3.17915,0.0869898,0.50347
617.477,67.26655,-3.18178,0.08887105,0.50319
618.077,67.32681,-3.18194,0.08704781,0.5029
618.677,67.38688,-3.1831,0.09123826,0.50262
619.277,67.44705,-3.18181,0.0867327,0.50233
619.877,67.50714,-3.18055,0.08581406,0.50205
620.477,67.56716,-3.18058,0.08698171,0.50176
621.077,67.62742,-3.18109,0.08813277,0.50148
621.677,67.68773,-3.18189,0.08509146,0.50119
622.277,67.74803,-3.18213,0.08462946,0.50091
622.877,67.80843,-3.18321,0.08455417,0.50063
623.477,67.86882,-3.18286,0.09071807,0.50034
624.077,67.92909,-3.1832,0.08926568,0.50006
624.677,67.98966,-3.1832,0.09058593,0.49978
625.277,68.0502,-3.18452,0.0926317,0.49949
625.877,68.11066,-3.18452,0.09252345,0.49921
626.477,68.17138,-3.18452,0.09187442,0.49893
627.077,68.23189,-3.1832,0.08696405,0.49865
627.677,68.2924,-3.1832,0.09417501,0.49836
628.277,68.35284,-3.18215,0.09178553,0.49808
628.877,68.41328,-3.18454,0.09126685,0.4978
629.477,68.47383,-3.1844,0.09035783,0.49752
630.077,68.5343,-3.1844,0.0917245,0.49724
630.677,68.5945,-3.1831,0.09041248,0.49696
631.277,68.65499,-3.183,0.09230031,0.49668
631.877,68.71553,-3.18442,0.09122137,0.4964
632.477,68.776,-3.18509,0.0878927,0.49612
633.077,68.83655,-3.18509,0.0918512,0.49584
633.677,68.8968,-3.1844,0.09384406,0.49556
634.277,68.95698,-3.18646,0.09645892,0.49528
634.877,69.01728,-3.18837,0.09853032,0.495
635.477,69.07799,-3.18837,0.10073,0.49472
636.077,69.13856,-3.18705,0.09573025,0.49445
636.677,69.19911,-3.18837,0.10342,0.49417
637.277,69.25962,-3.18574,0.10346,0.49389
637.877,69.32011,-3.1871,0.10374,0.49361
638.477,69.38075,-3.18713,0.10491,0.49334
639.077,69.44165,-3.1877,0.10361,0.49306
639.677,69.50235,-3.1877,0.10738,0.49278
640.277,69.56314,-3.18771,0.10802,0.49251
640.877,69.62386,-3.1864,0.10505,0.49223
641.477,69.6845,-3.18706,0.10343,0.49196
642.077,69.74548,-3.18836,0.1058,0.49168
642.677,69.80609,-3.18836,0.1109,0.49141
643.277,69.86672,-3.18973,0.10962,0.49113
643.877,69.92737,-3.18975,0.11023,0.49086
644.477,69.9884,-3.18967,0.113,0.49058
644.577,69.99856,-3.18967,0.11639,0.49054