File: 01_Data/HDPE/MCC/HDPE_MCC_30K_min_210921_R1.txt
Sample ID:	C:\MCC\MCC Cal\Test\HDPE_MCC_30K_min_210921_R1.txt
Sample Weight (mg):	4.8
Heating Rate (C/s):	0.5
Combustor Temp (C):	900
N2 Flow Rate (cc/min):	80
O2 Flow Rate (cc/min):	20
Calibration File:	C:\MCC\MCC Cal\Coeff1 JN10440_30_210304.txt.txt
T Correction Coefficients:	0	1.024463	0
Time Shift (s):	14
*
Time (s)	Temperature (C)	N2 flow rate (cc/min)	O2 flow rate (cc/min)	Flow Rate (cc/min)	Oxygen (%)	HRR (W/g)	Heating rate (C/s)
-0.001	108.195	79.997	19.997	100.113	19.990	-0.112	-0.012
2.000	108.202	79.998	19.995	100.113	19.991	-0.137	0.001
3.999	108.197	79.999	19.995	100.115	19.995	-0.398	0.005
6.000	108.208	79.999	19.995	100.124	19.990	-0.065	0.031
7.999	108.243	79.998	19.995	100.115	19.992	-0.200	0.024
9.999	108.204	79.998	19.995	100.117	19.989	-0.044	-0.016
11.999	108.189	79.995	19.995	100.124	19.990	-0.103	0.012
13.999	108.196	79.997	19.996	100.121	19.990	-0.079	0.029
15.999	108.147	79.996	19.996	100.115	19.991	-0.153	-0.008
17.999	108.169	79.996	19.996	100.120	19.989	-0.049	-0.007
19.999	108.137	79.997	19.995	100.114	19.991	-0.130	-0.008
22.000	108.136	79.996	19.995	100.114	19.988	0.040	-0.003
23.999	108.127	79.995	19.995	100.123	19.990	-0.067	0.004
25.999	108.146	79.996	19.995	100.141	19.984	0.263	0.032
27.999	108.128	79.996	19.995	100.152	19.988	0.014	0.004
29.999	108.192	79.996	19.997	100.149	19.985	0.258	0.013
32.000	108.202	79.997	19.995	100.158	19.981	0.521	0.043
33.999	108.248	79.996	19.995	100.188	19.979	0.632	0.032
35.999	108.330	79.998	19.995	100.211	19.976	0.816	0.044
37.999	108.376	79.996	19.995	100.193	19.978	0.676	0.033
40.000	108.431	79.996	19.996	100.202	19.975	0.857	0.044
41.999	108.592	79.996	19.996	100.217	19.974	0.920	0.070
43.999	108.658	79.996	19.995	100.222	19.972	1.057	0.046
45.999	108.824	79.996	19.995	100.234	19.968	1.346	0.072
47.999	108.961	79.996	19.995	100.250	19.968	1.369	0.067
49.999	109.176	79.996	19.995	100.236	19.968	1.360	0.109
51.999	109.385	79.995	19.997	100.232	19.968	1.360	0.121
53.999	109.588	79.996	19.995	100.227	19.967	1.427	0.119
55.999	109.821	79.998	19.994	100.226	19.967	1.410	0.138
57.999	110.050	79.996	19.997	100.227	19.970	1.182	0.124
59.999	110.253	79.998	19.996	100.202	19.971	1.121	0.099
61.999	110.495	79.997	19.996	100.197	19.967	1.383	0.117
63.999	110.708	79.999	19.996	100.225	19.972	1.061	0.122
65.999	110.970	79.997	19.997	100.250	19.972	1.100	0.133
67.999	111.259	79.998	19.994	100.265	19.964	1.581	0.153
70.000	111.513	79.995	19.994	100.273	19.960	1.846	0.154
71.999	111.825	79.997	19.995	100.300	19.957	2.029	0.168
73.999	112.181	79.996	19.995	100.301	19.957	2.026	0.161
75.999	112.520	79.998	19.996	100.310	19.951	2.472	0.165
77.999	112.920	79.998	19.995	100.312	19.950	2.492	0.179
79.999	113.302	79.998	19.996	100.305	19.951	2.428	0.178
81.999	113.715	79.999	19.995	100.308	19.947	2.695	0.194
83.999	114.111	79.998	19.996	100.308	19.953	2.295	0.187
85.999	114.576	79.996	19.996	100.313	19.948	2.644	0.230
88.000	115.041	79.997	19.997	100.323	19.951	2.451	0.244
89.999	115.499	79.997	19.995	100.321	19.950	2.525	0.242
91.999	116.004	79.995	19.996	100.314	19.948	2.614	0.266
94.000	116.501	79.996	19.995	100.318	19.950	2.483	0.280
95.999	117.043	79.997	19.994	100.323	19.948	2.664	0.260
97.999	117.622	79.997	19.995	100.311	19.945	2.822	0.285
99.999	118.152	79.996	19.995	100.318	19.944	2.919	0.263
101.999	118.733	79.998	19.996	100.318	19.948	2.631	0.276
103.999	119.313	79.996	19.996	100.322	19.948	2.647	0.308
106.000	119.882	79.999	19.996	100.317	19.947	2.679	0.312
107.999	120.481	79.997	19.997	100.332	19.943	2.960	0.310
109.999	121.109	79.997	19.995	100.343	19.943	2.949	0.330
111.999	121.695	79.998	19.994	100.347	19.943	2.974	0.315
113.999	122.346	79.996	19.996	100.348	19.941	3.078	0.293
115.999	123.040	79.996	19.995	100.349	19.942	3.055	0.334
117.999	123.738	79.995	19.994	100.351	19.941	3.086	0.343
119.999	124.412	79.996	19.995	100.349	19.940	3.141	0.323
121.999	125.152	79.996	19.996	100.350	19.941	3.122	0.336
123.999	125.880	79.996	19.995	100.349	19.942	3.011	0.352
125.999	126.643	79.996	19.995	100.345	19.938	3.317	0.376
127.999	127.365	79.996	19.994	100.349	19.940	3.152	0.364
130.000	128.143	79.997	19.994	100.350	19.941	3.088	0.415
132.000	128.924	79.998	19.994	100.350	19.941	3.071	0.432
134.000	129.685	79.997	19.993	100.352	19.943	2.974	0.396
136.000	130.501	79.997	19.996	100.352	19.943	2.997	0.394
138.000	131.292	79.999	19.994	100.354	19.944	2.919	0.395
140.000	132.054	79.997	19.994	100.356	19.948	2.644	0.379
142.000	132.891	80.000	19.995	100.355	19.942	3.004	0.427
144.000	133.688	79.999	19.995	100.351	19.940	3.171	0.427
146.000	134.531	79.998	19.995	100.348	19.941	3.129	0.413
148.000	135.395	79.997	19.995	100.349	19.945	2.826	0.436
150.000	136.214	79.996	19.996	100.360	19.941	3.116	0.419
152.000	137.088	79.998	19.996	100.361	19.941	3.079	0.434
154.000	137.994	79.997	19.997	100.350	19.940	3.151	0.417
156.000	138.798	79.999	19.995	100.350	19.938	3.266	0.427
158.000	139.662	79.999	19.995	100.351	19.940	3.135	0.411
160.000	140.558	79.999	19.996	100.355	19.940	3.157	0.452
162.000	141.478	80.000	19.995	100.352	19.940	3.148	0.452
164.000	142.383	79.999	19.996	100.347	19.939	3.255	0.483
166.000	143.257	79.999	19.994	100.347	19.941	3.071	0.429
168.000	144.178	79.999	19.996	100.346	19.940	3.169	0.460
170.000	145.081	79.997	19.996	100.345	19.942	3.034	0.448
172.000	145.999	79.996	19.997	100.350	19.944	2.882	0.457
174.000	146.924	79.996	19.996	100.349	19.943	2.954	0.462
176.000	147.835	79.996	19.997	100.350	19.947	2.738	0.443
178.000	148.773	79.997	19.995	100.348	19.944	2.933	0.458
180.000	149.685	79.995	19.997	100.346	19.945	2.816	0.461
182.000	150.618	79.996	19.996	100.346	19.947	2.696	0.444
184.000	151.554	79.997	19.996	100.349	19.944	2.881	0.461
186.000	152.530	79.998	19.996	100.347	19.944	2.930	0.477
188.000	153.481	79.999	19.996	100.349	19.947	2.687	0.498
190.000	154.410	79.997	19.996	100.349	19.948	2.663	0.448
192.000	155.337	79.998	19.995	100.346	19.945	2.819	0.494
194.000	156.279	79.997	19.995	100.349	19.945	2.851	0.471
196.000	157.263	79.997	19.996	100.350	19.948	2.661	0.503
198.000	158.188	79.997	19.996	100.350	19.949	2.580	0.467
200.000	159.174	79.995	19.996	100.352	19.946	2.803	0.500
202.000	160.123	79.996	19.994	100.352	19.945	2.816	0.481
204.000	161.093	79.995	19.994	100.351	19.946	2.763	0.493
206.000	162.018	79.995	19.998	100.352	19.946	2.761	0.458
208.000	162.971	79.996	19.997	100.351	19.946	2.752	0.465
210.000	163.964	79.996	19.997	100.347	19.948	2.636	0.502
212.000	164.947	79.997	19.996	100.344	19.949	2.557	0.496
214.000	165.939	79.996	19.996	100.345	19.950	2.483	0.480
216.000	166.893	79.999	19.996	100.346	19.948	2.641	0.484
218.000	167.948	79.999	19.996	100.338	19.950	2.535	0.540
220.000	168.871	79.999	19.995	100.328	19.952	2.365	0.511
222.000	169.843	80.000	19.994	100.328	19.949	2.597	0.489
224.000	170.846	80.000	19.995	100.329	19.948	2.627	0.504
226.000	171.829	79.999	19.995	100.340	19.950	2.516	0.503
228.000	172.836	79.998	19.994	100.323	19.950	2.507	0.513
230.000	173.807	79.997	19.996	100.319	19.949	2.599	0.504
232.000	174.790	79.997	19.995	100.335	19.950	2.532	0.493
234.000	175.789	79.998	19.995	100.329	19.948	2.618	0.487
236.000	176.763	79.998	19.995	100.330	19.952	2.363	0.453
238.000	177.719	79.998	19.996	100.325	19.951	2.478	0.501
240.000	178.756	79.999	19.996	100.315	19.951	2.474	0.520
242.000	179.727	79.999	19.996	100.315	19.953	2.309	0.494
244.000	180.675	79.999	19.995	100.327	19.953	2.344	0.486
246.000	181.691	79.999	19.996	100.317	19.949	2.602	0.500
248.000	182.676	79.999	19.995	100.330	19.952	2.370	0.523
250.000	183.656	79.999	19.995	100.332	19.951	2.458	0.484
252.000	184.622	79.996	19.995	100.325	19.952	2.361	0.494
254.000	185.651	79.996	19.997	100.311	19.953	2.293	0.519
256.000	186.677	79.996	19.997	100.321	19.953	2.314	0.513
258.000	187.694	79.997	19.996	100.315	19.954	2.235	0.543
260.000	188.682	79.997	19.997	100.312	19.953	2.332	0.508
262.000	189.684	79.996	19.997	100.314	19.953	2.344	0.473
264.000	190.647	79.995	19.995	100.317	19.950	2.532	0.483
266.000	191.634	79.997	19.996	100.313	19.954	2.273	0.506
268.000	192.635	79.998	19.996	100.321	19.951	2.447	0.498
270.000	193.626	79.996	19.997	100.315	19.952	2.405	0.475
272.000	194.623	79.997	19.996	100.317	19.956	2.092	0.482
274.000	195.631	79.997	19.997	100.308	19.953	2.330	0.537
276.000	196.605	79.997	19.996	100.308	19.954	2.277	0.512
278.000	197.573	79.996	19.995	100.308	19.952	2.410	0.486
280.000	198.568	79.998	19.994	100.307	19.956	2.117	0.499
282.000	199.578	79.996	19.996	100.309	19.954	2.265	0.514
284.000	200.594	79.998	19.996	100.308	19.955	2.217	0.510
286.000	201.566	79.997	19.995	100.308	19.958	2.015	0.483
288.000	202.615	79.997	19.995	100.308	19.957	2.071	0.514
290.000	203.591	79.997	19.996	100.309	19.955	2.210	0.483
292.000	204.547	79.997	19.995	100.310	19.954	2.256	0.506
294.000	205.553	79.997	19.995	100.310	19.956	2.138	0.484
296.000	206.571	79.999	19.994	100.309	19.957	2.084	0.469
298.000	207.590	79.999	19.995	100.307	19.959	1.904	0.525
300.000	208.603	80.000	19.995	100.307	19.960	1.841	0.508
302.000	209.588	79.999	19.995	100.307	19.955	2.194	0.495
304.000	210.593	80.000	19.995	100.311	19.958	2.010	0.513
306.000	211.541	79.999	19.995	100.311	19.958	1.982	0.481
308.000	212.599	79.999	19.995	100.308	19.955	2.212	0.504
310.000	213.612	79.998	19.994	100.310	19.959	1.920	0.515
312.000	214.611	79.997	19.994	100.310	19.956	2.089	0.493
314.000	215.619	79.999	19.996	100.311	19.956	2.121	0.505
316.000	216.607	79.999	19.995	100.308	19.957	2.059	0.477
318.000	217.635	79.999	19.994	100.311	19.956	2.089	0.517
320.000	218.622	79.998	19.995	100.304	19.958	2.001	0.498
322.000	219.612	80.000	19.995	100.310	19.957	2.064	0.500
324.000	220.671	80.000	19.996	100.308	19.957	2.083	0.537
326.000	221.702	79.998	19.994	100.304	19.954	2.243	0.510
328.000	222.711	79.998	19.995	100.299	19.956	2.092	0.521
330.000	223.705	79.999	19.997	100.293	19.958	2.002	0.511
332.000	224.729	79.997	19.996	100.284	19.958	1.995	0.504
334.000	225.732	79.995	19.997	100.280	19.958	1.962	0.513
336.000	226.711	79.998	19.996	100.277	19.963	1.675	0.497
338.000	227.707	79.995	19.996	100.281	19.963	1.665	0.479
340.000	228.700	79.996	19.996	100.272	19.961	1.823	0.507
342.000	229.711	79.997	19.995	100.281	19.958	1.990	0.495
344.000	230.769	79.997	19.996	100.285	19.960	1.876	0.494
346.000	231.718	79.998	19.995	100.273	19.958	1.995	0.467
348.000	232.685	79.997	19.995	100.270	19.961	1.811	0.503
350.000	233.679	79.997	19.996	100.270	19.961	1.809	0.498
352.000	234.685	79.997	19.996	100.269	19.960	1.874	0.484
354.000	235.633	79.996	19.996	100.268	19.958	1.960	0.460
356.000	236.618	79.996	19.997	100.270	19.961	1.811	0.485
358.000	237.596	79.996	19.997	100.267	19.962	1.732	0.479
360.000	238.538	79.997	19.997	100.269	19.961	1.795	0.472
362.000	239.546	79.996	19.998	100.269	19.964	1.596	0.482
364.000	240.475	79.995	19.996	100.269	19.963	1.696	0.480
366.000	241.485	79.995	19.997	100.268	19.961	1.809	0.479
368.000	242.448	79.997	19.996	100.269	19.960	1.890	0.504
370.000	243.463	79.997	19.996	100.270	19.961	1.784	0.534
372.000	244.398	79.996	19.994	100.270	19.960	1.828	0.484
374.000	245.368	79.997	19.995	100.271	19.961	1.790	0.499
376.000	246.375	79.998	19.995	100.270	19.960	1.855	0.495
378.000	247.308	79.998	19.995	100.274	19.967	1.433	0.460
380.000	248.314	80.000	19.995	100.274	19.966	1.487	0.518
382.000	249.319	79.999	19.996	100.272	19.965	1.558	0.484
384.000	250.275	79.997	19.997	100.269	19.959	1.949	0.488
386.000	251.304	79.998	19.995	100.269	19.959	1.897	0.491
388.000	252.288	79.998	19.996	100.269	19.960	1.884	0.502
390.000	253.248	79.998	19.995	100.270	19.962	1.705	0.521
392.000	254.254	79.998	19.995	100.268	19.960	1.847	0.492
394.000	255.216	79.997	19.995	100.270	19.960	1.853	0.511
396.000	256.200	79.999	19.995	100.270	19.963	1.696	0.501
398.000	257.135	80.000	19.995	100.267	19.964	1.570	0.464
400.000	258.067	79.999	19.994	100.270	19.960	1.837	0.469
402.000	259.070	80.000	19.995	100.264	19.960	1.847	0.486
404.000	260.007	79.999	19.994	100.267	19.961	1.779	0.497
406.000	260.960	80.000	19.996	100.266	19.959	1.907	0.477
408.000	261.962	80.000	19.994	100.266	19.963	1.684	0.494
410.000	262.922	79.999	19.996	100.267	19.966	1.477	0.473
412.000	263.955	79.999	19.995	100.268	19.963	1.691	0.510
414.000	264.929	79.996	19.995	100.268	19.959	1.914	0.496
416.000	265.917	79.996	19.996	100.268	19.962	1.698	0.519
418.000	266.906	79.996	19.996	100.269	19.960	1.863	0.475
420.000	267.919	79.997	19.996	100.269	19.960	1.865	0.526
422.000	268.934	79.996	19.997	100.267	19.962	1.740	0.512
424.000	269.944	79.996	19.996	100.267	19.963	1.677	0.510
426.000	270.993	79.997	19.995	100.267	19.965	1.537	0.500
428.000	272.014	79.998	19.995	100.267	19.964	1.582	0.498
430.000	273.005	79.997	19.995	100.266	19.965	1.545	0.550
432.000	274.041	79.997	19.996	100.268	19.960	1.832	0.511
434.000	275.042	79.998	19.995	100.270	19.966	1.480	0.500
436.000	276.060	79.997	19.996	100.269	19.963	1.640	0.515
438.000	277.116	79.997	19.996	100.270	19.960	1.844	0.533
440.000	278.112	79.997	19.997	100.269	19.960	1.869	0.503
442.000	279.172	79.996	19.996	100.269	19.957	2.051	0.520
444.000	280.215	79.995	19.996	100.268	19.961	1.809	0.542
446.000	281.219	79.995	19.996	100.269	19.960	1.858	0.468
448.000	282.267	79.997	19.996	100.269	19.961	1.777	0.554
450.000	283.268	79.995	19.996	100.269	19.963	1.693	0.496
452.000	284.306	79.997	19.996	100.263	19.959	1.939	0.523
454.000	285.315	79.998	19.997	100.262	19.961	1.802	0.509
456.000	286.367	79.998	19.995	100.265	19.965	1.535	0.505
458.000	287.431	79.998	19.995	100.266	19.963	1.656	0.542
460.000	288.443	79.998	19.996	100.263	19.963	1.670	0.537
462.000	289.491	79.999	19.995	100.266	19.967	1.433	0.543
464.000	290.469	79.998	19.995	100.259	19.966	1.491	0.501
466.000	291.555	80.000	19.995	100.244	19.966	1.473	0.534
468.000	292.569	79.997	19.995	100.255	19.964	1.615	0.515
470.000	293.586	79.998	19.996	100.254	19.964	1.614	0.518
472.000	294.627	79.997	19.996	100.251	19.967	1.422	0.494
474.000	295.667	79.998	19.995	100.249	19.965	1.510	0.506
476.000	296.665	79.998	19.995	100.247	19.964	1.603	0.513
478.000	297.698	79.998	19.995	100.241	19.964	1.608	0.495
480.000	298.717	79.998	19.994	100.261	19.967	1.387	0.507
482.000	299.720	79.998	19.995	100.247	19.966	1.475	0.517
484.000	300.715	79.999	19.994	100.233	19.969	1.257	0.494
486.000	301.711	79.999	19.995	100.247	19.968	1.370	0.519
488.000	302.723	80.000	19.994	100.250	19.966	1.450	0.481
490.000	303.716	79.999	19.994	100.247	19.968	1.366	0.498
492.000	304.741	79.999	19.995	100.241	19.967	1.429	0.495
494.000	305.738	79.997	19.995	100.236	19.969	1.299	0.521
496.000	306.796	79.997	19.994	100.239	19.969	1.296	0.521
498.000	307.802	79.997	19.995	100.254	19.967	1.375	0.499
500.000	308.797	79.996	19.995	100.256	19.964	1.584	0.507
502.000	309.805	79.995	19.995	100.250	19.967	1.427	0.499
504.000	310.802	79.996	19.995	100.249	19.965	1.554	0.490
506.000	311.813	79.994	19.995	100.240	19.967	1.401	0.517
508.000	312.863	79.996	19.996	100.236	19.966	1.447	0.537
510.000	313.841	79.997	19.996	100.241	19.966	1.441	0.533
512.000	314.829	79.997	19.996	100.247	19.969	1.268	0.488
514.000	315.795	79.996	19.995	100.236	19.967	1.406	0.494
516.000	316.794	79.995	19.996	100.234	19.968	1.318	0.496
518.000	317.767	79.996	19.996	100.235	19.967	1.376	0.483
520.000	318.783	79.996	19.995	100.246	19.967	1.422	0.494
522.000	319.825	79.995	19.994	100.237	19.965	1.543	0.527
524.000	320.785	79.996	19.995	100.244	19.968	1.317	0.476
526.000	321.795	79.996	19.995	100.236	19.966	1.443	0.504
528.000	322.811	79.996	19.996	100.233	19.969	1.269	0.539
530.000	323.784	79.995	19.996	100.232	19.971	1.145	0.493
532.000	324.800	79.998	19.996	100.233	19.969	1.243	0.493
534.000	325.816	79.996	19.995	100.234	19.973	1.039	0.500
536.000	326.828	79.997	19.996	100.229	19.971	1.134	0.569
538.000	327.832	79.998	19.996	100.231	19.968	1.306	0.496
540.000	328.811	79.998	19.996	100.234	19.967	1.424	0.513
542.000	329.837	79.999	19.996	100.228	19.968	1.322	0.467
544.000	330.834	79.997	19.997	100.230	19.966	1.457	0.474
546.000	331.889	79.997	19.997	100.235	19.967	1.397	0.491
548.000	332.799	79.997	19.996	100.228	19.973	0.985	0.478
550.000	333.749	79.997	19.997	100.229	19.971	1.118	0.456
552.000	334.967	79.997	19.995	100.232	19.969	1.255	0.515
554.000	335.856	79.999	19.995	100.234	19.973	0.987	0.360
556.000	336.913	79.998	19.996	100.230	19.969	1.285	0.398
558.000	337.760	79.998	19.995	100.231	19.969	1.294	0.608
560.000	338.822	79.999	19.996	100.232	19.969	1.241	0.462
562.000	339.936	79.998	19.995	100.228	19.969	1.303	0.522
564.000	340.970	79.999	19.995	100.230	19.968	1.369	0.523
566.000	341.859	79.999	19.995	100.230	19.969	1.278	0.526
568.000	342.895	79.999	19.995	100.232	19.968	1.310	0.483
570.000	343.843	79.999	19.996	100.229	19.968	1.310	0.479
572.000	344.829	79.997	19.994	100.230	19.970	1.234	0.502
574.000	345.879	79.996	19.996	100.226	19.966	1.436	0.510
576.000	346.872	79.997	19.995	100.226	19.965	1.504	0.505
578.000	347.812	79.997	19.994	100.231	19.964	1.620	0.459
580.000	348.790	79.997	19.996	100.230	19.969	1.280	0.477
582.000	349.815	79.996	19.994	100.230	19.970	1.180	0.493
584.000	350.810	79.998	19.994	100.227	19.969	1.269	0.482
586.000	351.751	79.997	19.995	100.228	19.968	1.317	0.491
588.000	352.800	79.997	19.995	100.233	19.965	1.527	0.508
590.000	353.751	79.997	19.995	100.231	19.968	1.346	0.488
592.000	354.771	79.998	19.996	100.226	19.967	1.376	0.499
594.000	355.749	79.998	19.995	100.227	19.965	1.543	0.496
596.000	356.753	79.997	19.996	100.226	19.968	1.329	0.517
598.000	357.758	79.996	19.995	100.227	19.968	1.346	0.515
600.000	358.775	79.998	19.995	100.228	19.968	1.345	0.499
602.000	359.706	79.995	19.997	100.221	19.964	1.580	0.457
604.000	360.714	79.997	19.996	100.222	19.967	1.406	0.501
606.000	361.722	79.996	19.997	100.226	19.966	1.439	0.499
608.000	362.695	79.996	19.996	100.228	19.965	1.525	0.509
610.000	363.713	79.997	19.996	100.227	19.966	1.499	0.495
612.000	364.681	79.997	19.995	100.227	19.965	1.527	0.478
614.000	365.724	79.998	19.995	100.223	19.962	1.699	0.502
616.000	366.699	79.997	19.996	100.220	19.963	1.669	0.484
618.000	367.734	79.998	19.995	100.227	19.964	1.615	0.502
620.000	368.701	79.999	19.994	100.212	19.962	1.725	0.496
622.000	369.747	80.000	19.995	100.220	19.964	1.629	0.508
624.000	370.687	80.000	19.995	100.221	19.960	1.847	0.495
626.000	371.741	79.998	19.996	100.224	19.961	1.813	0.503
628.000	372.717	79.998	19.996	100.225	19.962	1.738	0.487
630.000	373.771	79.998	19.996	100.215	19.962	1.745	0.520
632.000	374.757	79.998	19.997	100.224	19.963	1.680	0.501
634.000	375.804	79.996	19.996	100.226	19.959	1.898	0.508
636.000	376.825	79.998	19.996	100.221	19.959	1.912	0.512
638.000	377.840	79.997	19.995	100.213	19.958	1.994	0.475
640.000	378.813	79.998	19.995	100.224	19.961	1.778	0.502
642.000	379.890	79.999	19.996	100.226	19.962	1.752	0.533
644.000	380.855	79.999	19.995	100.222	19.959	1.903	0.493
646.000	381.840	80.000	19.995	100.224	19.961	1.764	0.502
648.000	382.881	79.999	19.995	100.221	19.961	1.822	0.504
650.000	383.883	79.998	19.994	100.225	19.959	1.906	0.501
652.000	384.906	79.997	19.995	100.223	19.959	1.932	0.508
654.000	385.929	79.998	19.995	100.222	19.955	2.213	0.472
656.000	386.926	79.997	19.995	100.218	19.956	2.113	0.498
658.000	387.926	79.997	19.996	100.215	19.955	2.215	0.500
660.000	388.963	79.997	19.995	100.208	19.951	2.435	0.513
662.000	389.997	79.997	19.996	100.206	19.952	2.392	0.509
664.000	390.998	79.997	19.995	100.211	19.950	2.489	0.513
666.000	392.005	79.998	19.995	100.209	19.952	2.403	0.493
668.000	393.022	79.998	19.996	100.228	19.950	2.530	0.517
670.000	394.073	79.997	19.995	100.221	19.948	2.663	0.522
672.000	395.103	79.998	19.995	100.204	19.948	2.619	0.498
674.000	396.104	79.998	19.995	100.204	19.945	2.849	0.492
676.000	397.125	79.997	19.996	100.203	19.946	2.743	0.500
678.000	398.137	79.997	19.996	100.227	19.947	2.707	0.522
680.000	399.156	79.998	19.995	100.226	19.946	2.772	0.521
682.000	400.177	79.998	19.995	100.214	19.946	2.761	0.497
684.000	401.165	79.997	19.995	100.214	19.944	2.877	0.502
686.000	402.151	79.997	19.996	100.201	19.941	3.117	0.493
688.000	403.162	79.996	19.995	100.217	19.936	3.418	0.510
690.000	404.184	79.995	19.996	100.224	19.936	3.426	0.504
692.000	405.209	79.997	19.996	100.213	19.936	3.446	0.488
694.000	406.231	79.997	19.995	100.222	19.935	3.466	0.516
696.000	407.262	79.997	19.996	100.218	19.930	3.793	0.495
698.000	408.288	79.997	19.996	100.219	19.928	3.923	0.538
700.000	409.317	79.999	19.996	100.223	19.927	4.032	0.501
702.000	410.291	79.999	19.997	100.215	19.925	4.161	0.523
704.000	411.316	79.999	19.995	100.205	19.923	4.293	0.490
706.000	412.311	80.000	19.995	100.209	19.917	4.689	0.493
708.000	413.366	79.998	19.995	100.200	19.913	4.933	0.509
710.000	414.346	79.996	19.995	100.215	19.912	5.012	0.498
712.000	415.352	79.998	19.995	100.202	19.906	5.344	0.508
714.000	416.358	79.997	19.996	100.207	19.907	5.303	0.476
716.000	417.385	79.997	19.995	100.202	19.901	5.698	0.478
718.000	418.432	79.998	19.996	100.201	19.898	5.924	0.519
720.000	419.403	79.998	19.996	100.194	19.886	6.679	0.509
722.000	420.447	79.998	19.996	100.205	19.885	6.737	0.529
724.000	421.504	79.999	19.996	100.202	19.881	7.035	0.532
726.000	422.522	79.999	19.995	100.192	19.874	7.475	0.511
728.000	423.589	79.998	19.996	100.191	19.868	7.818	0.520
730.000	424.636	80.000	19.995	100.190	19.866	7.951	0.520
732.000	425.664	79.997	19.996	100.189	19.863	8.144	0.537
734.000	426.681	79.997	19.995	100.188	19.858	8.513	0.519
736.000	427.696	79.998	19.996	100.188	19.855	8.665	0.525
738.000	428.713	79.996	19.995	100.189	19.851	8.945	0.521
740.000	429.703	79.997	19.995	100.189	19.841	9.591	0.498
742.000	430.741	79.997	19.995	100.190	19.834	10.056	0.520
744.000	431.721	79.998	19.997	100.190	19.827	10.538	0.505
746.000	432.750	79.997	19.998	100.190	19.812	11.465	0.508
748.000	433.780	79.998	19.996	100.186	19.803	12.082	0.502
750.000	434.785	79.997	19.994	100.186	19.791	12.874	0.509
752.000	435.807	79.997	19.996	100.182	19.775	13.908	0.517
754.000	436.778	79.998	19.995	100.180	19.761	14.794	0.478
756.000	437.826	79.996	19.995	100.186	19.748	15.686	0.517
758.000	438.789	79.998	19.994	100.182	19.735	16.533	0.482
760.000	439.755	79.997	19.996	100.170	19.719	17.531	0.492
762.000	440.788	79.996	19.995	100.175	19.705	18.430	0.525
764.000	441.747	79.997	19.995	100.164	19.687	19.656	0.488
766.000	442.703	79.996	19.995	100.173	19.671	20.685	0.475
768.000	443.750	79.996	19.995	100.168	19.651	22.001	0.491
770.000	444.670	79.996	19.995	100.166	19.631	23.262	0.467
772.000	445.640	79.997	19.995	100.161	19.610	24.617	0.499
774.000	446.638	79.997	19.995	100.171	19.583	26.396	0.501
776.000	447.605	79.998	19.995	100.158	19.560	27.866	0.476
778.000	448.568	79.998	19.995	100.167	19.535	29.494	0.481
780.000	449.550	79.999	19.995	100.163	19.510	31.174	0.500
782.000	450.484	79.998	19.994	100.156	19.480	33.095	0.466
784.000	451.452	79.999	19.995	100.152	19.449	35.112	0.502
786.000	452.413	79.997	19.996	100.151	19.415	37.327	0.478
788.000	453.375	79.997	19.995	100.151	19.373	40.056	0.448
790.000	454.344	79.996	19.994	100.157	19.334	42.618	0.501
792.000	455.335	79.999	19.995	100.151	19.289	45.510	0.487
794.000	456.253	79.998	19.995	100.152	19.238	48.826	0.466
796.000	457.241	79.998	19.996	100.151	19.182	52.501	0.490
798.000	458.264	79.999	19.995	100.149	19.121	56.447	0.476
800.000	459.234	79.999	19.996	100.146	19.052	60.985	0.476
802.000	460.186	79.998	19.995	100.148	18.970	66.288	0.481
804.000	461.176	79.999	19.995	100.150	18.872	72.640	0.453
806.000	462.155	79.999	19.996	100.152	18.762	79.802	0.466
808.000	463.142	79.999	19.996	100.147	18.647	87.289	0.482
810.000	464.127	79.998	19.996	100.140	18.515	95.863	0.494
812.000	465.114	79.998	19.996	100.139	18.377	104.812	0.535
814.000	466.051	79.996	19.996	100.121	18.222	114.876	0.478
816.000	467.079	79.996	19.996	100.108	18.070	124.755	0.544
818.000	468.050	79.996	19.996	100.077	17.910	135.115	0.482
820.000	469.071	79.997	19.995	100.067	17.740	146.123	0.516
822.000	470.077	79.997	19.995	100.057	17.566	157.364	0.490
824.000	471.077	79.997	19.995	100.037	17.377	169.593	0.503
826.000	472.106	79.998	19.995	100.023	17.166	183.324	0.530
828.000	473.146	79.997	19.995	100.016	16.940	197.927	0.530
830.000	474.224	79.997	19.995	99.995	16.699	213.518	0.548
832.000	475.263	79.997	19.996	99.968	16.442	230.064	0.517
834.000	476.313	79.999	19.994	99.938	16.169	247.651	0.521
836.000	477.361	79.997	19.995	99.914	15.870	266.891	0.505
838.000	478.402	79.996	19.995	99.898	15.582	285.220	0.529
840.000	479.471	79.996	19.995	99.877	15.266	305.883	0.549
842.000	480.528	79.997	19.995	99.829	14.920	327.800	0.541
844.000	481.538	79.998	19.995	99.765	14.544	351.711	0.494
846.000	482.614	79.995	19.995	99.720	14.153	376.499	0.531
848.000	483.645	79.997	19.995	99.635	13.742	402.665	0.511
850.000	484.694	79.997	19.994	99.644	13.296	431.050	0.533
852.000	485.763	79.997	19.995	99.609	12.833	460.385	0.542
854.000	486.777	79.996	19.994	99.437	12.359	490.177	0.504
856.000	487.805	79.999	19.996	99.311	11.861	521.744	0.531
858.000	488.848	80.000	19.995	99.216	11.360	553.787	0.504
860.000	489.828	79.999	19.995	99.139	10.854	585.451	0.495
862.000	490.897	79.998	19.995	99.049	10.369	615.912	0.512
864.000	491.913	79.999	19.995	98.901	9.911	645.797	0.521
866.000	492.953	79.998	19.995	98.807	9.475	672.694	0.516
868.000	493.991	79.998	19.996	98.750	9.074	695.044	0.532
870.000	495.020	79.999	19.997	98.686	8.742	716.468	0.502
872.000	496.050	79.999	19.996	98.530	8.435	739.184	0.489
874.000	497.087	80.000	19.996	98.519	8.190	756.368	0.524
876.000	498.107	79.999	19.996	98.597	8.226	754.033	0.514
878.000	499.154	79.999	19.997	98.178	8.457	739.220	0.499
880.000	500.142	80.000	19.997	97.899	8.826	716.395	0.489
882.000	501.218	79.999	19.995	98.233	9.308	685.999	0.528
884.000	502.213	80.000	19.995	98.557	9.906	649.257	0.504
886.000	503.233	80.001	19.996	98.646	10.622	604.346	0.511
888.000	504.268	79.999	19.995	98.606	11.444	552.489	0.522
890.000	505.348	80.000	19.996	98.674	12.353	494.695	0.539
892.000	506.416	79.998	19.995	98.762	13.317	433.017	0.528
894.000	507.397	79.997	19.995	98.896	14.283	370.882	0.491
896.000	508.471	79.999	19.996	99.169	15.218	310.404	0.505
898.000	509.485	79.997	19.995	99.363	16.072	254.938	0.518
900.000	510.533	79.998	19.996	99.578	16.842	204.801	0.502
902.000	511.523	79.996	19.997	99.767	17.503	161.772	0.494
904.000	512.602	79.997	19.994	99.932	18.053	125.973	0.542
906.000	513.628	79.996	19.996	100.057	18.508	96.399	0.524
908.000	514.684	79.997	19.995	100.129	18.868	72.937	0.524
910.000	515.650	79.998	19.995	100.154	19.152	54.486	0.517
912.000	516.699	79.998	19.995	100.134	19.364	40.674	0.497
914.000	517.710	79.999	19.996	100.144	19.532	29.742	0.501
916.000	518.691	79.999	19.995	100.151	19.655	21.744	0.498
918.000	519.714	79.999	19.995	100.159	19.743	15.961	0.507
920.000	520.706	79.999	19.995	100.186	19.806	11.855	0.513
922.000	521.727	79.996	19.994	100.190	19.852	8.901	0.509
924.000	522.714	79.998	19.995	100.170	19.878	7.169	0.494
926.000	523.671	79.998	19.995	100.164	19.902	5.608	0.471
928.000	524.678	79.999	19.996	100.154	19.915	4.787	0.502
930.000	525.699	79.996	19.996	100.153	19.928	3.943	0.487
932.000	526.722	79.999	19.995	100.155	19.935	3.496	0.510
934.000	527.694	79.998	19.995	100.154	19.939	3.196	0.479
936.000	528.720	79.998	19.995	100.154	19.942	3.035	0.545
938.000	529.697	80.001	19.994	100.153	19.944	2.878	0.483
940.000	530.725	79.999	19.996	100.149	19.947	2.678	0.496
942.000	531.709	79.999	19.995	100.151	19.952	2.350	0.498
944.000	532.704	79.999	19.994	100.148	19.954	2.219	0.519
946.000	533.711	79.997	19.994	100.127	19.957	2.070	0.523
948.000	534.736	79.999	19.995	100.108	19.955	2.156	0.489
950.000	535.768	80.000	19.995	99.984	19.955	2.175	0.509
952.000	536.792	79.998	19.995	99.362	19.955	2.187	0.514
954.000	537.778	79.999	19.995	99.775	19.957	2.062	0.504
956.000	538.814	80.001	19.995	99.964	19.956	2.125	0.515
958.000	539.860	79.999	19.995	100.038	19.953	2.343	0.510
960.000	540.841	79.998	19.995	100.121	19.959	1.925	0.498
962.000	541.868	80.002	19.994	100.130	19.958	1.982	0.500
964.000	542.864	79.997	19.994	100.121	19.954	2.222	0.466
966.000	543.905	80.001	19.995	100.112	19.956	2.122	0.515
968.000	544.916	79.998	19.994	100.115	19.956	2.096	0.500
970.000	545.951	79.999	19.994	100.123	19.955	2.171	0.532
972.000	546.916	80.000	19.995	100.115	19.959	1.933	0.497
974.000	547.949	79.997	19.995	100.133	19.959	1.904	0.512
976.000	548.969	80.000	19.996	100.118	19.956	2.096	0.508
978.000	549.966	79.997	19.995	100.119	19.958	1.966	0.521
980.000	550.983	79.997	19.995	100.139	19.962	1.719	0.495
982.000	552.006	79.997	19.995	100.132	19.957	2.059	0.535
984.000	553.029	79.999	19.996	100.132	19.961	1.768	0.551
986.000	554.029	79.999	19.995	100.119	19.962	1.742	0.522
988.000	555.101	79.998	19.996	100.126	19.958	1.958	0.528
990.000	556.124	79.997	19.996	100.135	19.961	1.782	0.491
992.000	557.123	79.998	19.995	100.144	19.958	1.956	0.498
994.000	558.181	79.998	19.996	100.148	19.965	1.524	0.550
996.000	559.216	80.000	19.997	100.145	19.964	1.598	0.490
998.000	560.195	79.999	19.996	100.147	19.962	1.747	0.494
1000.000	561.215	79.998	19.996	100.150	19.961	1.763	0.489
1002.000	562.226	80.000	19.995	100.151	19.964	1.575	0.536
1004.000	563.252	79.998	19.996	100.151	19.960	1.853	0.488
1006.000	564.282	79.996	19.995	100.153	19.960	1.886	0.509
1008.000	565.312	79.996	19.994	100.153	19.963	1.668	0.534
1010.000	566.336	79.998	19.994	100.154	19.960	1.837	0.509
1012.000	567.376	79.996	19.995	100.154	19.962	1.730	0.516
1014.000	568.367	79.998	19.996	100.159	19.964	1.619	0.503
1016.000	569.428	79.998	19.995	100.159	19.961	1.765	0.538
1018.000	570.460	79.998	19.994	100.168	19.960	1.835	0.516
1020.000	571.478	80.001	19.994	100.171	19.961	1.796	0.514
1022.000	572.480	79.998	19.996	100.162	19.959	1.927	0.506
1024.000	573.521	79.997	19.995	100.166	19.959	1.900	0.505
1025.999	574.584	79.998	19.995	100.166	19.963	1.640	0.535
1027.999	575.618	80.000	19.995	100.170	19.964	1.589	0.501
1029.999	576.625	79.997	19.994	100.164	19.960	1.835	0.500
1031.999	577.627	79.997	19.995	100.166	19.967	1.426	0.501
1033.999	578.665	79.998	19.994	100.182	19.962	1.723	0.528
1035.999	579.670	79.997	19.995	100.162	19.966	1.491	0.512
1037.999	580.694	79.998	19.994	100.154	19.967	1.425	0.499
1039.999	581.721	80.000	19.995	100.167	19.970	1.219	0.530
1041.999	582.731	79.999	19.994	100.160	19.960	1.875	0.533
1043.999	583.716	80.000	19.994	100.156	19.960	1.832	0.477
1045.999	584.699	79.999	19.995	100.152	19.965	1.540	0.466
1048.000	585.714	79.999	19.995	100.157	19.962	1.744	0.488
1049.999	586.708	79.999	19.997	100.163	19.969	1.282	0.473
1051.999	587.771	80.000	19.995	100.150	19.964	1.567	0.559
1053.999	588.756	79.998	19.997	100.162	19.965	1.530	0.499
1055.999	589.769	79.997	19.995	100.168	19.965	1.546	0.507
1057.999	590.748	79.997	19.996	100.164	19.962	1.747	0.501
1059.999	591.714	79.998	19.998	100.155	19.965	1.523	0.475
1061.999	592.772	79.996	19.996	100.159	19.968	1.342	0.497
1063.999	593.819	79.998	19.996	100.167	19.966	1.444	0.527
1065.999	594.832	79.997	19.995	100.171	19.960	1.860	0.513
1067.999	595.852	79.997	19.996	100.166	19.968	1.361	0.498
1069.999	596.905	79.997	19.995	100.173	19.963	1.672	0.506
1071.999	597.923	79.996	19.995	100.167	19.964	1.612	0.524
1074.000	598.908	79.996	19.996	100.166	19.968	1.367	0.517
1075.999	599.989	79.996	19.996	100.166	19.968	1.328	0.526
1077.999	600.994	79.995	19.996	100.161	19.966	1.474	0.490
1079.999	601.995	79.995	19.995	100.168	19.966	1.442	0.477
1082.000	603.071	79.996	19.996	100.172	19.962	1.735	0.554
1084.000	604.076	79.995	19.997	100.180	19.966	1.465	0.499
1086.000	605.119	79.994	19.996	100.166	19.969	1.281	0.514
1087.999	606.128	79.995	19.996	100.175	19.966	1.455	0.505
1089.999	607.185	79.996	19.996	100.179	19.968	1.339	0.516
1091.999	608.224	79.996	19.994	100.179	19.968	1.344	0.537
1093.999	609.239	79.997	19.995	100.187	19.962	1.711	0.508
1095.999	610.285	79.998	19.994	100.190	19.963	1.645	0.549
1097.999	611.328	79.998	19.994	100.193	19.968	1.354	0.510
1100.000	612.347	79.999	19.995	100.185	19.961	1.776	0.550
1101.999	613.379	79.999	19.994	100.187	19.964	1.577	0.519
1104.000	614.423	79.998	19.994	100.184	19.959	1.913	0.507
1105.999	615.456	79.999	19.994	100.163	19.963	1.684	0.539
1108.000	616.468	80.001	19.995	100.158	19.967	1.386	0.512
1109.999	617.495	79.998	19.996	100.171	19.961	1.774	0.512
1111.999	618.527	79.999	19.995	100.178	19.960	1.872	0.518
1113.999	619.546	80.000	19.995	100.178	19.961	1.779	0.537
1115.999	620.555	80.000	19.996	100.188	19.962	1.697	0.508
1117.999	621.590	79.997	19.995	100.168	19.966	1.448	0.484
1119.999	622.597	80.001	19.994	100.176	19.962	1.753	0.498
1122.001	623.649	80.002	19.995	100.184	19.963	1.646	0.495
1123.999	624.647	80.002	19.994	100.183	19.965	1.548	0.505
1126.000	625.646	80.001	19.994	100.189	19.965	1.542	0.508
1127.999	626.675	80.001	19.995	100.189	19.964	1.620	0.516
1129.999	627.704	79.998	19.996	100.189	19.967	1.383	0.541
1132.000	628.721	80.000	19.996	100.190	19.967	1.385	0.480
1133.999	629.722	79.998	19.994	100.189	19.965	1.511	0.482
1136.000	630.768	79.998	19.994	100.176	19.964	1.585	0.502
1137.999	631.748	79.998	19.996	100.183	19.967	1.383	0.462
1139.999	632.797	79.998	19.995	100.183	19.966	1.490	0.502
1141.999	633.812	79.996	19.995	100.188	19.966	1.462	0.503
1143.999	634.856	79.996	19.996	100.198	19.964	1.614	0.531
1145.999	635.870	80.000	19.997	100.192	19.959	1.952	0.516
1147.999	636.916	79.999	19.994	100.193	19.963	1.680	0.520
1149.999	637.918	79.997	19.995	100.198	19.967	1.423	0.504
1151.999	638.977	79.996	19.995	100.193	19.968	1.348	0.522
1153.999	639.940	79.998	19.995	100.194	19.960	1.846	0.482
1155.999	640.952	79.999	19.996	100.198	19.972	1.088	0.501
1157.999	642.011	79.996	19.996	100.202	19.965	1.548	0.522
1159.999	643.022	79.997	19.995	100.205	19.961	1.806	0.532
1161.999	644.041	79.997	19.995	100.211	19.963	1.659	0.515
1164.000	645.028	79.999	19.997	100.202	19.962	1.713	0.480
1165.999	646.051	79.998	19.997	100.200	19.961	1.799	0.503
1168.000	647.076	79.996	19.996	100.203	19.963	1.660	0.491
1170.000	648.065	79.997	19.997	100.216	19.962	1.738	0.526
1172.000	649.170	79.998	19.997	100.224	19.965	1.525	0.510
1174.000	650.168	79.999	19.995	100.213	19.962	1.750	0.512
1175.999	651.209	79.998	19.996	100.208	19.970	1.186	0.512
1177.999	652.229	80.000	19.995	100.209	19.966	1.481	0.500
1179.999	653.240	79.999	19.996	100.201	19.965	1.511	0.523
1181.999	654.279	80.000	19.996	100.208	19.960	1.836	0.511
1183.999	655.247	79.999	19.995	100.213	19.957	2.045	0.462
1185.999	656.390	79.998	19.994	100.217	19.961	1.762	0.590
1187.999	657.438	79.998	19.995	100.209	19.957	2.035	0.565
1189.999	658.381	79.998	19.994	100.221	19.962	1.754	0.442
1192.000	659.496	79.999	19.995	100.223	19.964	1.606	0.502
1193.999	660.488	80.000	19.995	100.215	19.963	1.645	0.489
1196.000	661.522	79.998	19.995	100.224	19.959	1.924	0.517
1197.999	662.531	79.999	19.995	100.224	19.962	1.761	0.475
1199.999	663.527	80.000	19.995	100.218	19.959	1.921	0.520
1201.999	664.522	79.999	19.995	100.221	19.959	1.917	0.496
1203.999	665.554	79.999	19.994	100.229	19.962	1.757	0.529
1205.999	666.591	79.999	19.993	100.231	19.962	1.713	0.529
1207.999	667.620	80.002	19.995	100.237	19.961	1.798	0.490
1209.999	668.555	79.998	19.994	100.233	19.957	2.032	0.524
1212.000	669.588	79.997	19.993	100.237	19.960	1.870	0.501
1213.999	670.636	79.998	19.994	100.236	19.960	1.877	0.520
1215.999	671.628	79.998	19.995	100.239	19.956	2.123	0.507
1217.999	672.626	79.996	19.994	100.237	19.956	2.119	0.504
1219.999	673.692	79.998	19.995	100.249	19.955	2.161	0.549
1221.999	674.727	79.998	19.994	100.256	19.955	2.159	0.530
1223.999	675.739	79.998	19.994	100.240	19.955	2.165	0.510
1226.000	676.778	80.001	19.996	100.252	19.954	2.251	0.542
1227.999	677.829	79.997	19.993	100.249	19.958	2.003	0.559
1229.999	678.828	79.998	19.995	100.240	19.954	2.225	0.518
1231.999	679.870	80.000	19.995	100.241	19.958	1.977	0.514
1233.999	680.881	80.000	19.994	100.244	19.958	2.011	0.508
1235.999	681.878	79.998	19.996	100.261	19.953	2.290	0.503
1237.999	682.884	79.997	19.996	100.254	19.954	2.269	0.494
1239.999	683.888	79.999	19.994	100.256	19.954	2.272	0.498
1241.999	684.954	79.998	19.994	100.262	19.951	2.425	0.521
1244.000	685.946	80.000	19.996	100.267	19.953	2.346	0.505
1245.999	686.996	79.999	19.997	100.265	19.954	2.272	0.508
1247.999	688.005	79.999	19.996	100.268	19.950	2.506	0.539
1249.999	689.018	79.999	19.994	100.268	19.958	2.011	0.523
1251.999	690.054	79.998	19.996	100.268	19.953	2.329	0.492
1253.999	691.071	80.000	19.996	100.267	19.948	2.610	0.516
1255.999	692.086	79.998	19.995	100.268	19.951	2.475	0.511
1257.999	693.121	80.000	19.995	100.272	19.953	2.297	0.513
1259.999	694.174	79.999	19.995	100.271	19.949	2.585	0.516
1261.999	695.196	79.999	19.997	100.277	19.950	2.515	0.517
1263.999	696.242	79.998	19.996	100.274	19.947	2.735	0.547
1265.999	697.258	79.998	19.997	100.270	19.952	2.357	0.526
1267.999	698.283	79.999	19.995	100.271	19.951	2.437	0.520
1269.999	699.318	79.997	19.997	100.274	19.950	2.507	0.508
1271.999	700.302	80.000	19.997	100.280	19.949	2.568	0.495
1273.999	701.291	80.000	19.995	100.283	19.951	2.434	0.481
1275.999	702.382	79.997	19.994	100.276	19.948	2.668	0.531
1277.999	703.389	80.000	19.995	100.299	19.951	2.464	0.489
1280.000	704.347	80.000	19.995	100.296	19.944	2.916	0.515
1282.000	705.374	79.999	19.995	100.280	19.940	3.136	0.486
1283.999	706.375	80.001	19.995	100.278	19.944	2.881	0.510
1286.000	707.395	80.000	19.994	100.299	19.944	2.916	0.492
1288.000	708.360	80.000	19.995	100.289	19.938	3.308	0.484
1289.999	709.404	79.999	19.995	100.298	19.939	3.205	0.528
1292.000	710.350	79.999	19.996	100.305	19.943	2.981	0.470
1293.999	711.371	79.999	19.995	100.308	19.944	2.904	0.481
1295.999	712.376	79.999	19.995	100.306	19.937	3.361	0.495
1297.999	713.389	79.998	19.994	100.304	19.940	3.133	0.513
1299.999	714.343	79.999	19.995	100.307	19.938	3.268	0.490
1302.000	715.374	79.998	19.994	100.308	19.939	3.199	0.524
1303.999	716.381	79.998	19.995	100.307	19.944	2.936	0.515
1305.999	717.402	79.997	19.994	100.314	19.944	2.897	0.511
1307.999	718.390	79.998	19.995	100.317	19.938	3.287	0.511
1309.999	719.377	79.999	19.994	100.309	19.942	3.010	0.513
1311.999	720.387	79.997	19.995	100.308	19.943	2.976	0.504
1313.999	721.335	80.000	19.994	100.309	19.939	3.228	0.476
1315.999	722.326	79.997	19.994	100.314	19.937	3.333	0.464
1317.999	723.282	79.998	19.995	100.312	19.936	3.400	0.490
1319.999	724.321	79.998	19.996	100.311	19.938	3.328	0.511
1321.999	725.248	79.996	19.995	100.314	19.931	3.768	0.490
1323.999	726.293	79.999	19.996	100.311	19.932	3.681	0.532
1325.999	727.264	79.996	19.996	100.317	19.938	3.313	0.493
1327.999	728.247	79.997	19.996	100.317	19.935	3.522	0.491
1329.999	729.277	79.997	19.996	100.315	19.933	3.636	0.494
1331.999	730.211	79.998	19.994	100.324	19.930	3.787	0.495
1333.999	731.213	79.998	19.996	100.323	19.938	3.265	0.475
1335.999	732.195	79.998	19.995	100.341	19.933	3.596	0.462
1337.999	733.214	80.000	19.994	100.349	19.935	3.491	0.503
1340.000	734.181	79.999	19.996	100.335	19.939	3.253	0.490
1341.999	735.174	80.000	19.996	100.341	19.931	3.754	0.504
1343.999	736.153	79.998	19.995	100.344	19.938	3.299	0.482
1346.000	737.177	79.999	19.996	100.340	19.934	3.536	0.522
1347.999	738.137	79.998	19.996	100.344	19.931	3.782	0.501
1349.999	739.138	79.996	19.996	100.349	19.925	4.142	0.474
1351.999	740.149	79.998	19.996	100.347	19.927	3.998	0.492
1353.999	741.158	79.998	19.999	100.342	19.929	3.861	0.505
1355.999	742.143	79.998	19.995	100.349	19.922	4.366	0.504
1358.000	743.132	80.000	19.998	100.349	19.926	4.076	0.490
1358.999	743.624	79.998	19.995	100.347	19.927	4.016	0.502