File: 01_Data/HDPE/MCC/HDPE_MCC_30K_min_210921_R3.txt
Sample ID:	C:\MCC\MCC Cal\Test\HDPE_MCC_30K_min_210921_R3.txt
Sample Weight (mg):	4.6
Heating Rate (C/s):	0.5
Combustor Temp (C):	900
N2 Flow Rate (cc/min):	80
O2 Flow Rate (cc/min):	20
Calibration File:	C:\MCC\MCC Cal\Coeff1 JN10440_30_210304.txt.txt
T Correction Coefficients:	0	1.024463	0
Time Shift (s):	14
*
Time (s)	Temperature (C)	N2 flow rate (cc/min)	O2 flow rate (cc/min)	Flow Rate (cc/min)	Oxygen (%)	HRR (W/g)	Heating rate (C/s)
0.000	108.614	80.009	19.996	100.243	19.927	0.169	-0.007
2.000	108.610	79.998	19.996	100.226	19.932	-0.180	0.007
4.000	108.589	79.998	19.996	100.222	19.930	-0.082	-0.016
6.000	108.608	80.003	19.995	100.220	19.927	0.125	0.014
8.000	108.612	80.001	19.995	100.232	19.933	-0.253	-0.011
10.000	108.576	80.001	19.996	100.225	19.927	0.147	-0.001
12.000	108.583	80.001	19.995	100.227	19.925	0.308	-0.005
14.000	108.541	80.003	19.995	100.226	19.932	-0.213	-0.002
16.000	108.563	80.007	19.994	100.224	19.929	0.038	-0.024
18.000	108.524	79.994	19.997	100.230	19.930	-0.088	0.010
20.000	108.559	79.999	19.995	100.236	19.926	0.233	0.007
22.000	108.538	80.000	19.996	100.234	19.927	0.134	-0.011
24.000	108.558	80.001	19.996	100.260	19.926	0.209	0.040
26.000	108.546	80.009	19.994	100.274	19.919	0.681	0.013
28.000	108.566	79.998	19.996	100.287	19.919	0.672	0.038
30.000	108.636	80.004	19.995	100.295	19.914	1.048	0.048
32.000	108.647	79.998	19.997	100.334	19.911	1.208	0.014
34.000	108.757	79.998	19.997	100.360	19.908	1.419	0.033
36.000	108.892	79.998	19.995	100.380	19.905	1.630	0.049
38.000	109.057	79.998	19.995	100.388	19.901	1.940	0.111
40.000	109.227	79.992	19.996	100.407	19.900	1.993	0.099
42.001	109.454	79.996	19.995	100.424	19.897	2.214	0.067
44.000	109.699	79.994	19.995	100.421	19.894	2.362	0.103
46.000	109.969	79.994	19.995	100.425	19.895	2.353	0.159
48.000	110.311	79.994	19.995	100.425	19.893	2.441	0.145
50.001	110.657	79.999	19.994	100.426	19.888	2.803	0.199
52.000	110.971	80.001	19.995	100.430	19.891	2.570	0.176
54.000	111.386	80.000	19.995	100.433	19.890	2.645	0.211
56.000	111.742	79.999	19.995	100.420	19.892	2.551	0.194
58.000	112.169	80.003	19.994	100.424	19.893	2.467	0.212
60.000	112.642	80.001	19.995	100.423	19.892	2.519	0.228
62.000	113.065	79.999	19.995	100.431	19.893	2.456	0.263
64.000	113.537	79.996	19.996	100.427	19.895	2.314	0.221
66.000	114.084	80.004	19.996	100.429	19.891	2.608	0.259
68.001	114.597	79.999	19.995	100.437	19.892	2.507	0.212
70.000	115.171	79.998	19.995	100.446	19.890	2.658	0.271
72.001	115.702	79.998	19.996	100.440	19.891	2.595	0.295
74.000	116.233	80.001	19.995	100.426	19.893	2.476	0.257
76.000	116.866	80.003	19.995	100.421	19.891	2.607	0.318
78.001	117.448	80.000	19.996	100.421	19.895	2.310	0.301
80.000	118.057	80.003	19.995	100.421	19.894	2.388	0.296
82.000	118.607	80.002	19.995	100.420	19.894	2.427	0.264
84.000	119.279	80.001	19.994	100.426	19.890	2.657	0.309
86.000	119.882	80.003	19.994	100.429	19.892	2.559	0.311
88.000	120.552	80.001	19.994	100.422	19.889	2.706	0.343
90.000	121.140	80.001	19.995	100.414	19.891	2.605	0.270
92.000	121.824	80.000	19.995	100.444	19.886	2.918	0.295
94.000	122.530	80.000	19.996	100.446	19.886	2.906	0.341
96.000	123.216	79.997	19.996	100.457	19.885	3.020	0.327
98.000	123.952	79.998	19.996	100.449	19.888	2.810	0.374
100.000	124.669	80.000	19.995	100.456	19.884	3.095	0.368
102.000	125.409	80.001	19.995	100.461	19.884	3.069	0.380
104.000	126.143	80.001	19.994	100.462	19.883	3.161	0.403
106.000	126.897	79.995	19.996	100.462	19.885	3.031	0.374
108.000	127.663	80.001	19.994	100.460	19.886	2.906	0.401
110.000	128.439	79.994	19.995	100.488	19.888	2.829	0.414
112.000	129.268	80.001	19.995	100.465	19.884	3.066	0.397
114.000	130.060	80.002	19.994	100.425	19.885	3.040	0.400
116.000	130.893	80.001	19.995	100.454	19.888	2.814	0.412
118.000	131.678	80.000	19.996	100.463	19.885	2.982	0.419
120.001	132.546	79.999	19.995	100.464	19.882	3.241	0.438
122.000	133.392	79.999	19.996	100.460	19.883	3.134	0.422
124.000	134.259	79.999	19.996	100.458	19.887	2.895	0.453
126.000	135.088	79.991	19.997	100.458	19.889	2.748	0.430
128.000	135.950	80.001	19.995	100.453	19.889	2.736	0.405
130.000	136.847	79.994	19.996	100.457	19.886	2.906	0.460
132.000	137.734	80.008	19.995	100.457	19.890	2.635	0.438
134.000	138.618	79.994	19.996	100.458	19.886	2.925	0.466
136.000	139.519	79.981	19.997	100.459	19.887	2.848	0.457
138.000	140.408	80.002	19.994	100.454	19.887	2.864	0.430
140.000	141.340	79.999	19.996	100.458	19.887	2.851	0.463
142.000	142.331	80.003	19.995	100.460	19.887	2.864	0.482
144.000	143.185	80.001	19.995	100.458	19.885	3.017	0.457
146.000	144.147	80.005	19.995	100.457	19.887	2.885	0.463
148.000	145.056	79.999	19.995	100.458	19.888	2.776	0.443
150.000	146.019	80.002	19.995	100.458	19.886	2.972	0.472
152.000	146.983	79.997	19.995	100.459	19.886	2.949	0.519
154.000	147.925	80.002	19.996	100.467	19.886	2.941	0.486
156.000	148.861	80.001	19.995	100.470	19.885	3.037	0.465
158.000	149.809	79.996	19.996	100.466	19.888	2.809	0.485
160.000	150.788	80.006	19.995	100.458	19.886	2.960	0.453
162.000	151.759	80.004	19.995	100.444	19.886	2.967	0.528
164.000	152.717	79.998	19.995	100.458	19.889	2.723	0.490
166.000	153.682	79.996	19.995	100.457	19.887	2.842	0.479
168.000	154.642	79.995	19.996	100.450	19.887	2.884	0.502
170.000	155.618	80.007	19.993	100.454	19.887	2.849	0.502
172.000	156.591	80.004	19.994	100.452	19.890	2.693	0.464
174.000	157.577	80.000	19.994	100.446	19.885	3.027	0.480
176.000	158.558	80.003	19.994	100.450	19.891	2.573	0.485
178.000	159.539	80.008	19.994	100.437	19.883	3.117	0.471
180.000	160.554	80.011	19.993	100.438	19.885	2.988	0.513
182.000	161.536	79.999	19.995	100.445	19.890	2.663	0.470
184.000	162.520	79.998	19.996	100.428	19.891	2.588	0.519
186.000	163.571	80.005	19.995	100.431	19.892	2.527	0.525
188.000	164.421	80.012	19.992	100.422	19.893	2.447	0.507
190.000	165.739	79.999	19.995	100.431	19.894	2.415	0.734
192.000	166.573	80.005	19.995	100.431	19.893	2.450	0.315
194.000	167.556	79.995	19.996	100.437	19.890	2.693	0.565
196.000	168.577	80.006	19.996	100.430	19.892	2.555	0.502
198.000	169.585	80.003	19.995	100.425	19.893	2.496	0.511
200.000	170.578	80.000	19.996	100.420	19.894	2.388	0.530
202.000	171.599	79.987	19.997	100.419	19.894	2.364	0.498
204.000	172.578	80.008	19.995	100.422	19.893	2.435	0.485
206.000	173.631	80.009	19.994	100.429	19.892	2.498	0.511
208.000	174.610	79.997	19.996	100.420	19.892	2.521	0.499
210.000	175.663	80.001	19.995	100.426	19.895	2.301	0.540
212.000	176.635	79.993	19.996	100.427	19.894	2.402	0.495
214.000	177.668	80.009	19.995	100.418	19.891	2.584	0.522
216.000	178.668	80.000	19.996	100.418	19.895	2.296	0.530
218.000	179.659	79.990	19.998	100.412	19.895	2.332	0.515
220.000	180.648	79.983	19.998	100.405	19.899	2.072	0.484
222.000	181.645	80.007	19.994	100.414	19.894	2.400	0.471
224.000	182.662	80.001	19.995	100.419	19.896	2.235	0.469
226.000	183.628	80.000	19.995	100.405	19.898	2.147	0.510
228.000	184.585	79.996	19.996	100.405	19.899	2.083	0.458
230.000	185.646	79.989	19.997	100.411	19.894	2.382	0.511
232.000	186.657	79.999	19.995	100.411	19.895	2.356	0.501
234.000	187.707	79.994	19.995	100.408	19.899	2.022	0.494
236.000	188.643	80.002	19.994	100.412	19.895	2.307	0.480
238.000	189.608	79.999	19.995	100.414	19.899	2.062	0.501
240.000	190.648	79.999	19.995	100.398	19.901	1.949	0.511
242.000	191.644	80.009	19.995	100.397	19.903	1.767	0.502
244.000	192.540	79.987	19.997	100.402	19.900	1.983	0.501
246.000	193.588	79.999	19.995	100.399	19.902	1.840	0.509
248.000	194.529	80.010	19.994	100.396	19.902	1.881	0.467
250.001	195.530	80.000	19.995	100.395	19.900	2.013	0.471
252.000	196.501	80.005	19.996	100.381	19.908	1.414	0.502
254.000	197.467	80.003	19.996	100.390	19.905	1.642	0.506
256.000	198.454	80.013	19.994	100.385	19.900	1.970	0.464
258.000	199.432	80.008	19.994	100.384	19.904	1.721	0.493
260.000	200.455	79.998	19.995	100.392	19.903	1.754	0.494
262.000	201.398	79.997	19.995	100.386	19.904	1.732	0.499
264.000	202.363	80.005	19.995	100.392	19.904	1.721	0.487
266.000	203.373	80.008	19.995	100.390	19.909	1.402	0.504
268.000	204.274	80.002	19.995	100.384	19.903	1.763	0.451
270.000	205.277	80.003	19.993	100.385	19.904	1.699	0.464
272.000	206.274	80.004	19.995	100.385	19.900	2.011	0.518
274.000	207.243	80.004	19.994	100.382	19.905	1.664	0.496
276.000	208.251	80.005	19.994	100.383	19.903	1.750	0.502
278.000	209.212	80.003	19.996	100.385	19.906	1.548	0.524
280.000	210.187	80.009	19.995	100.396	19.906	1.554	0.490
282.000	211.177	80.001	19.996	100.387	19.905	1.647	0.500
284.000	212.125	79.998	19.996	100.386	19.904	1.714	0.506
286.000	213.129	79.996	19.996	100.391	19.908	1.451	0.510
288.000	214.104	79.998	19.995	100.383	19.903	1.776	0.507
290.000	215.053	79.997	19.995	100.380	19.908	1.435	0.481
292.000	216.058	79.999	19.996	100.381	19.909	1.341	0.506
294.000	216.993	79.996	19.995	100.385	19.906	1.569	0.467
296.000	218.027	80.009	19.994	100.383	19.907	1.537	0.517
298.000	218.955	79.990	19.997	100.388	19.909	1.383	0.463
300.000	219.946	80.003	19.994	100.381	19.911	1.255	0.507
302.000	220.891	79.997	19.996	100.388	19.906	1.602	0.497
304.000	221.888	79.999	19.995	100.385	19.909	1.341	0.493
306.000	222.897	79.988	19.997	100.382	19.909	1.356	0.522
308.000	223.881	80.006	19.996	100.378	19.905	1.664	0.536
310.000	224.829	79.990	19.998	100.382	19.903	1.763	0.496
312.000	225.800	79.994	19.998	100.379	19.904	1.743	0.455
314.000	226.840	80.007	19.995	100.378	19.904	1.714	0.510
316.000	227.793	79.991	19.997	100.383	19.907	1.526	0.486
318.000	228.776	79.995	19.997	100.365	19.905	1.677	0.526
320.000	229.751	79.998	19.996	100.377	19.907	1.517	0.492
322.000	230.747	80.004	19.994	100.377	19.905	1.620	0.493
324.000	231.725	80.001	19.995	100.384	19.906	1.605	0.478
326.000	232.700	80.002	19.996	100.380	19.907	1.536	0.482
328.000	233.717	79.997	19.997	100.379	19.906	1.570	0.491
330.000	234.737	80.011	19.994	100.378	19.908	1.436	0.511
332.000	235.622	79.998	19.995	100.382	19.906	1.561	0.491
334.000	236.642	79.993	19.996	100.378	19.907	1.478	0.516
336.000	237.607	80.000	19.995	100.378	19.909	1.387	0.487
338.000	238.619	80.002	19.995	100.373	19.910	1.310	0.501
340.000	239.562	80.004	19.995	100.373	19.906	1.557	0.470
342.000	240.504	80.001	19.995	100.374	19.910	1.282	0.450
344.000	241.555	80.000	19.994	100.370	19.909	1.376	0.488
346.000	242.533	80.004	19.995	100.369	19.909	1.343	0.490
348.000	243.496	80.000	19.996	100.370	19.910	1.291	0.493
350.000	244.440	80.001	19.996	100.369	19.910	1.278	0.487
352.000	245.464	80.001	19.994	100.358	19.911	1.251	0.487
354.000	246.458	80.001	19.995	100.371	19.912	1.181	0.501
356.000	247.452	80.003	19.994	100.363	19.909	1.405	0.519
358.000	248.402	80.000	19.995	100.370	19.910	1.276	0.505
360.000	249.405	79.999	19.996	100.366	19.911	1.266	0.518
362.000	250.443	79.999	19.995	100.365	19.910	1.319	0.530
364.000	251.374	80.001	19.995	100.363	19.912	1.159	0.460
366.000	252.387	80.000	19.994	100.373	19.913	1.132	0.510
368.000	253.367	80.001	19.995	100.357	19.913	1.073	0.482
370.000	254.316	79.999	19.994	100.356	19.909	1.352	0.468
372.000	255.305	79.994	19.997	100.369	19.910	1.335	0.511
374.000	256.287	79.999	19.996	100.365	19.916	0.866	0.508
376.000	257.246	80.001	19.996	100.371	19.913	1.102	0.483
378.000	258.279	80.001	19.996	100.353	19.913	1.089	0.527
380.000	259.227	79.999	19.997	100.350	19.917	0.845	0.518
382.000	260.199	80.000	19.996	100.352	19.915	0.934	0.492
384.000	261.156	80.001	19.995	100.365	19.912	1.137	0.520
386.000	262.114	80.000	19.995	100.357	19.914	1.025	0.478
388.000	263.104	80.001	19.995	100.347	19.913	1.071	0.488
390.000	264.089	80.000	19.996	100.350	19.916	0.871	0.551
392.000	265.045	79.996	19.996	100.351	19.916	0.880	0.492
394.000	266.006	80.001	19.997	100.353	19.915	0.961	0.478
396.000	266.994	79.996	19.996	100.356	19.916	0.866	0.482
398.000	267.979	79.998	19.997	100.354	19.918	0.756	0.472
400.000	268.949	80.002	19.996	100.344	19.917	0.845	0.482
402.000	269.953	79.999	19.996	100.346	19.919	0.671	0.508
404.000	270.964	79.999	19.997	100.346	19.921	0.587	0.500
406.000	271.953	79.998	19.996	100.343	19.921	0.563	0.516
408.000	272.996	79.999	19.997	100.345	19.919	0.693	0.471
410.000	273.946	80.000	19.997	100.344	19.920	0.609	0.521
412.000	274.954	80.003	19.995	100.344	19.922	0.493	0.509
414.000	275.898	80.002	19.996	100.344	19.920	0.602	0.487
416.000	276.883	80.002	19.995	100.345	19.917	0.840	0.482
418.000	277.867	80.001	19.995	100.347	19.918	0.768	0.510
420.000	278.831	80.002	19.995	100.346	19.922	0.466	0.486
422.000	279.815	80.002	19.994	100.344	19.921	0.545	0.500
424.000	280.813	80.000	19.995	100.343	19.920	0.647	0.478
426.000	281.768	80.001	19.994	100.345	19.920	0.594	0.491
428.000	282.732	80.002	19.995	100.343	19.920	0.635	0.487
430.000	283.706	80.001	19.995	100.346	19.918	0.737	0.493
432.000	284.696	80.002	19.994	100.346	19.923	0.409	0.482
434.000	285.676	80.000	19.995	100.346	19.917	0.811	0.470
436.000	286.646	80.002	19.996	100.346	19.918	0.785	0.475
438.000	287.667	80.001	19.995	100.343	19.920	0.611	0.508
440.000	288.595	80.004	19.995	100.342	19.919	0.679	0.495
442.000	289.604	80.001	19.994	100.341	19.919	0.658	0.470
444.000	290.584	80.001	19.995	100.342	19.918	0.787	0.498
446.000	291.599	79.999	19.994	100.342	19.920	0.636	0.497
448.000	292.552	80.002	19.995	100.342	19.923	0.433	0.474
450.000	293.540	80.001	19.994	100.341	19.921	0.539	0.498
452.000	294.487	80.002	19.994	100.341	19.923	0.385	0.491
454.000	295.472	80.001	19.995	100.337	19.923	0.418	0.483
456.000	296.458	80.001	19.994	100.340	19.923	0.403	0.481
458.000	297.432	80.001	19.994	100.341	19.923	0.442	0.460
460.000	298.501	80.001	19.996	100.336	19.927	0.150	0.508
462.000	299.483	80.002	19.996	100.334	19.926	0.229	0.507
464.000	300.465	79.999	19.996	100.339	19.922	0.499	0.501
466.000	301.416	80.001	19.995	100.334	19.922	0.458	0.454
468.000	302.426	79.992	19.996	100.342	19.922	0.508	0.471
470.000	303.439	79.999	19.997	100.334	19.925	0.282	0.512
472.000	304.412	80.001	19.995	100.338	19.923	0.424	0.485
474.000	305.425	80.000	19.996	100.337	19.922	0.491	0.534
476.000	306.427	79.997	19.996	100.339	19.923	0.402	0.488
478.000	307.398	80.000	19.994	100.337	19.923	0.420	0.485
480.000	308.403	80.000	19.996	100.339	19.924	0.328	0.455
482.000	309.431	79.999	19.994	100.337	19.923	0.387	0.507
484.000	310.464	80.000	19.996	100.338	19.923	0.427	0.523
486.000	311.440	80.000	19.995	100.342	19.923	0.414	0.517
488.000	312.474	80.002	19.996	100.342	19.921	0.524	0.542
490.000	313.451	80.000	19.996	100.336	19.922	0.464	0.496
492.000	314.502	79.999	19.996	100.339	19.921	0.541	0.481
494.000	315.526	80.000	19.996	100.340	19.922	0.497	0.491
496.000	316.550	80.002	19.996	100.337	19.924	0.378	0.543
498.000	317.524	80.000	19.995	100.337	19.925	0.262	0.476
500.000	318.550	79.999	19.997	100.332	19.922	0.466	0.511
502.000	319.614	80.000	19.996	100.338	19.925	0.277	0.521
504.000	320.616	80.002	19.995	100.335	19.923	0.434	0.508
506.000	321.598	80.000	19.996	100.328	19.924	0.372	0.492
508.000	322.624	79.999	19.997	100.317	19.922	0.513	0.496
510.000	323.659	80.001	19.995	100.313	19.923	0.431	0.496
512.000	324.686	80.000	19.994	100.315	19.922	0.489	0.540
514.000	325.662	80.004	19.992	100.313	19.922	0.471	0.509
516.000	326.743	80.006	19.993	100.316	19.925	0.290	0.529
518.000	327.733	80.003	19.996	100.324	19.927	0.147	0.489
520.000	328.736	80.004	19.996	100.314	19.922	0.493	0.502
522.000	329.749	80.002	19.995	100.303	19.921	0.526	0.474
524.000	330.753	80.003	19.994	100.304	19.921	0.535	0.522
526.000	331.788	80.001	19.995	100.307	19.924	0.328	0.491
528.000	332.812	80.000	19.995	100.308	19.926	0.240	0.511
530.000	333.822	80.002	19.995	100.310	19.921	0.522	0.528
532.000	334.841	80.000	19.997	100.307	19.922	0.477	0.481
534.000	335.838	80.002	19.995	100.303	19.926	0.213	0.496
536.000	336.855	80.002	19.995	100.304	19.926	0.247	0.507
538.000	337.878	80.003	19.993	100.309	19.923	0.427	0.510
540.000	338.948	80.002	19.995	100.308	19.921	0.543	0.519
542.000	339.959	80.001	19.992	100.314	19.924	0.326	0.494
544.000	340.951	80.002	19.993	100.310	19.922	0.488	0.513
546.000	341.980	80.004	19.993	100.310	19.924	0.325	0.518
548.000	342.969	80.001	19.997	100.309	19.926	0.182	0.499
550.000	344.006	80.002	19.994	100.307	19.929	0.026	0.526
552.000	345.012	80.001	19.992	100.309	19.923	0.420	0.516
554.000	346.035	80.000	19.997	100.315	19.925	0.271	0.484
556.000	347.069	79.999	19.998	100.329	19.926	0.183	0.506
558.000	348.128	80.000	19.996	100.310	19.925	0.268	0.511
560.000	349.130	79.996	19.998	100.314	19.928	0.046	0.497
562.000	350.158	79.996	19.998	100.308	19.927	0.123	0.511
564.000	351.170	79.996	20.001	100.310	19.927	0.128	0.489
566.000	352.206	79.995	19.992	100.306	19.929	0.011	0.566
568.000	353.223	79.999	19.994	100.308	19.927	0.121	0.514
570.000	354.224	80.001	19.996	100.307	19.929	-0.009	0.506
572.000	355.205	80.001	19.996	100.303	19.929	0.009	0.506
574.000	356.226	80.000	19.995	100.302	19.929	0.020	0.488
576.000	357.218	79.998	20.002	100.303	19.928	0.092	0.495
578.000	358.231	80.004	19.992	100.304	19.926	0.238	0.513
580.000	359.202	80.004	19.997	100.301	19.930	-0.044	0.467
582.000	360.241	80.001	19.994	100.300	19.926	0.194	0.476
584.000	361.227	79.996	19.997	100.300	19.925	0.288	0.521
586.000	362.224	80.003	19.997	100.301	19.928	0.071	0.514
588.000	363.213	79.999	19.996	100.302	19.929	-0.011	0.511
590.000	364.202	80.003	19.989	100.305	19.928	0.108	0.482
592.000	365.182	79.992	20.002	100.303	19.929	0.004	0.512
594.000	366.227	80.002	19.991	100.299	19.923	0.418	0.503
596.000	367.141	80.005	19.994	100.300	19.927	0.145	0.488
598.000	368.180	80.004	19.998	100.298	19.928	0.112	0.535
600.000	369.183	80.007	19.993	100.297	19.926	0.236	0.514
602.000	370.189	80.008	19.991	100.302	19.931	-0.097	0.504
604.000	371.184	80.000	19.995	100.299	19.929	-0.009	0.494
606.000	372.201	79.997	19.999	100.296	19.928	0.082	0.501
608.000	373.202	80.001	19.993	100.303	19.926	0.183	0.522
610.000	374.234	79.998	19.998	100.307	19.925	0.275	0.526
612.000	375.250	80.002	19.993	100.306	19.924	0.363	0.545
614.000	376.272	80.000	19.995	100.306	19.926	0.229	0.511
616.000	377.258	80.000	19.989	100.308	19.925	0.313	0.487
618.000	378.253	80.001	19.994	100.308	19.927	0.126	0.480
620.000	379.257	80.001	19.994	100.305	19.926	0.244	0.516
622.000	380.316	79.996	19.996	100.307	19.924	0.348	0.505
624.000	381.307	79.999	19.992	100.302	19.927	0.148	0.510
626.000	382.272	80.004	19.989	100.309	19.926	0.198	0.503
628.000	383.290	80.006	19.995	100.312	19.927	0.123	0.491
630.000	384.288	79.999	19.996	100.311	19.923	0.392	0.508
632.000	385.338	80.000	19.997	100.310	19.924	0.328	0.530
634.000	386.343	80.000	19.989	100.304	19.922	0.464	0.509
636.000	387.367	79.999	20.001	100.305	19.925	0.255	0.522
638.000	388.372	80.005	19.998	100.305	19.923	0.401	0.478
640.000	389.444	80.003	19.993	100.306	19.925	0.291	0.501
642.000	390.499	79.998	20.003	100.305	19.920	0.642	0.494
644.000	391.575	79.995	20.003	100.299	19.923	0.440	0.553
646.000	392.565	79.995	20.002	100.300	19.918	0.772	0.514
648.000	393.663	80.003	19.993	100.302	19.921	0.543	0.522
650.000	394.726	80.000	19.999	100.302	19.916	0.902	0.515
652.000	395.815	80.008	19.995	100.292	19.918	0.783	0.522
654.000	396.865	80.002	19.997	100.295	19.914	1.054	0.546
656.000	397.872	80.000	20.003	100.282	19.911	1.228	0.462
658.000	398.901	80.003	20.000	100.293	19.915	0.984	0.493
660.000	399.938	79.995	19.999	100.271	19.909	1.362	0.483
662.000	400.959	80.002	20.000	100.281	19.912	1.164	0.502
664.000	401.925	79.999	20.000	100.289	19.912	1.133	0.464
666.000	402.943	79.999	19.999	100.275	19.910	1.322	0.465
668.000	403.991	80.003	19.989	100.277	19.906	1.606	0.490
670.000	404.991	80.002	19.993	100.286	19.906	1.554	0.513
672.000	405.969	80.003	19.996	100.288	19.901	1.899	0.501
674.000	407.025	80.004	19.995	100.292	19.900	1.965	0.509
676.000	408.034	79.998	19.992	100.303	19.898	2.128	0.511
678.000	409.074	80.003	19.993	100.286	19.900	2.009	0.539
680.000	410.110	80.000	19.995	100.292	19.895	2.326	0.550
682.000	411.132	79.996	19.997	100.294	19.895	2.304	0.511
684.000	412.126	79.998	20.002	100.291	19.891	2.593	0.512
686.000	413.152	79.998	19.996	100.293	19.890	2.655	0.495
688.000	414.130	79.999	19.999	100.292	19.887	2.864	0.469
690.000	415.128	79.997	19.994	100.279	19.884	3.086	0.483
692.000	416.144	80.001	19.991	100.274	19.879	3.383	0.533
694.000	417.184	80.001	19.995	100.275	19.876	3.619	0.523
696.000	418.156	79.999	19.996	100.272	19.873	3.804	0.487
698.000	419.171	79.999	19.996	100.269	19.866	4.301	0.501
700.000	420.178	80.000	19.995	100.269	19.863	4.501	0.490
702.000	421.127	80.001	19.996	100.271	19.857	4.893	0.461
704.000	422.120	80.000	19.994	100.272	19.852	5.217	0.464
706.000	423.088	80.001	19.995	100.266	19.845	5.730	0.497
708.000	424.051	79.999	19.996	100.266	19.837	6.285	0.464
710.000	425.075	80.000	19.995	100.265	19.831	6.682	0.505
712.000	426.008	80.002	19.994	100.265	19.826	7.033	0.486
714.000	426.985	80.000	19.996	100.265	19.819	7.462	0.501
716.000	428.003	79.999	19.996	100.269	19.805	8.409	0.489
718.000	428.987	80.002	19.995	100.266	19.792	9.346	0.505
720.000	429.984	80.000	19.995	100.268	19.783	9.943	0.495
722.000	430.992	79.999	19.996	100.270	19.767	11.042	0.510
724.000	431.983	80.000	19.996	100.268	19.758	11.623	0.527
726.000	433.002	80.001	19.996	100.268	19.743	12.635	0.508
728.000	434.034	80.000	19.994	100.266	19.731	13.509	0.556
730.000	435.026	80.000	19.995	100.266	19.718	14.365	0.471
732.000	436.024	80.000	19.996	100.261	19.700	15.570	0.492
734.000	437.036	79.999	19.996	100.260	19.690	16.259	0.483
736.000	438.026	80.001	19.994	100.266	19.677	17.161	0.494
738.000	439.029	80.001	19.997	100.266	19.665	17.979	0.503
740.000	440.000	80.001	19.994	100.263	19.649	19.043	0.477
742.000	441.028	80.002	19.994	100.264	19.632	20.208	0.506
744.000	441.994	80.001	19.995	100.262	19.613	21.489	0.443
746.000	442.973	79.999	19.996	100.260	19.594	22.791	0.475
748.000	443.956	79.999	19.995	100.265	19.573	24.196	0.483
750.000	444.950	80.001	19.996	100.248	19.548	25.938	0.482
752.000	445.947	80.001	19.996	100.235	19.527	27.319	0.485
754.000	446.957	79.999	19.995	100.247	19.497	29.350	0.497
756.000	447.956	80.002	19.995	100.248	19.469	31.251	0.505
758.000	448.975	80.001	19.993	100.239	19.438	33.408	0.517
760.000	449.942	80.001	19.994	100.230	19.402	35.842	0.497
762.000	450.944	80.002	19.995	100.240	19.360	38.669	0.503
764.000	451.901	80.004	19.995	100.240	19.323	41.197	0.500
766.000	452.905	80.001	19.995	100.236	19.277	44.340	0.481
768.000	453.931	80.001	19.995	100.234	19.229	47.569	0.489
770.000	454.883	80.001	19.996	100.226	19.173	51.445	0.522
772.000	455.898	80.000	19.996	100.226	19.112	55.528	0.536
774.000	456.912	79.999	19.995	100.223	19.040	60.441	0.509
776.000	457.893	79.995	19.996	100.224	18.967	65.389	0.521
778.000	458.894	80.001	19.997	100.225	18.877	71.530	0.507
780.000	459.873	80.000	19.997	100.231	18.767	78.950	0.456
782.000	460.999	80.000	19.996	100.258	18.650	86.914	0.544
784.000	461.964	79.999	19.997	100.236	18.532	94.898	0.481
786.000	463.018	79.997	20.000	100.223	18.395	104.194	0.516
788.000	464.054	79.999	19.990	100.207	18.245	114.417	0.528
790.000	465.076	80.001	19.995	100.196	18.090	124.928	0.519
792.000	466.095	80.001	19.997	100.186	17.935	135.361	0.513
794.000	467.104	80.002	19.995	100.155	17.777	146.065	0.518
796.000	468.159	80.000	19.996	100.128	17.605	157.710	0.491
798.000	469.224	80.000	19.995	100.133	17.413	170.721	0.550
800.000	470.202	80.000	19.996	100.142	17.201	185.041	0.509
802.000	471.280	79.998	19.995	100.107	16.969	200.715	0.513
804.000	472.241	79.999	19.995	100.089	16.727	217.085	0.485
806.000	473.272	79.998	19.996	100.058	16.455	235.441	0.536
808.000	474.324	80.000	19.996	100.039	16.168	254.793	0.534
810.000	475.345	79.999	19.995	100.037	15.874	274.609	0.474
812.000	476.393	80.001	19.995	99.999	15.585	294.005	0.518
814.000	477.360	80.001	19.996	99.962	15.273	315.246	0.486
816.000	478.455	80.003	19.995	99.926	14.930	337.934	0.506
818.000	479.436	80.002	19.995	99.899	14.562	362.540	0.504
820.000	480.463	80.001	19.995	99.852	14.171	388.442	0.518
822.000	481.452	80.003	19.994	99.803	13.768	414.997	0.489
824.000	482.474	80.000	19.994	99.816	13.342	443.251	0.504
826.000	483.466	80.000	19.995	99.792	12.886	473.663	0.546
828.000	484.447	80.001	19.994	99.627	12.427	504.239	0.512
830.000	485.469	80.001	19.995	99.537	11.967	534.397	0.528
832.000	486.440	80.002	19.995	99.388	11.516	563.836	0.489
834.000	487.492	79.999	19.998	99.236	11.050	594.835	0.513
836.000	488.523	79.999	19.996	99.181	10.603	625.587	0.534
838.000	489.529	80.001	19.996	99.134	10.183	652.415	0.543
840.000	490.520	80.003	19.993	99.036	9.800	675.074	0.523
842.000	491.520	80.003	19.996	98.892	9.456	697.889	0.484
844.000	492.492	80.003	19.994	98.765	9.097	723.589	0.476
846.000	493.517	80.002	19.995	98.831	8.805	744.030	0.511
848.000	494.544	80.004	19.996	98.870	8.737	749.108	0.507
850.000	495.559	80.006	19.994	98.442	8.832	743.044	0.517
852.000	496.641	80.000	19.993	98.201	9.093	726.308	0.518
854.000	497.662	80.000	19.995	98.371	9.499	699.586	0.514
856.000	498.696	80.000	19.996	98.552	10.027	665.778	0.521
858.000	499.748	80.001	19.995	98.656	10.677	623.317	0.540
860.000	500.794	80.001	19.995	98.691	11.451	572.035	0.566
862.000	501.833	79.999	19.997	98.761	12.308	514.975	0.497
864.000	502.889	80.000	19.996	98.870	13.217	454.475	0.556
866.000	503.951	79.998	19.996	98.981	14.126	393.491	0.502
868.000	505.046	80.001	19.995	99.245	15.025	332.919	0.547
870.000	506.127	79.999	19.996	99.404	15.868	275.907	0.509
872.000	507.212	80.000	19.995	99.549	16.630	224.231	0.532
874.000	508.307	80.002	19.996	99.723	17.302	178.599	0.532
876.000	509.374	80.002	19.995	99.905	17.871	139.937	0.545
878.000	510.464	80.000	19.996	100.035	18.347	107.620	0.535
880.000	511.489	80.000	19.994	100.141	18.736	81.143	0.477
882.000	512.559	79.999	19.996	100.205	19.042	60.331	0.541
884.000	513.628	80.001	19.995	100.228	19.282	43.964	0.530
886.000	514.713	80.000	19.996	100.245	19.463	31.696	0.522
888.000	515.809	79.999	19.996	100.269	19.599	22.384	0.531
890.000	516.858	80.001	19.991	100.275	19.697	15.618	0.553
892.000	517.892	79.999	19.996	100.268	19.769	10.839	0.529
894.000	518.973	80.000	19.996	100.249	19.816	7.655	0.531
896.000	519.988	79.999	19.993	100.225	19.849	5.424	0.497
898.000	521.077	80.005	19.993	100.165	19.879	3.426	0.532
900.000	522.090	80.003	19.995	99.527	19.891	2.585	0.549
902.000	523.161	80.003	19.995	99.545	19.903	1.779	0.532
904.000	524.154	80.003	19.996	100.024	19.908	1.467	0.490
906.000	525.168	80.004	19.996	100.099	19.915	0.929	0.495
908.000	526.207	80.002	19.995	100.091	19.920	0.639	0.528
910.000	527.224	80.002	19.996	100.102	19.924	0.375	0.537
912.000	528.244	80.003	19.995	100.215	19.928	0.110	0.536
914.000	529.239	80.002	19.995	100.224	19.930	-0.042	0.500
916.000	530.231	80.004	19.994	100.221	19.931	-0.135	0.464
918.000	531.213	80.003	19.994	100.196	19.930	-0.046	0.472
920.000	532.249	80.003	19.994	100.187	19.930	-0.082	0.487
922.000	533.199	80.002	19.994	100.185	19.932	-0.205	0.504
924.000	534.208	80.003	19.998	100.185	19.932	-0.187	0.509
926.000	535.238	80.003	19.994	100.187	19.934	-0.339	0.503
928.000	536.220	80.003	19.995	100.187	19.933	-0.275	0.485
930.000	537.158	80.002	19.994	100.196	19.934	-0.352	0.474
932.000	538.188	80.001	19.996	100.192	19.932	-0.167	0.497
934.000	539.133	79.998	19.995	100.210	19.934	-0.361	0.516
936.000	540.136	80.000	19.996	100.214	19.940	-0.758	0.492
938.000	541.074	80.000	19.996	100.218	19.937	-0.513	0.482
940.000	542.115	80.000	19.995	100.226	19.940	-0.762	0.479
942.000	543.100	80.000	19.995	100.227	19.939	-0.674	0.513
944.000	544.129	80.001	19.995	100.227	19.940	-0.738	0.483
946.000	545.124	80.000	19.995	100.231	19.942	-0.850	0.501
948.000	546.115	80.000	19.995	100.233	19.942	-0.843	0.498
950.000	547.174	80.002	19.995	100.240	19.936	-0.486	0.529
952.000	548.171	80.000	19.996	100.254	19.936	-0.464	0.521
954.000	549.198	80.000	19.995	100.262	19.939	-0.682	0.522
956.000	550.186	80.000	19.996	100.263	19.940	-0.771	0.478
958.000	551.158	80.000	19.997	100.261	19.941	-0.786	0.473
960.000	552.206	80.001	19.997	100.254	19.944	-1.024	0.499
962.000	553.237	80.001	19.996	100.259	19.941	-0.792	0.530
964.000	554.235	79.999	19.997	100.262	19.941	-0.777	0.506
966.000	555.252	80.000	19.996	100.259	19.942	-0.883	0.498
968.000	556.288	79.999	19.996	100.262	19.940	-0.720	0.501
970.000	557.321	80.002	19.996	100.262	19.942	-0.876	0.506
972.000	558.363	80.000	19.994	100.260	19.943	-0.916	0.548
974.000	559.424	80.001	19.994	100.265	19.942	-0.861	0.524
976.000	560.428	80.001	19.996	100.264	19.943	-0.938	0.536
978.000	561.456	80.002	19.996	100.264	19.944	-1.033	0.504
980.000	562.527	80.003	19.995	100.264	19.945	-1.057	0.529
982.000	563.586	80.002	19.996	100.264	19.943	-0.969	0.549
984.000	564.585	80.004	19.996	100.263	19.942	-0.876	0.536
986.000	565.648	80.004	19.995	100.262	19.942	-0.881	0.520
988.000	566.704	80.004	19.995	100.263	19.942	-0.874	0.526
990.000	567.752	80.002	19.995	100.263	19.947	-1.191	0.529
992.000	568.736	80.001	19.995	100.264	19.940	-0.771	0.496
994.000	569.818	80.001	19.994	100.265	19.943	-0.936	0.538
996.000	570.851	80.002	19.994	100.266	19.945	-1.083	0.494
998.000	571.861	80.003	19.995	100.267	19.945	-1.045	0.524
1000.000	572.909	80.004	19.994	100.267	19.942	-0.850	0.524
1002.000	573.943	80.004	19.994	100.267	19.940	-0.746	0.559
1004.000	575.082	80.003	19.995	100.267	19.943	-0.944	0.543
1006.000	576.090	80.003	19.993	100.268	19.943	-0.962	0.550
1008.000	577.102	80.005	19.995	100.266	19.945	-1.085	0.500
1010.000	578.125	80.004	19.995	100.268	19.946	-1.176	0.508
1012.000	579.124	80.002	19.995	100.267	19.945	-1.079	0.509
1014.000	580.136	80.002	19.995	100.268	19.946	-1.140	0.478
1016.000	581.167	80.000	19.995	100.269	19.944	-0.990	0.543
1018.000	582.156	79.999	19.995	100.274	19.941	-0.812	0.510
1020.000	583.185	80.001	19.995	100.271	19.945	-1.076	0.511
1022.000	584.161	80.000	19.996	100.266	19.943	-0.975	0.511
1024.000	585.191	80.001	19.995	100.265	19.945	-1.096	0.501
1026.001	586.185	80.001	19.996	100.264	19.945	-1.107	0.508
1028.000	587.216	80.001	19.996	100.266	19.944	-1.010	0.503
1030.000	588.224	80.001	19.996	100.265	19.946	-1.176	0.518
1032.000	589.188	80.001	19.995	100.266	19.944	-1.035	0.482
1034.000	590.193	80.001	19.996	100.275	19.947	-1.241	0.516
1036.000	591.169	80.000	19.996	100.269	19.946	-1.118	0.496
1038.000	592.174	80.002	19.996	100.266	19.945	-1.070	0.502
1040.000	593.176	80.001	19.996	100.267	19.948	-1.253	0.521
1042.000	594.172	80.002	19.995	100.269	19.947	-1.232	0.530
1044.000	595.217	80.000	19.996	100.272	19.948	-1.307	0.484
1046.000	596.230	80.000	19.997	100.266	19.946	-1.155	0.502
1048.000	597.252	79.999	19.997	100.270	19.944	-1.017	0.535
1050.000	598.217	80.000	19.997	100.266	19.946	-1.166	0.481
1052.000	599.223	79.999	19.996	100.271	19.947	-1.189	0.510
1054.000	600.232	79.998	19.997	100.280	19.945	-1.094	0.486
1056.000	601.254	80.001	19.996	100.265	19.946	-1.140	0.534
1058.000	602.267	80.002	19.996	100.273	19.944	-0.997	0.485
1060.000	603.274	80.001	19.996	100.283	19.946	-1.153	0.506
1062.000	604.246	80.002	19.994	100.282	19.946	-1.179	0.497
1064.000	605.211	80.003	19.996	100.282	19.946	-1.175	0.463
1066.000	606.232	80.002	19.995	100.283	19.947	-1.236	0.469
1068.001	607.247	80.001	19.994	100.295	19.949	-1.366	0.476
1070.000	608.255	80.001	19.996	100.303	19.947	-1.237	0.505
1072.000	609.271	80.001	19.995	100.287	19.946	-1.118	0.524
1074.000	610.292	80.001	19.995	100.293	19.943	-0.957	0.479
1076.000	611.321	80.001	19.994	100.304	19.949	-1.333	0.530
1078.001	612.356	80.001	19.994	100.307	19.948	-1.298	0.529
1080.000	613.399	80.002	19.995	100.301	19.948	-1.283	0.529
1082.000	614.466	80.002	19.995	100.306	19.949	-1.331	0.543
1084.000	615.496	80.003	19.995	100.304	19.947	-1.219	0.510
1086.000	616.533	80.004	19.995	100.304	19.948	-1.287	0.530
1088.000	617.502	80.003	19.995	100.304	19.945	-1.087	0.465
1090.000	618.583	80.003	19.995	100.303	19.946	-1.160	0.529
1092.000	619.609	80.004	19.994	100.306	19.944	-1.027	0.521
1094.000	620.644	80.002	19.996	100.305	19.945	-1.082	0.526
1096.000	621.650	80.002	19.995	100.304	19.946	-1.153	0.512
1098.000	622.697	80.001	19.995	100.309	19.945	-1.080	0.489
1100.001	623.747	80.002	19.996	100.311	19.944	-0.983	0.537
1102.000	624.755	80.002	19.996	100.312	19.942	-0.858	0.515
1104.000	625.774	80.001	19.996	100.319	19.944	-1.027	0.491
1106.000	626.861	80.000	19.995	100.322	19.942	-0.854	0.530
1108.000	627.893	80.001	19.996	100.311	19.944	-0.984	0.519
1110.000	628.992	80.001	19.995	100.317	19.945	-1.102	0.575
1112.000	629.987	80.002	19.995	100.314	19.945	-1.095	0.506
1114.000	630.978	80.001	19.995	100.310	19.946	-1.120	0.488
1116.000	631.996	80.002	19.997	100.288	19.943	-0.939	0.521
1118.000	633.050	80.002	19.995	100.291	19.945	-1.107	0.520
1120.000	634.062	80.000	19.995	100.323	19.942	-0.895	0.514
1122.000	635.132	80.000	19.996	100.321	19.944	-1.039	0.510
1124.000	636.184	80.001	19.995	100.313	19.944	-1.034	0.525
1126.000	637.212	80.000	19.996	100.328	19.944	-1.043	0.501
1128.000	638.261	80.000	19.995	100.304	19.943	-0.957	0.498
1130.000	639.302	80.002	19.996	100.310	19.944	-0.977	0.526
1132.000	640.329	80.000	19.995	100.310	19.945	-1.100	0.539
1134.000	641.373	80.001	19.996	100.308	19.945	-1.069	0.530
1136.000	642.407	80.002	19.996	100.313	19.943	-0.921	0.510
1138.001	643.491	79.999	19.997	100.324	19.940	-0.759	0.554
1140.001	644.494	80.001	19.996	100.327	19.943	-0.961	0.494
1142.000	645.565	80.001	19.996	100.331	19.947	-1.214	0.524
1144.000	646.566	80.002	19.996	100.327	19.943	-0.921	0.511
1146.000	647.620	80.002	19.996	100.341	19.943	-0.944	0.505
1148.000	648.648	80.003	19.996	100.344	19.941	-0.833	0.490
1150.000	649.759	80.002	19.995	100.342	19.942	-0.880	0.553
1152.000	650.760	80.002	19.996	100.344	19.939	-0.704	0.478
1154.000	651.811	80.003	19.995	100.345	19.936	-0.449	0.510
1156.001	652.886	80.003	19.995	100.344	19.937	-0.565	0.532
1158.000	653.922	80.002	19.995	100.346	19.940	-0.770	0.507
1160.000	655.007	80.002	19.995	100.347	19.939	-0.640	0.516
1162.001	656.028	80.002	19.995	100.361	19.937	-0.528	0.559
1164.000	657.069	80.004	19.996	100.369	19.937	-0.521	0.529
1166.000	658.080	80.004	19.995	100.362	19.937	-0.550	0.498
1168.000	659.075	80.004	19.995	100.355	19.940	-0.706	0.492
1170.000	660.117	80.004	19.995	100.361	19.936	-0.499	0.511
1172.000	661.203	80.004	19.995	100.356	19.933	-0.255	0.502
1174.000	662.223	80.004	19.996	100.391	19.933	-0.277	0.509
1176.000	663.230	80.001	19.995	100.370	19.934	-0.327	0.501
1178.000	664.215	80.001	19.996	100.372	19.934	-0.347	0.505
1180.000	665.240	80.002	19.996	100.381	19.940	-0.712	0.507
1182.000	666.241	80.001	19.995	100.382	19.933	-0.281	0.518
1184.000	667.242	80.001	19.995	100.387	19.937	-0.556	0.487
1186.000	668.274	80.000	19.994	100.390	19.935	-0.374	0.501
1188.000	669.223	80.001	19.994	100.394	19.931	-0.136	0.470
1190.000	670.307	80.000	19.995	100.408	19.934	-0.340	0.522
1192.000	671.286	80.002	19.995	100.397	19.936	-0.481	0.504
1194.001	672.247	80.001	19.996	100.405	19.933	-0.286	0.503
1196.000	673.233	80.002	19.995	100.417	19.937	-0.523	0.454
1198.000	674.243	80.002	19.995	100.414	19.937	-0.565	0.494
1200.000	675.244	80.000	19.996	100.420	19.936	-0.499	0.479
1202.000	676.192	79.999	19.995	100.424	19.933	-0.235	0.455
1204.000	677.212	80.000	19.996	100.424	19.934	-0.316	0.467
1206.000	678.219	79.999	19.995	100.424	19.931	-0.156	0.522
1208.000	679.192	80.001	19.995	100.428	19.925	0.285	0.467
1210.000	680.174	79.999	19.996	100.429	19.930	-0.057	0.485
1212.000	681.164	80.001	19.996	100.439	19.928	0.079	0.484
1214.000	682.181	80.000	19.996	100.436	19.927	0.123	0.473
1216.000	683.162	80.000	19.995	100.437	19.925	0.263	0.505
1218.000	684.142	80.001	19.995	100.442	19.925	0.288	0.466
1220.001	685.110	80.001	19.996	100.450	19.923	0.386	0.478
1222.000	686.115	80.002	19.996	100.451	19.923	0.391	0.510
1224.000	687.123	80.003	19.995	100.455	19.925	0.266	0.511
1226.000	688.067	80.003	19.995	100.459	19.923	0.448	0.472
1228.000	689.064	80.002	19.995	100.459	19.920	0.630	0.491
1230.001	690.047	80.003	19.995	100.459	19.920	0.630	0.489
1232.001	691.024	80.002	19.996	100.459	19.922	0.472	0.459
1234.000	691.995	80.002	19.996	100.460	19.923	0.406	0.491
1236.000	692.966	80.001	19.997	100.463	19.926	0.233	0.512
1238.001	693.904	80.001	19.996	100.462	19.923	0.433	0.467
1240.000	694.931	80.001	19.997	100.463	19.923	0.452	0.516
1242.000	695.887	80.002	19.996	100.475	19.916	0.869	0.479
1244.000	696.836	80.003	19.996	100.481	19.917	0.832	0.454
1246.000	697.905	80.003	19.995	100.487	19.920	0.652	0.538
1248.000	698.845	80.004	19.996	100.494	19.920	0.636	0.455
1250.000	699.828	80.004	19.995	100.493	19.919	0.703	0.492
1252.001	700.830	80.004	19.995	100.497	19.918	0.773	0.490
1254.000	701.764	80.003	19.995	100.501	19.917	0.843	0.464
1256.001	702.728	80.003	19.995	100.501	19.914	1.045	0.493
1258.000	703.723	80.002	19.994	100.502	19.912	1.165	0.479
1260.000	704.717	80.001	19.995	100.501	19.913	1.113	0.507
1262.000	705.662	80.001	19.996	100.501	19.914	1.025	0.471
1264.001	706.652	80.001	19.995	100.501	19.912	1.163	0.499
1266.000	707.649	79.999	19.996	100.504	19.911	1.211	0.509
1268.000	708.624	80.002	19.996	100.504	19.907	1.520	0.498
1270.000	709.594	80.002	19.995	100.515	19.911	1.244	0.488
1272.000	710.584	80.001	19.994	100.532	19.909	1.343	0.492
1274.000	711.592	80.000	19.995	100.533	19.910	1.290	0.502
1276.000	712.573	80.003	19.995	100.537	19.907	1.512	0.474
1278.000	713.583	80.003	19.994	100.535	19.910	1.305	0.498
1280.000	714.568	80.003	19.996	100.540	19.911	1.231	0.462
1282.000	715.616	80.003	19.995	100.536	19.911	1.215	0.509
1284.000	716.613	80.001	19.995	100.538	19.909	1.369	0.484
1286.000	717.630	80.002	19.995	100.539	19.909	1.399	0.490
1288.001	718.641	80.003	19.995	100.539	19.910	1.336	0.525
1290.000	719.674	80.002	19.996	100.543	19.909	1.349	0.518
1292.000	720.680	80.001	19.996	100.544	19.907	1.481	0.515
1294.000	721.721	80.000	19.996	100.544	19.907	1.507	0.511
1296.000	722.781	80.000	19.995	100.550	19.907	1.516	0.509
1298.000	723.817	80.000	19.996	100.564	19.908	1.425	0.514
1300.000	724.846	80.002	19.995	100.550	19.909	1.379	0.517
1302.001	725.877	80.001	19.996	100.558	19.915	0.965	0.522
1304.000	726.960	80.003	19.996	100.568	19.911	1.226	0.543
1306.000	727.963	80.003	19.996	100.561	19.910	1.300	0.530
1308.000	729.007	80.003	19.995	100.567	19.907	1.513	0.517
1310.000	730.055	80.004	19.995	100.574	19.906	1.546	0.511
1312.000	731.103	80.003	19.995	100.567	19.910	1.283	0.524
1314.000	732.194	80.001	19.996	100.575	19.903	1.778	0.538
1316.000	733.224	80.002	19.996	100.577	19.901	1.930	0.559
1318.000	734.328	80.003	19.996	100.579	19.903	1.757	0.519
1320.000	735.358	80.003	19.996	100.580	19.900	1.974	0.459
1322.000	736.358	80.002	19.996	100.580	19.901	1.888	0.537
1324.000	737.366	80.002	19.996	100.579	19.901	1.921	0.511
1326.000	738.382	80.004	19.996	100.579	19.901	1.914	0.490
1328.000	739.475	80.003	19.996	100.578	19.902	1.877	0.510
1330.001	740.535	80.004	19.997	100.584	19.898	2.147	0.559
1332.000	741.540	80.003	19.996	100.585	19.900	1.998	0.506
1334.000	742.559	80.004	19.997	100.580	19.900	1.971	0.511
1335.500	743.322	80.002	19.994	100.578	19.899	2.039	0.509