File: 01_Data/HDPE/MCC/HDPE_MCC_DataDF.csv
Temperature (C),HRR (W/g),Time_copy_1,HRR correction,R1,HRR (W/g),Time_copy_2,HRR correction,R2,HRR (W/g),Time_copy_3,HRR correction,R3
150.00,2.90,180.75,2.90,0.00,3.29,155.75,3.29,0.00,2.96,158.25,2.96,0.00
151.00,2.74,182.75,2.90,-0.15,3.20,157.75,3.30,-0.10,2.75,160.75,2.96,-0.21
152.00,2.85,184.75,2.90,-0.04,3.21,159.75,3.30,-0.09,2.74,162.75,2.96,-0.22
153.00,2.74,187.25,2.90,-0.16,3.12,161.75,3.31,-0.19,2.85,164.75,2.95,-0.10
154.00,2.73,189.25,2.90,-0.17,3.24,163.75,3.31,-0.07,2.93,166.75,2.95,-0.02
155.00,2.77,191.25,2.90,-0.12,3.22,165.75,3.32,-0.10,2.90,168.75,2.94,-0.05
156.00,2.75,193.25,2.90,-0.15,3.31,167.75,3.32,-0.01,2.73,170.75,2.94,-0.21
157.00,2.73,195.25,2.90,-0.17,3.15,169.75,3.33,-0.18,2.84,172.75,2.94,-0.10
158.00,2.62,197.75,2.90,-0.28,3.24,171.75,3.33,-0.09,3.16,174.75,2.93,0.23
159.00,2.82,199.75,2.90,-0.07,3.11,173.75,3.34,-0.23,2.65,176.75,2.93,-0.28
160.00,2.79,201.75,2.89,-0.11,3.04,176.25,3.34,-0.30,2.89,178.75,2.92,-0.03
161.00,2.73,203.75,2.89,-0.16,3.11,178.25,3.35,-0.23,2.84,180.75,2.92,-0.08
162.00,2.71,205.75,2.89,-0.19,3.16,180.25,3.35,-0.19,2.61,182.75,2.92,-0.30
163.00,2.76,208.25,2.89,-0.14,3.11,182.25,3.36,-0.25,2.63,184.75,2.91,-0.29
164.00,2.60,210.25,2.89,-0.29,2.87,184.25,3.36,-0.49,2.62,187.25,2.91,-0.29
165.00,2.59,212.25,2.89,-0.30,2.88,186.25,3.37,-0.49,2.66,188.75,2.90,-0.25
166.00,2.46,214.25,2.89,-0.43,2.74,188.25,3.37,-0.63,2.40,190.75,2.90,-0.50
167.00,2.61,216.25,2.89,-0.28,2.93,190.25,3.38,-0.45,2.53,193.25,2.90,-0.36
168.00,2.41,218.25,2.89,-0.48,3.09,192.25,3.39,-0.30,2.71,194.75,2.89,-0.18
169.00,2.48,220.25,2.89,-0.41,2.92,194.25,3.39,-0.47,2.45,196.75,2.89,-0.44
170.00,2.58,222.25,2.89,-0.31,2.70,196.25,3.40,-0.70,2.43,198.75,2.88,-0.46
171.00,2.59,224.25,2.89,-0.31,2.72,198.25,3.40,-0.68,2.36,200.75,2.88,-0.52
172.00,2.54,226.25,2.89,-0.35,2.84,200.25,3.41,-0.57,2.23,202.75,2.88,-0.65
173.00,2.51,228.25,2.89,-0.38,3.09,202.25,3.41,-0.32,2.30,204.75,2.87,-0.57
174.00,2.63,230.25,2.89,-0.26,2.98,204.25,3.42,-0.43,2.27,206.75,2.87,-0.60
175.00,2.44,232.25,2.89,-0.45,2.99,206.25,3.42,-0.44,2.42,208.75,2.86,-0.44
176.00,2.59,234.25,2.89,-0.30,3.01,208.25,3.43,-0.42,2.39,210.75,2.86,-0.47
177.00,2.56,236.75,2.89,-0.33,3.09,210.25,3.43,-0.34,2.42,212.75,2.86,-0.44
178.00,2.55,238.75,2.89,-0.34,3.06,212.25,3.44,-0.38,2.52,214.75,2.85,-0.33
179.00,2.43,240.75,2.89,-0.45,3.09,214.25,3.44,-0.35,2.24,216.75,2.85,-0.61
180.00,2.46,242.75,2.89,-0.43,2.89,216.25,3.45,-0.56,2.27,218.75,2.84,-0.58
181.00,2.31,244.75,2.89,-0.58,2.89,218.25,3.45,-0.57,2.35,220.75,2.84,-0.49
182.00,2.37,246.75,2.89,-0.52,2.92,220.25,3.46,-0.54,2.41,222.75,2.84,-0.42
183.00,2.48,248.75,2.89,-0.40,2.95,222.25,3.46,-0.52,2.32,224.75,2.83,-0.52
184.00,2.43,250.75,2.89,-0.46,2.98,224.25,3.47,-0.49,2.25,226.75,2.83,-0.58
185.00,2.42,252.75,2.89,-0.46,3.01,226.25,3.47,-0.46,2.32,228.75,2.82,-0.50
186.00,2.32,254.75,2.89,-0.56,3.07,228.25,3.48,-0.41,2.12,230.75,2.82,-0.70
187.00,2.38,256.75,2.89,-0.51,3.10,230.25,3.49,-0.38,2.07,232.75,2.82,-0.74
188.00,2.43,258.75,2.88,-0.45,3.19,232.25,3.49,-0.30,2.14,234.75,2.81,-0.68
189.00,2.40,260.75,2.88,-0.49,3.00,234.25,3.50,-0.50,2.36,236.75,2.81,-0.45
190.00,2.44,262.75,2.88,-0.44,3.00,236.25,3.50,-0.50,2.06,238.75,2.80,-0.75
191.00,2.49,264.75,2.88,-0.40,2.87,238.25,3.51,-0.64,1.96,240.75,2.80,-0.84
192.00,2.34,266.75,2.88,-0.54,2.87,240.25,3.51,-0.64,1.91,242.75,2.80,-0.89
193.00,2.40,268.75,2.88,-0.48,2.98,242.25,3.52,-0.54,1.91,244.75,2.79,-0.88
194.00,2.36,270.75,2.88,-0.52,3.02,244.25,3.52,-0.51,1.89,246.75,2.79,-0.90
195.00,2.33,272.75,2.88,-0.55,2.85,246.25,3.53,-0.68,2.07,248.75,2.78,-0.72
196.00,2.23,274.75,2.88,-0.66,2.69,248.75,3.53,-0.84,1.72,251.25,2.78,-1.06
197.00,2.33,276.75,2.88,-0.55,2.88,250.25,3.54,-0.66,1.64,253.25,2.78,-1.14
198.00,2.30,278.75,2.88,-0.58,2.84,252.75,3.54,-0.70,1.80,255.25,2.77,-0.98
199.00,2.23,280.75,2.88,-0.65,2.74,254.25,3.55,-0.81,1.62,257.25,2.77,-1.14
200.00,2.06,282.75,2.88,-0.82,2.67,256.25,3.55,-0.88,1.70,259.25,2.76,-1.07
201.00,2.19,284.75,2.88,-0.69,2.74,258.75,3.56,-0.82,1.83,261.25,2.76,-0.93
202.00,2.22,286.75,2.88,-0.66,2.73,260.75,3.56,-0.83,1.75,263.25,2.76,-1.01
203.00,2.24,288.75,2.88,-0.64,2.69,262.75,3.57,-0.88,1.53,265.25,2.75,-1.22
204.00,2.20,290.75,2.88,-0.68,2.58,264.75,3.58,-1.00,1.69,267.25,2.75,-1.06
205.00,2.17,292.75,2.88,-0.71,2.78,266.75,3.58,-0.80,1.80,269.25,2.74,-0.95
206.00,2.14,294.75,2.88,-0.74,2.69,268.75,3.59,-0.89,1.76,271.25,2.74,-0.98
207.00,1.96,296.75,2.88,-0.92,2.74,270.75,3.59,-0.85,1.63,273.25,2.74,-1.11
208.00,2.11,298.75,2.88,-0.77,2.69,272.75,3.60,-0.90,1.86,275.25,2.73,-0.87
209.00,1.99,300.75,2.88,-0.89,2.85,274.75,3.60,-0.75,1.65,277.75,2.73,-1.08
210.00,2.11,302.75,2.88,-0.77,2.71,276.75,3.61,-0.90,1.61,279.75,2.72,-1.11
211.00,2.09,304.75,2.88,-0.78,2.64,278.75,3.61,-0.97,1.68,281.75,2.72,-1.04
212.00,2.07,306.75,2.88,-0.80,2.65,280.75,3.62,-0.97,1.81,283.75,2.72,-0.91
213.00,2.29,308.75,2.88,-0.59,2.61,282.75,3.62,-1.01,1.41,285.75,2.71,-1.31
214.00,2.07,310.75,2.88,-0.80,2.60,284.75,3.63,-1.03,1.69,287.75,2.71,-1.02
215.00,2.07,312.75,2.88,-0.81,2.53,286.75,3.63,-1.10,1.48,289.75,2.70,-1.23
216.00,2.05,314.75,2.87,-0.83,2.59,288.75,3.64,-1.05,1.40,291.75,2.70,-1.30
217.00,2.02,316.75,2.87,-0.85,2.62,290.75,3.64,-1.02,1.45,294.25,2.70,-1.25
218.00,1.93,318.75,2.87,-0.95,2.50,292.75,3.65,-1.15,1.49,295.75,2.69,-1.20
219.00,2.04,320.75,2.87,-0.84,2.55,294.75,3.65,-1.11,1.48,298.25,2.69,-1.21
220.00,2.10,322.75,2.87,-0.77,2.79,296.75,3.66,-0.87,1.31,300.25,2.68,-1.37
221.00,2.20,324.75,2.87,-0.68,2.62,298.75,3.67,-1.05,1.54,302.25,2.68,-1.14
222.00,2.18,326.75,2.87,-0.70,2.76,300.75,3.67,-0.91,1.38,304.25,2.68,-1.29
223.00,1.96,328.75,2.87,-0.91,2.80,302.75,3.68,-0.88,1.50,306.25,2.67,-1.18
224.00,2.23,330.75,2.87,-0.65,2.61,304.75,3.68,-1.07,1.64,308.25,2.67,-1.03
225.00,2.01,332.75,2.87,-0.87,2.80,306.75,3.69,-0.88,1.64,310.25,2.66,-1.02
226.00,1.95,334.75,2.87,-0.92,2.67,308.75,3.69,-1.03,1.74,312.25,2.66,-0.92
227.00,1.96,336.75,2.87,-0.91,2.68,310.75,3.70,-1.02,1.63,314.25,2.66,-1.03
228.00,1.94,338.75,2.87,-0.93,2.67,312.75,3.70,-1.04,1.54,316.25,2.65,-1.12
229.00,1.94,340.75,2.87,-0.93,2.72,314.75,3.71,-0.99,1.76,318.25,2.65,-0.88
230.00,2.01,342.25,2.87,-0.86,2.52,316.75,3.71,-1.19,1.64,320.25,2.64,-1.01
231.00,1.94,344.75,2.87,-0.93,2.67,318.75,3.72,-1.04,1.57,322.25,2.64,-1.07
232.00,1.79,346.75,2.87,-1.07,2.54,320.75,3.72,-1.18,1.50,324.75,2.64,-1.14
233.00,1.98,348.75,2.87,-0.89,2.43,323.25,3.73,-1.30,1.64,326.75,2.63,-0.99
234.00,1.89,350.75,2.87,-0.97,2.65,325.25,3.73,-1.08,1.32,328.75,2.63,-1.30
235.00,1.92,352.75,2.87,-0.95,2.57,327.25,3.74,-1.17,1.38,330.75,2.62,-1.24
236.00,1.86,354.75,2.87,-1.01,2.48,329.25,3.74,-1.26,1.51,332.75,2.62,-1.11
237.00,1.81,356.75,2.87,-1.06,2.45,331.25,3.75,-1.30,1.42,334.75,2.62,-1.20
238.00,1.62,358.75,2.87,-1.25,2.62,333.25,3.76,-1.14,1.32,336.75,2.61,-1.29
239.00,1.75,360.75,2.87,-1.12,2.60,335.25,3.76,-1.16,1.20,338.75,2.61,-1.41
240.00,1.72,362.75,2.87,-1.15,2.62,337.25,3.77,-1.14,1.33,340.75,2.61,-1.27
241.00,1.79,365.25,2.87,-1.08,2.69,339.25,3.77,-1.08,1.28,342.75,2.60,-1.32
242.00,1.68,367.25,2.87,-1.19,2.50,341.25,3.78,-1.27,1.32,344.75,2.60,-1.27
243.00,1.72,369.25,2.87,-1.14,2.66,343.75,3.78,-1.12,1.38,347.25,2.59,-1.21
244.00,1.77,371.25,2.87,-1.10,2.58,345.75,3.79,-1.21,1.24,349.25,2.59,-1.35
245.00,1.54,373.25,2.86,-1.32,2.55,347.75,3.79,-1.25,1.13,351.25,2.59,-1.45
246.00,1.65,375.25,2.86,-1.21,2.52,349.75,3.80,-1.28,1.19,353.25,2.58,-1.39
247.00,1.55,377.25,2.86,-1.32,2.46,351.75,3.80,-1.34,1.44,355.25,2.58,-1.14
248.00,1.48,379.25,2.86,-1.39,2.60,353.75,3.81,-1.21,1.21,357.25,2.57,-1.37
249.00,1.61,381.25,2.86,-1.25,2.55,355.75,3.81,-1.27,1.34,359.25,2.57,-1.23
250.00,1.72,383.25,2.86,-1.15,2.57,357.75,3.82,-1.25,1.03,361.25,2.57,-1.54
251.00,1.91,385.25,2.86,-0.95,2.46,359.75,3.82,-1.36,1.10,363.25,2.56,-1.46
252.00,1.78,387.25,2.86,-1.08,2.51,361.75,3.83,-1.32,1.21,365.25,2.56,-1.35
253.00,1.83,389.25,2.86,-1.03,2.50,363.75,3.83,-1.33,1.11,367.25,2.55,-1.45
254.00,1.78,391.75,2.86,-1.09,2.56,365.75,3.84,-1.28,1.31,369.25,2.55,-1.24
255.00,1.75,393.75,2.86,-1.11,2.50,367.75,3.84,-1.35,1.40,371.25,2.55,-1.14
256.00,1.69,395.75,2.86,-1.17,2.58,369.75,3.85,-1.27,1.23,373.25,2.54,-1.31
257.00,1.61,397.75,2.86,-1.25,2.48,372.25,3.86,-1.38,1.32,375.25,2.54,-1.22
258.00,1.83,399.75,2.86,-1.03,2.37,374.25,3.86,-1.49,1.10,377.25,2.53,-1.44
259.00,1.69,401.75,2.86,-1.17,2.38,376.25,3.87,-1.48,1.17,379.25,2.53,-1.36
260.00,1.75,403.75,2.86,-1.11,2.48,378.25,3.87,-1.39,0.97,381.75,2.53,-1.56
261.00,1.82,406.25,2.86,-1.04,2.47,380.25,3.88,-1.41,1.13,383.75,2.52,-1.39
262.00,1.71,408.25,2.86,-1.15,2.43,382.25,3.88,-1.45,1.05,385.75,2.52,-1.46
263.00,1.60,410.25,2.86,-1.26,2.47,384.25,3.89,-1.42,1.02,387.75,2.51,-1.50
264.00,1.74,412.25,2.86,-1.11,2.52,386.25,3.89,-1.37,0.93,389.75,2.51,-1.58
265.00,1.87,414.25,2.86,-0.99,2.54,388.25,3.90,-1.35,0.92,391.75,2.51,-1.58
266.00,1.76,416.25,2.86,-1.09,2.59,390.25,3.90,-1.31,0.92,393.75,2.50,-1.58
267.00,1.79,418.25,2.86,-1.07,2.75,392.25,3.91,-1.16,0.77,396.25,2.50,-1.73
268.00,1.89,420.25,2.86,-0.97,2.50,394.25,3.91,-1.42,0.83,398.25,2.49,-1.66
269.00,1.82,422.25,2.86,-1.04,2.63,396.25,3.92,-1.29,0.78,400.25,2.49,-1.71
270.00,1.71,424.25,2.86,-1.14,2.67,398.25,3.92,-1.25,0.72,402.25,2.49,-1.76
271.00,1.57,426.25,2.86,-1.28,2.85,400.25,3.93,-1.08,0.61,404.25,2.48,-1.87
272.00,1.54,427.75,2.86,-1.32,2.67,402.25,3.93,-1.26,0.67,406.25,2.48,-1.81
273.00,1.53,429.75,2.85,-1.32,2.68,404.25,3.94,-1.26,0.69,408.25,2.47,-1.79
274.00,1.76,431.75,2.85,-1.10,2.68,406.25,3.95,-1.26,0.55,410.25,2.47,-1.92
275.00,1.56,433.75,2.85,-1.29,2.68,408.25,3.95,-1.27,0.50,412.25,2.47,-1.96
276.00,1.71,435.75,2.85,-1.14,2.78,410.25,3.96,-1.17,0.77,414.25,2.46,-1.69
277.00,1.93,437.75,2.85,-0.92,2.63,412.25,3.96,-1.33,0.85,416.25,2.46,-1.61
278.00,1.88,439.75,2.85,-0.97,2.56,414.75,3.97,-1.40,0.70,418.25,2.45,-1.75
279.00,2.05,441.75,2.85,-0.80,2.68,416.25,3.97,-1.29,0.64,420.25,2.45,-1.81
280.00,1.85,443.75,2.85,-1.00,2.65,418.75,3.98,-1.32,0.50,422.25,2.45,-1.94
281.00,1.88,445.75,2.85,-0.98,2.54,420.75,3.98,-1.44,0.68,424.25,2.44,-1.76
282.00,1.68,447.75,2.85,-1.17,2.65,422.75,3.99,-1.34,0.67,426.25,2.44,-1.77
283.00,1.64,449.25,2.85,-1.21,2.59,424.75,3.99,-1.40,0.66,428.75,2.43,-1.77
284.00,1.60,451.25,2.85,-1.25,2.52,426.75,4.00,-1.48,0.62,430.75,2.43,-1.81
285.00,1.57,453.25,2.85,-1.28,2.50,428.75,4.00,-1.50,0.46,432.75,2.43,-1.97
286.00,1.66,455.25,2.85,-1.19,2.55,430.75,4.01,-1.46,0.64,434.75,2.42,-1.79
287.00,1.51,457.25,2.85,-1.34,2.62,432.75,4.01,-1.39,0.73,436.75,2.42,-1.69
288.00,1.58,459.25,2.85,-1.27,2.65,434.75,4.02,-1.36,0.68,438.75,2.41,-1.74
289.00,1.55,461.25,2.85,-1.30,2.80,436.75,4.02,-1.23,0.71,440.75,2.41,-1.70
290.00,1.51,463.25,2.85,-1.34,2.80,438.75,4.03,-1.23,0.73,442.75,2.41,-1.68
291.00,1.61,465.25,2.85,-1.24,2.67,441.25,4.04,-1.36,0.74,444.75,2.40,-1.67
292.00,1.52,466.75,2.85,-1.33,2.67,442.75,4.04,-1.37,0.57,446.75,2.40,-1.83
293.00,1.50,468.75,2.85,-1.35,2.65,444.75,4.05,-1.40,0.42,448.75,2.39,-1.97
294.00,1.41,470.75,2.85,-1.44,2.45,447.25,4.05,-1.60,0.57,450.75,2.39,-1.82
295.00,1.63,472.75,2.85,-1.22,2.71,449.25,4.06,-1.34,0.40,452.75,2.39,-1.99
296.00,1.56,474.75,2.85,-1.28,2.74,451.25,4.06,-1.33,0.40,455.25,2.38,-1.98
297.00,1.49,476.75,2.85,-1.36,2.69,453.25,4.07,-1.37,0.39,457.25,2.38,-1.98
298.00,1.64,478.75,2.85,-1.21,2.70,455.25,4.07,-1.37,0.42,459.25,2.37,-1.95
299.00,1.42,480.75,2.85,-1.43,2.50,457.25,4.08,-1.58,0.39,461.25,2.37,-1.98
300.00,1.31,482.75,2.85,-1.54,2.64,459.00,4.08,-1.44,0.42,463.25,2.37,-1.94
301.00,1.43,484.75,2.84,-1.42,2.72,460.75,4.09,-1.37,0.38,465.25,2.36,-1.98
302.00,1.46,486.75,2.84,-1.38,2.66,463.25,4.09,-1.43,0.35,467.25,2.36,-2.00
303.00,1.31,488.75,2.84,-1.53,2.52,465.25,4.10,-1.58,0.27,469.25,2.35,-2.08
304.00,1.12,490.75,2.84,-1.73,2.72,467.25,4.10,-1.38,0.43,471.25,2.35,-1.92
305.00,1.37,492.75,2.84,-1.48,2.51,469.25,4.11,-1.60,0.42,473.25,2.35,-1.93
306.00,1.36,494.25,2.84,-1.49,2.58,471.25,4.11,-1.54,0.41,475.25,2.34,-1.93
307.00,1.31,496.25,2.84,-1.53,2.66,473.25,4.12,-1.46,0.46,477.25,2.34,-1.88
308.00,1.38,498.25,2.84,-1.47,2.82,475.25,4.12,-1.30,0.45,479.25,2.33,-1.89
309.00,1.45,500.25,2.84,-1.39,2.62,477.75,4.13,-1.51,0.38,481.25,2.33,-1.95
310.00,1.44,502.25,2.84,-1.41,2.52,479.75,4.14,-1.62,0.61,483.25,2.33,-1.72
311.00,1.48,504.25,2.84,-1.36,2.62,481.75,4.14,-1.52,0.47,485.25,2.32,-1.85
312.00,1.50,506.25,2.84,-1.34,2.65,483.75,4.15,-1.49,0.36,487.25,2.32,-1.96
313.00,1.42,508.25,2.84,-1.42,2.51,485.75,4.15,-1.64,0.28,489.25,2.31,-2.03
314.00,1.43,510.25,2.84,-1.41,2.60,487.75,4.16,-1.56,0.46,491.00,2.31,-1.85
315.00,1.45,512.25,2.84,-1.39,2.63,489.75,4.16,-1.53,0.51,492.75,2.31,-1.80
316.00,1.37,514.25,2.84,-1.47,2.66,491.75,4.17,-1.51,0.40,494.75,2.30,-1.91
317.00,1.37,516.25,2.84,-1.47,2.66,493.75,4.17,-1.52,0.45,496.75,2.30,-1.85
318.00,1.39,518.25,2.84,-1.45,2.74,495.75,4.18,-1.44,0.40,498.75,2.29,-1.89
319.00,1.52,520.25,2.84,-1.32,2.73,497.75,4.18,-1.46,0.29,500.75,2.29,-2.00
320.00,1.43,522.25,2.84,-1.41,2.68,499.75,4.19,-1.51,0.24,502.75,2.29,-2.05
321.00,1.40,524.25,2.84,-1.44,2.65,501.75,4.19,-1.54,0.31,504.75,2.28,-1.98
322.00,1.33,526.25,2.84,-1.51,2.60,503.75,4.20,-1.60,0.38,506.75,2.28,-1.90
323.00,1.27,528.25,2.84,-1.57,2.49,505.75,4.20,-1.71,0.42,508.75,2.27,-1.85
324.00,1.13,530.25,2.84,-1.70,2.52,507.75,4.21,-1.69,0.51,510.75,2.27,-1.76
325.00,1.19,532.25,2.84,-1.65,2.58,509.75,4.21,-1.63,0.47,512.75,2.27,-1.80
326.00,1.15,534.25,2.84,-1.68,2.43,511.75,4.22,-1.79,0.57,514.75,2.26,-1.70
327.00,1.10,536.25,2.84,-1.73,2.33,513.75,4.23,-1.89,0.39,516.75,2.26,-1.87
328.00,1.24,538.25,2.84,-1.60,2.45,515.75,4.23,-1.78,0.43,518.75,2.25,-1.82
329.00,1.14,540.25,2.83,-1.69,2.64,517.75,4.24,-1.60,0.45,520.25,2.25,-1.80
330.00,1.38,542.25,2.83,-1.46,2.55,519.75,4.24,-1.69,0.52,522.75,2.25,-1.72
331.00,1.27,544.25,2.83,-1.56,2.58,521.75,4.25,-1.66,0.38,524.25,2.24,-1.86
332.00,1.28,546.25,2.83,-1.56,2.57,523.75,4.25,-1.68,0.27,526.25,2.24,-1.97
333.00,1.16,548.25,2.83,-1.68,2.68,525.25,4.26,-1.58,0.27,528.25,2.23,-1.96
334.00,1.24,550.25,2.83,-1.59,2.58,527.25,4.26,-1.68,0.40,530.25,2.23,-1.83
335.00,1.19,552.25,2.83,-1.65,2.48,529.25,4.27,-1.79,0.45,532.25,2.23,-1.77
336.00,1.14,554.50,2.83,-1.69,2.72,531.25,4.27,-1.55,0.24,534.25,2.22,-1.98
337.00,1.21,556.25,2.83,-1.62,2.69,533.25,4.28,-1.59,0.26,536.25,2.22,-1.96
338.00,1.35,558.25,2.83,-1.48,2.63,535.25,4.28,-1.66,0.30,538.25,2.22,-1.91
339.00,1.18,560.25,2.83,-1.65,2.71,537.25,4.29,-1.58,0.48,540.25,2.21,-1.73
340.00,1.23,562.25,2.83,-1.60,2.72,539.25,4.29,-1.58,0.34,542.25,2.21,-1.87
341.00,1.24,564.25,2.83,-1.59,2.78,541.25,4.30,-1.52,0.42,544.25,2.20,-1.78
342.00,1.31,566.25,2.83,-1.52,2.72,543.25,4.30,-1.59,0.25,546.25,2.20,-1.95
343.00,1.29,568.25,2.83,-1.54,2.66,544.75,4.31,-1.65,0.20,548.25,2.20,-2.00
344.00,1.35,570.25,2.83,-1.48,2.84,546.75,4.32,-1.48,0.20,549.75,2.19,-1.99
345.00,1.39,572.25,2.83,-1.44,2.88,548.75,4.32,-1.44,0.28,551.75,2.19,-1.91
346.00,1.38,574.25,2.83,-1.45,2.81,550.75,4.33,-1.51,0.32,553.75,2.18,-1.87
347.00,1.39,576.25,2.83,-1.44,2.81,552.75,4.33,-1.52,0.20,555.75,2.18,-1.98
348.00,1.56,578.25,2.83,-1.27,2.90,554.75,4.34,-1.44,0.32,557.75,2.18,-1.86
349.00,1.34,580.25,2.83,-1.49,2.79,556.75,4.34,-1.55,0.10,559.75,2.17,-2.07
350.00,1.28,582.25,2.83,-1.55,2.83,558.75,4.35,-1.52,0.32,561.75,2.17,-1.84
351.00,1.34,584.25,2.83,-1.49,2.68,560.75,4.35,-1.67,0.20,563.75,2.16,-1.96
352.00,1.43,586.25,2.83,-1.40,2.66,562.75,4.36,-1.69,0.04,565.75,2.16,-2.12
353.00,1.53,588.25,2.83,-1.30,2.74,564.75,4.36,-1.62,0.12,567.75,2.16,-2.03
354.00,1.33,590.25,2.83,-1.50,2.72,566.25,4.37,-1.64,0.04,569.75,2.15,-2.12
355.00,1.48,592.75,2.83,-1.34,2.47,568.25,4.37,-1.91,0.11,571.25,2.15,-2.04
356.00,1.60,594.25,2.83,-1.22,2.73,570.25,4.38,-1.65,0.09,573.75,2.14,-2.06
357.00,1.25,596.25,2.82,-1.57,2.61,572.25,4.38,-1.77,0.04,575.75,2.14,-2.10
358.00,1.43,598.25,2.82,-1.39,2.60,574.25,4.39,-1.79,0.23,577.75,2.14,-1.90
359.00,1.39,600.25,2.82,-1.43,2.51,576.25,4.39,-1.88,-0.00,579.75,2.13,-2.13
360.00,1.51,602.75,2.82,-1.32,2.70,578.25,4.40,-1.70,0.16,581.75,2.13,-1.97
361.00,1.49,604.75,2.82,-1.33,2.78,580.25,4.41,-1.62,0.18,583.75,2.12,-1.94
362.00,1.50,606.75,2.82,-1.32,2.79,582.25,4.41,-1.62,0.22,585.75,2.12,-1.90
363.00,1.42,608.75,2.82,-1.40,2.60,584.25,4.42,-1.81,0.04,587.75,2.12,-2.07
364.00,1.58,610.75,2.82,-1.24,2.64,586.25,4.42,-1.78,0.02,589.75,2.11,-2.09
365.00,1.59,612.75,2.82,-1.23,2.76,588.25,4.43,-1.67,0.04,591.75,2.11,-2.07
366.00,1.52,614.75,2.82,-1.31,2.74,590.25,4.43,-1.70,0.25,593.75,2.10,-1.85
367.00,1.62,616.75,2.82,-1.20,2.85,592.25,4.44,-1.58,0.14,595.75,2.10,-1.96
368.00,1.84,618.75,2.82,-0.98,2.72,594.25,4.44,-1.73,0.10,597.75,2.10,-2.00
369.00,1.79,620.75,2.82,-1.03,2.88,596.25,4.45,-1.57,0.30,599.75,2.09,-1.80
370.00,1.77,622.75,2.82,-1.05,2.91,598.25,4.45,-1.54,0.08,601.75,2.09,-2.01
371.00,1.94,624.75,2.82,-0.88,2.88,600.25,4.46,-1.57,0.10,603.75,2.08,-1.99
372.00,1.78,626.75,2.82,-1.04,2.88,602.25,4.46,-1.58,0.15,605.75,2.08,-1.93
373.00,1.71,628.25,2.82,-1.11,2.97,604.25,4.47,-1.50,0.14,607.75,2.08,-1.94
374.00,1.82,630.25,2.82,-1.00,2.98,606.25,4.47,-1.50,0.23,609.75,2.07,-1.84
375.00,1.71,632.25,2.82,-1.11,3.06,608.25,4.48,-1.42,0.34,611.75,2.07,-1.73
376.00,1.90,634.25,2.82,-0.92,2.99,610.25,4.48,-1.50,0.25,613.75,2.06,-1.81
377.00,1.95,636.25,2.82,-0.87,2.87,612.25,4.49,-1.62,0.31,615.75,2.06,-1.75
378.00,1.97,638.25,2.82,-0.85,2.94,614.25,4.49,-1.56,0.27,617.25,2.06,-1.79
379.00,1.80,640.25,2.82,-1.02,3.08,616.25,4.50,-1.42,0.27,619.25,2.05,-1.79
380.00,1.79,642.25,2.82,-1.03,3.04,618.25,4.51,-1.46,0.21,621.25,2.05,-1.84
381.00,1.95,644.25,2.82,-0.86,3.01,620.25,4.51,-1.50,0.29,623.25,2.04,-1.76
382.00,1.85,646.25,2.82,-0.96,3.04,622.25,4.52,-1.47,0.28,625.25,2.04,-1.76
383.00,1.85,648.25,2.82,-0.97,2.95,624.25,4.52,-1.57,0.21,627.25,2.04,-1.83
384.00,1.94,650.25,2.82,-0.87,3.21,626.25,4.53,-1.32,0.20,629.25,2.03,-1.83
385.00,1.95,652.25,2.81,-0.86,3.13,628.25,4.53,-1.40,0.34,631.25,2.03,-1.69
386.00,2.12,654.25,2.81,-0.69,3.08,630.25,4.54,-1.46,0.39,633.25,2.02,-1.63
387.00,2.13,656.25,2.81,-0.68,3.19,632.25,4.54,-1.35,0.41,635.25,2.02,-1.61
388.00,2.22,658.25,2.81,-0.59,3.38,634.25,4.55,-1.17,0.38,637.25,2.02,-1.64
389.00,2.39,660.25,2.81,-0.42,3.31,636.25,4.55,-1.24,0.29,639.25,2.01,-1.73
390.00,2.36,662.25,2.81,-0.45,3.20,638.25,4.56,-1.36,0.35,640.75,2.01,-1.66
391.00,2.38,664.25,2.81,-0.43,3.41,639.75,4.56,-1.15,0.57,642.75,2.00,-1.43
392.00,2.33,665.75,2.81,-0.48,3.44,641.75,4.57,-1.13,0.60,644.75,2.00,-1.40
393.00,2.44,667.75,2.81,-0.37,3.42,643.75,4.57,-1.15,0.59,646.75,2.00,-1.40
394.00,2.53,669.75,2.81,-0.29,3.60,645.75,4.58,-0.97,0.79,648.75,1.99,-1.21
395.00,2.49,671.75,2.81,-0.32,3.42,647.75,4.58,-1.16,0.91,650.25,1.99,-1.07
396.00,2.81,673.75,2.81,-0.00,3.76,649.75,4.59,-0.83,0.90,652.25,1.98,-1.09
397.00,2.78,675.75,2.81,-0.03,3.76,651.25,4.60,-0.84,1.03,654.25,1.98,-0.95
398.00,2.63,677.75,2.81,-0.18,3.79,653.25,4.60,-0.81,1.19,656.25,1.98,-0.79
399.00,2.78,679.75,2.81,-0.03,3.89,655.25,4.61,-0.71,1.08,658.25,1.97,-0.89
400.00,2.82,681.75,2.81,0.01,3.95,656.75,4.61,-0.67,1.23,660.25,1.97,-0.74
401.00,3.00,683.75,2.81,0.19,4.13,658.75,4.62,-0.49,1.19,662.25,1.96,-0.78
402.00,3.04,685.75,2.81,0.24,4.13,660.75,4.62,-0.49,1.29,664.25,1.96,-0.67
403.00,3.28,687.75,2.81,0.47,4.19,662.75,4.63,-0.44,1.43,666.25,1.96,-0.53
404.00,3.51,689.75,2.81,0.71,4.05,664.25,4.63,-0.58,1.64,668.25,1.95,-0.31
405.00,3.41,691.75,2.81,0.60,4.25,666.25,4.64,-0.39,1.62,670.25,1.95,-0.33
406.00,3.53,693.75,2.81,0.73,4.46,668.25,4.64,-0.18,1.85,672.25,1.94,-0.09
407.00,3.57,695.25,2.81,0.77,4.39,670.25,4.65,-0.26,1.95,673.75,1.94,0.01
408.00,3.75,697.25,2.81,0.95,4.52,671.75,4.65,-0.13,2.01,675.75,1.94,0.07
409.00,4.01,699.25,2.81,1.21,4.64,673.75,4.66,-0.02,2.07,677.75,1.93,0.13
410.00,4.09,701.25,2.81,1.29,4.77,675.75,4.66,0.10,2.32,679.75,1.93,0.39
411.00,4.32,703.25,2.81,1.51,4.92,677.75,4.67,0.25,2.36,681.75,1.92,0.44
412.00,4.62,705.25,2.81,1.82,4.94,679.25,4.67,0.27,2.54,683.75,1.92,0.62
413.00,4.83,707.25,2.80,2.03,5.00,681.25,4.68,0.32,2.67,685.75,1.92,0.76
414.00,4.90,709.25,2.80,2.10,5.39,683.25,4.69,0.71,2.82,687.75,1.91,0.91
415.00,5.24,711.25,2.80,2.44,5.65,685.25,4.69,0.96,3.02,689.75,1.91,1.11
416.00,5.37,713.25,2.80,2.57,5.63,687.25,4.70,0.93,3.33,691.75,1.90,1.43
417.00,5.62,715.25,2.80,2.82,6.05,688.75,4.70,1.35,3.51,693.75,1.90,1.61
418.00,6.03,717.25,2.80,3.23,6.00,690.75,4.71,1.29,3.90,695.75,1.90,2.00
419.00,6.32,719.25,2.80,3.52,6.36,692.75,4.71,1.64,4.23,697.75,1.89,2.34
420.00,6.77,721.25,2.80,3.97,6.55,694.25,4.72,1.83,4.60,699.75,1.89,2.71
421.00,6.96,723.25,2.80,4.16,6.75,696.25,4.72,2.03,4.82,701.75,1.88,2.93
422.00,7.27,724.75,2.80,4.47,6.99,698.25,4.73,2.26,5.21,703.75,1.88,3.33
423.00,7.56,726.75,2.80,4.76,7.11,700.25,4.73,2.38,5.69,705.75,1.88,3.81
424.00,7.86,728.75,2.80,5.06,7.72,702.25,4.74,2.98,6.16,707.75,1.87,4.29
425.00,8.07,730.75,2.80,5.27,7.77,703.75,4.74,3.02,6.64,709.75,1.87,4.77
426.00,8.32,732.75,2.80,5.52,8.21,705.75,4.75,3.46,7.04,711.75,1.86,5.18
427.00,8.69,734.75,2.80,5.89,8.48,707.75,4.75,3.73,7.74,714.25,1.86,5.88
428.00,9.01,736.75,2.80,6.21,8.80,709.75,4.76,4.04,8.47,715.75,1.86,6.62
429.00,9.36,738.75,2.80,6.56,9.21,711.25,4.76,4.44,9.42,718.25,1.85,7.57
430.00,9.72,740.75,2.80,6.92,9.61,713.25,4.77,4.84,10.20,720.25,1.85,8.35
431.00,10.20,742.75,2.80,7.41,10.09,715.25,4.77,5.32,11.24,722.25,1.84,9.40
432.00,10.86,744.75,2.80,8.06,10.53,717.25,4.78,5.75,11.85,724.25,1.84,10.01
433.00,11.76,746.75,2.80,8.96,11.24,719.25,4.79,6.46,12.69,725.75,1.84,10.85
434.00,12.21,748.25,2.80,9.41,11.86,721.25,4.79,7.07,13.49,727.75,1.83,11.65
435.00,13.00,750.25,2.80,10.20,12.28,722.75,4.80,7.48,14.49,729.75,1.83,12.66
436.00,14.04,752.25,2.80,11.24,13.14,724.75,4.80,8.34,15.47,731.75,1.82,13.65
437.00,14.86,754.25,2.80,12.07,13.89,726.75,4.81,9.08,16.31,733.75,1.82,14.49
438.00,15.79,756.25,2.80,13.00,15.41,728.75,4.81,10.60,17.14,735.75,1.82,15.32
439.00,16.66,758.25,2.80,13.87,16.69,730.75,4.82,11.87,18.19,737.75,1.81,16.38
440.00,17.66,760.25,2.80,14.86,17.84,732.75,4.82,13.02,19.21,740.00,1.81,17.40
441.00,18.52,762.25,2.79,15.73,19.09,734.75,4.83,14.27,20.18,741.75,1.81,18.37
442.00,20.10,764.75,2.79,17.31,20.31,736.75,4.83,15.48,21.89,744.25,1.80,20.08
443.00,21.24,766.75,2.79,18.45,21.25,738.75,4.84,16.41,23.14,746.25,1.80,21.35
444.00,22.60,768.75,2.79,19.80,22.80,740.75,4.84,17.95,24.70,748.25,1.79,22.91
445.00,23.93,770.75,2.79,21.13,23.91,742.75,4.85,19.06,26.19,750.25,1.79,24.40
446.00,25.30,772.75,2.79,22.51,24.83,744.25,4.85,19.97,27.74,752.25,1.79,25.95
447.00,26.78,774.75,2.79,23.99,26.23,746.25,4.86,21.37,29.85,754.25,1.78,28.07
448.00,28.46,776.75,2.79,25.67,27.79,748.25,4.86,22.92,31.79,756.25,1.78,30.02
449.00,30.03,778.75,2.79,27.24,29.66,750.25,4.87,24.79,33.97,758.25,1.77,32.19
450.00,31.86,780.75,2.79,29.07,31.61,752.25,4.88,26.73,36.44,760.25,1.77,34.67
451.00,34.35,783.25,2.79,31.55,33.74,754.25,4.88,28.86,39.23,762.25,1.77,37.46
452.00,36.59,785.25,2.79,33.80,36.02,756.25,4.89,31.14,42.01,764.25,1.76,40.25
453.00,38.86,787.25,2.79,36.07,38.45,758.25,4.89,33.56,45.11,766.25,1.76,43.35
454.00,41.52,789.25,2.79,38.73,41.50,760.25,4.90,36.60,48.54,768.25,1.75,46.78
455.00,44.46,791.25,2.79,41.67,43.63,761.75,4.90,38.73,52.39,770.25,1.75,50.64
456.00,47.69,793.25,2.79,44.90,46.74,763.75,4.91,41.84,56.69,772.25,1.75,54.94
457.00,50.93,795.25,2.79,48.14,50.93,766.25,4.91,46.01,61.55,774.25,1.74,59.81
458.00,55.89,797.75,2.79,53.10,53.64,767.75,4.92,48.73,66.76,776.25,1.74,65.03
459.00,60.41,799.75,2.79,57.62,57.88,769.75,4.92,52.96,72.98,778.25,1.73,71.25
460.00,65.56,801.75,2.79,62.77,63.11,771.75,4.93,58.18,80.62,780.25,1.73,78.89
461.00,71.78,803.75,2.79,68.99,68.32,773.75,4.93,63.39,88.60,782.25,1.73,86.87
462.00,78.82,805.75,2.79,76.03,74.44,775.75,4.94,69.50,96.94,784.25,1.72,95.22
463.00,86.37,807.75,2.79,83.59,81.78,777.75,4.94,76.83,103.90,785.75,1.72,102.18
464.00,94.77,809.75,2.79,91.99,92.02,780.25,4.95,87.07,114.21,787.75,1.71,112.49
465.00,103.72,811.75,2.79,100.93,101.03,782.25,4.95,96.07,124.63,789.75,1.71,122.92
466.00,113.66,813.75,2.79,110.87,110.77,784.25,4.96,105.81,135.27,791.75,1.71,133.57
467.00,123.43,815.75,2.79,120.65,120.62,786.25,4.97,115.65,146.06,793.75,1.70,144.36
468.00,133.73,817.75,2.79,130.95,130.85,788.25,4.97,125.88,157.59,795.75,1.70,155.89
469.00,144.69,819.75,2.78,141.91,141.34,790.25,4.98,136.36,170.63,797.75,1.69,168.94
470.00,156.01,821.75,2.78,153.23,152.31,792.25,4.98,147.33,184.84,799.75,1.69,183.15
471.00,167.95,823.75,2.78,165.17,164.29,794.25,4.99,159.30,200.44,801.75,1.69,198.75
472.00,181.51,825.75,2.78,178.73,178.27,796.25,4.99,173.28,216.93,803.75,1.68,215.25
473.00,196.01,827.75,2.78,193.23,192.92,798.25,5.00,187.93,230.57,805.25,1.68,228.89
474.00,211.59,829.75,2.78,208.80,208.23,800.25,5.00,203.23,249.64,807.25,1.67,247.97
475.00,227.94,831.75,2.78,225.16,225.09,802.25,5.01,220.08,269.55,809.25,1.67,267.88
476.00,240.96,833.25,2.78,238.18,242.67,804.25,5.01,237.65,289.22,811.25,1.67,287.55
477.00,259.58,835.25,2.78,256.80,260.87,806.25,5.02,255.85,309.91,813.25,1.66,308.25
478.00,278.17,837.25,2.78,275.38,279.37,808.25,5.02,274.35,332.24,815.25,1.66,330.59
479.00,297.88,839.25,2.78,295.10,298.75,810.25,5.03,293.72,356.33,817.25,1.65,354.67
480.00,319.39,841.25,2.78,316.61,325.93,812.75,5.03,320.89,382.03,819.25,1.65,380.38
481.00,336.59,842.75,2.78,333.81,348.71,814.75,5.04,343.67,408.50,821.25,1.65,406.86
482.00,360.78,844.75,2.78,358.00,373.80,816.75,5.04,368.76,436.28,823.25,1.64,434.64
483.00,386.14,846.75,2.78,383.36,399.49,818.75,5.05,394.44,466.38,825.25,1.64,464.74
484.00,413.19,848.75,2.78,410.41,426.53,820.75,5.06,421.48,497.22,827.25,1.63,495.58
485.00,441.99,850.75,2.78,439.22,454.19,822.75,5.06,449.13,527.75,829.25,1.63,526.12
486.00,464.07,852.25,2.78,461.29,482.42,824.75,5.07,477.35,557.78,831.25,1.63,556.15
487.00,494.10,854.25,2.78,491.32,511.18,826.75,5.07,506.11,580.40,832.75,1.62,578.78
488.00,525.72,856.25,2.78,522.94,546.47,829.25,5.08,541.39,619.28,835.25,1.62,617.67
489.00,557.88,858.25,2.78,555.10,575.03,831.25,5.08,569.95,648.61,837.25,1.61,647.00
490.00,589.27,860.25,2.78,586.49,603.11,833.25,5.09,598.02,666.85,838.75,1.61,665.24
491.00,619.65,862.25,2.78,616.87,628.96,835.25,5.09,623.87,689.49,840.75,1.61,687.89
492.00,649.44,864.25,2.78,646.67,652.68,837.25,5.10,647.58,713.57,842.75,1.60,711.97
493.00,675.65,866.25,2.78,672.87,678.88,839.25,5.10,673.78,738.88,844.75,1.60,737.28
494.00,697.78,868.25,2.78,695.01,708.25,841.25,5.11,703.15,754.25,846.75,1.59,752.65
495.00,713.66,869.75,2.78,710.88,731.02,843.25,5.11,725.91,754.26,848.75,1.59,752.67
496.00,736.38,871.75,2.78,733.60,738.00,845.25,5.12,732.88,744.28,850.75,1.59,742.69
497.00,754.92,873.75,2.77,752.15,733.77,847.25,5.12,728.65,723.52,852.75,1.58,721.94
498.00,755.22,875.75,2.77,752.44,720.77,849.25,5.13,715.64,693.76,854.75,1.58,692.18
499.00,741.32,877.75,2.77,738.55,697.32,851.25,5.13,692.18,656.29,856.75,1.57,654.72
500.00,719.52,879.75,2.77,716.75,665.78,853.25,5.14,660.64,610.03,858.75,1.57,608.46
501.00,690.11,881.75,2.77,687.33,639.90,854.75,5.14,634.75,570.07,860.25,1.57,568.50
502.00,654.25,883.75,2.77,651.47,601.36,856.75,5.15,596.21,511.94,862.25,1.56,510.38
503.00,610.23,885.75,2.77,607.46,554.69,858.75,5.16,549.53,450.75,864.25,1.56,449.19
504.00,572.73,887.25,2.77,569.96,500.59,860.75,5.16,495.43,389.16,866.25,1.55,387.61
505.00,516.89,889.25,2.77,514.12,442.01,862.75,5.17,436.84,343.36,867.75,1.55,341.81
506.00,456.71,891.25,2.77,453.94,396.67,864.25,5.17,391.50,285.32,869.75,1.55,283.77
507.00,394.01,893.25,2.77,391.24,336.85,866.25,5.18,331.68,232.42,871.75,1.54,230.87
508.00,332.71,895.25,2.77,329.94,280.18,868.25,5.18,274.99,196.60,873.25,1.54,195.07
509.00,275.10,897.25,2.77,272.32,241.02,869.75,5.19,235.83,155.14,875.25,1.53,153.61
510.00,235.56,898.75,2.77,232.79,194.10,871.75,5.19,188.91,120.27,877.25,1.53,118.74
511.00,187.98,900.75,2.77,185.21,153.61,873.75,5.20,148.41,97.89,878.75,1.53,96.36
512.00,147.67,902.75,2.77,144.90,119.61,875.75,5.20,114.41,73.48,880.75,1.52,71.96
513.00,114.38,904.75,2.77,111.61,91.70,877.75,5.21,86.49,54.12,882.75,1.52,52.61
514.00,86.97,906.75,2.77,84.20,74.80,879.25,5.21,69.59,39.36,884.75,1.51,37.84
515.00,65.55,908.75,2.77,62.79,56.10,881.25,5.22,50.88,28.16,886.75,1.51,26.65
516.00,48.82,910.75,2.77,46.05,41.80,883.25,5.22,36.57,21.76,888.25,1.51,20.25
517.00,36.23,912.75,2.77,33.46,30.82,885.25,5.23,25.60,15.07,890.25,1.50,13.57
518.00,26.50,914.75,2.77,23.73,22.80,887.25,5.23,17.56,10.47,892.25,1.50,8.98
519.00,19.46,916.75,2.77,16.69,18.30,888.75,5.24,13.06,7.34,894.25,1.49,5.84
520.00,14.28,918.75,2.77,11.52,14.01,890.75,5.25,8.76,5.12,896.25,1.49,3.63
521.00,10.61,920.75,2.77,7.84,10.87,892.75,5.25,5.62,3.69,897.75,1.49,2.20
522.00,8.04,922.75,2.77,5.27,8.83,894.75,5.26,3.57,2.69,899.75,1.48,1.21
523.00,6.45,924.75,2.77,3.68,7.26,896.75,5.26,2.00,1.92,901.75,1.48,0.44
524.00,5.46,926.75,2.77,2.70,6.43,898.25,5.27,1.17,1.50,903.75,1.47,0.02
525.00,4.53,928.75,2.76,1.76,5.58,900.25,5.27,0.31,1.01,905.75,1.47,-0.46
526.00,3.78,930.75,2.76,1.01,5.12,902.25,5.28,-0.15,0.60,907.75,1.47,-0.87
527.00,3.40,932.75,2.76,0.63,4.98,904.25,5.28,-0.30,0.37,909.75,1.46,-1.10
528.00,3.00,934.75,2.76,0.24,4.56,905.75,5.29,-0.73,0.19,911.75,1.46,-1.27
529.00,2.88,936.75,2.76,0.12,4.34,907.75,5.29,-0.96,0.05,913.75,1.45,-1.41
530.00,2.67,938.75,2.76,-0.09,4.10,909.75,5.30,-1.20,-0.09,915.75,1.45,-1.55
531.00,2.34,940.75,2.76,-0.43,3.96,911.75,5.30,-1.35,-0.04,917.75,1.45,-1.48
532.00,2.34,942.75,2.76,-0.42,4.01,913.75,5.31,-1.30,-0.25,919.75,1.44,-1.69
533.00,2.16,944.75,2.76,-0.61,3.88,915.75,5.31,-1.43,-0.07,921.75,1.44,-1.51
534.00,2.15,946.25,2.76,-0.61,3.76,917.75,5.32,-1.56,-0.23,923.75,1.43,-1.66
535.00,1.97,948.75,2.76,-0.80,3.55,919.25,5.32,-1.78,-0.25,925.75,1.43,-1.68
536.00,2.16,950.25,2.76,-0.60,3.88,921.25,5.33,-1.44,-0.32,927.75,1.43,-1.75
537.00,2.03,952.25,2.76,-0.73,3.67,923.25,5.34,-1.66,-0.22,929.75,1.42,-1.64
538.00,2.08,954.25,2.76,-0.68,3.61,925.25,5.34,-1.73,-0.30,931.75,1.42,-1.72
539.00,2.16,956.25,2.76,-0.60,3.51,927.25,5.35,-1.84,-0.42,933.75,1.42,-1.84
540.00,2.16,958.25,2.76,-0.60,3.39,929.25,5.35,-1.96,-0.65,935.75,1.41,-2.07
541.00,2.00,960.25,2.76,-0.76,3.21,931.25,5.36,-2.14,-0.43,937.75,1.41,-1.84
542.00,2.16,962.25,2.76,-0.60,3.49,933.25,5.36,-1.88,-0.72,939.75,1.40,-2.13
543.00,2.20,964.25,2.76,-0.56,3.20,935.25,5.37,-2.17,-0.70,941.75,1.40,-2.10
544.00,2.08,966.25,2.76,-0.68,3.29,937.25,5.37,-2.09,-0.68,943.75,1.40,-2.07
545.00,2.15,968.25,2.76,-0.61,3.35,939.25,5.38,-2.03,-0.87,945.75,1.39,-2.26
546.00,2.11,970.25,2.76,-0.65,3.31,941.25,5.38,-2.07,-0.92,947.75,1.39,-2.30
547.00,2.03,972.25,2.76,-0.73,3.35,943.25,5.39,-2.04,-0.67,949.75,1.38,-2.06
548.00,1.90,974.25,2.76,-0.85,3.15,945.25,5.39,-2.24,-0.60,951.75,1.38,-1.98
549.00,2.01,976.25,2.76,-0.75,3.23,947.25,5.40,-2.17,-0.67,953.75,1.38,-2.04
550.00,1.87,978.25,2.76,-0.88,3.46,949.25,5.40,-1.94,-0.66,955.75,1.37,-2.03
551.00,1.79,980.25,2.76,-0.97,3.51,951.75,5.41,-1.90,-0.78,957.75,1.37,-2.14
552.00,1.91,981.75,2.76,-0.84,3.39,953.75,5.41,-2.02,-0.94,959.75,1.36,-2.30
553.00,1.76,983.75,2.75,-0.99,3.27,955.75,5.42,-2.15,-0.76,961.75,1.36,-2.12
554.00,1.79,985.75,2.75,-0.97,3.51,957.75,5.42,-1.92,-0.77,963.75,1.36,-2.13
555.00,1.94,987.75,2.75,-0.82,3.30,959.75,5.43,-2.13,-0.81,965.25,1.35,-2.16
556.00,1.78,989.75,2.75,-0.97,3.09,961.75,5.44,-2.35,-0.82,967.25,1.35,-2.17
557.00,1.89,991.75,2.75,-0.86,3.27,964.25,5.44,-2.17,-0.81,969.25,1.34,-2.16
558.00,1.63,993.75,2.75,-1.12,3.48,966.25,5.45,-1.96,-1.01,971.25,1.34,-2.35
559.00,1.67,995.75,2.75,-1.09,3.55,968.25,5.45,-1.90,-0.90,973.25,1.34,-2.23
560.00,1.68,997.75,2.75,-1.07,3.32,970.25,5.46,-2.14,-1.06,975.25,1.33,-2.40
561.00,1.70,999.75,2.75,-1.05,3.57,972.25,5.46,-1.89,-0.94,977.25,1.33,-2.26
562.00,1.67,1001.75,2.75,-1.09,3.62,974.25,5.47,-1.84,-1.02,979.25,1.32,-2.35
563.00,1.60,1003.25,2.75,-1.15,3.65,976.25,5.47,-1.82,-0.91,980.75,1.32,-2.23
564.00,1.69,1005.25,2.75,-1.06,3.25,978.75,5.48,-2.23,-0.86,982.75,1.32,-2.18
565.00,1.66,1007.25,2.75,-1.09,3.27,980.75,5.48,-2.21,-0.86,984.75,1.31,-2.17
566.00,1.67,1009.25,2.75,-1.08,3.34,982.75,5.49,-2.15,-0.98,986.75,1.31,-2.29
567.00,1.77,1011.25,2.75,-0.98,3.42,984.75,5.49,-2.08,-1.00,988.75,1.30,-2.31
568.00,1.75,1013.25,2.75,-0.99,3.35,986.75,5.50,-2.15,-1.04,990.75,1.30,-2.34
569.00,1.64,1015.25,2.75,-1.11,3.14,988.75,5.50,-2.36,-0.88,992.25,1.30,-2.18
570.00,1.91,1017.25,2.75,-0.84,3.04,990.75,5.51,-2.47,-1.00,994.25,1.29,-2.29
571.00,1.88,1019.25,2.75,-0.87,2.97,992.75,5.51,-2.54,-1.00,996.25,1.29,-2.28
572.00,1.74,1021.25,2.75,-1.01,3.17,994.75,5.52,-2.35,-0.98,998.25,1.28,-2.26
573.00,1.68,1022.75,2.75,-1.07,3.36,996.75,5.53,-2.16,-0.83,1000.25,1.28,-2.11
574.00,1.65,1024.75,2.75,-1.10,3.25,998.75,5.53,-2.28,-0.79,1002.25,1.28,-2.07
575.00,1.62,1026.75,2.75,-1.13,3.48,1000.75,5.54,-2.06,-0.94,1003.75,1.27,-2.21
576.00,1.82,1028.75,2.75,-0.92,3.32,1002.75,5.54,-2.22,-0.96,1005.75,1.27,-2.23
577.00,1.66,1030.75,2.75,-1.09,3.31,1004.75,5.55,-2.24,-1.10,1007.75,1.26,-2.36
578.00,1.77,1032.75,2.75,-0.98,3.22,1006.75,5.55,-2.33,-1.14,1009.75,1.26,-2.40
579.00,1.55,1034.75,2.75,-1.20,3.42,1008.75,5.56,-2.14,-0.96,1011.75,1.26,-2.21
580.00,1.70,1036.75,2.75,-1.04,3.50,1010.75,5.56,-2.06,-1.21,1013.75,1.25,-2.46
581.00,1.52,1038.75,2.74,-1.23,3.40,1012.25,5.57,-2.16,-1.08,1015.75,1.25,-2.32
582.00,1.60,1040.75,2.74,-1.14,3.46,1014.25,5.57,-2.11,-0.88,1017.75,1.24,-2.13
583.00,1.48,1042.75,2.74,-1.27,3.25,1016.25,5.58,-2.33,-1.09,1019.75,1.24,-2.33
584.00,1.69,1044.25,2.74,-1.06,3.62,1018.25,5.58,-1.96,-1.03,1021.75,1.24,-2.27
585.00,1.59,1046.75,2.74,-1.15,3.10,1020.25,5.59,-2.49,-1.06,1023.75,1.23,-2.29
586.00,1.58,1048.75,2.74,-1.16,3.43,1022.25,5.59,-2.16,-1.06,1025.75,1.23,-2.29
587.00,1.46,1050.75,2.74,-1.28,3.71,1024.25,5.60,-1.88,-1.04,1027.75,1.22,-2.26
588.00,1.60,1052.75,2.74,-1.15,3.30,1026.25,5.60,-2.30,-1.06,1029.75,1.22,-2.28
589.00,1.47,1054.75,2.74,-1.27,3.21,1028.25,5.61,-2.40,-1.12,1031.75,1.22,-2.34
590.00,1.46,1056.75,2.74,-1.28,3.47,1029.75,5.62,-2.14,-1.22,1033.75,1.21,-2.44
591.00,1.62,1058.25,2.74,-1.12,3.16,1031.75,5.62,-2.46,-1.17,1035.75,1.21,-2.37
592.00,1.38,1060.25,2.74,-1.36,3.27,1033.75,5.63,-2.35,-1.08,1037.75,1.20,-2.28
593.00,1.42,1062.25,2.74,-1.32,3.42,1035.75,5.63,-2.21,-1.29,1039.75,1.20,-2.49
594.00,1.38,1064.25,2.74,-1.36,3.39,1037.75,5.64,-2.25,-1.20,1041.75,1.20,-2.40
595.00,1.62,1066.25,2.74,-1.12,3.14,1039.75,5.64,-2.50,-1.40,1043.75,1.19,-2.59
596.00,1.32,1068.25,2.74,-1.42,3.31,1041.75,5.65,-2.34,-1.21,1045.75,1.19,-2.39
597.00,1.56,1070.25,2.74,-1.17,3.37,1043.75,5.65,-2.28,-1.05,1047.75,1.18,-2.24
598.00,1.40,1072.25,2.74,-1.34,2.86,1045.25,5.66,-2.80,-1.12,1049.75,1.18,-2.30
599.00,1.43,1074.25,2.74,-1.30,3.43,1047.25,5.66,-2.24,-1.24,1051.75,1.18,-2.42
600.00,1.43,1076.25,2.74,-1.31,3.20,1049.25,5.67,-2.47,-1.11,1053.75,1.17,-2.28
601.00,1.51,1078.25,2.74,-1.23,3.25,1051.25,5.67,-2.42,-0.97,1055.25,1.17,-2.14
602.00,1.58,1080.25,2.74,-1.15,3.36,1053.25,5.68,-2.32,-1.08,1057.75,1.16,-2.25
603.00,1.73,1081.75,2.74,-1.01,3.46,1055.25,5.68,-2.22,-1.10,1059.25,1.16,-2.26
604.00,1.44,1083.75,2.74,-1.30,3.50,1057.25,5.69,-2.19,-1.04,1061.25,1.16,-2.19
605.00,1.24,1085.75,2.74,-1.50,3.49,1058.75,5.69,-2.20,-1.16,1063.75,1.15,-2.31
606.00,1.33,1087.75,2.74,-1.41,3.52,1060.75,5.70,-2.18,-1.04,1065.25,1.15,-2.19
607.00,1.37,1089.75,2.74,-1.37,3.34,1062.75,5.71,-2.36,-1.17,1067.75,1.14,-2.31
608.00,1.34,1091.75,2.74,-1.40,3.36,1064.75,5.71,-2.35,-1.14,1069.25,1.14,-2.28
609.00,1.62,1093.75,2.73,-1.12,3.20,1066.25,5.72,-2.52,-1.21,1071.25,1.14,-2.34
610.00,1.48,1095.25,2.73,-1.26,3.27,1068.25,5.72,-2.45,-1.20,1073.25,1.13,-2.34
611.00,1.57,1097.25,2.73,-1.16,3.41,1070.25,5.73,-2.32,-1.25,1075.25,1.13,-2.38
612.00,1.62,1099.25,2.73,-1.11,3.61,1072.25,5.73,-2.12,-1.39,1077.25,1.12,-2.51
613.00,1.88,1101.25,2.73,-0.85,3.57,1074.25,5.74,-2.16,-1.20,1079.25,1.12,-2.32
614.00,1.73,1103.25,2.73,-1.00,3.54,1076.25,5.74,-2.20,-1.11,1081.25,1.12,-2.23
615.00,1.71,1105.25,2.73,-1.03,3.53,1078.25,5.75,-2.22,-1.35,1083.25,1.11,-2.46
616.00,1.66,1107.25,2.73,-1.07,3.70,1079.75,5.75,-2.06,-1.19,1085.25,1.11,-2.30
617.00,1.55,1108.75,2.73,-1.18,3.72,1081.75,5.76,-2.04,-1.09,1086.75,1.10,-2.19
618.00,1.76,1110.75,2.73,-0.97,3.75,1083.75,5.76,-2.01,-1.16,1088.75,1.10,-2.26
619.00,1.75,1112.75,2.73,-0.98,3.63,1085.75,5.77,-2.14,-1.19,1090.75,1.10,-2.29
620.00,1.73,1114.75,2.73,-1.00,3.55,1087.75,5.77,-2.22,-1.17,1092.75,1.09,-2.26
621.00,1.68,1116.75,2.73,-1.05,3.48,1089.75,5.78,-2.30,-1.18,1094.75,1.09,-2.27
622.00,1.72,1118.75,2.73,-1.01,3.69,1091.75,5.78,-2.10,-1.21,1096.75,1.08,-2.30
623.00,1.56,1120.75,2.73,-1.17,3.80,1093.75,5.79,-1.99,-1.19,1098.75,1.08,-2.27
624.00,1.52,1122.75,2.73,-1.21,3.69,1095.75,5.79,-2.11,-1.11,1100.25,1.08,-2.18
625.00,1.59,1124.75,2.73,-1.14,3.57,1097.25,5.80,-2.23,-0.94,1102.25,1.07,-2.01
626.00,1.46,1126.75,2.73,-1.26,3.68,1099.25,5.81,-2.13,-1.02,1104.25,1.07,-2.09
627.00,1.54,1128.75,2.73,-1.19,3.82,1101.25,5.81,-1.99,-0.92,1106.25,1.06,-1.99
628.00,1.52,1130.25,2.73,-1.21,3.83,1103.25,5.82,-1.99,-1.05,1108.25,1.06,-2.11
629.00,1.46,1132.25,2.73,-1.27,3.92,1105.25,5.82,-1.90,-1.14,1110.25,1.06,-2.20
630.00,1.44,1134.25,2.73,-1.28,3.76,1107.25,5.83,-2.07,-1.09,1112.25,1.05,-2.14
631.00,1.45,1136.25,2.73,-1.28,3.72,1109.25,5.83,-2.11,-1.05,1114.25,1.05,-2.10
632.00,1.43,1138.25,2.73,-1.29,3.90,1110.75,5.84,-1.94,-1.02,1116.25,1.04,-2.07
633.00,1.54,1140.25,2.73,-1.18,3.72,1112.75,5.84,-2.12,-1.03,1117.75,1.04,-2.08
634.00,1.62,1142.25,2.73,-1.10,3.99,1114.75,5.85,-1.86,-0.90,1119.75,1.04,-1.93
635.00,1.61,1144.25,2.73,-1.12,3.72,1116.75,5.85,-2.13,-0.97,1121.75,1.03,-2.00
636.00,1.71,1146.25,2.73,-1.02,3.85,1118.75,5.86,-2.01,-0.94,1123.75,1.03,-1.97
637.00,1.73,1148.25,2.72,-0.99,3.82,1120.25,5.86,-2.05,-1.07,1125.75,1.02,-2.10
638.00,1.31,1150.25,2.72,-1.42,3.82,1122.25,5.87,-2.05,-0.90,1127.75,1.02,-1.92
639.00,1.52,1152.25,2.72,-1.21,4.17,1124.25,5.87,-1.70,-1.00,1129.25,1.02,-2.02
640.00,1.83,1154.25,2.72,-0.89,3.89,1126.25,5.88,-1.99,-0.86,1131.25,1.01,-1.87
641.00,1.26,1156.25,2.72,-1.46,4.10,1128.25,5.88,-1.78,-1.04,1133.25,1.01,-2.05
642.00,1.60,1157.75,2.72,-1.12,4.32,1130.25,5.89,-1.57,-1.09,1135.25,1.01,-2.10
643.00,1.75,1159.75,2.72,-0.98,4.20,1132.25,5.90,-1.69,-0.95,1137.25,1.00,-1.95
644.00,1.56,1161.75,2.72,-1.16,4.05,1134.25,5.90,-1.85,-1.22,1139.25,1.00,-2.22
645.00,1.70,1163.75,2.72,-1.02,4.32,1136.25,5.91,-1.58,-1.12,1140.75,0.99,-2.11
646.00,1.78,1165.75,2.72,-0.94,4.35,1138.25,5.91,-1.57,-1.01,1142.75,0.99,-2.00
647.00,1.65,1167.75,2.72,-1.07,4.43,1140.25,5.92,-1.49,-0.75,1144.75,0.99,-1.74
648.00,1.82,1169.75,2.72,-0.90,4.44,1142.25,5.92,-1.48,-0.86,1146.75,0.98,-1.84
649.00,1.69,1171.75,2.72,-1.03,4.45,1144.25,5.93,-1.47,-0.95,1148.75,0.98,-1.93
650.00,1.78,1173.75,2.72,-0.94,4.53,1146.25,5.93,-1.40,-0.91,1150.25,0.97,-1.88
651.00,1.19,1175.75,2.72,-1.53,4.24,1148.25,5.94,-1.69,-0.68,1152.25,0.97,-1.64
652.00,1.50,1177.75,2.72,-1.22,4.27,1150.25,5.94,-1.68,-0.50,1154.25,0.97,-1.46
653.00,1.77,1179.25,2.72,-0.95,4.33,1152.25,5.95,-1.62,-0.55,1156.25,0.96,-1.51
654.00,1.94,1181.75,2.72,-0.78,4.40,1153.75,5.95,-1.56,-0.73,1158.25,0.96,-1.68
655.00,1.89,1183.25,2.72,-0.82,4.60,1155.75,5.96,-1.36,-0.72,1159.75,0.95,-1.67
656.00,1.96,1185.25,2.72,-0.76,4.50,1157.75,5.96,-1.47,-0.57,1161.75,0.95,-1.52
657.00,2.07,1187.25,2.72,-0.64,4.33,1159.75,5.97,-1.64,-0.57,1163.75,0.95,-1.52
658.00,1.57,1189.25,2.72,-1.14,4.29,1161.75,5.97,-1.68,-0.58,1165.75,0.94,-1.52
659.00,1.60,1191.25,2.72,-1.11,4.53,1163.75,5.98,-1.45,-0.69,1167.75,0.94,-1.62
660.00,1.81,1193.25,2.72,-0.91,4.29,1165.75,5.99,-1.70,-0.61,1169.75,0.93,-1.54
661.00,1.93,1195.25,2.72,-0.79,4.67,1168.25,5.99,-1.32,-0.30,1171.75,0.93,-1.23
662.00,2.01,1196.75,2.72,-0.70,4.66,1170.25,6.00,-1.33,-0.36,1173.75,0.93,-1.28
663.00,1.80,1198.75,2.72,-0.92,4.78,1171.75,6.00,-1.23,-0.35,1175.75,0.92,-1.27
664.00,1.87,1200.75,2.72,-0.85,4.78,1173.75,6.01,-1.23,-0.59,1177.25,0.92,-1.51
665.00,2.06,1202.75,2.71,-0.66,4.77,1175.75,6.01,-1.24,-0.54,1179.75,0.91,-1.45
666.00,1.95,1204.75,2.71,-0.77,4.96,1177.75,6.02,-1.06,-0.50,1181.25,0.91,-1.41
667.00,1.81,1206.75,2.71,-0.90,4.76,1179.75,6.02,-1.26,-0.57,1183.25,0.91,-1.47
668.00,1.89,1208.75,2.71,-0.83,4.93,1181.75,6.03,-1.10,-0.29,1185.75,0.90,-1.19
669.00,1.89,1210.75,2.71,-0.82,4.92,1183.75,6.03,-1.11,-0.35,1187.75,0.90,-1.25
670.00,1.89,1212.75,2.71,-0.83,5.01,1185.75,6.04,-1.03,-0.29,1189.25,0.89,-1.19
671.00,2.17,1214.75,2.71,-0.55,5.10,1187.75,6.04,-0.95,-0.33,1191.25,0.89,-1.22
672.00,2.10,1216.75,2.71,-0.62,4.93,1189.75,6.05,-1.12,-0.39,1193.25,0.89,-1.28
673.00,2.04,1218.75,2.71,-0.67,5.01,1191.75,6.05,-1.04,-0.52,1195.75,0.88,-1.40
674.00,1.93,1220.75,2.71,-0.78,4.97,1193.25,6.06,-1.08,-0.40,1197.25,0.88,-1.28
675.00,2.22,1222.75,2.71,-0.49,5.28,1195.75,6.06,-0.79,-0.48,1199.75,0.87,-1.35
676.00,2.34,1224.75,2.71,-0.38,5.25,1197.25,6.07,-0.82,-0.26,1201.25,0.87,-1.13
677.00,2.13,1226.75,2.71,-0.58,5.21,1199.25,6.07,-0.86,-0.21,1203.75,0.87,-1.08
678.00,2.13,1228.25,2.71,-0.58,5.16,1201.25,6.08,-0.92,-0.10,1205.25,0.86,-0.96
679.00,2.13,1230.25,2.71,-0.58,5.34,1203.25,6.09,-0.75,0.16,1207.75,0.86,-0.70
680.00,2.05,1232.25,2.71,-0.66,5.32,1205.25,6.09,-0.77,0.07,1209.75,0.85,-0.78
681.00,2.12,1234.25,2.71,-0.59,5.33,1207.25,6.10,-0.76,0.14,1211.75,0.85,-0.71
682.00,2.27,1236.25,2.71,-0.44,5.40,1209.25,6.10,-0.70,0.15,1213.75,0.85,-0.69
683.00,2.31,1238.25,2.71,-0.40,5.45,1211.25,6.11,-0.66,0.28,1215.75,0.84,-0.56
684.00,2.43,1240.25,2.71,-0.28,5.58,1213.25,6.11,-0.53,0.24,1217.75,0.84,-0.60
685.00,2.30,1242.25,2.71,-0.41,5.72,1215.25,6.12,-0.40,0.45,1219.75,0.83,-0.38
686.00,2.47,1244.25,2.71,-0.24,5.77,1217.25,6.12,-0.35,0.30,1221.75,0.83,-0.53
687.00,2.24,1246.25,2.71,-0.46,5.72,1219.25,6.13,-0.41,0.30,1223.75,0.83,-0.52
688.00,2.43,1247.75,2.71,-0.27,5.89,1220.75,6.13,-0.24,0.46,1225.75,0.82,-0.36
689.00,2.18,1249.75,2.71,-0.53,5.83,1222.75,6.14,-0.31,0.54,1227.75,0.82,-0.28
690.00,2.41,1251.75,2.71,-0.30,5.83,1224.75,6.14,-0.32,0.59,1229.75,0.81,-0.22
691.00,2.44,1253.75,2.71,-0.26,5.70,1226.75,6.15,-0.45,0.45,1231.75,0.81,-0.36
692.00,2.45,1255.75,2.71,-0.26,5.87,1228.75,6.15,-0.28,0.38,1234.25,0.81,-0.43
693.00,2.57,1257.75,2.70,-0.14,5.70,1230.75,6.16,-0.46,0.33,1236.25,0.80,-0.48
694.00,2.54,1259.75,2.70,-0.16,5.86,1232.25,6.16,-0.30,0.52,1238.25,0.80,-0.28
695.00,2.41,1261.75,2.70,-0.30,5.79,1234.25,6.17,-0.38,0.55,1240.25,0.79,-0.25
696.00,2.71,1263.75,2.70,0.00,5.84,1236.25,6.18,-0.34,0.82,1242.25,0.79,0.03
697.00,2.54,1265.25,2.70,-0.16,5.85,1238.25,6.18,-0.33,0.87,1244.25,0.79,0.09
698.00,2.83,1267.25,2.70,0.13,6.02,1240.25,6.19,-0.17,0.67,1246.25,0.78,-0.11
699.00,2.73,1269.25,2.70,0.03,6.01,1242.25,6.19,-0.18,0.63,1248.25,0.78,-0.15
700.00,2.70,1271.25,2.70,0.00,6.20,1244.25,6.20,0.00,0.77,1250.25,0.77,0.00