File: 01_Data/HDPE/MCC/HDPE_MCC_30K_min_210921_R2.txt
Sample ID:	C:\MCC\MCC Cal\Test\HDPE_MCC_30K_min_210921_R2.txt
Sample Weight (mg):	4.75
Heating Rate (C/s):	0.5
Combustor Temp (C):	900
N2 Flow Rate (cc/min):	80
O2 Flow Rate (cc/min):	20
Calibration File:	C:\MCC\MCC Cal\Coeff1 JN10440_30_210304.txt.txt
T Correction Coefficients:	0	1.024463	0
Time Shift (s):	14
*
Time (s)	Temperature (C)	N2 flow rate (cc/min)	O2 flow rate (cc/min)	Flow Rate (cc/min)	Oxygen (%)	HRR (W/g)	Heating rate (C/s)
0.000	110.551	80.000	19.996	100.344	19.946	-0.297	-0.004
2.000	110.523	79.999	19.995	100.344	19.952	-0.677	0.002
4.000	110.509	79.997	19.994	100.346	19.945	-0.243	-0.001
6.000	110.498	79.998	19.998	100.347	19.945	-0.226	-0.022
8.000	110.507	79.997	19.994	100.348	19.944	-0.188	0.001
10.000	110.505	79.997	19.995	100.346	19.946	-0.277	0.008
12.000	110.495	79.998	19.994	100.346	19.944	-0.187	-0.043
14.000	110.476	79.998	19.995	100.347	19.942	-0.052	-0.006
16.000	110.503	79.997	19.995	100.355	19.942	-0.057	0.018
18.000	110.462	79.997	19.994	100.354	19.943	-0.078	0.000
20.000	110.469	79.997	19.995	100.376	19.940	0.098	0.010
22.000	110.461	79.997	19.994	100.386	19.942	-0.043	-0.021
24.000	110.508	79.998	19.995	100.386	19.937	0.306	0.021
26.000	110.557	79.999	19.995	100.397	19.935	0.430	0.039
28.000	110.580	79.999	19.995	100.424	19.930	0.724	0.014
30.000	110.608	79.996	19.995	100.428	19.925	1.078	0.047
32.000	110.711	79.996	19.996	100.439	19.923	1.184	0.038
34.001	110.784	79.997	19.996	100.466	19.917	1.626	0.036
36.001	110.933	79.994	19.996	100.473	19.916	1.669	0.085
38.000	111.071	79.995	19.996	100.488	19.915	1.756	0.059
40.000	111.252	79.996	19.995	100.481	19.913	1.872	0.109
42.001	111.440	79.997	19.995	100.475	19.915	1.744	0.093
44.000	111.581	79.997	19.995	100.477	19.915	1.753	0.100
46.000	111.801	79.997	19.996	100.500	19.910	2.102	0.101
48.000	112.042	79.997	19.995	100.504	19.914	1.842	0.138
50.000	112.313	79.999	19.996	100.503	19.911	2.005	0.143
52.000	112.634	79.998	19.996	100.521	19.909	2.142	0.169
54.000	112.963	79.999	19.996	100.534	19.907	2.254	0.169
56.000	113.302	79.997	19.997	100.539	19.907	2.240	0.200
58.000	113.682	79.997	19.996	100.540	19.908	2.226	0.183
60.000	114.046	79.996	19.996	100.541	19.907	2.267	0.183
62.001	114.495	79.997	19.997	100.540	19.907	2.271	0.200
64.001	114.900	79.998	19.996	100.538	19.904	2.449	0.200
66.000	115.338	79.999	19.996	100.537	19.902	2.585	0.202
68.000	115.813	79.998	19.996	100.549	19.907	2.284	0.244
70.000	116.341	79.998	19.996	100.555	19.904	2.494	0.276
72.000	116.871	80.000	19.995	100.569	19.902	2.631	0.272
74.000	117.346	79.999	19.994	100.575	19.901	2.664	0.258
76.000	117.941	80.001	19.995	100.578	19.899	2.807	0.319
78.000	118.527	80.000	19.995	100.577	19.899	2.814	0.289
80.000	119.090	79.999	19.994	100.575	19.895	3.059	0.284
82.000	119.701	79.997	19.994	100.572	19.901	2.687	0.318
84.000	120.360	79.999	19.995	100.557	19.899	2.830	0.343
86.000	120.982	79.996	19.995	100.552	19.902	2.629	0.331
88.000	121.644	79.994	19.995	100.558	19.897	2.965	0.368
90.000	122.319	79.996	19.996	100.551	19.897	2.917	0.350
92.000	122.957	79.996	19.994	100.555	19.895	3.060	0.287
94.000	123.635	79.998	19.995	100.553	19.897	2.921	0.314
96.000	124.339	79.997	19.995	100.560	19.896	2.967	0.340
98.000	125.075	79.996	19.995	100.570	19.894	3.128	0.356
100.000	125.813	79.997	19.996	100.563	19.894	3.106	0.392
102.000	126.508	79.997	19.994	100.576	19.896	3.009	0.364
104.000	127.271	79.997	19.994	100.577	19.895	3.092	0.394
106.000	128.023	79.998	19.995	100.574	19.896	3.026	0.403
108.000	128.803	79.998	19.994	100.581	19.896	2.985	0.406
110.000	129.586	79.997	19.995	100.582	19.891	3.311	0.424
112.001	130.336	79.995	19.995	100.585	19.893	3.190	0.377
114.000	131.158	79.996	19.995	100.582	19.892	3.258	0.405
116.000	131.985	79.996	19.995	100.582	19.891	3.340	0.401
118.000	132.812	79.998	19.995	100.582	19.894	3.144	0.423
120.000	133.620	79.996	19.996	100.580	19.890	3.409	0.383
122.000	134.457	79.997	19.996	100.582	19.888	3.498	0.432
124.000	135.292	79.998	19.996	100.586	19.888	3.507	0.445
126.000	136.157	79.998	19.996	100.582	19.890	3.397	0.413
128.000	137.056	79.998	19.996	100.585	19.885	3.747	0.451
130.000	137.971	79.998	19.995	100.583	19.885	3.696	0.464
132.000	138.850	79.999	19.996	100.583	19.890	3.429	0.453
134.000	139.726	79.999	19.995	100.583	19.894	3.162	0.453
136.000	140.669	79.998	19.995	100.582	19.891	3.343	0.458
138.000	141.588	79.998	19.995	100.581	19.891	3.354	0.455
140.000	142.545	79.998	19.996	100.580	19.891	3.359	0.480
142.000	143.438	79.998	19.996	100.580	19.892	3.272	0.478
144.000	144.404	79.997	19.996	100.581	19.893	3.199	0.464
146.000	145.372	79.997	19.996	100.578	19.893	3.179	0.466
148.000	146.356	79.996	19.996	100.582	19.892	3.252	0.466
150.000	147.298	79.998	19.996	100.580	19.891	3.302	0.474
152.000	148.273	79.998	19.997	100.575	19.895	3.072	0.496
154.000	149.278	79.998	19.996	100.575	19.894	3.115	0.527
156.000	150.232	79.999	19.996	100.576	19.892	3.271	0.481
158.000	151.213	79.998	19.995	100.572	19.892	3.244	0.481
160.000	152.192	79.999	19.994	100.575	19.892	3.234	0.502
162.000	153.125	79.999	19.994	100.578	19.894	3.104	0.470
164.000	154.117	79.998	19.995	100.558	19.892	3.239	0.469
166.000	155.105	79.996	19.995	100.562	19.893	3.200	0.505
168.000	156.062	79.998	19.994	100.554	19.891	3.356	0.484
170.000	157.077	79.997	19.995	100.555	19.893	3.185	0.530
172.000	158.047	79.996	19.994	100.547	19.892	3.237	0.488
174.000	159.002	79.998	19.995	100.548	19.893	3.226	0.479
176.000	159.978	79.997	19.995	100.549	19.894	3.136	0.494
178.000	160.971	79.998	19.995	100.548	19.894	3.127	0.516
180.000	161.978	79.997	19.995	100.544	19.893	3.175	0.509
182.000	162.962	79.997	19.995	100.545	19.895	3.068	0.493
184.000	163.955	79.999	19.995	100.543	19.900	2.765	0.515
186.000	164.952	79.999	19.996	100.544	19.899	2.828	0.486
188.000	165.960	79.998	19.995	100.544	19.900	2.728	0.493
190.000	166.928	79.998	19.996	100.544	19.898	2.842	0.466
192.000	167.919	79.998	19.995	100.542	19.897	2.929	0.450
194.000	168.891	79.998	19.996	100.541	19.897	2.949	0.504
196.000	169.941	79.998	19.998	100.544	19.900	2.740	0.485
198.000	170.951	79.997	19.995	100.544	19.899	2.772	0.495
200.000	171.913	79.997	19.996	100.544	19.896	3.011	0.496
202.000	172.912	79.997	19.995	100.542	19.896	3.000	0.493
204.000	173.885	79.997	19.995	100.542	19.896	3.029	0.499
206.000	174.879	79.998	19.995	100.530	19.894	3.151	0.521
208.000	175.883	79.999	19.995	100.536	19.895	3.078	0.501
210.000	176.866	79.999	19.996	100.540	19.895	3.046	0.515
212.000	177.908	79.998	19.995	100.532	19.895	3.069	0.502
214.000	178.890	79.997	19.995	100.537	19.896	3.016	0.577
216.000	179.838	79.998	19.995	100.541	19.896	2.989	0.445
218.000	180.832	79.997	19.995	100.534	19.899	2.823	0.486
220.000	181.790	79.997	19.996	100.534	19.895	3.060	0.502
222.000	182.795	79.997	19.996	100.528	19.897	2.914	0.480
224.000	183.776	79.998	19.995	100.536	19.896	2.990	0.489
226.000	184.782	79.998	19.996	100.518	19.896	3.003	0.501
228.000	185.757	79.998	19.995	100.516	19.895	3.033	0.499
230.000	186.799	80.000	19.996	100.519	19.895	3.047	0.496
232.000	187.790	80.000	19.995	100.513	19.893	3.166	0.515
234.000	188.783	79.998	19.995	100.507	19.895	3.040	0.469
236.000	189.795	79.999	19.994	100.507	19.896	2.987	0.468
238.000	190.791	79.999	19.996	100.511	19.897	2.960	0.489
240.000	191.769	79.999	19.996	100.505	19.899	2.802	0.478
242.000	192.776	79.997	19.996	100.503	19.897	2.910	0.462
244.000	193.799	79.997	19.997	100.501	19.895	3.036	0.502
246.000	194.762	79.997	19.996	100.501	19.897	2.907	0.477
248.000	195.770	79.998	19.997	100.503	19.899	2.825	0.490
250.000	196.753	79.996	19.995	100.501	19.899	2.794	0.496
252.000	197.712	79.998	19.996	100.502	19.899	2.832	0.493
254.000	198.774	79.999	19.995	100.503	19.899	2.802	0.515
256.000	199.703	79.998	19.995	100.503	19.900	2.734	0.453
258.000	200.733	79.998	19.994	100.503	19.901	2.682	0.494
260.000	201.719	79.999	19.995	100.501	19.900	2.741	0.516
262.000	202.703	79.998	19.995	100.499	19.901	2.679	0.511
264.000	203.694	79.997	19.994	100.502	19.901	2.652	0.499
266.000	204.732	80.000	19.996	100.500	19.898	2.853	0.527
268.000	205.715	79.997	19.994	100.502	19.901	2.663	0.502
270.000	206.686	79.997	19.995	100.499	19.903	2.561	0.505
272.000	207.702	79.998	19.995	100.501	19.903	2.533	0.499
274.000	208.703	79.997	19.996	100.502	19.901	2.684	0.498
276.000	209.675	79.997	19.995	100.499	19.902	2.592	0.471
278.000	210.737	79.996	19.995	100.493	19.901	2.661	0.523
280.000	211.694	79.997	19.995	100.494	19.900	2.725	0.506
282.000	212.688	79.996	19.994	100.495	19.902	2.620	0.470
284.000	213.700	79.996	19.995	100.494	19.903	2.541	0.504
286.000	214.670	79.998	19.996	100.491	19.903	2.566	0.473
288.000	215.654	79.999	19.995	100.494	19.901	2.699	0.481
290.000	216.673	79.998	19.994	100.479	19.902	2.621	0.504
292.000	217.627	79.999	19.994	100.490	19.905	2.387	0.482
294.000	218.649	80.000	19.994	100.489	19.904	2.483	0.519
296.000	219.620	79.999	19.995	100.480	19.901	2.660	0.459
298.000	220.612	79.999	19.994	100.471	19.905	2.384	0.500
300.000	221.611	79.997	19.995	100.475	19.902	2.596	0.528
302.000	222.630	79.998	19.995	100.478	19.899	2.785	0.506
304.000	223.582	79.997	19.995	100.478	19.901	2.642	0.503
306.000	224.600	79.998	19.996	100.481	19.900	2.731	0.495
308.000	225.607	79.998	19.995	100.467	19.900	2.738	0.517
310.000	226.546	79.998	19.997	100.465	19.900	2.742	0.470
312.000	227.545	80.000	19.995	100.469	19.904	2.454	0.483
314.000	228.553	80.001	19.994	100.464	19.901	2.665	0.496
316.000	229.547	80.000	19.995	100.463	19.900	2.704	0.488
318.000	230.537	80.001	19.993	100.463	19.902	2.573	0.504
320.000	231.514	80.000	19.995	100.461	19.901	2.649	0.482
322.000	232.493	79.999	19.996	100.464	19.900	2.747	0.493
324.000	233.481	79.998	19.995	100.463	19.905	2.386	0.491
326.000	234.493	79.999	19.996	100.461	19.903	2.564	0.479
328.000	235.465	79.997	19.996	100.461	19.903	2.507	0.503
330.000	236.421	79.998	19.995	100.462	19.901	2.649	0.484
332.000	237.387	79.998	19.996	100.461	19.905	2.390	0.490
334.000	238.355	79.998	19.996	100.461	19.900	2.758	0.475
336.000	239.285	79.998	19.997	100.462	19.903	2.559	0.452
338.000	240.264	79.996	19.996	100.462	19.901	2.646	0.456
340.000	241.199	79.998	19.995	100.462	19.901	2.674	0.473
342.000	242.238	79.998	19.994	100.459	19.902	2.621	0.527
344.000	243.183	79.998	19.994	100.462	19.900	2.737	0.472
346.000	244.166	79.998	19.995	100.465	19.904	2.450	0.487
348.000	245.065	79.999	19.996	100.466	19.904	2.491	0.448
350.000	246.096	79.998	19.994	100.465	19.903	2.537	0.503
352.000	247.078	79.998	19.996	100.463	19.904	2.450	0.462
354.000	248.049	79.996	19.995	100.465	19.901	2.696	0.473
356.000	249.067	79.998	19.995	100.465	19.902	2.596	0.520
358.000	250.063	79.997	19.995	100.466	19.903	2.525	0.533
360.000	251.063	79.998	19.996	100.461	19.904	2.438	0.458
362.000	252.071	79.998	19.995	100.461	19.902	2.610	0.528
364.000	253.072	79.997	19.994	100.466	19.905	2.407	0.498
366.000	254.066	79.998	19.995	100.465	19.903	2.501	0.488
368.000	255.031	79.998	19.996	100.454	19.904	2.462	0.467
370.000	256.035	79.998	19.995	100.456	19.903	2.558	0.496
372.000	256.984	80.000	19.996	100.453	19.905	2.400	0.467
374.000	257.998	80.001	19.995	100.450	19.904	2.448	0.520
376.000	258.997	79.999	19.994	100.445	19.906	2.341	0.507
378.000	259.973	80.000	19.995	100.448	19.905	2.419	0.524
380.000	260.947	80.000	19.995	100.457	19.903	2.501	0.444
382.000	261.934	79.999	19.996	100.444	19.904	2.449	0.496
384.000	262.913	79.999	19.996	100.440	19.905	2.433	0.481
386.000	263.910	79.999	19.995	100.447	19.904	2.494	0.490
388.000	264.902	79.998	19.994	100.433	19.904	2.495	0.496
390.000	265.853	79.998	19.995	100.440	19.904	2.440	0.455
392.000	266.885	79.999	19.996	100.432	19.898	2.867	0.502
394.000	267.880	80.000	19.996	100.428	19.904	2.476	0.485
396.000	268.836	80.000	19.995	100.428	19.902	2.574	0.462
398.000	269.827	80.000	19.996	100.430	19.900	2.737	0.509
400.000	270.850	79.999	19.995	100.425	19.898	2.888	0.528
402.000	271.854	79.998	19.995	100.423	19.902	2.572	0.509
404.000	272.845	79.998	19.996	100.423	19.900	2.723	0.478
406.000	273.801	79.997	19.995	100.424	19.900	2.732	0.477
408.000	274.803	79.998	19.995	100.425	19.901	2.634	0.486
410.000	275.780	79.996	19.995	100.426	19.899	2.812	0.491
412.000	276.751	79.996	19.995	100.427	19.901	2.634	0.489
414.000	277.726	79.997	19.996	100.429	19.901	2.691	0.496
416.000	278.709	79.997	19.994	100.427	19.902	2.600	0.481
418.000	279.731	79.996	19.996	100.426	19.902	2.608	0.470
420.000	280.687	79.997	19.994	100.426	19.903	2.549	0.475
422.000	281.665	79.996	19.996	100.426	19.903	2.533	0.471
424.000	282.676	79.998	19.995	100.426	19.899	2.796	0.495
426.000	283.649	79.997	19.996	100.427	19.903	2.536	0.498
428.000	284.636	79.998	19.997	100.428	19.905	2.432	0.477
430.000	285.593	79.997	19.996	100.427	19.903	2.563	0.496
432.000	286.574	79.998	19.996	100.426	19.904	2.456	0.477
434.000	287.585	79.999	19.996	100.425	19.901	2.654	0.526
436.000	288.568	79.998	19.995	100.417	19.900	2.703	0.495
438.000	289.572	79.997	19.996	100.423	19.902	2.588	0.485
440.000	290.530	79.998	19.995	100.422	19.902	2.600	0.494
442.000	291.598	79.999	19.995	100.423	19.902	2.607	0.551
444.000	292.529	79.998	19.996	100.424	19.898	2.878	0.463
446.000	293.481	79.998	19.995	100.419	19.896	3.023	0.489
448.000	294.490	79.998	19.995	100.423	19.898	2.879	0.498
450.000	295.459	79.999	19.995	100.423	19.902	2.584	0.503
452.000	296.458	80.000	19.995	100.421	19.900	2.719	0.490
454.000	297.509	79.998	19.995	100.422	19.900	2.721	0.516
456.000	298.491	79.999	19.994	100.419	19.904	2.490	0.504
458.000	299.336	79.999	19.995	100.419	19.903	2.508	0.495
460.000	300.247	80.000	19.995	100.422	19.903	2.549	0.485
462.000	301.302	79.999	19.995	100.416	19.903	2.559	0.453
464.000	302.293	79.999	19.995	100.415	19.901	2.685	0.441
466.000	303.349	79.998	19.994	100.408	19.900	2.719	0.552
468.000	304.287	79.998	19.994	100.402	19.903	2.515	0.487
470.000	305.294	79.999	19.994	100.412	19.901	2.642	0.462
472.000	306.286	79.998	19.994	100.404	19.902	2.566	0.460
474.000	307.322	79.999	19.996	100.399	19.899	2.792	0.511
476.000	308.240	79.999	19.994	100.410	19.903	2.543	0.512
478.000	309.218	80.000	19.995	100.415	19.902	2.571	0.455
480.000	310.223	80.001	19.996	100.403	19.903	2.509	0.483
482.000	311.208	80.001	19.996	100.405	19.901	2.653	0.503
484.000	312.216	79.998	19.994	100.407	19.903	2.559	0.498
486.000	313.254	79.998	19.996	100.411	19.905	2.427	0.507
488.000	314.211	79.996	19.996	100.412	19.903	2.513	0.508
490.000	315.167	79.995	19.995	100.405	19.902	2.614	0.473
492.000	316.178	79.996	19.996	100.410	19.902	2.631	0.492
494.000	317.200	79.996	19.995	100.408	19.901	2.692	0.545
496.000	318.143	80.000	19.995	100.396	19.900	2.736	0.496
498.000	319.128	80.001	19.996	100.393	19.900	2.711	0.461
500.000	320.178	79.998	19.994	100.393	19.902	2.628	0.532
502.000	321.130	79.997	19.995	100.388	19.902	2.596	0.492
504.000	322.113	79.999	19.997	100.389	19.902	2.598	0.495
506.000	323.124	79.998	19.996	100.395	19.903	2.559	0.502
508.000	324.126	79.997	19.995	100.391	19.906	2.356	0.510
510.000	325.091	79.998	19.996	100.390	19.902	2.605	0.487
512.000	326.113	79.998	19.996	100.392	19.906	2.331	0.506
514.000	327.153	79.997	19.995	100.396	19.906	2.308	0.542
516.000	328.104	79.996	19.996	100.391	19.904	2.493	0.497
518.000	329.121	79.996	19.997	100.389	19.902	2.619	0.509
520.000	330.200	79.996	19.997	100.390	19.904	2.484	0.509
522.000	331.173	79.998	19.997	100.390	19.903	2.562	0.475
524.000	332.214	79.998	19.996	100.392	19.903	2.548	0.496
526.000	333.259	79.998	19.996	100.387	19.905	2.402	0.521
528.000	334.303	79.998	19.995	100.387	19.902	2.615	0.529
530.000	335.307	79.999	19.995	100.386	19.903	2.528	0.495
532.000	336.303	79.999	19.996	100.387	19.905	2.416	0.515
534.000	337.336	80.000	19.995	100.388	19.903	2.557	0.489
536.000	338.372	80.000	19.995	100.387	19.903	2.527	0.526
538.000	339.384	79.999	19.995	100.388	19.902	2.576	0.488
540.000	340.437	79.999	19.995	100.391	19.898	2.832	0.538
542.000	341.471	79.999	19.994	100.389	19.901	2.638	0.485
544.000	342.475	79.997	19.996	100.387	19.899	2.809	0.491
546.000	343.501	79.998	19.996	100.388	19.900	2.717	0.484
548.000	344.555	80.000	19.996	100.388	19.902	2.583	0.508
550.000	345.559	79.998	19.994	100.387	19.895	3.067	0.490
552.000	346.548	80.000	19.995	100.387	19.898	2.889	0.504
554.000	347.625	79.997	19.995	100.388	19.898	2.876	0.520
556.000	348.610	80.000	19.995	100.388	19.897	2.910	0.507
558.000	349.619	79.999	19.994	100.387	19.897	2.924	0.488
560.000	350.652	80.002	19.995	100.387	19.898	2.848	0.508
562.000	351.657	80.004	19.994	100.386	19.900	2.711	0.491
564.000	352.746	79.999	19.994	100.385	19.900	2.739	0.519
566.000	353.779	79.998	19.993	100.380	19.901	2.686	0.502
568.000	354.815	79.998	19.995	100.380	19.904	2.469	0.510
570.000	355.839	79.999	19.995	100.381	19.901	2.646	0.519
572.000	356.867	79.999	19.995	100.383	19.903	2.551	0.528
574.000	357.883	79.998	19.996	100.375	19.903	2.563	0.516
576.000	358.935	79.997	19.996	100.357	19.903	2.517	0.523
578.000	359.949	79.997	19.996	100.366	19.901	2.641	0.527
580.000	360.964	79.996	19.996	100.362	19.901	2.659	0.514
582.000	361.999	79.997	19.996	100.353	19.897	2.906	0.506
584.000	362.991	79.998	19.995	100.368	19.904	2.471	0.481
586.000	363.975	79.999	19.996	100.368	19.902	2.592	0.474
588.000	364.968	79.999	19.996	100.363	19.899	2.775	0.490
590.000	365.991	79.998	19.996	100.354	19.900	2.700	0.513
592.000	366.934	79.998	19.995	100.369	19.899	2.793	0.487
594.000	367.939	79.997	19.995	100.364	19.899	2.795	0.507
596.000	368.927	79.996	19.995	100.359	19.898	2.880	0.518
598.000	369.959	79.998	19.995	100.365	19.897	2.950	0.512
600.000	370.938	79.996	19.996	100.366	19.898	2.854	0.512
602.000	371.895	79.997	19.996	100.372	19.897	2.920	0.497
604.000	372.909	79.996	19.996	100.377	19.896	2.979	0.508
606.000	373.890	79.997	19.997	100.380	19.896	2.990	0.530
608.000	374.903	79.997	19.996	100.370	19.895	3.028	0.509
610.000	375.876	79.997	19.997	100.350	19.897	2.945	0.480
612.000	376.903	79.997	19.997	100.352	19.898	2.870	0.524
614.000	377.859	79.998	19.996	100.364	19.897	2.943	0.481
616.000	378.913	79.999	19.995	100.366	19.895	3.048	0.525
618.000	379.866	80.001	19.996	100.361	19.892	3.231	0.500
620.000	380.813	79.998	19.996	100.357	19.896	3.007	0.476
622.000	381.875	79.996	19.995	100.365	19.896	3.019	0.509
624.000	382.863	79.998	19.995	100.356	19.898	2.858	0.516
626.000	383.874	79.999	19.995	100.357	19.893	3.222	0.512
628.000	384.874	79.999	19.995	100.349	19.895	3.042	0.500
630.000	385.880	79.999	19.995	100.347	19.896	2.973	0.512
632.000	386.895	79.999	19.995	100.349	19.893	3.208	0.511
634.000	387.930	80.000	19.994	100.346	19.891	3.312	0.522
636.000	388.948	80.000	19.995	100.349	19.891	3.332	0.491
638.000	389.982	80.001	19.995	100.350	19.892	3.234	0.514
640.000	391.041	80.001	19.995	100.350	19.890	3.382	0.533
642.000	392.042	80.000	19.995	100.350	19.890	3.401	0.492
644.000	393.110	80.000	19.994	100.352	19.892	3.275	0.541
646.000	394.169	80.000	19.995	100.348	19.889	3.460	0.527
648.000	395.210	79.998	19.994	100.345	19.889	3.454	0.544
650.000	396.242	79.999	19.996	100.348	19.885	3.705	0.511
652.000	397.316	79.998	19.995	100.347	19.887	3.584	0.519
654.000	398.372	79.997	19.995	100.355	19.882	3.895	0.496
656.000	399.473	79.999	19.995	100.357	19.880	4.026	0.559
658.000	400.533	79.996	19.995	100.348	19.883	3.867	0.511
660.000	401.613	79.999	19.996	100.346	19.881	3.980	0.534
662.000	402.656	79.998	19.997	100.347	19.882	3.934	0.534
664.000	403.726	79.999	19.995	100.349	19.880	4.023	0.550
666.000	404.808	79.998	19.997	100.350	19.877	4.247	0.533
668.000	405.879	79.998	19.995	100.351	19.873	4.479	0.522
670.000	406.948	79.996	19.997	100.353	19.876	4.303	0.532
672.000	408.007	79.999	19.997	100.349	19.874	4.449	0.536
674.000	409.125	79.998	19.995	100.348	19.870	4.714	0.573
676.000	410.168	79.998	19.996	100.347	19.868	4.866	0.556
678.000	411.259	79.998	19.996	100.348	19.866	4.957	0.523
680.000	412.340	79.997	19.995	100.348	19.865	5.028	0.536
682.000	413.373	79.997	19.996	100.347	19.863	5.164	0.522
684.000	414.448	79.997	19.995	100.343	19.858	5.473	0.531
686.000	415.458	79.996	19.996	100.350	19.857	5.589	0.543
688.000	416.553	79.997	19.995	100.348	19.854	5.743	0.558
690.000	417.585	80.001	19.996	100.349	19.852	5.914	0.520
692.000	418.647	79.998	19.995	100.344	19.847	6.235	0.506
694.000	419.731	80.000	19.997	100.341	19.841	6.647	0.513
696.000	420.792	79.998	19.996	100.339	19.839	6.765	0.518
698.000	421.851	79.999	19.994	100.334	19.838	6.840	0.524
700.000	422.924	79.997	19.996	100.332	19.836	6.950	0.541
702.000	423.991	80.000	19.998	100.339	19.823	7.777	0.487
704.000	425.067	79.999	19.996	100.335	19.822	7.865	0.528
706.000	426.117	79.996	19.996	100.322	19.815	8.327	0.510
708.000	427.202	79.997	19.996	100.320	19.812	8.521	0.510
710.000	428.218	79.999	19.996	100.330	19.809	8.735	0.522
712.000	429.299	80.000	19.995	100.322	19.802	9.191	0.525
714.000	430.380	80.000	19.996	100.309	19.795	9.615	0.535
716.000	431.371	79.997	19.995	100.309	19.785	10.304	0.528
718.000	432.412	80.000	19.995	100.309	19.777	10.858	0.532
720.000	433.450	80.000	19.994	100.308	19.766	11.590	0.531
722.000	434.490	79.999	19.994	100.313	19.760	11.981	0.522
724.000	435.543	80.001	19.995	100.309	19.750	12.625	0.521
726.000	436.586	79.998	19.996	100.311	19.739	13.368	0.514
728.000	437.549	79.998	19.995	100.308	19.717	14.806	0.488
730.000	438.590	79.997	19.995	100.320	19.697	16.132	0.509
732.000	439.625	79.998	19.996	100.325	19.675	17.538	0.514
734.000	440.664	79.996	19.995	100.308	19.659	18.625	0.501
736.000	441.699	79.997	19.996	100.307	19.638	19.988	0.519
738.000	442.677	79.997	19.997	100.307	19.618	21.281	0.483
740.000	443.728	79.998	19.996	100.308	19.603	22.306	0.522
742.000	444.748	79.998	19.994	100.304	19.586	23.391	0.523
744.000	445.761	79.999	19.994	100.304	19.569	24.524	0.513
746.000	446.765	79.998	19.994	100.304	19.545	26.138	0.503
748.000	447.790	79.999	19.995	100.304	19.522	27.624	0.489
750.000	448.811	79.999	19.995	100.308	19.493	29.517	0.498
752.000	449.853	79.997	19.994	100.308	19.468	31.180	0.502
754.000	450.854	79.997	19.994	100.310	19.432	33.549	0.511
756.000	451.917	79.998	19.995	100.296	19.400	35.640	0.556
758.000	452.926	79.997	19.996	100.287	19.362	38.142	0.496
760.000	453.941	79.998	19.996	100.294	19.315	41.288	0.471
762.000	455.014	79.998	19.997	100.275	19.277	43.753	0.531
764.000	456.017	79.999	19.996	100.270	19.228	47.003	0.510
766.000	456.970	79.998	19.997	100.269	19.174	50.543	0.471
768.000	458.001	79.996	19.996	100.267	19.119	54.153	0.503
770.000	459.022	79.998	19.996	100.265	19.053	58.543	0.482
772.000	460.058	80.000	19.996	100.270	18.973	63.750	0.497
774.000	461.024	79.998	19.995	100.273	18.892	69.110	0.481
776.000	462.027	79.999	19.995	100.269	18.797	75.349	0.510
778.000	463.028	79.999	19.995	100.270	18.687	82.561	0.484
780.000	463.950	80.001	19.995	100.275	18.559	90.944	0.454
782.000	464.952	79.999	19.996	100.270	18.426	99.723	0.493
784.000	465.933	79.999	19.996	100.266	18.278	109.417	0.494
786.000	466.912	79.998	19.995	100.231	18.125	119.495	0.486
788.000	467.921	79.999	19.996	100.206	17.972	129.580	0.497
790.000	468.900	79.997	19.996	100.186	17.815	139.806	0.492
792.000	469.918	79.997	19.996	100.178	17.645	150.931	0.517
794.000	470.941	80.000	19.996	100.169	17.467	162.629	0.513
796.000	471.938	79.999	19.996	100.163	17.256	176.448	0.512
798.000	472.872	79.998	19.996	100.171	17.035	190.931	0.465
800.000	473.906	79.997	19.995	100.132	16.799	206.355	0.514
802.000	474.909	80.000	19.995	100.075	16.545	223.011	0.500
804.000	475.913	80.000	19.994	100.057	16.278	240.452	0.505
806.000	476.840	79.999	19.994	100.052	16.002	258.378	0.478
808.000	477.867	79.998	19.994	100.039	15.715	277.011	0.531
810.000	478.795	79.999	19.994	99.988	15.422	296.172	0.476
812.000	479.774	79.997	19.995	99.958	15.097	317.565	0.468
814.000	480.722	79.996	19.995	99.980	14.750	339.510	0.487
816.000	481.726	79.997	19.995	99.890	14.367	364.229	0.508
818.000	482.707	79.997	19.995	99.816	13.971	389.763	0.491
820.000	483.656	79.997	19.995	99.771	13.558	416.282	0.472
822.000	484.625	79.998	19.996	99.825	13.132	443.606	0.526
824.000	485.578	79.999	19.995	99.656	12.698	471.599	0.458
826.000	486.566	79.998	19.995	99.516	12.252	500.381	0.486
828.000	487.508	80.000	19.995	99.426	11.803	529.115	0.460
830.000	488.482	79.997	19.996	99.335	11.362	557.161	0.511
832.000	489.429	79.999	19.995	99.225	10.923	585.756	0.453
834.000	490.419	79.999	19.994	99.156	10.499	613.152	0.500
836.000	491.402	79.998	19.995	99.097	10.067	638.186	0.511
838.000	492.363	79.998	19.995	99.044	9.669	661.951	0.478
840.000	493.323	79.998	19.995	98.920	9.262	689.899	0.493
842.000	494.315	79.997	19.994	98.857	8.848	718.458	0.468
844.000	495.363	79.997	19.995	98.923	8.592	735.602	0.528
846.000	496.332	79.998	19.996	98.653	8.571	737.361	0.486
848.000	497.378	79.997	19.995	98.195	8.698	730.018	0.526
850.000	498.409	79.997	19.995	98.189	8.963	713.170	0.514
852.000	499.453	79.998	19.995	98.501	9.374	686.231	0.516
854.000	500.501	79.998	19.997	98.649	9.895	652.888	0.515
856.000	501.572	79.998	19.996	98.692	10.479	616.725	0.568
858.000	502.609	79.999	19.997	98.783	11.168	573.155	0.514
860.000	503.673	80.000	19.995	98.892	11.972	521.732	0.535
862.000	504.706	80.000	19.996	98.901	12.862	464.358	0.525
864.000	505.767	80.000	19.995	98.866	13.788	404.233	0.537
866.000	506.843	79.999	19.995	99.094	14.705	344.273	0.515
868.000	507.908	79.999	19.995	99.356	15.577	287.111	0.534
870.000	509.007	79.999	19.995	99.562	16.377	234.633	0.519
872.000	510.080	80.000	19.996	99.768	17.074	188.816	0.528
874.000	511.133	79.998	19.994	99.948	17.681	148.918	0.535
876.000	512.200	79.999	19.996	100.070	18.188	115.520	0.546
878.000	513.249	79.999	19.995	100.127	18.595	88.708	0.525
880.000	514.332	79.999	19.996	100.194	18.918	67.390	0.545
882.000	515.405	79.999	19.997	100.238	19.183	49.968	0.534
884.000	516.400	80.000	19.996	100.274	19.372	37.522	0.490
886.000	517.452	80.000	19.996	100.302	19.521	27.665	0.527
888.000	518.519	80.001	19.997	100.296	19.633	20.282	0.535
890.000	519.604	80.001	19.995	100.298	19.710	15.260	0.530
892.000	520.642	80.000	19.996	100.286	19.765	11.609	0.515
894.000	521.674	79.998	19.995	100.296	19.799	9.394	0.494
896.000	522.747	79.999	19.996	100.285	19.824	7.712	0.513
898.000	523.791	79.998	19.995	100.267	19.842	6.559	0.508
900.000	524.863	79.997	19.994	100.265	19.855	5.615	0.551
902.000	525.876	79.998	19.995	100.264	19.866	4.923	0.503
904.000	526.966	79.998	19.994	100.265	19.866	4.932	0.538
906.000	528.022	79.998	19.995	100.243	19.874	4.434	0.526
908.000	529.025	79.999	19.995	100.175	19.876	4.270	0.518
910.000	530.093	79.999	19.996	99.596	19.880	4.051	0.528
912.000	531.158	79.999	19.995	99.686	19.885	3.701	0.552
914.000	532.184	79.999	19.995	100.086	19.881	4.004	0.555
916.000	533.189	79.998	19.996	100.152	19.885	3.723	0.516
918.000	534.253	79.997	19.995	100.181	19.884	3.802	0.495
920.000	535.283	79.998	19.996	100.137	19.884	3.775	0.518
922.000	536.329	79.997	19.995	100.220	19.881	3.983	0.525
924.000	537.385	79.998	19.995	100.266	19.890	3.362	0.519
926.000	538.381	79.999	19.996	100.266	19.888	3.521	0.520
928.000	539.378	79.996	19.995	100.242	19.883	3.839	0.514
930.000	540.406	79.998	19.995	100.231	19.887	3.560	0.501
932.000	541.464	79.999	19.996	100.232	19.892	3.245	0.534
934.000	542.458	79.999	19.994	100.229	19.890	3.401	0.515
936.000	543.458	80.000	19.995	100.227	19.891	3.294	0.520
938.000	544.435	79.999	19.996	100.231	19.888	3.537	0.477
940.000	545.438	79.999	19.995	100.232	19.893	3.210	0.510
942.000	546.389	80.000	19.994	100.229	19.886	3.635	0.465
944.000	547.393	79.998	19.995	100.229	19.890	3.396	0.512
946.000	548.387	79.999	19.996	100.231	19.893	3.194	0.487
948.000	549.285	79.999	19.995	100.230	19.894	3.137	0.495
950.000	550.263	79.998	19.997	100.242	19.890	3.370	0.469
952.000	551.225	79.999	19.995	100.236	19.890	3.416	0.479
954.000	552.190	79.998	19.995	100.246	19.890	3.397	0.490
956.000	553.188	79.998	19.996	100.251	19.892	3.242	0.488
958.000	554.159	79.998	19.995	100.260	19.889	3.444	0.475
960.000	555.081	80.000	19.995	100.261	19.890	3.393	0.471
962.000	556.035	79.999	19.995	100.265	19.896	3.022	0.453
964.000	556.987	79.999	19.995	100.265	19.891	3.308	0.498
966.000	557.969	80.001	19.995	100.265	19.888	3.498	0.499
968.000	558.906	80.000	19.995	100.265	19.886	3.666	0.491
970.000	559.865	79.998	19.995	100.266	19.888	3.496	0.506
972.000	560.825	80.000	19.997	100.272	19.891	3.352	0.479
974.000	561.823	79.998	19.996	100.267	19.886	3.626	0.476
976.000	562.787	79.997	19.997	100.265	19.887	3.603	0.481
978.000	563.737	79.997	19.995	100.267	19.894	3.142	0.451
980.000	564.665	79.998	19.997	100.270	19.890	3.402	0.486
982.000	565.645	79.998	19.996	100.275	19.891	3.296	0.497
984.000	566.658	79.996	19.996	100.269	19.895	3.079	0.541
986.000	567.587	79.998	19.994	100.277	19.892	3.244	0.448
988.000	568.543	79.997	19.995	100.284	19.895	3.061	0.483
990.000	569.536	79.999	19.995	100.278	19.893	3.209	0.456
992.000	570.559	79.999	19.996	100.269	19.895	3.074	0.524
994.000	571.540	79.999	19.996	100.273	19.891	3.291	0.494
996.000	572.540	80.000	19.994	100.270	19.894	3.140	0.504
998.000	573.579	79.999	19.996	100.271	19.891	3.309	0.524
1000.000	574.607	79.999	19.995	100.274	19.891	3.335	0.491
1002.000	575.620	79.999	19.995	100.275	19.889	3.424	0.511
1004.000	576.671	79.998	19.995	100.293	19.891	3.334	0.502
1006.000	577.711	79.996	19.996	100.302	19.889	3.475	0.510
1008.000	578.677	79.997	19.995	100.298	19.889	3.477	0.484
1010.000	579.755	79.997	19.995	100.297	19.889	3.464	0.514
1012.000	580.754	79.996	19.995	100.288	19.887	3.555	0.502
1014.000	581.803	79.997	19.995	100.284	19.890	3.394	0.528
1016.000	582.842	79.998	19.994	100.291	19.890	3.355	0.495
1018.000	583.854	80.000	19.996	100.272	19.885	3.719	0.508
1020.000	584.886	80.001	19.993	100.273	19.895	3.044	0.508
1022.000	585.937	80.001	19.995	100.288	19.891	3.331	0.525
1024.000	586.957	80.000	19.994	100.283	19.882	3.910	0.515
1026.000	587.996	80.000	19.995	100.293	19.888	3.518	0.510
1028.000	588.999	80.000	19.995	100.297	19.897	2.957	0.514
1030.000	590.060	80.001	19.995	100.287	19.888	3.516	0.502
1032.000	591.063	80.000	19.994	100.272	19.891	3.291	0.503
1034.000	592.093	80.001	19.997	100.279	19.892	3.234	0.538
1036.000	593.136	79.998	19.995	100.281	19.896	2.970	0.505
1038.000	594.150	79.999	19.996	100.277	19.890	3.403	0.482
1040.000	595.216	80.000	19.995	100.272	19.896	2.986	0.544
1042.000	596.238	80.001	19.998	100.277	19.894	3.131	0.534
1044.000	597.221	80.000	19.995	100.292	19.890	3.399	0.502
1046.000	598.244	80.001	19.996	100.294	19.895	3.087	0.500
1048.000	599.294	80.002	19.996	100.294	19.893	3.189	0.515
1050.000	600.332	80.001	19.996	100.295	19.899	2.816	0.521
1052.000	601.354	79.999	19.994	100.295	19.884	3.764	0.532
1054.001	602.407	80.000	19.995	100.294	19.892	3.236	0.545
1056.000	603.442	79.999	19.996	100.302	19.890	3.359	0.510
1058.000	604.536	79.997	19.995	100.303	19.889	3.451	0.541
1060.000	605.583	79.996	19.995	100.307	19.885	3.692	0.514
1062.000	606.636	79.998	19.995	100.303	19.891	3.339	0.519
1064.000	607.687	79.998	19.996	100.307	19.892	3.270	0.515
1066.000	608.760	79.998	19.996	100.298	19.893	3.222	0.514
1068.001	609.812	79.996	19.996	100.298	19.891	3.311	0.542
1070.000	610.854	79.997	19.995	100.302	19.891	3.291	0.503
1072.000	611.881	79.995	19.995	100.296	19.886	3.639	0.532
1074.000	612.899	79.999	19.996	100.297	19.885	3.700	0.489
1076.000	613.983	79.999	19.995	100.303	19.887	3.579	0.557
1078.000	614.992	79.998	19.995	100.301	19.885	3.731	0.529
1080.000	616.065	79.999	19.996	100.303	19.887	3.572	0.492
1082.000	617.118	79.999	19.994	100.305	19.887	3.593	0.536
1084.000	618.121	79.997	19.995	100.305	19.884	3.806	0.513
1086.000	619.132	79.998	19.995	100.301	19.885	3.727	0.512
1088.000	620.161	79.997	19.994	100.303	19.887	3.576	0.520
1090.001	621.178	79.998	19.995	100.299	19.889	3.486	0.523
1092.001	622.206	79.998	19.995	100.307	19.887	3.614	0.530
1094.000	623.240	79.997	19.995	100.308	19.884	3.786	0.512
1096.001	624.266	80.010	19.999	100.316	19.885	3.692	0.509
1098.001	625.286	80.017	20.002	100.336	19.880	4.017	0.484
1100.000	626.294	80.017	20.003	100.339	19.883	3.859	0.498
1102.001	627.325	80.016	20.002	100.336	19.882	3.946	0.501
1104.001	628.382	80.018	20.004	100.326	19.886	3.660	0.531
1106.000	629.415	80.019	20.001	100.336	19.882	3.905	0.516
1108.001	630.441	80.020	20.002	100.340	19.882	3.943	0.493
1110.001	631.490	80.018	20.002	100.341	19.884	3.797	0.530
1112.000	632.522	80.019	20.003	100.341	19.885	3.717	0.507
1114.000	633.562	80.018	20.002	100.340	19.883	3.858	0.528
1116.000	634.583	80.017	20.001	100.344	19.881	3.978	0.525
1118.000	635.710	80.017	20.002	100.344	19.880	4.040	0.536
1120.000	636.738	80.018	20.001	100.348	19.883	3.833	0.521
1122.000	637.774	80.018	19.999	100.348	19.885	3.719	0.499
1124.000	638.856	80.020	20.002	100.348	19.879	4.133	0.497
1126.000	639.859	79.999	19.998	100.341	19.883	3.820	0.538
1128.000	640.869	80.000	19.995	100.342	19.879	4.115	0.491
1130.000	641.941	80.000	19.995	100.341	19.874	4.445	0.525
1132.000	642.860	79.999	19.997	100.343	19.876	4.325	0.480
1134.000	643.934	80.000	19.994	100.342	19.884	3.794	0.513
1136.000	644.943	79.999	19.997	100.346	19.877	4.243	0.541
1138.000	645.927	79.999	19.995	100.347	19.874	4.429	0.492
1140.000	646.923	79.998	19.996	100.347	19.875	4.382	0.472
1142.000	647.933	79.997	19.994	100.348	19.874	4.447	0.527
1144.000	648.935	79.999	19.995	100.347	19.875	4.392	0.505
1146.000	649.965	79.998	19.996	100.346	19.873	4.523	0.523
1148.000	650.984	79.998	19.995	100.346	19.878	4.162	0.537
1150.000	651.965	79.999	19.996	100.349	19.877	4.272	0.453
1152.000	652.970	79.999	19.996	100.354	19.875	4.376	0.486
1154.001	654.006	79.999	19.997	100.346	19.876	4.337	0.525
1156.000	655.013	79.998	19.996	100.343	19.872	4.575	0.504
1158.000	656.040	79.998	19.996	100.350	19.875	4.347	0.534
1160.000	657.028	79.997	19.996	100.366	19.876	4.298	0.522
1162.000	658.023	79.998	19.996	100.368	19.878	4.152	0.502
1164.001	659.046	79.998	19.996	100.372	19.871	4.614	0.524
1166.000	660.023	79.998	19.997	100.377	19.877	4.246	0.526
1168.000	660.992	79.998	19.998	100.380	19.869	4.755	0.482
1170.000	661.987	79.999	19.996	100.380	19.874	4.469	0.483
1172.000	663.014	79.999	19.994	100.381	19.868	4.863	0.492
1174.000	664.005	79.999	19.996	100.383	19.870	4.734	0.494
1176.001	665.033	79.998	19.996	100.385	19.872	4.555	0.504
1178.000	666.036	79.998	19.995	100.391	19.867	4.939	0.517
1180.000	667.018	79.999	19.996	100.397	19.871	4.649	0.469
1182.000	668.068	79.998	19.995	100.392	19.866	4.992	0.529
1184.000	669.074	79.999	19.996	100.396	19.867	4.884	0.464
1186.000	670.116	79.999	19.996	100.408	19.864	5.139	0.471
1188.000	671.154	80.001	19.995	100.411	19.863	5.179	0.499
1190.000	672.185	79.999	19.993	100.413	19.865	5.028	0.516
1192.001	673.202	80.000	19.996	100.402	19.866	5.004	0.505
1194.000	674.249	79.999	19.995	100.418	19.863	5.169	0.553
1196.001	675.240	79.999	19.994	100.424	19.862	5.251	0.493
1198.000	676.285	79.997	19.996	100.425	19.859	5.428	0.518
1200.000	677.303	79.997	19.993	100.427	19.863	5.185	0.513
1202.000	678.292	80.000	19.995	100.425	19.859	5.411	0.501
1204.000	679.307	79.999	19.995	100.426	19.864	5.121	0.462
1206.001	680.285	80.001	19.995	100.426	19.859	5.449	0.502
1208.001	681.284	80.000	19.994	100.426	19.863	5.202	0.489
1210.000	682.315	80.001	19.994	100.424	19.861	5.284	0.515
1212.000	683.334	80.002	19.993	100.426	19.856	5.608	0.518
1214.000	684.375	80.002	19.994	100.426	19.856	5.658	0.523
1216.000	685.376	80.002	19.995	100.437	19.859	5.460	0.524
1218.001	686.456	80.000	19.996	100.438	19.853	5.827	0.545
1220.000	687.449	80.001	19.996	100.451	19.856	5.644	0.531
1222.000	688.552	79.998	19.997	100.449	19.858	5.519	0.514
1224.000	689.572	80.000	19.997	100.459	19.854	5.751	0.523
1226.000	690.622	79.999	19.996	100.458	19.854	5.769	0.535
1228.000	691.679	79.999	19.996	100.461	19.856	5.617	0.517
1230.000	692.718	79.997	19.996	100.462	19.852	5.910	0.534
1232.000	693.733	79.999	19.997	100.463	19.853	5.848	0.523
1234.000	694.815	79.998	19.997	100.465	19.855	5.687	0.534
1236.000	695.854	79.999	19.997	100.465	19.853	5.841	0.513
1238.000	696.919	80.000	19.998	100.470	19.850	6.019	0.518
1240.000	697.929	79.998	19.997	100.463	19.850	6.037	0.497
1242.000	698.964	79.999	19.997	100.463	19.846	6.271	0.526
1244.000	699.997	79.998	19.995	100.467	19.846	6.331	0.518
1246.000	701.018	79.998	19.997	100.484	19.850	6.066	0.507
1248.000	702.031	79.998	19.996	100.494	19.843	6.473	0.522
1250.000	703.068	79.999	19.996	100.501	19.845	6.359	0.487
1252.000	704.133	79.998	19.997	100.491	19.849	6.128	0.526
1254.000	705.174	79.997	19.996	100.497	19.845	6.365	0.533
1256.000	706.183	79.997	19.997	100.505	19.847	6.251	0.528
1258.000	707.248	79.998	19.998	100.503	19.844	6.399	0.525
1260.000	708.292	79.999	19.995	100.504	19.844	6.402	0.514
1262.001	709.305	79.999	19.995	100.505	19.849	6.082	0.517
1264.001	710.332	79.999	19.995	100.506	19.846	6.306	0.520
1266.000	711.383	80.001	19.995	100.507	19.847	6.246	0.518
1268.000	712.412	80.001	19.994	100.509	19.848	6.142	0.530
1270.000	713.433	79.998	19.995	100.507	19.846	6.274	0.527
1272.000	714.444	80.001	19.996	100.508	19.844	6.412	0.549
1274.000	715.500	79.999	19.994	100.511	19.844	6.404	0.508
1276.000	716.481	80.001	19.995	100.510	19.847	6.230	0.512
1278.000	717.468	80.003	19.995	100.504	19.845	6.373	0.486
1280.000	718.443	80.000	19.996	100.506	19.844	6.463	0.478
1282.000	719.462	80.001	19.995	100.517	19.844	6.455	0.512
1284.000	720.443	79.999	19.996	100.521	19.844	6.402	0.511
1286.000	721.373	80.002	19.996	100.509	19.841	6.602	0.468
1288.000	722.326	80.000	19.997	100.527	19.842	6.561	0.484
1290.000	723.278	80.002	19.995	100.529	19.837	6.899	0.485
1292.000	724.221	80.000	19.995	100.535	19.837	6.919	0.472
1294.000	725.194	80.003	19.995	100.533	19.836	6.983	0.459
1296.000	726.187	80.003	19.995	100.539	19.840	6.681	0.467
1298.000	727.141	80.000	19.995	100.539	19.840	6.716	0.483
1300.001	728.154	80.002	19.996	100.541	19.840	6.683	0.487
1302.000	729.185	80.001	19.995	100.538	19.838	6.835	0.536
1304.000	730.141	80.001	19.996	100.543	19.839	6.786	0.495
1306.000	731.202	79.999	19.997	100.549	19.841	6.636	0.511
1308.000	732.197	79.999	19.996	100.554	19.841	6.648	0.527
1310.000	733.247	79.999	19.995	100.550	19.834	7.070	0.525
1312.000	734.278	80.000	19.996	100.556	19.836	6.963	0.527
1314.001	735.325	80.001	19.996	100.564	19.835	7.037	0.534
1316.000	736.337	80.001	19.996	100.563	19.835	7.021	0.491
1318.000	737.366	80.000	19.996	100.573	19.830	7.391	0.518
1320.000	738.436	79.996	19.996	100.569	19.833	7.158	0.540
1322.001	739.491	80.000	19.997	100.560	19.828	7.466	0.547
1324.000	740.524	80.001	19.997	100.578	19.828	7.477	0.546
1326.000	741.561	79.997	19.996	100.576	19.831	7.304	0.517
1328.001	742.622	80.000	19.996	100.573	19.832	7.251	0.527
1329.500	743.411	79.999	19.995	100.575	19.828	7.491	0.507