File: 01_Data/Gypsum_Wallboard_Gypsum_Core/STA/N2/10K_min/Gypsum_Wallboard_Gypsum_Core_STA_N2_10KData_220218_R3.csv
##Temp./Â°C,Time/min,Mass loss(subtr.2)/mg,DSC(subtr.2)/(mW/mg),Sensit./(uV/mW)
49.763,10.00917,-0.02841,-0.00317746,1.07512
50.563,10.79849,-0.02957628,0.02568216,1.07471
51.363,11.013,-0.03050718,0.04724624,1.07429
52.163,11.17632,-0.02936968,0.06556213,1.07387
52.963,11.3146,-0.03055123,0.08188109,1.07346
53.763,11.43854,-0.03101576,0.09444981,1.07304
54.563,11.55383,-0.03305145,0.1037,1.07262
55.363,11.6622,-0.03440499,0.11513,1.07221
56.163,11.76636,-0.03351645,0.12292,1.07179
56.963,11.86721,-0.03074972,0.12883,1.07137
57.763,11.96487,-0.02929936,0.1345,1.07096
58.563,12.06,-0.03241291,0.14211,1.07054
59.363,12.15273,-0.03265964,0.14873,1.07013
60.163,12.24408,-0.03245685,0.15263,1.06971
60.963,12.3352,-0.03170706,0.15616,1.06929
61.763,12.42639,-0.03048382,0.16298,1.06888
62.563,12.51718,-0.03303188,0.16217,1.06846
63.363,12.60623,-0.03211984,0.16963,1.06805
64.163,12.69431,-0.03302634,0.17121,1.06763
64.963,12.7819,-0.03302416,0.17451,1.06722
65.763,12.8693,-0.03498887,0.17793,1.0668
66.563,12.9563,-0.03497162,0.18108,1.06639
67.363,13.04288,-0.03698714,0.18497,1.06597
68.163,13.12924,-0.03796602,0.18773,1.06556
68.963,13.215,-0.03705734,0.1929,1.06514
69.763,13.3005,-0.03827999,0.19402,1.06473
70.563,13.38609,-0.03828584,0.19556,1.06431
71.363,13.4724,-0.03415059,0.20047,1.0639
72.163,13.55688,-0.03412,0.20136,1.06348
72.963,13.64179,-0.03271873,0.208,1.06307
73.763,13.72662,-0.03428254,0.20998,1.06266
74.563,13.81115,-0.03800372,0.21766,1.06224
75.363,13.89512,-0.0408776,0.22186,1.06183
76.163,13.97869,-0.04091855,0.22733,1.06141
76.963,14.062,-0.04222987,0.23286,1.061
77.763,14.14524,-0.04223,0.23762,1.06059
78.563,14.2284,-0.04222989,0.24494,1.06017
79.363,14.31107,-0.04355293,0.2507,1.05976
80.163,14.39395,-0.04355,0.25819,1.05935
80.963,14.47664,-0.04371306,0.26705,1.05893
81.763,14.55901,-0.04485996,0.27662,1.05852
82.563,14.6408,-0.0461847,0.28417,1.05811
83.363,14.7227,-0.04882773,0.29352,1.0577
84.163,14.8044,-0.04782652,0.30627,1.05728
84.963,14.885,-0.04568084,0.31769,1.05687
85.763,14.9656,-0.0456838,0.33163,1.05646
86.563,15.0464,-0.04957708,0.34507,1.05605
87.363,15.12764,-0.05268847,0.36167,1.05563
88.163,15.20854,-0.05398056,0.37687,1.05522
88.963,15.28941,-0.05397099,0.39123,1.05481
89.763,15.36977,-0.05527422,0.4096,1.0544
90.563,15.45038,-0.05792396,0.43213,1.05398
91.363,15.53175,-0.05792815,0.45178,1.05357
92.163,15.61338,-0.06085414,0.47649,1.05316
92.963,15.6945,-0.06318263,0.49937,1.05275
93.763,15.775,-0.06561324,0.52604,1.05234
94.563,15.85537,-0.06734073,0.5546,1.05193
95.363,15.93588,-0.06978261,0.58296,1.05152
96.163,16.01612,-0.07365142,0.61566,1.0511
96.963,16.0961,-0.07640338,0.64883,1.05069
97.763,16.17598,-0.07778504,0.68129,1.05028
98.563,16.25554,-0.08188462,0.7189,1.04987
99.363,16.33515,-0.08476849,0.75737,1.04946
100.163,16.4146,-0.08811982,0.79362,1.04905
100.963,16.49476,-0.09269794,0.82845,1.04864
101.763,16.5747,-0.09593696,0.86615,1.04823
102.563,16.65445,-0.10394,0.90308,1.04782
103.363,16.73387,-0.10963,0.93917,1.04741
104.163,16.8122,-0.1131,0.97512,1.047
104.963,16.89089,-0.11829,1.0134,1.04659
105.763,16.9708,-0.12325,1.05084,1.04618
106.563,17.0517,-0.12873,1.09423,1.04577
107.363,17.1315,-0.13594,1.13983,1.04536
108.163,17.2108,-0.142,1.18584,1.04495
108.963,17.29,-0.1483,1.23706,1.04454
109.763,17.36973,-0.15437,1.30121,1.04413
110.563,17.44953,-0.16264,1.38758,1.04372
111.363,17.52908,-0.1745,1.49151,1.04331
112.163,17.60902,-0.17956,1.6152,1.0429
112.963,17.68877,-0.19353,1.75779,1.04249
113.763,17.76908,-0.20456,1.92086,1.04208
114.563,17.8495,-0.21692,2.07954,1.04167
115.363,17.9302,-0.22841,2.235,1.04126
116.163,18.01065,-0.24173,2.38852,1.04086
116.963,18.09133,-0.25844,2.53725,1.04045
117.763,18.1725,-0.27409,2.68477,1.04004
118.563,18.25381,-0.29083,2.82795,1.03963
119.363,18.33432,-0.30866,2.96216,1.03922
120.163,18.41534,-0.32704,3.08726,1.03881
120.963,18.49699,-0.34565,3.19962,1.03841
121.763,18.5781,-0.3643,3.29255,1.038
122.563,18.6595,-0.38474,3.36117,1.03759
123.363,18.74057,-0.40759,3.39639,1.03718
124.163,18.82113,-0.42763,3.39567,1.03677
124.963,18.9014,-0.44484,3.35035,1.03637
125.763,18.9811,-0.46168,3.26664,1.03596
126.563,19.0603,-0.48153,3.16152,1.03555
127.363,19.13889,-0.49913,3.07342,1.03514
128.163,19.21736,-0.5154,3.0281,1.03474
128.963,19.29586,-0.5288,3.02541,1.03433
129.763,19.37429,-0.54299,3.05836,1.03392
130.563,19.45208,-0.55893,3.10971,1.03351
131.363,19.5302,-0.57633,3.16284,1.03311
132.163,19.60889,-0.59183,3.20386,1.0327
132.963,19.68753,-0.60783,3.22734,1.03229
133.763,19.76618,-0.62312,3.22042,1.03189
134.563,19.84454,-0.64154,3.17342,1.03148
135.363,19.9227,-0.65575,3.05031,1.03107
136.163,19.99983,-0.66876,2.72871,1.03067
136.963,20.07634,-0.67888,2.18121,1.03026
137.763,20.15186,-0.68309,1.69206,1.02985
138.563,20.22644,-0.68773,1.31783,1.02945
139.363,20.30014,-0.68958,1.04209,1.02904
140.163,20.37363,-0.69186,0.8424,1.02863
140.963,20.4471,-0.69464,0.69641,1.02823
141.763,20.52078,-0.69575,0.59348,1.02782
142.563,20.59455,-0.69846,0.51654,1.02742
143.363,20.66824,-0.69969,0.46033,1.02701
144.163,20.74202,-0.70101,0.41569,1.0266
144.963,20.81634,-0.7022,0.37889,1.0262
145.763,20.891,-0.70239,0.35332,1.02579
146.563,20.96612,-0.70499,0.33294,1.02539
147.363,21.04084,-0.70496,0.31366,1.02498
148.163,21.11567,-0.70458,0.29945,1.02458
148.963,21.1905,-0.70462,0.28881,1.02417
149.763,21.2658,-0.70485,0.27489,1.02376
150.563,21.34081,-0.70485,0.2674,1.02336
151.363,21.41602,-0.70602,0.25937,1.02295
152.163,21.49103,-0.70516,0.25293,1.02255
152.963,21.56664,-0.70656,0.24849,1.02214
153.763,21.64251,-0.70914,0.24417,1.02174
154.563,21.7179,-0.70782,0.23793,1.02133
155.363,21.79331,-0.70918,0.23394,1.02093
156.163,21.86867,-0.70913,0.23249,1.02052
156.963,21.94448,-0.71045,0.22823,1.02012
157.763,22.02038,-0.71011,0.22536,1.01971
158.563,22.09605,-0.7092,0.22382,1.01931
159.363,22.17185,-0.71152,0.22057,1.0189
160.163,22.24754,-0.71143,0.21709,1.0185
160.963,22.32347,-0.71275,0.21478,1.0181
161.763,22.3996,-0.71274,0.21221,1.01769
162.563,22.47578,-0.71146,0.21022,1.01729
163.363,22.55172,-0.71272,0.20795,1.01688
164.163,22.62774,-0.71209,0.2068,1.01648
164.963,22.7038,-0.71298,0.20555,1.01607
165.763,22.77995,-0.71406,0.20426,1.01567
166.563,22.856,-0.71406,0.20635,1.01527
167.363,22.93221,-0.71307,0.20249,1.01486
168.163,23.00822,-0.71308,0.20292,1.01446
168.963,23.08439,-0.7144,0.20069,1.01405
169.763,23.16046,-0.7164,0.20055,1.01365
170.563,23.23665,-0.71538,0.1997,1.01325
171.363,23.3126,-0.71538,0.19784,1.01284
172.163,23.3889,-0.71538,0.19836,1.01244
172.963,23.46495,-0.71538,0.19656,1.01203
173.763,23.54196,-0.71539,0.19737,1.01163
174.563,23.61869,-0.71571,0.19375,1.01123
175.363,23.6954,-0.71706,0.19608,1.01082
176.163,23.77222,-0.71867,0.19201,1.01042
176.963,23.8488,-0.71998,0.19192,1.01002
177.763,23.9254,-0.71998,0.19131,1.00961
178.563,24.00222,-0.7187,0.19165,1.00921
179.363,24.07881,-0.71867,0.18988,1.00881
180.163,24.15541,-0.71867,0.18959,1.0084
180.963,24.23184,-0.71933,0.18974,1.008
181.763,24.30846,-0.71998,0.18896,1.00759
182.563,24.3849,-0.71901,0.18722,1.00719
183.363,24.46146,-0.71965,0.18918,1.00679
184.163,24.5378,-0.72097,0.1889,1.00638
184.963,24.61441,-0.72298,0.18667,1.00598
185.763,24.69083,-0.72164,0.18986,1.00558
186.563,24.76727,-0.72287,0.19065,1.00517
187.363,24.84344,-0.72294,0.18911,1.00477
188.163,24.9198,-0.72163,0.19025,1.00437
188.963,24.99605,-0.72045,0.18863,1.00397
189.763,25.07239,-0.72031,0.18792,1.00356
190.563,25.14849,-0.72031,0.18952,1.00316
191.363,25.22476,-0.72031,0.18738,1.00276
192.163,25.301,-0.71928,0.18758,1.00235
192.963,25.37743,-0.71933,0.18975,1.00195
193.763,25.45378,-0.71933,0.18751,1.00155
194.563,25.52995,-0.71933,0.18648,1.00114
195.363,25.60641,-0.7206,0.18871,1.00074
196.163,25.68281,-0.72375,0.18996,1.00034
196.963,25.7591,-0.72514,0.18809,0.99993
197.763,25.8352,-0.72374,0.18842,0.99953
198.563,25.91154,-0.72382,0.19223,0.99913
199.363,25.98805,-0.72515,0.18961,0.99873
200.163,26.06445,-0.72406,0.19034,0.99832
200.963,26.14099,-0.72382,0.1906,0.99792
201.763,26.2172,-0.72463,0.19133,0.99752
202.563,26.29376,-0.72514,0.19322,0.99711
203.363,26.3702,-0.72514,0.19185,0.99671
204.163,26.44673,-0.72427,0.19202,0.99631
204.963,26.52313,-0.72415,0.19049,0.9959
205.763,26.59948,-0.72415,0.19119,0.9955
206.563,26.67591,-0.72415,0.19094,0.9951
207.363,26.7525,-0.72547,0.18947,0.99469
208.163,26.82905,-0.72415,0.18818,0.99429
208.963,26.90558,-0.72415,0.19166,0.99389
209.763,26.98178,-0.72569,0.19227,0.99349
210.563,27.058,-0.7271,0.19125,0.99308
211.363,27.13448,-0.72711,0.19426,0.99268
212.163,27.211,-0.72843,0.19348,0.99228
212.963,27.28722,-0.72843,0.19202,0.99187
213.763,27.3635,-0.72721,0.19386,0.99147
214.563,27.4399,-0.72712,0.1954,0.99107
215.363,27.5164,-0.7258,0.19544,0.99066
216.163,27.5925,-0.72486,0.19531,0.99026
216.963,27.66892,-0.7258,0.19327,0.98986
217.763,27.7453,-0.72583,0.19394,0.98945
218.563,27.82183,-0.72848,0.19431,0.98905
219.363,27.89842,-0.72842,0.19101,0.98865
220.163,27.97478,-0.72843,0.19304,0.98824
220.963,28.0512,-0.72909,0.19192,0.98784
221.763,28.1277,-0.72909,0.19172,0.98744
222.563,28.2042,-0.72909,0.19256,0.98703
223.363,28.28058,-0.72909,0.1907,0.98663
224.163,28.35722,-0.72758,0.19038,0.98623
224.963,28.4337,-0.72469,0.19123,0.98582
225.763,28.51016,-0.72605,0.19109,0.98542
226.563,28.58649,-0.72721,0.19122,0.98502
227.363,28.66292,-0.72733,0.19215,0.98461
228.163,28.7393,-0.72733,0.19419,0.98421
228.963,28.81587,-0.72733,0.1925,0.98381
229.763,28.8926,-0.7275,0.19432,0.9834
230.563,28.9688,-0.72931,0.19131,0.983
231.363,29.0451,-0.72704,0.19173,0.98259
232.163,29.12163,-0.7281,0.19398,0.98219
232.963,29.198,-0.73086,0.19421,0.98179
233.763,29.2745,-0.73084,0.19393,0.98138
234.563,29.3509,-0.72951,0.19417,0.98098
235.363,29.42738,-0.73064,0.19402,0.98057
236.163,29.50364,-0.72952,0.19367,0.98017
236.963,29.5798,-0.72991,0.19183,0.97976
237.763,29.6562,-0.73216,0.19481,0.97936
238.563,29.7324,-0.73216,0.19241,0.97896
239.363,29.8086,-0.73216,0.19288,0.97855
240.163,29.885,-0.73216,0.1931,0.97815
240.963,29.96128,-0.72979,0.19417,0.97774
241.763,30.0377,-0.72931,0.19359,0.97734
242.563,30.11409,-0.73063,0.19428,0.97693
243.363,30.19015,-0.73061,0.19417,0.97653
244.163,30.26636,-0.73194,0.19322,0.97612
244.963,30.3426,-0.73225,0.19249,0.97572
245.763,30.4194,-0.73293,0.19223,0.97531
246.563,30.49594,-0.73293,0.19193,0.97491
247.363,30.57238,-0.73293,0.19099,0.9745
248.163,30.649,-0.73293,0.19172,0.9741
248.963,30.7254,-0.73293,0.19106,0.97369
249.763,30.8015,-0.73293,0.19024,0.97329
250.563,30.87805,-0.73326,0.19032,0.97288
251.363,30.95515,-0.73458,0.19105,0.97248
252.163,31.0318,-0.73457,0.19121,0.97207
252.963,31.10807,-0.73326,0.19037,0.97167
253.763,31.1844,-0.73326,0.19007,0.97126
254.563,31.2609,-0.73365,0.18838,0.97085
255.363,31.33782,-0.73424,0.18533,0.97045
256.163,31.41452,-0.73424,0.18713,0.97004
256.963,31.4909,-0.73425,0.1871,0.96964
257.763,31.567,-0.73392,0.18558,0.96923
258.563,31.64343,-0.73392,0.18571,0.96882
259.363,31.72008,-0.73392,0.18904,0.96842
260.163,31.79675,-0.73392,0.1874,0.96801
260.963,31.8734,-0.73392,0.18542,0.9676
261.763,31.9503,-0.73392,0.1852,0.9672
262.563,32.0271,-0.73507,0.18464,0.96679
263.363,32.10385,-0.73523,0.18572,0.96638
264.163,32.18039,-0.73522,0.18633,0.96597
264.963,32.25692,-0.7349,0.18285,0.96557
265.763,32.3339,-0.73491,0.1841,0.96516
266.563,32.41088,-0.73621,0.18326,0.96475
267.363,32.48794,-0.73622,0.18634,0.96435
268.163,32.56435,-0.73622,0.18751,0.96394
268.963,32.64062,-0.73622,0.18642,0.96353
269.763,32.7173,-0.73614,0.18498,0.96312
270.563,32.794,-0.73617,0.1855,0.96271
271.363,32.87107,-0.73622,0.18509,0.96231
272.163,32.94794,-0.73622,0.1838,0.9619
272.963,33.02469,-0.73622,0.18675,0.96149
273.763,33.10122,-0.73491,0.18342,0.96108
274.563,33.17767,-0.73517,0.18741,0.96067
275.363,33.2543,-0.73555,0.18791,0.96026
276.163,33.33077,-0.73688,0.18831,0.95985
276.963,33.40741,-0.73754,0.18492,0.95944
277.763,33.484,-0.73526,0.1857,0.95904
278.563,33.56093,-0.73635,0.18429,0.95863
279.363,33.63747,-0.73655,0.18622,0.95822
280.163,33.7138,-0.73591,0.18597,0.95781
280.963,33.79,-0.73589,0.18608,0.9574
281.763,33.86651,-0.73589,0.18433,0.95699
282.563,33.94292,-0.73591,0.18603,0.95658
283.363,34.01947,-0.73688,0.18497,0.95617
284.163,34.09617,-0.73757,0.18835,0.95576
284.963,34.17272,-0.7382,0.18781,0.95535
285.763,34.2491,-0.7382,0.18702,0.95494
286.563,34.32555,-0.7382,0.18765,0.95452
287.363,34.40205,-0.7382,0.18748,0.95411
288.163,34.47847,-0.7382,0.18883,0.9537
288.963,34.55509,-0.7382,0.19028,0.95329
289.763,34.63165,-0.73877,0.1882,0.95288
290.563,34.70828,-0.73951,0.18576,0.95247
291.363,34.78482,-0.73941,0.18823,0.95206
292.163,34.8613,-0.74083,0.18786,0.95164
292.963,34.93792,-0.74056,0.19157,0.95123
293.763,35.01463,-0.73822,0.19054,0.95082
294.563,35.09125,-0.73633,0.19096,0.95041
295.363,35.16799,-0.73633,0.18681,0.94999
296.163,35.24457,-0.73633,0.19079,0.94958
296.963,35.32138,-0.73895,0.19106,0.94917
297.763,35.39829,-0.74029,0.18857,0.94876
298.563,35.47546,-0.74169,0.18851,0.94834
299.363,35.55255,-0.74138,0.1876,0.94793
300.163,35.62959,-0.74138,0.18586,0.94751
300.963,35.7065,-0.74136,0.18335,0.9471
301.763,35.78367,-0.74141,0.18572,0.94669
302.563,35.86077,-0.74006,0.18613,0.94627
303.363,35.9377,-0.74006,0.18735,0.94586
304.163,36.01465,-0.73994,0.18614,0.94544
304.963,36.09149,-0.73908,0.18611,0.94503
305.763,36.16834,-0.73881,0.18574,0.94461
306.563,36.2453,-0.73875,0.18674,0.9442
307.363,36.3224,-0.73923,0.18871,0.94378
308.163,36.39945,-0.74039,0.18721,0.94337
308.963,36.47595,-0.74045,0.18695,0.94295
309.763,36.552,-0.74171,0.18852,0.94253
310.563,36.62843,-0.74171,0.19041,0.94212
311.363,36.70535,-0.74129,0.19118,0.9417
312.163,36.78237,-0.74034,0.18995,0.94129
312.963,36.8591,-0.74137,0.19042,0.94087
313.763,36.9364,-0.74137,0.18971,0.94045
314.563,37.01363,-0.74217,0.19198,0.94003
315.363,37.0907,-0.74302,0.19122,0.93962
316.163,37.16742,-0.74403,0.19078,0.9392
316.963,37.2442,-0.74269,0.19158,0.93878
317.763,37.32114,-0.74269,0.18908,0.93836
318.563,37.39795,-0.74137,0.19024,0.93794
319.363,37.47487,-0.74293,0.18859,0.93753
320.163,37.5516,-0.74368,0.1883,0.93711
320.963,37.62853,-0.74368,0.19086,0.93669
321.763,37.70519,-0.744,0.18976,0.93627
322.563,37.78185,-0.74401,0.1906,0.93585
323.363,37.85824,-0.74401,0.19162,0.93543
324.163,37.93455,-0.74401,0.19049,0.93501
324.963,38.01117,-0.74533,0.18608,0.93459
325.763,38.0882,-0.74537,0.18684,0.93417
326.563,38.1653,-0.74302,0.18816,0.93375
327.363,38.2425,-0.74434,0.18436,0.93333
328.163,38.3202,-0.74375,0.18681,0.93291
328.963,38.39762,-0.74402,0.18715,0.93248
329.763,38.47475,-0.74431,0.18668,0.93206
330.563,38.55172,-0.74543,0.18595,0.93164
331.363,38.62873,-0.74499,0.18468,0.93122
332.163,38.7057,-0.74629,0.18434,0.9308
332.963,38.78263,-0.74635,0.1835,0.93037
333.763,38.85994,-0.74434,0.1834,0.92995
334.563,38.9369,-0.74434,0.18343,0.92953
335.363,39.01384,-0.74429,0.17983,0.9291
336.163,39.09104,-0.74433,0.18242,0.92868
336.963,39.16818,-0.74565,0.18044,0.92826
337.763,39.24538,-0.74565,0.18033,0.92783
338.563,39.32241,-0.74664,0.17926,0.92741
339.363,39.39956,-0.74664,0.1777,0.92698
340.163,39.47678,-0.74661,0.17719,0.92656
340.963,39.55393,-0.74697,0.17785,0.92613
341.763,39.63112,-0.748,0.17812,0.92571
342.563,39.70827,-0.75019,0.1756,0.92528
343.363,39.7856,-0.74989,0.1753,0.92486
344.163,39.86288,-0.7481,0.17538,0.92443
344.963,39.9403,-0.74697,0.17233,0.924
345.763,40.01774,-0.74697,0.17101,0.92358
346.563,40.09479,-0.74697,0.17129,0.92315
347.363,40.1721,-0.74829,0.16848,0.92272
348.163,40.24942,-0.74897,0.16868,0.92229
348.963,40.32723,-0.74928,0.16798,0.92186
349.763,40.40461,-0.75018,0.16366,0.92144
350.563,40.48191,-0.75059,0.16201,0.92101
351.363,40.55924,-0.74928,0.16307,0.92058
352.163,40.63692,-0.74928,0.15843,0.92015
352.963,40.71443,-0.75057,0.16075,0.91972
353.763,40.79187,-0.75191,0.15852,0.91929
354.563,40.8695,-0.75321,0.15744,0.91886
355.363,40.9467,-0.74944,0.15396,0.91843
356.163,41.02413,-0.74599,0.15205,0.918
356.963,41.1015,-0.74477,0.14864,0.91757
357.763,41.1787,-0.74608,0.14853,0.91714
358.563,41.25628,-0.74739,0.1445,0.9167
359.363,41.33384,-0.74905,0.1429,0.91627
360.163,41.41148,-0.74973,0.14074,0.91584
360.963,41.48897,-0.75103,0.1387,0.91541
361.763,41.56647,-0.7527,0.13613,0.91498
362.563,41.64372,-0.75467,0.13306,0.91454
363.363,41.7211,-0.75498,0.13018,0.91411
364.163,41.79847,-0.75498,0.12716,0.91367
364.963,41.8757,-0.75363,0.1233,0.91324
365.763,41.95337,-0.75235,0.12184,0.91281
366.563,42.03091,-0.75235,0.11973,0.91237
367.363,42.1085,-0.75233,0.11522,0.91194
368.163,42.18602,-0.75366,0.10999,0.9115
368.963,42.26382,-0.75224,0.10517,0.91107
369.763,42.34155,-0.75281,0.10065,0.91063
370.563,42.4191,-0.75399,0.09989301,0.91019
371.363,42.4969,-0.75258,0.09275946,0.90976
372.163,42.5745,-0.74969,0.08774254,0.90932
372.963,42.65209,-0.7484,0.08382395,0.90888
373.763,42.72997,-0.74841,0.08101589,0.90844
374.563,42.80787,-0.75135,0.07711851,0.90801
375.363,42.88583,-0.75282,0.07571501,0.90757
376.163,42.9636,-0.75415,0.07009893,0.90713
376.963,43.04152,-0.75542,0.06691127,0.90669
377.763,43.1194,-0.7541,0.06259247,0.90625
378.563,43.19708,-0.75488,0.06301489,0.90581
379.363,43.27454,-0.75541,0.05858971,0.90537
380.163,43.35243,-0.75337,0.05182604,0.90493
380.963,43.43057,-0.75213,0.05380349,0.90449
381.763,43.50884,-0.75213,0.05187129,0.90405
382.563,43.5869,-0.75212,0.05240116,0.90361
383.363,43.6648,-0.75346,0.05356526,0.90316
384.163,43.74299,-0.75607,0.05090803,0.90272
384.963,43.82119,-0.75607,0.04944039,0.90228
385.763,43.89999,-0.75607,0.05454621,0.90184
386.563,43.97874,-0.75607,0.05680287,0.90139
387.363,44.05729,-0.75615,0.05645142,0.90095
388.163,44.13557,-0.75476,0.05708862,0.90051
388.963,44.21379,-0.75344,0.06080033,0.90006
389.763,44.29198,-0.75476,0.06399759,0.89962
390.563,44.37025,-0.75475,0.07013271,0.89917
391.363,44.44854,-0.75475,0.07006408,0.89873
392.163,44.5268,-0.7554,0.07667706,0.89828
392.963,44.60499,-0.75541,0.08169271,0.89783
393.763,44.6832,-0.75541,0.08572779,0.89739
394.563,44.7615,-0.75641,0.08949808,0.89694
395.363,44.8399,-0.75641,0.09313835,0.89649
396.163,44.91792,-0.75706,0.09851831,0.89604
396.963,44.99624,-0.75706,0.1031,0.8956
397.763,45.07462,-0.7561,0.1043,0.89515
398.563,45.15314,-0.75607,0.11035,0.8947
399.363,45.23131,-0.75607,0.1125,0.89425
400.163,45.30941,-0.75607,0.1155,0.8938
400.963,45.38747,-0.75607,0.12205,0.89335
401.763,45.46566,-0.75573,0.12291,0.8929
402.563,45.54364,-0.75575,0.12798,0.89245
403.363,45.6216,-0.75575,0.13015,0.892
404.163,45.6995,-0.75575,0.13203,0.89154
404.963,45.77734,-0.75567,0.13667,0.89109
405.763,45.85549,-0.75676,0.14015,0.89064
406.563,45.93355,-0.75804,0.14249,0.89019
407.363,46.0122,-0.7581,0.14544,0.88973
408.163,46.09055,-0.75673,0.14801,0.88928
408.963,46.1687,-0.75674,0.15054,0.88883
409.763,46.24689,-0.75673,0.15254,0.88837
410.563,46.3254,-0.75786,0.15459,0.88792
411.363,46.40359,-0.75804,0.15687,0.88746
412.163,46.48193,-0.75848,0.16093,0.88701
412.963,46.56029,-0.75674,0.15842,0.88655
413.763,46.63893,-0.75674,0.15954,0.88609
414.563,46.71728,-0.75706,0.16287,0.88564
415.363,46.79606,-0.75706,0.16465,0.88518
416.163,46.87488,-0.75706,0.1645,0.88472
416.963,46.9535,-0.75799,0.1644,0.88426
417.763,47.0318,-0.75573,0.16847,0.8838
418.563,47.11031,-0.75781,0.16888,0.88334
419.363,47.18902,-0.75968,0.16955,0.88288
420.163,47.26778,-0.75969,0.1722,0.88242
420.963,47.34626,-0.75832,0.17256,0.88196
421.763,47.42496,-0.75838,0.17324,0.8815
422.563,47.50351,-0.75838,0.17307,0.88104
423.363,47.58209,-0.75904,0.17213,0.88058
424.163,47.6606,-0.76035,0.17462,0.88012
424.963,47.73907,-0.76035,0.17499,0.87966
425.763,47.81773,-0.76035,0.17517,0.87919
426.563,47.89617,-0.7604,0.17654,0.87873
427.363,47.97448,-0.75904,0.17847,0.87827
428.163,48.0529,-0.75904,0.17976,0.8778
428.963,48.13153,-0.75904,0.18092,0.87734
429.763,48.21008,-0.75772,0.1813,0.87687
430.563,48.2883,-0.75772,0.18184,0.87641
431.363,48.36679,-0.75838,0.1831,0.87594
432.163,48.44525,-0.75838,0.1826,0.87547
432.963,48.52377,-0.75995,0.18169,0.87501
433.763,48.60168,-0.76068,0.17893,0.87454
434.563,48.67965,-0.75968,0.18349,0.87407
435.363,48.75803,-0.75871,0.18353,0.8736
436.163,48.83712,-0.75871,0.18339,0.87313
436.963,48.9165,-0.76007,0.18253,0.87267
437.763,48.99566,-0.76134,0.18554,0.8722
438.563,49.07428,-0.76134,0.18387,0.87173
439.363,49.1529,-0.76075,0.18555,0.87126
440.163,49.2316,-0.75936,0.1879,0.87078
440.963,49.31048,-0.75936,0.1865,0.87031
441.763,49.38933,-0.76068,0.18498,0.86984
442.563,49.46826,-0.76068,0.1914,0.86937
443.363,49.54714,-0.76134,0.18705,0.8689
444.163,49.6258,-0.76002,0.18866,0.86842
444.963,49.70425,-0.76002,0.18662,0.86795
445.763,49.78255,-0.76003,0.18623,0.86747
446.563,49.861,-0.76035,0.18775,0.867
447.363,49.9397,-0.76035,0.19198,0.86652
448.163,50.018,-0.76197,0.19128,0.86605
448.963,50.09662,-0.7633,0.19165,0.86557
449.763,50.17521,-0.76188,0.19281,0.8651
450.563,50.25376,-0.76189,0.19224,0.86462
451.363,50.33235,-0.76215,0.1933,0.86414
452.163,50.41086,-0.76185,0.19316,0.86366
452.963,50.48963,-0.76189,0.19421,0.86318
453.763,50.56818,-0.76189,0.19279,0.8627
454.563,50.64697,-0.76189,0.19339,0.86223
455.363,50.72548,-0.76199,0.19449,0.86175
456.163,50.80445,-0.76058,0.19352,0.86126
456.963,50.8832,-0.75926,0.19572,0.86078
457.763,50.96204,-0.75991,0.19427,0.8603
458.563,51.04092,-0.76121,0.19611,0.85982
459.363,51.11984,-0.76256,0.19606,0.85934
460.163,51.19887,-0.76254,0.19754,0.85885
460.963,51.27798,-0.76385,0.19418,0.85837
461.763,51.35711,-0.76384,0.19501,0.85789
462.563,51.43631,-0.76254,0.19446,0.8574
463.363,51.51527,-0.76286,0.1962,0.85692
464.163,51.5942,-0.76187,0.19545,0.85643
464.963,51.67326,-0.76321,0.19587,0.85595
465.763,51.75228,-0.76452,0.19334,0.85546
466.563,51.83119,-0.76452,0.19208,0.85497
467.363,51.91003,-0.76452,0.19343,0.85449
468.163,51.98885,-0.76452,0.19293,0.854
468.963,52.0679,-0.76359,0.19578,0.85351
469.763,52.14693,-0.76221,0.19799,0.85302
470.563,52.22606,-0.76221,0.19348,0.85253
471.363,52.3052,-0.76294,0.19577,0.85204
472.163,52.38432,-0.76081,0.19472,0.85155
472.963,52.4635,-0.76235,0.19559,0.85106
473.763,52.5426,-0.76484,0.1958,0.85057
474.563,52.6213,-0.76616,0.19801,0.85008
475.363,52.7,-0.7651,0.19703,0.84958
476.163,52.7789,-0.76484,0.19665,0.84909
476.963,52.85813,-0.76353,0.19741,0.8486
477.763,52.93676,-0.76353,0.19773,0.8481
478.563,53.0158,-0.76581,0.19433,0.84761
479.363,53.0949,-0.76451,0.19483,0.84711
480.163,53.17431,-0.76517,0.19598,0.84662
480.963,53.25369,-0.76518,0.19489,0.84612
481.763,53.333,-0.76518,0.19406,0.84562
482.563,53.4122,-0.76515,0.19582,0.84513
483.363,53.491,-0.76423,0.19636,0.84463
484.163,53.57,-0.76385,0.19402,0.84413
484.963,53.64918,-0.76518,0.19684,0.84363
485.763,53.72835,-0.76518,0.1961,0.84313
486.563,53.8074,-0.76518,0.19626,0.84263
487.363,53.8865,-0.76518,0.19726,0.84213
488.163,53.96589,-0.76631,0.19428,0.84163
488.963,54.04504,-0.76682,0.19612,0.84113
489.763,54.1241,-0.76682,0.19539,0.84063
490.563,54.20305,-0.76682,0.1957,0.84013
491.363,54.28227,-0.76504,0.19259,0.83962
492.163,54.36159,-0.76397,0.1925,0.83912
492.963,54.44098,-0.76397,0.19249,0.83862
493.763,54.52018,-0.76397,0.19483,0.83811
494.563,54.59933,-0.76528,0.19217,0.83761
495.363,54.6783,-0.76397,0.19265,0.8371
496.163,54.75731,-0.76611,0.19473,0.83659
496.963,54.8365,-0.76661,0.19518,0.83609
497.763,54.91564,-0.76528,0.19498,0.83558
498.563,54.9949,-0.76396,0.19493,0.83507
499.363,55.07422,-0.76397,0.19474,0.83456
500.163,55.1533,-0.76429,0.19404,0.83405
500.963,55.23231,-0.76659,0.18945,0.83355
501.763,55.31156,-0.7666,0.19383,0.83304
502.563,55.391,-0.76528,0.19455,0.83252
503.363,55.4704,-0.76533,0.19159,0.83201
504.163,55.54976,-0.7666,0.19119,0.8315
504.963,55.62927,-0.76528,0.18772,0.83099
505.763,55.7088,-0.76395,0.18676,0.83048
506.563,55.7879,-0.76529,0.18891,0.82996
507.363,55.86721,-0.76397,0.18724,0.82945
508.163,55.94644,-0.76527,0.18842,0.82894
508.963,56.02605,-0.76529,0.18907,0.82842
509.763,56.10533,-0.7653,0.18782,0.8279
510.563,56.18459,-0.7666,0.19015,0.82739
511.363,56.26375,-0.76693,0.18922,0.82687
512.163,56.34276,-0.7674,0.18963,0.82635
512.963,56.42215,-0.767,0.18926,0.82584
513.763,56.50147,-0.76627,0.18582,0.82532
514.563,56.5809,-0.76569,0.18514,0.8248
515.363,56.66024,-0.76693,0.18416,0.82428
516.163,56.73979,-0.76693,0.18543,0.82376
516.963,56.81912,-0.76693,0.18304,0.82324
517.763,56.89829,-0.76561,0.18633,0.82272
518.563,56.9777,-0.7666,0.18721,0.8222
519.363,57.05735,-0.7666,0.18343,0.82167
520.163,57.13686,-0.7666,0.18548,0.82115
520.963,57.21629,-0.7666,0.18317,0.82063
521.763,57.2958,-0.76528,0.18507,0.8201
522.563,57.37509,-0.76528,0.1831,0.81958
523.363,57.45469,-0.76694,0.18284,0.81906
524.163,57.53406,-0.76693,0.18158,0.81853
524.963,57.6135,-0.76796,0.18039,0.818
525.763,57.69302,-0.76792,0.18129,0.81748
526.563,57.77239,-0.76792,0.18188,0.81695
527.363,57.8518,-0.76792,0.17906,0.81642
528.163,57.9311,-0.76792,0.18071,0.81589
528.963,58.0104,-0.76957,0.18015,0.81536
529.763,58.08979,-0.76957,0.18214,0.81483
530.563,58.16919,-0.76956,0.1804,0.8143
531.363,58.2488,-0.76956,0.17867,0.81377
532.163,58.3283,-0.76823,0.17825,0.81324
532.963,58.40797,-0.76824,0.1768,0.81271
533.763,58.48746,-0.76824,0.17635,0.81218
534.563,58.56709,-0.76824,0.17607,0.81164
535.363,58.6469,-0.76824,0.17593,0.81111
536.163,58.7265,-0.76824,0.17491,0.81058
536.963,58.80619,-0.76823,0.17484,0.81004
537.763,58.8856,-0.76956,0.17582,0.80951
538.563,58.96474,-0.77088,0.17493,0.80897
539.363,59.0445,-0.76951,0.17459,0.80843
540.163,59.12457,-0.76956,0.1765,0.8079
540.963,59.20429,-0.77043,0.17527,0.80736
541.763,59.28397,-0.77089,0.17636,0.80682
542.563,59.36325,-0.76957,0.17631,0.80628
543.363,59.44239,-0.77055,0.17524,0.80574
544.163,59.52185,-0.77087,0.17556,0.8052
544.963,59.60205,-0.77177,0.17548,0.80466
545.763,59.68232,-0.77222,0.17495,0.80412
546.563,59.7624,-0.77351,0.17545,0.80358
547.363,59.8419,-0.77218,0.17449,0.80304
548.163,59.9215,-0.7709,0.17379,0.80249
548.963,60.00128,-0.77088,0.17156,0.80195
549.763,60.08104,-0.76955,0.17178,0.80141
550.563,60.161,-0.77088,0.17045,0.80086
551.363,60.24097,-0.77022,0.17052,0.80032
552.163,60.3208,-0.76951,0.17053,0.79977
552.963,60.4007,-0.76855,0.1718,0.79922
553.763,60.4806,-0.76858,0.17233,0.79868
554.563,60.5605,-0.76989,0.17414,0.79813
555.363,60.64068,-0.76989,0.17375,0.79758
556.163,60.72051,-0.77089,0.17447,0.79703
556.963,60.80064,-0.7701,0.17014,0.79648
557.763,60.88057,-0.76957,0.16882,0.79593
558.563,60.96077,-0.77088,0.17181,0.79538
559.363,61.0408,-0.77088,0.175,0.79483
560.163,61.1208,-0.77088,0.1752,0.79428
560.963,61.20081,-0.77088,0.17088,0.79373
561.763,61.28083,-0.76949,0.17532,0.79317
562.563,61.36076,-0.77064,0.17212,0.79262
563.363,61.44059,-0.7722,0.17547,0.79207
564.163,61.52027,-0.7722,0.1763,0.79151
564.963,61.5998,-0.77352,0.17679,0.79096
565.763,61.6794,-0.77352,0.1777,0.7904
566.563,61.759,-0.7722,0.17825,0.78984
567.363,61.83876,-0.7722,0.17651,0.78929
568.163,61.9185,-0.77352,0.17702,0.78873
568.963,61.9985,-0.77547,0.18022,0.78817
569.763,62.07826,-0.77487,0.17841,0.78761
570.563,62.1578,-0.77353,0.17989,0.78705
571.363,62.23755,-0.77351,0.17952,0.78649
572.163,62.31726,-0.77351,0.1799,0.78593
572.963,62.39714,-0.7722,0.18054,0.78537
573.763,62.47699,-0.77218,0.17851,0.78481
574.563,62.55705,-0.77273,0.18066,0.78425
575.363,62.63677,-0.77323,0.18093,0.78368
576.163,62.7165,-0.77343,0.18037,0.78312
576.963,62.79625,-0.77351,0.17852,0.78256
577.763,62.87625,-0.77473,0.17552,0.78199
578.563,62.95616,-0.77483,0.17247,0.78143
579.363,63.0363,-0.77483,0.17861,0.78086
580.163,63.11665,-0.77483,0.1761,0.78029
580.963,63.1966,-0.7748,0.1733,0.77973
581.763,63.27701,-0.77385,0.17614,0.77916
582.563,63.35725,-0.77483,0.17744,0.77859
583.363,63.43764,-0.77456,0.17631,0.77802
584.163,63.5179,-0.77417,0.178,0.77745
584.963,63.59816,-0.77551,0.17471,0.77688
585.763,63.6783,-0.77681,0.17628,0.77631
586.563,63.7583,-0.77682,0.17494,0.77574
587.363,63.8384,-0.77549,0.17923,0.77517
588.163,63.91855,-0.7768,0.1778,0.7746
588.963,63.99875,-0.77679,0.17767,0.77402
589.763,64.079,-0.7768,0.17743,0.77345
590.563,64.15921,-0.77811,0.17582,0.77287
591.363,64.23953,-0.77681,0.17549,0.7723
592.163,64.32002,-0.77739,0.1749,0.77172
592.963,64.4003,-0.7768,0.1737,0.77115
593.763,64.48056,-0.77815,0.17603,0.77057
594.563,64.5608,-0.77681,0.17417,0.76999
595.363,64.6411,-0.77811,0.1752,0.76942
596.163,64.72137,-0.77915,0.17377,0.76884
596.963,64.80179,-0.7791,0.17503,0.76826
597.763,64.88231,-0.78063,0.17046,0.76768
598.563,64.96265,-0.78075,0.17339,0.7671
599.363,65.0433,-0.78075,0.17201,0.76652
600.163,65.12384,-0.78009,0.17294,0.76594
600.963,65.20413,-0.78134,0.17472,0.76535
601.763,65.2842,-0.78141,0.17773,0.76477
602.563,65.36425,-0.78108,0.17438,0.76419
603.363,65.44442,-0.78207,0.17274,0.7636
604.163,65.5247,-0.78075,0.17299,0.76302
604.963,65.60501,-0.78065,0.17082,0.76244
605.763,65.6853,-0.78307,0.17098,0.76185
606.563,65.76556,-0.78339,0.17234,0.76126
607.363,65.84577,-0.7808,0.17391,0.76068
608.163,65.926,-0.78174,0.17287,0.76009
608.963,66.00622,-0.78308,0.17245,0.7595
609.763,66.0864,-0.78396,0.17047,0.75891
610.563,66.16625,-0.78395,0.17216,0.75832
611.363,66.24636,-0.78398,0.17487,0.75773
612.163,66.32648,-0.78274,0.17381,0.75714
612.963,66.40679,-0.78503,0.17725,0.75655
613.763,66.4871,-0.78503,0.17784,0.75596
614.563,66.56749,-0.78503,0.17591,0.75537
615.363,66.64777,-0.78601,0.17611,0.75478
616.163,66.7281,-0.78601,0.17813,0.75418
616.963,66.80846,-0.78503,0.17634,0.75359
617.763,66.88875,-0.78636,0.17669,0.75299
618.563,66.96908,-0.78635,0.18031,0.7524
619.363,67.04943,-0.78865,0.17466,0.7518
620.163,67.12961,-0.78898,0.17791,0.75121
620.963,67.21001,-0.78897,0.17809,0.75061
621.763,67.2906,-0.78898,0.18114,0.75001
622.563,67.37106,-0.79028,0.17811,0.74941
623.363,67.45138,-0.7903,0.17788,0.74882
624.163,67.5312,-0.7903,0.17969,0.74822
624.963,67.6113,-0.78981,0.1813,0.74762
625.763,67.69166,-0.7903,0.18247,0.74702
626.563,67.77244,-0.79161,0.18042,0.74641
627.363,67.8528,-0.79161,0.1815,0.74581
628.163,67.9329,-0.7913,0.18196,0.74521
628.963,68.01316,-0.79161,0.18052,0.74461
629.763,68.09356,-0.79424,0.1802,0.744
630.563,68.1739,-0.79418,0.18316,0.7434
631.363,68.25411,-0.79337,0.18369,0.7428
632.163,68.3345,-0.79424,0.18576,0.74219
632.963,68.41484,-0.7965,0.18098,0.74159
633.763,68.4953,-0.79691,0.18297,0.74098
634.563,68.57564,-0.7968,0.18291,0.74037
635.363,68.65594,-0.79688,0.18571,0.73976
636.163,68.7362,-0.79689,0.18458,0.73916
636.963,68.81639,-0.79719,0.18464,0.73855
637.763,68.89679,-0.79687,0.18592,0.73794
638.563,68.97725,-0.79819,0.19029,0.73733
639.363,69.05775,-0.79873,0.18749,0.73672
640.163,69.13808,-0.79951,0.19037,0.73611
640.963,69.21815,-0.80215,0.18987,0.7355
641.763,69.2984,-0.80082,0.19374,0.73488
642.563,69.3788,-0.80083,0.19122,0.73427
643.363,69.4594,-0.80215,0.19142,0.73366
644.163,69.53961,-0.80083,0.19148,0.73304
644.963,69.61991,-0.80285,0.19527,0.73243
645.763,69.69989,-0.80611,0.19291,0.73181
646.563,69.78008,-0.80464,0.19427,0.7312
647.363,69.86039,-0.80469,0.194,0.73058
648.163,69.94063,-0.80472,0.19585,0.72996
648.963,70.02077,-0.8073,0.19842,0.72935
649.763,70.10089,-0.80598,0.19923,0.72873
650.563,70.18104,-0.80724,0.19789,0.72811
651.363,70.26111,-0.80927,0.20004,0.72749
652.163,70.34131,-0.81057,0.19864,0.72687
652.963,70.42151,-0.81059,0.19745,0.72625
653.763,70.50184,-0.81191,0.20009,0.72563
654.563,70.58201,-0.81298,0.20414,0.72501
655.363,70.6617,-0.81321,0.20274,0.72439
656.163,70.74135,-0.81338,0.20446,0.72377
656.963,70.82195,-0.81457,0.2021,0.72314
657.763,70.90272,-0.8152,0.20205,0.72252
658.563,70.9837,-0.81518,0.20514,0.72189
659.363,71.06413,-0.81696,0.20424,0.72127
660.163,71.14499,-0.81781,0.20489,0.72064
660.963,71.22576,-0.81914,0.20482,0.72002
661.763,71.30678,-0.8196,0.20308,0.71939
662.563,71.38756,-0.82165,0.20176,0.71876
663.363,71.46826,-0.82305,0.20201,0.71814
664.163,71.54909,-0.82309,0.20181,0.71751
664.963,71.63003,-0.82437,0.20206,0.71688
665.763,71.71093,-0.8244,0.20721,0.71625
666.563,71.79175,-0.82441,0.20632,0.71562
667.363,71.87209,-0.82566,0.2075,0.71499
668.163,71.95294,-0.82704,0.20413,0.71436
668.963,72.03366,-0.82835,0.20584,0.71373
669.763,72.11489,-0.83099,0.20719,0.71309
670.563,72.19508,-0.83098,0.20285,0.71246
671.363,72.2757,-0.83099,0.2069,0.71183
672.163,72.3567,-0.83185,0.20458,0.7112
672.963,72.43724,-0.8328,0.20563,0.71056
673.763,72.5172,-0.83459,0.20641,0.70993
674.563,72.59731,-0.83592,0.20265,0.70929
675.363,72.67783,-0.83586,0.20213,0.70865
676.163,72.75883,-0.83724,0.20108,0.70802
676.963,72.83954,-0.83857,0.19859,0.70738
677.763,72.92014,-0.83987,0.19832,0.70674
678.563,73.00065,-0.83998,0.19531,0.7061
679.363,73.08113,-0.8425,0.19767,0.70547
680.163,73.16173,-0.84271,0.1927,0.70483
680.963,73.2423,-0.84383,0.19175,0.70419
681.763,73.32296,-0.8451,0.19058,0.70355
682.563,73.40358,-0.84645,0.18917,0.7029
683.363,73.48419,-0.84776,0.18523,0.70226
684.163,73.56451,-0.84776,0.18144,0.70162
684.963,73.64509,-0.84917,0.17336,0.70098
685.763,73.7255,-0.85173,0.1744,0.70034
686.563,73.8061,-0.85172,0.17147,0.69969
687.363,73.88645,-0.85171,0.17208,0.69905
688.163,73.96736,-0.85304,0.16895,0.6984
688.963,74.04826,-0.85309,0.16401,0.69776
689.763,74.12902,-0.85435,0.16093,0.69711
690.563,74.20984,-0.85435,0.16019,0.69646
691.363,74.29094,-0.85697,0.15351,0.69582
692.163,74.37185,-0.85734,0.15274,0.69517
692.963,74.4528,-0.85827,0.14849,0.69452
693.763,74.53349,-0.85902,0.14497,0.69387
694.563,74.61453,-0.85994,0.13996,0.69322
695.363,74.6956,-0.86127,0.13595,0.69258
696.163,74.77655,-0.86258,0.13508,0.69192
696.963,74.8573,-0.8639,0.1297,0.69127
697.763,74.93813,-0.86522,0.12477,0.69062
698.563,75.01884,-0.86654,0.11874,0.68997
699.363,75.09955,-0.86753,0.11047,0.68932
700.163,75.18048,-0.86612,0.10499,0.68867
700.963,75.26169,-0.8675,0.10256,0.68801
701.763,75.3425,-0.8687,0.09638901,0.68736
702.563,75.42368,-0.86924,0.09210779,0.6867
703.363,75.50492,-0.86885,0.08589421,0.68605
704.163,75.5861,-0.86883,0.07748522,0.68539
704.963,75.66671,-0.87146,0.07230351,0.68474
705.763,75.74753,-0.87281,0.06801021,0.68408
706.563,75.8284,-0.87475,0.06057771,0.68343
707.363,75.90913,-0.87475,0.0583751,0.68277
708.163,75.99019,-0.87475,0.05631064,0.68211
708.963,76.07126,-0.87477,0.04847961,0.68145
709.763,76.15221,-0.87476,0.04303722,0.68079
710.563,76.2329,-0.87476,0.03964493,0.68013
711.363,76.31357,-0.87612,0.03707864,0.67947
712.163,76.3945,-0.87607,0.0300331,0.67881
712.963,76.47543,-0.87607,0.02642715,0.67815
713.763,76.556,-0.87741,0.02237954,0.67749
714.563,76.6369,-0.87871,0.01817503,0.67683
715.363,76.7183,-0.87871,0.01860443,0.67616
716.163,76.7987,-0.87999,0.01572991,0.6755
716.963,76.87905,-0.88002,0.01153119,0.67484
717.763,76.9598,-0.87937,0.007303765,0.67417
718.563,77.04128,-0.87983,0.004504569,0.67351
719.363,77.12235,-0.88001,0.007610625,0.67284
720.163,77.20316,-0.88,1.588178e-05,0.67218
720.963,77.2839,-0.88133,-0.00277696,0.67151
721.763,77.3648,-0.88133,-0.003903952,0.67085
722.563,77.4453,-0.88094,-0.005922239,0.67018
723.363,77.52637,-0.88167,-0.007212365,0.66951
724.163,77.6074,-0.883,-0.01029249,0.66884
724.963,77.68862,-0.88432,-0.01322625,0.66818
725.763,77.76979,-0.88298,-0.01287528,0.66751
726.563,77.85099,-0.88429,-0.01492752,0.66684
727.363,77.93209,-0.88495,-0.01794727,0.66617
728.163,78.01311,-0.88461,-0.01885506,0.6655
728.963,78.09413,-0.88496,-0.02006959,0.66483
729.763,78.17537,-0.88495,-0.01839353,0.66415
730.563,78.2565,-0.88366,-0.01968343,0.66348
731.363,78.3376,-0.88495,-0.01798275,0.66281
732.163,78.4188,-0.88628,-0.02040647,0.66214
732.963,78.49972,-0.88627,-0.02339244,0.66146
733.763,78.58122,-0.88627,-0.02380357,0.66079
734.563,78.66242,-0.88769,-0.02252342,0.66012
735.363,78.744,-0.88865,-0.0245505,0.65944
736.163,78.82549,-0.88868,-0.02556866,0.65877
736.963,78.90715,-0.88869,-0.02766095,0.65809
737.763,78.9884,-0.8874,-0.02683467,0.65741
738.563,79.06975,-0.88737,-0.02624401,0.65674
739.363,79.15088,-0.88868,-0.02794685,0.65606
740.163,79.23215,-0.88943,-0.02921863,0.65538
740.963,79.3132,-0.88966,-0.02918049,0.65471
741.763,79.39405,-0.88901,-0.02558624,0.65403
742.563,79.47444,-0.88902,-0.0240938,0.65335
743.363,79.5551,-0.89033,-0.02596045,0.65267
744.163,79.6361,-0.89047,-0.02897313,0.65199
744.963,79.7173,-0.89168,-0.0236858,0.65131
745.763,79.79818,-0.89135,-0.0229686,0.65063
746.563,79.8788,-0.89,-0.02537911,0.64995
747.363,79.95953,-0.88868,-0.02222702,0.64926
748.163,80.04043,-0.88868,-0.02692429,0.64858
748.963,80.12111,-0.88803,-0.02839627,0.6479
749.763,80.20211,-0.88892,-0.02761831,0.64722
750.563,80.28356,-0.89065,-0.03132648,0.64653
751.363,80.36502,-0.89198,-0.0259686,0.64585
752.163,80.446,-0.89198,-0.02568686,0.64517
752.963,80.5267,-0.89328,-0.02431511,0.64448
753.763,80.6075,-0.89344,-0.02651072,0.6438
754.563,80.6885,-0.89329,-0.02538093,0.64311
755.363,80.76958,-0.89329,-0.02997125,0.64242
756.163,80.85085,-0.8933,-0.02550523,0.64174
756.963,80.93165,-0.89461,-0.02615252,0.64105
757.763,81.01255,-0.89461,-0.02663231,0.64036
758.563,81.09366,-0.89461,-0.02944454,0.63968
759.363,81.17485,-0.89498,-0.02862167,0.63899
760.163,81.25601,-0.89481,-0.03059132,0.6383
760.963,81.33753,-0.89589,-0.03348317,0.63761
761.763,81.4187,-0.89592,-0.02910614,0.63692
762.563,81.49988,-0.89727,-0.02927163,0.63623
763.363,81.58109,-0.89592,-0.03077895,0.63554
764.163,81.66244,-0.89722,-0.03074309,0.63485
764.963,81.74371,-0.89587,-0.03083549,0.63416
765.763,81.8248,-0.89728,-0.03252977,0.63347
766.563,81.9059,-0.89591,-0.02903209,0.63278
767.363,81.9871,-0.89724,-0.03122394,0.63208
768.163,82.06835,-0.89592,-0.03028227,0.63139
768.963,82.1493,-0.8946,-0.03309333,0.6307
769.763,82.23036,-0.89857,-0.03130877,0.63
770.563,82.31155,-0.89874,-0.03282643,0.62931
771.363,82.39271,-0.89987,-0.03185569,0.62861
772.163,82.474,-0.89855,-0.03303769,0.62792
772.963,82.5548,-0.89963,-0.03057833,0.62722
773.763,82.63637,-0.90086,-0.03243158,0.62653
774.563,82.71811,-0.90083,-0.03512912,0.62583
775.363,82.79948,-0.90086,-0.03062411,0.62514
776.163,82.88,-0.89987,-0.03444464,0.62444
776.963,82.9612,-0.89983,-0.0355336,0.62374
777.763,83.04215,-0.9025,-0.03232885,0.62305
778.563,83.1234,-0.90313,-0.0353918,0.62235
779.363,83.20424,-0.90217,-0.03414597,0.62165
780.163,83.28535,-0.90382,-0.03127037,0.62095
780.963,83.36654,-0.90382,-0.03421405,0.62025
781.763,83.44761,-0.90385,-0.03626022,0.61955
782.563,83.52848,-0.90278,-0.03419487,0.61885
783.363,83.60936,-0.90382,-0.0328733,0.61815
784.163,83.6906,-0.90613,-0.03585394,0.61745
784.963,83.77155,-0.9048,-0.03459822,0.61675
785.763,83.8529,-0.90352,-0.03502531,0.61605
786.563,83.93411,-0.90612,-0.03529768,0.61535
787.363,84.01533,-0.90755,-0.03438619,0.61464
788.163,84.09674,-0.90876,-0.0356297,0.61394
788.963,84.1781,-0.90745,-0.03509188,0.61324
789.763,84.25967,-0.90876,-0.03688514,0.61254
790.563,84.34101,-0.90824,-0.03735783,0.61183
791.363,84.42226,-0.90875,-0.03568327,0.61113
792.163,84.50335,-0.91084,-0.03482178,0.61042
792.963,84.58447,-0.91139,-0.03670691,0.60972
793.763,84.6657,-0.91269,-0.03627387,0.60901
794.563,84.74664,-0.91268,-0.03228836,0.60831
795.363,84.82735,-0.9127,-0.03059906,0.6076
796.163,84.90809,-0.91295,-0.03821691,0.6069
796.963,84.9892,-0.91304,-0.03850994,0.60619
797.763,85.0707,-0.91318,-0.03877496,0.60548
798.563,85.15167,-0.9139,-0.03664237,0.60478
799.363,85.23258,-0.91332,-0.03742818,0.60407
800.163,85.3137,-0.91435,-0.03829705,0.60336
800.963,85.39487,-0.9156,-0.03690786,0.60265
801.763,85.47574,-0.91697,-0.03520448,0.60195
802.563,85.55676,-0.91698,-0.04339661,0.60124
803.363,85.63785,-0.9183,-0.03840809,0.60053
804.163,85.7188,-0.9183,-0.04439301,0.59982
804.963,85.7998,-0.91961,-0.04054165,0.59911
805.763,85.8809,-0.91881,-0.03858953,0.5984
806.563,85.96209,-0.92093,-0.03610814,0.59769
807.363,86.04334,-0.92134,-0.03561597,0.59698
808.163,86.12471,-0.92093,-0.03541797,0.59627
808.963,86.2062,-0.92224,-0.03550443,0.59556
809.763,86.28783,-0.92224,-0.04001433,0.59484
810.563,86.3693,-0.92356,-0.03827125,0.59413
811.363,86.45082,-0.92274,-0.04005808,0.59342
812.163,86.53239,-0.92357,-0.03869914,0.59271
812.963,86.61384,-0.92489,-0.04212145,0.59199
813.763,86.6948,-0.92619,-0.04291183,0.59128
814.563,86.7761,-0.9264,-0.04106854,0.59057
815.363,86.85777,-0.9262,-0.04387657,0.58985
816.163,86.93951,-0.92751,-0.04409551,0.58914
816.963,87.02112,-0.92759,-0.05163025,0.58842
817.763,87.10252,-0.92751,-0.05226951,0.58771
818.563,87.18388,-0.92882,-0.05384869,0.58699
819.363,87.26523,-0.92883,-0.05266914,0.58628
820.163,87.34669,-0.92957,-0.05271344,0.58556
820.963,87.42819,-0.93014,-0.05798662,0.58485
821.763,87.50971,-0.93145,-0.05937046,0.58413
822.563,87.5912,-0.93142,-0.06608421,0.58342
823.363,87.67264,-0.93278,-0.06606293,0.5827
824.163,87.754,-0.93407,-0.06755855,0.58198
824.963,87.83546,-0.93409,-0.07179131,0.58126
825.763,87.91666,-0.93544,-0.06911831,0.58055
826.563,87.99799,-0.9354,-0.07253126,0.57983
827.363,88.07943,-0.9341,-0.07271836,0.57911
828.163,88.161,-0.93476,-0.07319883,0.57839
828.963,88.24259,-0.93542,-0.07333274,0.57767
829.763,88.32446,-0.93673,-0.07627715,0.57695
830.563,88.40624,-0.93673,-0.08002535,0.57623
831.363,88.48795,-0.93706,-0.08323638,0.57552
832.163,88.56975,-0.93806,-0.08344258,0.5748
832.963,88.65146,-0.93672,-0.08507406,0.57408
833.763,88.7333,-0.93768,-0.09159917,0.57336
834.563,88.81492,-0.93695,-0.0893594,0.57263
835.363,88.89661,-0.9401,-0.09352744,0.57191
836.163,88.97828,-0.94194,-0.09658865,0.57119
836.963,89.05967,-0.94328,-0.10359,0.57047
837.763,89.14108,-0.94197,-0.10534,0.56975
838.563,89.22246,-0.94331,-0.11326,0.56903
839.363,89.30394,-0.94208,-0.11734,0.56831
840.163,89.38537,-0.94335,-0.12145,0.56758
840.963,89.46679,-0.94199,-0.12333,0.56686
841.763,89.54818,-0.94331,-0.12605,0.56614
842.563,89.6297,-0.94462,-0.13123,0.56542
843.363,89.71124,-0.94347,-0.13364,0.56469
844.163,89.79266,-0.94414,-0.13207,0.56397
844.963,89.87397,-0.94298,-0.13824,0.56325
845.763,89.9555,-0.94424,-0.13257,0.56252
846.563,90.0371,-0.9443,-0.13744,0.5618
847.363,90.11874,-0.94463,-0.14009,0.56107
848.163,90.20031,-0.94594,-0.13929,0.56035
848.963,90.28171,-0.94582,-0.14124,0.55962
849.763,90.363,-0.94693,-0.1457,0.5589
850.563,90.44416,-0.94693,-0.14717,0.55817
851.363,90.52548,-0.9469,-0.14709,0.55745
852.163,90.60687,-0.94759,-0.14404,0.55672
852.963,90.68835,-0.94759,-0.14439,0.556
853.763,90.7697,-0.94758,-0.15122,0.55527
854.563,90.85118,-0.94725,-0.14774,0.55454
855.363,90.93275,-0.9472,-0.15173,0.55382
856.163,91.01422,-0.94627,-0.15389,0.55309
856.963,91.0959,-0.94666,-0.15523,0.55236
857.763,91.17725,-0.94759,-0.15416,0.55164
858.563,91.25869,-0.94726,-0.15857,0.55091
859.363,91.34009,-0.94792,-0.15939,0.55018
860.163,91.42152,-0.94791,-0.15564,0.54945
860.963,91.50318,-0.94791,-0.15738,0.54873
861.763,91.58493,-0.94803,-0.16014,0.548
862.563,91.66678,-0.9489,-0.15728,0.54727
863.363,91.74852,-0.9489,-0.16025,0.54654
864.163,91.83,-0.9489,-0.16181,0.54581
864.963,91.91165,-0.94923,-0.16278,0.54509
865.763,91.99306,-0.95021,-0.15782,0.54436
866.563,92.07445,-0.95055,-0.16154,0.54363
867.363,92.15562,-0.95062,-0.16474,0.5429
868.163,92.23692,-0.95087,-0.16379,0.54217
868.963,92.31843,-0.95087,-0.16211,0.54144
869.763,92.39922,-0.9512,-0.16883,0.54071
870.563,92.48062,-0.95121,-0.16552,0.53998
871.363,92.56197,-0.94989,-0.16258,0.53925
872.163,92.6437,-0.95121,-0.16907,0.53852
872.963,92.7253,-0.95248,-0.16962,0.53779
873.763,92.80676,-0.95252,-0.16744,0.53706
874.563,92.8881,-0.95189,-0.16867,0.53633
875.363,92.96928,-0.95252,-0.17365,0.5356
876.163,93.05077,-0.95252,-0.17054,0.53487
876.963,93.1326,-0.95224,-0.17379,0.53414
877.763,93.21455,-0.95252,-0.18067,0.5334
878.563,93.29632,-0.95252,-0.18633,0.53267
879.363,93.37759,-0.95253,-0.18233,0.53194
880.163,93.4594,-0.95121,-0.18388,0.53121
880.963,93.54126,-0.95121,-0.18069,0.53048
881.763,93.62295,-0.95241,-0.18603,0.52975
882.563,93.70467,-0.95391,-0.18386,0.52901
883.363,93.78633,-0.95383,-0.18998,0.52828
884.163,93.86796,-0.95252,-0.18669,0.52755
884.963,93.94972,-0.95318,-0.19139,0.52682
885.763,94.03158,-0.95384,-0.19155,0.52608
886.563,94.11327,-0.95437,-0.18907,0.52535
887.363,94.1948,-0.95481,-0.19264,0.52462
888.163,94.27643,-0.95417,-0.19106,0.52389
888.963,94.35814,-0.95417,-0.19504,0.52315
889.763,94.43981,-0.95417,-0.19211,0.52242
890.563,94.52135,-0.95401,-0.19402,0.52169
891.363,94.6027,-0.95405,-0.19542,0.52095
892.163,94.6843,-0.95449,-0.20193,0.52022
892.963,94.7658,-0.95449,-0.20296,0.51949
893.763,94.8475,-0.95379,-0.20558,0.51875
894.563,94.929,-0.9545,-0.20737,0.51802
895.163,94.98968,-0.95514,-0.21204,0.51747