File: 01_Data/Gypsum_Wallboard_Gypsum_Core/STA/N2/10K_min/Gypsum_Wallboard_Gypsum_Core_STA_N2_10KData_220218_R2.csv
##Temp./Â°C,Time/min,Mass loss(subtr.2)/mg,DSC(subtr.2)/(mW/mg),Sensit./(uV/mW)
49.47,10.01,-0.02523,0.009531197,1.07528
50.17,10.76163,-0.02711481,0.04062646,1.07491
50.87,10.9667,-0.02768585,0.05948655,1.07455
51.57,11.1193,-0.02745435,0.081228,1.07418
52.27,11.2486,-0.02568932,0.09198742,1.07382
52.97,11.36384,-0.02703106,0.10475,1.07345
53.67,11.46921,-0.02537807,0.11656,1.07309
54.37,11.56695,-0.0267407,0.12701,1.07272
55.07,11.6623,-0.02992801,0.13617,1.07236
55.77,11.75555,-0.03010141,0.14292,1.07199
56.47,11.84276,-0.02741932,0.15077,1.07163
57.17,11.92783,-0.0281879,0.15584,1.07127
57.87,12.01192,-0.03069576,0.16426,1.0709
58.57,12.09525,-0.03109952,0.16902,1.07054
59.27,12.1777,-0.03093032,0.1745,1.07017
59.97,12.25918,-0.02961177,0.17719,1.06981
60.67,12.339,-0.02819653,0.1819,1.06945
61.37,12.4178,-0.02839053,0.18708,1.06908
62.07,12.4962,-0.03025978,0.19027,1.06872
62.77,12.57417,-0.03151653,0.19689,1.06835
63.47,12.65141,-0.03241987,0.19656,1.06799
64.17,12.72835,-0.0312707,0.20323,1.06763
64.87,12.80463,-0.0297878,0.20519,1.06726
65.57,12.88091,-0.03273467,0.20822,1.0669
66.27,12.95721,-0.03038581,0.21077,1.06654
66.97,13.03289,-0.02941117,0.21591,1.06618
67.67,13.1088,-0.03102895,0.2196,1.06581
68.37,13.18413,-0.03307884,0.2226,1.06545
69.07,13.25951,-0.03181002,0.22434,1.06509
69.77,13.3345,-0.0305576,0.22781,1.06472
70.47,13.4092,-0.02920807,0.23162,1.06436
71.17,13.4837,-0.03318452,0.23581,1.064
71.87,13.55817,-0.03366092,0.23831,1.06364
72.57,13.63296,-0.03590093,0.23988,1.06327
73.27,13.70699,-0.03561621,0.24643,1.06291
73.97,13.7807,-0.03559309,0.24937,1.06255
74.67,13.8545,-0.03719388,0.25482,1.06219
75.37,13.92826,-0.03794582,0.25556,1.06182
76.07,14.0017,-0.03642308,0.26093,1.06146
76.77,14.0746,-0.03644333,0.26061,1.0611
77.47,14.14742,-0.03793152,0.26445,1.06074
78.17,14.2199,-0.03795,0.26883,1.06038
78.87,14.2923,-0.03795,0.27158,1.06002
79.57,14.36442,-0.03795012,0.27634,1.05965
80.27,14.43661,-0.03925237,0.27794,1.05929
80.97,14.5085,-0.03923588,0.28145,1.05893
81.67,14.5804,-0.04057998,0.29042,1.05857
82.37,14.6523,-0.04114933,0.29489,1.05821
83.07,14.72434,-0.04381201,0.30185,1.05785
83.77,14.79602,-0.04753132,0.30939,1.05749
84.47,14.8674,-0.04750276,0.31857,1.05712
85.17,14.93837,-0.0488097,0.32974,1.05676
85.87,15.00932,-0.04736681,0.33675,1.0564
86.57,15.0803,-0.04706013,0.3473,1.05604
87.27,15.15134,-0.04582762,0.35762,1.05568
87.97,15.22241,-0.04824501,0.37129,1.05532
88.67,15.29241,-0.05021693,0.38325,1.05496
89.37,15.36285,-0.05321572,0.39878,1.0546
90.07,15.43304,-0.05605131,0.41352,1.05424
90.77,15.50409,-0.05344078,0.42754,1.05388
91.47,15.57425,-0.04933571,0.44294,1.05352
92.17,15.64427,-0.0507562,0.46471,1.05316
92.87,15.71415,-0.0556191,0.48329,1.0528
93.57,15.78439,-0.06200052,0.50701,1.05244
94.27,15.85435,-0.06818788,0.53054,1.05208
94.97,15.92435,-0.07082741,0.55366,1.05172
95.67,15.994,-0.07209814,0.58012,1.05136
96.37,16.06379,-0.06693226,0.60598,1.051
97.07,16.13336,-0.06884485,0.6349,1.05064
97.77,16.20319,-0.07210391,0.66345,1.05028
98.47,16.27296,-0.07797186,0.69389,1.04992
99.17,16.3426,-0.08087688,0.72498,1.04956
99.87,16.41222,-0.08078421,0.75502,1.0492
100.57,16.4816,-0.08211514,0.78634,1.04884
101.27,16.55115,-0.08411446,0.81622,1.04848
101.97,16.62037,-0.08811142,0.84481,1.04812
102.67,16.68986,-0.09080378,0.87468,1.04776
103.37,16.7593,-0.09678296,0.90776,1.0474
104.07,16.82902,-0.10278,0.93651,1.04705
104.77,16.89849,-0.10654,0.96675,1.04669
105.47,16.9677,-0.11069,0.99995,1.04633
106.17,17.03686,-0.11229,1.0319,1.04597
106.87,17.1062,-0.11596,1.06771,1.04561
107.57,17.17587,-0.12096,1.10236,1.04525
108.27,17.24556,-0.1277,1.14396,1.04489
108.97,17.3153,-0.13586,1.19494,1.04453
109.67,17.38501,-0.1445,1.25763,1.04418
110.37,17.45453,-0.15093,1.33347,1.04382
111.07,17.5242,-0.15749,1.42797,1.04346
111.77,17.594,-0.16412,1.54662,1.0431
112.47,17.6642,-0.16804,1.69473,1.04274
113.17,17.7346,-0.17378,1.83921,1.04239
113.87,17.80497,-0.18786,1.97975,1.04203
114.57,17.87552,-0.20166,2.11689,1.04167
115.27,17.94605,-0.20923,2.25201,1.04131
115.97,18.01674,-0.21777,2.38623,1.04095
116.67,18.08768,-0.23526,2.52021,1.0406
117.37,18.15871,-0.24774,2.65684,1.04024
118.07,18.22953,-0.25606,2.79092,1.03988
118.77,18.30027,-0.27229,2.92274,1.03952
119.47,18.37095,-0.29163,3.04784,1.03917
120.17,18.44192,-0.30708,3.17189,1.03881
120.87,18.51275,-0.32778,3.2805,1.03845
121.57,18.58376,-0.34419,3.38142,1.0381
122.27,18.65466,-0.36256,3.46374,1.03774
122.97,18.7254,-0.38359,3.52213,1.03738
123.67,18.79608,-0.39963,3.55711,1.03702
124.37,18.86655,-0.41466,3.55717,1.03667
125.07,18.9371,-0.43009,3.5246,1.03631
125.77,19.00676,-0.44961,3.45649,1.03595
126.47,19.0763,-0.46679,3.35016,1.0356
127.17,19.14503,-0.47732,3.21726,1.03524
127.87,19.21377,-0.48531,3.09216,1.03488
128.57,19.28193,-0.49617,3.0118,1.03453
129.27,19.35012,-0.50951,2.98322,1.03417
129.97,19.4183,-0.52369,2.99619,1.03381
130.67,19.48648,-0.53921,3.03655,1.03346
131.37,19.5549,-0.55984,3.09558,1.0331
132.07,19.62321,-0.57632,3.15763,1.03275
132.77,19.69195,-0.58991,3.21572,1.03239
133.47,19.75996,-0.59998,3.2573,1.03203
134.17,19.82862,-0.61289,3.28311,1.03168
134.87,19.89701,-0.62663,3.2884,1.03132
135.57,19.96593,-0.641,3.25083,1.03097
136.27,20.03402,-0.65223,3.14604,1.03061
136.97,20.10162,-0.66262,2.88228,1.03026
137.67,20.16839,-0.67376,2.40247,1.0299
138.37,20.23445,-0.67835,1.93793,1.02954
139.07,20.30003,-0.68094,1.5549,1.02919
139.77,20.36492,-0.68701,1.25993,1.02883
140.47,20.42955,-0.68938,1.03194,1.02848
141.17,20.49386,-0.68939,0.86247,1.02812
141.87,20.55819,-0.6907,0.73139,1.02777
142.57,20.6224,-0.69211,0.62964,1.02741
143.27,20.68689,-0.69322,0.55375,1.02706
143.97,20.7513,-0.69596,0.49789,1.0267
144.67,20.81585,-0.69732,0.45066,1.02635
145.37,20.88058,-0.69863,0.41476,1.02599
146.07,20.94539,-0.70249,0.38623,1.02564
146.77,21.01035,-0.70252,0.36451,1.02528
147.47,21.0754,-0.70122,0.34259,1.02493
148.17,21.14074,-0.70254,0.32474,1.02457
148.87,21.20632,-0.70386,0.31161,1.02422
149.57,21.27205,-0.7032,0.29871,1.02386
150.27,21.33761,-0.7019,0.28729,1.02351
150.97,21.40325,-0.70195,0.27987,1.02315
151.67,21.469,-0.70047,0.27134,1.0228
152.37,21.53481,-0.70179,0.26461,1.02244
153.07,21.60061,-0.70464,0.25825,1.02209
153.77,21.66662,-0.70713,0.25119,1.02173
154.47,21.73258,-0.70851,0.24745,1.02138
155.17,21.7987,-0.70879,0.24117,1.02103
155.87,21.86458,-0.70747,0.23684,1.02067
156.57,21.93078,-0.70747,0.23019,1.02032
157.27,21.99726,-0.70887,0.2323,1.01996
157.97,22.06379,-0.70901,0.22784,1.01961
158.67,22.13044,-0.70771,0.2225,1.01926
159.37,22.19676,-0.70771,0.21956,1.0189
160.07,22.2631,-0.71047,0.21704,1.01855
160.77,22.32958,-0.71461,0.21567,1.01819
161.47,22.39631,-0.71603,0.21333,1.01784
162.17,22.46296,-0.71724,0.21316,1.01749
162.87,22.52958,-0.71724,0.21327,1.01713
163.57,22.59626,-0.71856,0.20949,1.01678
164.27,22.66296,-0.71787,0.20687,1.01642
164.97,22.7298,-0.71855,0.20569,1.01607
165.67,22.79614,-0.71839,0.20315,1.01572
166.37,22.8627,-0.71625,0.20278,1.01536
167.07,22.92945,-0.71496,0.20073,1.01501
167.77,22.99643,-0.71622,0.20071,1.01466
168.47,23.0632,-0.71717,0.1994,1.0143
169.17,23.12985,-0.71592,0.19616,1.01395
169.87,23.19645,-0.71144,0.19341,1.0136
170.57,23.26306,-0.70702,0.1913,1.01324
171.27,23.3297,-0.70473,0.19452,1.01289
171.97,23.39655,-0.71139,0.19434,1.01254
172.67,23.46333,-0.71568,0.19125,1.01218
173.37,23.5302,-0.71833,0.19054,1.01183
174.07,23.59688,-0.71964,0.19162,1.01148
174.77,23.6636,-0.71837,0.18853,1.01112
175.47,23.73007,-0.71702,0.18851,1.01077
176.17,23.7965,-0.7157,0.18642,1.01042
176.87,23.86334,-0.7157,0.18321,1.01006
177.57,23.92995,-0.71439,0.18213,1.00971
178.27,23.99679,-0.7143,0.18171,1.00936
178.97,24.06331,-0.7158,0.18332,1.009
179.67,24.13018,-0.71449,0.17949,1.00865
180.37,24.19706,-0.71441,0.18142,1.0083
181.07,24.2641,-0.71589,0.17846,1.00794
181.77,24.33098,-0.71449,0.17671,1.00759
182.47,24.39771,-0.71526,0.17513,1.00724
183.17,24.46428,-0.71581,0.17458,1.00689
183.87,24.53115,-0.71589,0.17341,1.00653
184.57,24.5981,-0.71713,0.17722,1.00618
185.27,24.6648,-0.71703,0.17362,1.00583
185.97,24.73152,-0.71713,0.17323,1.00547
186.67,24.79811,-0.72009,0.17267,1.00512
187.37,24.86467,-0.7214,0.17261,1.00477
188.07,24.93134,-0.72214,0.17464,1.00442
188.77,24.99766,-0.72239,0.1723,1.00406
189.47,25.06409,-0.72035,0.17163,1.00371
190.17,25.13093,-0.71844,0.17088,1.00336
190.87,25.19801,-0.71712,0.17128,1.003
191.57,25.265,-0.71935,0.17044,1.00265
192.27,25.3319,-0.72119,0.17112,1.0023
192.97,25.3983,-0.7218,0.16966,1.00195
193.67,25.46525,-0.7237,0.17019,1.00159
194.37,25.5319,-0.72382,0.17142,1.00124
195.07,25.59875,-0.7225,0.16681,1.00089
195.77,25.6657,-0.71975,0.16846,1.00054
196.47,25.7325,-0.72128,0.16883,1.00018
197.17,25.79942,-0.7224,0.17034,0.99983
197.87,25.8663,-0.72205,0.16687,0.99948
198.57,25.9331,-0.72063,0.16897,0.99912
199.27,25.9993,-0.72286,0.16667,0.99877
199.97,26.0658,-0.72382,0.16587,0.99842
200.67,26.13242,-0.72323,0.16413,0.99807
201.37,26.19949,-0.7224,0.16712,0.99771
202.07,26.2663,-0.72235,0.16613,0.99736
202.77,26.333,-0.72518,0.16641,0.99701
203.47,26.3991,-0.72513,0.16653,0.99666
204.17,26.46548,-0.72521,0.16619,0.9963
204.87,26.5316,-0.72623,0.16523,0.99595
205.57,26.59822,-0.72675,0.16601,0.9956
206.27,26.66484,-0.7256,0.16513,0.99525
206.97,26.732,-0.72057,0.16441,0.99489
207.67,26.7996,-0.72104,0.16485,0.99454
208.37,26.86702,-0.7214,0.16377,0.99419
209.07,26.93409,-0.72136,0.16184,0.99383
209.77,27.0008,-0.72429,0.16199,0.99348
210.47,27.06762,-0.7274,0.16283,0.99313
211.17,27.13413,-0.7283,0.16207,0.99278
211.87,27.2007,-0.727,0.16347,0.99242
212.57,27.2675,-0.72812,0.1631,0.99207
213.27,27.3343,-0.72699,0.16251,0.99172
213.97,27.401,-0.7255,0.16037,0.99137
214.67,27.4676,-0.72305,0.16076,0.99101
215.37,27.53425,-0.7246,0.16175,0.99066
216.07,27.60084,-0.72884,0.16187,0.99031
216.77,27.6674,-0.73138,0.16307,0.98995
217.47,27.73408,-0.72901,0.16312,0.9896
218.17,27.8005,-0.72245,0.16159,0.98925
218.87,27.8667,-0.72199,0.16167,0.9889
219.57,27.93262,-0.72481,0.16368,0.98854
220.27,27.99871,-0.72882,0.15991,0.98819
220.97,28.06502,-0.72788,0.16133,0.98784
221.67,28.13202,-0.72731,0.16181,0.98748
222.37,28.1993,-0.72678,0.15815,0.98713
223.07,28.2666,-0.72811,0.16018,0.98678
223.77,28.33338,-0.72941,0.15945,0.98643
224.47,28.39997,-0.72941,0.16033,0.98607
225.17,28.46671,-0.72441,0.15693,0.98572
225.87,28.53355,-0.72045,0.15536,0.98537
226.57,28.6003,-0.72823,0.15915,0.98501
227.27,28.66695,-0.72945,0.15732,0.98466
227.97,28.73351,-0.72996,0.15839,0.98431
228.67,28.8001,-0.72996,0.15738,0.98395
229.37,28.86676,-0.73226,0.15852,0.9836
230.07,28.93337,-0.73358,0.15868,0.98325
230.77,29.00013,-0.73226,0.15604,0.98289
231.47,29.06679,-0.73089,0.15619,0.98254
232.17,29.1334,-0.72952,0.15489,0.98219
232.87,29.2,-0.72821,0.15271,0.98183
233.57,29.2665,-0.72721,0.15468,0.98148
234.27,29.33338,-0.72881,0.15283,0.98113
234.97,29.4001,-0.73139,0.15462,0.98077
235.67,29.467,-0.73434,0.15535,0.98042
236.37,29.53363,-0.73462,0.15448,0.98006
237.07,29.60039,-0.73107,0.15148,0.97971
237.77,29.66718,-0.72976,0.153,0.97936
238.47,29.734,-0.73018,0.1496,0.979
239.17,29.80087,-0.72985,0.14955,0.97865
239.87,29.86795,-0.72985,0.15165,0.9783
240.57,29.9347,-0.7294,0.15018,0.97794
241.27,30.0017,-0.73075,0.15021,0.97759
241.97,30.06842,-0.72993,0.14927,0.97723
242.67,30.13518,-0.73118,0.1492,0.97688
243.37,30.202,-0.73387,0.14841,0.97652
244.07,30.26892,-0.73535,0.14919,0.97617
244.77,30.336,-0.73665,0.1484,0.97582
245.47,30.40301,-0.73535,0.14761,0.97546
246.17,30.46991,-0.73292,0.14716,0.97511
246.87,30.53684,-0.73121,0.14527,0.97475
247.57,30.60352,-0.7323,0.1452,0.9744
248.27,30.67023,-0.72929,0.14474,0.97404
248.97,30.73687,-0.72827,0.14362,0.97369
249.67,30.8035,-0.72944,0.14543,0.97333
250.37,30.8703,-0.73018,0.14497,0.97298
251.07,30.93695,-0.73141,0.14519,0.97263
251.77,31.0038,-0.73436,0.14609,0.97227
252.47,31.0704,-0.73567,0.14571,0.97192
253.17,31.13702,-0.73567,0.14613,0.97156
253.87,31.2036,-0.73569,0.14527,0.97121
254.57,31.27028,-0.73698,0.14543,0.97085
255.27,31.33708,-0.73835,0.1451,0.97049
255.97,31.40395,-0.73959,0.14593,0.97014
256.67,31.471,-0.73815,0.14499,0.96978
257.37,31.53775,-0.73551,0.14703,0.96943
258.07,31.6044,-0.73253,0.14411,0.96907
258.77,31.671,-0.73087,0.14114,0.96872
259.47,31.73772,-0.73143,0.14225,0.96836
260.17,31.80432,-0.73312,0.14206,0.96801
260.87,31.87101,-0.73555,0.14209,0.96765
261.57,31.9376,-0.73556,0.14018,0.96729
262.27,32.0045,-0.73557,0.13872,0.96694
262.97,32.0714,-0.73292,0.14007,0.96658
263.67,32.13842,-0.73439,0.13912,0.96623
264.37,32.20513,-0.73711,0.13978,0.96587
265.07,32.27195,-0.73677,0.14119,0.96551
265.77,32.3388,-0.73544,0.13931,0.96516
266.47,32.40562,-0.73544,0.13891,0.9648
267.17,32.47255,-0.73412,0.13764,0.96444
267.87,32.53953,-0.73575,0.13918,0.96409
268.57,32.6066,-0.73536,0.13759,0.96373
269.27,32.67333,-0.73463,0.1361,0.96337
269.97,32.73988,-0.73293,0.135,0.96302
270.67,32.80663,-0.73139,0.13344,0.96266
271.37,32.8734,-0.73364,0.13437,0.9623
272.07,32.94043,-0.73402,0.13374,0.96194
272.77,33.0073,-0.73603,0.13183,0.96159
273.47,33.0742,-0.74023,0.13426,0.96123
274.17,33.141,-0.74301,0.13237,0.96087
274.87,33.20767,-0.74431,0.1334,0.96051
275.57,33.2745,-0.73921,0.13109,0.96016
276.27,33.3414,-0.73623,0.12941,0.9598
276.97,33.4084,-0.73135,0.1302,0.95944
277.67,33.47521,-0.73411,0.13166,0.95908
278.37,33.54205,-0.73893,0.13092,0.95872
279.07,33.609,-0.73972,0.13107,0.95837
279.77,33.67592,-0.74105,0.13222,0.95801
280.47,33.7429,-0.7411,0.1309,0.95765
281.17,33.80975,-0.73843,0.13104,0.95729
281.87,33.87642,-0.73823,0.12993,0.95693
282.57,33.9431,-0.73463,0.1283,0.95657
283.27,34.00985,-0.7338,0.12861,0.95621
283.97,34.07658,-0.73903,0.13018,0.95586
284.67,34.1434,-0.74202,0.13038,0.9555
285.37,34.21025,-0.74225,0.13119,0.95514
286.07,34.27725,-0.74062,0.12935,0.95478
286.77,34.34442,-0.7406,0.1316,0.95442
287.47,34.4114,-0.7406,0.13115,0.95406
288.17,34.47821,-0.7406,0.13119,0.9537
288.87,34.54481,-0.7406,0.12931,0.95334
289.57,34.61162,-0.74092,0.1289,0.95298
290.27,34.67858,-0.74091,0.12796,0.95262
290.97,34.74575,-0.73956,0.13062,0.95226
291.67,34.81269,-0.74115,0.12917,0.9519
292.37,34.87961,-0.74115,0.13108,0.95154
293.07,34.9466,-0.74082,0.1284,0.95118
293.77,35.01351,-0.74081,0.12876,0.95082
294.47,35.08038,-0.73839,0.12573,0.95045
295.17,35.14734,-0.73709,0.12298,0.95009
295.87,35.2144,-0.73638,0.12413,0.94973
296.57,35.28158,-0.74062,0.12351,0.94937
297.27,35.34874,-0.74246,0.12583,0.94901
297.97,35.41604,-0.74459,0.12552,0.94865
298.67,35.4831,-0.74662,0.12448,0.94829
299.37,35.54983,-0.74532,0.12334,0.94792
300.07,35.61638,-0.74261,0.1251,0.94756
300.77,35.6833,-0.74411,0.12667,0.9472
301.47,35.7507,-0.74356,0.12471,0.94684
302.17,35.81816,-0.74483,0.12564,0.94648
302.87,35.88516,-0.74475,0.12569,0.94611
303.57,35.95205,-0.74126,0.12523,0.94575
304.27,36.01914,-0.73906,0.12403,0.94539
304.97,36.0865,-0.73902,0.12662,0.94502
305.67,36.15365,-0.7413,0.1259,0.94466
306.37,36.22081,-0.74455,0.12489,0.9443
307.07,36.28801,-0.74461,0.12411,0.94393
307.77,36.35542,-0.74115,0.12226,0.94357
308.47,36.4225,-0.74082,0.12094,0.94321
309.17,36.4898,-0.74082,0.12384,0.94284
309.87,36.55686,-0.74081,0.12463,0.94248
310.57,36.62403,-0.74229,0.12248,0.94211
311.27,36.69106,-0.74719,0.12552,0.94175
311.97,36.75823,-0.7465,0.12173,0.94139
312.67,36.82549,-0.74222,0.11809,0.94102
313.37,36.89295,-0.74091,0.12014,0.94066
314.07,36.96043,-0.74064,0.11647,0.94029
314.77,37.02768,-0.74168,0.11995,0.93993
315.47,37.09479,-0.74406,0.12036,0.93956
316.17,37.16191,-0.74674,0.11966,0.9392
316.87,37.229,-0.74674,0.12076,0.93883
317.57,37.2962,-0.74538,0.12185,0.93846
318.27,37.36326,-0.74725,0.12044,0.9381
318.97,37.43046,-0.74685,0.12135,0.93773
319.67,37.49785,-0.74259,0.11875,0.93737
320.37,37.56497,-0.73799,0.122,0.937
321.07,37.6323,-0.73805,0.12071,0.93663
321.77,37.69938,-0.74082,0.11945,0.93626
322.47,37.7667,-0.74215,0.12083,0.9359
323.17,37.83406,-0.74485,0.11965,0.93553
323.87,37.90081,-0.74345,0.1185,0.93516
324.57,37.96804,-0.74492,0.11903,0.9348
325.27,38.0353,-0.74459,0.11888,0.93443
325.97,38.10327,-0.74621,0.11702,0.93406
326.67,38.17071,-0.74884,0.119,0.93369
327.37,38.23833,-0.75161,0.1171,0.93332
328.07,38.3059,-0.74936,0.11586,0.93295
328.77,38.3733,-0.74504,0.11438,0.93259
329.47,38.44078,-0.74484,0.11527,0.93222
330.17,38.50812,-0.74664,0.11602,0.93185
330.87,38.57575,-0.74863,0.11191,0.93148
331.57,38.6432,-0.74436,0.11171,0.93111
332.27,38.7104,-0.74291,0.11008,0.93074
332.97,38.77802,-0.74575,0.11124,0.93037
333.67,38.84563,-0.74839,0.11087,0.93
334.37,38.91385,-0.74706,0.1128,0.92963
335.07,38.9814,-0.74838,0.10773,0.92926
335.77,39.04896,-0.74841,0.10835,0.92889
336.47,39.1167,-0.74691,0.1072,0.92852
337.17,39.18448,-0.7474,0.10952,0.92815
337.87,39.25228,-0.74757,0.10804,0.92778
338.57,39.31982,-0.75014,0.10825,0.9274
339.27,39.3872,-0.75016,0.10715,0.92703
339.97,39.45493,-0.74952,0.10337,0.92666
340.67,39.5226,-0.74849,0.10547,0.92629
341.37,39.5901,-0.74849,0.10309,0.92592
342.07,39.6575,-0.74708,0.10333,0.92554
342.77,39.72509,-0.74824,0.10537,0.92517
343.47,39.7928,-0.74985,0.1053,0.9248
344.17,39.86047,-0.75042,0.1028,0.92442
344.87,39.928,-0.74957,0.10153,0.92405
345.57,39.99565,-0.74959,0.09879448,0.92368
346.27,40.06312,-0.74958,0.09815152,0.9233
346.97,40.1307,-0.74926,0.09569989,0.92293
347.67,40.19812,-0.74795,0.09403537,0.92256
348.37,40.2658,-0.74795,0.09139309,0.92218
349.07,40.33336,-0.74824,0.09333543,0.92181
349.77,40.40101,-0.75103,0.09264901,0.92143
350.47,40.46867,-0.75157,0.09288245,0.92106
351.17,40.53642,-0.75038,0.0887391,0.92068
351.87,40.60386,-0.74633,0.08555813,0.92031
352.57,40.67158,-0.74713,0.08360418,0.91993
353.27,40.7392,-0.75036,0.08003104,0.91955
353.97,40.80696,-0.75204,0.08427933,0.91918
354.67,40.87472,-0.75253,0.08126311,0.9188
355.37,40.94242,-0.75201,0.07919566,0.91843
356.07,41.01,-0.74893,0.0781438,0.91805
356.77,41.0777,-0.7462,0.07529603,0.91767
357.47,41.14543,-0.74785,0.07318198,0.91729
358.17,41.21334,-0.75126,0.0696974,0.91692
358.87,41.2811,-0.75182,0.06815868,0.91654
359.57,41.34879,-0.74796,0.06529898,0.91616
360.27,41.41664,-0.74798,0.06166999,0.91578
360.97,41.48431,-0.74967,0.0620371,0.9154
361.67,41.55222,-0.7497,0.05709788,0.91503
362.37,41.62,-0.7497,0.05664687,0.91465
363.07,41.68803,-0.75149,0.05282283,0.91427
363.77,41.75598,-0.74998,0.04978872,0.91389
364.47,41.82398,-0.74989,0.04740203,0.91351
365.17,41.89184,-0.75306,0.04598025,0.91313
365.87,41.95978,-0.75715,0.0457625,0.91275
366.57,42.02768,-0.75857,0.04220471,0.91237
367.27,42.0959,-0.75716,0.03655654,0.91199
367.97,42.16406,-0.75558,0.0340299,0.91161
368.67,42.23222,-0.75215,0.02775721,0.91122
369.37,42.3003,-0.74828,0.02276833,0.91084
370.07,42.36841,-0.74966,0.02134708,0.91046
370.77,42.43632,-0.75292,0.01558477,0.91008
371.47,42.50466,-0.75257,0.01304939,0.9097
372.17,42.57288,-0.75234,0.006107154,0.90932
372.87,42.64117,-0.75311,0.006296591,0.90893
373.57,42.7093,-0.75508,-0.0007358472,0.90855
374.27,42.77773,-0.75738,-0.004216364,0.90817
374.97,42.84636,-0.75771,-0.00799757,0.90778
375.67,42.91492,-0.75908,-0.009212675,0.9074
376.37,42.98332,-0.75901,-0.01568413,0.90701
377.07,43.05164,-0.75614,-0.01855526,0.90663
377.77,43.11976,-0.75083,-0.02362402,0.90625
378.47,43.18797,-0.74933,-0.03050136,0.90586
379.17,43.25612,-0.75287,-0.03180672,0.90548
379.87,43.32439,-0.75157,-0.03453933,0.90509
380.57,43.39255,-0.7529,-0.03645812,0.90471
381.27,43.46045,-0.75587,-0.04034864,0.90432
381.97,43.5286,-0.75868,-0.04114078,0.90393
382.67,43.59709,-0.7563,-0.04711059,0.90355
383.37,43.66579,-0.75607,-0.04902622,0.90316
384.07,43.73421,-0.75344,-0.05167592,0.90277
384.77,43.80236,-0.75136,-0.05171861,0.90239
385.47,43.87055,-0.74837,-0.053474,0.902
386.17,43.9386,-0.74806,-0.04977118,0.90161
386.87,44.0067,-0.75101,-0.05013384,0.90122
387.57,44.07455,-0.75484,-0.0500934,0.90083
388.27,44.14271,-0.75575,-0.0488166,0.90045
388.97,44.21078,-0.76077,-0.04545498,0.90006
389.67,44.27897,-0.76164,-0.04203337,0.89967
390.37,44.34713,-0.75747,-0.04406509,0.89928
391.07,44.4154,-0.75263,-0.0427486,0.89889
391.77,44.48376,-0.74679,-0.0400374,0.8985
392.47,44.55213,-0.74722,-0.03566879,0.89811
393.17,44.62038,-0.75379,-0.03251043,0.89772
393.87,44.68868,-0.75563,-0.02955854,0.89733
394.57,44.75707,-0.75827,-0.02587731,0.89694
395.27,44.8255,-0.75826,-0.02237897,0.89654
395.97,44.894,-0.75826,-0.01840689,0.89615
396.67,44.9626,-0.75841,-0.01499791,0.89576
397.37,45.03091,-0.75828,-0.01217113,0.89537
398.07,45.09945,-0.75563,-0.009853373,0.89498
398.77,45.16792,-0.75563,-0.00672872,0.89458
399.47,45.23659,-0.75826,-0.001304171,0.89419
400.17,45.30514,-0.75753,0.001262642,0.8938
400.87,45.3735,-0.75629,0.00206587,0.8934
401.57,45.44187,-0.75497,0.005769258,0.89301
402.27,45.5103,-0.75629,0.008198324,0.89261
402.97,45.57869,-0.75498,0.01180744,0.89222
403.67,45.64696,-0.7539,0.01587386,0.89182
404.37,45.71543,-0.75495,0.0187884,0.89143
405.07,45.78396,-0.75494,0.02254101,0.89103
405.77,45.85273,-0.7563,0.02585597,0.89064
406.47,45.92139,-0.75695,0.02879517,0.89024
407.17,45.99024,-0.75761,0.02878015,0.88984
407.87,46.05885,-0.75891,0.03218163,0.88945
408.57,46.12712,-0.75892,0.03532678,0.88905
409.27,46.19552,-0.75902,0.03739566,0.88865
409.97,46.26408,-0.7576,0.03993589,0.88825
410.67,46.3331,-0.75763,0.04225691,0.88786
411.37,46.4017,-0.75627,0.04416806,0.88746
412.07,46.47032,-0.75761,0.04714431,0.88706
412.77,46.539,-0.75786,0.05372243,0.88666
413.47,46.60759,-0.76026,0.0527545,0.88626
414.17,46.6762,-0.76145,0.05690751,0.88586
414.87,46.7447,-0.75892,0.05787129,0.88546
415.57,46.81308,-0.76013,0.06004928,0.88506
416.27,46.8819,-0.75875,0.06015731,0.88466
416.97,46.9501,-0.75739,0.06180378,0.88426
417.67,47.01813,-0.76,0.06100259,0.88386
418.37,47.08617,-0.75756,0.06181301,0.88346
419.07,47.15483,-0.75392,0.06411591,0.88305
419.77,47.2241,-0.75651,0.06598711,0.88265
420.47,47.2933,-0.75522,0.06466441,0.88225
421.17,47.36231,-0.75649,0.06772426,0.88185
421.87,47.4311,-0.75897,0.07047637,0.88144
422.57,47.49948,-0.76321,0.07041838,0.88104
423.27,47.56793,-0.7632,0.07211068,0.88063
423.97,47.63622,-0.76318,0.07491519,0.88023
424.67,47.70471,-0.7632,0.07640912,0.87983
425.37,47.77315,-0.76198,0.07589017,0.87942
426.07,47.84187,-0.75891,0.07514527,0.87902
426.77,47.9103,-0.7584,0.07600159,0.87861
427.47,47.97895,-0.76059,0.07534028,0.8782
428.17,48.04725,-0.75772,0.07635288,0.8778
428.87,48.11573,-0.75771,0.07919254,0.87739
429.57,48.18432,-0.75892,0.07993501,0.87698
430.27,48.25315,-0.75771,0.07892164,0.87658
430.97,48.32193,-0.75638,0.07805635,0.87617
431.67,48.3906,-0.75612,0.07809935,0.87576
432.37,48.45897,-0.75918,0.08054157,0.87535
433.07,48.5276,-0.75967,0.08045021,0.87494
433.77,48.59613,-0.76215,0.07981021,0.87454
434.47,48.66496,-0.7615,0.07911334,0.87413
435.17,48.73369,-0.76155,0.07978496,0.87372
435.87,48.80243,-0.76022,0.08007399,0.87331
436.57,48.87127,-0.75863,0.07864564,0.8729
437.27,48.9402,-0.75771,0.07959466,0.87249
437.97,49.00932,-0.75897,0.0810892,0.87207
438.67,49.0781,-0.76152,0.08333028,0.87166
439.37,49.14687,-0.76163,0.08312871,0.87125
440.07,49.21567,-0.76407,0.08233309,0.87084
440.77,49.2847,-0.76397,0.08513226,0.87043
441.47,49.3537,-0.76431,0.08264428,0.87001
442.17,49.42279,-0.76469,0.08226375,0.8696
442.87,49.49175,-0.76194,0.08007768,0.86919
443.57,49.56055,-0.75943,0.08148805,0.86877
444.27,49.6293,-0.75811,0.08129118,0.86836
444.97,49.698,-0.76026,0.08254584,0.86794
445.67,49.76708,-0.76348,0.08274196,0.86753
446.37,49.8361,-0.76571,0.08558944,0.86711
447.07,49.905,-0.76549,0.08469844,0.8667
447.77,49.9737,-0.76285,0.08647438,0.86628
448.47,50.04252,-0.76419,0.08825068,0.86587
449.17,50.11132,-0.76309,0.08382875,0.86545
449.87,50.18007,-0.7622,0.08557219,0.86503
450.57,50.24875,-0.76155,0.08522614,0.86461
451.27,50.3175,-0.7616,0.08711525,0.8642
451.97,50.38621,-0.76164,0.08846688,0.86378
452.67,50.45508,-0.76155,0.09053572,0.86336
453.37,50.52387,-0.76221,0.09159448,0.86294
454.07,50.5927,-0.76221,0.09166289,0.86252
454.77,50.6614,-0.76211,0.08909288,0.8621
455.47,50.73015,-0.75958,0.08875029,0.86168
456.17,50.79899,-0.76067,0.08990267,0.86126
456.87,50.86785,-0.76206,0.08970298,0.86084
457.57,50.9367,-0.76239,0.08940757,0.86042
458.27,51.00542,-0.76243,0.08822214,0.86
458.97,51.07448,-0.76109,0.08840321,0.85957
459.67,51.14359,-0.7598,0.08720177,0.85915
460.37,51.21287,-0.76112,0.08817666,0.85873
461.07,51.28178,-0.76465,0.08900405,0.85831
461.77,51.35099,-0.76722,0.0931577,0.85788
462.47,51.4202,-0.76913,0.09164055,0.85746
463.17,51.48943,-0.77043,0.09076338,0.85703
463.87,51.5584,-0.76875,0.08974572,0.85661
464.57,51.62738,-0.76505,0.09165962,0.85619
465.27,51.69641,-0.76169,0.09042921,0.85576
465.97,51.7656,-0.76189,0.09022757,0.85533
466.67,51.8349,-0.76356,0.09207522,0.85491
467.37,51.9041,-0.76593,0.09078532,0.85448
468.07,51.9733,-0.76593,0.09122566,0.85405
468.77,52.04249,-0.76462,0.08838746,0.85363
469.47,52.1117,-0.76462,0.09172866,0.8532
470.17,52.18059,-0.76331,0.09116096,0.85277
470.87,52.24954,-0.76265,0.08734977,0.85234
471.57,52.31863,-0.76396,0.08682654,0.85191
472.27,52.38779,-0.7633,0.08703004,0.85148
472.97,52.45681,-0.7633,0.0866748,0.85105
473.67,52.52581,-0.7633,0.0887727,0.85062
474.37,52.5949,-0.76333,0.0911576,0.85019
475.07,52.6641,-0.76729,0.08955449,0.84976
475.77,52.7332,-0.77034,0.09371993,0.84933
476.47,52.8021,-0.77033,0.09301775,0.8489
477.17,52.8712,-0.76897,0.09259809,0.84847
477.87,52.9402,-0.76769,0.09267077,0.84804
478.57,53.0092,-0.76722,0.0920736,0.8476
479.27,53.07818,-0.76649,0.09284091,0.84717
479.97,53.1473,-0.76641,0.09297442,0.84674
480.67,53.21645,-0.76772,0.09060364,0.8463
481.37,53.28559,-0.76898,0.09557718,0.84587
482.07,53.35468,-0.76745,0.09539369,0.84543
482.77,53.42377,-0.76536,0.09420704,0.845
483.47,53.49256,-0.76407,0.09430257,0.84456
484.17,53.56145,-0.76539,0.0945336,0.84413
484.87,53.6306,-0.76637,0.09474594,0.84369
485.57,53.69979,-0.76638,0.09186391,0.84325
486.27,53.769,-0.76638,0.09382571,0.84282
486.97,53.83792,-0.7664,0.09324232,0.84238
487.67,53.90676,-0.7677,0.09661504,0.84194
488.37,53.97565,-0.76901,0.09834738,0.8415
489.07,54.04492,-0.76796,0.09649185,0.84106
489.77,54.1144,-0.76841,0.09448979,0.84062
490.47,54.1836,-0.76903,0.09870398,0.84018
491.17,54.25266,-0.76803,0.09927777,0.83974
491.87,54.3217,-0.76835,0.09455031,0.8393
492.57,54.39076,-0.76935,0.09673327,0.83886
493.27,54.45995,-0.76934,0.09575217,0.83842
493.97,54.5294,-0.76934,0.09485519,0.83798
494.67,54.59873,-0.77065,0.09376177,0.83754
495.37,54.66825,-0.77065,0.09535202,0.8371
496.07,54.73758,-0.7707,0.09295022,0.83665
496.77,54.8069,-0.77065,0.09535768,0.83621
497.47,54.8764,-0.76966,0.09385343,0.83577
498.17,54.94588,-0.76933,0.09148004,0.83532
498.87,55.0153,-0.77064,0.09208409,0.83488
499.57,55.0846,-0.76929,0.09408055,0.83443
500.27,55.15401,-0.76891,0.09105112,0.83399
500.97,55.22365,-0.76822,0.0925633,0.83354
501.67,55.29311,-0.76802,0.09103056,0.83309
502.37,55.36241,-0.76671,0.0903698,0.83265
503.07,55.4317,-0.76671,0.09033992,0.8322
503.77,55.5011,-0.76802,0.09113347,0.83175
504.47,55.57063,-0.76806,0.08771982,0.83131
505.17,55.6403,-0.76933,0.08998737,0.83086
505.87,55.7098,-0.76933,0.0886336,0.83041
506.57,55.7792,-0.77065,0.09197635,0.82996
507.27,55.84856,-0.77197,0.08965617,0.82951
507.97,55.91791,-0.77197,0.09305655,0.82906
508.67,55.98698,-0.77329,0.09103601,0.82861
509.37,56.0564,-0.7746,0.09429857,0.82816
510.07,56.1258,-0.77625,0.08924128,0.82771
510.77,56.19531,-0.77624,0.0908839,0.82725
511.47,56.2646,-0.77493,0.09093975,0.8268
512.17,56.3338,-0.77488,0.0925112,0.82635
512.87,56.4027,-0.77471,0.09120529,0.8259
513.57,56.4722,-0.77362,0.09249313,0.82544
514.27,56.54156,-0.77468,0.09274223,0.82499
514.97,56.61094,-0.77329,0.09056938,0.82454
515.67,56.68006,-0.77197,0.0884313,0.82408
516.37,56.74935,-0.7717,0.09142728,0.82363
517.07,56.8188,-0.77066,0.09102684,0.82317
517.77,56.8881,-0.77067,0.09167597,0.82271
518.47,56.9574,-0.76934,0.09373855,0.82226
519.17,57.0272,-0.76934,0.09326151,0.8218
519.87,57.0968,-0.77077,0.09237593,0.82134
520.57,57.16655,-0.77076,0.09332359,0.82089
521.27,57.23624,-0.77336,0.09325991,0.82043
521.97,57.30601,-0.77397,0.09633668,0.81997
522.67,57.37537,-0.77525,0.09503767,0.81951
523.37,57.44486,-0.7757,0.09568964,0.81905
524.07,57.5143,-0.77682,0.09601889,0.81859
524.77,57.58393,-0.77511,0.09192023,0.81813
525.47,57.65347,-0.77494,0.09367154,0.81767
526.17,57.7231,-0.77469,0.09242948,0.81721
526.87,57.79265,-0.77361,0.09452513,0.81675
527.57,57.86189,-0.77131,0.0902953,0.81628
528.27,57.931,-0.76996,0.09099809,0.81582
528.97,58.0001,-0.77099,0.0907878,0.81536
529.67,58.06983,-0.77229,0.09127408,0.8149
530.37,58.1399,-0.7723,0.08971681,0.81443
531.07,58.20969,-0.7733,0.08904,0.81397
531.77,58.27975,-0.77395,0.08999962,0.8135
532.47,58.3496,-0.77395,0.08884088,0.81304
533.17,58.41955,-0.77296,0.08859942,0.81257
533.87,58.48924,-0.77425,0.09101495,0.81211
534.57,58.5589,-0.77705,0.09117763,0.81164
535.27,58.6287,-0.77746,0.09014162,0.81117
535.97,58.6982,-0.77803,0.09494262,0.81071
536.67,58.76769,-0.77695,0.09222043,0.81024
537.37,58.8373,-0.77391,0.09043978,0.80977
538.07,58.907,-0.76839,0.08834431,0.8093
538.77,58.97679,-0.76975,0.09217509,0.80883
539.47,59.0464,-0.76791,0.09038914,0.80836
540.17,59.116,-0.77033,0.09298153,0.80789
540.87,59.1857,-0.77315,0.09395274,0.80742
541.57,59.25555,-0.77636,0.09425344,0.80695
542.27,59.32565,-0.77873,0.09376822,0.80648
542.97,59.3956,-0.77843,0.09503029,0.80601
543.67,59.4657,-0.78003,0.09786258,0.80554
544.37,59.5356,-0.7794,0.09611335,0.80506
545.07,59.60573,-0.77944,0.09459936,0.80459
545.77,59.67578,-0.7767,0.09458568,0.80412
546.47,59.74601,-0.7745,0.09205913,0.80364
547.17,59.81613,-0.7745,0.09314425,0.80317
547.87,59.886,-0.77317,0.09223527,0.80269
548.57,59.95593,-0.77417,0.0934217,0.80222
549.27,60.0258,-0.77549,0.0928317,0.80174
549.97,60.0961,-0.77417,0.0951542,0.80127
550.67,60.1661,-0.77185,0.09353209,0.80079
551.37,60.2362,-0.77057,0.09355898,0.80031
552.07,60.30596,-0.77186,0.09564662,0.79983
552.77,60.3759,-0.77377,0.09623805,0.79936
553.47,60.44571,-0.77549,0.09867889,0.79888
554.17,60.51546,-0.77679,0.09766998,0.7984
554.87,60.5851,-0.77696,0.09878044,0.79792
555.57,60.65481,-0.77712,0.09999731,0.79744
556.27,60.72459,-0.77712,0.0999717,0.79696
556.97,60.7945,-0.77712,0.09871886,0.79648
557.67,60.8644,-0.77712,0.10064,0.796
558.37,60.9341,-0.77711,0.10048,0.79552
559.07,61.0039,-0.77476,0.10407,0.79503
559.77,61.07356,-0.77581,0.10159,0.79455
560.47,61.1437,-0.77783,0.1054,0.79407
561.17,61.2136,-0.77837,0.10379,0.79358
561.87,61.28371,-0.77851,0.10013,0.7931
562.57,61.3536,-0.77711,0.1036,0.79262
563.27,61.42354,-0.77573,0.09934146,0.79213
563.97,61.49338,-0.77704,0.10368,0.79165
564.67,61.5635,-0.77844,0.10335,0.79116
565.37,61.63371,-0.77975,0.10316,0.79067
566.07,61.7042,-0.77975,0.10278,0.79019
566.77,61.77434,-0.77972,0.10357,0.7897
567.47,61.8445,-0.77844,0.10573,0.78921
568.17,61.9147,-0.77844,0.10426,0.78873
568.87,61.98494,-0.77974,0.10548,0.78824
569.57,62.0551,-0.77977,0.10522,0.78775
570.27,62.1252,-0.77849,0.10659,0.78726
570.97,62.19529,-0.77605,0.10693,0.78677
571.67,62.2654,-0.77581,0.1011,0.78628
572.37,62.3355,-0.7769,0.10257,0.78579
573.07,62.40579,-0.77894,0.105,0.7853
573.77,62.476,-0.78105,0.10536,0.78481
574.47,62.5461,-0.78107,0.10726,0.78431
575.17,62.61616,-0.78107,0.1028,0.78382
575.87,62.68626,-0.77972,0.10498,0.78333
576.57,62.75646,-0.77911,0.10552,0.78283
577.27,62.82659,-0.78054,0.10797,0.78234
577.97,62.89671,-0.78332,0.11149,0.78185
578.67,62.96686,-0.7847,0.1134,0.78135
579.37,63.03703,-0.7847,0.11189,0.78086
580.07,63.1072,-0.78335,0.11225,0.78036
580.77,63.17719,-0.78043,0.11171,0.77986
581.47,63.24706,-0.77847,0.11242,0.77937
582.17,63.3168,-0.78088,0.11127,0.77887
582.87,63.3865,-0.78031,0.11265,0.77837
583.57,63.45624,-0.78033,0.11587,0.77787
584.27,63.5259,-0.78351,0.11574,0.77738
584.97,63.59575,-0.78426,0.1164,0.77688
585.67,63.66562,-0.78426,0.12024,0.77638
586.37,63.7355,-0.78456,0.12071,0.77588
587.07,63.80535,-0.78687,0.11977,0.77538
587.77,63.8752,-0.78513,0.12133,0.77488
588.47,63.9453,-0.78432,0.12135,0.77438
589.17,64.01516,-0.7851,0.12109,0.77387
589.87,64.085,-0.78487,0.12197,0.77337
590.57,64.155,-0.78382,0.12478,0.77287
591.27,64.22502,-0.78515,0.1261,0.77237
591.97,64.29495,-0.78648,0.12573,0.77186
592.67,64.36476,-0.78797,0.12415,0.77136
593.37,64.43478,-0.78754,0.12381,0.77086
594.07,64.505,-0.78532,0.12475,0.77035
594.77,64.57529,-0.78491,0.12662,0.76984
595.47,64.64536,-0.78491,0.12596,0.76934
596.17,64.7157,-0.78584,0.12817,0.76883
596.87,64.78568,-0.7875,0.12799,0.76833
597.57,64.8561,-0.78755,0.12863,0.76782
598.27,64.92626,-0.78886,0.13037,0.76731
598.97,64.99687,-0.78885,0.13068,0.7668
599.67,65.06699,-0.78927,0.13201,0.7663
600.37,65.13684,-0.79124,0.13063,0.76579
601.07,65.20645,-0.78947,0.12987,0.76528
601.77,65.27637,-0.78857,0.13062,0.76477
602.47,65.34702,-0.79126,0.12852,0.76426
603.17,65.4178,-0.79128,0.12853,0.76375
603.87,65.48828,-0.78996,0.13139,0.76323
604.57,65.55844,-0.78996,0.13139,0.76272
605.27,65.6285,-0.78996,0.12959,0.76221
605.97,65.69877,-0.78865,0.12978,0.7617
606.67,65.76901,-0.78864,0.13284,0.76119
607.37,65.83955,-0.78732,0.1316,0.76067
608.07,65.91,-0.78864,0.13707,0.76016
608.77,65.98047,-0.78996,0.13609,0.75964
609.47,66.05069,-0.79259,0.13664,0.75913
610.17,66.12092,-0.79127,0.13529,0.75861
610.87,66.19054,-0.79127,0.135,0.7581
611.57,66.26082,-0.78996,0.13758,0.75758
612.27,66.331,-0.78898,0.13707,0.75706
612.97,66.40179,-0.7895,0.14108,0.75655
613.67,66.47206,-0.7922,0.14336,0.75603
614.37,66.54241,-0.79346,0.14486,0.75551
615.07,66.61286,-0.79444,0.14464,0.75499
615.77,66.68334,-0.79336,0.14576,0.75447
616.47,66.75391,-0.79449,0.1459,0.75395
617.17,66.8245,-0.79235,0.15021,0.75343
617.87,66.8951,-0.79334,0.14669,0.75291
618.57,66.96575,-0.79369,0.14818,0.75239
619.27,67.0365,-0.79336,0.15093,0.75187
619.97,67.10719,-0.79327,0.14833,0.75135
620.67,67.17796,-0.79321,0.1525,0.75083
621.37,67.2487,-0.79193,0.15442,0.75031
622.07,67.31939,-0.79325,0.15352,0.74978
622.77,67.38971,-0.79479,0.15531,0.74926
623.47,67.45947,-0.79514,0.15806,0.74874
624.17,67.52965,-0.79706,0.15989,0.74821
624.87,67.6003,-0.79838,0.15874,0.74769
625.57,67.67149,-0.79599,0.1614,0.74716
626.27,67.74214,-0.79731,0.16439,0.74663
626.97,67.81267,-0.79868,0.16458,0.74611
627.67,67.8831,-0.79865,0.16639,0.74558
628.37,67.95359,-0.79994,0.17094,0.74505
629.07,68.02395,-0.79997,0.16904,0.74453
629.77,68.09425,-0.79842,0.17351,0.744
630.47,68.16464,-0.79994,0.17312,0.74347
631.17,68.2351,-0.80116,0.17426,0.74294
631.87,68.3055,-0.80398,0.17673,0.74241
632.57,68.3759,-0.80114,0.17781,0.74188
633.27,68.4461,-0.80245,0.18561,0.74135
633.97,68.5164,-0.80693,0.1835,0.74082
634.67,68.58681,-0.80696,0.18517,0.74029
635.37,68.65742,-0.80551,0.18497,0.73976
636.07,68.728,-0.80527,0.18791,0.73923
636.77,68.79854,-0.80673,0.18749,0.73869
637.47,68.86901,-0.80672,0.1888,0.73816
638.17,68.93942,-0.80674,0.18946,0.73763
638.87,69.00994,-0.80543,0.1918,0.73709
639.57,69.08065,-0.80541,0.19729,0.73656
640.27,69.15142,-0.80674,0.1959,0.73603
640.97,69.22228,-0.80674,0.20033,0.73549
641.67,69.29298,-0.80537,0.19858,0.73495
642.37,69.36368,-0.80784,0.20052,0.73442
643.07,69.43425,-0.80809,0.20585,0.73388
643.77,69.50488,-0.8093,0.20652,0.73334
644.47,69.5757,-0.81069,0.21088,0.73281
645.17,69.64647,-0.81176,0.20963,0.73227
645.87,69.71744,-0.81241,0.21133,0.73173
646.57,69.78805,-0.81165,0.21363,0.73119
647.27,69.85876,-0.81036,0.21094,0.73065
647.97,69.92931,-0.81132,0.21429,0.73011
648.67,70.0001,-0.8074,0.21902,0.72957
649.37,70.0706,-0.812,0.2212,0.72903
650.07,70.1411,-0.81774,0.22215,0.72849
650.77,70.2115,-0.81779,0.22593,0.72795
651.47,70.28188,-0.81836,0.22589,0.72741
652.17,70.35209,-0.81705,0.22592,0.72687
652.87,70.4225,-0.81641,0.2279,0.72632
653.57,70.49294,-0.8164,0.22791,0.72578
654.27,70.5634,-0.8164,0.23061,0.72524
654.97,70.63376,-0.81707,0.23102,0.72469
655.67,70.70415,-0.81877,0.23398,0.72415
656.37,70.77465,-0.82132,0.23278,0.7236
657.07,70.84515,-0.81996,0.23839,0.72306
657.77,70.9155,-0.82003,0.23756,0.72251
658.47,70.98595,-0.82402,0.24056,0.72197
659.17,71.05625,-0.82811,0.24408,0.72142
659.87,71.12675,-0.82814,0.24505,0.72087
660.57,71.1972,-0.82813,0.24549,0.72033
661.27,71.2676,-0.82813,0.24884,0.71978
661.97,71.33803,-0.82709,0.2484,0.71923
662.67,71.40854,-0.82773,0.2478,0.71868
663.37,71.4793,-0.83011,0.25084,0.71813
664.07,71.5501,-0.8301,0.24701,0.71758
664.77,71.6207,-0.83081,0.24975,0.71703
665.47,71.69112,-0.83273,0.25491,0.71648
666.17,71.76162,-0.83253,0.25468,0.71593
666.87,71.8321,-0.83413,0.25599,0.71538
667.57,71.90255,-0.83517,0.25926,0.71483
668.27,71.97301,-0.83491,0.26061,0.71427
668.97,72.04349,-0.83578,0.25832,0.71372
669.67,72.11398,-0.8379,0.25902,0.71317
670.37,72.18427,-0.83707,0.26244,0.71261
671.07,72.25477,-0.84015,0.26459,0.71206
671.77,72.32539,-0.84195,0.26339,0.71151
672.47,72.396,-0.84345,0.26484,0.71095
673.17,72.4666,-0.8462,0.26477,0.7104
673.87,72.5372,-0.84763,0.26392,0.70984
674.57,72.60765,-0.84734,0.26755,0.70928
675.27,72.678,-0.84602,0.26588,0.70873
675.97,72.74844,-0.84601,0.26382,0.70817
676.67,72.819,-0.84732,0.26338,0.70761
677.37,72.88972,-0.84732,0.26407,0.70706
678.07,72.9605,-0.84732,0.26151,0.7065
678.77,73.03116,-0.84875,0.26028,0.70594
679.47,73.10175,-0.84875,0.25831,0.70538
680.17,73.17219,-0.84743,0.25661,0.70482
680.87,73.24286,-0.85007,0.25606,0.70426
681.57,73.31368,-0.85265,0.25309,0.7037
682.27,73.38441,-0.85556,0.25023,0.70314
682.97,73.4551,-0.85686,0.24963,0.70258
683.67,73.52563,-0.85912,0.25027,0.70202
684.37,73.5965,-0.85863,0.24705,0.70145
685.07,73.66715,-0.85752,0.24705,0.70089
685.77,73.73812,-0.85621,0.24513,0.70033
686.47,73.80906,-0.85686,0.23997,0.69977
687.17,73.8802,-0.85982,0.23801,0.6992
687.87,73.95039,-0.86115,0.2358,0.69864
688.57,74.02118,-0.86109,0.23576,0.69807
689.27,74.09224,-0.86246,0.23383,0.69751
689.97,74.1638,-0.86114,0.2318,0.69694
690.67,74.23479,-0.86371,0.23006,0.69638
691.37,74.30542,-0.86506,0.23087,0.69581
692.07,74.37592,-0.86784,0.22948,0.69525
692.77,74.4466,-0.8698,0.22685,0.69468
693.47,74.51745,-0.87117,0.22422,0.69411
694.17,74.58821,-0.87111,0.21784,0.69354
694.87,74.65868,-0.86853,0.21345,0.69298
695.57,74.72896,-0.86745,0.21572,0.69241
696.27,74.7994,-0.87162,0.21275,0.69184
696.97,74.86985,-0.87387,0.20701,0.69127
697.67,74.94023,-0.87387,0.20915,0.6907
698.37,75.01089,-0.87226,0.20401,0.69013
699.07,75.08155,-0.87719,0.2032,0.68956
699.77,75.15254,-0.8779,0.19477,0.68899
700.47,75.22315,-0.87584,0.19244,0.68842
701.17,75.29388,-0.87636,0.19032,0.68784
701.87,75.36439,-0.87738,0.18646,0.68727
702.57,75.4345,-0.87861,0.18622,0.6867
703.27,75.50499,-0.88054,0.17751,0.68613
703.97,75.57552,-0.87838,0.17466,0.68555
704.67,75.64652,-0.878,0.17022,0.68498
705.37,75.7171,-0.8778,0.1622,0.6844
706.07,75.78781,-0.87791,0.16373,0.68383
706.77,75.85854,-0.88054,0.15728,0.68326
707.47,75.92935,-0.88198,0.15766,0.68268
708.17,76.00015,-0.88198,0.14909,0.6821
708.87,76.0711,-0.88198,0.14269,0.68153
709.57,76.14189,-0.8833,0.14326,0.68095
710.27,76.21259,-0.8833,0.13761,0.68037
710.97,76.2831,-0.88322,0.13334,0.6798
711.67,76.35383,-0.8833,0.13013,0.67922
712.37,76.42487,-0.88427,0.12787,0.67864
713.07,76.49585,-0.88429,0.12345,0.67806
713.77,76.56687,-0.88429,0.12413,0.67748
714.47,76.63792,-0.88317,0.12024,0.6769
715.17,76.7093,-0.88659,0.11826,0.67632
715.87,76.78055,-0.88659,0.11402,0.67574
716.57,76.85173,-0.8887,0.11565,0.67516
717.27,76.9228,-0.88792,0.1118,0.67458
717.97,76.99375,-0.88923,0.11123,0.674
718.67,77.0647,-0.88782,0.10987,0.67342
719.37,77.13571,-0.88657,0.10886,0.67284
720.07,77.20698,-0.88496,0.11064,0.67226
720.77,77.2781,-0.88759,0.11343,0.67167
721.47,77.3491,-0.8889,0.10911,0.67109
722.17,77.41988,-0.89022,0.10953,0.67051
722.87,77.49096,-0.89127,0.11186,0.66992
723.57,77.5621,-0.89145,0.1089,0.66934
724.27,77.63338,-0.89022,0.10663,0.66875
724.97,77.70434,-0.89153,0.10985,0.66817
725.67,77.77531,-0.89153,0.1061,0.66758
726.37,77.84613,-0.89153,0.10403,0.667
727.07,77.91708,-0.89022,0.10377,0.66641
727.77,77.98809,-0.89022,0.10597,0.66583
728.47,78.0592,-0.89022,0.10477,0.66524
729.17,78.12999,-0.8912,0.10194,0.66465
729.87,78.20075,-0.89284,0.10732,0.66406
730.57,78.2713,-0.8929,0.10428,0.66348
731.27,78.3421,-0.89407,0.10623,0.66289
731.97,78.41285,-0.89252,0.10415,0.6623
732.67,78.48394,-0.8911,0.1052,0.66171
733.37,78.5548,-0.8912,0.10568,0.66112
734.07,78.62573,-0.89149,0.10451,0.66053
734.77,78.6966,-0.89152,0.10735,0.65994
735.47,78.76734,-0.89152,0.10888,0.65935
736.17,78.83754,-0.89246,0.10469,0.65876
736.87,78.9081,-0.8946,0.10772,0.65817
737.57,78.97895,-0.8946,0.1114,0.65758
738.27,79.0504,-0.89329,0.10946,0.65699
738.97,79.1216,-0.89471,0.11412,0.65639
739.67,79.1926,-0.89595,0.11225,0.6558
740.37,79.2638,-0.89388,0.10987,0.65521
741.07,79.33481,-0.89337,0.11099,0.65461
741.77,79.40602,-0.89196,0.10781,0.65402
742.47,79.47726,-0.89328,0.11091,0.65343
743.17,79.5483,-0.8946,0.11399,0.65283
743.87,79.61926,-0.89592,0.10973,0.65224
744.57,79.69014,-0.89592,0.11133,0.65164
745.27,79.76123,-0.89461,0.11179,0.65105
745.97,79.83202,-0.89461,0.1174,0.65045
746.67,79.90236,-0.89592,0.11395,0.64986
747.37,79.97278,-0.89864,0.11439,0.64926
748.07,80.04356,-0.89995,0.11707,0.64866
748.77,80.1147,-0.89996,0.1216,0.64806
749.47,80.1857,-0.89865,0.12019,0.64747
750.17,80.25661,-0.90113,0.12185,0.64687
750.87,80.3276,-0.9,0.12175,0.64627
751.57,80.3986,-0.89668,0.12209,0.64567
752.27,80.46936,-0.89571,0.12156,0.64507
752.97,80.54019,-0.89404,0.12071,0.64448
753.67,80.61108,-0.89452,0.12126,0.64388
754.37,80.6822,-0.89669,0.1249,0.64328
755.07,80.75326,-0.89796,0.12603,0.64268
755.77,80.82432,-0.90227,0.12397,0.64208
756.47,80.89532,-0.90512,0.1288,0.64147
757.17,80.96634,-0.90243,0.1283,0.64087
757.87,81.03755,-0.90236,0.13065,0.64027
758.57,81.1088,-0.8956,0.12946,0.63967
759.27,81.1802,-0.89784,0.128,0.63907
759.97,81.25176,-0.90561,0.12961,0.63847
760.67,81.32336,-0.90217,0.12916,0.63786
761.37,81.3948,-0.90372,0.13354,0.63726
762.07,81.4662,-0.90371,0.1323,0.63666
762.77,81.53744,-0.90116,0.13315,0.63605
763.47,81.6088,-0.90528,0.12985,0.63545
764.17,81.68032,-0.90535,0.13338,0.63484
764.87,81.7516,-0.90403,0.13726,0.63424
765.57,81.82292,-0.90379,0.1396,0.63363
766.27,81.8941,-0.90131,0.13979,0.63303
766.97,81.9657,-0.9014,0.1392,0.63242
767.67,82.03713,-0.90469,0.14556,0.63182
768.37,82.10806,-0.90805,0.14243,0.63121
769.07,82.17882,-0.9082,0.14382,0.6306
769.77,82.24974,-0.90665,0.14155,0.63
770.47,82.32121,-0.90677,0.14702,0.62939
771.17,82.3926,-0.9037,0.14516,0.62878
771.87,82.464,-0.90391,0.14605,0.62817
772.57,82.5353,-0.90344,0.14572,0.62757
773.27,82.6071,-0.90532,0.14765,0.62696
773.97,82.67876,-0.90689,0.15152,0.62635
774.67,82.7504,-0.90689,0.15133,0.62574
775.37,82.82196,-0.90689,0.15003,0.62513
776.07,82.89331,-0.90558,0.14469,0.62452
776.77,82.9649,-0.90535,0.14608,0.62391
777.47,83.03633,-0.90834,0.15233,0.6233
778.17,83.108,-0.91275,0.15383,0.62269
778.87,83.17956,-0.9088,0.15154,0.62208
779.57,83.25104,-0.90663,0.1533,0.62147
780.27,83.32235,-0.90771,0.15877,0.62086
780.97,83.39362,-0.91303,0.15836,0.62024
781.67,83.465,-0.91437,0.16383,0.61963
782.37,83.53636,-0.91269,0.162,0.61902
783.07,83.60761,-0.91185,0.16274,0.61841
783.77,83.67874,-0.91127,0.16522,0.6178
784.47,83.7499,-0.90821,0.15744,0.61718
785.17,83.8211,-0.90695,0.16563,0.61657
785.87,83.8923,-0.91108,0.16671,0.61595
786.57,83.96332,-0.91237,0.17102,0.61534
787.27,84.03439,-0.91235,0.16951,0.61473
787.97,84.10555,-0.91272,0.17167,0.61411
788.67,84.1767,-0.91272,0.17098,0.6135
789.37,84.2475,-0.91653,0.1678,0.61288
790.07,84.31836,-0.91785,0.17364,0.61227
790.77,84.38926,-0.91813,0.17667,0.61165
791.47,84.4605,-0.91928,0.17802,0.61103
792.17,84.53147,-0.91791,0.17566,0.61042
792.87,84.60234,-0.91709,0.17827,0.6098
793.57,84.67342,-0.91797,0.17981,0.60918
794.27,84.74452,-0.91661,0.17833,0.60857
794.97,84.81569,-0.91797,0.17786,0.60795
795.67,84.88654,-0.91797,0.17964,0.60733
796.37,84.95747,-0.91797,0.17987,0.60672
797.07,85.02834,-0.91797,0.18601,0.6061
797.77,85.0993,-0.91928,0.18631,0.60548
798.47,85.17031,-0.92093,0.18472,0.60486
799.17,85.24144,-0.92092,0.18402,0.60424
799.87,85.3126,-0.91927,0.18497,0.60362
800.57,85.38359,-0.92213,0.18376,0.603
801.27,85.45444,-0.92631,0.18355,0.60238
801.97,85.52543,-0.92712,0.18258,0.60176
802.67,85.5967,-0.92481,0.18279,0.60114
803.37,85.66804,-0.92655,0.18204,0.60052
804.07,85.73943,-0.92786,0.18,0.5999
804.77,85.81062,-0.92584,0.17961,0.59928
805.47,85.88178,-0.92686,0.18066,0.59866
806.17,85.95283,-0.92664,0.17762,0.59804
806.87,86.02396,-0.92881,0.18296,0.59742
807.57,86.0954,-0.93005,0.18379,0.59679
808.27,86.16676,-0.93068,0.18435,0.59617
808.97,86.23804,-0.93233,0.18213,0.59555
809.67,86.30922,-0.92958,0.18128,0.59493
810.37,86.38033,-0.92961,0.18046,0.5943
811.07,86.45147,-0.92961,0.18133,0.59368
811.77,86.52242,-0.92959,0.18239,0.59306
812.47,86.59356,-0.92955,0.18323,0.59243
813.17,86.6647,-0.93335,0.1846,0.59181
813.87,86.73605,-0.93494,0.19108,0.59119
814.57,86.8073,-0.93629,0.19076,0.59056
815.27,86.87867,-0.93913,0.18873,0.58994
815.97,86.9499,-0.94045,0.18904,0.58931
816.67,87.021,-0.9417,0.19206,0.58869
817.37,87.0921,-0.93668,0.19431,0.58806
818.07,87.16314,-0.94534,0.19912,0.58744
818.77,87.2342,-0.94488,0.19674,0.58681
819.47,87.30509,-0.94308,0.19853,0.58618
820.17,87.3759,-0.93981,0.19641,0.58556
820.87,87.4469,-0.93805,0.19323,0.58493
821.57,87.51794,-0.93359,0.19585,0.5843
822.27,87.58899,-0.93233,0.19814,0.58368
822.97,87.6601,-0.93299,0.19466,0.58305
823.67,87.7316,-0.93375,0.19606,0.58242
824.37,87.80328,-0.93505,0.19834,0.5818
825.07,87.875,-0.93959,0.19946,0.58117
825.77,87.94641,-0.94365,0.20001,0.58054
826.47,88.01787,-0.94659,0.19559,0.57991
827.17,88.08928,-0.94486,0.19803,0.57928
827.87,88.1608,-0.94068,0.1943,0.57865
828.57,88.23226,-0.93761,0.19251,0.57803
829.27,88.3033,-0.93871,0.1971,0.5774
829.97,88.3742,-0.94494,0.19765,0.57677
830.67,88.4452,-0.94837,0.20054,0.57614
831.37,88.51634,-0.95098,0.20046,0.57551
832.07,88.58689,-0.95243,0.19653,0.57488
832.77,88.65786,-0.94944,0.19793,0.57425
833.47,88.72887,-0.94668,0.19905,0.57362
834.17,88.80038,-0.94635,0.20068,0.57299
834.87,88.87119,-0.9454,0.19983,0.57236
835.57,88.94196,-0.94809,0.20073,0.57173
836.27,89.0129,-0.95089,0.20295,0.5711
836.97,89.08416,-0.95333,0.20494,0.57047
837.67,89.15567,-0.95382,0.20623,0.56983
838.37,89.22703,-0.95455,0.20337,0.5692
839.07,89.29818,-0.95469,0.20573,0.56857
839.77,89.3693,-0.95602,0.20661,0.56794
840.47,89.44049,-0.95833,0.20516,0.56731
841.17,89.51167,-0.95833,0.20664,0.56667
841.87,89.58293,-0.95923,0.20378,0.56604
842.57,89.65419,-0.95964,0.20281,0.56541
843.27,89.72542,-0.95963,0.20839,0.56478
843.97,89.7966,-0.95856,0.19665,0.56414
844.67,89.86785,-0.96005,0.20076,0.56351
845.37,89.93915,-0.96107,0.19493,0.56288
845.87,89.99014,-0.96238,0.194,0.56242