File: 01_Data/Cotton_Batting_DelCo/MCC/Cotton_Batting_DelCo_MCC_30K_min_220223_R2.txt
Sample ID:	C:\MCC\MCC Cal\Test\Cotton_Batting_DelCo_MCC_30K_min_220223_R2.txt
Sample Weight (mg):	4.35
Heating Rate (C/s):	0.5
Combustor Temp (C):	900
N2 Flow Rate (cc/min):	80
O2 Flow Rate (cc/min):	20
Calibration File:	C:\MCC\MCC Cal\Coeff1 JN10440_30_210304.txt.txt
T Correction Coefficients:	0	1.024463	0
Time Shift (s):	14
*
Time (s)	Temperature (C)	N2 flow rate (cc/min)	O2 flow rate (cc/min)	Flow Rate (cc/min)	Oxygen (%)	HRR (W/g)	Heating rate (C/s)
0.000	115.246	80.006	19.995	103.692	20.039	-0.057	0.008
1.500	115.208	80.005	19.994	103.692	20.042	-0.230	-0.018
3.000	115.199	80.006	19.995	103.690	20.040	-0.142	-0.020
4.500	115.216	80.004	19.995	103.691	20.039	-0.055	-0.010
6.000	115.206	80.004	19.995	103.693	20.037	0.076	-0.001
7.500	115.205	80.002	19.995	103.698	20.039	-0.049	-0.010
9.000	115.222	80.003	19.994	103.719	20.035	0.292	0.008
10.500	115.180	80.003	19.996	103.728	20.033	0.382	-0.014
12.000	115.226	80.003	19.995	103.726	20.035	0.253	0.024
13.500	115.222	80.004	19.995	103.729	20.032	0.471	-0.003
15.000	115.242	80.004	19.995	103.753	20.030	0.621	0.017
16.500	115.276	80.005	19.995	103.772	20.029	0.726	0.017
18.000	115.250	80.003	19.994	103.789	20.023	1.180	-0.019
19.500	115.327	80.004	19.994	103.832	20.022	1.243	0.051
21.000	115.388	80.005	19.994	103.861	20.019	1.432	0.041
22.500	115.455	80.003	19.994	103.852	20.017	1.572	0.061
24.000	115.549	80.006	19.995	103.870	20.015	1.787	0.074
25.500	115.679	80.004	19.994	103.889	20.012	1.959	0.098
27.000	115.850	80.004	19.993	103.891	20.012	1.945	0.106
28.500	115.981	80.004	19.994	103.872	20.014	1.857	0.088
30.000	116.151	80.004	19.995	103.855	20.012	1.974	0.117
31.500	116.324	80.004	19.993	103.851	20.009	2.185	0.098
33.001	116.535	80.004	19.996	103.861	20.009	2.198	0.153
34.500	116.708	80.004	19.995	103.887	20.006	2.399	0.111
36.000	116.960	80.003	19.994	103.900	20.009	2.233	0.167
37.500	117.146	80.004	19.994	103.907	20.003	2.650	0.125
39.001	117.402	80.005	19.995	103.914	20.003	2.652	0.178
40.500	117.648	80.004	19.994	103.897	20.006	2.455	0.183
42.001	117.944	80.002	19.994	103.892	20.005	2.459	0.201
43.500	118.222	80.003	19.994	103.892	20.000	2.852	0.176
45.000	118.496	80.004	19.995	103.890	20.003	2.627	0.193
46.500	118.819	80.003	19.993	103.890	20.003	2.642	0.202
48.001	119.112	80.004	19.994	103.894	20.002	2.716	0.202
49.501	119.490	80.004	19.994	103.894	20.001	2.790	0.257
51.000	119.759	80.005	19.993	103.909	20.000	2.895	0.198
52.501	120.104	80.005	19.994	103.912	19.997	3.103	0.238
54.000	120.457	80.007	19.993	103.895	20.002	2.690	0.252
55.500	120.827	80.006	19.993	103.892	20.001	2.782	0.259
57.000	121.177	80.007	19.994	103.893	20.001	2.768	0.241
58.501	121.574	80.006	19.993	103.896	20.004	2.546	0.238
60.001	121.978	80.004	19.993	103.907	20.004	2.606	0.237
61.500	122.373	80.006	19.993	103.909	20.003	2.633	0.258
63.000	122.778	80.004	19.994	103.919	20.002	2.732	0.261
64.500	123.163	80.004	19.994	103.921	20.002	2.714	0.261
66.000	123.600	80.004	19.995	103.907	20.003	2.676	0.264
67.500	124.030	80.003	19.995	103.898	20.001	2.795	0.283
69.000	124.447	80.004	19.995	103.919	20.002	2.752	0.294
70.500	124.903	80.004	19.995	103.926	19.999	2.981	0.323
72.000	125.329	80.004	19.995	103.929	19.997	3.115	0.301
73.500	125.816	80.004	19.995	103.933	19.997	3.129	0.320
75.000	126.295	80.006	19.994	103.951	19.995	3.230	0.316
76.500	126.781	80.007	19.995	103.954	19.995	3.230	0.329
78.000	127.266	80.006	19.994	103.943	19.995	3.277	0.326
79.500	127.740	80.007	19.994	103.936	19.992	3.438	0.317
81.000	128.260	80.006	19.994	103.951	19.989	3.680	0.346
82.500	128.802	80.008	19.994	103.958	19.994	3.314	0.364
84.000	129.345	80.007	19.994	103.956	19.993	3.405	0.355
85.501	129.856	80.006	19.995	103.963	19.990	3.596	0.352
87.000	130.344	80.005	19.994	103.958	19.988	3.773	0.317
88.500	130.954	80.004	19.994	103.962	19.989	3.658	0.390
90.000	131.495	80.004	19.995	103.964	19.989	3.707	0.360
91.500	132.071	80.004	19.994	103.961	19.988	3.742	0.364
93.000	132.626	80.003	19.996	103.964	19.987	3.872	0.378
94.501	133.203	80.004	19.994	103.966	19.989	3.668	0.387
96.000	133.826	80.003	19.997	103.964	19.990	3.638	0.407
97.501	134.441	80.003	19.994	103.955	19.991	3.578	0.399
99.001	135.031	80.003	19.995	103.951	19.990	3.646	0.391
100.501	135.630	80.003	19.995	103.959	19.993	3.405	0.399
102.000	136.226	80.003	19.995	103.964	19.992	3.495	0.387
103.500	136.883	80.004	19.995	103.961	19.994	3.345	0.420
105.000	137.495	80.003	19.996	103.967	19.995	3.278	0.415
106.500	138.127	80.005	19.995	103.968	19.989	3.712	0.423
108.000	138.845	80.005	19.995	103.967	19.991	3.578	0.463
109.500	139.423	80.004	19.994	103.968	19.990	3.609	0.415
111.001	140.114	80.004	19.993	103.965	19.987	3.864	0.447
112.500	140.756	80.004	19.994	103.956	19.988	3.748	0.434
114.000	141.431	80.004	19.994	103.959	19.990	3.619	0.451
115.500	142.119	80.003	19.994	103.970	19.987	3.858	0.461
117.001	142.772	80.004	19.994	103.970	19.988	3.758	0.441
118.500	143.509	80.004	19.995	103.965	19.987	3.841	0.470
120.001	144.185	80.003	19.995	103.964	19.987	3.827	0.453
121.500	144.832	80.005	19.994	103.964	19.990	3.621	0.448
123.000	145.582	80.004	19.995	103.954	19.988	3.786	0.486
124.501	146.246	80.004	19.994	103.960	19.987	3.856	0.458
126.000	146.934	80.005	19.994	103.968	19.989	3.714	0.449
127.500	147.627	80.004	19.995	103.956	19.987	3.841	0.467
129.000	148.332	80.005	19.995	103.958	19.992	3.467	0.475
130.500	149.046	80.002	19.995	103.966	19.989	3.726	0.501
132.000	149.763	80.005	19.994	103.967	19.993	3.425	0.461
133.500	150.501	80.006	19.995	103.967	19.990	3.602	0.477
135.000	151.227	80.005	19.995	103.965	19.989	3.668	0.497
136.500	151.973	80.006	19.994	103.965	19.990	3.596	0.477
138.000	152.671	80.006	19.993	103.964	19.994	3.324	0.474
139.500	153.421	80.006	19.994	103.961	19.993	3.423	0.515
141.000	154.156	80.007	19.995	103.963	19.990	3.594	0.473
142.500	154.900	80.008	19.994	103.961	19.992	3.456	0.502
144.000	155.610	80.006	19.995	103.957	19.992	3.485	0.469
145.500	156.357	80.006	19.994	103.952	19.991	3.526	0.498
147.000	157.096	80.005	19.994	103.955	19.994	3.322	0.483
148.500	157.880	80.005	19.994	103.957	19.991	3.536	0.523
150.000	158.625	80.005	19.993	103.956	19.990	3.606	0.483
151.500	159.368	80.006	19.994	103.957	19.989	3.699	0.505
153.000	160.104	80.005	19.995	103.951	19.990	3.645	0.507
154.500	160.861	80.006	19.994	103.953	19.991	3.569	0.505
156.000	161.648	80.005	19.994	103.955	19.993	3.388	0.528
157.500	162.354	80.007	19.993	103.935	19.993	3.374	0.471
159.000	163.103	80.007	19.994	103.939	19.991	3.505	0.494
160.500	163.854	80.007	19.994	103.952	19.991	3.538	0.507
162.000	164.603	80.006	19.994	103.958	19.991	3.525	0.489
163.500	165.392	80.007	19.995	103.953	19.989	3.679	0.518
165.000	166.119	80.007	19.994	103.946	19.991	3.563	0.466
166.500	166.899	80.005	19.994	103.947	19.992	3.448	0.525
168.000	167.653	80.005	19.994	103.952	19.990	3.579	0.504
169.500	168.415	80.005	19.994	103.940	19.992	3.497	0.512
171.000	169.200	80.004	19.994	103.936	19.991	3.546	0.523
172.500	169.959	80.004	19.995	103.934	19.994	3.307	0.502
174.000	170.695	80.004	19.994	103.931	19.992	3.443	0.500
175.500	171.475	80.004	19.995	103.937	19.996	3.173	0.511
177.000	172.236	80.003	19.995	103.956	19.994	3.344	0.485
178.500	172.975	80.003	19.994	103.957	19.994	3.352	0.489
180.000	173.739	80.003	19.995	103.942	19.991	3.535	0.506
181.500	174.534	80.004	19.995	103.940	19.995	3.217	0.519
183.000	175.247	80.004	19.995	103.937	19.993	3.387	0.482
184.500	176.013	80.003	19.996	103.934	19.994	3.284	0.504
186.000	176.803	80.004	19.995	103.930	19.993	3.387	0.548
187.500	177.522	80.004	19.995	103.928	19.993	3.376	0.493
189.000	178.282	80.004	19.994	103.929	19.994	3.304	0.499
190.501	179.085	80.003	19.997	103.925	19.991	3.537	0.535
192.000	179.824	80.005	19.996	103.930	19.993	3.367	0.504
193.500	180.587	80.003	19.995	103.928	19.992	3.478	0.510
195.000	181.322	80.004	19.995	103.927	19.993	3.383	0.492
196.500	182.117	80.004	19.996	103.926	19.994	3.309	0.524
198.000	182.815	80.003	19.995	103.911	19.995	3.247	0.473
199.500	183.579	80.005	19.996	103.906	19.995	3.269	0.500
201.000	184.326	80.003	19.995	103.918	19.996	3.202	0.500
202.500	185.082	80.003	19.996	103.923	19.995	3.212	0.502
204.000	185.874	80.004	19.994	103.921	19.998	3.031	0.527
205.500	186.634	80.003	19.995	103.922	19.998	3.008	0.503
207.000	187.373	80.004	19.994	103.924	20.000	2.905	0.492
208.500	188.122	80.003	19.993	103.922	19.999	2.951	0.494
210.000	188.896	80.005	19.994	103.913	19.996	3.138	0.513
211.500	189.675	80.004	19.993	103.914	19.998	3.019	0.510
213.000	190.389	80.004	19.996	103.907	19.994	3.308	0.475
214.500	191.139	80.005	19.995	103.915	19.993	3.358	0.504
216.000	191.893	80.004	19.993	103.917	19.993	3.381	0.521
217.500	192.645	80.005	19.994	103.905	19.995	3.249	0.495
219.000	193.425	80.005	19.994	103.905	19.997	3.078	0.498
220.500	194.128	80.006	19.994	103.912	19.995	3.270	0.489
222.000	194.846	80.006	19.994	103.919	19.995	3.251	0.474
223.500	195.620	80.006	19.995	103.903	19.995	3.260	0.508
225.000	196.346	80.004	19.995	103.907	19.993	3.370	0.457
226.500	197.101	80.004	19.995	103.919	19.993	3.415	0.492
228.000	197.800	80.005	19.994	103.908	19.993	3.399	0.486
229.500	198.559	80.005	19.995	103.914	19.996	3.199	0.518
231.000	199.330	80.004	19.995	103.914	19.998	3.043	0.495
232.500	200.041	80.004	19.994	103.916	19.995	3.269	0.480
234.000	200.809	80.004	19.994	103.926	19.997	3.057	0.513
235.500	201.484	80.005	19.994	103.921	19.997	3.062	0.491
237.000	202.213	80.005	19.994	103.910	19.996	3.160	0.489
238.500	203.007	80.007	19.994	103.900	19.998	3.047	0.503
240.000	203.696	80.006	19.994	103.896	19.998	2.998	0.473
241.500	204.417	80.007	19.994	103.902	20.000	2.860	0.483
243.000	205.179	80.007	19.994	103.902	19.998	2.985	0.511
244.500	205.937	80.005	19.994	103.903	20.001	2.813	0.503
246.000	206.648	80.006	19.992	103.916	19.999	2.940	0.468
247.500	207.444	80.007	19.994	103.912	19.999	2.934	0.531
249.000	208.169	80.005	19.995	103.896	19.999	2.926	0.511
250.500	208.889	80.006	19.994	103.893	20.001	2.780	0.486
252.000	209.630	80.004	19.993	103.897	19.995	3.230	0.499
253.500	210.436	80.004	19.995	103.895	19.999	2.926	0.509
255.000	211.197	80.004	19.995	103.903	20.003	2.681	0.492
256.500	211.887	80.003	19.993	103.901	20.001	2.804	0.470
258.000	212.623	80.020	19.999	103.908	20.001	2.765	0.482
259.500	213.373	80.005	19.996	103.911	20.000	2.874	0.508
261.000	214.084	80.004	19.995	103.902	20.001	2.765	0.455
262.500	214.834	80.005	19.995	103.895	20.002	2.732	0.495
264.001	215.599	80.004	19.995	103.894	20.000	2.860	0.481
265.500	216.309	80.004	19.994	103.892	20.000	2.872	0.480
267.000	217.022	80.003	19.995	103.891	20.001	2.771	0.492
268.500	217.746	80.004	19.995	103.891	20.005	2.529	0.481
270.000	218.493	80.005	19.993	103.890	20.004	2.570	0.513
271.500	219.257	80.006	19.995	103.891	19.999	2.917	0.515
273.000	220.012	80.005	19.996	103.887	19.999	2.907	0.499
274.500	220.733	80.005	19.994	103.891	19.998	3.020	0.479
276.000	221.467	80.005	19.996	103.896	19.998	3.022	0.497
277.500	222.231	80.005	19.994	103.893	19.999	2.907	0.521
279.000	222.997	80.004	19.995	103.893	20.001	2.827	0.504
280.500	223.718	80.005	19.995	103.890	20.002	2.712	0.467
282.000	224.402	80.003	19.995	103.893	19.999	2.938	0.457
283.500	225.151	80.002	19.995	103.895	20.000	2.899	0.488
285.000	225.895	80.002	19.995	103.893	19.997	3.061	0.507
286.500	226.619	80.003	19.996	103.890	19.997	3.059	0.462
288.000	227.348	80.002	19.995	103.890	20.000	2.874	0.502
289.500	228.036	80.003	19.996	103.890	19.997	3.090	0.467
291.000	228.833	80.002	19.994	103.891	19.996	3.139	0.527
292.500	229.590	80.003	19.997	103.889	19.999	2.977	0.500
294.000	230.327	80.003	19.996	103.891	20.001	2.759	0.481
295.500	231.031	80.003	19.995	103.892	19.997	3.102	0.467
297.000	231.741	80.004	19.995	103.888	20.001	2.771	0.462
298.500	232.492	80.005	19.994	103.887	19.998	3.006	0.494
300.000	233.225	80.005	19.995	103.890	20.000	2.889	0.501
301.500	233.955	80.006	19.994	103.891	20.001	2.796	0.492
303.000	234.748	80.005	19.994	103.892	20.002	2.753	0.501
304.500	235.460	80.005	19.994	103.892	20.003	2.646	0.471
306.000	236.183	80.003	19.994	103.889	20.002	2.710	0.489
307.501	236.929	80.005	19.994	103.886	19.998	3.013	0.482
309.000	237.666	80.004	19.993	103.893	19.998	3.036	0.478
310.501	238.447	80.004	19.995	103.894	19.999	2.923	0.501
312.000	239.182	80.005	19.994	103.890	19.998	2.997	0.491
313.500	239.872	80.005	19.994	103.886	19.998	3.035	0.470
315.000	240.589	80.005	19.995	103.888	20.000	2.837	0.468
316.500	241.335	80.005	19.994	103.896	19.998	2.981	0.515
318.001	242.050	80.006	19.995	103.889	20.000	2.882	0.475
319.500	242.797	80.007	19.994	103.817	19.998	2.999	0.485
321.000	243.564	80.006	19.993	103.812	20.001	2.812	0.518
322.500	244.252	80.006	19.995	103.952	20.004	2.599	0.466
324.000	244.986	80.006	19.995	103.917	20.003	2.654	0.482
325.500	245.722	80.006	19.994	103.883	20.002	2.689	0.473
327.000	246.492	80.005	19.995	103.875	20.002	2.699	0.518
328.500	247.227	80.007	19.994	103.883	20.002	2.740	0.493
330.000	247.911	80.006	19.994	103.887	20.004	2.607	0.453
331.500	248.685	80.005	19.994	103.885	20.005	2.475	0.523
333.000	249.436	80.004	19.995	103.891	20.000	2.854	0.514
334.500	250.222	80.004	19.995	103.895	20.000	2.880	0.505
336.000	250.965	80.004	19.994	103.886	19.999	2.979	0.501
337.500	251.713	80.006	19.995	103.890	20.001	2.806	0.497
339.000	252.462	80.005	19.994	103.889	20.003	2.641	0.508
340.500	253.164	80.005	19.993	103.887	20.002	2.734	0.462
342.000	253.891	80.005	19.994	103.888	20.000	2.899	0.483
343.500	254.638	80.005	19.994	103.890	20.004	2.574	0.512
345.000	255.389	80.005	19.995	103.889	20.000	2.843	0.501
346.500	256.084	80.004	19.995	103.883	20.000	2.905	0.464
348.000	256.848	80.004	19.994	103.874	20.003	2.629	0.505
349.500	257.566	80.004	19.994	103.865	20.002	2.749	0.472
351.000	258.323	80.003	19.995	103.867	20.002	2.728	0.493
352.500	259.106	80.005	19.995	103.885	20.000	2.849	0.508
354.000	259.842	80.004	19.995	103.888	20.002	2.729	0.504
355.500	260.556	80.003	19.994	103.883	20.000	2.876	0.484
357.000	261.311	80.004	19.994	103.874	20.002	2.703	0.500
358.500	262.023	80.005	19.995	103.870	19.999	2.921	0.465
360.000	262.774	80.002	19.996	103.885	20.003	2.650	0.507
361.500	263.546	80.004	19.994	103.892	20.000	2.876	0.494
363.000	264.291	80.003	19.994	103.878	20.000	2.847	0.522
364.500	264.980	80.003	19.995	103.858	20.002	2.691	0.461
366.000	265.742	80.003	19.995	103.870	20.000	2.859	0.507
367.500	266.532	80.003	19.994	103.879	19.999	2.977	0.514
369.000	267.250	80.004	19.994	103.875	19.997	3.073	0.490
370.500	268.026	80.004	19.994	103.880	19.998	3.030	0.505
372.000	268.775	80.003	19.996	103.879	19.997	3.102	0.490
373.500	269.487	80.002	19.993	103.879	19.999	2.909	0.492
375.000	270.270	80.005	19.996	103.886	20.001	2.831	0.535
376.500	271.015	80.004	19.995	103.881	19.997	3.054	0.501
378.000	271.820	80.004	19.996	103.882	19.997	3.112	0.531
379.500	272.560	80.004	19.995	103.882	19.998	3.013	0.499
381.000	273.324	80.004	19.995	103.877	19.998	2.981	0.490
382.500	274.039	80.005	19.997	103.884	20.000	2.895	0.470
384.000	274.834	80.005	19.996	103.888	19.999	2.962	0.525
385.500	275.548	80.004	19.996	103.881	19.995	3.275	0.479
387.000	276.337	80.005	19.994	103.857	19.998	3.024	0.537
388.500	277.121	80.004	19.997	103.867	19.993	3.416	0.541
390.000	277.822	80.005	19.994	103.872	19.996	3.192	0.465
391.500	278.608	80.005	19.994	103.879	19.995	3.268	0.517
393.000	279.342	80.006	19.995	103.887	19.994	3.328	0.496
394.500	280.101	80.005	19.996	103.882	19.993	3.354	0.514
396.000	280.817	80.005	19.995	103.883	19.997	3.120	0.471
397.500	281.621	80.005	19.992	103.879	19.993	3.404	0.544
399.000	282.380	80.006	19.995	103.879	19.994	3.330	0.535
400.500	283.146	80.007	19.996	103.867	19.990	3.638	0.499
402.000	283.887	80.007	19.994	103.869	19.992	3.435	0.501
403.500	284.644	80.007	19.995	103.869	19.990	3.642	0.505
405.000	285.387	80.008	19.993	103.859	19.989	3.712	0.493
406.500	286.122	80.008	19.992	103.869	19.988	3.768	0.480
408.000	286.913	80.007	19.994	103.879	19.987	3.822	0.522
409.500	287.640	80.007	19.995	103.869	19.987	3.860	0.475
411.000	288.421	80.006	19.992	103.876	19.987	3.846	0.496
412.500	289.198	80.005	19.994	103.874	19.988	3.760	0.518
414.000	289.902	80.005	19.993	103.871	19.985	3.951	0.451
415.500	290.656	80.005	19.994	103.868	19.987	3.846	0.514
417.000	291.438	80.004	19.994	103.865	19.981	4.280	0.541
418.500	292.176	80.004	19.994	103.879	19.983	4.142	0.506
420.000	292.966	80.006	19.994	103.883	19.981	4.282	0.529
421.500	293.732	80.004	19.995	103.874	19.983	4.134	0.510
423.000	294.484	80.004	19.995	103.886	19.979	4.432	0.500
424.500	295.231	80.004	19.994	103.890	19.975	4.697	0.494
426.000	296.015	80.004	19.992	103.887	19.975	4.722	0.527
427.501	296.716	80.004	19.994	103.879	19.975	4.767	0.481
429.000	297.457	80.004	19.993	103.880	19.977	4.564	0.510
430.500	298.190	80.004	19.994	103.879	19.972	4.946	0.500
432.000	298.962	80.004	19.994	103.888	19.973	4.851	0.537
433.500	299.724	80.005	19.993	103.885	19.975	4.714	0.511
435.000	300.456	80.005	19.995	103.880	19.969	5.144	0.528
436.500	301.251	80.005	19.993	103.883	19.965	5.454	0.530
438.000	301.941	80.004	19.992	103.882	19.966	5.418	0.462
439.500	302.746	80.005	19.995	103.882	19.965	5.472	0.523
441.000	303.468	80.005	19.994	103.882	19.968	5.287	0.469
442.500	304.247	80.002	19.993	103.880	19.966	5.435	0.491
444.000	305.010	80.003	19.997	103.882	19.962	5.695	0.507
445.500	305.774	80.004	19.996	103.885	19.962	5.671	0.512
447.000	306.509	80.003	19.995	103.888	19.964	5.530	0.498
448.500	307.235	80.003	19.996	103.880	19.959	5.927	0.493
450.000	308.046	80.004	19.992	103.870	19.957	6.044	0.534
451.500	308.766	80.002	19.996	103.881	19.956	6.163	0.476
453.000	309.527	80.004	19.996	103.875	19.954	6.274	0.507
454.500	310.358	80.004	19.996	103.882	19.949	6.663	0.576
456.000	311.122	80.003	19.994	103.881	19.949	6.657	0.517
457.500	311.882	80.004	19.994	103.872	19.948	6.733	0.526
459.000	312.654	80.005	19.994	103.884	19.947	6.831	0.522
460.500	313.458	80.005	19.994	103.882	19.943	7.140	0.536
462.000	314.214	80.005	19.994	103.884	19.942	7.167	0.490
463.500	314.998	80.006	19.995	103.882	19.942	7.191	0.510
465.000	315.727	80.005	19.995	103.880	19.941	7.247	0.490
466.500	316.536	80.006	19.996	103.887	19.937	7.559	0.536
468.000	317.248	80.006	19.994	103.883	19.939	7.409	0.511
469.500	318.042	80.005	19.993	103.885	19.931	8.025	0.536
471.001	318.808	80.004	19.995	103.886	19.935	7.712	0.497
472.500	319.564	80.004	19.993	103.888	19.930	8.078	0.482
474.000	320.351	80.004	19.994	103.890	19.933	7.874	0.530
475.500	321.122	80.004	19.997	103.888	19.925	8.455	0.508
477.000	321.889	80.004	19.995	103.888	19.925	8.460	0.541
478.500	322.635	80.004	19.995	103.888	19.921	8.769	0.503
480.000	323.454	80.004	19.996	103.897	19.919	8.874	0.523
481.500	324.187	80.005	19.995	103.898	19.912	9.451	0.487
483.000	324.918	80.004	19.995	103.889	19.912	9.424	0.476
484.501	325.697	80.005	19.994	103.891	19.902	10.175	0.506
486.000	326.409	80.005	19.994	103.902	19.899	10.365	0.489
487.500	327.270	80.005	19.996	103.900	19.889	11.121	0.561
489.000	328.032	80.006	19.996	103.898	19.883	11.562	0.496
490.501	328.659	80.006	19.992	103.896	19.879	11.908	0.486
492.000	329.433	80.006	19.992	103.892	19.869	12.635	0.496
493.501	330.260	80.005	19.993	103.893	19.862	13.149	0.519
495.000	330.917	80.005	19.994	103.893	19.867	12.812	0.410
496.500	331.707	80.005	19.994	103.889	19.864	12.998	0.560
498.000	332.689	80.005	19.994	103.867	19.866	12.833	0.808
499.500	333.278	80.004	19.992	103.850	19.868	12.732	0.355
501.000	334.145	80.003	19.994	103.865	19.871	12.497	0.551
502.500	334.864	80.003	19.993	103.915	19.869	12.633	0.444
504.000	335.564	80.003	19.995	103.952	19.866	12.867	0.475
505.500	336.336	80.004	19.994	103.939	19.858	13.422	0.559
507.000	337.069	80.004	19.995	103.932	19.850	14.049	0.481
508.500	337.860	80.005	19.992	103.922	19.840	14.814	0.498
510.000	338.646	80.004	19.994	103.920	19.832	15.375	0.519
511.500	339.359	80.004	19.994	103.911	19.823	16.097	0.526
513.000	340.121	80.004	19.997	103.896	19.811	16.977	0.481
514.500	340.894	80.004	19.997	103.908	19.802	17.629	0.514
516.000	341.655	80.005	19.992	103.912	19.796	18.088	0.534
517.500	342.398	80.004	19.994	103.905	19.785	18.905	0.488
519.000	343.158	80.004	19.995	103.909	19.774	19.710	0.512
520.500	343.889	80.004	19.996	103.933	19.761	20.730	0.499
522.000	344.724	80.006	19.994	103.938	19.749	21.558	0.564
523.500	345.462	80.005	19.994	103.925	19.755	21.103	0.498
525.000	346.272	80.004	19.995	103.880	19.758	20.916	0.525
526.500	347.025	80.004	19.994	103.856	19.752	21.321	0.528
528.000	347.772	80.004	19.995	103.878	19.737	22.485	0.490
529.500	348.513	80.005	19.993	103.944	19.720	23.713	0.489
531.000	349.263	80.003	19.995	103.999	19.698	25.417	0.499
532.500	350.065	80.003	19.996	103.998	19.680	26.731	0.518
534.000	350.817	80.005	19.994	103.965	19.682	26.583	0.500
535.500	351.592	80.003	19.994	103.890	19.683	26.512	0.496
537.000	352.294	80.004	19.995	103.837	19.677	26.932	0.482
538.500	353.125	80.004	19.994	103.853	19.664	27.897	0.559
540.000	353.928	80.007	19.994	103.935	19.646	29.291	0.537
541.500	354.699	80.004	19.995	103.999	19.619	31.259	0.498
543.000	355.441	80.005	19.997	104.048	19.589	33.531	0.479
544.500	356.192	80.006	19.994	104.027	19.579	34.280	0.506
546.001	356.991	80.006	19.994	103.942	19.581	34.133	0.534
547.500	357.763	80.005	19.995	103.847	19.572	34.826	0.516
549.000	358.514	80.006	19.995	103.850	19.557	35.867	0.517
550.500	359.316	80.005	19.996	103.928	19.539	37.228	0.556
552.000	360.068	80.005	19.994	104.002	19.522	38.444	0.523
553.500	360.833	80.006	19.994	104.012	19.504	39.831	0.530
555.000	361.661	80.006	19.995	104.009	19.477	41.867	0.537
556.500	362.391	80.005	19.994	103.996	19.452	43.766	0.496
558.000	363.167	80.005	19.996	103.997	19.443	44.499	0.521
559.500	363.917	80.005	19.995	103.980	19.458	43.367	0.473
561.000	364.728	80.005	19.996	103.908	19.475	42.050	0.541
562.500	365.456	80.006	19.992	103.854	19.487	41.155	0.494
564.000	366.199	80.006	19.994	103.898	19.487	41.130	0.491
565.500	366.930	80.006	19.994	103.978	19.473	42.137	0.480
567.000	367.707	80.006	19.996	104.068	19.446	44.147	0.536
568.500	368.454	80.006	19.995	104.135	19.410	46.823	0.500
570.000	369.215	80.006	19.995	104.124	19.374	49.559	0.512
571.500	369.953	80.006	19.993	104.055	19.327	53.076	0.503
573.000	370.727	80.005	19.996	104.011	19.291	55.815	0.508
574.500	371.486	80.005	19.997	104.020	19.282	56.484	0.500
576.000	372.277	80.004	19.997	103.970	19.273	57.117	0.544
577.500	373.058	80.005	19.996	103.918	19.273	57.147	0.504
579.000	373.817	80.005	19.996	103.936	19.267	57.555	0.483
580.500	374.586	80.004	19.995	103.971	19.265	57.743	0.500
582.000	375.331	80.004	19.996	104.018	19.261	58.031	0.517
583.500	376.128	80.004	19.994	104.058	19.251	58.782	0.523
585.000	376.853	80.004	19.996	104.072	19.243	59.366	0.491
586.500	377.618	80.004	19.994	104.056	19.239	59.692	0.514
588.000	378.381	80.005	19.994	104.028	19.233	60.122	0.521
589.500	379.095	80.004	19.994	104.035	19.214	61.534	0.475
591.000	379.896	80.004	19.995	104.060	19.197	62.859	0.497
592.500	380.624	80.004	19.996	104.082	19.176	64.402	0.486
594.000	381.369	80.005	19.995	104.077	19.160	65.625	0.503
595.500	382.140	80.005	19.995	104.067	19.138	67.267	0.499
597.000	382.826	80.006	19.992	104.083	19.111	69.299	0.472
598.500	383.571	80.003	19.995	104.096	19.081	71.478	0.465
600.000	384.339	80.004	19.994	104.102	19.053	73.621	0.504
601.500	385.075	80.003	19.994	104.123	19.022	75.953	0.513
603.000	385.831	80.005	19.994	104.126	18.988	78.553	0.485
604.500	386.578	80.003	19.994	104.123	18.960	80.625	0.488
606.000	387.291	80.004	19.994	104.128	18.937	82.333	0.498
607.500	388.012	80.004	19.995	104.129	18.915	83.877	0.475
609.000	388.753	80.004	19.994	104.114	18.884	86.206	0.501
610.500	389.523	80.004	19.995	104.127	18.840	89.588	0.508
612.000	390.211	80.004	19.995	104.192	18.790	93.392	0.477
613.500	390.959	80.004	19.994	104.247	18.748	96.471	0.505
615.000	391.748	80.004	19.995	104.231	18.721	98.523	0.528
616.500	392.444	80.004	19.995	104.194	18.700	100.075	0.490
618.000	393.210	80.006	19.991	104.147	18.678	101.695	0.501
619.500	393.997	80.005	19.994	104.121	18.649	103.920	0.519
621.000	394.743	80.007	19.994	104.175	18.613	106.621	0.506
622.500	395.512	80.006	19.993	104.259	18.591	108.226	0.525
624.000	396.252	80.006	19.993	104.265	18.564	110.268	0.489
625.500	396.981	80.006	19.995	104.244	18.542	111.891	0.494
627.000	397.729	80.007	19.993	104.242	18.513	114.078	0.505
628.500	398.461	80.005	19.995	104.235	18.484	116.271	0.496
630.000	399.260	80.006	19.995	104.239	18.458	118.204	0.543
631.500	400.048	80.005	19.994	104.266	18.433	120.113	0.512
633.000	400.798	80.005	19.995	104.261	18.416	121.351	0.515
634.500	401.535	80.005	19.994	104.245	18.399	122.643	0.488
636.000	402.330	80.006	19.993	104.251	18.380	124.117	0.532
637.500	403.102	80.004	19.995	104.264	18.359	125.667	0.515
639.000	403.858	80.006	19.994	104.287	18.336	127.302	0.522
640.500	404.624	80.005	19.995	104.291	18.314	129.010	0.520
642.000	405.383	80.006	19.993	104.290	18.289	130.893	0.511
643.500	406.160	80.006	19.996	104.305	18.266	132.628	0.524
645.000	406.956	80.005	19.995	104.311	18.241	134.459	0.515
646.500	407.728	80.005	19.994	104.315	18.219	136.108	0.516
648.000	408.501	80.008	19.993	104.307	18.198	137.683	0.524
649.500	409.263	80.006	19.995	104.293	18.186	138.608	0.517
651.000	410.008	80.006	19.993	104.281	18.170	139.786	0.525
652.500	410.823	80.007	19.994	104.307	18.156	140.773	0.536
654.000	411.599	80.007	19.995	104.327	18.148	141.401	0.491
655.500	412.347	80.007	19.994	104.322	18.145	141.598	0.530
657.000	413.108	80.006	19.996	104.312	18.142	141.765	0.520
658.500	413.835	80.004	19.994	104.299	18.143	141.722	0.481
660.000	414.611	80.004	19.996	104.292	18.147	141.430	0.529
661.500	415.364	80.006	19.995	104.293	18.157	140.652	0.501
663.000	416.137	80.004	19.995	104.281	18.170	139.674	0.504
664.500	416.875	80.005	19.995	104.278	18.184	138.531	0.494
666.000	417.647	80.004	19.996	104.271	18.206	136.910	0.500
667.500	418.464	80.004	19.996	104.252	18.232	134.986	0.534
669.000	419.208	80.003	19.993	104.242	18.261	132.811	0.507
670.500	419.969	80.004	19.996	104.237	18.295	130.199	0.497
672.000	420.749	80.003	19.994	104.233	18.332	127.451	0.514
673.500	421.533	80.004	19.996	104.214	18.373	124.382	0.496
675.000	422.260	80.004	19.996	104.175	18.412	121.397	0.496
676.500	423.034	80.006	19.994	104.166	18.461	117.753	0.538
678.000	423.798	80.003	19.995	104.181	18.513	113.850	0.493
679.500	424.537	80.004	19.995	104.174	18.561	110.287	0.475
681.000	425.341	80.004	19.994	104.135	18.614	106.272	0.565
682.500	426.098	80.005	19.993	104.117	18.666	102.375	0.495
684.000	426.855	80.006	19.994	104.100	18.721	98.309	0.507
685.500	427.620	80.005	19.995	104.089	18.775	94.247	0.510
687.000	428.411	80.004	19.993	104.072	18.830	90.150	0.522
688.500	429.153	80.005	19.995	104.053	18.887	85.832	0.503
690.001	429.928	80.004	19.994	104.049	18.944	81.606	0.513
691.500	430.701	80.004	19.993	104.033	19.000	77.444	0.518
693.000	431.446	80.006	19.993	104.014	19.055	73.290	0.483
694.500	432.206	80.004	19.995	104.013	19.105	69.598	0.493
696.000	433.005	80.005	19.994	103.994	19.156	65.798	0.537
697.500	433.739	80.003	19.994	103.975	19.202	62.363	0.495
699.000	434.470	80.004	19.994	103.973	19.252	58.601	0.478
700.500	435.253	80.004	19.994	103.956	19.296	55.312	0.524
702.000	436.033	80.005	19.994	103.945	19.336	52.364	0.499
703.500	436.802	80.005	19.996	103.939	19.374	49.515	0.515
705.000	437.507	80.006	19.995	103.928	19.407	47.026	0.480
706.500	438.263	80.007	19.994	103.925	19.445	44.251	0.500
708.001	439.049	80.006	19.995	103.911	19.473	42.157	0.522
709.500	439.786	80.007	19.993	103.892	19.496	40.375	0.496
711.000	440.541	80.006	19.994	103.891	19.525	38.275	0.501
712.500	441.297	80.007	19.994	103.886	19.547	36.621	0.512
714.000	442.082	80.007	19.994	103.882	19.570	34.907	0.515
715.500	442.819	80.005	19.995	103.885	19.588	33.560	0.485
717.000	443.582	80.006	19.995	103.875	19.606	32.250	0.512
718.500	444.310	80.007	19.995	103.863	19.624	30.890	0.493
720.000	445.081	80.005	19.993	103.853	19.637	29.930	0.519
721.500	445.874	80.005	19.993	103.852	19.648	29.073	0.496
723.000	446.615	80.005	19.992	103.857	19.664	27.927	0.490
724.500	447.353	80.007	19.995	103.857	19.673	27.238	0.483
726.000	448.113	80.006	19.992	103.850	19.683	26.461	0.521
727.500	448.829	80.006	19.994	103.850	19.694	25.631	0.480
729.000	449.588	80.007	19.995	103.848	19.697	25.440	0.496
730.500	450.347	80.006	19.994	103.848	19.704	24.894	0.509
732.000	451.094	80.006	19.992	103.848	19.708	24.594	0.490
733.500	451.846	80.007	19.994	103.846	19.714	24.177	0.493
735.000	452.612	80.008	19.994	103.837	19.719	23.776	0.499
736.500	453.346	80.007	19.995	103.830	19.721	23.627	0.496
738.000	454.096	80.006	19.993	103.828	19.720	23.698	0.504
739.500	454.872	80.004	19.995	103.828	19.723	23.488	0.516
741.000	455.659	80.003	19.995	103.844	19.723	23.503	0.491
742.500	456.347	80.004	19.995	103.847	19.724	23.409	0.467
744.000	457.125	80.003	19.993	103.840	19.731	22.867	0.514
745.500	457.852	80.004	19.993	103.840	19.728	23.156	0.493
747.001	458.629	80.004	19.995	103.849	19.728	23.097	0.486
748.500	459.357	80.003	19.993	103.845	19.730	22.982	0.482
750.000	460.123	80.003	19.994	103.836	19.727	23.199	0.523
751.500	460.834	80.004	19.994	103.823	19.725	23.332	0.511
753.000	461.556	80.004	19.994	103.839	19.727	23.224	0.473
754.500	462.357	80.005	19.996	103.846	19.728	23.104	0.530
756.000	463.087	80.003	19.995	103.834	19.731	22.916	0.488
757.500	463.875	80.004	19.996	103.823	19.731	22.863	0.497
759.000	464.613	80.005	19.994	103.821	19.730	23.002	0.486
760.500	465.347	80.002	19.995	103.820	19.729	23.053	0.506
762.001	466.075	80.004	19.995	103.821	19.728	23.115	0.478
763.500	466.849	80.003	19.995	103.836	19.727	23.163	0.518
765.000	467.628	80.005	19.995	103.835	19.729	23.071	0.507
766.500	468.389	80.004	19.994	103.828	19.728	23.121	0.523
768.001	469.171	80.004	19.994	103.831	19.726	23.246	0.519
769.500	469.969	80.005	19.996	103.831	19.723	23.488	0.518
771.000	470.744	80.003	19.995	103.824	19.723	23.479	0.540
772.500	471.540	80.004	19.996	103.823	19.723	23.484	0.532
774.000	472.298	80.004	19.996	103.813	19.720	23.726	0.500
775.500	473.064	80.003	19.996	103.816	19.723	23.494	0.537
777.000	473.872	80.003	19.994	103.820	19.724	23.398	0.528
778.500	474.639	80.002	19.995	103.820	19.723	23.519	0.548
780.000	475.436	80.004	19.995	103.826	19.721	23.662	0.499
781.500	476.230	80.006	19.994	103.823	19.724	23.428	0.517
783.000	476.996	80.005	19.994	103.820	19.722	23.543	0.523
784.500	477.755	80.006	19.994	103.814	19.725	23.322	0.518
786.000	478.497	80.005	19.994	103.814	19.725	23.347	0.501
787.500	479.297	80.006	19.995	103.814	19.725	23.361	0.510
789.000	480.140	80.006	19.994	103.818	19.726	23.234	0.552
790.500	480.862	80.006	19.994	103.811	19.729	23.027	0.505
792.000	481.651	80.007	19.995	103.811	19.729	23.047	0.524
793.500	482.437	80.006	19.994	103.820	19.727	23.187	0.532
795.000	483.211	80.008	19.995	103.820	19.733	22.774	0.514
796.500	483.960	80.006	19.994	103.811	19.734	22.651	0.499
798.000	484.729	80.005	19.995	103.810	19.734	22.705	0.497
799.500	485.524	80.005	19.994	103.809	19.735	22.573	0.538
801.000	486.297	80.006	19.993	103.811	19.745	21.885	0.548
802.500	487.047	80.007	19.994	103.811	19.739	22.270	0.483
804.000	487.817	80.006	19.994	103.810	19.744	21.931	0.543
805.500	488.582	80.005	19.994	103.811	19.748	21.635	0.512
807.000	489.347	80.008	19.994	103.807	19.750	21.475	0.507
808.500	490.100	80.007	19.994	103.802	19.758	20.880	0.505
810.000	490.889	80.006	19.993	103.811	19.763	20.498	0.524
811.500	491.594	80.009	19.994	103.813	19.765	20.347	0.485
813.000	492.388	80.006	19.993	103.813	19.771	19.881	0.519
814.500	493.182	80.006	19.993	103.814	19.775	19.632	0.523
816.000	493.963	80.007	19.992	103.807	19.780	19.222	0.520
817.500	494.736	80.007	19.993	103.806	19.784	18.937	0.507
819.000	495.534	80.007	19.993	103.808	19.791	18.419	0.525
820.500	496.258	80.005	19.994	103.801	19.798	17.891	0.495
822.000	497.041	80.005	19.994	103.799	19.801	17.685	0.527
823.500	497.812	80.006	19.994	103.802	19.807	17.204	0.519
825.000	498.606	80.004	19.993	103.799	19.812	16.868	0.516
826.500	499.384	80.004	19.994	103.803	19.817	16.490	0.510
828.000	500.147	80.000	19.995	103.795	19.823	16.026	0.507
829.500	500.934	80.003	19.994	103.813	19.831	15.461	0.536
831.000	501.714	80.005	19.995	103.812	19.834	15.243	0.522
832.500	502.444	80.004	19.994	103.809	19.840	14.808	0.507
834.000	503.198	80.006	19.995	103.805	19.842	14.611	0.504
835.500	503.942	80.003	19.995	103.809	19.848	14.177	0.491
837.000	504.705	80.004	19.994	103.809	19.855	13.681	0.522
838.500	505.436	80.006	19.994	103.805	19.863	13.097	0.476
840.000	506.225	80.006	19.995	103.795	19.869	12.619	0.524
841.500	506.979	80.004	19.995	103.796	19.871	12.438	0.507
843.000	507.759	80.005	19.995	103.793	19.879	11.850	0.517
844.500	508.501	80.004	19.995	103.803	19.884	11.482	0.516
846.000	509.256	80.005	19.994	103.797	19.891	11.009	0.486
847.500	510.010	80.005	19.994	103.802	19.893	10.809	0.508
849.000	510.768	80.003	19.995	103.802	19.900	10.306	0.498
850.500	511.509	80.005	19.995	103.807	19.907	9.798	0.498
852.000	512.280	80.003	19.995	103.809	19.911	9.474	0.498
853.500	513.028	80.004	19.995	103.800	19.915	9.189	0.496
855.000	513.809	80.005	19.995	103.796	19.920	8.812	0.522
856.500	514.555	80.005	19.995	103.810	19.924	8.521	0.514
858.000	515.342	80.004	19.996	103.809	19.928	8.260	0.523
859.500	516.108	80.006	19.994	103.805	19.928	8.219	0.510
861.000	516.868	80.000	19.996	103.806	19.934	7.763	0.542
862.500	517.650	80.005	19.995	103.802	19.938	7.457	0.522
864.000	518.382	80.005	19.996	103.808	19.942	7.166	0.490
865.500	519.174	80.003	19.996	103.801	19.946	6.917	0.532
867.000	519.943	80.003	19.995	103.801	19.947	6.816	0.505
868.500	520.748	80.006	19.995	103.811	19.954	6.270	0.540
870.000	521.481	80.007	19.994	103.810	19.952	6.456	0.495
871.500	522.240	80.007	19.994	103.808	19.958	5.969	0.516
873.000	522.972	80.006	19.995	103.809	19.957	6.042	0.469
874.501	523.774	80.007	19.994	103.811	19.964	5.567	0.535
876.000	524.524	80.006	19.995	103.814	19.962	5.664	0.506
877.500	525.298	80.003	19.994	103.813	19.965	5.440	0.518
879.000	526.052	80.007	19.994	103.812	19.962	5.717	0.506
880.500	526.829	80.005	19.994	103.806	19.962	5.682	0.517
882.000	527.635	80.005	19.995	103.801	19.965	5.460	0.518
883.500	528.388	80.006	19.994	103.808	19.967	5.358	0.509
885.000	529.199	80.004	19.993	103.814	19.967	5.311	0.529
886.500	529.979	80.004	19.994	103.813	19.967	5.317	0.503
888.000	530.720	80.007	19.992	103.814	19.972	4.986	0.489
889.500	531.506	80.004	19.994	103.812	19.971	4.992	0.534
891.000	532.286	80.007	19.994	103.810	19.971	5.015	0.533
892.500	533.054	80.003	19.993	103.812	19.972	4.947	0.515
894.000	533.827	80.006	19.994	103.814	19.974	4.836	0.516
895.500	534.639	80.007	19.993	103.814	19.973	4.840	0.533
897.000	535.411	80.009	19.994	103.814	19.971	5.050	0.509
898.500	536.182	80.009	19.994	103.814	19.974	4.801	0.510
900.000	536.985	80.006	19.993	103.813	19.974	4.818	0.519
901.500	537.762	80.005	19.994	103.815	19.977	4.610	0.505
903.000	538.548	80.006	19.994	103.813	19.977	4.595	0.515
904.500	539.314	80.004	19.994	103.811	19.975	4.721	0.520
906.000	540.085	80.004	19.995	103.812	19.980	4.386	0.514
907.500	540.884	80.006	19.994	103.812	19.977	4.544	0.524
909.000	541.659	80.006	19.994	103.811	19.976	4.643	0.503
910.500	542.447	80.006	19.994	103.818	19.981	4.294	0.520
912.000	543.216	80.006	19.994	103.820	19.983	4.123	0.513
913.500	544.025	80.004	19.994	103.805	19.981	4.312	0.546
915.001	544.740	80.005	19.993	103.809	19.980	4.390	0.481
916.500	545.586	80.005	19.993	103.812	19.983	4.148	0.541
918.000	546.371	80.006	19.994	103.811	19.978	4.476	0.530
919.500	547.140	80.005	19.993	103.811	19.984	4.072	0.518
921.000	547.927	80.003	19.994	103.811	19.979	4.437	0.526
922.500	548.695	80.004	19.994	103.813	19.981	4.263	0.525
924.000	549.516	80.005	19.994	103.810	19.981	4.294	0.555
925.500	550.309	80.006	19.995	103.808	19.981	4.252	0.538
927.000	551.084	80.006	19.995	103.810	19.983	4.162	0.527
928.500	551.820	80.002	19.994	103.812	19.983	4.127	0.498
930.000	552.619	80.006	19.995	103.813	19.980	4.355	0.539
931.500	553.371	80.007	19.996	103.811	19.981	4.248	0.490
933.000	554.157	80.006	19.995	103.813	19.985	3.953	0.518
934.500	554.947	80.008	19.995	103.813	19.983	4.123	0.519
936.000	555.730	80.003	19.995	103.812	19.985	3.983	0.520
937.500	556.437	80.004	19.994	103.813	19.986	3.895	0.484
939.000	557.302	80.004	19.995	103.814	19.983	4.115	0.581
940.500	558.018	80.002	19.995	103.813	19.980	4.331	0.497
942.000	558.802	80.006	19.994	103.814	19.985	3.992	0.501
943.500	559.582	80.004	19.995	103.814	19.985	3.948	0.525
945.000	560.339	80.004	19.995	103.814	19.982	4.179	0.500
946.500	561.112	80.007	19.994	103.815	19.988	3.784	0.548
948.000	561.919	80.006	19.995	103.814	19.985	3.971	0.528
949.500	562.666	80.005	19.995	103.813	19.988	3.780	0.484
951.000	563.409	80.006	19.994	103.812	19.988	3.749	0.487
952.500	564.172	80.004	19.994	103.812	19.989	3.673	0.505
954.000	564.876	80.008	19.993	103.812	19.989	3.688	0.465
955.500	565.682	80.005	19.996	103.811	19.989	3.665	0.536
957.000	566.413	80.006	19.994	103.813	19.987	3.846	0.478
958.500	567.194	80.005	19.995	103.812	19.987	3.842	0.511
960.000	567.979	80.005	19.994	103.811	19.989	3.704	0.535
961.500	568.731	80.005	19.996	103.814	19.990	3.601	0.490
963.000	569.478	80.005	19.995	103.812	19.989	3.714	0.490
964.500	570.248	80.004	19.994	103.815	19.988	3.724	0.525
966.000	570.966	80.005	19.994	103.811	19.991	3.517	0.459
967.500	571.782	80.007	19.994	103.808	19.987	3.866	0.522
969.000	572.526	80.005	19.995	103.813	19.987	3.850	0.494
970.500	573.300	80.006	19.994	103.813	19.988	3.749	0.506
972.000	574.071	80.006	19.994	103.811	19.988	3.796	0.535
973.500	574.872	80.007	19.993	103.806	19.989	3.652	0.531
975.000	575.621	80.007	19.995	103.807	19.987	3.825	0.487
976.500	576.357	80.007	19.994	103.810	19.990	3.632	0.513
978.000	577.142	80.008	19.994	103.810	19.992	3.441	0.515
979.500	577.903	80.009	19.993	103.810	19.990	3.595	0.498
981.000	578.619	80.008	19.994	103.811	19.991	3.556	0.497
982.500	579.367	80.006	19.995	103.808	19.987	3.807	0.498
984.000	580.149	80.004	19.995	103.806	19.991	3.566	0.496
985.500	580.924	80.005	19.995	103.808	19.990	3.618	0.532
987.000	581.696	80.006	19.995	103.798	19.989	3.720	0.514
988.500	582.417	80.005	19.994	103.805	19.990	3.619	0.481
990.000	583.206	80.006	19.994	103.813	19.990	3.595	0.520
991.500	583.972	80.004	19.994	103.814	19.990	3.619	0.502
993.000	584.733	80.007	19.996	103.810	19.991	3.527	0.506
994.500	585.448	80.005	19.994	103.814	19.991	3.531	0.496
996.000	586.275	80.003	19.995	103.813	19.989	3.679	0.527
997.500	586.979	80.005	19.995	103.811	19.991	3.509	0.483
999.000	587.753	80.005	19.994	103.803	19.995	3.271	0.517
1000.500	588.514	80.006	19.994	103.799	19.993	3.414	0.497
1002.000	589.273	80.006	19.994	103.806	19.990	3.587	0.493
1003.500	589.993	80.004	19.994	103.802	19.988	3.768	0.496
1005.000	590.768	80.006	19.994	103.799	19.991	3.558	0.531
1006.500	591.544	80.005	19.993	103.810	19.993	3.365	0.516
1008.000	592.287	80.007	19.994	103.813	19.991	3.517	0.518
1009.500	593.060	80.005	19.995	103.814	19.990	3.579	0.517
1011.000	593.873	80.005	19.994	103.816	19.992	3.484	0.531
1012.500	594.614	80.004	19.994	103.810	19.994	3.289	0.485
1014.000	595.390	80.004	19.995	103.808	19.990	3.607	0.515
1015.500	596.184	80.007	19.995	103.813	19.992	3.494	0.525
1017.000	596.932	80.007	19.994	103.815	19.993	3.371	0.509
1018.500	597.715	80.003	19.994	103.812	19.992	3.445	0.503
1020.000	598.496	80.004	19.995	103.814	19.992	3.494	0.524
1021.500	599.247	80.003	19.994	103.815	19.992	3.451	0.503
1023.000	600.012	80.003	19.994	103.815	19.993	3.379	0.516
1024.500	600.805	80.002	19.994	103.815	19.996	3.164	0.513
1026.000	601.591	80.003	19.996	103.813	19.991	3.535	0.535
1027.500	602.354	80.004	19.995	103.813	19.993	3.392	0.516
1029.001	603.085	80.003	19.993	103.813	19.992	3.476	0.483
1030.501	603.878	80.005	19.994	103.813	19.994	3.332	0.513
1032.000	604.644	80.005	19.995	103.801	19.994	3.290	0.505
1033.500	605.399	80.005	19.994	103.808	19.994	3.330	0.506
1035.001	606.193	80.005	19.993	103.813	19.995	3.268	0.514
1036.500	606.922	80.006	19.995	103.810	19.993	3.355	0.503
1038.000	607.688	80.002	19.994	103.810	19.993	3.369	0.514
1039.500	608.481	80.007	19.993	103.810	19.994	3.334	0.527
1041.000	609.180	80.008	19.994	103.808	19.995	3.246	0.502
1042.501	609.964	80.005	19.994	103.799	19.992	3.426	0.520
1044.001	610.670	80.005	19.994	103.795	19.994	3.303	0.494
1045.500	611.461	80.005	19.994	103.803	19.993	3.363	0.542
1047.000	612.204	80.006	19.995	103.805	20.011	2.025	0.508
1048.500	612.920	80.004	19.995	103.807	19.990	3.593	0.485
1050.000	613.691	80.006	19.995	103.807	19.989	3.679	0.499
1051.500	614.450	80.005	19.996	103.808	19.992	3.437	0.488
1053.000	615.215	80.005	19.995	103.801	19.996	3.180	0.510
1054.501	615.955	80.007	19.997	103.805	19.992	3.465	0.465
1056.000	616.682	80.007	19.995	103.807	19.993	3.422	0.472
1057.500	617.452	80.005	19.995	103.804	19.993	3.392	0.478
1059.000	618.187	80.007	19.994	103.806	19.995	3.240	0.480
1060.500	618.930	80.005	19.994	103.807	19.995	3.261	0.490
1062.000	619.651	80.007	19.995	103.805	19.995	3.273	0.493
1063.500	620.448	80.007	19.994	103.805	19.999	2.917	0.501
1065.001	621.298	80.006	19.994	103.806	19.996	3.192	0.580
1066.500	621.990	80.006	19.994	103.803	19.998	3.018	0.452
1068.001	622.732	80.005	19.994	103.807	19.991	3.501	0.507
1069.500	623.587	80.004	19.995	103.810	19.999	2.960	0.608
1071.000	624.215	80.004	19.994	103.776	19.990	3.587	0.465
1072.500	625.007	80.006	19.994	103.740	19.994	3.326	0.494
1074.001	625.777	80.003	19.994	103.842	20.014	1.812	0.496
1075.500	626.526	80.004	19.994	103.882	19.993	3.385	0.483
1077.000	627.306	80.004	19.995	103.814	19.998	3.022	0.522
1078.501	628.033	80.005	19.994	103.813	20.001	2.819	0.502
1080.001	628.768	80.004	19.994	103.814	19.997	3.082	0.498
1081.500	629.535	80.005	19.993	103.813	19.999	2.952	0.524
1083.000	630.322	80.004	19.994	103.813	19.999	2.958	0.526
1084.500	631.011	80.004	19.994	103.813	19.999	2.952	0.466
1086.000	631.817	80.004	19.994	103.810	20.001	2.792	0.527
1087.500	632.587	80.004	19.994	103.809	19.994	3.283	0.492
1089.000	633.348	80.004	19.994	103.813	20.000	2.845	0.504
1090.500	634.123	80.005	19.994	103.814	20.000	2.843	0.514
1092.000	634.925	80.005	19.993	103.814	19.995	3.248	0.522
1093.500	635.705	80.005	19.993	103.815	19.994	3.283	0.506
1095.001	636.496	80.003	19.994	103.815	20.000	2.843	0.524
1096.501	637.268	80.005	19.994	103.815	19.999	2.942	0.517
1098.000	638.026	80.005	19.994	103.815	20.003	2.673	0.513
1099.501	638.817	80.004	19.993	103.814	20.001	2.778	0.514
1101.000	639.574	80.006	19.994	103.813	20.003	2.669	0.502
1102.500	640.361	80.005	19.995	103.808	20.000	2.831	0.508
1104.000	641.133	80.004	19.995	103.806	19.997	3.088	0.529
1105.500	641.932	80.004	19.994	103.809	19.999	2.919	0.535
1107.000	642.690	80.005	19.994	103.810	19.996	3.170	0.493
1108.501	643.504	80.005	19.995	103.812	19.999	2.960	0.527
1110.000	644.263	80.004	19.994	103.816	20.001	2.812	0.508
1111.500	645.052	80.005	19.994	103.810	19.999	2.952	0.527
1113.000	645.822	80.006	19.995	103.811	19.999	2.960	0.505
1114.500	646.574	80.006	19.994	103.814	19.999	2.933	0.516
1116.000	647.394	80.006	19.994	103.809	19.999	2.944	0.536
1117.501	648.170	80.006	19.996	103.808	20.000	2.901	0.526
1119.000	648.914	80.006	19.996	103.814	20.000	2.893	0.509
1120.500	649.720	80.006	19.994	103.810	20.000	2.890	0.535
1122.000	650.510	80.006	19.994	103.809	20.000	2.841	0.529
1123.500	651.324	80.005	19.993	103.807	19.999	2.931	0.529
1125.001	652.095	80.006	19.995	103.808	19.997	3.090	0.501
1126.500	652.820	80.005	19.995	103.809	19.996	3.188	0.431
1128.001	653.611	80.004	19.995	103.811	20.002	2.730	0.585
1129.500	654.415	80.007	19.994	103.818	19.999	2.936	0.494
1131.000	655.202	80.006	19.994	103.808	19.996	3.137	0.532
1132.501	655.997	80.006	19.995	103.799	19.998	2.987	0.534
1134.000	656.785	80.005	19.994	103.803	19.999	2.954	0.530
1135.500	657.549	80.006	19.994	103.809	20.001	2.775	0.505
1137.000	658.363	80.006	19.995	103.811	20.001	2.812	0.548
1138.500	659.165	80.007	19.995	103.811	20.000	2.835	0.539
1140.000	659.905	80.006	19.995	103.812	20.002	2.714	0.510
1141.500	660.691	80.006	19.994	103.809	19.999	2.921	0.522
1143.001	661.476	80.006	19.994	103.808	20.004	2.603	0.525
1144.500	662.202	80.004	19.994	103.812	19.999	2.911	0.500
1146.000	663.020	80.005	19.995	103.812	19.998	3.018	0.547
1147.500	663.806	80.005	19.995	103.808	20.001	2.786	0.532
1149.000	664.568	80.006	19.994	103.807	20.002	2.748	0.507
1150.500	665.356	80.003	19.994	103.804	20.000	2.884	0.515
1152.000	666.161	80.005	19.995	103.804	19.998	2.979	0.539
1153.500	666.908	80.004	19.995	103.811	19.999	2.905	0.506
1155.000	667.663	80.003	19.995	103.813	20.001	2.814	0.510
1156.500	668.437	80.004	19.994	103.812	19.998	3.042	0.529
1158.000	669.219	80.003	19.995	103.813	20.001	2.814	0.507
1159.500	669.993	80.004	19.994	103.809	19.999	2.905	0.533
1161.001	670.757	80.003	19.994	103.803	20.002	2.693	0.505
1162.500	671.508	80.005	19.995	103.815	20.000	2.892	0.497
1164.000	672.330	80.004	19.994	103.815	20.003	2.623	0.545
1165.501	673.046	80.005	19.993	103.812	20.002	2.703	0.484
1167.000	673.835	80.005	19.994	103.810	20.004	2.539	0.518
1168.500	674.622	80.004	19.994	103.811	20.001	2.761	0.533
1170.000	675.398	80.004	19.993	103.810	19.999	2.915	0.513
1171.500	676.145	80.004	19.995	103.804	20.000	2.877	0.486
1173.000	676.847	80.005	19.995	103.796	20.001	2.810	0.480
1174.500	677.659	80.004	19.994	103.805	20.000	2.866	0.534
1176.001	678.375	80.004	19.995	103.808	20.004	2.541	0.498
1177.500	679.130	80.006	19.994	103.800	19.999	2.915	0.475
1179.000	679.892	80.005	19.994	103.800	20.001	2.818	0.492
1180.500	680.642	80.004	19.994	103.799	20.002	2.728	0.526
1182.000	681.370	80.005	19.994	103.784	20.001	2.767	0.492
1183.500	682.097	80.005	19.994	103.801	19.997	3.073	0.474
1185.000	682.829	80.004	19.994	103.821	19.999	2.925	0.475
1186.500	683.602	80.004	19.995	103.814	20.001	2.796	0.520
1188.000	684.319	80.005	19.992	103.808	19.997	3.079	0.497
1189.500	685.104	80.005	19.993	103.808	20.000	2.857	0.530
1191.000	685.844	80.006	19.994	103.812	19.996	3.157	0.483
1192.501	686.617	80.007	19.993	103.814	19.998	3.020	0.518
1194.001	687.329	80.006	19.994	103.812	20.001	2.765	0.485
1195.500	688.127	80.006	19.994	103.807	19.999	2.917	0.561
1197.001	688.879	80.007	19.995	103.810	19.998	3.003	0.486
1198.500	689.650	80.007	19.994	103.811	20.006	2.439	0.512
1200.001	690.393	80.006	19.993	103.811	20.003	2.640	0.508
1201.500	691.147	80.008	19.993	103.809	20.002	2.685	0.514
1203.000	691.939	80.006	19.994	103.810	19.999	2.921	0.529
1204.500	692.731	80.006	19.993	103.813	20.002	2.704	0.523
1206.000	693.427	80.006	19.994	103.807	20.006	2.414	0.478
1207.500	694.223	80.006	19.994	103.806	20.005	2.490	0.516
1209.000	694.987	80.006	19.994	103.814	19.998	2.997	0.510
1210.501	695.720	80.005	19.994	103.812	20.000	2.831	0.500
1212.000	696.458	80.006	19.994	103.807	20.000	2.876	0.493
1213.501	697.216	80.006	19.995	103.810	20.001	2.825	0.497
1215.000	698.006	80.004	19.995	103.812	20.001	2.757	0.535
1216.501	698.821	80.007	19.996	103.814	20.001	2.816	0.527
1218.000	699.530	80.007	19.994	103.810	20.000	2.872	0.473
1219.501	700.307	80.007	19.994	103.809	19.997	3.090	0.495
1221.000	701.062	80.007	19.993	103.811	19.999	2.938	0.507
1222.500	701.784	80.006	19.993	103.809	20.001	2.761	0.484
1224.001	702.550	80.007	19.994	103.803	20.001	2.816	0.511
1225.500	703.314	80.007	19.994	103.810	20.001	2.806	0.523
1227.000	704.007	80.007	19.994	103.808	20.002	2.703	0.477
1228.500	704.787	80.005	19.993	103.804	19.999	2.948	0.512
1230.001	705.559	80.006	19.992	103.811	19.998	3.007	0.502
1231.501	706.272	80.004	19.994	103.812	19.998	2.990	0.500
1233.000	707.002	80.004	19.998	103.806	20.004	2.580	0.457
1234.500	707.703	80.003	19.994	103.805	20.001	2.805	0.481
1236.001	708.491	80.003	19.996	103.805	20.000	2.884	0.506
1237.500	709.235	80.004	19.995	103.798	19.999	2.958	0.503
1239.000	709.971	80.006	19.997	103.804	20.005	2.531	0.495
1240.501	710.728	80.006	19.996	103.808	19.995	3.213	0.515
1242.000	711.489	80.004	19.996	103.807	19.999	2.958	0.518
1243.500	712.250	80.005	19.996	103.747	19.995	3.223	0.494
1245.000	712.982	80.004	19.994	103.754	20.001	2.825	0.474
1246.500	713.779	80.005	19.995	103.779	19.998	3.037	0.519
1248.001	714.525	80.005	19.994	103.798	20.000	2.880	0.500
1249.500	715.307	80.006	19.996	103.810	19.999	2.946	0.535
1251.000	716.167	80.005	19.995	103.810	19.997	3.118	0.576
1252.500	716.923	80.005	19.994	103.810	19.999	2.915	0.520
1254.000	717.638	80.004	19.994	103.810	19.997	3.112	0.487
1255.500	718.440	80.004	19.993	103.809	19.996	3.190	0.506
1257.000	719.258	80.006	19.994	103.815	20.002	2.703	0.556
1258.500	720.025	80.006	19.994	103.880	20.001	2.808	0.511
1260.000	720.807	80.004	19.995	103.840	19.998	3.022	0.520
1261.500	721.569	80.006	19.994	103.808	19.998	3.005	0.544
1263.001	722.382	80.004	19.994	103.810	20.003	2.644	0.531
1264.500	723.161	80.004	19.995	103.811	19.998	3.026	0.488
1266.000	723.924	80.004	19.995	103.810	20.002	2.695	0.516
1267.500	724.737	80.003	19.994	103.810	19.997	3.096	0.529
1269.000	725.503	80.003	19.994	103.811	20.006	2.453	0.492
1270.500	726.312	80.003	19.994	103.812	19.997	3.083	0.519
1272.000	727.091	80.005	19.994	103.810	19.997	3.075	0.525
1273.500	727.851	80.004	19.994	103.808	19.999	2.944	0.495
1275.001	728.680	80.005	19.994	103.812	19.998	2.985	0.552
1276.500	729.421	80.007	19.994	103.809	20.001	2.811	0.479
1278.000	730.236	80.007	19.995	103.811	19.995	3.221	0.558
1279.500	731.040	80.005	19.994	103.812	19.998	2.997	0.525
1281.000	731.782	80.006	19.994	103.812	19.999	2.938	0.495
1282.500	732.597	80.005	19.993	103.786	20.000	2.872	0.540
1284.000	733.383	80.005	19.994	103.788	19.996	3.133	0.514
1285.500	734.148	80.006	19.993	103.813	19.996	3.157	0.510
1287.000	734.912	80.004	19.993	103.820	20.000	2.835	0.522
1288.501	735.684	80.004	19.993	103.808	19.998	3.018	0.524
1290.000	736.465	80.004	19.993	103.806	20.003	2.621	0.515
1291.500	737.244	80.006	19.994	103.811	20.002	2.746	0.519
1293.001	737.991	80.005	19.995	103.800	20.002	2.718	0.484
1294.500	738.779	80.006	19.994	103.804	19.999	2.921	0.525
1296.001	739.553	80.006	19.994	103.811	19.999	2.933	0.508
1297.500	740.290	80.006	19.994	103.806	19.997	3.061	0.484
1299.000	741.081	80.007	19.994	103.809	20.000	2.890	0.537
1300.500	741.812	80.007	19.995	103.809	20.000	2.860	0.508
1302.000	742.596	80.007	19.995	103.805	20.003	2.660	0.524
1303.500	743.388	80.007	19.995	103.805	20.000	2.876	0.517
1304.000	743.614	80.006	19.993	103.805	19.997	3.092	0.506