File: 01_Data/Overstuffed_Chair_Polyester_Fabric/Cone/Overstuffed_Chair_Polyester_Fabric_Cone_HF50Scan_210326_R1.csv
Names,Time,Stack TC,Smoke TC,Exh Press,Smoke Comp,Smoke Meas,CO Meter,CO2 Meter,O2 Meter,Sample Mass,Ext Coeff,Start Test,Flame Verif
Chan Gain,,500,500,1,1,1,1,1,1,1,1,1.0,1.0
Offset,,0,0,0.138348,0,0,0,0,0,0,0,0.0,0.0
Gain,,1,1,25.011,13.5067,16.616,1,1,1,1.00091,1.04608,1.0,1.0
Units,sec,C,C,Pa,%,%,%,%,%,g,/m,,
Baseline,,33.069,35.2162,162.117,102.365,99.5025,-0.00140775,0.0476228,20.9575,-0.00788218,0.260305,,
2,0.25,31.2064,32.79,160.731,102.704,99.8474,-0.0010416,0.0492943,20.9537,468.847,0.258881,0.0,0.0
4,0.75,30.9049,32.9258,160.368,102.718,99.923,-0.00103203,0.0495128,20.9533,468.897,0.253118,0.0,0.0
6,1.25,30.5694,32.8479,160.755,102.708,99.5569,-0.00102774,0.0497911,20.953,469.057,0.285916,0.0,0.0
8,1.75,31.2342,32.4388,160.386,102.716,99.7906,-0.00102875,0.0500166,20.9518,469.107,0.265133,0.0,0.0
10,2.25,30.5377,33.1498,164.708,102.716,99.9575,-0.0010336,0.0505071,20.9509,468.837,0.249769,0.0,0.0
12,2.75,31.1401,32.9128,167.004,102.723,99.9975,-0.00103754,0.0509043,20.9492,469.407,0.246753,0.0,0.0
14,3.25,30.7671,32.8199,157.838,102.72,99.6405,-0.00106508,0.0514376,20.9478,469.217,0.279276,0.0,0.0
16,3.75,30.5361,32.8071,163.438,102.718,99.2582,-0.00108739,0.0520599,20.9463,469.177,0.314407,0.0,0.0
18,4.25,30.7016,33.3988,164.361,102.73,99.9433,-0.00113591,0.0526769,20.9451,468.987,0.252398,0.0,0.0
20,4.75,30.8738,32.9069,157.797,102.738,99.35,-0.00117521,0.0532782,20.9441,468.907,0.30773,0.0,0.0
22,5.25,31.4109,32.6678,163.143,102.734,100.016,-0.00123505,0.0537652,20.9432,468.907,0.24599,0.0,0.0
24,5.75,31.0455,33.1728,164.021,102.742,99.5305,-0.00128353,0.054334,20.9426,468.907,0.291403,0.0,0.0
26,6.25,31.1827,33.0635,168.204,102.742,99.6233,-0.00132279,0.0548513,20.942,468.907,0.282815,0.0,0.0
28,6.75,30.6171,33.4002,162.493,102.749,99.6953,-0.00135459,0.055321,20.9416,468.907,0.276848,0.0,0.0
30,7.25,31.0513,33.2599,160.884,102.751,99.6066,-0.00140349,0.0557015,20.9413,468.887,0.285204,0.0,0.0
32,7.75,31.144,33.0128,160.342,102.75,99.713,-0.0014431,0.0561573,20.9408,468.897,0.275325,0.0,0.0
34,8.25,30.851,33.4459,160.58,102.756,100.08,-0.00147275,0.0565265,20.9403,468.897,0.242081,0.0,0.0
36,8.75,31.47,33.4689,158.859,102.773,99.7719,-0.00149676,0.0570403,20.9399,468.887,0.271938,0.0,0.0
38,9.25,31.0081,33.8082,164.531,102.765,99.6329,-0.00151622,0.0574564,20.9395,468.897,0.283989,0.0,0.0
40,9.75,31.1708,33.4826,160.887,102.756,100.138,-0.00153197,0.0577935,20.9393,468.887,0.236782,0.0,0.0
42,10.25,31.4164,33.3583,159.966,102.768,99.82,-0.00154473,0.0580666,20.939,468.887,0.267067,0.0,0.0
44,10.75,30.9918,33.7109,163.274,102.761,100.046,-0.00155507,0.0585428,20.9388,468.887,0.245675,0.0,0.0
46,11.25,31.5179,33.9956,160.946,102.769,100.005,-0.00156024,0.0589286,20.9387,468.887,0.250178,0.0,0.0
48,11.75,30.8866,33.7757,160.159,102.776,100.082,-0.00156154,0.0592948,20.9386,468.877,0.243699,0.0,0.0
50,12.25,31.1491,33.1592,167.352,102.782,99.8854,-0.00155811,0.0595915,20.9385,468.877,0.262307,0.0,0.0
52,12.75,31.2393,33.9008,159.098,102.779,99.743,-0.00155129,0.0598049,20.9384,468.877,0.275186,0.0,0.0
54,13.25,31.0218,33.2498,160.862,102.784,100.054,-0.00154577,0.0599777,20.9383,468.877,0.246955,0.0,0.0
56,13.75,31.5881,33.9276,161.832,102.791,99.6649,-0.00154129,0.0601178,20.9383,468.877,0.283403,0.0,0.0
58,14.25,30.7785,33.6212,163.872,102.798,99.5908,-0.0015194,0.0602312,20.9383,468.877,0.290883,0.0,0.0
60,14.75,31.444,33.2448,162.354,102.79,99.674,-0.00150167,0.0603089,20.9382,468.887,0.28249,0.0,0.0
62,15.25,31.2081,33.0497,159.563,102.805,99.4565,-0.00147513,0.0603591,20.9382,468.877,0.303825,0.0,0.0
64,15.75,31.8087,33.8911,162.151,102.791,99.9017,-0.00145363,0.0603998,20.9384,468.887,0.261663,0.0,0.0
66,16.25,30.8557,33.4701,160.108,102.805,100.086,-0.00141795,0.0603522,20.9388,468.887,0.245903,0.0,0.0
68,16.75,31.0825,33.869,161.398,102.799,99.4169,-0.00138905,0.0603136,20.9391,468.887,0.306996,0.0,0.0
70,17.25,31.0666,33.7436,158.117,102.808,99.6958,-0.00133641,0.0602188,20.9394,468.877,0.282064,0.0,0.0
72,17.75,31.186,34.3114,159.559,102.816,100.134,-0.00129377,0.0600847,20.9396,468.887,0.24248,0.0,0.0
74,18.25,31.8866,33.6986,165.693,102.824,99.4291,-0.00121661,0.0599761,20.9397,468.877,0.308081,0.0,0.0
76,18.75,31.5691,33.796,158.503,102.814,99.1218,-0.00115411,0.0597942,20.9399,468.887,0.335602,0.0,0.0
78,19.25,31.8328,33.918,157.382,102.824,98.9124,-0.00104502,0.0596468,20.94,468.877,0.355856,0.0,0.0
80,19.75,31.7394,34.3096,160.575,102.827,98.9088,-0.000956664,0.05989,20.9401,468.877,0.356479,0.0,1.0
82,20.25,31.5643,33.9939,159.221,102.83,98.6137,-0.000885094,0.060087,20.9374,468.877,0.384156,0.0,1.0
84,20.75,31.3479,33.9612,154.763,102.825,97.457,-0.0007611,0.0618209,20.9353,468.827,0.492016,0.0,1.0
86,21.25,31.6514,33.9143,159.029,102.834,96.7542,-0.000601244,0.0632253,20.9287,468.807,0.559238,0.0,1.0
88,21.75,32.1992,33.8292,156.897,102.826,93.6428,-0.000471761,0.0670262,20.9233,468.817,0.858475,0.0,1.0
90,22.25,32.059,34.1319,155.617,102.836,91.6657,-0.000217931,0.0701049,20.9132,468.777,1.05513,0.0,1.0
92,22.75,31.2064,34.8044,160.678,102.836,89.5456,6.63895e-05,0.0749237,20.905,468.797,1.26982,0.0,1.0
94,23.25,31.89,35.2188,153.035,102.852,89.4422,0.000367535,0.0809195,20.8948,468.777,1.28193,0.0,1.0
96,23.75,32.9393,35.8843,159.789,102.838,89.3864,0.000611462,0.0857761,20.8833,468.737,1.28633,0.0,1.0
98,24.25,30.7661,33.9305,155.363,102.857,89.0618,0.00104319,0.0931536,20.8705,468.707,1.32144,0.0,1.0
100,24.75,31.3534,34.2719,157.297,102.854,88.5745,0.00139289,0.102229,20.857,468.677,1.37149,0.0,0.0
102,25.25,31.5176,35.102,159.088,102.861,88.1537,0.00189064,0.11185,20.8428,468.637,1.41586,0.0,0.0
104,25.75,31.133,35.1801,155.532,102.866,88.646,0.00229382,0.121686,20.8283,468.607,1.36519,0.0,0.0
106,26.25,31.4218,35.3301,154.25,102.886,86.6547,0.00277743,0.129653,20.8111,468.577,1.57547,0.0,0.0
108,26.75,33.0501,36.0507,151.933,102.878,83.9145,0.00331048,0.14252,20.7923,468.526,1.86963,0.0,0.0
110,27.25,31.8896,36.3153,152.187,102.893,84.2228,0.00374224,0.152943,20.7771,468.486,1.83726,0.0,0.0
112,27.75,32.9304,36.6986,157.508,102.882,83.2644,0.0041712,0.168201,20.7706,468.436,1.94129,0.0,0.0
114,28.25,33.4376,37.1442,152.952,102.903,80.8066,0.00490472,0.180561,20.7493,468.376,2.2181,0.0,0.0
116,28.75,33.251,38.352,151.81,102.896,76.9812,0.00567792,0.195284,20.732,468.346,2.66253,0.0,0.0
118,29.25,34.0982,38.2922,145.509,102.902,76.2114,0.00646536,0.21145,20.718,468.276,2.75526,0.0,0.0
120,29.75,34.1005,39.4422,147.793,102.887,78.1551,0.00710319,0.224544,20.6998,468.176,2.52289,0.0,0.0
122,30.25,34.8399,39.8814,140.894,102.909,75.1314,0.00779365,0.245044,20.679,468.096,2.88686,0.0,0.0
124,30.75,35.3689,41.1306,148.54,102.904,77.8802,0.00850936,0.253783,20.6516,468.066,2.55672,0.0,0.0
126,31.25,35.7742,41.7704,152.595,102.909,76.9148,0.00908909,0.273029,20.6294,467.986,2.67156,0.0,0.0
128,31.75,36.2184,42.2718,146.005,102.92,75.0234,0.00960644,0.292488,20.6093,467.926,2.90109,0.0,0.0
130,32.25,36.8038,42.9284,149.487,102.921,77.7793,0.0100255,0.30825,20.5911,467.816,2.57009,0.0,0.0
132,32.75,37.312,43.5157,150.254,102.908,74.1071,0.0102772,0.321018,20.5764,467.726,3.01275,0.0,0.0
134,33.25,37.394,44.0994,150.602,102.935,75.891,0.010481,0.336002,20.5644,467.686,2.79687,0.0,0.0
136,33.75,37.7713,44.4271,147.713,102.914,75.7855,0.0104533,0.348138,20.5548,467.636,2.80779,0.0,0.0
138,34.25,38.0179,45.1252,146.181,102.921,76.8068,0.0104308,0.357837,20.547,467.596,2.68555,0.0,0.0
140,34.75,38.4244,45.3378,147.172,102.925,78.0912,0.0104125,0.365693,20.5406,467.556,2.53378,0.0,0.0
142,35.25,38.6699,45.5062,152.627,102.944,82.3613,0.0102049,0.369128,20.5355,467.516,2.04691,0.0,0.0
144,35.75,38.42,45.8438,154.413,102.926,81.6874,0.00986312,0.371911,20.5398,467.445,2.12068,0.0,0.0
146,36.25,38.8794,45.4503,150.467,102.93,83.1878,0.0094536,0.370138,20.5433,467.445,1.95407,0.0,0.0
148,36.75,38.9394,45.8349,152.301,102.93,86.6842,0.00900248,0.368702,20.5547,467.405,1.57621,0.0,0.0
150,37.25,39.0536,46.0107,151.332,102.935,87.888,0.00863707,0.367538,20.5638,467.365,1.45014,0.0,0.0
152,37.75,38.5646,46.0008,151.609,102.922,88.6542,0.00810068,0.359971,20.5816,467.345,1.36931,0.0,0.0
154,38.25,39.7293,46.306,152.81,102.935,88.7622,0.00757133,0.353841,20.5959,467.325,1.35931,0.0,0.0
156,38.75,39.2437,45.6569,151.77,102.934,89.8843,0.00705717,0.345835,20.616,467.295,1.24396,0.0,0.0
158,39.25,39.1919,45.7017,154.824,102.94,89.7134,0.00655348,0.336614,20.6323,467.275,1.26197,0.0,0.0
160,39.75,39.0628,45.9754,158.94,102.93,92.047,0.00606699,0.329145,20.6522,467.255,1.02539,0.0,0.0
162,40.25,39.1789,45.6815,156.583,102.941,91.6145,0.00559848,0.31851,20.6683,467.235,1.0696,0.0,0.0
164,40.75,38.8937,45.4424,160.291,102.939,92.2392,0.00515197,0.309895,20.6863,467.225,1.00706,0.0,0.0
166,41.25,38.8986,46.0095,157.116,102.937,92.4375,0.0047903,0.298928,20.7009,467.205,0.987206,0.0,0.0
168,41.75,38.7795,45.541,159.372,102.938,93.8081,0.00441992,0.290045,20.7127,467.175,0.852253,0.0,0.0
170,42.25,38.475,45.6389,161.213,102.946,93.8395,0.00405024,0.279623,20.7262,467.185,0.849876,0.0,0.0
172,42.75,38.3152,44.9351,159.157,102.942,93.4866,0.0037508,0.271182,20.7372,467.165,0.884122,0.0,0.0
174,43.25,38.579,44.9349,157.237,102.939,94.9779,0.00341707,0.261285,20.7483,467.155,0.738604,0.0,0.0
176,43.75,38.2599,44.7807,158.888,102.942,95.3973,0.00314675,0.253269,20.7591,467.145,0.698435,0.0,0.0
178,44.25,38.5621,45.0399,156.998,102.93,96.5605,0.00285157,0.242866,20.7679,467.135,0.586193,0.0,0.0
180,44.75,38.6399,44.7802,153.157,102.946,96.7537,0.00261248,0.234439,20.779,467.135,0.569285,0.0,0.0
182,45.25,38.1536,44.5296,156.412,102.931,97.1001,0.0023762,0.227614,20.7908,467.125,0.535138,0.0,0.0
184,45.75,38.1148,44.2103,157.601,102.941,97.3926,0.00214647,0.217597,20.803,467.135,0.508411,0.0,0.0
186,46.25,38.1763,43.9105,159.265,102.939,98.9387,0.00193138,0.209484,20.8128,467.115,0.363667,0.0,0.0
188,46.75,37.9017,43.9641,158.335,102.951,99.5269,0.00173106,0.19988,20.8249,467.115,0.310339,0.0,0.0
190,47.25,37.6382,43.7019,166.333,102.945,100.259,0.00154949,0.192101,20.8348,467.115,0.242601,0.0,0.0
192,47.75,37.3833,43.3607,163.993,102.941,99.6649,0.00138505,0.184035,20.8454,467.115,0.296749,0.0,0.0
194,48.25,37.3433,43.3491,159.06,102.939,99.7769,0.00125184,0.175913,20.854,467.115,0.286291,0.0,0.0
196,48.75,37.4378,42.8931,157.152,102.948,99.7141,0.0011388,0.16817,20.861,467.135,0.292884,0.0,0.0
198,49.25,37.199,42.7075,157.814,102.945,100.141,0.00104261,0.16085,20.8694,467.125,0.25343,0.0,0.0
200,49.75,37.0838,42.2849,156.692,102.948,100.25,0.000965978,0.153849,20.8761,467.115,0.243656,0.0,0.0
202,50.25,36.9991,42.1708,160.047,102.937,100.086,0.000905065,0.147216,20.8829,467.105,0.257787,0.0,0.0
204,50.75,36.853,41.6905,158.223,102.946,100.182,0.000857012,0.141843,20.8885,467.105,0.249777,0.0,0.0
206,51.25,36.7476,42.1437,161.545,102.94,100.367,0.000819246,0.13566,20.8934,467.115,0.232279,0.0,0.0
208,51.75,36.6932,41.3424,162.16,102.937,100.105,0.000790587,0.130652,20.8974,467.125,0.256022,0.0,0.0
210,52.25,36.3975,41.7521,160.236,102.932,100.518,0.000769109,0.125852,20.9006,467.125,0.217703,0.0,0.0
212,52.75,35.8217,40.2806,163.578,102.935,100.014,0.000751712,0.121296,20.9037,467.115,0.264208,0.0,0.0
214,53.25,35.5423,40.8037,161.463,102.933,99.7744,0.00073762,0.117605,20.9066,467.115,0.28601,0.0,0.0
216,53.75,35.7495,40.094,170.034,102.941,100.138,0.000734762,0.113714,20.9089,467.115,0.253321,0.0,0.0
218,54.25,35.3027,40.0632,163.847,102.94,100.076,0.000732447,0.110562,20.9107,467.115,0.258928,0.0,0.0
220,54.75,35.6275,39.9441,161.548,102.927,99.9377,0.000744023,0.107218,20.9123,467.115,0.270454,0.0,0.0
222,55.25,35.4819,40.1954,163.792,102.929,99.8434,0.000753399,0.10451,20.9139,467.125,0.279303,0.0,0.0
224,55.75,35.0655,39.9477,163.028,102.928,100.151,0.000760993,0.102316,20.9152,467.125,0.250984,0.0,0.0
226,56.25,35.0424,40.0768,161.3,102.921,99.5873,0.000787942,0.0995046,20.9164,467.115,0.302169,0.0,0.0
228,56.75,35.1913,39.359,158.965,102.941,99.712,0.000809771,0.0972276,20.9177,467.105,0.292445,0.0,0.0
230,57.25,34.6746,39.5317,160.529,102.92,99.8611,0.000838466,0.0947452,20.9188,467.105,0.2769,0.0,0.0
232,57.75,34.514,39.0482,158.187,102.924,100.201,0.00086171,0.0927344,20.9199,467.115,0.246019,0.0,0.0
234,58.25,34.5907,39.5153,158.842,102.92,100.32,0.000889558,0.090777,20.9208,467.105,0.234754,0.0,0.0
236,58.75,34.9221,39.1519,164.97,102.927,100.391,0.000920235,0.0888958,20.9219,467.115,0.228961,0.0,0.0
238,59.25,34.7852,38.6575,158.307,102.914,100.284,0.000959913,0.087372,20.9228,467.135,0.237579,0.0,0.0
240,59.75,34.4906,38.5744,158.083,102.919,99.7323,0.0010054,0.085515,20.924,467.145,0.288596,0.0,0.0
242,60.25,34.0451,38.4753,160.158,102.912,100.234,0.00105708,0.0840108,20.9252,467.125,0.241982,0.0,0.0
244,60.75,34.7228,38.4865,166.604,102.912,100.722,0.00111231,0.0825505,20.9264,467.115,0.197432,0.0,0.0
246,61.25,34.3397,38.2465,162.515,102.901,99.8155,0.00114682,0.0811499,20.9269,467.115,0.27933,0.0,0.0
248,61.75,33.8902,38.2211,162.635,102.912,99.9275,0.00120585,0.0798235,20.9278,467.135,0.270025,0.0,0.0
250,62.25,33.8445,38.0114,159.853,102.907,99.9853,0.00125366,0.0785764,20.9285,467.125,0.264278,0.0,0.0
252,62.75,34.0901,37.729,160.055,102.9,100.659,0.00131572,0.0773886,20.9291,467.115,0.202013,0.0,0.0
254,63.25,34.2193,37.7324,161.533,102.903,100.201,0.00136598,0.0762667,20.9295,467.115,0.244144,0.0,0.0
256,63.75,33.5911,37.4692,159.888,102.913,99.7891,0.0014151,0.0752372,20.9299,467.115,0.28282,0.0,0.0
258,64.25,33.9378,37.0466,160.407,102.906,100.154,0.00146244,0.0747412,20.9306,467.115,0.248684,0.0,0.0
260,64.75,33.6459,37.1724,163.225,102.898,100.205,0.00150791,0.073893,20.9312,467.115,0.243295,0.0,0.0
262,65.25,33.4231,37.2374,162.209,102.887,100.09,0.00155114,0.0730306,20.9317,467.115,0.252969,0.0,0.0
264,65.75,33.6177,37.0013,163.175,102.898,99.9179,0.00158615,0.0723321,20.9321,467.125,0.269662,0.0,0.0
266,66.25,33.6449,37.0208,158.959,102.886,99.8246,0.00162804,0.0716671,20.9325,467.115,0.277167,0.0,0.0
268,66.75,33.6882,36.9013,163.205,102.898,99.8946,0.00166196,0.071039,20.9327,467.105,0.27184,0.0,0.0
270,67.25,33.3016,37.1389,156.822,102.876,99.8185,0.00169682,0.0704593,20.9329,467.105,0.276808,0.0,0.0
272,67.75,32.8521,36.9241,163.957,102.882,99.9625,0.00172506,0.069926,20.9331,467.095,0.264168,0.0,0.0
274,68.25,32.9549,36.4252,160.623,102.88,99.7333,0.00174916,0.069494,20.9332,467.095,0.285047,0.0,0.0
276,68.75,33.1256,36.3592,162.304,102.888,100.121,0.00176868,0.0689825,20.9334,467.095,0.25016,0.0,0.0
278,69.25,33.1895,36.5445,162.898,102.872,100.633,0.00177996,0.0685681,20.9334,467.085,0.201871,0.0,0.0
280,69.75,33.5629,36.7554,161.253,102.883,99.9975,0.00178502,0.0681617,20.9335,467.075,0.261067,0.0,0.0
282,70.25,32.7982,36.5013,159.409,102.86,99.7582,0.00178912,0.0677687,20.9336,467.085,0.28096,0.0,0.0
284,70.75,33.1592,36.172,165.479,102.875,100.163,0.00178629,0.0672888,20.9339,467.085,0.245127,0.0,0.0
286,71.25,33.5961,35.9049,159.162,102.859,100.03,0.00178401,0.0669001,20.9343,467.075,0.255873,0.0,0.0
288,71.75,33.0098,36.3534,162.147,102.866,99.9017,0.00179445,0.0664579,20.9347,467.075,0.268284,0.0,0.0
290,72.25,33.1923,36.2823,159.411,102.844,99.8616,0.0018029,0.0659849,20.935,467.075,0.270052,0.0,0.0
292,72.75,32.7612,35.9855,158.857,102.843,100.367,0.00184051,0.0656018,20.9354,467.075,0.223567,0.0,0.0
294,73.25,32.3969,36.6008,157.762,102.844,99.8302,0.00187096,0.0650899,20.936,467.075,0.272904,0.0,0.0
296,73.75,32.97,36.1388,161.831,102.854,100.332,0.00193257,0.0646751,20.9365,467.085,0.227842,0.0,0.0
298,74.25,33.0023,35.8808,158.608,102.839,100.08,0.00198248,0.0641645,20.9373,467.075,0.24955,0.0,0.0
300,74.75,32.3836,35.6634,164.681,102.841,100.053,0.00203912,0.0637508,20.938,467.085,0.252244,0.0,0.0
302,75.25,32.6758,36.3674,159.055,102.814,99.8028,0.00209959,0.0632143,20.9386,467.075,0.272772,0.0,0.0
304,75.75,32.8974,35.5998,162.391,102.83,100.736,0.00214857,0.0627796,20.939,467.055,0.188776,0.0,0.0
306,76.25,32.9615,35.2581,162.334,102.812,100.641,0.00218825,0.062364,20.9394,467.065,0.195881,0.0,0.0
308,76.75,32.3792,35.6395,163.793,102.819,100.287,0.00222168,0.06197,20.9396,467.065,0.228844,0.0,0.0
310,77.25,32.8591,35.2234,161.99,102.806,100.142,0.00224993,0.0615732,20.94,467.065,0.240983,0.0,0.0
312,77.75,32.7136,34.8387,163.051,102.805,100.084,0.00226826,0.0611818,20.9404,466.995,0.246125,0.0,0.0
314,78.25,31.8792,35.2279,159.472,102.803,99.959,0.00227903,0.0608648,20.9409,466.825,0.257468,0.0,0.0
316,78.75,33.025,35.5341,160.466,102.803,99.8809,0.00227931,0.060608,20.9414,466.865,0.264566,0.0,0.0
318,79.25,31.8774,35.3683,163.544,102.794,100.384,0.00227196,0.0601718,20.9417,466.975,0.217697,0.0,0.0
320,79.75,32.5391,35.1032,164.153,102.798,100.094,0.00225433,0.0598185,20.942,466.935,0.244533,0.0,0.0
322,80.25,32.092,34.8457,162.715,102.791,99.5345,0.00222955,0.0594613,20.9422,466.985,0.295372,0.0,0.0
324,80.75,32.0215,34.8877,158.821,102.785,100.081,0.00219716,0.0591082,20.9424,467.035,0.244684,0.0,0.0
326,81.25,32.3202,35.2216,165.308,102.784,100.008,0.00215985,0.0588221,20.9426,467.045,0.251225,0.0,0.0
328,81.75,31.6375,34.9301,161.78,102.786,99.783,0.00211927,0.058577,20.9427,467.045,0.272126,0.0,0.0
330,82.25,32.3293,35.2217,161.926,102.767,99.7095,0.00207708,0.0583926,20.9428,467.055,0.277124,0.0,0.0
332,82.75,32.4688,35.1633,163.227,102.778,99.9098,0.0020429,0.0582559,20.9429,467.025,0.259704,0.0,0.0
334,83.25,32.0479,34.6806,163.054,102.766,100.897,0.00200421,0.0581452,20.943,467.045,0.168488,0.0,0.0
336,83.75,31.9762,34.2885,160.165,102.759,100.387,0.00196297,0.0580153,20.943,467.075,0.21429,0.0,0.0
338,84.25,32.0354,34.5228,162.828,102.754,99.9519,0.00192957,0.0578748,20.9431,467.075,0.253704,0.0,0.0
340,84.75,31.7201,34.2577,161.129,102.747,99.6993,0.00189637,0.0577292,20.9431,467.075,0.276328,0.0,0.0
342,85.25,32.239,34.9176,159.143,102.76,100.545,0.00186948,0.0576113,20.9431,467.075,0.19996,0.0,0.0
344,85.75,31.9704,34.2497,163.343,102.756,100.087,0.00185507,0.0574804,20.9431,467.075,0.241476,0.0,0.0
346,86.25,31.8076,34.5307,162.104,102.735,99.9083,0.0018434,0.0573427,20.9432,467.065,0.255978,0.0,0.0
348,86.75,31.4634,34.3806,162.021,102.745,99.8145,0.00184747,0.0572312,20.9432,467.065,0.265518,0.0,0.0
350,87.25,31.7101,34.032,163.05,102.737,99.9656,0.00185076,0.0571274,20.9432,467.055,0.250901,0.0,0.0
352,87.75,31.9654,34.1714,163.087,102.722,100.347,0.00186704,0.0570433,20.9432,467.055,0.214593,0.0,0.0
354,88.25,32.0287,34.4143,159.866,102.731,100.511,0.00189245,0.056935,20.9432,467.035,0.200474,0.0,0.0
356,88.75,32.2522,34.2478,163.093,102.722,99.7688,0.00192211,0.0568473,20.9432,467.025,0.267653,0.0,0.0
358,89.25,31.8235,34.7876,160.41,102.73,99.8043,0.0019543,0.056736,20.9434,467.045,0.265162,0.0,0.0
360,89.75,31.9276,34.3659,159.622,102.725,100.028,0.00198037,0.0566459,20.9435,467.045,0.244101,0.0,0.0
362,90.25,32.013,34.0076,159.296,102.712,99.8626,0.00200641,0.056552,20.9436,467.045,0.258183,0.0,0.0
364,90.75,31.5632,34.6239,158.976,102.705,99.7318,0.00202751,0.0564573,20.9437,467.035,0.269548,0.0,0.0
366,91.25,32.1902,34.827,167.15,102.713,99.6831,0.00203293,0.0563805,20.9438,467.035,0.274729,0.0,0.0
368,91.75,31.0997,34.5242,162.37,102.702,100.021,0.00202683,0.0563183,20.9439,467.025,0.242726,0.0,0.0
370,92.25,31.9238,34.4624,161.774,102.71,99.7658,0.00199988,0.056268,20.9439,467.015,0.266865,0.0,0.0
372,92.75,31.7993,34.4729,162.122,102.705,99.7212,0.00195824,0.0562138,20.9444,467.005,0.270566,0.0,0.0
374,93.25,32.0469,33.6354,165.448,102.732,100.388,0.00190705,0.0561699,20.9448,467.015,0.211768,0.0,0.0
376,93.75,32.121,34.3521,155.507,102.69,99.6091,0.00184987,0.0561061,20.9451,467.015,0.27952,0.0,0.0
378,94.25,31.8304,34.3947,157.776,102.693,100.05,0.00179645,0.056029,20.9454,467.025,0.239274,0.0,0.0
380,94.75,31.7834,34.2969,160.294,102.692,99.8332,0.00174677,0.0559384,20.9456,467.015,0.259043,0.0,0.0
382,95.25,31.5499,34.5073,163.204,102.701,99.5944,0.00170654,0.0558396,20.9457,467.015,0.281833,0.0,0.0
384,95.75,31.5671,34.5574,164.189,102.681,100.026,0.00166045,0.0557454,20.9459,467.005,0.240429,0.0,0.0
386,96.25,32.109,33.8862,159.461,102.685,100.163,0.00162312,0.0556565,20.946,467.015,0.228162,0.0,0.0
388,96.75,31.8415,34.1197,160.704,102.682,100.249,0.00158061,0.0555773,20.9461,467.015,0.220104,0.0,0.0
390,97.25,31.6263,33.4973,164.327,102.699,99.7318,0.00155667,0.0555069,20.9461,467.005,0.268997,0.0,0.0
392,97.75,31.2698,33.9359,161.563,102.674,100.089,0.00151575,0.0554499,20.9462,467.005,0.233952,0.0,0.0
394,98.25,31.9175,33.3548,161.682,102.674,99.8571,0.00147524,0.0553635,20.9462,466.995,0.255232,0.0,0.0
396,98.75,31.7632,34.1494,159.701,102.674,99.9585,0.00144243,0.0552935,20.9463,467.015,0.245992,0.0,0.0
398,99.25,31.8399,34.1106,158.238,102.706,100.304,0.00141585,0.05521,20.9463,467.015,0.217136,0.0,0.0
400,99.75,31.8392,34.4709,154.271,102.679,99.9519,0.00139174,0.0551423,20.9463,467.015,0.247039,0.0,0.0
402,100.25,31.0237,34.0242,164.84,102.683,99.7227,0.00136989,0.0551135,20.9462,467.015,0.268436,0.0,0.0
404,100.75,31.147,33.9794,159.963,102.656,99.8018,0.00134574,0.055043,20.9462,467.005,0.258766,0.0,0.0
406,101.25,31.4952,33.4429,157.757,102.678,99.5974,0.00132037,0.0549669,20.9465,466.995,0.279564,0.0,0.0
408,101.75,31.6562,34.3153,163.355,102.663,99.9265,0.00128692,0.0549053,20.9468,466.985,0.247893,0.0,0.0
410,102.25,31.8337,33.5964,160.205,102.674,99.8829,0.00124822,0.0548271,20.9471,466.985,0.252931,0.0,0.0
412,102.75,32.0046,34.4067,162.325,102.661,99.9488,0.00120205,0.0547384,20.9473,466.995,0.245661,0.0,0.0
414,103.25,31.1161,33.9755,160.953,102.682,99.6603,0.00115132,0.0546525,20.9475,466.985,0.274104,0.0,0.0
416,103.75,31.1967,33.7427,160.825,102.66,99.8667,0.00111023,0.0545702,20.9476,466.985,0.253132,0.0,0.0
418,104.25,31.6181,33.8937,164.044,102.679,100.419,0.0010488,0.0544753,20.9477,466.995,0.204217,0.0,0.0
420,104.75,32.2343,33.4972,158.182,102.656,100.617,0.000999047,0.0543731,20.9478,466.995,0.184065,0.0,0.0
422,105.25,31.5686,34.0137,166.578,102.675,99.9742,0.000952311,0.0542973,20.9478,466.995,0.244622,0.0,0.0
424,105.75,31.6685,33.8811,156.186,102.646,99.6704,0.000908663,0.0542423,20.9479,466.985,0.269927,0.0,0.0
426,106.25,31.3509,33.9554,162.004,102.671,99.8297,0.000877169,0.0541978,20.948,466.985,0.257492,0.0,0.0
428,106.75,31.6363,33.753,161.158,102.653,100.134,0.000855134,0.0540947,20.948,466.995,0.227947,0.0,0.0
430,107.25,31.3677,33.789,160.672,102.678,100.065,0.000837285,0.0540112,20.948,467.005,0.236507,0.0,0.0
432,107.75,31.2317,33.8736,160.962,102.646,100.254,0.000838727,0.0539013,20.948,466.995,0.216351,0.0,0.0
434,108.25,31.7883,33.9303,161.621,102.646,99.89,0.000839895,0.0537742,20.9481,466.995,0.249773,0.0,0.0
436,108.75,31.351,33.7651,158.414,102.635,99.7247,0.00083891,0.0536712,20.9481,466.985,0.263976,0.0,0.0
438,109.25,31.3771,34.0729,160.952,102.644,99.64,0.000836373,0.0535878,20.9481,466.995,0.272581,0.0,0.0
440,109.75,31.7467,34.2872,160.478,102.633,100.082,0.000822421,0.0535203,20.9481,466.975,0.230965,0.0,0.0
442,110.25,31.4555,33.8889,165.44,102.636,99.9326,0.000798562,0.0534522,20.9481,466.955,0.244903,0.0,0.0
444,110.75,32.0692,34.1851,161.922,102.617,100.113,0.000779237,0.053397,20.9481,466.975,0.226729,0.0,0.0
446,111.25,31.3244,33.6079,163.318,102.628,99.6659,0.000744936,0.0533523,20.9481,466.955,0.268726,0.0,0.0
448,111.75,31.3899,34.4163,161.941,102.612,99.6684,0.000700368,0.0533161,20.9481,466.985,0.267056,0.0,0.0
450,112.25,31.5773,34.1737,165.202,102.627,99.3059,0.000653988,0.053308,20.9481,466.985,0.301897,0.0,0.0
452,112.75,31.2326,33.617,162.109,102.61,100.165,0.000607168,0.0533145,20.9481,467.005,0.221234,0.0,0.0
454,113.25,31.4943,33.9501,159.928,102.613,99.8971,0.00056218,0.0533257,20.9481,466.995,0.246172,0.0,0.0
456,113.75,31.5794,34.0799,157.003,102.601,99.6157,0.000519381,0.0533481,20.9481,466.975,0.270953,0.0,0.0
458,114.25,31.2912,33.4851,156.786,102.602,100.001,0.000480219,0.0533663,20.9481,466.965,0.235597,0.0,0.0
460,114.75,31.5359,34.2807,162.637,102.602,99.4742,0.000444453,0.0534163,20.9481,466.965,0.284106,0.0,0.0
462,115.25,31.2409,34.4,162.235,102.589,99.6628,0.000415483,0.0534885,20.9481,466.975,0.265506,0.0,0.0
464,115.75,31.4399,34.0696,162.027,102.584,99.9448,0.000385598,0.0536457,20.9481,466.975,0.239177,0.0,0.0
466,116.25,31.0187,33.8968,160.887,102.581,100.144,0.000355615,0.0538619,20.9477,466.995,0.220651,0.0,0.0
468,116.75,31.2652,33.4862,161.836,102.571,99.9924,0.000322988,0.054037,20.9473,466.975,0.233623,0.0,0.0
470,117.25,31.6427,33.6291,159.636,102.57,99.3398,0.000289053,0.0544201,20.947,466.985,0.293597,0.0,0.0
472,117.75,31.1468,33.2976,165.23,102.557,99.492,0.000261565,0.0547304,20.9468,467.005,0.278449,0.0,0.0
474,118.25,31.1261,34.0189,159.82,102.566,100.091,0.000227757,0.0551426,20.9466,466.995,0.224148,0.0,0.0
476,118.75,31.7664,33.6102,160.959,102.551,99.6735,0.000207877,0.0554766,20.9463,466.975,0.261132,0.0,0.0
478,119.25,31.4202,33.5525,162.024,102.543,99.9321,0.000173881,0.055747,20.9458,466.975,0.236691,0.0,0.0
480,119.75,31.4685,33.9948,165.406,102.53,99.8003,0.000149999,0.0560734,20.9451,466.985,0.247587,0.0,0.0
482,120.25,31.431,33.7011,159.731,102.537,99.6152,0.000130655,0.0563378,20.9443,466.995,0.265285,0.0,0.0
484,120.75,31.2593,33.3754,161.618,102.532,99.4879,0.000125247,0.056713,20.9437,466.995,0.276537,0.0,0.0
486,121.25,31.4337,33.7098,163.304,102.522,100.109,0.000130101,0.0570168,20.9432,466.995,0.21862,0.0,0.0
488,121.75,31.3282,33.5401,162.508,102.517,99.5675,0.000159638,0.0571464,20.9428,466.985,0.267869,0.0,0.0
490,122.25,31.4956,33.2365,160.878,102.518,99.8185,0.000183563,0.0575163,20.9425,466.985,0.244876,0.0,0.0
492,122.75,31.0302,33.7119,162.241,102.504,100.265,0.000202942,0.0579494,20.9418,466.985,0.202609,0.0,0.0
494,123.25,31.102,33.6157,165.344,102.488,99.6476,0.00023341,0.0583992,20.9412,466.985,0.257868,0.0,0.0
496,123.75,31.2503,33.7951,160.198,102.487,99.7085,0.000271382,0.0588525,20.9403,466.985,0.252229,0.0,0.0
498,124.25,31.3767,33.3442,158.554,102.478,99.9037,0.000303424,0.0593329,20.9395,466.975,0.233468,0.0,0.0
500,124.75,31.3543,33.4357,158.064,102.495,99.8317,0.000330535,0.0598238,20.9389,466.955,0.241634,0.0,0.0
502,125.25,31.1765,33.4187,167.081,102.474,99.7465,0.000352495,0.0602215,20.9385,466.945,0.247513,0.0,0.0
504,125.75,31.5291,34.0089,158.143,102.475,99.6547,0.000359297,0.0607488,20.9378,466.945,0.25607,0.0,0.0
506,126.25,31.7237,33.8763,161.848,102.46,99.6497,0.000364807,0.0613606,20.9371,466.935,0.255172,0.0,0.0
508,126.75,31.0636,34.0809,159.213,102.466,99.9113,0.00036028,0.0619411,20.9365,466.955,0.231664,0.0,0.0
510,127.25,31.2559,33.8442,163.341,102.455,100.037,0.000354091,0.0624877,20.9363,466.935,0.219171,0.0,0.0
512,127.75,31.0903,33.9607,162.14,102.458,99.5777,0.000339658,0.0629305,20.9359,466.955,0.261694,0.0,0.0
514,128.25,31.6914,33.8501,159.081,102.444,99.709,0.0003245,0.0634103,20.9355,466.955,0.248344,0.0,0.0
516,128.75,30.9766,34.1245,160.004,102.446,100.044,0.000317359,0.0637989,20.9352,466.945,0.217781,0.0,0.0
518,129.25,31.1263,33.487,161.3,102.441,99.7232,0.000316196,0.0641491,20.935,466.945,0.246742,0.0,0.0
520,129.75,31.2502,33.807,166.327,102.446,99.8408,0.000327455,0.0644646,20.9348,466.955,0.236404,0.0,0.0
522,130.25,30.7912,33.8663,161.905,102.426,99.9975,0.000347557,0.0645992,20.9347,466.945,0.220204,0.0,0.0
524,130.75,31.4705,33.8904,159.563,102.434,99.4996,0.000367052,0.0648696,20.9346,466.965,0.266678,0.0,0.0
526,131.25,30.9629,34.4899,159.592,102.429,100.132,0.000385734,0.0650744,20.9346,466.955,0.208104,0.0,0.0
528,131.75,31.242,33.4106,161.68,102.44,99.569,0.000400866,0.0652276,20.9347,466.955,0.260826,0.0,0.0
530,132.25,31.6303,34.2506,162.831,102.428,99.4833,0.000413123,0.0653517,20.9347,466.955,0.267657,0.0,0.0
532,132.75,30.8949,33.9666,157.528,102.418,99.5198,0.000386444,0.065426,20.9348,466.955,0.263441,0.0,0.0
534,133.25,31.5991,33.8044,163.296,102.416,99.7085,0.000364834,0.0654861,20.9348,466.955,0.245879,0.0,0.0
536,133.75,30.9623,33.4613,158.005,102.411,99.3799,0.000314415,0.0654541,20.9348,466.945,0.275653,0.0,0.0
538,134.25,30.933,33.9791,161.277,102.398,99.9042,0.000273575,0.0654282,20.9348,466.945,0.226259,0.0,0.0
540,134.75,30.8963,33.9021,162.035,102.401,99.7009,0.00022344,0.0653647,20.9348,466.955,0.245176,0.0,0.0
542,135.25,31.3466,34.1414,160.62,102.384,99.8728,0.00018283,0.065275,20.9348,466.945,0.227854,0.0,0.0
544,135.75,31.153,33.7325,161.547,102.395,99.4707,0.000146282,0.0652024,20.9349,466.955,0.265908,0.0,0.0
546,136.25,31.375,33.9375,165.986,102.371,99.4296,0.000116679,0.0650897,20.9349,466.955,0.267519,0.0,0.0
548,136.75,31.108,34.1432,161.084,102.389,100.131,9.26998e-05,0.0649984,20.9349,466.945,0.204568,0.0,0.0
550,137.25,31.6273,34.2746,159.41,102.377,99.3834,7.32769e-05,0.0649245,20.9349,466.945,0.272296,0.0,0.0
552,137.75,31.1249,33.4092,161.917,102.379,100.147,5.62622e-05,0.0648647,20.9349,466.935,0.202278,0.0,0.0
554,138.25,31.0092,33.1286,161.325,102.365,99.3566,4.84012e-05,0.0647737,20.9351,466.935,0.273706,0.0,0.0
556,138.75,31.4532,33.4487,160.135,102.367,99.4468,3.49589e-05,0.0646618,20.9355,466.945,0.265559,0.0,0.0
558,139.25,31.7821,33.9077,163.63,102.352,99.21,2.40707e-05,0.0645286,20.9359,466.945,0.286105,0.0,0.0
560,139.75,30.7347,33.6451,162.235,102.368,99.6126,1.64696e-05,0.0643826,20.9366,466.935,0.250345,0.0,0.0
562,140.25,31.2158,33.4924,160.137,102.343,99.0929,1.03127e-05,0.0642147,20.9371,466.945,0.29617,0.0,0.0
564,140.75,31.4621,33.4998,160.532,102.355,99.5087,1.38542e-05,0.0640342,20.9376,466.945,0.258817,0.0,0.0
566,141.25,31.2549,34.1399,162.164,102.334,99.7703,1.67228e-05,0.0639572,20.938,466.945,0.2328,0.0,0.0
568,141.75,30.7914,33.4528,162.445,102.332,99.783,2.73822e-05,0.0637478,20.9382,466.935,0.231486,0.0,0.0
570,142.25,31.0723,33.6265,163.912,102.325,100.119,4.35188e-05,0.0635081,20.9383,466.945,0.199955,0.0,0.0
572,142.75,31.3563,34.0612,164.913,102.33,99.3799,6.3004e-05,0.0633139,20.9384,466.955,0.268448,0.0,0.0
574,143.25,31.4032,33.9956,159.41,102.301,100.004,8.45602e-05,0.0630997,20.9389,466.925,0.208331,0.0,0.0
576,143.75,30.8303,33.709,159.314,102.301,99.5122,0.000102021,0.0628749,20.9393,466.925,0.253648,0.0,0.0
578,144.25,31.4461,33.5378,159.444,102.289,99.5082,0.000117383,0.0626858,20.9397,466.935,0.252876,0.0,0.0
580,144.75,30.9968,33.6846,161.315,102.301,99.6421,0.000129826,0.0625262,20.9399,466.925,0.241648,0.0,0.0
582,145.25,31.2421,33.9638,161.952,102.277,99.7957,0.000131373,0.0623829,20.9402,466.925,0.225329,0.0,0.0
584,145.75,31.1644,33.5655,160.35,102.287,99.9427,0.000132626,0.062254,20.9403,466.915,0.212778,0.0,0.0
586,146.25,31.6068,33.5978,164.356,102.268,99.1076,0.000133641,0.0621496,20.9405,466.925,0.288005,0.0,0.0
588,146.75,31.0856,33.7133,161.421,102.265,99.7414,0.000134463,0.0621322,20.9406,466.915,0.22932,0.0,0.0
590,147.25,31.5225,33.9495,157.422,102.255,99.2384,0.000108326,0.0621182,20.9407,466.925,0.27479,0.0,0.0
592,147.75,30.6192,33.5161,160.413,102.257,99.387,8.71555e-05,0.0622143,20.9408,466.925,0.261247,0.0,0.0
594,148.25,31.2933,33.9608,161.424,102.244,99.7237,5.78285e-05,0.0622922,20.9408,466.925,0.229066,0.0,0.0
596,148.75,31.2305,33.9072,161.742,102.247,99.7825,2.3113e-05,0.0623552,20.94,466.925,0.223877,0.0,0.0
598,149.25,31.7893,33.6166,159.276,102.236,99.7171,-1.39803e-05,0.0625195,20.9393,466.915,0.228898,0.0,0.0
600,149.75,31.116,33.811,162.477,102.245,100.033,-5.21023e-05,0.0627545,20.9387,466.925,0.200769,0.0,0.0
602,150.25,31.2475,33.4251,162.101,102.21,99.8048,-8.74681e-05,0.0629449,20.9383,466.925,0.218533,0.0,0.0
604,150.75,31.3103,33.7381,163.527,102.214,99.7845,-0.000120153,0.0631132,20.9379,466.945,0.220768,0.0,0.0
606,151.25,31.3516,32.9487,161.539,102.197,99.6106,-0.000146627,0.0632623,20.9376,466.935,0.23526,0.0,0.0
608,151.75,31.372,34.1068,163.527,102.208,100.005,-0.000165636,0.0633547,20.9374,466.915,0.199962,0.0,0.0
610,152.25,31.5301,33.4268,161.618,102.191,99.3713,-0.000181032,0.0634042,20.9372,466.925,0.256743,0.0,0.0
612,152.75,31.3188,33.7391,163.583,102.2,99.2536,-0.00018985,0.0634088,20.9373,466.925,0.268463,0.0,0.0
614,153.25,30.9338,33.7672,163.031,102.173,99.3611,-0.000196993,0.0633807,20.9376,466.925,0.25605,0.0,0.0
616,153.75,31.1512,33.2945,161.303,102.176,99.422,-0.000202779,0.0633579,20.9378,466.915,0.250692,0.0,0.0
618,154.25,30.4888,33.5542,161.65,102.153,99.2237,-0.000213554,0.0631379,20.938,466.925,0.266972,0.0,0.0
620,154.75,31.2497,34.1331,158.801,102.167,99.2896,-0.000222283,0.0629596,20.9381,466.925,0.262137,0.0,0.0
622,155.25,30.8436,33.5738,162.989,102.153,99.3758,-0.000240313,0.0626808,20.9385,466.915,0.252952,0.0,0.0
624,155.75,30.9278,33.2995,161.664,102.141,100.303,-0.000254918,0.062455,20.939,466.925,0.1666,0.0,0.0
626,156.25,31.34,33.9296,163.666,102.141,99.4955,-0.000274055,0.0622085,20.9396,466.935,0.240797,0.0,0.0
628,156.75,31.3803,33.7404,161.347,102.12,99.783,-0.000289556,0.0619515,20.9403,466.925,0.212467,0.0,0.0
630,157.25,31.2337,33.5553,165.844,102.119,99.4838,-0.000298458,0.0617434,20.9409,466.915,0.23991,0.0,0.0
632,157.75,31.2774,33.3709,163.173,102.114,99.2932,-0.000305668,0.0613599,20.9414,466.905,0.257032,0.0,0.0
634,158.25,31.1685,33.7,161.437,102.109,99.4686,-0.00030574,0.0610493,20.9418,466.915,0.240425,0.0,0.0
636,158.75,30.7829,33.7291,161.255,102.095,99.4996,-0.000300606,0.0606769,20.9421,466.905,0.236313,0.0,0.0
638,159.25,30.963,33.9417,163.838,102.099,99.5731,-0.00028491,0.0603753,20.9424,466.905,0.229905,0.0,0.0
640,159.75,31.0654,33.8159,154.39,102.088,99.3424,-0.000261812,0.0600504,20.9426,466.905,0.250154,0.0,0.0
642,160.25,31.1002,33.2092,158.398,102.079,99.2622,-0.000243103,0.0597731,20.943,466.925,0.256742,0.0,0.0
644,160.75,30.8568,33.7278,162.193,102.076,99.388,-0.000210642,0.0595358,20.9435,466.925,0.244901,0.0,0.0
646,161.25,30.5172,33.3892,161.726,102.074,99.1426,-0.000168773,0.0593436,20.9439,466.915,0.267403,0.0,0.0
648,161.75,31.4954,33.4041,160.699,102.059,99.1821,,0.0591102,,466.915,0.262372,0.0,0.0
650,162.25,30.9916,34.0766,162.957,102.064,98.9737,,0.0588513,,466.915,0.282156,0.0,0.0
652,162.75,31.0167,33.2097,160.145,102.057,99.206,,0.0586415,,466.925,0.260019,0.0,0.0
654,163.25,30.6766,33.3682,160.427,102.049,99.5853,,0.0583241,,466.915,0.224224,0.0,0.0
656,163.75,31.437,33.5243,160.297,102.034,99.3353,,0.058067,,466.925,0.245955,0.0,0.0
658,164.25,30.5864,33.3817,161.391,102.035,99.1715,,0.0578019,,466.915,0.261209,0.0,0.0
660,164.75,30.9188,33.6847,157.382,102.043,98.8434,,,,466.925,0.292319,0.0,0.0
662,165.25,30.873,33.4202,161.89,102.045,99.6177,,,,466.915,0.220864,0.0,0.0
664,165.75,31.3116,33.3347,159.381,102.007,99.2891,,,,466.915,0.247771,0.0,0.0
666,166.25,30.9133,33.5591,159.653,102.027,99.1608,,,,466.915,0.261452,0.0,0.0
668,166.75,30.6571,33.5854,159.077,102.012,100.157,,,,466.915,0.168418,0.0,0.0
670,167.25,30.8906,33.3194,161.758,102.025,99.3566,,,,466.905,0.243172,0.0,0.0
672,167.75,30.8145,33.7277,160.521,101.993,98.9519,,,,466.915,0.277728,0.0,0.0
674,168.25,30.8087,33.3351,159.437,101.991,99.2394,,,,466.925,0.250993,0.0,0.0
676,168.75,30.7768,33.3138,154.922,101.976,98.9159,,,,466.915,0.279584,0.0,0.0
678,169.25,30.7975,33.5533,158.183,101.977,99.351,,,,466.905,0.239349,0.0,0.0
680,169.75,31.1931,33.2553,163.487,101.974,99.0498,,,,466.905,0.266951,0.0,0.0
682,170.25,30.6708,33.3232,162.554,101.981,99.3672,,,,466.915,0.238296,0.0,0.0
684,170.75,30.7353,33.8163,157.543,101.969,99.2602,,,,466.915,0.24703,0.0,0.0
686,171.25,31.3555,33.5314,160.726,101.994,99.4113,,,,466.925,0.235372,0.0,0.0
688,171.75,30.864,33.7426,162.651,101.955,99.4823,,,,466.925,0.22526,0.0,0.0
690,172.25,31.1198,33.7863,157.432,101.949,99.2917,,,,466.925,0.242345,0.0,0.0