File: 01_Data/Overstuffed_Chair_Polyester_Fabric/Cone/Overstuffed_Chair_Polyester_Fabric_Cone_HF75Scan_210325_R3.csv
Names,Time,Stack TC,Smoke TC,Exh Press,Smoke Comp,Smoke Meas,CO Meter,CO2 Meter,O2 Meter,Sample Mass,Ext Coeff,Start Test,Flame Verif
Chan Gain,,500,500,1,1,1,1,1,1,1,1,1.0,1.0
Offset,,0,0,0.138348,0,0,0,0,0,0,0,0.0,0.0
Gain,,1,1,25.011,13.5067,16.616,1,1,1,1.00091,1.04608,1.0,1.0
Units,sec,C,C,Pa,%,%,%,%,%,g,/m,,
Baseline,,40.6641,44.4855,156.459,102.019,99.3066,-0.000610263,0.0819431,20.8725,-0.408496,0.247306,,
2,0.25,35.7485,37.9372,156.528,102.018,99.0026,-0.000702602,0.0882998,20.8679,468.827,0.275288,0.0,0.0
4,0.75,35.9833,38.4169,158.365,102.038,98.9955,-0.000715846,0.0888997,20.8674,470.268,0.277727,0.0,0.0
6,1.25,35.9748,37.8353,159.479,102.028,99.0949,-0.000711959,0.0893857,20.8671,472.2,0.267666,0.0,0.0
8,1.75,35.7391,38.7312,158.63,102.033,99.104,-0.000708811,0.0898338,20.8668,472.25,0.267302,0.0,0.0
10,2.25,35.9398,38.7131,159.098,102.033,99.0944,-0.000700492,0.0901967,20.8666,470.108,0.268119,0.0,0.0
12,2.75,35.9535,38.8614,161.824,102.031,98.92,-0.000688562,0.0904771,20.8664,468.486,0.284176,0.0,0.0
14,3.25,36.4945,38.6832,157.079,102.021,99.1766,-0.000675693,0.0907042,20.8662,468.536,0.259515,0.0,0.0
16,3.75,36.4761,38.4241,157.947,102.041,99.2318,-0.000662386,0.0908452,20.8661,468.496,0.256145,0.0,0.0
18,4.25,36.5884,38.9698,163.212,102.02,99.4352,-0.000651606,0.0909207,20.866,468.536,0.235471,0.0,0.0
20,4.75,36.5606,39.8704,153.247,102.023,99.2729,-0.000635567,0.0909174,20.8661,468.707,0.250717,0.0,0.0
22,5.25,36.6868,38.8811,160.544,102.017,99.5614,-0.000622576,0.0908567,20.8665,468.466,0.223567,0.0,0.0
24,5.75,36.7298,39.3905,162.717,102.031,99.2445,-0.00060372,0.0907431,20.8667,468.486,0.25412,0.0,0.0
26,6.25,36.6488,39.5159,155.006,102.019,99.1187,-0.000580947,0.090593,20.867,468.466,0.264681,0.0,0.0
28,6.75,37.14,39.7131,158.725,102.019,99.1603,-0.000562501,0.0904715,20.8671,468.486,0.260832,0.0,0.0
30,7.25,37.2441,39.7766,155.88,102.024,99.1781,-0.000506147,0.0902507,20.8671,468.516,0.259597,0.0,0.0
32,7.75,37.3835,39.844,153.674,102.014,99.2633,-0.0004605,0.0900718,20.8671,468.476,0.250866,0.0,0.0
34,8.25,37.0271,39.6169,153.369,102.024,98.9519,-0.000346791,0.0903137,20.8655,468.466,0.280582,0.0,0.0
36,8.75,37.3312,39.838,156.877,102.017,98.707,-0.000254687,0.0908579,20.8627,468.446,0.302656,0.0,0.0
38,9.25,37.4874,40.6226,161.921,102.01,98.2303,-3.96535e-05,0.0927155,20.8565,468.406,0.346482,0.0,1.0
40,9.75,36.9358,40.449,155.594,102.019,95.7426,0.000134524,0.0954955,20.848,468.006,0.582606,0.0,1.0
42,10.25,37.4629,40.2562,150.946,102.022,91.976,0.000471894,0.0977472,20.8351,468.406,0.951227,0.0,1.0
44,10.75,37.8018,40.7943,156.614,102.014,89.3017,0.000745164,0.104793,20.8192,468.386,1.22125,0.0,1.0
46,11.25,37.5449,41.4323,151.703,102.016,87.246,0.000966512,0.1105,20.8064,468.286,1.43514,0.0,1.0
48,11.75,38.203,41.5287,154.584,102.006,85.2075,0.00160127,0.121541,20.7842,468.286,1.65115,0.0,1.0
50,12.25,38.1798,41.9412,152.646,102.01,82.373,0.00211543,0.130485,20.7661,468.276,1.96197,0.0,1.0
52,12.75,38.7671,42.8246,150.931,102.011,81.5155,0.00296901,0.145352,20.7444,468.216,2.0581,0.0,1.0
54,13.25,37.7071,42.0198,150.896,102.009,82.0028,0.00366042,0.157395,20.7204,468.176,2.00323,0.0,1.0
56,13.75,37.7133,42.1143,147.625,101.999,77.542,0.00467409,0.173075,20.6923,468.166,2.51559,0.0,1.0
58,14.25,37.6513,42.7656,147.62,102.012,77.1034,0.00549517,0.191109,20.662,468.096,2.56879,0.0,0.0
60,14.75,38.53,43.6135,146.018,102.007,77.1972,0.00659472,0.205717,20.6247,468.036,2.55722,0.0,0.0
62,15.25,38.8034,44.3597,141.517,102.012,72.6898,0.00748536,0.232124,20.583,467.956,3.10973,0.0,0.0
64,15.75,39.661,45.3868,141.725,102.004,70.8501,0.00852117,0.253514,20.5493,467.906,3.34417,0.0,0.0
66,16.25,40.1137,46.3584,140.403,102.008,70.9885,0.00936018,0.282152,20.5155,467.826,3.32663,0.0,0.0
68,16.75,40.7508,47.203,142.183,101.996,70.5448,0.0100398,0.305349,20.4824,467.746,3.38313,0.0,0.0
70,17.25,41.8089,48.4319,140.096,102.017,69.9379,0.0105903,0.33335,20.4555,467.616,3.46427,0.0,0.0
72,17.75,41.4933,49.9692,143.831,101.998,69.2711,0.0113543,0.356032,20.4335,467.526,3.55044,0.0,0.0
74,18.25,42.7819,50.2553,143.276,102.007,67.7179,0.0119732,0.379844,20.4155,467.375,3.75942,0.0,0.0
76,18.75,43.1637,50.7786,143.613,101.998,69.0444,0.0124745,0.399132,20.4009,467.315,3.58055,0.0,0.0
78,19.25,43.7142,51.4073,144.296,102.005,70.697,0.0127551,0.414755,20.3891,467.245,3.36418,0.0,0.0
80,19.75,44.0155,52.1206,145.846,102.016,69.5205,0.0129824,0.429077,20.3795,467.195,3.51908,0.0,0.0
82,20.25,42.8303,53.0986,143.322,102.002,71.8541,0.0129322,0.442178,20.3717,467.145,3.21486,0.0,0.0
84,20.75,44.5858,53.5067,138.736,101.978,70.1387,0.0128916,0.45279,20.3654,467.135,3.43448,0.0,0.0
86,21.25,46.0633,53.8186,149.132,102,74.4012,0.0125382,0.4597,20.3684,467.055,2.89508,0.0,0.0
88,21.75,45.235,54.3527,145.061,101.988,76.7794,0.0122519,0.463781,20.3781,467.025,2.60528,0.0,0.0
90,22.25,45.8063,54.5991,147.498,101.998,78.1399,0.0116893,0.467086,20.3924,466.935,2.44496,0.0,0.0
92,22.75,45.6376,54.6733,143.117,101.988,79.4887,0.0112336,0.464546,20.4098,466.875,2.28703,0.0,0.0
94,23.25,46.4693,54.8865,145.436,101.985,78.5557,0.0105543,0.462489,20.4295,466.885,2.39511,0.0,0.0
96,23.75,46.0884,55.0419,149.354,101.974,79.1135,0.010004,0.455349,20.4503,466.855,2.32919,0.0,0.0
98,24.25,45.9031,55.0525,154.506,101.977,81.8355,0.00929586,0.449565,20.4723,466.815,2.01911,0.0,0.0
100,24.75,46.3158,55.2915,150.323,101.971,84.3136,0.00872223,0.438854,20.4947,466.815,1.74478,0.0,0.0
102,25.25,46.1101,54.9291,151.895,101.976,86.067,0.00825759,0.430178,20.5128,466.765,1.55638,0.0,0.0
104,25.75,46.0419,54.941,150.522,101.967,87.2359,0.00760306,0.417431,20.5341,466.745,1.43175,0.0,0.0
106,26.25,45.9395,54.7181,152.217,101.981,86.9402,0.00707288,0.407106,20.5513,466.715,1.4642,0.0,0.0
108,26.75,45.9955,54.5497,150.795,101.982,85.5554,0.00647652,0.39363,20.5685,466.685,1.61165,0.0,0.0
110,27.25,45.7353,54.5155,151.495,101.972,87.715,0.00599346,0.382715,20.5853,466.655,1.38197,0.0,0.0
112,27.75,45.719,54.5598,153.147,101.961,88.3859,0.0055017,0.370709,20.599,466.635,1.31109,0.0,0.0
114,28.25,45.3958,54.2312,158.639,101.981,89.9837,0.00501294,0.358137,20.6153,466.635,1.14843,0.0,0.0
116,28.75,45.6875,54.381,149.028,101.971,90.1003,0.00454494,0.347954,20.6285,466.615,1.13566,0.0,0.0
118,29.25,45.2246,54.073,152.912,101.963,91.2636,0.00410096,0.333215,20.644,466.625,1.01724,0.0,0.0
120,29.75,45.7692,53.8113,152.113,101.944,94.8801,0.00374133,0.321276,20.6609,466.635,0.658898,0.0,0.0
122,30.25,45.3901,53.4636,153.67,101.974,96.4835,0.00332091,0.306551,20.6777,466.625,0.507908,0.0,0.0
124,30.75,45.5883,53.3227,156.27,101.95,98.3906,0.00298036,0.294624,20.6939,466.615,0.326109,0.0,0.0
126,31.25,45.1017,52.8652,157.115,101.962,98.5853,0.00262848,0.284963,20.7096,466.625,0.309007,0.0,0.0
128,31.75,44.8749,53.068,153.707,101.947,98.8074,0.00234346,0.271076,20.7246,466.625,0.287022,0.0,0.0
130,32.25,44.7396,52.5186,157.262,101.953,99.3155,0.00208424,0.259828,20.7368,466.635,0.24055,0.0,0.0
132,32.75,44.6223,52.0636,155.337,101.944,99.1045,0.00184876,0.247025,20.7497,466.635,0.259171,0.0,0.0
134,33.25,44.5424,51.8291,156.292,101.958,99.2775,0.00164901,0.236655,20.7601,466.635,0.244473,0.0,0.0
136,33.75,44.845,52.0977,154.351,101.936,99.2998,0.0014791,0.225063,20.7712,466.655,0.240444,0.0,0.0
138,34.25,44.1959,51.4767,156.8,101.946,98.9585,0.00133312,0.215674,20.7802,466.635,0.272961,0.0,0.0
140,34.75,44.4824,51.5578,151.073,101.933,99.316,0.00120734,0.206486,20.7888,466.625,0.238648,0.0,0.0
142,35.25,43.9519,51.0923,152.619,101.944,99.3119,0.00110545,0.197621,20.7958,466.615,0.239988,0.0,0.0
144,35.75,43.9424,50.9292,158.68,101.936,99.1243,0.0010046,0.19044,20.8028,466.655,0.256671,0.0,0.0
146,36.25,43.5434,50.7408,157.782,101.945,98.9879,0.000922913,0.182122,20.8084,466.645,0.270088,0.0,0.0
148,36.75,43.6041,50.1238,157.882,101.932,99.388,0.000849415,0.175383,20.8143,466.595,0.231887,0.0,0.0
150,37.25,43.5749,50.1924,152.428,101.943,99.2445,0.000789881,0.16843,20.819,466.595,0.246185,0.0,0.0
152,37.75,43.4179,49.7387,152.538,101.921,99.0964,0.000730669,0.162798,20.8234,466.615,0.257881,0.0,0.0
154,38.25,43.1346,49.9998,152.972,101.93,99.2445,0.000682707,0.157025,20.8273,466.595,0.244997,0.0,0.0
156,38.75,42.6134,49.3127,155.172,101.921,99.1634,0.000643858,0.152349,20.8304,466.615,0.251685,0.0,0.0
158,39.25,42.8211,49.4244,154.374,101.932,99.672,0.000612391,0.147493,20.833,466.595,0.205706,0.0,0.0
160,39.75,42.8547,49.0151,156.476,101.937,99.492,0.000586902,0.143559,20.8355,466.605,0.222739,0.0,0.0
162,40.25,42.7658,49.1355,155.196,101.924,99.3089,0.000566256,0.139488,20.8376,466.625,0.238525,0.0,0.0
164,40.75,42.5948,48.9919,155.355,101.91,99.5482,0.000549533,0.13619,20.8393,466.625,0.215175,0.0,0.0
166,41.25,42.3709,48.8846,154.842,101.919,99.2709,0.000537208,0.133518,20.8409,466.625,0.241595,0.0,0.0
168,41.75,41.5669,47.4266,158.127,101.93,99.4321,0.000527225,0.13025,20.8424,466.625,0.227666,0.0,0.0
170,42.25,41.3159,47.2464,155.4,101.925,99.1228,0.000513999,0.127603,20.8438,466.585,0.255774,0.0,0.0
172,42.75,41.5342,47.4993,156.799,101.913,99.2029,0.000498659,0.125459,20.8454,466.605,0.247358,0.0,0.0
174,43.25,41.052,47.4891,152.355,101.911,99.4047,0.00047525,0.123723,20.8471,466.625,0.228487,0.0,0.0
176,43.75,40.9726,46.89,151.573,101.908,99.2719,0.000456289,0.121243,20.8485,466.615,0.240461,0.0,0.0
178,44.25,41.1611,46.7485,157.347,101.91,99.1649,0.000436434,0.119234,20.8501,466.605,0.250542,0.0,0.0
180,44.75,41.2455,46.5717,155.263,101.913,99.4519,0.000416306,0.117099,20.8514,466.605,0.224319,0.0,0.0
182,45.25,40.7397,46.7412,158.091,101.911,99.1035,0.000401287,0.115369,20.8524,466.585,0.256333,0.0,0.0
184,45.75,40.6661,46.8992,154.116,101.892,99.2912,0.000390278,0.113653,20.8532,466.605,0.237307,0.0,0.0
186,46.25,40.8811,46.4979,158.497,101.905,99.281,0.00038136,0.112263,20.8539,466.595,0.239395,0.0,0.0
188,46.75,40.7169,46.4294,157.017,101.905,99.3561,0.000374779,0.110781,20.8545,466.585,0.232424,0.0,0.0
190,47.25,40.2812,46.1159,157.512,101.901,99.1948,0.000370026,0.10958,20.8549,466.595,0.246995,0.0,0.0
192,47.75,40.2422,46.0593,157.861,101.903,99.4899,0.000366818,0.108413,20.8553,466.615,0.219883,0.0,0.0
194,48.25,40.4951,45.8304,156.525,101.893,99.2881,0.000364798,0.107292,20.8555,466.615,0.237625,0.0,0.0
196,48.75,40.1748,45.8246,151.491,101.884,99.5665,0.000363161,0.106385,20.856,466.615,0.211116,0.0,0.0
198,49.25,40.4356,45.5232,160.742,101.885,99.2217,0.00036312,0.105362,20.8566,466.625,0.243099,0.0,0.0
200,49.75,40.243,45.6327,157.657,101.885,99.422,0.000364243,0.104534,20.8571,466.605,0.224519,0.0,0.0
202,50.25,40.3032,45.4982,150.902,101.884,99.3794,0.000365153,0.103741,20.8575,466.585,0.228377,0.0,0.0
204,50.75,40.1385,45.5645,155.235,101.889,99.1659,0.000357349,0.102988,20.8578,466.595,0.248555,0.0,0.0
206,51.25,40.1819,45.6092,157.291,101.882,99.319,0.000351027,0.102379,20.858,466.605,0.233766,0.0,0.0
208,51.75,39.9789,44.8193,158.108,101.883,99.1213,0.000330051,0.101735,20.8582,466.595,0.252129,0.0,0.0
210,52.25,39.6126,45.1566,153.655,101.888,99.3302,0.00031306,0.101213,20.8584,466.575,0.233254,0.0,0.0
212,52.75,39.8299,44.8446,157.066,101.871,99.5665,0.000287106,0.100683,20.8585,466.535,0.209928,0.0,0.0
214,53.25,40.3488,44.5806,160.082,101.867,99.3956,0.000266083,0.100156,20.8589,466.535,0.225357,0.0,0.0
216,53.75,40.0525,45.0633,153.088,101.864,99.5716,0.000241998,0.0996721,20.8593,466.545,0.208905,0.0,0.0
218,54.25,40.0541,44.8214,154.014,101.873,99.1071,0.000216139,0.0992283,20.8597,466.575,0.252589,0.0,0.0
220,54.75,39.8535,44.8562,155.712,101.866,99.3414,0.000195193,0.0988257,20.86,466.575,0.23033,0.0,0.0
222,55.25,40.2388,44.6061,162.814,101.865,99.2546,0.00017579,0.0984608,20.8603,466.575,0.238195,0.0,0.0
224,55.75,39.8147,44.9853,155.919,101.862,99.5487,0.000160073,0.0981653,20.8605,466.575,0.210747,0.0,0.0
226,56.25,40.1258,44.639,154.771,101.866,99.2597,0.000168063,0.0977621,20.8607,466.555,0.2378,0.0,0.0
228,56.75,40.2151,44.2289,154.355,101.866,99.6933,0.000174534,0.0974356,20.8608,466.545,0.197882,0.0,0.0
230,57.25,39.7837,43.9473,153.469,101.866,99.316,0.000220031,0.0971208,20.8609,466.555,0.232598,0.0,0.0
232,57.75,39.1279,44.3312,149.921,101.862,99.6557,0.000256883,0.0968206,20.861,466.555,0.200965,0.0,0.0
234,58.25,40.1187,43.9948,153.32,101.853,99.461,0.00030923,0.0965631,20.8611,466.545,0.218058,0.0,0.0
236,58.75,39.3603,44.2003,160.208,101.85,99.7085,0.000371879,0.0963416,20.8611,466.555,0.195033,0.0,0.0
238,59.25,39.2342,43.7969,154.912,101.879,99.1923,0.000434847,0.0961048,20.8612,466.555,0.245225,0.0,0.0
240,59.75,39.1842,44.1274,156.426,101.869,99.3201,0.000496853,0.0958613,20.8612,466.555,0.232484,0.0,0.0
242,60.25,39.5655,43.9932,155.538,101.859,99.2049,0.000547078,0.0956641,20.8613,466.525,0.242307,0.0,0.0
244,60.75,38.9191,44.2511,156.899,101.863,98.9433,0.00058776,0.0953544,20.8613,466.535,0.266875,0.0,0.0
246,61.25,39.7299,43.7737,163.247,101.858,99.2521,0.000599931,0.0951035,20.8613,466.505,0.237798,0.0,0.0
248,61.75,39.5899,43.6965,157.489,101.865,99.5087,0.00060979,0.0948185,20.8613,466.515,0.214738,0.0,0.0
250,62.25,39.5844,44.0937,152.796,101.848,99.1329,0.000604336,0.0945877,20.8613,466.525,0.247967,0.0,0.0
252,62.75,39.4093,43.429,157.203,101.859,99.208,0.000599918,0.0944008,20.8614,466.515,0.241988,0.0,0.0
254,63.25,38.9625,44.3611,154.033,101.849,99.1826,0.00059634,0.0942278,20.8614,466.525,0.243442,0.0,0.0
256,63.75,38.8593,43.2599,162.467,101.864,99.2141,0.000570238,0.0940683,20.8614,466.545,0.241909,0.0,0.0
258,64.25,39.1436,43.616,156.675,101.857,99.176,0.000549096,0.0939392,20.8614,466.525,0.24472,0.0,0.0
260,64.75,38.8866,43.8206,151.643,101.858,99.4615,0.000508783,0.0937392,20.8614,466.515,0.218456,0.0,0.0
262,65.25,38.9428,43.5185,160.941,101.835,99.3277,0.00047613,0.0935772,20.8614,466.505,0.228773,0.0,0.0
264,65.75,39.3509,43.5387,155.804,101.856,99.1968,0.000414316,0.0933915,20.8614,466.515,0.24276,0.0,0.0
266,66.25,39.0355,43.9523,156.685,101.843,98.991,0.000364247,0.0932411,20.8614,466.515,0.260636,0.0,0.0
268,66.75,39.1567,43.6111,154.127,101.85,99.0675,0.000306379,0.0931193,20.8614,466.525,0.25421,0.0,0.0
270,67.25,39.028,43.474,156.893,101.847,99.1066,0.000243924,0.0929798,20.8614,466.525,0.250297,0.0,0.0
272,67.75,39.3949,43.2778,159.285,101.853,98.924,0.000193336,0.0928667,20.8614,466.505,0.267771,0.0,0.0
274,68.25,39.2135,43.1699,158.59,101.85,99.5021,0.000124349,0.092748,20.8614,466.515,0.214046,0.0,0.0
276,68.75,39.0369,43.6509,152.904,101.864,99.4671,6.84689e-05,0.0926517,20.8614,466.505,0.218536,0.0,0.0
278,69.25,38.9906,43.9272,152.691,101.841,99.1771,2.56425e-05,0.0924921,20.8614,466.525,0.243254,0.0,0.0
280,69.75,38.8157,43.4781,156.254,101.847,99.3038,7.38484e-06,0.0923628,20.8614,466.485,0.232052,0.0,0.0
282,70.25,38.974,43.7174,158.281,101.84,99.2683,-2.38357e-05,0.0922509,20.8618,466.485,0.234701,0.0,0.0
284,70.75,39.4513,43.2597,154.014,101.848,99.4433,-1.01514e-05,0.0921538,20.8622,466.505,0.219249,0.0,0.0
286,71.25,39.3696,43.4339,160.37,101.833,99.2952,9.32774e-07,0.0920752,20.8625,466.495,0.231586,0.0,0.0
288,71.75,38.7983,42.9628,158.186,101.853,99.3419,3.42901e-05,0.0919842,20.8627,466.505,0.229058,0.0,0.0
290,72.25,39.2159,43.0935,154.242,101.814,99.4671,8.32507e-05,0.0919106,20.8629,466.525,0.214004,0.0,0.0
292,72.75,39.0488,43.4429,152.333,101.848,99.0969,0.000135752,0.091829,20.863,466.485,0.2513,0.0,0.0
294,73.25,39.2025,43.4413,156.254,101.832,99.0229,0.000189838,0.0916896,20.8632,466.505,0.25671,0.0,0.0
296,73.75,39.0903,42.8226,150.864,101.863,99.3216,0.000223372,0.0915767,20.8633,466.505,0.231823,0.0,0.0
298,74.25,38.7079,42.8993,157.835,101.835,98.8475,0.000241286,0.0915124,20.8634,466.525,0.273206,0.0,0.0
300,74.75,38.5891,42.7646,158.085,101.845,99.2085,0.000255797,0.0914603,20.8634,466.495,0.240716,0.0,0.0
302,75.25,38.7559,42.8462,160.825,101.836,99.5371,0.000253431,0.091411,20.8635,466.505,0.209484,0.0,0.0
304,75.75,38.9617,42.7449,157.057,101.85,99.3708,0.000238806,0.0913646,20.8635,466.495,0.226091,0.0,0.0
306,76.25,38.8539,43.2933,152.592,101.821,99.2156,0.000231451,0.091327,20.8636,466.475,0.237831,0.0,0.0
308,76.75,39.3358,42.6168,152.69,101.846,99.2663,0.000229537,0.0912966,20.8636,466.505,0.235408,0.0,0.0
310,77.25,39.0853,42.9292,154.3,101.818,99.2115,0.000227986,0.0912719,20.8636,466.485,0.237946,0.0,0.0
312,77.75,38.7681,43.0279,154.225,101.844,98.992,0.000253564,0.0912247,20.8636,466.465,0.260616,0.0,0.0
314,78.25,38.4387,43.3196,158.401,101.826,99.0112,0.000274282,0.0911865,20.8636,466.445,0.257233,0.0,0.0
316,78.75,38.5568,43.1265,155.128,101.834,99.1908,0.000305709,0.0911197,20.8636,466.455,0.241282,0.0,0.0
318,79.25,38.3306,43.5107,149.831,101.812,99.1329,0.000331165,0.0910334,20.8637,466.485,0.244698,0.0,0.0
320,79.75,38.8354,42.7782,156.816,101.837,99.2516,0.000346902,0.0909348,20.8637,466.465,0.235951,0.0,0.0
322,80.25,38.6682,42.8629,156.683,101.825,98.9311,0.000359649,0.0908292,20.8637,466.475,0.26455,0.0,0.0
324,80.75,38.9249,42.8184,155.021,101.831,99.3145,0.000369973,0.090715,20.8637,466.475,0.229619,0.0,0.0
326,81.25,38.8331,42.8964,155.872,101.826,99.0792,0.000353932,0.0905967,20.8637,466.465,0.250976,0.0,0.0
328,81.75,38.8396,43.0039,153.567,101.824,99.315,0.000340938,0.0905009,20.8638,466.475,0.228978,0.0,0.0
330,82.25,38.5775,42.9703,154.068,101.825,99.2262,0.000330413,0.0904233,20.8639,466.475,0.237255,0.0,0.0
332,82.75,38.7461,42.9687,155.675,101.832,99.175,0.000304816,0.0903605,20.864,466.455,0.242623,0.0,0.0
334,83.25,38.1328,42.3785,154.043,101.841,98.9631,0.000284083,0.0903028,20.8641,466.465,0.263073,0.0,0.0
336,83.75,38.5572,42.8371,155.255,101.826,99.3175,0.000267289,0.09025,20.8642,466.455,0.228892,0.0,0.0
338,84.25,38.6549,42.5775,158.607,101.829,99.2972,0.000253686,0.0902073,20.8643,466.465,0.23099,0.0,0.0
340,84.75,38.9818,42.7813,156.03,101.822,99.0777,0.000258519,0.0901455,20.8643,466.475,0.25067,0.0,0.0
342,85.25,38.4657,42.7965,159.011,101.817,99.3753,0.000262434,0.0900954,20.8644,466.485,0.222772,0.0,0.0
344,85.75,38.7316,43.0153,158.259,101.822,99.1517,0.000290008,0.0900476,20.8644,466.465,0.243817,0.0,0.0
346,86.25,38.1755,43.3103,154.006,101.816,99.3282,0.000312342,0.0900025,20.8644,466.465,0.226979,0.0,0.0
348,86.75,38.4415,42.5166,154.533,101.823,99.0777,0.000330433,0.089966,20.8649,466.455,0.250782,0.0,0.0
350,87.25,38.1292,42.6903,153.352,101.818,99.1684,0.000389051,0.089882,20.8653,466.465,0.241971,0.0,0.0
352,87.75,38.1541,42.1767,155.392,101.817,99.0503,0.000436532,0.0897853,20.8656,466.455,0.252799,0.0,0.0
354,88.25,38.8046,42.9944,156.109,101.826,99.1629,0.000498217,0.0896813,20.8659,466.465,0.243193,0.0,0.0
356,88.75,38.686,42.8019,158.226,101.819,99.2678,0.000548182,0.089597,20.8661,466.465,0.232817,0.0,0.0
358,89.25,38.7241,42.1958,158.297,101.825,99.0305,0.000593803,0.0895287,20.8663,466.485,0.255374,0.0,0.0
360,89.75,38.7661,42.6839,155.129,101.833,99.1345,0.00063539,0.0894734,20.8664,466.485,0.246453,0.0,0.0
362,90.25,38.01,42.9865,161.309,101.814,99.0508,0.000665213,0.0894143,20.8665,466.455,0.252454,0.0,0.0
364,90.75,38.956,42.555,152.804,101.824,99.4052,0.000685894,0.0893535,20.8666,466.455,0.220605,0.0,0.0
366,91.25,38.7989,43.1909,157.841,101.824,99.279,0.000702646,0.0893043,20.8667,466.485,0.232267,0.0,0.0
368,91.75,38.51,42.4495,154.945,101.847,99.1629,0.000707657,0.0892236,20.8668,466.485,0.245087,0.0,0.0
370,92.25,38.3676,42.2228,160.962,101.823,99.2988,0.000711715,0.0891583,20.8667,466.475,0.230328,0.0,0.0
372,92.75,38.5434,42.859,157.701,101.82,99.3317,0.000711143,0.0890911,20.8666,466.485,0.227061,0.0,0.0
374,93.25,38.3716,42.3115,158.511,101.817,99.0381,0.000707205,0.0890237,20.8665,466.485,0.253926,0.0,0.0
376,93.75,38.9295,42.0495,156.748,101.815,99.3292,0.000699513,0.0889259,20.8665,466.475,0.226812,0.0,0.0
378,94.25,37.9494,42.4146,158.617,101.81,98.9818,0.000689229,0.0888076,20.8662,466.475,0.25851,0.0,0.0
380,94.75,38.2909,42.6195,152.324,101.809,99.3119,0.000675755,0.0887118,20.8657,466.465,0.227885,0.0,0.0
382,95.25,38.5975,42.681,152.995,101.822,99.2516,0.00066021,0.0886749,20.8654,466.455,0.234651,0.0,0.0
384,95.75,38.3798,41.9121,156.204,101.823,99.3758,0.000647619,0.0886451,20.8651,466.465,0.223247,0.0,0.0
386,96.25,38.6488,42.5135,153.67,101.818,99.2643,0.000630349,0.0886345,20.8648,466.485,0.233108,0.0,0.0
388,96.75,38.1885,42.7316,153.71,101.813,99.2673,0.000609996,0.088626,20.8647,466.475,0.232343,0.0,0.0
390,97.25,38.4125,42.3955,156.425,101.815,99.2394,0.00059351,0.0886054,20.8645,466.475,0.235106,0.0,0.0
392,97.75,38.6544,42.2751,154.289,101.811,99.2587,0.000583268,0.0885888,20.8647,466.455,0.232992,0.0,0.0
394,98.25,38.521,42.3296,153.013,101.846,99.208,0.000565755,0.0885324,20.865,466.445,0.240837,0.0,0.0
396,98.75,38.1502,42.7738,156.468,101.817,99.2399,0.000556454,0.0884481,20.8652,466.445,0.235246,0.0,0.0
398,99.25,38.5844,42.3571,154.722,101.816,99.2359,0.00054892,0.0883798,20.8654,466.465,0.235509,0.0,0.0
400,99.75,38.715,42.3445,154.763,101.82,99.3221,0.000556252,0.0883245,20.8655,466.455,0.227951,0.0,0.0
402,100.25,38.5453,42.4862,153.877,101.822,98.9509,0.000562192,0.0882117,20.8656,466.425,0.262456,0.0,0.0
404,100.75,38.514,42.8997,153.837,101.814,99.3723,0.000575556,0.0881637,20.8657,466.445,0.222719,0.0,0.0
406,101.25,38.3041,42.2652,155.925,101.821,99.2521,0.00058638,0.0880886,20.8658,466.455,0.234456,0.0,0.0
408,101.75,38.1405,42.8324,155.639,101.815,99.1664,0.000595148,0.0880343,20.8659,466.455,0.241861,0.0,0.0
410,102.25,38.424,42.6344,158.595,101.824,99.243,0.00060225,0.0879831,20.8659,466.445,0.235596,0.0,0.0
412,102.75,38.3618,42.6676,157.049,101.806,99.2856,0.000608003,0.0879352,20.866,466.465,0.230062,0.0,0.0
414,103.25,37.9312,42.3027,151.846,101.834,99.1274,0.000608804,0.0878821,20.866,466.465,0.247184,0.0,0.0
416,103.75,38.6136,42.0901,158.218,101.803,99.2186,0.00060598,0.0878262,20.866,466.445,0.235915,0.0,0.0
418,104.25,37.9516,42.0491,156.189,101.834,99.4833,0.000601121,0.0878239,20.8661,466.455,0.21429,0.0,0.0
420,104.75,37.9684,42.6386,156.192,101.81,99.1578,0.000594871,0.0878606,20.8661,466.435,0.242176,0.0,0.0
422,105.25,38.1951,42.6341,157.089,101.818,99.0822,0.000590451,0.0878903,20.8661,466.425,0.249951,0.0,0.0
424,105.75,38.5939,42.3309,154.695,101.817,99.0523,0.00058745,0.0879574,20.8661,466.445,0.252648,0.0,0.0
426,106.25,38.0519,42.3025,161.357,101.824,99.1411,0.000586305,0.0880503,20.8661,466.455,0.245025,0.0,0.0
428,106.75,38.1953,42.1478,158.495,101.824,99.319,0.000586534,0.088147,20.8657,466.465,0.22853,0.0,0.0
430,107.25,38.1715,42.3562,156.84,101.819,99.5092,0.000584148,0.0882447,20.8653,466.465,0.210606,0.0,0.0
432,107.75,38.0019,42.1381,155.351,101.81,99.3307,0.000579901,0.0883238,20.8651,466.475,0.226188,0.0,0.0
434,108.25,38.3628,42.227,155.745,101.816,99.3312,0.000565535,0.0884558,20.8648,466.485,0.226698,0.0,0.0
436,108.75,38.4601,41.8776,154.168,101.801,99.1593,0.000544065,0.0885628,20.8646,466.475,0.241292,0.0,0.0
438,109.25,38.3374,42.6167,158.546,101.822,99.1806,0.000526675,0.088731,20.8645,466.465,0.241179,0.0,0.0
440,109.75,38.7029,42.7295,155.341,101.803,99.1208,0.000512588,0.0888673,20.8644,466.465,0.245045,0.0,0.0
442,110.25,38.4345,42.7164,155.561,101.809,99.0909,0.000479988,0.0890185,20.8643,466.465,0.248297,0.0,0.0
444,110.75,39.0205,42.3798,151.736,101.796,99.1405,0.000434509,0.0891409,20.8642,466.445,0.242583,0.0,0.0
446,111.25,38.303,42.8457,156.606,101.819,99.1274,0.000397671,0.0892673,20.8641,466.435,0.24581,0.0,0.0
448,111.75,38.9802,42.5925,158.271,101.798,99.1532,0.000369052,0.0893697,20.864,466.425,0.24152,0.0,0.0
450,112.25,38.3784,42.5832,153.129,101.817,99.4357,0.000345871,0.0894526,20.8639,466.415,0.217166,0.0,0.0
452,112.75,38.2116,42.4527,155.818,101.798,99.9164,0.000330946,0.0895627,20.8639,466.415,0.171239,0.0,0.0
454,113.25,38.5259,42.0562,162.73,101.815,99.3206,0.000322322,0.0896906,20.8639,466.435,0.22757,0.0,0.0
456,113.75,37.9922,42.3798,155.717,101.81,99.1116,0.000320474,0.0897942,20.8638,466.435,0.246521,0.0,0.0
458,114.25,38.5728,42.3336,155.641,101.814,99.212,0.000323599,0.0897556,20.8638,466.425,0.237566,0.0,0.0
460,114.75,38.0862,42.3114,157.607,101.797,99.3753,0.000335764,0.0897244,20.8638,466.425,0.220952,0.0,0.0
462,115.25,38.3903,42.3822,152.642,101.808,99.3596,0.000354289,0.0896448,20.8642,466.445,0.22337,0.0,0.0
464,115.75,38.3847,42.3797,155.27,101.79,99.243,0.000377648,0.0895802,20.8646,466.445,0.23255,0.0,0.0
466,116.25,38.5058,42.6655,151.914,101.803,99.0833,0.000404087,0.0894635,20.8648,466.455,0.24852,0.0,0.0
468,116.75,38.1396,42.6115,152.008,101.785,99.0467,0.000425503,0.0893111,20.8651,466.435,0.250266,0.0,0.0
470,117.25,37.9661,42.2602,159.209,101.797,99.243,0.000470948,0.0891518,20.8652,466.425,0.233181,0.0,0.0
472,117.75,38.5668,42.5404,156.96,101.787,99.1618,0.000507758,0.0889906,20.8654,466.435,0.239794,0.0,0.0
474,118.25,38.3469,42.7749,156.322,101.795,99.4291,0.000550443,0.08886,20.8655,466.415,0.215805,0.0,0.0
476,118.75,38.8948,42.5118,154.796,101.784,99.3236,0.0005966,0.0887542,20.8656,466.445,0.22454,0.0,0.0
478,119.25,38.3922,42.6132,157.869,101.789,99.1862,0.000637849,0.0886685,20.8657,466.415,0.237728,0.0,0.0
480,119.75,38.3333,42.3849,157.127,101.785,99.1116,0.000674737,0.0885312,20.8657,466.425,0.244218,0.0,0.0
482,120.25,38.3728,42.3961,156.256,101.789,99.3743,0.000697536,0.0884199,20.8658,466.415,0.220303,0.0,0.0
484,120.75,38.6102,42.6639,155.567,101.781,99.2009,0.000709631,0.0883084,20.8663,466.425,0.235624,0.0,0.0
486,121.25,38.463,42.4771,152.385,101.786,99.0807,0.000707848,0.0881987,20.8667,466.435,0.247193,0.0,0.0
488,121.75,38.7157,42.427,156.147,101.78,99.0569,0.00069598,0.0880669,20.867,466.435,0.248844,0.0,0.0
490,122.25,38.8732,42.5899,154.222,101.784,98.8353,0.000686368,0.0879216,20.8672,466.415,0.269765,0.0,0.0
492,122.75,38.2035,42.3048,154.78,101.779,98.9965,0.000650487,0.0877896,20.8674,466.415,0.254324,0.0,0.0
494,123.25,38.9086,42.9434,155.196,101.775,99.0265,0.000621423,0.0876698,20.8676,466.415,0.251216,0.0,0.0
496,123.75,38.3541,42.2719,152.712,101.781,99.3545,0.000597881,0.0875656,20.8677,466.445,0.221386,0.0,0.0
498,124.25,38.6539,42.5022,156.764,101.782,99.2998,0.000557616,0.0874747,20.8678,466.455,0.226594,0.0,0.0
500,124.75,38.4075,42.7282,156.973,101.775,99.6608,0.000505925,0.0873868,20.8679,466.455,0.192585,0.0,0.0
502,125.25,37.9618,42.424,153.539,101.76,99.2988,0.000461488,0.0873028,20.868,466.465,0.224644,0.0,0.0
504,125.75,38.6586,42.7196,158.447,101.762,99.2359,0.000423183,0.0872347,20.8681,466.485,0.230679,0.0,0.0
506,126.25,38.2607,43.419,156.347,101.764,99.3251,0.000391514,0.0871796,20.8681,466.475,0.222617,0.0,0.0
508,126.75,38.3455,42.4106,151.949,101.758,99.0645,0.000365284,0.0871213,20.8682,466.465,0.24617,0.0,0.0
510,127.25,38.5764,42.5396,155.246,101.761,99.1796,0.000340188,0.0870741,20.8682,466.445,0.235736,0.0,0.0
512,127.75,38.5615,42.3239,156.03,101.761,99.0391,0.000316394,0.0870145,20.8682,466.445,0.248816,0.0,0.0
514,128.25,38.3419,42.9691,156.253,101.773,99.0625,0.000291988,0.0869468,20.8682,466.445,0.247659,0.0,0.0
516,128.75,38.1823,42.9128,157.603,101.759,99.1674,0.000267599,0.0868241,20.8682,466.415,0.236714,0.0,0.0
518,129.25,38.5256,42.5261,156.792,101.749,99.3393,0.000242072,0.0867248,20.8683,466.435,0.219929,0.0,0.0
520,129.75,38.2704,42.6689,156.021,101.747,99.0062,0.000216199,0.08663,20.8683,466.425,0.250569,0.0,0.0
522,130.25,38.5863,42.1344,158.926,101.748,98.9068,0.000195242,0.0865403,20.8683,466.435,0.259896,0.0,0.0
524,130.75,38.7038,42.1504,160.937,101.765,99.2633,0.000159993,0.0864677,20.8683,466.435,0.228445,0.0,0.0
526,131.25,38.4787,42.7397,160.134,101.735,99.1426,0.000131442,0.0864089,20.8683,466.445,0.236857,0.0,0.0
528,131.75,38.6741,42.2814,155.886,101.734,99.0549,0.000108315,0.086307,20.8683,466.445,0.244906,0.0,0.0
530,132.25,38.822,42.8021,158.083,101.72,98.8753,8.70187e-05,0.0862244,20.8683,466.465,0.260248,0.0,0.0
532,132.75,38.0208,42.4471,155.116,101.729,99.0782,6.74609e-05,0.0861217,20.8686,466.415,0.242262,0.0,0.0
534,133.25,38.5998,42.5866,155.393,101.714,99.0183,5.16191e-05,0.0860065,20.8689,466.415,0.24643,0.0,0.0
536,133.75,38.1594,42.1612,156.174,101.708,99.0914,5.70583e-05,0.0859131,20.8691,466.425,0.239181,0.0,0.0
538,134.25,38.2963,42.8107,153.571,101.692,99.2876,6.1464e-05,0.0858375,20.8693,466.415,0.219539,0.0,0.0
540,134.75,38.1909,42.5913,158.591,101.711,99.1593,7.59372e-05,0.0857405,20.8694,466.405,0.233115,0.0,0.0
542,135.25,38.2154,42.8893,157.181,101.679,99.0244,9.74745e-05,0.0856298,20.8695,466.395,0.242741,0.0,0.0
544,135.75,38.2474,42.5286,153.739,101.686,99.1294,0.000116203,0.0855401,20.8696,466.415,0.233615,0.0,0.0
546,136.25,38.7484,42.3985,157.017,101.667,99.3571,0.000132528,0.0853861,20.8697,466.405,0.210927,0.0,0.0
548,136.75,38.5098,43.2033,153.528,101.667,99.2425,0.000134846,0.0852613,20.8697,466.415,0.221479,0.0,0.0
550,137.25,38.2497,42.6067,155.374,101.656,99.2222,0.000130668,0.0851602,20.87,466.405,0.222351,0.0,0.0
552,137.75,38.0415,42.0987,157.714,101.664,99.0761,0.000123524,0.0850783,20.8704,466.395,0.23661,0.0,0.0
554,138.25,38.3594,42.4304,153.752,101.629,99.1208,0.000108762,0.0849977,20.8708,466.375,0.229316,0.0,0.0
556,138.75,38.3658,42.4814,157.411,101.653,99.1933,8.87262e-05,0.0849196,20.8711,466.395,0.224727,0.0,0.0
558,139.25,38.4897,42.1511,153.803,101.631,98.9859,7.05744e-05,0.0848563,20.8713,466.385,0.241959,0.0,0.0
560,139.75,38.1,42.154,156.138,101.634,99.0427,5.41411e-05,0.084805,20.8713,466.365,0.236957,0.0,0.0
562,140.25,38.5471,42.4152,154.903,101.626,98.7562,4.083e-05,0.0847831,20.871,466.375,0.262833,0.0,0.0
564,140.75,37.5868,41.9328,159.604,101.628,98.958,3.00481e-05,0.0847315,20.8713,466.375,0.244285,0.0,0.0
566,141.25,37.8473,42.3486,157.866,101.62,99.0391,2.06735e-05,0.0846768,20.8714,466.385,0.236058,0.0,0.0
568,141.75,38.4218,42.2084,155.356,101.619,99.0959,1.25029e-05,0.0846325,20.8716,466.425,0.230723,0.0,0.0
570,142.25,37.8376,42.4996,157.427,101.587,99.0351,5.8847e-06,0.0846101,20.8717,466.395,0.233493,0.0,0.0
572,142.75,38.1368,42.628,155.99,101.62,98.7826,-1.16545e-05,0.0845921,20.8718,466.405,0.259898,0.0,0.0
574,143.25,38.353,41.9285,155.794,101.584,99.0609,-2.58613e-05,0.0845774,20.8719,466.395,0.230761,0.0,0.0
576,143.75,37.8048,42.3107,153.703,101.599,98.9773,-5.56407e-05,0.0845656,20.872,466.415,0.239855,0.0,0.0
578,144.25,38.085,42.279,161.049,101.578,98.8617,-7.9762e-05,0.0845695,20.872,466.395,0.248719,0.0,0.0
580,144.75,38.4952,42.2385,154.292,101.583,99.1816,-9.93003e-05,0.0845727,20.8721,466.395,0.219552,0.0,0.0
582,145.25,38.2798,42.5237,151.751,101.567,99.1705,-0.000118972,0.0845346,20.8721,466.365,0.219132,0.0,0.0
584,145.75,38.0909,41.9128,160.124,101.564,98.8049,-0.000138367,0.0845037,20.8723,466.375,0.252725,0.0,0.0
586,146.25,38.0156,42.2411,151.729,101.569,99.0523,-0.000154078,0.0844787,20.8725,466.415,0.230257,0.0,0.0
588,146.75,38.3874,42.3467,152.442,101.572,99.0777,-0.00016315,0.0844585,20.8726,466.395,0.228132,0.0,0.0
590,147.25,38.5958,42.486,155.155,101.56,98.9489,-0.000170498,0.0844421,20.8727,466.405,0.239026,0.0,0.0
592,147.75,38.1333,41.8867,157.846,101.565,98.9489,-0.00018254,0.0844296,20.8728,466.415,0.239472,0.0,0.0
594,148.25,38.5095,42.0518,152.296,101.537,99.2055,-0.000192293,0.0844194,20.8729,466.425,0.213177,0.0,0.0
596,148.75,38.5339,42.759,155.241,101.564,98.848,-0.000212372,0.0844112,20.8729,466.425,0.248687,0.0,0.0
598,149.25,38.1943,42.1797,155.614,101.538,98.8246,-0.000228636,0.0843638,20.873,466.415,0.248505,0.0,0.0
600,149.75,38.4548,42.7679,153.478,101.539,98.9981,-0.000256425,0.0843255,20.873,466.425,0.232529,0.0,0.0
602,150.25,38.3159,42.9448,151.616,101.525,98.779,-0.000278933,0.084308,20.873,466.405,0.25159,0.0,0.0
604,150.75,38.438,42.5385,157.898,101.535,98.848,,0.0842938,,466.425,0.246079,0.0,0.0
606,151.25,38.6757,42.0911,159.191,101.525,98.8809,,0.0843094,,466.415,0.242163,0.0,0.0
608,151.75,38.0352,42.7039,156.144,101.514,98.922,,0.0843221,,466.425,0.237347,0.0,0.0
610,152.25,38.2695,42.4123,155.331,101.507,98.7861,,0.0842781,,466.455,0.249327,0.0,0.0
612,152.75,38.0803,41.9768,153.933,101.515,98.6274,,0.0842425,,466.445,0.264828,0.0,0.0
614,153.25,38.4889,42.2842,154.062,101.512,98.8338,,0.0841729,,466.415,0.245386,0.0,0.0
616,153.75,38.4275,42.4491,160.101,101.53,98.7724,,,,466.415,0.252686,0.0,0.0
618,154.25,37.8761,42.181,154.891,101.508,99.0189,,,,466.455,0.227845,0.0,0.0
620,154.75,38.6551,42.1837,156.401,101.531,98.4362,,,,466.425,0.284084,0.0,0.0
622,155.25,38.7056,42.3248,155.366,101.509,98.9732,,,,466.445,0.232112,0.0,0.0
624,155.75,38.2191,42.4111,152.788,101.526,98.9438,,,,466.435,0.236367,0.0,0.0
626,156.25,38.3973,42.5961,153.642,101.534,98.9022,,,,466.445,0.240969,0.0,0.0
628,156.75,37.5862,42.3132,155.789,101.521,98.8186,,,,466.435,0.24758,0.0,0.0
630,157.25,38.232,42.0847,156.288,101.516,98.8231,,,,466.425,0.24671,0.0,0.0
632,157.75,38.3043,42.6789,156.808,101.527,98.9392,,,,466.435,0.236903,0.0,0.0
634,158.25,38.3868,42.3253,156.119,101.531,98.8576,,,,466.415,0.244887,0.0,0.0
636,158.75,38.6821,42.4293,155.074,101.525,98.8464,,,,466.405,0.245364,0.0,0.0
638,159.25,38.2551,41.8845,158.472,101.52,98.8383,,,,466.385,0.245669,0.0,0.0
640,159.75,38.4449,42.2508,155.697,101.537,98.669,,,,466.405,0.262896,0.0,0.0
642,160.25,38.0748,42.6883,158.469,101.537,98.7045,,,,466.405,0.259596,0.0,0.0
644,160.75,38.4614,41.6452,154.481,101.537,98.6,,,,466.405,0.269312,0.0,0.0
646,161.25,38.1424,42.3094,155.799,101.535,98.8916,,,,466.395,0.242106,0.0,0.0