File: 01_Data/Overstuffed_Chair_Polyester_Fabric/Cone/Overstuffed_Chair_Polyester_Fabric_Cone_HF75Scan_210325_R1.csv
Names,Time,Stack TC,Smoke TC,Exh Press,Smoke Comp,Smoke Meas,CO Meter,CO2 Meter,O2 Meter,Sample Mass,Ext Coeff,Start Test,Flame Verif
Chan Gain,,500,500,1,1,1,1,1,1,1,1,1.0,1.0
Offset,,0,0,0.138348,0,0,0,0,0,0,0,0.0,0.0
Gain,,1,1,25.011,13.5067,16.616,1,1,1,1.00091,1.04608,1.0,1.0
Units,sec,C,C,Pa,%,%,%,%,%,g,/m,,
Baseline,,40.6246,44.4532,156.728,101.979,99.6591,-0.000489724,0.0818589,20.8722,-0.0784881,0.211152,,
2,0.25,35.7186,37.7955,157.332,101.831,99.9848,-0.000294257,0.0846618,20.8705,477.985,0.167926,0.0,0.0
4,0.75,35.4712,37.8402,155.286,101.82,99.4955,-0.000295091,0.0847696,20.8705,478.345,0.211942,0.0,0.0
6,1.25,35.3978,38.1169,157.434,101.829,99.4047,-0.000298075,0.0849527,20.8705,479.246,0.22106,0.0,0.0
8,1.75,35.7661,38.1657,155.648,101.817,99.6441,-0.000297927,0.085101,20.8703,486.673,0.19799,0.0,0.0
10,2.25,36.423,37.8249,156.012,101.823,99.6091,-0.0002955,0.0852348,20.8699,484.601,0.201695,0.0,0.0
12,2.75,36.2563,38.3214,157.382,101.824,99.4397,-0.000291612,0.0853431,20.8696,478.836,0.217459,0.0,0.0
14,3.25,36.4927,38.5335,160.966,101.83,99.7729,-0.000286731,0.0854451,20.8694,478.125,0.187288,0.0,0.0
16,3.75,36.6353,38.3436,155.809,101.818,99.6578,-0.000282777,0.0855406,20.8692,477.995,0.196805,0.0,0.0
18,4.25,36.6234,38.3991,155.684,101.829,99.5001,-0.00029419,0.0856251,20.869,477.895,0.212264,0.0,0.0
20,4.75,36.4915,38.438,156.583,101.815,99.7293,-0.000303434,0.0857,20.8689,477.895,0.189925,0.0,0.0
22,5.25,36.5101,38.567,155.506,101.816,99.4544,-0.000319895,0.0857535,20.8688,477.925,0.215323,0.0,0.0
24,5.75,36.468,38.9245,154.554,101.81,99.6314,-0.000341306,0.0857904,20.8687,477.885,0.198453,0.0,0.0
26,6.25,37.1916,39.246,154.249,101.812,99.2536,-0.000356085,0.0858203,20.8686,477.875,0.233571,0.0,0.0
28,6.75,36.2912,39.4717,153.511,101.805,99.1187,-0.000365748,0.0859804,20.8681,477.875,0.245382,0.0,0.0
30,7.25,36.994,39.4312,157.914,101.811,99.1051,-0.000373575,0.08611,20.8677,477.885,0.247206,0.0,0.0
32,7.75,36.6247,39.7236,157.276,101.806,99.0168,-0.000327542,0.0864009,20.8667,477.885,0.254896,0.0,0.0
34,8.25,36.8494,39.6413,156.208,101.808,99.0924,-0.000290255,0.0868039,20.8652,477.895,0.24812,0.0,0.0
36,8.75,37.4492,40.1365,158.195,101.8,98.9316,-0.000171091,0.0876748,20.8619,477.885,0.262237,0.0,1.0
38,9.25,37.2617,39.7089,156.26,101.801,98.9545,-7.45685e-05,0.0888702,20.8573,477.895,0.260195,0.0,1.0
40,9.75,37.0132,40.3542,154.174,101.805,97.309,7.37347e-05,0.0898385,20.8535,477.855,0.414436,0.0,1.0
42,10.25,37.358,40.3621,149.75,101.793,95.3055,0.000256968,0.0928095,20.8452,477.815,0.604254,0.0,1.0
44,10.75,37.3237,40.7908,153.35,101.8,92.4121,0.000405387,0.0952159,20.8385,477.835,0.887818,0.0,1.0
46,11.25,37.8138,41.1824,152.836,101.798,91.3848,0.000651045,0.1008,20.833,477.825,0.990178,0.0,1.0
48,11.75,37.8704,41.1971,149.343,101.797,88.3215,0.000962924,0.105323,20.8203,477.785,1.303,0.0,1.0
50,12.25,38.1269,41.7511,148.364,101.801,86.7004,0.00134572,0.111582,20.8099,477.795,1.47329,0.0,1.0
52,12.75,38.519,42.2209,149.356,101.798,85.5092,0.00177294,0.11899,20.7946,477.715,1.59997,0.0,1.0
54,13.25,37.1174,40.928,153.879,101.787,87.4321,0.00228951,0.12499,20.7821,477.725,1.39498,0.0,1.0
56,13.75,37.18,41.0956,148.966,101.787,84.5351,0.00286141,0.136056,20.7611,477.695,1.70414,0.0,1.0
58,14.25,36.7505,41.1534,154.898,101.794,82.4835,0.00349731,0.14502,20.744,477.665,1.93018,0.0,0.0
60,14.75,37.785,42.1155,152.434,101.793,79.6733,0.00416778,0.156801,20.711,477.635,2.24819,0.0,0.0
62,15.25,37.5671,42.0633,148.5,101.786,79.0871,0.00487095,0.170412,20.6842,477.565,2.31532,0.0,0.0
64,15.75,38.5889,43.312,149.106,101.789,76.5299,0.00558458,0.181438,20.6624,477.515,2.61718,0.0,0.0
66,16.25,38.6128,43.4475,143.997,101.787,74.3809,0.00616263,0.199459,20.637,477.445,2.87843,0.0,0.0
68,16.75,39.2272,44.7028,146.124,101.782,73.4109,0.00663085,0.214056,20.6094,477.345,2.99844,0.0,0.0
70,17.25,39.2441,46.0055,139.994,101.789,73.9372,0.00742065,0.234833,20.5827,477.314,2.93348,0.0,0.0
72,17.75,39.8748,46.7158,143.795,101.784,74.6856,0.0080604,0.251662,20.5572,477.244,2.84057,0.0,0.0
74,18.25,40.5009,47.693,146.463,101.777,72.6365,0.00857859,0.272076,20.5365,477.154,3.09529,0.0,0.0
76,18.75,41.2106,48.0502,141.74,101.782,71.3602,0.00919811,0.288612,20.5175,477.094,3.25837,0.0,0.0
78,19.25,42.3277,48.3213,144.201,101.766,73.3525,0.00969992,0.302005,20.5,477.084,3.00428,0.0,0.0
80,19.75,42.643,49.8522,145.08,101.771,71.3866,0.0101091,0.32143,20.4858,476.974,3.25398,0.0,0.0
82,20.25,42.8572,50.0695,145.907,101.763,73.0802,0.010443,0.337164,20.4744,476.934,3.03807,0.0,0.0
84,20.75,42.6307,50.3269,141.454,101.771,73.3987,0.0106618,0.351957,20.4651,476.844,2.99892,0.0,0.0
86,21.25,43.3495,51.1569,144.817,101.768,73.7222,0.0107926,0.365784,20.4575,476.814,2.9583,0.0,0.0
88,21.75,43.4613,51.4914,144.552,101.765,72.1974,0.0107416,0.376985,20.4538,476.724,3.14982,0.0,0.0
90,22.25,43.9675,51.86,149.554,101.751,74.6867,0.0107002,0.386633,20.4528,476.674,2.83751,0.0,0.0
92,22.75,44.7419,52.2134,144.302,101.762,73.5934,0.010569,0.394968,20.452,476.354,2.97379,0.0,0.0
94,23.25,44.6189,52.8858,149.891,101.755,78.4756,0.0103747,0.400824,20.4596,476.624,2.38376,0.0,0.0
96,23.75,45.2285,53.6366,144.297,101.759,76.8265,0.0100121,0.404761,20.4698,476.554,2.579,0.0,0.0
98,24.25,44.9017,53.1064,149.877,101.735,80.2088,0.00971838,0.40643,20.4815,476.404,2.18156,0.0,0.0
100,24.75,44.8882,53.0118,149.98,101.753,81.1605,0.00948048,0.406412,20.491,476.434,2.07487,0.0,0.0
102,25.25,45.3178,53.517,147.621,101.742,79.687,0.00896748,0.404771,20.5022,476.424,2.24208,0.0,0.0
104,25.75,45.5674,53.7003,152.079,101.75,80.9019,0.00855194,0.401979,20.5143,476.404,2.10393,0.0,0.0
106,26.25,45.4242,53.7958,147.562,101.737,82.8674,0.00824844,0.397656,20.5195,476.364,1.88248,0.0,0.0
108,26.75,46.0708,54.5242,146.495,101.74,84.058,0.00772947,0.3923,20.5354,476.364,1.75188,0.0,0.0
110,27.25,45.5454,54.083,148.858,101.727,85.5351,0.00721502,0.385419,20.5483,476.324,1.59084,0.0,0.0
112,27.75,45.4661,53.762,148.562,101.743,87.0944,0.00671366,0.377556,20.5644,476.324,1.42652,0.0,0.0
114,28.25,45.4886,53.8081,153.677,101.726,89.1785,0.00623745,0.371186,20.5774,476.274,1.20797,0.0,0.0
116,28.75,45.517,53.8748,153.491,101.734,89.2555,0.00578863,0.363281,20.5912,476.254,1.20075,0.0,0.0
118,29.25,45.2558,53.8911,152.705,101.716,89.6866,0.00542509,0.35861,20.6053,476.244,1.15498,0.0,0.0
120,29.75,45.118,53.831,154.721,101.727,88.999,0.00500534,0.348842,20.6167,476.233,1.22657,0.0,0.0
122,30.25,45.1886,53.5965,152.529,101.722,88.3073,0.00466535,0.339327,20.6295,476.244,1.29771,0.0,0.0
124,30.75,45.4017,53.0601,151.681,101.723,89.79,0.00433658,0.329949,20.6398,476.224,1.145,0.0,0.0
126,31.25,45.1735,53.6288,152.111,101.728,88.6354,0.00402224,0.320849,20.6518,476.203,1.26417,0.0,0.0
128,31.75,45.2375,53.4918,151.694,101.733,90.6429,0.00376762,0.313478,20.6616,476.173,1.05917,0.0,0.0
130,32.25,45.3425,53.2746,151.324,101.716,91.4045,0.00350167,0.303812,20.6695,476.173,0.980833,0.0,0.0
132,32.75,45.3231,53.09,149.012,101.729,91.8447,0.00323252,0.295982,20.6789,476.173,0.937905,0.0,0.0
134,33.25,45.1505,53.1606,153.927,101.714,91.8315,0.0029763,0.287688,20.6866,476.173,0.937847,0.0,0.0
136,33.75,45.4256,52.83,154.426,101.724,93.3639,0.0027344,0.279213,20.6976,476.153,0.786955,0.0,0.0
138,34.25,44.996,52.806,152.53,101.715,94.7523,0.00250808,0.272348,20.7066,476.133,0.650686,0.0,0.0
140,34.75,44.5531,52.6022,151.353,101.736,96.7831,0.00229743,0.264643,20.7182,476.153,0.457986,0.0,0.0
142,35.25,44.6911,52.5885,150.859,101.706,97.6665,0.00210486,0.256474,20.7276,476.153,0.371865,0.0,0.0
144,35.75,44.3491,52.0252,156.047,101.73,98.602,0.00192913,0.249856,20.7392,476.123,0.286542,0.0,0.0
146,36.25,44.6366,52.0156,153.577,101.713,99.0716,0.00177454,0.24097,20.7485,476.133,0.241422,0.0,0.0
148,36.75,44.4074,51.7125,155.036,101.712,99.3292,0.00163829,0.232376,20.7592,476.093,0.21752,0.0,0.0
150,37.25,44.1631,51.644,157.27,101.71,99.6126,0.00152793,0.224158,20.7678,476.073,0.191223,0.0,0.0
152,37.75,44.0934,51.4697,154.999,101.718,99.3079,0.00142508,0.217502,20.7761,476.103,0.220008,0.0,0.0
154,38.25,43.6775,51.3312,152.248,101.703,99.3221,0.00134176,0.209707,20.7829,476.073,0.217358,0.0,0.0
156,38.75,43.9066,50.8109,162.153,101.715,99.281,0.00126204,0.203393,20.7883,476.093,0.222269,0.0,0.0
158,39.25,43.7767,50.6813,152.78,101.704,99.3363,0.00118644,0.196361,20.7927,476.073,0.216195,0.0,0.0
160,39.75,42.7313,49.2576,155.837,101.722,99.4331,0.00112522,0.190664,20.7976,476.093,0.208814,0.0,0.0
162,40.25,42.0083,49.3698,157.345,101.699,99.3626,0.00107562,0.184285,20.8016,476.183,0.213239,0.0,0.0
164,40.75,42.4033,49.0954,153.246,101.709,99.3378,0.00100365,0.179117,20.8048,476.193,0.216463,0.0,0.0
166,41.25,42.4228,48.4297,156.289,101.691,99.9184,0.000945362,0.173175,20.8073,476.183,0.161387,0.0,0.0
168,41.75,41.8749,48.9282,157.683,101.71,99.4113,0.000892355,0.168362,20.8093,476.163,0.209786,0.0,0.0
170,42.25,42.3033,48.5713,159.796,101.695,99.4184,0.00084421,0.164463,20.8117,476.153,0.207792,0.0,0.0
172,42.75,41.9927,48.3495,153.803,101.709,99.4108,0.000806434,0.161305,20.814,476.193,0.209683,0.0,0.0
174,43.25,42.0483,48.0983,155.848,101.714,99.2557,0.000775835,0.157681,20.8164,476.143,0.224501,0.0,0.0
176,43.75,41.0277,47.5271,155.158,101.717,99.57,0.000751694,0.153784,20.8183,476.143,0.195742,0.0,0.0
178,44.25,41.5615,47.695,160.487,101.708,99.2739,0.000732718,0.150086,20.8207,476.103,0.222292,0.0,0.0
180,44.75,41.3596,48.1902,153.61,101.727,99.4169,0.000717347,0.146604,20.8226,476.093,0.210758,0.0,0.0
182,45.25,41.396,47.4535,155.748,101.712,99.7115,0.000704897,0.14341,20.8247,476.103,0.182268,0.0,0.0
184,45.75,40.8412,47.0779,155.417,101.727,99.9975,0.000694812,0.140488,20.8263,476.103,0.157325,0.0,0.0
186,46.25,41.2434,47.0882,159.059,101.71,99.3175,0.000682978,0.137793,20.8279,476.103,0.218412,0.0,0.0
188,46.75,40.7866,47.1109,158.617,101.707,99.3135,0.000673393,0.135315,20.8293,476.103,0.218563,0.0,0.0
190,47.25,40.9797,46.848,154.748,101.711,99.2673,0.000670516,0.132994,20.8305,476.083,0.223162,0.0,0.0
192,47.75,41.2226,46.663,156.186,101.731,99.316,0.000668185,0.130833,20.8319,476.093,0.220448,0.0,0.0
194,48.25,41.3105,46.0328,150.471,101.723,99.4925,0.000668743,0.129083,20.8331,476.063,0.203415,0.0,0.0
196,48.75,40.9214,46.2178,154.657,101.721,99.5401,0.000669194,0.12703,20.8344,476.093,0.198871,0.0,0.0
198,49.25,41.0557,46.6702,152.504,101.711,99.8058,0.000668273,0.125367,20.8355,476.073,0.173517,0.0,0.0
200,49.75,40.6044,46.4079,153.532,101.725,99.6446,0.000666369,0.123708,20.8368,476.103,0.189581,0.0,0.0
202,50.25,40.2854,45.9226,157.337,101.716,99.4331,0.000664826,0.122084,20.8379,476.093,0.208331,0.0,0.0
204,50.75,40.0823,45.915,154.307,101.738,99.4058,0.00065258,0.120529,20.839,476.093,0.212828,0.0,0.0
206,51.25,40.4091,45.6662,156.506,101.726,99.5062,0.00064266,0.119055,20.8401,476.093,0.202412,0.0,0.0
208,51.75,40.4811,46.4126,155.715,101.732,99.743,0.000638484,0.117643,20.8412,476.073,0.181196,0.0,0.0
210,52.25,40.4445,45.7207,156.917,101.727,99.7212,0.000638574,0.116305,20.8424,476.093,0.182757,0.0,0.0
212,52.75,40.1109,45.568,157.102,101.726,99.7364,0.000638647,0.11522,20.8433,476.083,0.181208,0.0,0.0
214,53.25,40.8908,45.548,153.57,101.725,99.4793,0.00065704,0.113971,20.844,476.063,0.204816,0.0,0.0
216,53.75,39.8606,45.4628,154.999,101.735,99.3221,0.000671939,0.11296,20.8446,476.083,0.220258,0.0,0.0
218,54.25,40.7359,44.9514,154.376,101.723,99.4864,0.00069012,0.111866,20.8455,476.103,0.20405,0.0,0.0
220,54.75,39.8285,45.4116,157.211,101.725,99.7201,0.000704846,0.110733,20.8467,476.063,0.182664,0.0,0.0
222,55.25,40.3622,45.204,153.262,101.728,99.5229,0.000714844,0.109815,20.8477,476.063,0.201093,0.0,0.0
224,55.75,39.886,45.4125,151.221,101.726,99.5102,0.000718192,0.108702,20.8481,476.073,0.202039,0.0,0.0
226,56.25,40.371,44.3918,156.568,101.724,99.3885,0.000723273,0.1078,20.8488,476.043,0.213155,0.0,0.0
228,56.75,40.3168,45.325,154.749,101.736,99.4007,0.00072681,0.10689,20.8493,476.083,0.213111,0.0,0.0
230,57.25,39.9307,44.7638,154.759,101.726,99.2937,0.000729674,0.10599,20.8498,476.043,0.222065,0.0,0.0
232,57.75,39.7072,44.565,160.031,101.716,99.5913,0.00073444,0.105125,20.8506,476.043,0.193668,0.0,0.0
234,58.25,40.2304,44.7595,156.211,101.73,99.4316,0.000742806,0.104301,20.8517,476.043,0.209698,0.0,0.0
236,58.75,40.1862,44.4839,156.312,101.73,99.4833,0.000753637,0.10395,20.8526,476.053,0.204963,0.0,0.0
238,59.25,39.5527,44.5077,157.508,101.73,99.5168,0.00076241,0.103144,20.8533,476.083,0.201804,0.0,0.0
240,59.75,39.7762,44.6945,157.672,101.718,99.3596,0.000772734,0.102491,20.8539,476.103,0.215268,0.0,0.0
242,60.25,39.6044,44.5503,156.115,101.727,99.4631,0.000783994,0.10173,20.8543,476.103,0.2065,0.0,0.0
244,60.75,40.0935,44.7925,162.098,101.724,99.4631,0.000786678,0.101114,20.8547,476.073,0.206276,0.0,0.0
246,61.25,40.3147,44.4753,155.654,101.726,99.8464,0.000783058,0.100437,20.855,476.073,0.171164,0.0,0.0
248,61.75,39.562,44.4695,155.2,101.726,99.7485,0.000781515,0.0998887,20.8552,476.103,0.180163,0.0,0.0
250,62.25,40.0547,44.2148,155.887,101.727,99.1831,0.000765367,0.0993154,20.8554,476.113,0.23236,0.0,0.0
252,62.75,39.9508,44.4691,156.589,101.728,99.782,0.000740127,0.0987347,20.8556,476.103,0.177196,0.0,0.0
254,63.25,39.4508,44.1493,153.088,101.728,99.425,0.000719684,0.0981997,20.8557,476.093,0.210158,0.0,0.0
256,63.75,39.199,44.4034,155.084,101.717,99.5837,0.000689623,0.0977082,20.8558,476.063,0.194481,0.0,0.0
258,64.25,39.3945,44.2507,154.6,101.733,99.4641,0.000653123,0.09731,20.8567,476.053,0.206964,0.0,0.0
260,64.75,38.5641,44.125,156.413,101.72,99.3256,0.000623558,0.0971403,20.8573,476.063,0.218592,0.0,0.0
262,65.25,39.389,44.0327,153,101.727,99.2972,0.000597169,0.0967001,20.8579,476.083,0.22181,0.0,0.0
264,65.75,39.5738,43.4531,153.257,101.719,99.2724,0.000575794,0.0963435,20.8583,476.003,0.223363,0.0,0.0
266,66.25,39.7437,43.9895,151.886,101.719,99.3687,0.000557258,0.0960546,20.8587,476.063,0.214499,0.0,0.0
268,66.75,39.2487,43.5081,160.208,101.709,99.4042,0.000542245,0.0956707,20.8589,476.063,0.210329,0.0,0.0
270,67.25,38.925,43.7338,156.378,101.724,99.3763,0.000530083,0.0953597,20.8592,476.033,0.214242,0.0,0.0
272,67.75,39.008,43.6903,159.287,101.719,99.4301,0.000528781,0.095067,20.8596,476.073,0.208797,0.0,0.0
274,68.25,39.0786,43.3609,155.303,101.717,100.004,0.000527726,0.0948298,20.8601,476.043,0.155865,0.0,0.0
276,68.75,39.0073,43.611,151.666,101.704,99.6958,0.000541528,0.0945696,20.8603,476.033,0.18297,0.0,0.0
278,69.25,38.7361,43.5102,153.735,101.726,99.5356,0.000552709,0.0943589,20.8603,476.113,0.199702,0.0,0.0
280,69.75,39.3728,43.7239,163.463,101.709,99.3079,0.00058254,0.0940878,20.8605,476.113,0.219265,0.0,0.0
282,70.25,39.2022,43.2611,156.193,101.719,99.5969,0.000606703,0.0937778,20.8609,476.053,0.193488,0.0,0.0
284,70.75,39.0761,43.0151,161.049,101.712,99.2202,0.00064584,0.0935268,20.861,476.043,0.22756,0.0,0.0
286,71.25,38.8655,43.1782,161.333,101.717,99.3987,0.000677541,0.0932826,20.8608,476.053,0.211589,0.0,0.0
288,71.75,38.9659,42.9096,154.263,101.723,99.5269,0.000707725,0.0930848,20.8607,476.003,0.200235,0.0,0.0
290,72.25,38.604,43.0681,156.308,101.719,99.4641,0.00073623,0.0930063,20.8606,475.983,0.2057,0.0,0.0
292,72.75,38.9054,43.0456,155.693,101.703,99.5731,0.000755456,0.0929427,20.8605,476.003,0.194197,0.0,0.0
294,73.25,38.6534,43.0712,153.485,101.708,99.7759,0.000767552,0.0928776,20.8604,476.023,0.176008,0.0,0.0
296,73.75,38.7702,43.0418,151.568,101.701,99.6147,0.000777351,0.0928248,20.8604,476.033,0.19018,0.0,0.0
298,74.25,38.8817,43.1604,157.983,101.718,99.7779,0.00077306,0.0927412,20.8603,476.013,0.176714,0.0,0.0
300,74.75,39.1015,43.1251,153.626,101.713,99.3753,0.00075858,0.0926735,20.8603,476.033,0.213369,0.0,0.0
302,75.25,38.8999,43.1843,157.543,101.712,99.5361,0.00073849,0.0926187,20.8603,476.063,0.198464,0.0,0.0
304,75.75,39.1728,43.3596,155.462,101.69,99.6573,0.000714691,0.0925198,20.8603,476.043,0.185328,0.0,0.0
306,76.25,39.0753,43.4008,150.618,101.69,99.4387,0.000687699,0.0924397,20.8602,476.043,0.205398,0.0,0.0
308,76.75,39.0288,43.0943,155.89,101.684,99.4423,0.000658892,0.092339,20.8607,476.033,0.204551,0.0,0.0
310,77.25,38.4808,43.5367,152.975,101.698,99.745,0.000635558,0.0922251,20.861,476.063,0.177924,0.0,0.0
312,77.75,38.8488,43.0516,151.399,101.672,99.4342,0.000599563,0.0921329,20.8613,476.053,0.204183,0.0,0.0
314,78.25,38.7542,43.2712,150.943,101.688,99.4362,0.000570407,0.0919902,20.8615,476.063,0.205484,0.0,0.0
316,78.75,39.251,42.9382,155.153,101.672,99.8586,0.000541908,0.0918746,20.8617,476.053,0.165099,0.0,0.0
318,79.25,38.5733,43.021,151.414,101.685,99.8241,0.000518824,0.0917673,20.8618,476.033,0.169459,0.0,0.0
320,79.75,38.8164,43.6168,156.022,101.665,99.5452,0.000511113,0.0916804,20.862,476.013,0.193346,0.0,0.0
322,80.25,39.2502,43.1976,154.878,101.683,99.5325,0.000504867,0.0916373,20.8621,476.013,0.196188,0.0,0.0
324,80.75,38.7521,43.0624,153.694,101.653,99.2247,0.000499808,0.0916023,20.8621,476.013,0.221893,0.0,0.0
326,81.25,39.3575,42.5789,156.748,101.667,99.4833,0.000525024,0.0915332,20.8622,476.003,0.199236,0.0,0.0
328,81.75,38.5854,43.2532,152.96,101.653,99.4676,0.00054545,0.0914772,20.8622,476.003,0.199384,0.0,0.0
330,82.25,39.0171,43.2551,154.197,101.658,99.4772,0.000575438,0.0914175,20.8623,475.983,0.198942,0.0,0.0
332,82.75,39.1358,42.804,155.635,101.641,98.9712,0.000599729,0.0913562,20.8623,475.963,0.244291,0.0,0.0
334,83.25,38.6245,43.0677,153.606,101.672,99.0675,0.000610084,0.0912923,20.8623,475.973,0.238078,0.0,0.0
336,83.75,38.7169,43.1181,155.177,101.651,99.1005,0.000633904,0.0912276,20.8624,475.983,0.233204,0.0,0.0
338,84.25,39.2363,43.2937,148.173,101.634,99.0569,0.000653198,0.0911752,20.8624,475.973,0.235716,0.0,0.0
340,84.75,38.5278,42.9163,156.152,101.627,99.2136,0.000672495,0.0911192,20.8624,475.963,0.220506,0.0,0.0
342,85.25,38.7561,42.894,156.1,101.632,99.2242,0.000689412,0.0910738,20.8624,475.993,0.219967,0.0,0.0
344,85.75,38.6059,42.438,158.279,101.618,99.7014,0.000704273,0.0910012,20.8624,475.993,0.174681,0.0,0.0
346,86.25,38.7626,42.5168,157.705,101.623,99.2516,0.000716311,0.0909533,20.8627,476.003,0.216654,0.0,0.0
348,86.75,38.8223,42.4975,155.243,101.612,99.3114,0.000726061,0.0908714,20.8631,476.023,0.210156,0.0,0.0
350,87.25,38.6108,42.6317,155.165,101.611,98.9509,0.000729068,0.0907778,20.8635,476.013,0.243454,0.0,0.0
352,87.75,38.6729,42.7427,156.386,101.603,98.9717,0.000731504,0.090702,20.864,476.003,0.240745,0.0,0.0
354,88.25,38.5013,42.9836,150.953,101.599,99.0057,0.000721254,0.0905998,20.8644,475.983,0.237297,0.0,0.0
356,88.75,38.4112,42.1978,158.247,101.599,99.5787,0.000701952,0.090517,20.8647,475.973,0.184306,0.0,0.0
358,89.25,38.8958,42.7566,159.323,101.593,99.5249,0.000686317,0.09045,20.865,475.973,0.188739,0.0,0.0
360,89.75,38.6448,42.9883,159.219,101.594,99.1198,0.000645561,0.0903684,20.8652,475.983,0.226246,0.0,0.0
362,90.25,38.5377,42.7418,157.92,101.596,99.1664,0.000612549,0.0903024,20.8654,475.983,0.222151,0.0,0.0
364,90.75,38.9444,42.5612,154.726,101.582,99.5371,0.00056262,0.0902489,20.8655,475.963,0.186575,0.0,0.0
366,91.25,38.7514,43.0543,155.98,101.581,99.1806,0.000522177,0.0902056,20.8656,475.963,0.219423,0.0,0.0
368,91.75,39.0786,42.8407,156.306,101.589,99.0346,0.000478439,0.0901705,20.8657,475.953,0.233726,0.0,0.0
370,92.25,38.9502,42.7617,158.096,101.575,99.4225,0.000443012,0.0900741,20.8658,475.983,0.196514,0.0,0.0
372,92.75,38.8544,42.5651,156.793,101.574,99.4154,0.000413031,0.089996,20.8658,475.973,0.197131,0.0,0.0
374,93.25,38.9194,43.0151,155.449,101.571,99.211,0.000387592,0.0898647,20.8659,475.963,0.215676,0.0,0.0
376,93.75,38.3696,42.8256,156.537,101.568,99.0467,0.000366986,0.0897584,20.8659,475.973,0.230662,0.0,0.0
378,94.25,38.8975,42.7123,154.277,101.558,99.3403,0.000350295,0.0896508,20.8659,475.943,0.202608,0.0,0.0
380,94.75,38.6472,43.0472,158.479,101.561,99.2714,0.000336776,0.0895443,20.866,475.973,0.209204,0.0,0.0
382,95.25,38.7309,42.1922,155.103,101.54,98.8982,0.000325183,0.0894366,20.866,475.963,0.241867,0.0,0.0
384,95.75,38.1421,42.8652,154.914,101.541,99.0782,0.000315215,0.08933,20.866,475.983,0.225329,0.0,0.0
386,96.25,38.7637,42.9373,156.479,101.537,99.0914,0.00030714,0.0892437,20.866,475.983,0.223735,0.0,0.0
388,96.75,38.3269,42.6433,158.283,101.543,99.2805,0.00030182,0.0891058,20.8665,475.963,0.206759,0.0,0.0
390,97.25,38.5877,42.1535,157.244,101.527,99.0559,0.000297511,0.0889941,20.8668,475.973,0.22613,0.0,0.0
392,97.75,38.6311,42.71,157.874,101.528,99.2846,0.000290361,0.0888679,20.8671,475.963,0.205043,0.0,0.0
394,98.25,38.7396,42.6813,155.148,101.519,99.2354,0.00028457,0.0887334,20.8674,475.973,0.208733,0.0,0.0
396,98.75,38.636,42.343,154.004,101.527,98.997,0.000284758,0.0886245,20.8676,475.973,0.231542,0.0,0.0
398,99.25,38.6108,43.167,151.718,101.526,99.1086,0.00028491,0.0885363,20.8677,475.983,0.221096,0.0,0.0
400,99.75,38.7699,42.8409,155.275,101.521,99.0194,0.000299672,0.0884648,20.8678,475.973,0.22899,0.0,0.0
402,100.25,39.1154,42.5696,157.499,101.508,99.2399,0.00031163,0.088407,20.8679,475.963,0.207342,0.0,0.0
404,100.75,38.719,42.3946,152.994,101.526,99.2683,0.000331078,0.0883601,20.868,476.003,0.206357,0.0,0.0
406,101.25,38.2487,42.8778,152.539,101.509,99.0391,0.000346831,0.0882949,20.8681,475.983,0.226003,0.0,0.0
408,101.75,38.7492,42.8337,159.31,101.527,99.173,0.000359592,0.0882422,20.8682,476.003,0.215248,0.0,0.0
410,102.25,39.0448,42.4635,154.989,101.499,98.9494,0.000373589,0.0881043,20.8682,475.983,0.233428,0.0,0.0
412,102.75,38.7317,42.9797,153.638,101.537,99.2597,0.000384928,0.0879926,20.8682,475.983,0.208159,0.0,0.0
414,103.25,38.744,42.2303,156.5,101.5,98.9651,0.000393469,0.087875,20.8683,475.993,0.232119,0.0,0.0
416,103.75,38.0168,42.0233,158.349,101.5,98.9722,0.00039981,0.0877797,20.8683,476.003,0.231386,0.0,0.0
418,104.25,39.0276,42.375,154.669,101.489,99.0036,0.000404945,0.0877025,20.8683,475.993,0.227466,0.0,0.0
420,104.75,38.4512,42.5783,152.704,101.5,98.9479,0.00041765,0.08764,20.8683,476.013,0.233643,0.0,0.0
422,105.25,39.0656,42.6493,152.73,101.497,99.1329,0.000427941,0.0875894,20.8683,476.003,0.216273,0.0,0.0
424,105.75,38.4335,42.1114,153.339,101.487,98.9179,0.00045826,0.0874804,20.8683,475.973,0.235301,0.0,0.0
426,106.25,38.133,42.3503,156.924,101.468,99.0158,0.000482818,0.0873922,20.8683,475.963,0.224512,0.0,0.0
428,106.75,38.2337,42.3956,153.877,101.475,99.1806,0.000533264,0.0873207,20.8686,475.983,0.209848,0.0,0.0
430,107.25,38.3037,42.8329,156.073,101.48,98.8054,0.000574125,0.087222,20.869,475.983,0.245079,0.0,0.0
432,107.75,38.6665,42.5043,157.185,101.482,98.9615,0.000624605,0.0871421,20.8693,476.003,0.230772,0.0,0.0
434,108.25,38.1489,42.9345,157.416,101.466,98.848,0.000681138,0.0870774,20.8696,476.013,0.239857,0.0,0.0
436,108.75,38.8817,42.4586,158.631,101.478,98.9479,0.00072693,0.087025,20.8698,475.983,0.231705,0.0,0.0
438,109.25,38.3744,42.1566,155.008,101.455,99.0701,0.000772589,0.0869825,20.87,475.993,0.218254,0.0,0.0
440,109.75,38.7619,42.3347,155.199,101.453,98.8175,0.000809573,0.0869481,20.8701,475.993,0.241562,0.0,0.0
442,110.25,38.4369,42.3126,153.672,101.456,98.813,0.00083953,0.0868702,20.8702,475.973,0.242173,0.0,0.0
444,110.75,38.644,42.2184,152.989,101.465,99.1943,0.000847696,0.0867621,20.8703,475.983,0.207651,0.0,0.0
446,111.25,38.2961,42.5458,156.724,101.456,98.779,0.00083982,0.0866745,20.8703,475.983,0.245403,0.0,0.0
448,111.75,38.3716,42.1078,159.165,101.461,98.9869,0.000817356,0.0866036,20.8702,475.993,0.226519,0.0,0.0
450,112.25,38.8159,42.3751,157.105,101.448,98.9255,0.000784682,0.0865461,20.8702,475.963,0.231017,0.0,0.0
452,112.75,38.2786,42.2159,158.591,101.46,98.8835,0.000741501,0.0864996,20.8702,475.973,0.236076,0.0,0.0
454,113.25,38.2634,42.0818,156.771,101.451,98.8165,0.000691481,0.0864476,20.8701,476.003,0.24147,0.0,0.0
456,113.75,38.6289,42.0771,153.638,101.456,99.2526,0.000650965,0.0863926,20.8701,475.963,0.201437,0.0,0.0
458,114.25,38.3383,42.3542,157.853,101.428,98.9326,0.000606584,0.0863266,20.8701,475.953,0.228568,0.0,0.0
460,114.75,38.0723,42.4967,154.595,101.439,98.9012,0.000560228,0.0862539,20.8701,475.973,0.232491,0.0,0.0
462,115.25,38.6057,42.0599,155.648,101.416,98.9631,0.00052268,0.0861949,20.8701,475.973,0.224702,0.0,0.0
464,115.75,38.5531,42.6545,154.995,101.46,99.0026,0.000502029,0.0861336,20.8701,475.973,0.22495,0.0,0.0
466,116.25,38.288,42.4961,154.519,101.435,98.8901,0.000485301,0.086084,20.8701,475.953,0.233191,0.0,0.0
468,116.75,37.8704,42.3909,158.105,101.437,98.6898,0.000471752,0.0860166,20.8701,475.973,0.251944,0.0,0.0
470,117.25,38.598,41.9808,159.002,101.421,98.8647,0.000482754,0.085962,20.8701,475.983,0.234238,0.0,0.0
472,117.75,37.7962,42.4865,156.178,101.437,98.848,0.000498094,0.0859178,20.8701,475.943,0.237247,0.0,0.0
474,118.25,38.6174,42.3201,155.889,101.412,98.7075,0.000516305,0.0858685,20.8701,475.963,0.248019,0.0,0.0
476,118.75,38.3969,42.2089,155.449,101.43,98.9088,0.000533628,0.0858285,20.87,475.953,0.230965,0.0,0.0
478,119.25,38.2839,42.2302,155.944,101.411,99.0802,0.000549975,0.0857746,20.87,475.963,0.213325,0.0,0.0
480,119.75,38.2184,42.3568,152.897,101.423,99.0047,0.000562573,0.0857117,20.87,475.943,0.221407,0.0,0.0
482,120.25,38.3395,42.4165,156.407,101.407,98.9326,0.000572198,0.0856608,20.87,475.963,0.226704,0.0,0.0
484,120.75,38.1279,42.5269,157.34,101.424,99.1152,0.000576137,0.0856059,20.87,475.973,0.211317,0.0,0.0
486,121.25,38.4993,42.0283,153.629,101.394,98.8454,0.000575856,0.0855615,20.87,475.953,0.233565,0.0,0.0
488,121.75,38.3602,42.0086,152.007,101.406,98.7912,0.000571128,0.0855255,20.87,475.963,0.239761,0.0,0.0
490,122.25,37.9677,42.8552,156.128,101.405,98.9783,0.000563248,0.0854893,20.87,475.933,0.222285,0.0,0.0
492,122.75,38.0952,42.2578,156.969,101.432,98.9534,0.000556865,0.0854534,20.87,475.923,0.227012,0.0,0.0
494,123.25,38.7147,42.7948,159.666,101.409,98.7389,0.000552338,0.0854101,20.87,475.923,0.244837,0.0,0.0
496,123.75,38.3433,41.9308,156.516,101.413,98.9844,0.000549249,0.0853622,20.87,475.923,0.222467,0.0,0.0
498,124.25,38.2087,42.3709,158.019,101.412,98.8038,0.000550605,0.0853234,20.87,475.913,0.239067,0.0,0.0
500,124.75,37.9551,42.4649,156.75,101.404,98.9849,0.000555174,0.0852919,20.87,475.903,0.221599,0.0,0.0
502,125.25,38.441,42.3689,156.495,101.407,98.7369,0.000558876,0.0852664,20.87,475.923,0.244839,0.0,0.0
504,125.75,38.1954,41.9173,157.172,101.416,98.7724,0.000561872,0.0852322,20.8701,475.923,0.242324,0.0,0.0
506,126.25,38.4686,41.9619,157.682,101.397,98.8753,0.0005643,0.0852045,20.8703,475.913,0.231088,0.0,0.0
508,126.75,38.0527,41.9149,156.814,101.404,98.704,0.000562601,0.0851678,20.8706,475.913,0.247604,0.0,0.0
510,127.25,38.3979,42.1102,153.175,101.399,98.9752,0.000561226,0.0851252,20.8711,475.923,0.222007,0.0,0.0
512,127.75,38.1036,42.3867,152.566,101.409,98.922,0.000557668,0.0850907,20.8715,475.923,0.227878,0.0,0.0
514,128.25,38.1528,42.0548,152.584,101.402,98.7182,0.000554786,0.0850417,20.8718,475.913,0.246135,0.0,0.0
516,128.75,38.2993,42.4493,150.742,101.404,98.9266,0.000549239,0.0849831,20.8721,475.943,0.226932,0.0,0.0
518,129.25,38.3191,42.1567,155.929,101.404,98.9012,0.000541852,0.0848999,20.8723,475.933,0.229322,0.0,0.0
520,129.75,38.2764,42.2256,157.95,101.399,99.2384,0.00053587,0.0848004,20.8725,475.923,0.197603,0.0,0.0
522,130.25,38.146,41.9573,155.003,101.405,99.2475,0.000518173,0.0847055,20.8726,475.933,0.197356,0.0,0.0
524,130.75,38.6654,42.2088,155.604,101.43,98.9874,0.000492274,0.0846158,20.8727,475.913,0.223677,0.0,0.0
526,131.25,38.1609,41.676,152.667,101.408,98.8211,0.000461023,0.0845503,20.8728,475.903,0.237131,0.0,0.0
528,131.75,38.2221,42.588,159.823,101.399,98.6822,0.000426462,0.0845036,20.8729,475.903,0.249258,0.0,0.0
530,132.25,38.4708,42.0014,151.117,101.418,98.8693,0.000393975,0.0844659,20.8729,475.923,0.233555,0.0,0.0
532,132.75,37.5022,41.8769,158.598,101.41,98.9717,0.000363617,0.0844352,20.873,475.903,0.223306,0.0,0.0
534,133.25,38.4273,42.3627,155.256,101.412,98.812,0.000339026,0.0844105,20.873,475.903,0.238315,0.0,0.0
536,133.75,38.4686,41.6152,157.805,101.41,99.17,0.000313333,0.0843975,20.8731,475.913,0.204943,0.0,0.0
538,134.25,38.2208,42.438,154.674,101.402,98.6117,0.000287324,0.0843935,20.8729,475.903,0.256001,0.0,0.0
540,134.75,37.8136,42.373,157.126,101.397,98.8221,0.000266257,0.084383,20.8728,475.903,0.236067,0.0,0.0
542,135.25,37.8053,41.9645,162.209,101.404,98.8307,0.000243098,0.0843682,20.8727,475.893,0.235863,0.0,0.0
544,135.75,37.6591,42.353,154.409,101.403,98.8419,0.000224339,0.0843561,20.8727,475.903,0.234753,0.0,0.0
546,136.25,37.9799,42.3632,156.51,101.4,98.5569,0.000210429,0.0843464,20.8725,475.943,0.260949,0.0,0.0
548,136.75,38.2627,42.0707,153.665,101.399,98.7491,0.000200318,0.0842571,20.8723,475.913,0.243036,0.0,0.0
550,137.25,38.4427,42.5432,159.686,101.404,98.9889,0.000192128,0.0841847,20.8722,475.913,0.221187,0.0,0.0
552,137.75,38.2265,41.8992,155.489,101.393,98.8322,0.000175745,0.0841126,20.872,475.913,0.234715,0.0,0.0
554,138.25,38.7537,41.8742,155.049,101.4,99.0336,0.000162474,0.0840541,20.8719,475.903,0.216677,0.0,0.0
556,138.75,38.7188,42.2441,161.466,101.401,98.6811,0.00014403,0.0840064,20.8718,475.893,0.249501,0.0,0.0
558,139.25,38.1087,42.2669,156.205,101.407,98.9362,0.000122165,0.0839673,20.8718,475.893,0.226337,0.0,0.0
560,139.75,38.4106,41.3549,160.236,101.4,98.9169,9.80446e-05,0.0839357,20.8717,475.913,0.227527,0.0,0.0
562,140.25,38.5248,42.2635,155.439,101.413,98.8546,7.27381e-05,0.0839373,20.8717,475.913,0.234434,0.0,0.0
564,140.75,38.2061,42.3921,153.187,101.409,98.9362,5.22398e-05,0.0839385,20.8716,475.913,0.226523,0.0,0.0
566,141.25,38.114,42.3286,156.571,101.418,98.7942,3.56362e-05,0.0839395,20.8716,475.953,0.240559,0.0,0.0
568,141.75,38.1803,42.3128,154.14,101.41,98.992,2.47512e-05,0.0839403,20.8716,475.933,0.221426,0.0,0.0
570,142.25,38.1738,41.9315,153.183,101.418,99.1821,1.8242e-05,0.0839267,20.8716,475.953,0.2046,0.0,0.0
572,142.75,38.6104,42.5422,156.863,101.424,98.8353,1.29695e-05,0.0839028,20.8716,475.923,0.237267,0.0,0.0
574,143.25,38.0202,41.9316,156.85,101.411,99.0143,2.3315e-05,0.0838834,20.8715,475.933,0.219432,0.0,0.0
576,143.75,38.5643,41.8758,157.266,101.412,98.745,3.16949e-05,0.0838678,20.8715,475.963,0.244532,0.0,0.0
578,144.25,38.2223,42.7787,155.519,101.423,98.6928,4.7462e-05,0.0838551,20.8715,475.953,0.250432,0.0,0.0
580,144.75,38.6371,42.3069,158.335,101.422,98.8992,6.83148e-05,0.0838719,20.8715,475.933,0.231113,0.0,0.0
582,145.25,38.1077,42.2004,157.35,101.419,98.9347,8.52056e-05,0.0838856,20.8715,475.933,0.227597,0.0,0.0
584,145.75,38.0674,42.3774,155.878,101.411,98.9377,0.000101325,0.0839102,20.8715,475.923,0.226606,0.0,0.0
586,146.25,38.019,42.0525,155.232,101.421,98.7344,0.000114381,0.0839301,20.8715,475.933,0.24638,0.0,0.0
588,146.75,37.9291,41.8111,158.242,101.409,98.919,0.000121108,0.083932,20.8715,475.913,0.228123,0.0,0.0
590,147.25,38.3948,41.9316,157.56,101.425,98.9697,0.000123093,0.0839207,20.8715,475.923,0.224912,0.0,0.0
592,147.75,38.4584,41.5856,156.776,101.414,98.9499,0.00011957,0.0839115,20.8715,475.923,0.225738,0.0,0.0
594,148.25,38.2046,42.1035,155.923,101.43,99.0833,0.000112098,0.083904,20.8715,475.923,0.214796,0.0,0.0
596,148.75,38.5689,42.0679,153.83,101.414,99.0756,,0.083898,,475.913,0.214047,0.0,0.0
598,149.25,37.8823,42.2793,154.353,101.411,98.8373,,0.0838574,,475.903,0.235848,0.0,0.0
600,149.75,38.4758,42.6922,157.805,101.417,98.8804,,0.0837925,,475.923,0.232445,0.0,0.0
602,150.25,38.2391,42.0635,153.739,101.432,99.1862,,0.0837327,,475.943,0.205418,0.0,0.0
604,150.75,37.8601,42.1188,159.443,101.422,98.6401,,0.0836778,,475.943,0.255186,0.0,0.0
606,151.25,38.2879,41.9708,156.59,101.442,99.1411,,0.0836405,,475.933,0.210489,0.0,0.0
608,151.75,37.8642,42.1259,158.318,101.428,98.8581,,,,475.933,0.235485,0.0,0.0
610,152.25,38.0301,41.9282,157.677,101.439,98.7922,,,,475.913,0.242575,0.0,0.0
612,152.75,38.1424,42.8909,159.185,101.416,98.561,,,,475.903,0.262026,0.0,0.0
614,153.25,38.3916,41.9789,157.527,101.438,98.6446,,,,475.933,0.256217,0.0,0.0
616,153.75,38.5088,42.1672,158.706,101.413,98.8307,,,,475.943,0.236647,0.0,0.0
618,154.25,38.0236,41.7863,151.327,101.429,98.9666,,,,475.923,0.225492,0.0,0.0
620,154.75,38.2163,41.9605,151.707,101.409,98.8764,,,,475.903,0.232075,0.0,0.0
622,155.25,37.8478,42.2301,159.803,101.419,98.9124,,,,475.883,0.229667,0.0,0.0
624,155.75,38.5752,42.0474,153.482,101.409,99.0767,,,,475.903,0.213542,0.0,0.0
626,156.25,38.321,41.9145,155.946,101.427,98.8216,,,,475.863,0.238763,0.0,0.0
628,156.75,38.1396,42.268,155.08,101.422,98.8424,,,,475.883,0.236384,0.0,0.0
630,157.25,37.9269,42.0962,153.234,101.412,98.7313,,,,475.913,0.245805,0.0,0.0
632,157.75,38.0623,42.71,153.65,101.404,98.7034,,,,475.903,0.247726,0.0,0.0
634,158.25,38.5955,42.2865,160.807,101.418,98.7831,,,,475.893,0.241521,0.0,0.0
636,158.75,38.6019,42.2407,157.385,101.405,99.1492,,,,475.903,0.206456,0.0,0.0
638,159.25,38.4552,42.3236,157.632,101.421,99.0716,,,,475.933,0.215094,0.0,0.0