File: 01_Data/Overstuffed_Chair_Polyurethane_Foam/MCC/Overstuffed_Chair_Polyurethane_Foam_MCC_30K_min_210308_R2.txt
Sample ID:	C:\MCC\MCC Cal\Test\PUF_30_2.txt
Sample Weight (mg):	3.27
Heating Rate (C/s):	0.5
Combustor Temp (C):	900
N2 Flow Rate (cc/min):	80
O2 Flow Rate (cc/min):	20
Calibration File:	C:\MCC\MCC Cal\Coeff1 JN10440_30_210304.txt.txt
T Correction Coefficients:	0	1.024463	0
Time Shift (s):	14
*
Time (s)	Temperature (C)	N2 flow rate (cc/min)	O2 flow rate (cc/min)	Flow Rate (cc/min)	Oxygen (%)	HRR (W/g)	Heating rate (C/s)
0.000	109.095	80.002	19.997	99.648	20.151	-0.607	0.012
1.500	109.100	79.999	19.996	99.647	20.146	-0.188	0.018
3.000	109.076	80.004	19.995	99.647	20.142	0.258	-0.012
4.500	109.080	80.005	19.997	99.649	20.141	0.307	-0.018
6.000	109.051	80.005	19.997	99.656	20.147	-0.271	-0.026
7.500	109.091	80.004	19.997	99.658	20.142	0.258	0.043
9.000	109.065	80.005	19.996	99.654	20.140	0.422	-0.021
10.500	109.053	80.003	19.998	99.673	20.139	0.558	-0.017
12.000	109.089	80.004	19.998	99.690	20.139	0.503	0.039
13.500	109.092	80.005	19.999	99.700	20.135	0.943	-0.001
15.000	109.111	80.003	19.998	99.697	20.136	0.792	-0.012
16.500	109.115	80.005	19.999	99.700	20.141	0.373	-0.018
18.000	109.141	80.004	19.997	99.718	20.128	1.609	0.029
19.500	109.188	80.003	19.997	99.731	20.126	1.760	0.035
21.000	109.191	80.003	19.995	99.744	20.129	1.481	-0.007
22.500	109.300	80.004	19.996	99.754	20.128	1.585	0.070
24.000	109.372	80.004	19.997	99.758	20.131	1.251	0.060
25.500	109.447	80.004	19.998	99.755	20.123	2.065	0.051
27.000	109.546	80.003	19.995	99.771	20.128	1.543	0.068
28.500	109.631	80.006	19.996	99.796	20.122	2.111	0.068
30.000	109.709	80.007	19.996	99.795	20.120	2.297	0.051
31.500	109.816	80.005	19.995	99.793	20.120	2.305	0.067
32.999	109.954	80.004	19.997	99.800	20.121	2.258	0.065
34.500	110.088	80.008	19.997	99.800	20.109	3.390	0.094
35.999	110.289	80.008	19.994	99.790	20.121	2.282	0.153
37.500	110.433	80.007	19.995	99.768	20.119	2.436	0.073
39.000	110.581	80.008	19.996	99.764	20.121	2.199	0.109
40.499	110.740	80.009	19.996	99.777	20.116	2.747	0.087
42.000	110.931	80.008	19.997	99.796	20.120	2.316	0.136
43.499	111.114	80.003	19.995	99.799	20.120	2.371	0.140
44.999	111.303	79.996	19.996	99.802	20.122	2.108	0.126
46.499	111.499	80.005	19.995	99.807	20.117	2.593	0.128
48.000	111.729	80.005	19.995	99.823	20.114	2.943	0.142
49.499	111.954	80.007	19.995	99.836	20.108	3.480	0.135
50.999	112.222	80.007	19.994	99.840	20.110	3.277	0.181
52.499	112.468	80.007	19.996	99.843	20.108	3.520	0.174
54.000	112.719	80.008	19.995	99.843	20.114	2.917	0.174
55.499	112.967	80.008	19.997	99.842	20.110	3.311	0.171
56.999	113.319	80.008	19.996	99.850	20.111	3.194	0.226
58.499	113.605	80.010	19.994	99.855	20.106	3.648	0.198
59.999	113.954	80.009	19.997	99.853	20.102	4.039	0.225
61.499	114.256	80.008	19.994	99.859	20.104	3.883	0.213
62.999	114.600	80.008	19.994	99.876	20.103	3.987	0.244
64.499	114.936	80.007	19.995	99.881	20.103	3.922	0.225
65.999	115.286	80.009	19.995	99.882	20.098	4.421	0.225
67.499	115.674	80.007	19.993	99.882	20.100	4.194	0.253
68.999	116.100	80.007	19.994	99.882	20.101	4.155	0.246
70.499	116.494	80.006	19.994	99.884	20.099	4.364	0.231
71.999	116.897	80.002	19.995	99.882	20.100	4.223	0.269
73.499	117.273	79.999	19.994	99.882	20.097	4.501	0.258
75.000	117.670	80.003	19.994	99.887	20.092	4.994	0.258
76.500	118.065	80.006	19.995	99.895	20.094	4.845	0.287
78.000	118.551	80.006	19.996	99.900	20.097	4.511	0.309
79.500	119.006	80.004	19.996	99.905	20.093	4.895	0.291
80.999	119.441	80.004	19.998	99.916	20.090	5.163	0.305
82.500	119.927	80.005	19.995	99.909	20.092	4.976	0.311
83.999	120.433	80.006	19.995	99.918	20.089	5.337	0.338
85.501	120.969	80.006	19.995	99.928	20.096	4.648	0.335
86.999	121.425	80.007	19.996	99.929	20.087	5.464	0.297
88.500	121.929	80.005	19.996	99.926	20.091	5.111	0.330
90.000	122.504	80.006	19.996	99.921	20.087	5.503	0.384
91.499	123.017	80.005	19.995	99.919	20.089	5.296	0.333
93.000	123.565	80.005	19.995	99.929	20.085	5.670	0.386
94.500	124.127	80.006	19.994	99.943	20.087	5.447	0.372
96.001	124.734	80.006	19.998	99.949	20.086	5.541	0.400
97.500	125.345	80.006	19.999	99.940	20.086	5.608	0.388
98.999	125.907	80.003	19.998	99.928	20.088	5.388	0.381
100.500	126.477	80.006	19.998	99.930	20.084	5.782	0.377
101.999	127.087	80.006	19.999	99.953	20.088	5.370	0.416
103.499	127.730	80.005	20.000	99.972	20.091	5.145	0.405
104.999	128.372	80.003	19.999	99.960	20.090	5.240	0.431
106.499	128.948	80.006	20.000	99.950	20.086	5.561	0.384
107.999	129.639	80.005	19.998	99.941	20.084	5.766	0.442
109.499	130.237	80.005	19.997	99.931	20.081	6.039	0.401
110.999	130.889	80.006	19.999	99.920	20.084	5.804	0.418
112.499	131.534	80.006	19.996	99.919	20.084	5.777	0.409
113.999	132.206	80.008	19.996	99.922	20.083	5.832	0.440
115.499	132.864	80.008	19.997	99.936	20.088	5.405	0.445
116.999	133.567	80.008	19.996	99.946	20.078	6.314	0.454
118.500	134.265	80.006	19.994	99.928	20.085	5.650	0.460
119.999	134.931	80.007	19.995	99.927	20.084	5.794	0.445
121.499	135.634	80.007	19.994	99.942	20.083	5.851	0.442
122.999	136.322	80.008	19.996	99.929	20.082	5.916	0.445
124.499	137.023	80.007	19.995	99.925	20.082	5.955	0.483
125.999	137.744	80.007	19.995	99.942	20.083	5.824	0.478
127.499	138.424	80.009	19.995	99.947	20.080	6.124	0.451
129.000	139.146	80.007	19.995	99.950	20.083	5.902	0.479
130.500	139.868	80.006	19.995	99.940	20.083	5.895	0.490
132.000	140.590	80.006	19.996	99.934	20.082	5.947	0.479
133.500	141.305	80.006	19.995	99.928	20.086	5.593	0.463
135.000	142.055	80.006	19.995	99.935	20.081	6.039	0.503
136.500	142.808	80.008	19.995	99.934	20.081	6.041	0.504
138.000	143.562	80.007	19.995	99.923	20.082	5.932	0.503
139.500	144.282	80.008	19.995	99.922	20.084	5.743	0.507
141.000	145.066	80.009	19.994	99.932	20.080	6.111	0.534
142.500	145.799	80.007	19.994	99.935	20.079	6.268	0.496
144.000	146.571	80.008	19.998	99.937	20.083	5.837	0.505
145.500	147.316	80.006	19.995	99.937	20.082	5.949	0.491
147.000	148.081	80.006	19.998	99.930	20.083	5.837	0.508
148.500	148.797	80.007	19.997	99.936	20.086	5.605	0.502
150.000	149.583	80.006	19.998	99.927	20.084	5.761	0.521
151.500	150.335	80.007	19.999	99.922	20.085	5.707	0.510
153.000	151.099	80.006	19.996	99.921	20.082	5.924	0.508
154.500	151.848	80.006	19.995	99.918	20.085	5.709	0.530
156.000	152.655	80.005	19.995	99.919	20.084	5.764	0.523
157.500	153.366	80.005	19.995	99.919	20.081	6.071	0.471
159.000	154.140	80.005	19.995	99.919	20.085	5.638	0.522
160.500	154.901	80.005	19.996	99.921	20.086	5.552	0.507
162.000	155.683	80.004	19.997	99.937	20.084	5.750	0.507
163.500	156.464	80.005	19.999	99.937	20.089	5.330	0.511
165.000	157.224	80.005	19.999	99.921	20.088	5.343	0.507
166.500	157.979	80.005	19.998	99.916	20.087	5.453	0.496
168.000	158.781	80.006	19.998	99.914	20.087	5.464	0.528
169.500	159.522	80.006	19.997	99.913	20.085	5.666	0.473
171.000	160.271	80.007	19.997	99.914	20.086	5.567	0.503
172.500	161.047	80.005	19.996	99.917	20.087	5.515	0.524
174.000	161.829	80.004	19.996	99.915	20.091	5.113	0.528
175.499	162.549	80.003	19.997	99.919	20.089	5.320	0.497
176.999	163.333	80.005	19.996	99.917	20.083	5.841	0.532
178.499	164.119	80.006	19.997	99.918	20.088	5.376	0.530
180.000	164.909	80.005	19.996	99.907	20.086	5.557	0.520
181.499	165.675	80.005	19.996	99.893	20.090	5.160	0.487
182.999	166.487	80.004	19.995	99.910	20.086	5.577	0.548
184.500	167.209	80.005	19.995	99.914	20.092	5.014	0.501
186.000	167.980	80.004	19.996	99.913	20.086	5.590	0.505
187.500	168.750	80.006	19.994	99.899	20.091	5.070	0.497
189.000	169.495	80.004	19.998	99.894	20.087	5.459	0.485
190.500	170.230	80.005	19.999	99.912	20.088	5.430	0.524
192.000	171.033	80.005	19.997	99.913	20.084	5.775	0.538
193.500	171.781	80.006	19.999	99.900	20.085	5.702	0.498
195.000	172.513	80.006	19.997	99.903	20.089	5.298	0.516
196.499	173.338	80.006	19.997	99.901	20.091	5.055	0.565
197.999	174.066	80.007	19.996	99.884	20.090	5.206	0.473
199.499	174.834	80.008	19.996	99.882	20.086	5.595	0.508
200.999	175.617	80.005	19.997	99.882	20.087	5.477	0.525
202.499	176.322	80.006	19.997	99.882	20.085	5.631	0.473
203.999	177.070	80.007	19.997	99.888	20.085	5.631	0.506
205.499	177.812	80.006	19.996	99.891	20.088	5.417	0.487
206.999	178.601	80.005	19.997	99.891	20.084	5.746	0.516
208.500	179.351	80.006	19.995	99.888	20.088	5.391	0.513
209.999	180.138	80.005	19.997	99.884	20.084	5.733	0.493
211.500	180.864	80.008	19.996	99.885	20.090	5.222	0.476
212.999	181.591	80.006	19.994	99.885	20.085	5.663	0.507
214.499	182.368	80.007	19.995	99.883	20.090	5.201	0.519
215.999	183.059	80.007	19.995	99.882	20.091	5.099	0.483
217.499	183.796	80.008	19.994	99.888	20.087	5.480	0.478
219.000	184.546	80.008	19.995	99.887	20.088	5.347	0.484
220.499	185.347	80.009	19.995	99.884	20.088	5.344	0.527
221.999	186.106	80.008	19.996	99.887	20.085	5.707	0.513
223.500	186.862	80.008	19.997	99.891	20.089	5.268	0.506
225.000	187.640	80.008	19.997	99.886	20.089	5.328	0.514
226.500	188.344	80.007	19.996	99.880	20.088	5.341	0.462
228.000	189.061	80.007	19.996	99.879	20.086	5.589	0.498
229.499	189.855	80.007	19.995	99.878	20.089	5.279	0.523
230.999	190.617	80.004	19.994	99.879	20.086	5.600	0.480
232.499	191.314	80.005	19.997	99.878	20.086	5.568	0.472
234.000	192.075	80.007	19.996	99.879	20.086	5.576	0.538
235.500	192.807	80.005	19.996	99.880	20.087	5.482	0.494
237.000	193.574	80.006	19.995	99.879	20.086	5.581	0.510
238.500	194.283	80.006	19.995	99.880	20.083	5.853	0.461
240.000	195.019	80.006	19.997	99.879	20.083	5.849	0.480
241.499	195.724	80.005	19.996	99.878	20.088	5.354	0.447
242.999	196.481	80.004	19.996	99.879	20.086	5.560	0.515
244.499	197.243	80.005	19.995	99.881	20.085	5.683	0.487
245.999	197.985	80.005	19.995	99.877	20.087	5.458	0.483
247.499	198.712	80.006	19.996	99.873	20.083	5.817	0.470
248.999	199.439	80.005	19.996	99.881	20.080	6.160	0.488
250.499	200.176	80.005	19.997	99.867	20.081	6.063	0.491
251.999	200.931	80.006	19.995	99.865	20.080	6.156	0.508
253.499	201.624	80.006	19.995	99.876	20.078	6.294	0.440
255.000	202.394	80.007	19.995	99.879	20.077	6.474	0.518
256.500	203.107	80.000	19.994	99.844	20.076	6.518	0.479
258.000	203.843	80.006	19.995	99.805	20.080	6.116	0.507
259.500	204.618	80.003	19.994	99.872	20.078	6.354	0.506
261.000	205.352	80.005	19.993	99.934	20.082	5.989	0.486
262.500	206.048	80.005	19.997	99.890	20.074	6.704	0.450
264.000	206.788	80.003	19.995	99.884	20.073	6.824	0.498
265.500	207.538	80.005	19.996	99.878	20.075	6.607	0.501
267.000	208.284	80.006	19.995	99.877	20.071	6.998	0.481
268.500	209.014	80.006	19.997	99.881	20.070	7.089	0.485
270.000	209.800	80.005	19.995	99.882	20.070	7.060	0.555
271.500	210.564	80.007	19.995	99.883	20.069	7.185	0.504
273.000	211.311	80.005	19.994	99.884	20.068	7.320	0.502
274.500	212.012	80.006	19.996	99.885	20.066	7.451	0.487
276.000	212.748	80.006	19.998	99.885	20.071	7.034	0.486
277.500	213.480	80.006	19.997	99.882	20.065	7.600	0.496
279.000	214.259	80.005	19.996	99.882	20.061	7.942	0.518
280.500	214.955	80.006	19.995	99.868	20.059	8.099	0.456
282.000	215.693	80.005	19.994	99.865	20.060	8.076	0.481
283.500	216.446	79.992	19.996	99.855	20.060	8.016	0.510
285.000	217.169	79.987	19.995	99.855	20.061	7.975	0.457
286.500	217.899	79.988	19.996	99.874	20.059	8.145	0.473
288.000	218.670	79.987	19.994	99.866	20.054	8.653	0.504
289.500	219.443	79.987	19.992	99.864	20.057	8.379	0.505
291.000	220.144	79.984	19.992	99.879	20.054	8.655	0.487
292.500	220.893	79.989	19.994	99.879	20.053	8.713	0.497
294.000	221.660	79.988	19.993	99.880	20.051	8.919	0.519
295.500	222.366	79.989	19.993	99.866	20.045	9.516	0.458
297.000	223.161	79.988	19.994	99.862	20.048	9.240	0.524
298.500	223.926	79.989	19.994	99.877	20.044	9.622	0.513
300.000	224.620	79.988	19.995	99.881	20.040	9.980	0.479
301.500	225.430	79.988	19.993	99.880	20.038	10.116	0.534
303.000	226.152	79.990	19.992	99.881	20.035	10.444	0.476
304.500	226.926	79.991	19.994	99.880	20.031	10.850	0.504
306.000	227.714	79.989	19.995	99.876	20.033	10.649	0.526
307.500	228.466	79.990	19.994	99.877	20.029	11.025	0.521
309.000	229.200	79.988	19.994	99.896	20.025	11.380	0.471
310.500	229.984	79.986	19.993	99.902	20.023	11.583	0.492
312.000	230.706	79.985	19.994	99.898	20.016	12.262	0.500
313.500	231.446	79.985	19.995	99.892	20.014	12.390	0.476
315.000	232.179	79.986	19.994	99.885	20.016	12.254	0.499
316.500	232.983	79.985	19.994	99.883	20.012	12.591	0.535
318.000	233.737	79.987	19.994	99.883	20.008	13.037	0.499
319.500	234.489	79.985	19.995	99.883	20.004	13.421	0.512
321.000	235.227	79.985	19.995	99.883	19.997	14.068	0.518
322.500	236.003	79.986	19.994	99.883	19.994	14.372	0.532
324.000	236.756	79.984	19.993	99.885	19.992	14.562	0.507
325.500	237.472	79.988	19.994	99.885	19.990	14.720	0.486
327.000	238.288	79.987	19.993	99.900	19.985	15.213	0.521
328.500	238.982	79.986	19.994	99.921	19.980	15.709	0.464
330.000	239.754	79.986	19.994	99.913	19.976	16.027	0.518
331.500	240.550	79.986	19.994	99.903	19.972	16.408	0.533
333.000	241.297	79.986	19.995	99.912	19.969	16.736	0.514
334.500	242.047	79.986	19.995	99.907	19.960	17.561	0.507
336.000	242.818	79.987	19.994	99.902	19.957	17.889	0.517
337.500	243.563	79.987	19.994	99.891	19.955	18.098	0.496
339.000	244.292	79.986	19.995	99.884	19.946	18.953	0.471
340.500	245.046	79.986	19.996	99.882	19.940	19.471	0.516
342.000	245.825	79.987	19.996	99.881	19.938	19.725	0.493
343.500	246.588	79.986	19.996	99.879	19.926	20.858	0.504
345.000	247.347	79.986	19.994	99.878	19.923	21.120	0.500
346.500	248.057	79.986	19.994	99.881	19.915	21.895	0.484
348.000	248.870	79.984	19.994	99.902	19.913	22.105	0.538
349.500	249.666	79.987	19.994	99.904	19.900	23.259	0.530
351.000	250.397	79.988	19.995	99.903	19.896	23.647	0.512
352.500	251.130	79.988	19.994	99.914	19.887	24.588	0.477
354.000	251.883	79.989	19.996	99.904	19.880	25.250	0.500
355.500	252.682	79.987	19.995	99.897	19.874	25.765	0.541
357.000	253.402	79.987	19.994	99.891	19.867	26.435	0.467
358.500	254.146	79.988	19.994	99.890	19.855	27.605	0.504
360.000	254.922	79.988	19.994	99.908	19.845	28.537	0.533
361.500	255.651	79.987	19.994	99.908	19.838	29.187	0.493
363.000	256.378	79.989	19.994	99.909	19.831	29.923	0.501
364.500	257.125	79.988	19.995	99.914	19.821	30.881	0.500
366.000	257.884	79.987	19.995	99.910	19.808	32.050	0.499
367.500	258.613	79.986	19.995	99.907	19.795	33.305	0.490
369.000	259.401	79.988	19.996	99.909	19.782	34.522	0.528
370.500	260.160	79.988	19.994	99.923	19.774	35.347	0.512
372.000	260.897	79.987	19.994	99.936	19.762	36.464	0.486
373.500	261.626	79.989	19.993	99.926	19.755	37.124	0.474
375.000	262.384	79.988	19.993	99.927	19.737	38.852	0.509
376.500	263.136	79.990	19.995	99.925	19.730	39.515	0.495
378.000	263.884	79.991	19.994	99.934	19.712	41.253	0.512
379.500	264.637	79.987	19.994	99.933	19.700	42.373	0.506
381.000	265.349	79.990	19.994	99.932	19.687	43.648	0.475
382.500	266.103	79.990	19.993	99.939	19.675	44.823	0.470
384.000	266.891	79.991	19.993	99.962	19.662	46.045	0.510
385.500	267.622	79.988	19.993	99.943	19.647	47.433	0.487
387.000	268.372	79.989	19.994	99.935	19.631	49.018	0.519
388.500	269.133	79.987	19.995	99.953	19.615	50.536	0.516
390.000	269.859	79.987	19.993	99.959	19.604	51.613	0.479
391.500	270.678	79.985	19.994	99.961	19.585	53.349	0.546
393.000	271.434	79.988	19.996	99.961	19.572	54.653	0.497
394.500	272.172	79.986	19.995	99.958	19.557	56.038	0.496
396.000	272.954	79.985	19.995	99.963	19.544	57.260	0.501
397.500	273.651	79.985	19.994	99.973	19.526	58.960	0.478
399.000	274.444	79.988	19.996	99.988	19.508	60.673	0.534
400.500	275.210	79.987	19.994	99.997	19.500	61.473	0.504
402.000	275.972	79.987	19.995	99.999	19.488	62.658	0.500
403.500	276.736	79.987	19.994	99.987	19.468	64.561	0.508
405.000	277.449	79.988	19.995	99.982	19.459	65.437	0.492
406.500	278.189	79.988	19.994	100.022	19.446	66.628	0.496
408.000	278.955	79.987	19.994	100.000	19.430	68.194	0.505
409.500	279.718	79.988	19.993	99.972	19.415	69.569	0.512
411.000	280.482	79.988	19.994	99.976	19.403	70.731	0.512
412.500	281.157	79.988	19.994	99.989	19.393	71.690	0.445
414.000	281.979	79.987	19.994	99.995	19.381	72.817	0.546
415.500	282.730	79.986	19.994	99.993	19.368	74.049	0.510
417.000	283.522	79.985	19.994	99.993	19.363	74.598	0.534
418.500	284.259	79.986	19.994	100.001	19.359	74.917	0.482
420.000	284.993	79.988	19.995	100.014	19.351	75.740	0.497
421.500	285.781	79.986	19.994	100.015	19.345	76.267	0.500
423.000	286.523	79.985	19.995	100.004	19.338	76.976	0.503
424.500	287.275	79.986	19.995	100.003	19.339	76.819	0.520
426.000	288.031	79.987	19.994	100.000	19.340	76.755	0.498
427.500	288.796	79.986	19.996	100.001	19.341	76.595	0.497
429.000	289.533	79.985	19.993	100.012	19.350	75.780	0.505
430.500	290.314	79.987	19.994	100.015	19.360	74.862	0.518
432.000	291.100	79.987	19.994	99.998	19.362	74.597	0.544
433.500	291.845	79.986	19.994	99.996	19.371	73.727	0.491
435.000	292.613	79.989	19.995	99.993	19.388	72.111	0.520
436.500	293.368	79.989	19.995	99.985	19.402	70.823	0.505
438.000	294.126	79.988	19.993	99.968	19.420	69.065	0.509
439.500	294.936	79.987	19.995	99.962	19.439	67.269	0.525
441.000	295.655	79.988	19.995	99.959	19.459	65.324	0.501
442.500	296.396	79.988	19.995	99.950	19.488	62.627	0.494
444.000	297.246	79.989	19.995	99.931	19.510	60.514	0.532
445.500	297.954	79.988	19.995	99.942	19.544	57.252	0.474
447.000	298.744	79.988	19.996	99.959	19.573	54.479	0.551
448.500	299.483	79.986	19.995	99.965	19.583	53.518	0.519
450.000	300.272	79.988	19.995	99.961	19.611	50.871	0.558
451.500	301.080	79.987	19.994	99.918	19.613	50.676	0.528
453.000	301.827	79.986	19.995	99.941	19.631	48.987	0.486
454.500	302.551	79.985	19.994	100.030	19.636	48.437	0.483
456.000	303.357	79.987	19.995	100.024	19.646	47.539	0.537
457.500	304.057	79.988	19.994	99.955	19.656	46.574	0.436
459.000	304.828	79.988	19.993	99.930	19.656	46.533	0.532
460.500	305.568	79.990	19.995	99.920	19.663	45.910	0.510
462.000	306.360	79.988	19.993	99.920	19.672	45.046	0.498
463.500	307.127	79.991	19.993	99.921	19.679	44.399	0.534
465.000	307.884	79.989	19.994	99.921	19.688	43.484	0.515
466.500	308.694	79.989	19.995	99.921	19.699	42.486	0.539
468.000	309.436	79.988	19.992	99.908	19.707	41.714	0.489
469.500	310.216	79.986	19.992	99.907	19.723	40.200	0.526
471.000	310.942	79.987	19.995	99.912	19.743	38.246	0.486
472.500	311.723	79.986	19.996	99.899	19.760	36.643	0.514
474.000	312.533	79.987	19.993	99.892	19.778	34.888	0.526
475.500	313.296	79.988	19.993	99.892	19.798	33.032	0.510
477.000	314.060	79.985	19.994	99.896	19.817	31.200	0.521
478.500	314.807	79.985	19.993	99.900	19.837	29.304	0.500
480.000	315.587	79.988	19.993	99.910	19.854	27.666	0.494
481.500	316.360	79.988	19.994	99.911	19.869	26.293	0.503
483.000	317.092	79.987	19.995	99.899	19.891	24.195	0.482
484.500	317.847	79.987	19.994	99.882	19.902	23.119	0.504
486.000	318.637	79.988	19.994	99.882	19.910	22.325	0.518
487.500	319.415	79.990	19.995	99.880	19.927	20.679	0.505
489.000	320.171	79.988	19.996	99.873	19.938	19.717	0.529
490.500	320.939	79.987	19.994	99.874	19.945	18.979	0.531
492.000	321.677	79.989	19.994	99.873	19.950	18.543	0.508
493.500	322.416	79.986	19.994	99.866	19.956	17.941	0.512
495.000	323.194	79.988	19.995	99.864	19.965	17.120	0.534
496.500	323.937	79.988	19.995	99.868	19.968	16.841	0.510
498.000	324.676	79.987	19.995	99.856	19.973	16.382	0.499
499.500	325.409	79.986	19.995	99.849	19.978	15.869	0.483
501.000	326.183	79.986	19.995	99.842	19.977	15.911	0.504
502.500	326.928	79.985	19.994	99.844	19.983	15.357	0.507
504.000	327.662	79.985	19.994	99.845	19.986	15.112	0.490
505.500	328.382	79.984	19.994	99.850	19.990	14.756	0.502
507.000	329.158	79.986	19.995	99.852	19.994	14.340	0.507
508.500	329.929	79.986	19.995	99.859	19.992	14.575	0.492
510.000	330.668	79.985	19.994	99.863	19.995	14.286	0.506
511.500	331.387	79.986	19.994	99.810	19.994	14.302	0.473
513.000	332.168	79.987	19.996	99.904	19.999	13.896	0.529
514.500	332.918	79.987	19.995	99.958	19.997	14.060	0.518
516.000	333.711	79.988	19.995	99.886	19.995	14.269	0.519
517.500	334.476	79.990	19.993	99.880	19.997	14.078	0.494
519.000	335.180	79.988	19.994	99.865	19.995	14.258	0.476
520.500	335.966	79.988	19.993	99.849	19.997	14.023	0.518
522.000	336.710	79.986	19.994	99.844	19.996	14.144	0.454
523.500	337.453	79.988	19.995	99.850	19.993	14.421	0.494
525.000	338.195	79.986	19.994	99.863	19.995	14.253	0.485
526.500	338.948	79.988	19.994	99.877	19.992	14.573	0.507
528.000	339.676	79.987	19.997	99.885	19.993	14.385	0.476
529.500	340.409	79.986	19.994	99.874	19.990	14.755	0.465
531.000	341.183	79.987	19.994	99.853	19.985	15.192	0.498
532.500	341.912	79.988	19.994	99.843	19.984	15.334	0.501
534.000	342.672	79.987	19.995	99.856	19.978	15.861	0.518
535.500	343.420	79.986	19.995	99.851	19.979	15.790	0.492
537.000	344.141	79.986	19.996	99.844	19.974	16.195	0.465
538.500	344.917	79.990	19.995	99.836	19.968	16.806	0.513
540.000	345.660	79.987	19.995	99.856	19.967	16.946	0.488
541.500	346.415	79.989	19.995	99.851	19.963	17.262	0.503
543.000	347.155	79.989	19.995	99.847	19.954	18.145	0.495
544.500	347.904	79.990	19.995	99.866	19.948	18.736	0.507
546.000	348.679	79.990	19.994	99.862	19.939	19.605	0.512
547.500	349.426	79.991	19.994	99.841	19.936	19.856	0.479
549.000	350.182	79.990	19.994	99.841	19.929	20.560	0.500
550.500	350.941	79.987	19.995	99.840	19.913	22.012	0.496
552.000	351.677	79.987	19.994	99.841	19.903	23.041	0.498
553.500	352.445	79.985	19.995	99.847	19.887	24.509	0.505
555.000	353.207	79.987	19.995	99.846	19.870	26.141	0.514
556.500	354.002	79.986	19.994	99.843	19.860	27.139	0.531
558.000	354.739	79.985	19.996	99.846	19.839	29.089	0.498
559.500	355.507	79.986	19.995	99.852	19.823	30.654	0.517
561.000	356.248	79.988	19.994	99.865	19.804	32.449	0.495
562.500	356.982	79.986	19.996	99.870	19.783	34.478	0.492
564.000	357.741	79.987	19.993	99.877	19.758	36.872	0.505
565.500	358.489	79.989	19.996	99.874	19.736	38.924	0.508
567.000	359.245	79.986	19.995	99.876	19.710	41.438	0.519
568.500	359.986	79.986	19.993	99.888	19.680	44.310	0.503
570.000	360.739	79.986	19.995	99.889	19.646	47.562	0.507
571.500	361.507	79.985	19.994	99.892	19.612	50.762	0.504
573.000	362.239	79.987	19.995	99.896	19.575	54.326	0.502
574.500	362.993	79.986	19.994	99.908	19.536	58.051	0.491
576.000	363.744	79.987	19.993	99.919	19.498	61.659	0.512
577.500	364.539	79.987	19.992	99.921	19.454	65.872	0.525
579.000	365.281	79.987	19.993	99.917	19.398	71.151	0.505
580.500	366.042	79.988	19.993	99.918	19.350	75.726	0.488
582.000	366.776	79.984	19.992	99.925	19.300	80.553	0.481
583.500	367.571	79.986	19.994	99.923	19.241	86.110	0.527
585.000	368.328	79.987	19.993	99.923	19.177	92.232	0.505
586.500	369.080	79.986	19.994	99.933	19.111	98.519	0.493
588.000	369.858	79.987	19.994	99.945	19.043	105.080	0.527
589.500	370.619	79.985	19.993	99.947	18.972	111.858	0.512
591.000	371.415	79.987	19.993	99.941	18.896	119.113	0.510
592.500	372.149	79.987	19.994	99.939	18.815	126.792	0.498
594.000	372.950	79.988	19.995	99.940	18.735	134.427	0.551
595.500	373.749	79.989	19.995	99.957	18.643	143.221	0.521
597.000	374.494	79.989	19.994	99.955	18.552	151.858	0.504
598.500	375.209	79.989	19.994	99.954	18.456	160.975	0.480
600.000	375.976	79.988	19.994	99.961	18.358	170.342	0.507
601.500	376.775	79.988	19.994	99.971	18.264	179.232	0.532
603.000	377.522	79.987	19.995	99.940	18.161	189.055	0.486
604.500	378.266	79.987	19.993	99.937	18.055	199.127	0.508
606.000	379.016	79.987	19.994	99.961	17.950	209.153	0.526
607.500	379.813	79.986	19.993	99.957	17.844	219.150	0.511
609.000	380.585	79.987	19.994	99.944	17.747	228.259	0.501
610.500	381.273	79.988	19.995	99.934	17.650	237.444	0.485
612.000	382.065	79.988	19.996	99.903	17.558	246.161	0.521
613.500	382.817	79.987	19.994	99.879	17.471	254.514	0.502
615.000	383.549	79.988	19.993	99.881	17.390	262.198	0.491
616.500	384.289	79.987	19.994	99.873	17.322	268.643	0.486
618.000	385.074	79.988	19.994	99.849	17.267	273.760	0.510
619.500	385.847	79.990	19.994	99.810	17.221	278.118	0.508
621.000	386.619	79.989	19.995	99.775	17.186	281.353	0.519
622.500	387.355	79.988	19.995	99.763	17.154	284.461	0.477
624.000	388.104	79.989	19.995	99.758	17.141	285.649	0.516
625.500	388.840	79.989	19.996	99.756	17.138	285.911	0.491
627.000	389.589	79.988	19.994	99.746	17.143	285.374	0.499
628.500	390.306	79.987	19.994	99.723	17.166	283.211	0.476
630.000	391.097	79.987	19.995	99.699	17.203	279.644	0.524
631.500	391.835	79.986	19.994	99.684	17.243	275.809	0.504
633.000	392.580	79.987	19.994	99.682	17.295	270.922	0.492
634.500	393.359	79.986	19.996	99.677	17.364	264.250	0.524
636.000	394.129	79.987	19.995	99.669	17.433	257.751	0.497
637.500	394.862	79.986	19.996	99.662	17.507	250.723	0.496
639.000	395.634	79.985	19.993	99.655	17.593	242.589	0.510
640.500	396.343	79.986	19.994	99.658	17.680	234.383	0.472
642.000	397.118	79.986	19.994	99.646	17.774	225.460	0.504
643.500	397.871	79.986	19.994	99.639	17.875	215.880	0.509
645.000	398.631	79.986	19.994	99.628	17.980	205.867	0.518
646.500	399.436	79.987	19.994	99.616	18.085	195.917	0.511
648.000	400.127	79.986	19.993	99.628	18.195	185.459	0.459
649.500	400.909	79.987	19.994	99.634	18.300	175.463	0.513
651.000	401.664	79.987	19.994	99.645	18.400	165.903	0.495
652.500	402.376	79.986	19.994	99.669	18.498	156.606	0.503
654.000	403.168	79.986	19.993	99.678	18.598	147.187	0.521
655.500	403.911	79.986	19.996	99.686	18.700	137.488	0.494
657.000	404.626	79.989	19.994	99.688	18.792	128.665	0.462
658.500	405.398	79.987	19.997	99.689	18.885	119.873	0.504
660.000	406.156	79.986	19.995	99.688	18.968	111.991	0.496
661.500	406.914	79.985	19.996	99.690	19.049	104.231	0.530
663.000	407.640	79.985	19.994	99.710	19.129	96.636	0.496
664.500	408.372	79.986	19.996	99.723	19.203	89.590	0.510
666.000	409.130	79.987	19.994	99.726	19.269	83.378	0.508
667.500	409.850	79.986	19.994	99.725	19.325	77.971	0.491
669.000	410.609	79.986	19.994	99.724	19.386	72.178	0.515
670.500	411.350	79.987	19.994	99.728	19.446	66.464	0.496
672.000	412.145	79.988	19.995	99.738	19.496	61.702	0.509
673.500	412.897	79.988	19.995	99.754	19.543	57.268	0.518
675.000	413.639	79.989	19.994	99.766	19.590	52.797	0.499
676.500	414.418	79.988	19.993	99.771	19.628	49.155	0.521
678.000	415.142	79.991	19.994	99.780	19.666	45.568	0.492
679.500	415.885	79.989	19.995	99.771	19.697	42.618	0.502
681.000	416.637	79.989	19.996	99.769	19.732	39.250	0.515
682.500	417.420	79.988	19.995	99.785	19.762	36.413	0.530
684.000	418.136	79.989	19.995	99.784	19.788	33.906	0.489
685.500	418.909	79.986	19.997	99.774	19.811	31.771	0.503
687.000	419.680	79.988	19.997	99.790	19.837	29.240	0.526
688.500	420.409	79.987	19.997	99.801	19.861	26.981	0.503
690.000	421.173	79.989	19.994	99.802	19.877	25.496	0.507
691.500	421.912	79.988	19.994	99.806	19.896	23.686	0.486
693.000	422.695	79.987	19.995	99.804	19.912	22.178	0.508
694.500	423.421	79.988	19.994	99.810	19.926	20.838	0.500
696.000	424.202	79.988	19.994	99.808	19.938	19.701	0.531
697.500	424.955	79.989	19.995	99.804	19.957	17.903	0.495
699.000	425.762	79.987	19.995	99.813	19.967	16.949	0.540
700.500	426.504	79.989	19.994	99.812	19.971	16.540	0.503
702.000	427.271	79.989	19.995	99.807	19.980	15.641	0.519
703.500	428.071	79.989	19.994	99.815	19.988	14.879	0.542
705.000	428.855	79.989	19.994	99.824	19.994	14.312	0.509
706.500	429.609	79.987	19.995	99.827	20.003	13.506	0.503
708.000	430.349	79.987	19.994	99.825	20.009	12.891	0.476
709.500	431.155	79.987	19.994	99.825	20.013	12.520	0.539
711.000	431.953	79.986	19.995	99.820	20.016	12.211	0.535
712.500	432.777	79.985	19.995	99.817	20.025	11.393	0.557
714.000	433.552	79.985	19.995	99.820	20.028	11.097	0.551
715.500	434.347	79.986	19.995	99.808	20.035	10.458	0.531
717.000	435.092	79.984	19.994	99.805	20.035	10.443	0.495
718.500	435.891	79.985	19.994	99.808	20.040	9.962	0.545
720.000	436.623	79.986	19.995	99.799	20.043	9.688	0.488
721.500	437.431	79.987	19.996	99.803	20.048	9.232	0.497
723.000	438.204	79.987	19.995	99.813	20.047	9.247	0.532
724.500	438.970	79.986	19.997	99.822	20.052	8.824	0.530
726.000	439.735	79.988	19.994	99.827	20.056	8.400	0.476
727.500	440.478	79.986	19.994	99.832	20.057	8.360	0.494
729.000	441.280	79.987	19.994	99.826	20.060	8.010	0.499
730.500	441.998	79.987	19.995	99.818	20.064	7.710	0.469
732.000	442.810	79.987	19.994	99.828	20.068	7.329	0.540
733.500	443.590	79.987	19.994	99.821	20.068	7.251	0.519
735.000	444.377	79.987	19.995	99.813	20.068	7.312	0.529
736.500	445.086	79.987	19.993	99.826	20.069	7.214	0.468
738.000	445.893	79.987	19.993	99.819	20.066	7.507	0.543
739.500	446.652	79.986	19.993	99.802	20.070	7.127	0.495
741.000	447.440	79.987	19.995	99.805	20.068	7.300	0.514
742.500	448.207	79.986	19.996	99.805	20.071	7.023	0.529
744.000	448.935	79.987	19.994	99.803	20.074	6.744	0.490
745.500	449.780	79.986	19.994	99.816	20.068	7.266	0.561
747.000	450.546	79.986	19.995	99.834	20.069	7.173	0.510
748.500	451.304	79.985	19.996	99.815	20.068	7.285	0.517
750.000	452.050	79.987	19.994	99.807	20.072	6.865	0.506
751.500	452.776	79.988	19.994	99.826	20.081	6.075	0.480
753.000	453.602	79.988	19.995	99.830	20.076	6.497	0.546
754.500	454.350	79.987	19.994	99.828	20.077	6.418	0.501
756.000	455.094	79.989	19.993	99.832	20.079	6.195	0.498
757.500	455.921	79.988	19.994	99.839	20.075	6.616	0.559
759.000	456.670	79.989	19.994	99.843	20.076	6.557	0.501
760.500	457.439	79.988	19.992	99.841	20.079	6.272	0.520
762.000	458.236	79.989	19.992	99.839	20.083	5.857	0.522
763.500	459.016	79.989	19.992	99.832	20.078	6.319	0.518
765.000	459.835	79.988	19.993	99.823	20.084	5.778	0.545
766.500	460.583	79.986	19.993	99.811	20.080	6.102	0.490
768.000	461.374	79.988	19.995	99.812	20.078	6.376	0.529
769.500	462.151	79.988	19.995	99.825	20.079	6.282	0.502
771.000	462.969	79.987	19.994	99.823	20.076	6.527	0.542
772.500	463.676	79.987	19.995	99.810	20.075	6.580	0.498
774.000	464.477	79.986	19.995	99.818	20.075	6.606	0.531
775.500	465.253	79.987	19.994	99.816	20.077	6.438	0.517
777.000	466.000	79.988	19.992	99.812	20.080	6.180	0.504
778.500	466.787	79.988	19.994	99.817	20.079	6.264	0.526
780.000	467.574	79.988	19.994	99.821	20.077	6.397	0.535
781.500	468.341	79.987	19.994	99.812	20.081	6.044	0.511
783.000	469.100	79.989	19.994	99.821	20.077	6.417	0.514
784.500	469.848	79.991	19.994	99.835	20.080	6.167	0.522
786.000	470.618	79.990	19.992	99.815	20.079	6.227	0.489
787.500	471.353	79.991	19.994	99.813	20.077	6.446	0.501
789.000	472.170	79.990	19.995	99.822	20.078	6.287	0.555
790.500	472.966	79.990	19.995	99.827	20.075	6.581	0.514
792.000	473.711	79.988	19.994	99.818	20.079	6.276	0.501
793.500	474.497	79.988	19.995	99.811	20.078	6.284	0.516
795.000	475.199	79.987	19.995	99.817	20.076	6.503	0.484
796.500	476.023	79.986	19.995	99.807	20.072	6.925	0.548
798.000	476.769	79.986	19.997	99.814	20.070	7.121	0.495
799.500	477.584	79.986	19.996	99.811	20.082	5.943	0.525
801.000	478.312	79.987	19.996	99.807	20.072	6.908	0.481
802.500	479.100	79.986	19.994	99.805	20.072	6.949	0.521
804.000	479.832	79.986	19.996	99.806	20.077	6.428	0.499
805.500	480.567	79.987	19.996	99.803	20.075	6.628	0.493
807.000	481.337	79.987	19.995	99.803	20.081	6.058	0.500
808.500	482.071	79.989	19.995	99.804	20.074	6.751	0.500
810.000	482.803	79.988	19.994	99.818	20.075	6.634	0.479
811.500	483.588	79.988	19.993	99.818	20.078	6.337	0.516
813.000	484.315	79.989	19.993	99.811	20.077	6.409	0.485
814.500	485.107	79.989	19.994	99.810	20.078	6.328	0.528
816.000	485.859	79.988	19.994	99.811	20.081	6.088	0.495
817.500	486.621	79.989	19.994	99.813	20.085	5.697	0.500
819.000	487.367	79.988	19.993	99.816	20.079	6.211	0.496
820.500	488.145	79.987	19.993	99.809	20.079	6.226	0.505
822.000	488.898	79.987	19.994	99.817	20.076	6.489	0.489
823.500	489.679	79.987	19.994	99.807	20.077	6.396	0.504
825.000	490.445	79.988	19.995	99.806	20.074	6.701	0.497
826.500	491.144	79.987	19.994	99.807	20.075	6.605	0.471
828.000	491.945	79.987	19.993	99.805	20.073	6.826	0.542
829.500	492.701	79.987	19.993	99.804	20.072	6.910	0.501
831.000	493.478	79.988	19.995	99.794	20.072	6.860	0.508
832.500	494.232	79.988	19.994	99.793	20.071	6.959	0.494
834.000	495.035	79.988	19.994	99.804	20.077	6.417	0.521
835.500	495.769	79.989	19.993	99.805	20.069	7.230	0.488
837.000	496.515	79.989	19.995	99.804	20.070	7.105	0.506
838.500	497.285	79.989	19.993	99.804	20.069	7.160	0.521
840.000	498.041	79.989	19.993	99.804	20.068	7.249	0.512
841.500	498.799	79.990	19.994	99.806	20.070	7.111	0.502
843.000	499.544	79.989	19.993	99.806	20.070	7.076	0.510
844.500	500.332	79.989	19.994	99.806	20.070	7.131	0.520
846.000	501.137	79.989	19.992	99.806	20.071	7.030	0.540
847.500	501.866	79.990	19.993	99.807	20.070	7.129	0.508
849.000	502.623	79.989	19.993	99.805	20.072	6.878	0.506
850.500	503.368	79.987	19.994	99.805	20.067	7.411	0.496
852.000	504.138	79.988	19.997	99.811	20.072	6.882	0.496
853.500	504.895	79.987	19.995	99.806	20.071	7.024	0.511
855.000	505.666	79.988	19.994	99.803	20.066	7.494	0.506
856.500	506.416	79.988	19.997	99.812	20.074	6.711	0.503
858.000	507.184	79.987	19.995	99.819	20.071	7.019	0.519
859.500	507.951	79.988	19.995	99.807	20.074	6.693	0.506
861.000	508.751	79.989	19.996	99.806	20.078	6.321	0.507
862.500	509.517	79.988	19.995	99.820	20.074	6.732	0.507
864.000	510.226	79.991	19.995	99.809	20.072	6.946	0.472
865.500	511.004	79.991	19.995	99.802	20.074	6.729	0.526
867.000	511.755	79.990	19.994	99.807	20.067	7.386	0.492
868.500	512.565	79.990	19.993	99.805	20.072	6.860	0.523
870.000	513.347	80.009	19.994	99.804	20.074	6.748	0.528
871.500	514.093	80.009	19.994	99.809	20.071	6.990	0.521
873.000	514.878	80.008	19.996	99.803	20.076	6.518	0.539
874.500	515.667	80.007	19.994	99.800	20.069	7.182	0.512
876.000	516.437	80.008	19.995	99.799	20.069	7.193	0.490
877.500	517.204	80.007	19.996	99.798	20.069	7.212	0.517
879.000	518.000	80.006	19.995	99.799	20.070	7.123	0.529
880.500	518.779	80.007	19.996	99.800	20.068	7.290	0.518
882.000	519.546	80.002	19.996	99.800	20.071	7.009	0.503
883.500	520.288	80.001	19.996	99.794	20.068	7.278	0.482
885.000	521.074	79.991	19.995	99.785	20.067	7.361	0.537
886.500	521.865	79.987	19.994	99.789	20.068	7.282	0.538
888.000	522.630	79.985	19.996	99.801	20.065	7.567	0.515
889.500	523.394	79.987	19.993	99.802	20.070	7.058	0.509
891.000	524.166	79.986	19.993	99.803	20.068	7.312	0.504
892.500	524.935	79.987	19.994	99.806	20.068	7.247	0.476
894.000	525.707	79.988	19.994	99.808	20.067	7.395	0.526
895.500	526.447	79.987	19.995	99.808	20.069	7.225	0.492
897.000	527.225	79.988	19.994	99.802	20.068	7.272	0.514
898.500	527.986	79.987	19.994	99.804	20.065	7.598	0.513
900.000	528.775	79.985	19.993	99.807	20.067	7.369	0.511
901.500	529.533	79.986	19.996	99.815	20.064	7.643	0.503
903.000	530.336	79.987	19.995	99.822	20.061	7.919	0.511
904.500	531.093	79.987	19.995	99.804	20.062	7.856	0.512
906.000	531.881	79.986	19.994	99.804	20.065	7.590	0.517
907.500	532.655	79.985	19.993	99.807	20.063	7.755	0.517
909.000	533.422	79.985	19.994	99.806	20.069	7.225	0.502
910.500	534.220	79.986	19.993	99.805	20.066	7.486	0.523
912.000	534.993	79.986	19.994	99.811	20.067	7.397	0.499
913.500	535.748	79.987	19.995	99.808	20.066	7.507	0.508
915.000	536.535	79.987	19.994	99.806	20.066	7.464	0.546
916.500	537.294	79.988	19.995	99.804	20.065	7.566	0.515
918.000	538.081	79.988	19.995	99.809	20.068	7.313	0.539
919.500	538.862	79.989	19.994	99.809	20.067	7.363	0.503
921.000	539.639	79.988	19.994	99.805	20.069	7.198	0.522
922.500	540.410	79.990	19.994	99.802	20.069	7.206	0.533
924.000	541.197	79.991	19.993	99.804	20.070	7.068	0.515
925.500	541.985	79.990	19.994	99.797	20.068	7.305	0.525
927.000	542.760	79.991	19.993	99.795	20.065	7.526	0.527
928.500	543.484	79.989	19.994	99.800	20.064	7.705	0.491