File: 01_Data/Polyester_Felt/STA/N2/3K_min/Polyester_Felt_STA_N2_3KData_210721_R1.csv
##Temp./Â°C,Time/min,Mass loss(subtr.2)/mg,DSC(subtr.2)/(mW/mg),Sensit./(uV/mW)
48.949,10.0158,0.00253,-0.001615815,0.58411
49.549,12.11095,0.00550125,0.008018519,0.5844
50.149,12.71482,0.005810985,0.01343142,0.58468
50.749,13.186,0.007752158,0.01520511,0.58496
51.349,13.58937,0.004219355,0.01917533,0.58525
51.949,13.96234,0.00764139,0.01928426,0.58553
52.549,14.3108,0.000166195,0.01777791,0.58581
53.149,14.63902,0.01404546,0.0188478,0.58608
53.749,14.9536,0.005229262,0.01856697,0.58636
54.349,15.25567,0.01124799,0.02087355,0.58664
54.949,15.54609,0.000431216,0.02069326,0.58692
55.549,15.82867,0.005148698,0.02399652,0.58719
56.149,16.10231,0.002203601,0.02207833,0.58746
56.749,16.3695,-0.0003803289,0.02130269,0.58774
57.349,16.63274,0.004402682,0.02461153,0.58801
57.949,16.89118,0.00416271,0.02406527,0.58828
58.549,17.14235,0.004976138,0.02473809,0.58855
59.149,17.38878,0.006050644,0.02021017,0.58882
59.749,17.63243,0.00461343,0.02429287,0.58909
60.349,17.87304,0.004844576,0.02715452,0.58936
60.949,18.10977,0.00356235,0.02772688,0.58962
61.549,18.34439,0.008981549,0.02606412,0.58989
62.149,18.57647,0.002958142,0.02932163,0.59015
62.749,18.80723,0.002785101,0.0294972,0.59042
63.349,19.03526,0.003717342,0.02780327,0.59068
63.949,19.26151,0.003743963,0.02974993,0.59094
64.549,19.4847,0.005056202,0.02835864,0.5912
65.149,19.707,0.005378892,0.0272808,0.59146
65.749,19.92758,0.003138254,0.0291326,0.59172
66.349,20.14725,-0.002062702,0.03206645,0.59198
66.949,20.3649,0.009303709,0.03185473,0.59223
67.549,20.58249,0.003840525,0.03239083,0.59249
68.149,20.79862,0.00536704,0.03233416,0.59275
68.749,21.01481,0.001978931,0.03332332,0.593
69.349,21.22871,0.004332565,0.02931528,0.59325
69.949,21.442,0.004416059,0.02966526,0.59351
70.549,21.65468,0.006317166,0.03292467,0.59376
71.149,21.86758,0.00388072,0.02914113,0.59401
71.749,22.0797,0.004956715,0.02963342,0.59426
72.349,22.28987,0.007163995,0.03117116,0.5945
72.949,22.49929,0.001868193,0.03280137,0.59475
73.549,22.70766,0.004183864,0.03169614,0.595
74.149,22.9167,0.0027123,0.03009022,0.59524
74.749,23.1249,-0.001305212,0.02921124,0.59549
75.349,23.33394,0.004691705,0.02936446,0.59573
75.949,23.5401,0.00389712,0.02956373,0.59598
76.549,23.747,0.01586392,0.02781673,0.59622
77.149,23.9539,-0.0056533,0.02547699,0.59646
77.749,24.16163,0.008402959,0.02733009,0.5967
78.349,24.3695,0.0044271,0.02777532,0.59694
78.949,24.5767,0.002309164,0.02771332,0.59718
79.549,24.7836,0.001389083,0.02566868,0.59741
80.149,24.9887,0.004143778,0.02390618,0.59765
80.749,25.19351,0.00434954,0.02326091,0.59788
81.349,25.39753,-0.000293193,0.02196228,0.59812
81.949,25.60066,0.00804773,0.02070009,0.59835
82.549,25.80489,0.00501053,0.02257114,0.59858
83.149,26.00798,0.001658044,0.0218067,0.59882
83.749,26.21095,0.00446636,0.02028964,0.59905
84.349,26.412,0.003440419,0.02029642,0.59928
84.949,26.61334,0.002449358,0.01917798,0.5995
85.549,26.8147,0.004108983,0.02045696,0.59973
86.149,27.01595,0.006911232,0.01678112,0.59996
86.749,27.2165,0.003649685,0.01834184,0.60018
87.349,27.417,0.008726387,0.01748677,0.60041
87.949,27.6173,0.00382708,0.01861307,0.60063
88.549,27.81764,0.005305024,0.01534565,0.60086
89.149,28.01758,0.002334971,0.01660951,0.60108
89.749,28.2176,0.005986544,0.01923428,0.6013
90.349,28.4169,0.00639892,0.01410286,0.60152
90.949,28.61621,0.005933655,0.01698351,0.60174
91.549,28.81465,0.001872497,0.0138602,0.60196
92.149,29.01277,0.005308834,0.01388679,0.60217
92.749,29.21007,0.006931049,0.01413258,0.60239
93.349,29.407,0.0046175,0.01525964,0.6026
93.949,29.6043,0.007289716,0.01450419,0.60282
94.549,29.80208,0.00527269,0.01520006,0.60303
95.149,29.99891,0.005938542,0.01354909,0.60324
95.749,30.19551,0.005929807,0.01408169,0.60346
96.349,30.39139,0.00656592,0.01281116,0.60367
96.949,30.5876,0.005127248,0.0119851,0.60387
97.549,30.78435,0.006589255,0.01448977,0.60408
98.149,30.9802,0.006252454,0.01347989,0.60429
98.749,31.1759,0.008567972,0.01303968,0.6045
99.349,31.3711,0.001794037,0.0154799,0.6047
99.949,31.5663,0.0025333,0.01639002,0.60491
100.549,31.7621,0.00696702,0.01680156,0.60511
101.149,31.9579,0.00515796,0.01881436,0.60531
101.749,32.15406,0.00351433,0.01548519,0.60552
102.349,32.3496,0.002985052,0.01638644,0.60572
102.949,32.54541,0.004736286,0.01672392,0.60592
103.549,32.74028,0.00377335,0.0164924,0.60612
104.149,32.93517,0.004322562,0.01698412,0.60631
104.749,33.12957,0.006088851,0.01435801,0.60651
105.349,33.32434,0.004200275,0.01403405,0.60671
105.949,33.5195,0.006192936,0.01544837,0.6069
106.549,33.71458,0.00227142,0.01716415,0.6071
107.149,33.90953,0.0023338,0.01751494,0.60729
107.749,34.10393,0.001873811,0.02066833,0.60748
108.349,34.2992,0.007460015,0.0199328,0.60767
108.949,34.49457,0.00453573,0.02023231,0.60786
109.549,34.68909,0.003920498,0.01901434,0.60805
110.149,34.8836,0.006473466,0.01735489,0.60824
110.749,35.07776,0.00746324,0.01904372,0.60843
111.349,35.27163,0.00447188,0.02005968,0.60862
111.949,35.46585,0.00394963,0.01963801,0.6088
112.549,35.6599,0.00247394,0.02072851,0.60899
113.149,35.85415,0.005341018,0.02269264,0.60917
113.749,36.04869,0.00427116,0.02320254,0.60935
114.349,36.24223,0.003771247,0.02178916,0.60953
114.949,36.436,0.005723031,0.02123249,0.60971
115.549,36.62977,0.002976801,0.02243386,0.60989
116.149,36.82374,0.00517158,0.02400607,0.61007
116.749,37.01775,0.0008687768,0.02206381,0.61025
117.349,37.2113,0.0007595536,0.02153809,0.61043
117.949,37.4044,0.004418913,0.02141623,0.6106
118.549,37.59769,0.00347967,0.02045218,0.61078
119.149,37.7907,0.005812881,0.02202915,0.61095
119.749,37.98377,0.00242004,0.0222466,0.61113
120.349,38.17687,0.00176007,0.02244941,0.6113
120.949,38.37001,0.001577673,0.02364257,0.61147
121.549,38.56304,0.004067207,0.02658323,0.61164
122.149,38.7565,0.002089068,0.02714879,0.61181
122.749,38.9495,0.003410057,0.02595094,0.61198
123.349,39.1424,0.003451292,0.02519371,0.61214
123.949,39.3348,0.005048006,0.02709591,0.61231
124.549,39.52718,0.00340365,0.02748332,0.61248
125.149,39.71925,0.00340169,0.02805203,0.61264
125.749,39.91126,0.00354436,0.0296825,0.6128
126.349,40.104,0.0006829708,0.02846306,0.61297
126.949,40.29653,0.008965214,0.02730861,0.61313
127.549,40.48873,0.001183112,0.03059031,0.61329
128.149,40.68053,0.005190984,0.0256606,0.61345
128.749,40.87238,0.002553353,0.02542184,0.61361
129.349,41.06413,0.003842271,0.02455272,0.61377
129.949,41.2562,0.002887991,0.02450628,0.61392
130.549,41.44787,0.00495003,0.02612763,0.61408
131.149,41.63926,0.003963004,0.02298427,0.61423
131.749,41.83076,0.00628222,0.02597803,0.61439
132.349,42.0227,0.00233863,0.0255543,0.61454
132.949,42.2141,0.003744618,0.02544597,0.61469
133.549,42.40566,0.004978444,0.02443353,0.61484
134.149,42.59689,0.005036115,0.02376868,0.61499
134.749,42.78776,0.00162057,0.02520369,0.61514
135.349,42.97898,0.0096504,0.02414865,0.61529
135.949,43.17002,0.002932982,0.02729401,0.61544
136.549,43.36061,0.002529969,0.02623944,0.61558
137.149,43.55137,0.002303372,0.02321969,0.61573
137.749,43.74184,0.00255497,0.02357861,0.61587
138.349,43.93282,0.005176834,0.02526234,0.61602
138.949,44.12356,0.001423218,0.02592123,0.61616
139.549,44.31388,0.00408851,0.02729814,0.6163
140.149,44.50398,0.002758108,0.02661321,0.61644
140.749,44.6939,0.00407,0.02802817,0.61658
141.349,44.8827,0.004070004,0.0260195,0.61672
141.949,45.0725,0.003081533,0.02449965,0.61686
142.549,45.26256,0.0032264,0.02309588,0.61699
143.149,45.4529,0.00782896,0.023352,0.61713
143.749,45.6431,0.002348364,0.02532762,0.61726
144.349,45.83365,0.002539334,0.02293788,0.6174
144.949,46.02317,0.00385321,0.02444129,0.61753
145.549,46.21331,0.007890392,0.02419651,0.61766
146.149,46.40305,0.004892965,0.02545002,0.61779
146.749,46.5926,0.003786055,0.02601243,0.61792
147.349,46.7819,0.00328792,0.02697562,0.61805
147.949,46.97007,0.004600925,0.02575138,0.61818
148.549,47.15874,0.004687499,0.02595565,0.61831
149.149,47.34773,0.005243032,0.03006472,0.61843
149.749,47.53798,0.0066863,0.03091676,0.61856
150.349,47.72867,0.006111785,0.03147771,0.61868
150.949,47.91819,0.006039905,0.03151309,0.61881
151.549,48.1074,0.004720069,0.03288215,0.61893
152.149,48.29623,0.004727473,0.03172091,0.61905
152.749,48.48496,0.0027032,0.03254448,0.61917
153.349,48.67435,0.002750183,0.03133772,0.61929
153.949,48.86343,0.00271205,0.03122379,0.61941
154.549,49.0529,0.00360205,0.03249248,0.61953
155.149,49.24181,0.00376384,0.03010955,0.61964
155.749,49.43049,0.002172411,0.02968231,0.61976
156.349,49.61878,0.004691178,0.03083195,0.61988
156.949,49.8077,0.005807796,0.03065425,0.61999
157.549,49.9961,0.004916458,0.02811366,0.6201
158.149,50.18481,0.004986354,0.03015216,0.62021
158.749,50.37318,0.005013972,0.03067034,0.62032
159.349,50.56194,0.005917975,0.02920343,0.62043
159.949,50.75055,0.007024452,0.02648503,0.62054
160.549,50.93938,0.004392776,0.02388695,0.62065
161.149,51.12784,0.003065983,0.02401508,0.62076
161.749,51.3162,0.002403563,0.0251087,0.62087
162.349,51.505,0.001778007,0.02356806,0.62097
162.949,51.69412,0.003034394,0.02335795,0.62108
163.549,51.88261,0.004499862,0.0245529,0.62118
164.149,52.07115,0.004499999,0.02100565,0.62128
164.749,52.25997,0.0031316,0.02379097,0.62138
165.349,52.4482,0.00417055,0.02381185,0.62148
165.949,52.6369,0.00307901,0.02276549,0.62158
166.549,52.8256,0.003559862,0.02240655,0.62168
167.149,53.01386,0.002192925,0.02121901,0.62178
167.749,53.20259,0.0009155342,0.0205194,0.62188
168.349,53.39155,0.0008766789,0.02347877,0.62197
168.949,53.5798,-0.0001259809,0.02369767,0.62207
169.549,53.7679,-9.777997e-05,0.02273832,0.62216
170.149,53.9563,0.00357573,0.02179485,0.62225
170.749,54.1447,0.003507775,0.02055773,0.62235
171.349,54.3339,0.0008387764,0.02056236,0.62244
171.949,54.52267,0.002878507,0.02114331,0.62253
172.549,54.71091,0.00238266,0.02261716,0.62262
173.149,54.8992,0.000447291,0.02323553,0.6227
173.749,55.08687,0.00308072,0.02008616,0.62279
174.349,55.2744,0.001717356,0.02421481,0.62288
174.949,55.46167,0.001741106,0.02271634,0.62296
175.549,55.6487,0.00175238,0.02142294,0.62305
176.149,55.8362,0.00175066,0.0235329,0.62313
176.749,56.02424,0.002920066,0.01926511,0.62321
177.349,56.21255,0.001540278,0.02020708,0.6233
177.949,56.40064,0.0005346086,0.02002487,0.62338
178.549,56.58865,0.001227525,0.02371271,0.62346
179.149,56.77661,0.0004540488,0.02146417,0.62353
179.749,56.96476,-0.0001139148,0.02019013,0.62361
180.349,57.15356,-6.1276e-05,0.02030589,0.62369
180.949,57.3421,0.00169278,0.02017132,0.62377
181.549,57.5304,0.0003416165,0.01794151,0.62384
182.149,57.7183,0.002297251,0.02149174,0.62391
182.749,57.90605,0.00165001,0.02102691,0.62399
183.349,58.0937,0.00165,0.01830004,0.62406
183.949,58.2809,0.00165,0.02307911,0.62413
184.549,58.468,0.001651249,0.02086524,0.6242
185.149,58.65546,0.000655356,0.02157162,0.62427
185.749,58.84219,0.00383313,0.02105676,0.62434
186.349,59.0298,0.00153997,0.01905815,0.62441
186.949,59.2174,0.00151648,0.01809802,0.62447
187.549,59.4053,0.000498356,0.02309292,0.62454
188.149,59.5931,0.000102965,0.02040023,0.6246
188.749,59.78,-0.0002192515,0.01987684,0.62467
189.349,59.967,-0.001529185,0.02160118,0.62473
189.949,60.1545,0.002999045,0.01907313,0.62479
190.549,60.3423,-0.0001718457,0.02172396,0.62485
191.149,60.5302,0.00172238,0.020614,0.62491
191.749,60.7181,0.0004527837,0.02049791,0.62497
192.349,60.9052,-0.0002030448,0.02287444,0.62503
192.949,61.0922,-0.000228391,0.02154854,0.62509
193.549,61.27949,0.001137805,0.02307234,0.62514
194.149,61.46699,-0.00156607,0.02150802,0.6252
194.749,61.6543,0.0003727308,0.02235148,0.62525
195.349,61.8413,0.00172557,0.02479899,0.62531
195.949,62.028,-0.000220015,0.02424706,0.62536
196.549,62.2151,0.001101791,0.02611067,0.62541
197.149,62.40269,0.0011,0.02367112,0.62546
197.749,62.59,0.001377081,0.02604531,0.62551
198.349,62.7775,0.003398158,0.02826957,0.62556
198.949,62.96481,-0.0005033814,0.02743985,0.62561
199.549,63.1514,0.000153104,0.0263737,0.62566
200.149,63.3387,0.0007750567,0.02727649,0.6257
200.749,63.52567,-0.000651948,0.02757707,0.62575
201.349,63.71356,0.0007701873,0.02940853,0.62579
201.949,63.90116,0.0003604102,0.02687092,0.62584
202.549,64.08893,-0.0001632465,0.02919385,0.62588
203.149,64.27673,0.001246941,0.02784952,0.62592
203.749,64.46417,0.002414812,0.02744489,0.62596
204.349,64.6516,0.00107503,0.02824879,0.626
204.949,64.83928,0.001028313,0.02590058,0.62604
205.549,65.02674,0.000651218,0.02639382,0.62608
206.149,65.214,0.0004400195,0.02683952,0.62611
206.749,65.40135,-0.0007393091,0.03021608,0.62615
207.349,65.5878,0.0004404647,0.02631108,0.62618
207.949,65.775,-0.000868001,0.028077,0.62622
208.549,65.96259,0.001755286,0.0272185,0.62625
209.149,66.15003,0.001762839,0.02435036,0.62628
209.749,66.33759,0.0007729005,0.02783204,0.62632
210.349,66.52466,0.002053424,0.02559103,0.62635
210.949,66.71244,0.0007677792,0.02387639,0.62638
211.549,66.90037,0.001132566,0.02758982,0.6264
212.149,67.08801,0.0003846661,0.02513039,0.62643
212.749,67.27549,4.74515e-05,0.0281941,0.62646
213.349,67.46246,-6.920559e-05,0.02791588,0.62648
213.949,67.64968,-0.0004650382,0.0280971,0.62651
214.549,67.83706,0.0003653353,0.02708764,0.62653
215.149,68.02331,-0.0004209378,0.02751438,0.62656
215.749,68.21034,0.002173369,0.02928773,0.62658
216.349,68.39749,-0.001160049,0.02783148,0.6266
216.949,68.58544,-0.0004080004,0.02736191,0.62662
217.549,68.77381,-0.001074412,0.02948054,0.62664
218.149,68.9613,0.000212884,0.02673676,0.62666
218.749,69.14887,-0.001094285,0.02809123,0.62668
219.349,69.33677,0.0005140765,0.03110044,0.62669
219.949,69.52468,-0.001140388,0.0336418,0.62671
220.549,69.71287,-0.001087311,0.03269992,0.62672
221.149,69.9008,0.0002715821,0.02820464,0.62674
221.749,70.08754,0.003572229,0.03215362,0.62675
222.349,70.27408,-0.001070634,0.03365745,0.62676
222.949,70.46084,-0.002258641,0.03430232,0.62677
223.549,70.64764,-0.0008704735,0.03415141,0.62678
224.149,70.83459,-0.00325786,0.03306034,0.62679
224.749,71.02171,-0.000859911,0.03386187,0.6268
225.349,71.2096,-0.0005791511,0.03565878,0.62681
225.949,71.3973,-0.001968227,0.03519208,0.62682
226.549,71.5861,-0.001639566,0.03700526,0.62682
227.149,71.77401,-0.002689495,0.0374483,0.62683
227.749,71.962,-0.00296043,0.03916434,0.62683
228.349,72.14996,-0.0006511367,0.03770033,0.62683
228.949,72.3376,-0.001895051,0.03705435,0.62684
229.549,72.5247,-0.00262287,0.03971284,0.62684
230.149,72.7116,-0.00179832,0.04141052,0.62684
230.749,72.8989,-0.0025166,0.04014844,0.62684
231.349,73.0852,-0.00497054,0.03983209,0.62684
231.949,73.27291,-0.003542435,0.04071527,0.62683
232.549,73.46024,-0.00225942,0.04097535,0.62683
233.149,73.64712,-0.001347696,0.04573883,0.62683
233.749,73.83615,-0.002751882,0.04398947,0.62682
234.349,74.024,-0.00261844,0.04630497,0.62682
234.949,74.21208,-0.00377148,0.04518337,0.62681
235.549,74.4002,-0.00263,0.04696277,0.6268
236.149,74.5879,-0.003519533,0.04922338,0.62679
236.749,74.77589,-0.002288524,0.04908472,0.62678
237.349,74.96343,-0.00295951,0.04942844,0.62677
237.949,75.1509,-0.00162539,0.05177268,0.62676
238.549,75.33869,-0.0029509,0.05277173,0.62675
239.149,75.52675,-0.00432023,0.05407774,0.62674
239.749,75.71436,-0.00164298,0.05636705,0.62672
240.349,75.9017,-0.001637855,0.05341263,0.62671
240.949,76.08892,-0.002947139,0.05772737,0.62669
241.549,76.2757,-0.004411005,0.06044382,0.62667
242.149,76.46346,-0.003243493,0.06451696,0.62666
242.749,76.65123,-0.002958635,0.06596654,0.62664
243.349,76.83874,-0.00360135,0.06921355,0.62662
243.949,77.0262,-0.00191766,0.07387137,0.6266
244.549,77.21327,-0.003103375,0.0763331,0.62658
245.149,77.4008,-0.004590865,0.07875234,0.62656
245.749,77.5876,-0.004592525,0.08444054,0.62653
246.349,77.77459,-0.004939034,0.08881136,0.62651
246.949,77.9616,-0.005027625,0.09501656,0.62649
247.549,78.14927,-0.00624001,0.09768803,0.62646
248.149,78.33762,-0.005293986,0.10703,0.62643
248.749,78.5252,-0.006207154,0.11546,0.62641
249.349,78.71295,-0.007559997,0.12711,0.62638
249.949,78.9012,-0.00756,0.13895,0.62635
250.549,79.09,-0.00756,0.15614,0.62632
251.149,79.27853,-0.007686199,0.16736,0.62629
251.749,79.46689,-0.00624,0.18074,0.62626
252.349,79.65495,-0.006240221,0.19099,0.62622
252.949,79.8433,-0.003482715,0.20341,0.62619
253.549,80.0313,-0.007678014,0.21832,0.62616
254.149,80.2202,-0.00569064,0.2274,0.62612
254.749,80.40876,-0.006071755,0.23689,0.62609
255.349,80.5974,-0.00797989,0.24449,0.62605
255.949,80.786,-0.008220692,0.24832,0.62601
256.549,80.97423,-0.00573606,0.252,0.62597
257.149,81.16181,-0.007339404,0.25201,0.62593
257.749,81.3501,-0.008329444,0.24459,0.62589
258.349,81.53825,-0.008980359,0.23339,0.62585
258.949,81.72672,-0.007639516,0.2149,0.62581
259.549,81.91444,-0.0070543,0.19075,0.62577
260.149,82.10146,-0.00702246,0.16172,0.62572
260.749,82.28926,-0.008710451,0.13497,0.62568
261.349,82.47669,-0.006353069,0.11421,0.62563
261.949,82.66407,-0.008989481,0.09542012,0.62559
262.549,82.85099,-0.008979675,0.08429663,0.62554
263.149,83.03823,-0.00929346,0.06989162,0.62549
263.749,83.22581,-0.008010011,0.06371496,0.62544
264.349,83.41371,-0.009322385,0.05830779,0.62539
264.949,83.60128,-0.008984844,0.05284765,0.62534
265.549,83.7888,-0.01064012,0.05146523,0.62529
266.149,83.97628,-0.01064,0.04743071,0.62524
266.749,84.16445,-0.009325289,0.0467582,0.62518
267.349,84.35249,-0.01087445,0.04568109,0.62513
267.949,84.5408,-0.01216749,0.04133537,0.62507
268.549,84.72919,-0.01081689,0.03945978,0.62502
269.149,84.91819,-0.01084982,0.04114349,0.62496
269.749,85.1067,-0.01081916,0.03898822,0.6249
270.349,85.295,-0.01019542,0.0385302,0.62485
270.949,85.4833,-0.01086,0.03954925,0.62479
271.549,85.67187,-0.00954542,0.03955022,0.62473
272.149,85.86078,-0.01107504,0.0416546,0.62467
272.749,86.0488,-0.01238644,0.04130816,0.6246
273.349,86.23725,-0.01238993,0.0394683,0.62454
273.949,86.4249,-0.01383648,0.04085036,0.62448
274.549,86.6129,-0.01372769,0.04141589,0.62441
275.149,86.8018,-0.0137021,0.03777477,0.62435
275.749,86.9902,-0.01428291,0.04017847,0.62428
276.349,87.17904,-0.01436559,0.04069667,0.62421
276.949,87.3677,-0.01446225,0.03986205,0.62415
277.549,87.5552,-0.01327743,0.03973542,0.62408
278.149,87.74328,-0.0146561,0.04009644,0.62401
278.749,87.93126,-0.01323967,0.0389775,0.62394
279.349,88.11926,-0.01449427,0.04125697,0.62387
279.949,88.30792,-0.01579569,0.04068201,0.62379
280.549,88.4956,-0.01573159,0.04120631,0.62372
281.149,88.68415,-0.01421544,0.04346391,0.62365
281.749,88.87236,-0.01541918,0.04279831,0.62357
282.349,89.05996,-0.01579015,0.0453195,0.6235
282.949,89.24772,-0.01579083,0.04365165,0.62342
283.549,89.43509,-0.01712805,0.04443091,0.62335
284.149,89.62324,-0.0175422,0.04606974,0.62327
284.749,89.8115,-0.01521598,0.0478461,0.62319
285.349,90.0005,-0.01711209,0.04711582,0.62311
285.949,90.18911,-0.0143606,0.04566612,0.62303
286.549,90.37768,-0.01819471,0.04636464,0.62295
287.149,90.56577,-0.01732257,0.04596735,0.62287
287.749,90.75421,-0.01688106,0.04316353,0.62278
288.349,90.94249,-0.01592252,0.04595243,0.6227
288.949,91.13059,-0.01687793,0.04356459,0.62261
289.549,91.31935,-0.01688069,0.04514368,0.62253
290.149,91.5081,-0.01966839,0.04612591,0.62244
290.749,91.69697,-0.01806695,0.04374056,0.62236
291.349,91.88552,-0.01937292,0.04591321,0.62227
291.949,92.07406,-0.02040005,0.04371626,0.62218
292.549,92.26225,-0.02016361,0.04132113,0.62209
293.149,92.4504,-0.02040035,0.04410211,0.622
293.749,92.63894,-0.02028921,0.04050661,0.62191
294.349,92.82746,-0.02206346,0.04462065,0.62182
294.949,93.0162,-0.02005201,0.04378537,0.62172
295.549,93.20533,-0.02086103,0.04356218,0.62163
296.149,93.39429,-0.02460307,0.04641287,0.62154
296.749,93.58345,-0.02204158,0.04575372,0.62144
297.349,93.77287,-0.02211107,0.04668636,0.62134
297.949,93.96199,-0.02321412,0.04605877,0.62125
298.549,94.1512,-0.02380141,0.04502096,0.62115
299.149,94.34022,-0.02526148,0.04719907,0.62105
299.749,94.52942,-0.0238944,0.0468753,0.62095
300.349,94.71901,-0.02398671,0.04623955,0.62085
300.949,94.90775,-0.02628195,0.04571888,0.62075
301.549,95.09604,-0.02488855,0.04523963,0.62065
302.149,95.28419,-0.02363591,0.04678703,0.62055
302.749,95.47273,-0.02612265,0.04552289,0.62044
303.349,95.66173,-0.02716505,0.04944353,0.62034
303.949,95.85158,-0.02653956,0.04930542,0.62023
304.549,96.04088,-0.0279264,0.04915282,0.62013
305.149,96.22935,-0.02682708,0.04691085,0.62002
305.749,96.41871,-0.0281831,0.04729439,0.61991
306.349,96.6083,-0.02949119,0.04675986,0.61981
306.949,96.79809,-0.02878034,0.0441681,0.6197
307.549,96.988,-0.02643064,0.04559747,0.61959
308.149,97.17724,-0.03041356,0.04342922,0.61948
308.749,97.36627,-0.03038003,0.04422247,0.61937
309.349,97.5548,-0.02907067,0.04396241,0.61925
309.949,97.74327,-0.02908787,0.04415274,0.61914
310.549,97.932,-0.02939706,0.04375888,0.61903
311.149,98.12074,-0.02905516,0.04440356,0.61891
311.749,98.31023,-0.03110495,0.04504469,0.6188
312.349,98.4992,-0.03169001,0.04449579,0.61868
312.949,98.6884,-0.03304493,0.04391368,0.61856
313.549,98.87695,-0.03035188,0.04299448,0.61845
314.149,99.06603,-0.03170022,0.04247034,0.61833
314.749,99.25498,-0.03279669,0.03808933,0.61821
315.349,99.44336,-0.03399991,0.03785698,0.61809
315.949,99.63238,-0.03531954,0.0412484,0.61797
316.549,99.82138,-0.03312616,0.03745473,0.61784
317.149,100.011,-0.03297433,0.03657833,0.61772
317.749,100.2,-0.03301317,0.03802252,0.6176
318.349,100.39,-0.03552818,0.03944937,0.61748
318.949,100.5791,-0.03531674,0.0388341,0.61735
319.549,100.769,-0.03782931,0.03900849,0.61722
320.149,100.958,-0.03782911,0.04033313,0.6171
320.749,101.148,-0.03717593,0.03988497,0.61697
321.349,101.337,-0.03728137,0.03915893,0.61684
321.949,101.527,-0.03867979,0.03814523,0.61671
322.549,101.717,-0.03986041,0.03728258,0.61658
323.149,101.907,-0.04147637,0.03475282,0.61645
323.749,102.097,-0.04014534,0.0349305,0.61632
324.349,102.288,-0.03977904,0.03672966,0.61619
324.949,102.479,-0.04013894,0.03509354,0.61606
325.549,102.67,-0.04099744,0.03544019,0.61593
326.149,102.861,-0.042841,0.03472297,0.61579
326.749,103.051,-0.04002997,0.0357973,0.61566
327.349,103.241,-0.04069533,0.03581519,0.61552
327.949,103.43,-0.04265958,0.03671185,0.61538
328.549,103.6201,-0.04125902,0.03714714,0.61525
329.149,103.81,-0.04451801,0.03487678,0.61511
329.749,103.999,-0.04244663,0.03505305,0.61497
330.349,104.19,-0.04375841,0.03567457,0.61483
330.949,104.38,-0.04233458,0.03586354,0.61469
331.549,104.57,-0.04397134,0.03600649,0.61455
332.149,104.76,-0.04386797,0.03670763,0.61441
332.749,104.949,-0.04364958,0.03660998,0.61426
333.349,105.14,-0.04660576,0.03516338,0.61412
333.949,105.33,-0.04767299,0.03644741,0.61398
334.549,105.52,-0.0462824,0.03492855,0.61383
335.149,105.71,-0.04627949,0.03756829,0.61369
335.749,105.901,-0.04664688,0.03737133,0.61354
336.349,106.092,-0.04727931,0.03669679,0.61339
336.949,106.282,-0.0485874,0.03539963,0.61325
337.549,106.472,-0.04858949,0.03532424,0.6131
338.149,106.6617,-0.04923975,0.03723207,0.61295
338.749,106.852,-0.04921982,0.03548485,0.6128
339.349,107.042,-0.05186627,0.0359751,0.61265
339.949,107.233,-0.05056,0.03570673,0.6125
340.549,107.423,-0.05188056,0.03658381,0.61234
341.149,107.613,-0.05176996,0.0364474,0.61219
341.749,107.803,-0.05186893,0.03785745,0.61204
342.349,107.993,-0.05319193,0.03602199,0.61188
342.949,108.184,-0.05450992,0.03285043,0.61173
343.549,108.374,-0.05581814,0.03639347,0.61157
344.149,108.564,-0.05581805,0.03514997,0.61141
344.749,108.756,-0.05581494,0.0359815,0.61126
345.349,108.946,-0.05711161,0.03766308,0.6111
345.949,109.136,-0.05845861,0.03690372,0.61094
346.549,109.326,-0.05830656,0.03720394,0.61078
347.149,109.516,-0.05637631,0.03654899,0.61062
347.749,109.707,-0.06436382,0.04049335,0.61046
348.349,109.896,-0.06119741,0.03578212,0.61029
348.949,110.086,-0.06234857,0.03636526,0.61013
349.549,110.276,-0.06301239,0.03890875,0.60997
350.149,110.466,-0.06426995,0.0381891,0.6098
350.749,110.656,-0.06432377,0.03550467,0.60964
351.349,110.846,-0.07090217,0.03842838,0.60947
351.949,111.037,-0.06775419,0.03912268,0.60931
352.549,111.2274,-0.06761841,0.03655719,0.60914
353.149,111.419,-0.07028525,0.03472879,0.60897
353.749,111.611,-0.07371267,0.0376617,0.6088
354.349,111.803,-0.07391336,0.03881017,0.60863
354.949,111.994,-0.07530507,0.03994254,0.60846
355.549,112.186,-0.07741974,0.0391089,0.60829
356.149,112.377,-0.07808716,0.04052852,0.60812
356.749,112.568,-0.08351321,0.04178245,0.60795
357.349,112.76,-0.08277475,0.04419884,0.60778
357.949,112.95,-0.08481226,0.0412845,0.6076
358.549,113.142,-0.0875254,0.04186045,0.60743
359.149,113.333,-0.08884209,0.04125865,0.60725
359.749,113.525,-0.09182181,0.04270912,0.60708
360.349,113.717,-0.093009,0.04324114,0.6069
360.949,113.909,-0.09563537,0.04422528,0.60673
361.549,114.102,-0.09709212,0.04702195,0.60655
362.149,114.293,-0.10221,0.04902855,0.60637
362.749,114.486,-0.10363,0.04935261,0.60619
363.349,114.679,-0.10759,0.04987937,0.60601
363.949,114.871,-0.10903,0.04884443,0.60583
364.549,115.063,-0.11415,0.05105829,0.60565
365.149,115.255,-0.11718,0.05013843,0.60547
365.749,115.448,-0.12204,0.04982246,0.60528
366.349,115.64,-0.12512,0.05497797,0.6051
366.949,115.832,-0.13008,0.05929672,0.60491
367.549,116.025,-0.13273,0.06038708,0.60473
368.149,116.218,-0.13684,0.05908007,0.60454
368.749,116.41,-0.14257,0.06066641,0.60436
369.349,116.603,-0.14878,0.06201119,0.60417
369.949,116.795,-0.15474,0.06218871,0.60398
370.549,116.987,-0.15928,0.0629659,0.6038
371.149,117.18,-0.16583,0.06854018,0.60361
371.749,117.372,-0.1711,0.06737821,0.60342
372.349,117.564,-0.17602,0.06927671,0.60323
372.949,117.756,-0.18554,0.06974094,0.60303
373.549,117.948,-0.1903,0.07276674,0.60284
374.149,118.141,-0.19799,0.0724605,0.60265
374.749,118.3328,-0.20546,0.07023834,0.60246
375.349,118.525,-0.21159,0.07460146,0.60226
375.949,118.717,-0.22419,0.07635087,0.60207
376.549,118.909,-0.23102,0.07536475,0.60187
377.149,119.102,-0.23895,0.07743596,0.60168
377.749,119.2963,-0.24817,0.07947095,0.60148
378.349,119.49,-0.258,0.07985341,0.60128
378.949,119.682,-0.26948,0.07957894,0.60109
379.549,119.875,-0.27853,0.08205585,0.60089
380.149,120.068,-0.28835,0.10213,0.60069
380.749,120.261,-0.29784,0.09835465,0.60049
381.349,120.452,-0.31488,0.09806613,0.60029
381.949,120.644,-0.31879,0.10269,0.60009
382.549,120.835,-0.33317,0.10585,0.59988
383.149,121.026,-0.34508,0.10523,0.59968
383.749,121.219,-0.35797,0.11038,0.59948
384.349,121.4106,-0.36952,0.11259,0.59927
384.949,121.603,-0.3831,0.11403,0.59907
385.549,121.795,-0.39669,0.11573,0.59886
386.149,121.988,-0.40853,0.12302,0.59866
386.749,122.182,-0.42561,0.12764,0.59845
387.349,122.375,-0.4418,0.13074,0.59824
387.949,122.568,-0.45968,0.13146,0.59804
388.549,122.7614,-0.47869,0.1363,0.59783
389.149,122.955,-0.49198,0.13416,0.59762
389.749,123.147,-0.5112,0.13953,0.59741
390.349,123.34,-0.53125,0.14034,0.5972
390.949,123.533,-0.54973,0.14577,0.59699
391.549,123.727,-0.5687,0.14969,0.59677
392.149,123.921,-0.59138,0.15117,0.59656
392.749,124.114,-0.60834,0.15494,0.59635
393.349,124.307,-0.63341,0.15966,0.59614
393.949,124.501,-0.65648,0.16244,0.59592
394.549,124.693,-0.68013,0.16825,0.59571
395.149,124.887,-0.70615,0.17214,0.59549
395.749,125.08,-0.732,0.17528,0.59527
396.349,125.273,-0.7595,0.18141,0.59506
396.949,125.467,-0.78684,0.18681,0.59484
397.549,125.6601,-0.81463,0.19478,0.59462
398.149,125.853,-0.84641,0.19813,0.5944
398.749,126.047,-0.87744,0.20279,0.59418
399.349,126.241,-0.90996,0.20448,0.59396
399.949,126.435,-0.94364,0.21,0.59374
400.549,126.629,-0.9788,0.21257,0.59352
401.149,126.823,-1.01656,0.21834,0.5933
401.749,127.017,-1.05222,0.22398,0.59307
402.349,127.21,-1.08885,0.2296,0.59285
402.949,127.405,-1.12922,0.23229,0.59263
403.549,127.598,-1.16807,0.23411,0.5924
404.149,127.7914,-1.20918,0.23569,0.59218
404.749,127.985,-1.25226,0.24086,0.59195
405.349,128.178,-1.29609,0.24861,0.59172
405.949,128.372,-1.33929,0.2552,0.5915
406.549,128.566,-1.38654,0.25647,0.59127
407.149,128.76,-1.43343,0.25752,0.59104
407.749,128.954,-1.48113,0.25922,0.59081
408.349,129.148,-1.5295,0.26048,0.59058
408.949,129.342,-1.57953,0.26512,0.59035
409.549,129.5362,-1.63104,0.26789,0.59012
410.149,129.73,-1.68086,0.26896,0.58989
410.749,129.924,-1.73359,0.27019,0.58966
411.349,130.118,-1.78711,0.27317,0.58942
411.949,130.312,-1.84049,0.2793,0.58919
412.549,130.506,-1.89518,0.2788,0.58896
413.149,130.7,-1.9514,0.28156,0.58872
413.749,130.895,-2.00579,0.28052,0.58849
414.349,131.09,-2.06236,0.28355,0.58825
414.949,131.285,-2.11707,0.28284,0.58801
415.549,131.48,-2.17508,0.28566,0.58778
416.149,131.675,-2.23147,0.28273,0.58754
416.749,131.869,-2.28996,0.27951,0.5873
417.349,132.064,-2.343,0.27346,0.58706
417.949,132.259,-2.40111,0.27261,0.58682
418.549,132.453,-2.4544,0.27067,0.58658
419.149,132.6482,-2.51191,0.26536,0.58634
419.749,132.843,-2.56192,0.26182,0.5861
420.349,133.038,-2.61482,0.25678,0.58586
420.949,133.232,-2.66569,0.25089,0.58562
421.549,133.426,-2.71382,0.24284,0.58537
422.149,133.62,-2.76223,0.23599,0.58513
422.749,133.814,-2.80897,0.23145,0.58489
423.349,134.008,-2.85303,0.22381,0.58464
423.949,134.203,-2.89412,0.21518,0.5844
424.549,134.398,-2.93357,0.20614,0.58415
425.149,134.594,-2.9719,0.19815,0.5839
425.749,134.789,-3.00894,0.18812,0.58366
426.349,134.984,-3.04369,0.18274,0.58341
426.949,135.179,-3.07558,0.17174,0.58316
427.549,135.3736,-3.10613,0.16176,0.58291
428.149,135.568,-3.13317,0.15169,0.58266
428.749,135.763,-3.15908,0.14486,0.58241
429.349,135.9573,-3.18406,0.13581,0.58216
429.949,136.152,-3.20738,0.12957,0.58191
430.549,136.348,-3.22865,0.12504,0.58166
431.149,136.542,-3.24664,0.1218,0.58141
431.749,136.737,-3.26751,0.11593,0.58115
432.349,136.931,-3.28481,0.11041,0.5809
432.949,137.1254,-3.302,0.10438,0.58065
433.549,137.32,-3.3195,0.10242,0.58039
434.149,137.515,-3.33423,0.10248,0.58014
434.749,137.71,-3.35193,0.10212,0.57988
435.349,137.904,-3.36446,0.09848788,0.57962
435.949,138.098,-3.37751,0.09296432,0.57937
436.549,138.293,-3.39046,0.09278272,0.57911
437.149,138.487,-3.40203,0.08964097,0.57885
437.749,138.681,-3.41443,0.08674279,0.57859
438.349,138.876,-3.4269,0.08681637,0.57833
438.949,139.072,-3.43478,0.08339972,0.57807
439.549,139.268,-3.44722,0.08030254,0.57781
440.149,139.465,-3.45674,0.07752035,0.57755
440.749,139.661,-3.46636,0.07601325,0.57729
441.349,139.857,-3.47291,0.06982469,0.57703
441.949,140.053,-3.4816,0.07101162,0.57677
442.549,140.249,-3.49053,0.06600278,0.5765
443.149,140.445,-3.49854,0.0572715,0.57624
443.749,140.64,-3.50341,0.05736012,0.57598
444.349,140.8363,-3.51289,0.05650323,0.57571
444.949,141.032,-3.51913,0.04099974,0.57545
445.549,141.227,-3.52727,0.03976753,0.57518
446.149,141.422,-3.53122,0.03757685,0.57491
446.749,141.617,-3.53842,0.03230766,0.57465
447.349,141.813,-3.54278,0.03626833,0.57438
447.949,142.008,-3.5487,0.03088302,0.57411
448.549,142.204,-3.55461,0.03154367,0.57384
449.149,142.399,-3.56008,0.0320635,0.57357
449.749,142.595,-3.56509,0.0270018,0.57331
450.349,142.7911,-3.56826,0.02324997,0.57304
450.949,142.988,-3.57269,0.02564588,0.57276
451.549,143.184,-3.57605,0.0230146,0.57249
452.149,143.38,-3.5815,0.0213424,0.57222
452.749,143.576,-3.58307,0.01918809,0.57195
453.349,143.771,-3.58813,0.0197012,0.57168
453.949,143.967,-3.59297,0.01762104,0.5714
454.549,144.163,-3.5951,0.01654238,0.57113
455.149,144.359,-3.60005,0.01468172,0.57086
455.749,144.555,-3.60211,0.01244285,0.57058
456.349,144.751,-3.60479,0.01090569,0.57031
456.949,144.947,-3.60735,0.01066129,0.57003
457.549,145.144,-3.6135,0.00976592,0.56975
458.149,145.34,-3.61378,0.00973865,0.56948
458.749,145.536,-3.61657,0.00928992,0.5692
459.349,145.733,-3.62053,-0.01311173,0.56892
459.949,145.931,-3.62048,-0.01793458,0.56864
460.549,146.128,-3.62333,-0.01726508,0.56836
461.149,146.325,-3.62589,-0.02114858,0.56808
461.749,146.521,-3.62771,-0.02282632,0.5678
462.349,146.718,-3.62854,-0.02703485,0.56752
462.949,146.915,-3.6298,-0.02717951,0.56724
463.549,147.112,-3.63539,-0.0281139,0.56696
464.149,147.31,-3.63539,-0.03318089,0.56668
464.749,147.5071,-3.63802,-0.03323808,0.5664
465.349,147.704,-3.64068,-0.03607248,0.56611
465.949,147.901,-3.64108,-0.03549237,0.56583
466.549,148.097,-3.6416,-0.03821947,0.56555
467.149,148.294,-3.6453,-0.04190206,0.56526
467.749,148.491,-3.64684,-0.04310987,0.56498
468.349,148.689,-3.64811,-0.04200714,0.56469
468.949,148.8864,-3.65086,-0.04663722,0.56441
469.549,149.084,-3.65078,-0.04476534,0.56412
470.149,149.282,-3.65211,-0.05271023,0.56383
470.749,149.48,-3.65345,-0.05105364,0.56355
471.349,149.678,-3.6554,-0.05270326,0.56326
471.949,149.8753,-3.65619,-0.05374317,0.56297
472.549,150.074,-3.65671,-0.05459883,0.56268
473.149,150.271,-3.65802,-0.05892402,0.56239
473.749,150.469,-3.65953,-0.05844951,0.5621
474.349,150.666,-3.65934,-0.06219069,0.56181
474.949,150.864,-3.66329,-0.06147216,0.56152
475.549,151.061,-3.66611,-0.06452121,0.56123
476.149,151.259,-3.66789,-0.06609877,0.56094
476.749,151.458,-3.66557,-0.06336206,0.56064
477.349,151.658,-3.66122,-0.05963987,0.56035
477.949,151.857,-3.6641,-0.05811285,0.56006
478.549,152.055,-3.66969,-0.05523161,0.55976
479.149,152.2524,-3.677,-0.0619985,0.55947
479.749,152.4509,-3.67456,-0.06259323,0.55918
480.349,152.649,-3.65702,-0.06053718,0.55888
480.949,152.848,-3.67017,-0.06390983,0.55859
481.549,153.045,-3.67384,-0.06792849,0.55829
482.149,153.242,-3.67437,-0.07032061,0.55799
482.749,153.44,-3.67642,-0.06925536,0.5577
483.349,153.638,-3.67791,-0.06953819,0.5574
483.949,153.836,-3.67909,-0.07058112,0.5571
484.549,154.035,-3.67839,-0.07070048,0.5568
485.149,154.232,-3.67974,-0.07377806,0.5565
485.749,154.43,-3.68105,-0.07011423,0.5562
486.349,154.628,-3.68037,-0.07469761,0.5559
486.949,154.827,-3.68172,-0.07670995,0.5556
487.549,155.026,-3.68299,-0.07602149,0.5553
488.149,155.225,-3.68162,-0.07523814,0.555
488.749,155.424,-3.68435,-0.07452032,0.5547
489.349,155.623,-3.68414,-0.07455939,0.5544
489.949,155.822,-3.68303,-0.07242772,0.5541
490.549,156.022,-3.68567,-0.07327733,0.55379
491.149,156.22,-3.68552,-0.07626857,0.55349
491.749,156.419,-3.68568,-0.07858169,0.55319
492.349,156.618,-3.687,-0.07570507,0.55288
492.949,156.818,-3.6883,-0.07810027,0.55258
493.549,157.018,-3.68698,-0.07801492,0.55227
494.149,157.2185,-3.68895,-0.07698176,0.55197
494.749,157.417,-3.68962,-0.07898039,0.55166
495.349,157.616,-3.69094,-0.07646917,0.55135
495.949,157.816,-3.69093,-0.07992882,0.55105
496.549,158.015,-3.69093,-0.07909108,0.55074
497.149,158.213,-3.69225,-0.08148477,0.55043
497.749,158.413,-3.69095,-0.08109538,0.55012
498.349,158.612,-3.68981,-0.08168608,0.54982
498.949,158.812,-3.69224,-0.08387687,0.54951
499.549,159.011,-3.69212,-0.08470476,0.5492
500.149,159.211,-3.69473,-0.08281829,0.54889
500.749,159.41,-3.69478,-0.08239923,0.54858
501.349,159.61,-3.6931,-0.08137629,0.54827
501.949,159.809,-3.69269,-0.0817496,0.54795
502.549,160.009,-3.69308,-0.0795869,0.54764
503.149,160.208,-3.69334,-0.08081887,0.54733
503.749,160.408,-3.69333,-0.07913939,0.54702
504.349,160.608,-3.69431,-0.08185633,0.54671
504.949,160.8081,-3.69433,-0.08228784,0.54639
505.549,161.007,-3.69434,-0.08035002,0.54608
506.149,161.206,-3.69457,-0.08406029,0.54576
506.749,161.4056,-3.69499,-0.08269817,0.54545
507.349,161.605,-3.69631,-0.08480657,0.54514
507.949,161.8052,-3.69609,-0.08065115,0.54482
508.549,162.005,-3.69598,-0.08156509,0.5445
509.149,162.205,-3.69709,-0.07831251,0.54419
509.749,162.404,-3.69694,-0.08229856,0.54387
510.349,162.6022,-3.69795,-0.08270101,0.54355
510.949,162.8015,-3.69809,-0.08149544,0.54324
511.549,163.001,-3.69795,-0.08002244,0.54292
512.149,163.202,-3.70103,-0.08071362,0.5426
512.749,163.4022,-3.69668,-0.08100771,0.54228
513.349,163.602,-3.70084,-0.07842812,0.54196
513.949,163.802,-3.70124,-0.07765937,0.54164
514.549,164.001,-3.70102,-0.07768132,0.54132
515.149,164.2,-3.70102,-0.07422854,0.541
515.749,164.399,-3.70135,-0.07776957,0.54068
516.349,164.598,-3.70365,-0.07806478,0.54036
516.949,164.7968,-3.70366,-0.07873953,0.54004
517.549,164.996,-3.7054,-0.07724467,0.53972
518.149,165.195,-3.70429,-0.07331012,0.5394
518.749,165.396,-3.70563,-0.07181584,0.53907
519.349,165.595,-3.70424,-0.0760144,0.53875
519.949,165.794,-3.7053,-0.07261532,0.53843
520.549,165.994,-3.70292,-0.07454261,0.5381
521.149,166.194,-3.70563,-0.07577687,0.53778
521.749,166.396,-3.70695,-0.07644067,0.53746
522.349,166.596,-3.70696,-0.07113611,0.53713
522.949,166.798,-3.70817,-0.07313195,0.53681
523.549,166.998,-3.70826,-0.07393665,0.53648
524.149,167.199,-3.70694,-0.07041711,0.53615
524.749,167.399,-3.70826,-0.07163326,0.53583
525.349,167.599,-3.70815,-0.06990083,0.5355
525.949,167.799,-3.70882,-0.07111823,0.53517
526.549,167.999,-3.70946,-0.07000656,0.53485
527.149,168.199,-3.70979,-0.06946317,0.53452
527.749,168.399,-3.70983,-0.07095188,0.53419
528.349,168.5984,-3.71243,-0.06773631,0.53386
528.949,168.799,-3.71079,-0.06694578,0.53353
529.549,169,-3.71341,-0.06377334,0.5332
530.149,169.201,-3.71341,-0.06969005,0.53287
530.749,169.402,-3.71473,-0.06687612,0.53254
531.349,169.603,-3.71277,-0.06472345,0.53221
531.949,169.803,-3.71407,-0.06823271,0.53188
532.549,170.003,-3.71309,-0.06587212,0.53155
533.149,170.204,-3.71482,-0.06237592,0.53122
533.749,170.405,-3.71442,-0.06342768,0.53089
534.349,170.6054,-3.7155,-0.06380711,0.53056
534.949,170.806,-3.71633,-0.06018976,0.53022
535.549,171.0057,-3.7176,-0.06120145,0.52989
536.149,171.2062,-3.71657,-0.05894616,0.52956
536.749,171.407,-3.71641,-0.05220501,0.52922
537.349,171.608,-3.71868,-0.05728604,0.52889
537.949,171.81,-3.71737,-0.05563872,0.52856
538.549,172.012,-3.71872,-0.05466598,0.52822
539.149,172.213,-3.71857,-0.05534145,0.52789
539.749,172.413,-3.71727,-0.05665559,0.52755
540.349,172.614,-3.71858,-0.05864301,0.52722
540.949,172.814,-3.72017,-0.05675625,0.52688
541.549,173.015,-3.72252,-0.05464767,0.52654
542.149,173.217,-3.7184,-0.05353732,0.52621
542.749,173.418,-3.72141,-0.04851951,0.52587
543.349,173.62,-3.71941,-0.05078589,0.52553
543.949,173.822,-3.72362,-0.05010216,0.52519
544.549,174.023,-3.72326,-0.04934241,0.52486
545.149,174.225,-3.72306,-0.05344187,0.52452
545.749,174.425,-3.72252,-0.05302474,0.52418
546.349,174.625,-3.72519,-0.05246023,0.52384
546.949,174.825,-3.72102,-0.05439423,0.5235
547.549,175.025,-3.72581,-0.05216276,0.52316
548.149,175.226,-3.72669,-0.04942162,0.52282
548.749,175.427,-3.7225,-0.04898724,0.52248
549.349,175.63,-3.72606,-0.04911831,0.52214
549.949,175.831,-3.72491,-0.04882218,0.5218
550.549,176.032,-3.72658,-0.04465206,0.52146
551.149,176.233,-3.72886,-0.04916995,0.52112
551.749,176.432,-3.72768,-0.04982301,0.52077
552.349,176.632,-3.7267,-0.04327974,0.52043
552.949,176.831,-3.73014,-0.04167189,0.52009
553.549,177.032,-3.73064,-0.04357571,0.51975
554.149,177.234,-3.73027,-0.04220614,0.5194
554.749,177.437,-3.72709,-0.04473309,0.51906
555.349,177.64,-3.72828,-0.04122364,0.51872
555.949,177.844,-3.73445,-0.04168087,0.51837
556.549,178.047,-3.7319,-0.04220409,0.51803
557.149,178.249,-3.72911,-0.04253498,0.51768
557.749,178.45,-3.7314,-0.0424847,0.51734
558.349,178.651,-3.73412,-0.04261557,0.51699
558.949,178.852,-3.73258,-0.04319375,0.51665
559.549,179.053,-3.73285,-0.04121903,0.5163
560.149,179.255,-3.73586,-0.04263723,0.51595
560.749,179.457,-3.73494,-0.0460491,0.51561
561.349,179.658,-3.73513,-0.04076811,0.51526
561.949,179.86,-3.73783,-0.04076905,0.51491
562.549,180.0626,-3.73742,-0.04069927,0.51457
563.149,180.265,-3.73426,-0.04116714,0.51422
563.749,180.467,-3.74014,-0.04088306,0.51387
564.349,180.668,-3.73777,-0.03959427,0.51352
564.949,180.87,-3.74045,-0.03948292,0.51317
565.549,181.072,-3.73702,-0.04332797,0.51282
566.149,181.274,-3.74078,-0.04094976,0.51248
566.749,181.477,-3.7403,-0.04396868,0.51213
567.349,181.679,-3.73898,-0.04757068,0.51178
567.949,181.881,-3.7416,-0.04667189,0.51143
568.549,182.082,-3.7416,-0.04863215,0.51108
569.149,182.285,-3.74161,-0.04793775,0.51072
569.749,182.487,-3.74289,-0.04824006,0.51037
570.349,182.69,-3.74024,-0.05123711,0.51002
570.949,182.893,-3.74147,-0.04641267,0.50967
571.549,183.095,-3.74161,-0.04891757,0.50932
572.149,183.298,-3.74293,-0.04759534,0.50897
572.749,183.5013,-3.74427,-0.05052629,0.50862
573.349,183.705,-3.7429,-0.04904236,0.50826
573.949,183.908,-3.74278,-0.04990114,0.50791
574.549,184.111,-3.7426,-0.05217049,0.50756
575.149,184.314,-3.74459,-0.04565413,0.5072
575.749,184.516,-3.74226,-0.04681781,0.50685
576.349,184.718,-3.74424,-0.04884859,0.5065
576.949,184.92,-3.74358,-0.05289836,0.50614
577.549,185.123,-3.74654,-0.05301886,0.50579
578.149,185.325,-3.74655,-0.05549953,0.50543
578.749,185.528,-3.74533,-0.05205531,0.50508
579.349,185.731,-3.74815,-0.05198559,0.50472
579.949,185.934,-3.74657,-0.05088444,0.50437
580.549,186.137,-3.7503,-0.05049508,0.50401
581.149,186.339,-3.74969,-0.05488659,0.50365
581.749,186.543,-3.74965,-0.05459202,0.5033
582.349,186.747,-3.74983,-0.05554863,0.50294
582.949,186.95,-3.74924,-0.04859463,0.50259
583.549,187.153,-3.75239,-0.04849544,0.50223
584.149,187.357,-3.75101,-0.0458466,0.50187
584.749,187.559,-3.75187,-0.04256667,0.50151
585.349,187.762,-3.7528,-0.04260656,0.50116
585.949,187.964,-3.75278,-0.04343938,0.5008
586.549,188.1667,-3.75148,-0.0438947,0.50044
587.149,188.369,-3.75045,-0.04332658,0.50008
587.749,188.572,-3.75108,-0.04328842,0.49972
588.349,188.775,-3.74966,-0.03949084,0.49936
588.949,188.978,-3.75468,-0.04490737,0.499
589.549,189.1812,-3.75247,-0.04186335,0.49864
590.149,189.384,-3.75441,-0.03944309,0.49828
590.749,189.587,-3.75591,-0.04219868,0.49792
591.349,189.79,-3.75598,-0.04018093,0.49756
591.949,189.995,-3.74959,-0.04193665,0.4972
592.549,190.199,-3.75488,-0.04594371,0.49684
593.149,190.404,-3.75595,-0.0456614,0.49648
593.749,190.608,-3.75488,-0.04547266,0.49612
594.349,190.812,-3.76426,-0.04907895,0.49576
594.949,191.016,-3.75672,-0.04541355,0.4954
595.549,191.219,-3.75674,-0.04453612,0.49504
596.149,191.422,-3.75684,-0.04236367,0.49467
596.749,191.625,-3.75806,-0.03948938,0.49431
597.349,191.828,-3.75939,-0.03830998,0.49395
597.949,192.031,-3.75874,-0.04077907,0.49359
598.549,192.235,-3.75806,-0.03861732,0.49322
599.149,192.439,-3.75802,-0.04194658,0.49286
599.749,192.642,-3.75817,-0.03975178,0.4925
600.349,192.845,-3.75838,-0.04016588,0.49213
600.949,193.049,-3.76146,-0.0361447,0.49177
601.549,193.253,-3.76002,-0.03623941,0.49141
602.149,193.456,-3.76001,-0.03889526,0.49104
602.749,193.66,-3.75968,-0.04138996,0.49068
603.349,193.863,-3.7587,-0.03717967,0.49031
603.949,194.067,-3.76034,-0.04015248,0.48995
604.549,194.2704,-3.76045,-0.04119306,0.48958
605.149,194.474,-3.75956,-0.04362193,0.48922
605.749,194.679,-3.76278,-0.04341211,0.48885
606.349,194.884,-3.76147,-0.04307161,0.48849
606.949,195.089,-3.76143,-0.04464136,0.48812
607.549,195.293,-3.76253,-0.04441431,0.48775
608.149,195.496,-3.76113,-0.04744246,0.48739
608.749,195.7,-3.75924,-0.04420912,0.48702
609.349,195.903,-3.76049,-0.04274933,0.48665
609.949,196.106,-3.76181,-0.04380781,0.48629
610.549,196.309,-3.7655,-0.04522823,0.48592
611.149,196.514,-3.76124,-0.04424406,0.48555
611.749,196.718,-3.76256,-0.04207752,0.48519
612.349,196.922,-3.76387,-0.0375086,0.48482
612.949,197.127,-3.76384,-0.03727618,0.48445
613.549,197.332,-3.76288,-0.03865963,0.48408
614.149,197.538,-3.76328,-0.03731297,0.48371
614.749,197.744,-3.76387,-0.04184054,0.48334
615.349,197.949,-3.76453,-0.04527956,0.48298
615.949,198.154,-3.76344,-0.0446072,0.48261
616.549,198.358,-3.76365,-0.0447608,0.48224
617.149,198.561,-3.76488,-0.0469663,0.48187
617.749,198.765,-3.76618,-0.04898891,0.4815
618.349,198.967,-3.7649,-0.04960884,0.48113
618.949,199.17,-3.76488,-0.05224808,0.48076
619.549,199.373,-3.76581,-0.05163895,0.48039
620.149,199.577,-3.76755,-0.05068427,0.48002
620.749,199.782,-3.76628,-0.05209299,0.47965
621.349,199.987,-3.76773,-0.04747982,0.47928
621.949,200.193,-3.76716,-0.04846008,0.47891
622.549,200.398,-3.7676,-0.04413902,0.47854
623.149,200.604,-3.76727,-0.04379648,0.47817
623.749,200.81,-3.76803,-0.04442871,0.4778
624.349,201.0147,-3.76759,-0.04673013,0.47742
624.949,201.2188,-3.76793,-0.05359973,0.47705
625.549,201.422,-3.76923,-0.05246204,0.47668
626.149,201.624,-3.76645,-0.05191015,0.47631
626.749,201.827,-3.7667,-0.04600332,0.47594
627.349,202.03,-3.77036,-0.05630532,0.47556
627.949,202.234,-3.77036,-0.05578743,0.47519
628.549,202.439,-3.77041,-0.05800654,0.47482
629.149,202.644,-3.76925,-0.05406553,0.47445
629.749,202.849,-3.76925,-0.05741137,0.47407
630.349,203.053,-3.76922,-0.05960598,0.4737
630.949,203.257,-3.77255,-0.05813705,0.47333
631.549,203.462,-3.76912,-0.05857845,0.47295
632.149,203.666,-3.77177,-0.06223044,0.47258
632.749,203.871,-3.77177,-0.0608666,0.47221
633.349,204.076,-3.77177,-0.06104998,0.47183
633.949,204.282,-3.77177,-0.06002339,0.47146
634.549,204.488,-3.77334,-0.06843127,0.47109
635.149,204.693,-3.76967,-0.072238,0.47071
635.749,204.898,-3.7698,-0.07821603,0.47034
636.349,205.103,-3.77108,-0.08110325,0.46996
636.949,205.307,-3.77102,-0.08550258,0.46959
637.549,205.511,-3.77135,-0.0857198,0.46921
638.149,205.716,-3.77155,-0.08755713,0.46884
638.749,205.92,-3.77287,-0.08957698,0.46846
639.349,206.126,-3.77094,-0.09178621,0.46809
639.949,206.332,-3.77252,-0.09213756,0.46771
640.549,206.539,-3.77316,-0.09214469,0.46734
641.149,206.746,-3.77451,-0.09372213,0.46696
641.749,206.952,-3.77454,-0.09457667,0.46658
642.349,207.157,-3.7746,-0.09452311,0.46621
642.949,207.361,-3.7733,-0.09521401,0.46583
643.549,207.565,-3.77871,-0.09675338,0.46546
644.149,207.771,-3.77469,-0.09234375,0.46508
644.749,207.975,-3.77259,-0.09360107,0.4647
645.349,208.18,-3.77389,-0.0921573,0.46433
645.949,208.385,-3.77491,-0.09370973,0.46395
646.549,208.589,-3.77236,-0.09277627,0.46357
647.149,208.794,-3.77485,-0.09536141,0.4632
647.749,208.998,-3.77484,-0.09678865,0.46282
648.349,209.202,-3.77484,-0.09713586,0.46244
648.949,209.406,-3.77311,-0.09622428,0.46206
649.549,209.609,-3.77383,-0.09792041,0.46169
650.149,209.813,-3.77225,-0.09756251,0.46131
650.649,209.983,-3.77396,-0.101,0.46099