File: 01_Data/Cedar_Shingle/STA/N2/10K_min/Cedar_Shingle_STA_N2_10KData_220404_R3.csv
##Temp./Â°C,Time/min,Mass loss(subtr.2)/mg,DSC(subtr.2)/(mW/mg),Sensit./(uV/mW)
49.535,10.00917,-0.04016,0.02098943,1.06055
50.235,10.76759,-0.04260576,0.05127437,1.06041
50.935,10.9723,-0.04212275,0.07663708,1.06026
51.635,11.12485,-0.04134331,0.0975597,1.06012
52.335,11.25309,-0.04274867,0.11436,1.05997
53.035,11.36868,-0.04388644,0.12885,1.05982
53.735,11.47499,-0.04352614,0.14193,1.05968
54.435,11.5747,-0.04448302,0.15304,1.05953
55.135,11.66958,-0.04376864,0.16488,1.05938
55.835,11.76091,-0.04525692,0.17471,1.05923
56.535,11.8493,-0.04452543,0.18131,1.05907
57.235,11.9354,-0.04592564,0.18855,1.05892
57.935,12.01948,-0.04642499,0.1955,1.05877
58.635,12.10193,-0.04531506,0.20037,1.05861
59.335,12.18341,-0.04522748,0.20505,1.05846
60.035,12.2638,-0.04566014,0.21,1.0583
60.735,12.34353,-0.04678287,0.21281,1.05814
61.435,12.42225,-0.0467443,0.21893,1.05799
62.135,12.5002,-0.04689313,0.22194,1.05783
62.835,12.5779,-0.04684851,0.22623,1.05767
63.535,12.65496,-0.04685101,0.22995,1.05751
64.235,12.73179,-0.04700044,0.22989,1.05734
64.935,12.80843,-0.04683733,0.23599,1.05718
65.635,12.88493,-0.04816244,0.23891,1.05702
66.335,12.961,-0.04684313,0.24385,1.05685
67.035,13.0368,-0.04683984,0.24454,1.05669
67.735,13.11212,-0.04754522,0.24721,1.05652
68.435,13.18733,-0.04816179,0.25574,1.05635
69.135,13.2624,-0.04818683,0.25478,1.05619
69.835,13.33697,-0.04816689,0.25893,1.05602
70.535,13.41141,-0.04911028,0.26192,1.05585
71.235,13.48564,-0.04860177,0.26699,1.05568
71.935,13.5601,-0.04980876,0.26742,1.0555
72.635,13.6344,-0.05111987,0.27104,1.05533
73.335,13.70829,-0.05207855,0.27579,1.05516
74.035,13.78181,-0.05208793,0.27924,1.05498
74.735,13.85493,-0.05208454,0.27999,1.05481
75.435,13.92794,-0.05080109,0.27863,1.05463
76.135,14.00084,-0.05211024,0.28589,1.05446
76.835,14.07375,-0.05320179,0.28719,1.05428
77.535,14.1466,-0.05210708,0.28948,1.0541
78.235,14.21919,-0.05211001,0.29173,1.05392
78.935,14.29144,-0.05346528,0.2917,1.05374
79.635,14.36292,-0.05342,0.29435,1.05356
80.335,14.4346,-0.054327,0.29574,1.05337
81.035,14.5065,-0.05607895,0.29615,1.05319
81.735,14.57879,-0.05736986,0.29651,1.05301
82.435,14.6505,-0.05711842,0.29853,1.05282
83.135,14.72192,-0.05737973,0.30259,1.05264
83.835,14.79311,-0.05869694,0.30075,1.05245
84.535,14.8642,-0.05868975,0.30237,1.05226
85.235,14.9353,-0.06004965,0.30182,1.05207
85.935,15.0065,-0.06001012,0.30498,1.05188
86.635,15.0772,-0.06136174,0.30255,1.05169
87.335,15.1481,-0.06000988,0.3035,1.0515
88.035,15.2183,-0.05870408,0.30355,1.05131
88.735,15.28851,-0.0600108,0.30353,1.05112
89.435,15.3589,-0.0609565,0.3034,1.05092
90.135,15.4292,-0.06263988,0.3004,1.05073
90.835,15.4994,-0.06263998,0.30028,1.05053
91.535,15.56911,-0.06394977,0.29925,1.05034
92.235,15.6391,-0.06395291,0.30076,1.05014
92.935,15.70897,-0.06263431,0.29848,1.04994
93.635,15.77886,-0.06526163,0.29725,1.04974
94.335,15.84857,-0.06528,0.29563,1.04954
95.035,15.9183,-0.06528045,0.29213,1.04934
95.735,15.98761,-0.06658592,0.29262,1.04914
96.435,16.0568,-0.06536657,0.28942,1.04894
97.135,16.1253,-0.06654054,0.28944,1.04873
97.835,16.19409,-0.06791025,0.28654,1.04853
98.535,16.26282,-0.06791,0.28597,1.04832
99.235,16.33253,-0.06790999,0.28775,1.04812
99.935,16.40223,-0.06804491,0.28353,1.04791
100.635,16.4718,-0.0692393,0.28406,1.0477
101.335,16.541,-0.07053991,0.28259,1.04749
102.035,16.6094,-0.07053712,0.27974,1.04728
102.735,16.67819,-0.07281698,0.27953,1.04707
103.435,16.7469,-0.07285285,0.28043,1.04686
104.135,16.816,-0.07283489,0.27669,1.04665
104.835,16.8846,-0.07284496,0.27613,1.04644
105.535,16.95348,-0.07218168,0.27387,1.04622
106.235,17.02196,-0.07149732,0.27567,1.04601
106.935,17.0907,-0.07282679,0.27247,1.04579
107.635,17.15909,-0.07284,0.27223,1.04558
108.335,17.2277,-0.07283568,0.26903,1.04536
109.035,17.29632,-0.07355572,0.26946,1.04514
109.735,17.3647,-0.07291744,0.26565,1.04492
110.435,17.43327,-0.07394137,0.26679,1.0447
111.135,17.50185,-0.07416104,0.26751,1.04448
111.835,17.57056,-0.07547881,0.26628,1.04426
112.535,17.63908,-0.07548,0.26405,1.04404
113.235,17.70747,-0.07678146,0.26628,1.04382
113.935,17.77575,-0.07679003,0.26554,1.04359
114.635,17.84419,-0.07537841,0.26574,1.04337
115.335,17.91245,-0.07546539,0.26536,1.04314
116.035,17.98086,-0.07679036,0.26393,1.04291
116.735,18.04907,-0.07679,0.26332,1.04269
117.435,18.1174,-0.07679003,0.26423,1.04246
118.135,18.18579,-0.07840043,0.26704,1.04223
118.835,18.2541,-0.07876004,0.26465,1.042
119.535,18.32256,-0.07876,0.26424,1.04177
120.235,18.39078,-0.07876158,0.26356,1.04154
120.935,18.4588,-0.07809966,0.26436,1.0413
121.635,18.52675,-0.07810159,0.26498,1.04107
122.335,18.59479,-0.07941841,0.26439,1.04084
123.035,18.66292,-0.0794054,0.26479,1.0406
123.735,18.73124,-0.08008546,0.26252,1.04037
124.435,18.7993,-0.08008964,0.26594,1.04013
125.135,18.86744,-0.08138498,0.26555,1.03989
125.835,18.93562,-0.08271036,0.26514,1.03965
126.535,19.00359,-0.08337228,0.26497,1.03942
127.235,19.07163,-0.08501912,0.26549,1.03918
127.935,19.13932,-0.08502,0.26423,1.03893
128.635,19.2073,-0.08500923,0.26634,1.03869
129.335,19.27511,-0.08375202,0.26585,1.03845
130.035,19.34294,-0.08370725,0.26881,1.03821
130.735,19.41082,-0.08500006,0.26719,1.03796
131.435,19.47886,-0.086335,0.26893,1.03772
132.135,19.54678,-0.08653051,0.27059,1.03747
132.835,19.6144,-0.08733561,0.27114,1.03723
133.535,19.6821,-0.08836741,0.27265,1.03698
134.235,19.74964,-0.08698999,0.27217,1.03673
134.935,19.81738,-0.08699,0.26986,1.03648
135.635,19.8853,-0.08698951,0.27259,1.03623
136.335,19.9531,-0.08828949,0.27316,1.03598
137.035,20.02081,-0.08864701,0.27405,1.03573
137.735,20.08812,-0.08928773,0.27413,1.03548
138.435,20.156,-0.08994471,0.27464,1.03522
139.135,20.22364,-0.08993818,0.27306,1.03497
139.835,20.29148,-0.08995007,0.27602,1.03472
140.535,20.3589,-0.09127426,0.27555,1.03446
141.235,20.4265,-0.09127172,0.27368,1.0342
141.935,20.49393,-0.09258823,0.27445,1.03395
142.635,20.56152,-0.09259237,0.27833,1.03369
143.335,20.6291,-0.09192992,0.27468,1.03343
144.035,20.69661,-0.09192955,0.27586,1.03317
144.735,20.76397,-0.09324645,0.27778,1.03291
145.435,20.83105,-0.09324018,0.27566,1.03265
146.135,20.8983,-0.09390294,0.27733,1.03239
146.835,20.96555,-0.09422954,0.27855,1.03213
147.535,21.03292,-0.09471945,0.28006,1.03186
148.235,21.10031,-0.09522011,0.2795,1.0316
148.935,21.1678,-0.09521958,0.2812,1.03133
149.635,21.23537,-0.09686799,0.28073,1.03107
150.335,21.30281,-0.09687,0.28094,1.0308
151.035,21.3702,-0.09686945,0.28348,1.03053
151.735,21.43744,-0.09817919,0.28347,1.03026
152.435,21.50414,-0.09949025,0.28462,1.02999
153.135,21.57135,-0.09949702,0.2839,1.02972
153.835,21.63876,-0.09851052,0.28274,1.02945
154.535,21.70658,-0.09984144,0.28553,1.02918
155.235,21.77388,-0.10114,0.28686,1.02891
155.935,21.84106,-0.10114,0.28565,1.02864
156.635,21.90792,-0.10114,0.28583,1.02836
157.335,21.97524,-0.09983157,0.28797,1.02809
158.035,22.0424,-0.10116,0.28823,1.02781
158.735,22.1099,-0.10245,0.28973,1.02754
159.435,22.1773,-0.10245,0.28906,1.02726
160.135,22.24474,-0.10377,0.28765,1.02698
160.835,22.31237,-0.10477,0.29026,1.0267
161.535,22.37942,-0.10476,0.29047,1.02642
162.235,22.44679,-0.10476,0.28917,1.02614
162.935,22.5139,-0.10476,0.29246,1.02586
163.635,22.58125,-0.10476,0.29364,1.02558
164.335,22.64825,-0.10542,0.29283,1.0253
165.035,22.7155,-0.10575,0.29211,1.02501
165.735,22.78258,-0.10575,0.29272,1.02473
166.435,22.84996,-0.10673,0.29219,1.02445
167.135,22.91712,-0.10673,0.29605,1.02416
167.835,22.98443,-0.10757,0.29479,1.02387
168.535,23.05163,-0.10772,0.29663,1.02359
169.235,23.11872,-0.10772,0.29558,1.0233
169.935,23.18595,-0.1086,0.29664,1.02301
170.635,23.25315,-0.10904,0.29786,1.02272
171.335,23.32035,-0.10904,0.29821,1.02243
172.035,23.3876,-0.10897,0.29869,1.02214
172.735,23.4544,-0.11035,0.30115,1.02185
173.435,23.52091,-0.11168,0.3003,1.02155
174.135,23.58804,-0.11168,0.30119,1.02126
174.835,23.65554,-0.11168,0.30091,1.02097
175.535,23.72328,-0.1116,0.30192,1.02067
176.235,23.7907,-0.11299,0.29996,1.02038
176.935,23.85783,-0.113,0.30097,1.02008
177.635,23.92481,-0.1143,0.30105,1.01978
178.335,23.99176,-0.1143,0.3027,1.01948
179.035,24.05896,-0.1143,0.30409,1.01919
179.735,24.12622,-0.1143,0.30487,1.01889
180.435,24.19354,-0.1143,0.30445,1.01859
181.135,24.2607,-0.11562,0.30638,1.01829
181.835,24.32809,-0.11589,0.30604,1.01798
182.535,24.3953,-0.11662,0.30587,1.01768
183.235,24.4623,-0.11694,0.30582,1.01738
183.935,24.5293,-0.11825,0.30676,1.01707
184.635,24.59658,-0.11956,0.30565,1.01677
185.335,24.66398,-0.11958,0.3061,1.01646
186.035,24.73114,-0.11858,0.30628,1.01616
186.735,24.79833,-0.11858,0.30781,1.01585
187.435,24.86551,-0.11996,0.30847,1.01554
188.135,24.9326,-0.11989,0.30847,1.01523
188.835,24.9997,-0.12057,0.31231,1.01493
189.535,25.06693,-0.12121,0.31289,1.01462
190.235,25.13425,-0.12256,0.3143,1.0143
190.935,25.20127,-0.12402,0.31314,1.01399
191.635,25.26807,-0.12484,0.31614,1.01368
192.335,25.33468,-0.12615,0.31525,1.01337
193.035,25.40168,-0.12647,0.31466,1.01305
193.735,25.46856,-0.12517,0.31602,1.01274
194.435,25.53586,-0.12582,0.31695,1.01243
195.135,25.6028,-0.12789,0.31774,1.01211
195.835,25.67,-0.12779,0.31587,1.01179
196.535,25.737,-0.12779,0.32016,1.01148
197.235,25.80398,-0.12778,0.32092,1.01116
197.935,25.871,-0.12878,0.32127,1.01084
198.635,25.9379,-0.1301,0.32267,1.01052
199.335,26.005,-0.13006,0.32118,1.0102
200.035,26.07208,-0.13176,0.32475,1.00988
200.735,26.13916,-0.13175,0.32716,1.00956
201.435,26.2061,-0.13175,0.32499,1.00923
202.135,26.27307,-0.13406,0.32633,1.00891
202.835,26.3401,-0.13402,0.32741,1.00859
203.535,26.40718,-0.13536,0.32923,1.00826
204.235,26.4741,-0.13507,0.33107,1.00794
204.935,26.541,-0.13437,0.33337,1.00761
205.635,26.6079,-0.13588,0.33428,1.00728
206.335,26.6747,-0.13758,0.33274,1.00696
207.035,26.7415,-0.13886,0.33701,1.00663
207.735,26.80828,-0.13887,0.33767,1.0063
208.435,26.875,-0.1389,0.33693,1.00597
209.135,26.94166,-0.13986,0.33712,1.00564
209.835,27.0085,-0.13986,0.34187,1.00531
210.535,27.0752,-0.14116,0.34188,1.00498
211.235,27.1422,-0.14143,0.34197,1.00464
211.935,27.20901,-0.14282,0.34405,1.00431
212.635,27.2759,-0.14414,0.34408,1.00398
213.335,27.34269,-0.14556,0.34681,1.00364
214.035,27.40953,-0.14677,0.34794,1.00331
214.735,27.47658,-0.14763,0.35301,1.00297
215.435,27.54327,-0.14809,0.35297,1.00263
216.135,27.60994,-0.14941,0.35514,1.00229
216.835,27.6766,-0.15202,0.35469,1.00196
217.535,27.7433,-0.15213,0.35779,1.00162
218.235,27.8099,-0.15209,0.35869,1.00128
218.935,27.87667,-0.15434,0.35759,1.00094
219.635,27.94335,-0.15565,0.36081,1.0006
220.335,28.01018,-0.15697,0.36004,1.00025
221.035,28.07692,-0.15715,0.36108,0.99991
221.735,28.14382,-0.15963,0.36319,0.99957
222.435,28.21071,-0.16173,0.36551,0.99923
223.135,28.27764,-0.16257,0.36499,0.99888
223.835,28.34443,-0.16387,0.36887,0.99854
224.535,28.411,-0.16517,0.36853,0.99819
225.235,28.47741,-0.16651,0.36893,0.99784
225.935,28.5441,-0.16808,0.37008,0.9975
226.635,28.6108,-0.17047,0.37207,0.99715
227.335,28.6776,-0.172,0.3717,0.9968
228.035,28.74435,-0.17436,0.37256,0.99645
228.735,28.8112,-0.17457,0.37385,0.9961
229.435,28.8784,-0.17665,0.37419,0.99575
230.135,28.9453,-0.17837,0.37303,0.9954
230.835,29.01203,-0.18038,0.37784,0.99505
231.535,29.0789,-0.18207,0.37698,0.99469
232.235,29.1455,-0.18455,0.38045,0.99434
232.935,29.2123,-0.18636,0.38062,0.99398
233.635,29.2791,-0.188,0.38199,0.99363
234.335,29.34575,-0.19106,0.38219,0.99327
235.035,29.4123,-0.19262,0.38389,0.99292
235.735,29.4789,-0.19394,0.38489,0.99256
236.435,29.5457,-0.19687,0.38589,0.9922
237.135,29.61262,-0.19999,0.38715,0.99185
237.835,29.67952,-0.20118,0.38843,0.99149
238.535,29.7462,-0.20263,0.38947,0.99113
239.235,29.8131,-0.20595,0.3905,0.99077
239.935,29.87997,-0.2086,0.39059,0.99041
240.635,29.94683,-0.20931,0.3932,0.99004
241.335,30.01353,-0.21354,0.39168,0.98968
242.035,30.08022,-0.21637,0.39412,0.98932
242.735,30.147,-0.21901,0.39272,0.98895
243.435,30.2138,-0.22195,0.39182,0.98859
244.135,30.28063,-0.22328,0.39296,0.98823
244.835,30.34747,-0.22491,0.39257,0.98786
245.535,30.4146,-0.22898,0.39494,0.98749
246.235,30.48162,-0.23207,0.39483,0.98713
246.935,30.54853,-0.23474,0.39484,0.98676
247.635,30.6154,-0.2376,0.39329,0.98639
248.335,30.68238,-0.24048,0.39452,0.98602
249.035,30.7493,-0.24351,0.39377,0.98565
249.735,30.8162,-0.24655,0.39168,0.98528
250.435,30.88317,-0.24946,0.3923,0.98491
251.135,30.95005,-0.25331,0.39382,0.98454
251.835,31.0169,-0.25646,0.395,0.98417
252.535,31.0836,-0.26055,0.39407,0.98379
253.235,31.1505,-0.26551,0.39411,0.98342
253.935,31.21759,-0.26832,0.39396,0.98305
254.635,31.2844,-0.27165,0.39516,0.98267
255.335,31.351,-0.27421,0.39432,0.9823
256.035,31.4177,-0.27884,0.39505,0.98192
256.735,31.48446,-0.282,0.39373,0.98154
257.435,31.55149,-0.2864,0.39434,0.98117
258.135,31.6183,-0.28982,0.3948,0.98079
258.835,31.6851,-0.29429,0.39513,0.98041
259.535,31.75185,-0.29885,0.39463,0.98003
260.235,31.81904,-0.30218,0.39429,0.97965
260.935,31.8861,-0.30709,0.39402,0.97927
261.635,31.9528,-0.31059,0.39305,0.97889
262.335,32.0195,-0.31425,0.39277,0.97851
263.035,32.08615,-0.31917,0.39016,0.97812
263.735,32.15305,-0.32295,0.39217,0.97774
264.435,32.22005,-0.32913,0.39316,0.97736
265.135,32.287,-0.3323,0.39214,0.97697
265.835,32.354,-0.33497,0.389,0.97659
266.535,32.42089,-0.34013,0.38903,0.9762
267.235,32.48773,-0.3454,0.38712,0.97581
267.935,32.55435,-0.35112,0.38671,0.97543
268.635,32.62128,-0.35575,0.38529,0.97504
269.335,32.68807,-0.36209,0.38426,0.97465
270.035,32.75481,-0.36517,0.38553,0.97426
270.735,32.8215,-0.37044,0.38501,0.97387
271.435,32.88799,-0.37543,0.38325,0.97348
272.135,32.95471,-0.37988,0.38321,0.97309
272.835,33.02183,-0.38643,0.38356,0.9727
273.535,33.08878,-0.39012,0.38634,0.97231
274.235,33.15593,-0.39638,0.38296,0.97192
274.935,33.2228,-0.40298,0.38282,0.97152
275.635,33.28988,-0.40763,0.38408,0.97113
276.335,33.35678,-0.41304,0.38146,0.97073
277.035,33.4238,-0.41862,0.3849,0.97034
277.735,33.4908,-0.42435,0.38041,0.96994
278.435,33.55784,-0.43094,0.38151,0.96955
279.135,33.62491,-0.43701,0.38076,0.96915
279.835,33.69185,-0.44288,0.37925,0.96875
280.535,33.75886,-0.44884,0.37918,0.96835
281.235,33.82571,-0.45335,0.37802,0.96795
281.935,33.89284,-0.46018,0.3752,0.96756
282.635,33.96,-0.46736,0.37587,0.96716
283.335,34.02683,-0.47445,0.37466,0.96675
284.035,34.0937,-0.48059,0.37235,0.96635
284.735,34.16056,-0.48527,0.37445,0.96595
285.435,34.2278,-0.49237,0.37328,0.96555
286.135,34.29485,-0.50018,0.37091,0.96515
286.835,34.36203,-0.50598,0.36943,0.96474
287.535,34.42905,-0.51289,0.37131,0.96434
288.235,34.49604,-0.51957,0.37055,0.96393
288.935,34.56313,-0.52662,0.36975,0.96353
289.635,34.63019,-0.5336,0.37048,0.96312
290.335,34.6974,-0.54114,0.37006,0.96271
291.035,34.7644,-0.54901,0.3675,0.96231
291.735,34.83148,-0.55681,0.36961,0.9619
292.435,34.89836,-0.5635,0.369,0.96149
293.135,34.96553,-0.57056,0.36898,0.96108
293.835,35.03232,-0.57845,0.36848,0.96067
294.535,35.0991,-0.58605,0.37031,0.96026
295.235,35.1658,-0.59401,0.37073,0.95985
295.935,35.23261,-0.60305,0.36927,0.95944
296.635,35.29981,-0.61114,0.3673,0.95903
297.335,35.3669,-0.62026,0.36873,0.95861
298.035,35.43427,-0.62882,0.3702,0.9582
298.735,35.50156,-0.6384,0.37288,0.95779
299.435,35.5686,-0.64843,0.36992,0.95737
300.135,35.63582,-0.65623,0.37186,0.95696
300.835,35.70342,-0.66438,0.37165,0.95654
301.535,35.77131,-0.67272,0.37426,0.95613
302.235,35.8389,-0.68322,0.37582,0.95571
302.935,35.90618,-0.69297,0.37535,0.95529
303.635,35.97343,-0.70422,0.37718,0.95487
304.335,36.04067,-0.71377,0.37915,0.95446
305.035,36.10784,-0.72215,0.38216,0.95404
305.735,36.17491,-0.73202,0.38482,0.95362
306.435,36.24217,-0.74271,0.38675,0.9532
307.135,36.3095,-0.75198,0.38631,0.95278
307.835,36.37685,-0.7632,0.38753,0.95236
308.535,36.44413,-0.77402,0.39111,0.95193
309.235,36.51133,-0.78449,0.39251,0.95151
309.935,36.57865,-0.79713,0.39256,0.95109
310.635,36.646,-0.80838,0.39302,0.95066
311.335,36.71346,-0.82082,0.39554,0.95024
312.035,36.78068,-0.83099,0.39835,0.94982
312.735,36.848,-0.84404,0.39991,0.94939
313.435,36.91538,-0.85493,0.40213,0.94896
314.135,36.9828,-0.86731,0.4046,0.94854
314.835,37.05025,-0.87997,0.40707,0.94811
315.535,37.1175,-0.89293,0.40486,0.94768
316.235,37.18486,-0.9042,0.41083,0.94726
316.935,37.25215,-0.91737,0.41164,0.94683
317.635,37.3195,-0.93131,0.41624,0.9464
318.335,37.38687,-0.94439,0.41961,0.94597
319.035,37.4542,-0.95827,0.42154,0.94554
319.735,37.52145,-0.97478,0.42378,0.94511
320.435,37.5888,-0.98655,0.42647,0.94467
321.135,37.6563,-1.00104,0.42593,0.94424
321.835,37.7237,-1.01641,0.42982,0.94381
322.535,37.791,-1.02998,0.433,0.94338
323.235,37.85828,-1.04312,0.43402,0.94294
323.935,37.92586,-1.05767,0.43331,0.94251
324.635,37.99296,-1.07419,0.4378,0.94207
325.335,38.0605,-1.08995,0.43967,0.94164
326.035,38.1278,-1.10409,0.44369,0.9412
326.735,38.19556,-1.11817,0.44518,0.94077
327.435,38.2629,-1.13375,0.44905,0.94033
328.135,38.33048,-1.15135,0.4519,0.93989
328.835,38.3979,-1.16718,0.45197,0.93945
329.535,38.4652,-1.18263,0.45323,0.93902
330.235,38.5324,-1.19851,0.45628,0.93858
330.935,38.59973,-1.21394,0.45963,0.93814
331.635,38.6675,-1.23125,0.46006,0.9377
332.335,38.73507,-1.2484,0.46571,0.93726
333.035,38.8026,-1.26441,0.46633,0.93681
333.735,38.8701,-1.28058,0.46856,0.93637
334.435,38.9377,-1.29711,0.47108,0.93593
335.135,39.0053,-1.31298,0.4754,0.93549
335.835,39.07295,-1.33102,0.47966,0.93504
336.535,39.14,-1.34764,0.48059,0.9346
337.235,39.20773,-1.36656,0.48389,0.93416
337.935,39.2753,-1.38434,0.48925,0.93371
338.635,39.34341,-1.40218,0.49124,0.93327
339.335,39.4112,-1.42085,0.49475,0.93282
340.035,39.4786,-1.43957,0.49783,0.93237
340.735,39.54632,-1.45842,0.50511,0.93193
341.435,39.61379,-1.47902,0.50597,0.93148
342.135,39.68181,-1.49554,0.51081,0.93103
342.835,39.74967,-1.51413,0.51565,0.93058
343.535,39.81774,-1.53306,0.52002,0.93013
344.235,39.8857,-1.55131,0.52522,0.92968
344.935,39.9536,-1.5724,0.53032,0.92923
345.635,40.02129,-1.5937,0.53557,0.92878
346.335,40.08907,-1.61116,0.54189,0.92833
347.035,40.15701,-1.63037,0.5475,0.92788
347.735,40.22502,-1.65191,0.55386,0.92743
348.435,40.29285,-1.67282,0.55946,0.92697
349.135,40.36079,-1.69264,0.565,0.92652
349.835,40.42872,-1.71341,0.57253,0.92607
350.535,40.49689,-1.73463,0.58031,0.92561
351.235,40.56476,-1.75713,0.58788,0.92516
351.935,40.63282,-1.77889,0.59377,0.9247
352.635,40.70048,-1.80222,0.60078,0.92425
353.335,40.76828,-1.82266,0.60977,0.92379
354.035,40.8359,-1.84486,0.61597,0.92333
354.735,40.9039,-1.86881,0.62454,0.92288
355.435,40.97197,-1.8921,0.62968,0.92242
356.135,41.0399,-1.91356,0.63882,0.92196
356.835,41.10778,-1.93645,0.64311,0.9215
357.535,41.1755,-1.96184,0.64841,0.92104
358.235,41.24347,-1.98555,0.65617,0.92058
358.935,41.31145,-2.00972,0.66189,0.92012
359.635,41.37952,-2.03393,0.66409,0.91966
360.335,41.44741,-2.05808,0.67079,0.9192
361.035,41.51534,-2.08269,0.67328,0.91874
361.735,41.58321,-2.10683,0.6764,0.91828
362.435,41.65108,-2.1311,0.67653,0.91781
363.135,41.71913,-2.15643,0.67841,0.91735
363.835,41.78717,-2.18203,0.67808,0.91689
364.535,41.85539,-2.20759,0.67711,0.91642
365.235,41.92341,-2.23183,0.67451,0.91596
365.935,41.99136,-2.25621,0.67285,0.91549
366.635,42.05937,-2.28166,0.66909,0.91503
367.335,42.1273,-2.30535,0.66277,0.91456
368.035,42.19556,-2.32904,0.65659,0.91409
368.735,42.2637,-2.35371,0.64351,0.91363
369.435,42.33183,-2.37894,0.63544,0.91316
370.135,42.39995,-2.40183,0.62246,0.91269
370.835,42.46802,-2.42429,0.6105,0.91222
371.535,42.53627,-2.44757,0.59528,0.91175
372.235,42.60439,-2.47015,0.5764,0.91128
372.935,42.67241,-2.49232,0.56065,0.91081
373.635,42.74029,-2.51335,0.54011,0.91034
374.335,42.8082,-2.53286,0.51984,0.90987
375.035,42.8759,-2.55121,0.49791,0.9094
375.735,42.94376,-2.57047,0.47197,0.90893
376.435,43.0117,-2.58927,0.44665,0.90845
377.135,43.07977,-2.60706,0.42123,0.90798
377.835,43.14777,-2.62236,0.39214,0.90751
378.535,43.2156,-2.63813,0.36742,0.90703
379.235,43.2836,-2.653,0.33754,0.90656
379.935,43.3514,-2.66804,0.30896,0.90609
380.635,43.41919,-2.68008,0.28109,0.90561
381.335,43.48706,-2.69239,0.25398,0.90513
382.035,43.55473,-2.70381,0.22444,0.90466
382.735,43.62265,-2.71364,0.1967,0.90418
383.435,43.69047,-2.72254,0.16992,0.9037
384.135,43.75843,-2.73157,0.14511,0.90323
384.835,43.8262,-2.73879,0.12438,0.90275
385.535,43.89392,-2.74375,0.10225,0.90227
386.235,43.96161,-2.75197,0.08087188,0.90179
386.935,44.02936,-2.75677,0.06749712,0.90131
387.635,44.09725,-2.76292,0.05020227,0.90083
388.335,44.16498,-2.76677,0.03575495,0.90035
389.035,44.23259,-2.77128,0.02530934,0.89987
389.735,44.30019,-2.7755,0.01441248,0.89939
390.435,44.36789,-2.7787,0.005840513,0.89891
391.135,44.4353,-2.78352,-0.001428289,0.89843
391.835,44.50311,-2.78617,-0.004305596,0.89794
392.535,44.57082,-2.78937,-0.01126588,0.89746
393.235,44.6389,-2.79117,-0.01566342,0.89698
393.935,44.7068,-2.79502,-0.02150271,0.89649
394.635,44.77483,-2.79666,-0.02232057,0.89601
395.335,44.8428,-2.79955,-0.02436665,0.89552
396.035,44.91088,-2.80265,-0.02712806,0.89504
396.735,44.9788,-2.80498,-0.03020715,0.89455
397.435,45.0468,-2.80712,-0.03330326,0.89407
398.135,45.1148,-2.80959,-0.0351132,0.89358
398.835,45.18289,-2.81233,-0.03798196,0.89309
399.535,45.25103,-2.8153,-0.03880982,0.89261
400.235,45.31927,-2.81828,-0.04223333,0.89212
400.935,45.38754,-2.82045,-0.04771447,0.89163
401.635,45.45563,-2.82181,-0.04841697,0.89114
402.335,45.52388,-2.82415,-0.04765634,0.89065
403.035,45.5922,-2.82588,-0.05097007,0.89016
403.735,45.66063,-2.82835,-0.05456123,0.88967
404.435,45.7287,-2.83124,-0.0557355,0.88918
405.135,45.79687,-2.8343,-0.05809596,0.88869
405.835,45.86504,-2.83609,-0.05978186,0.8882
406.535,45.9334,-2.8392,-0.06237986,0.88771
407.235,46.0016,-2.84197,-0.06533978,0.88722
407.935,46.06987,-2.84517,-0.06580625,0.88672
408.635,46.13831,-2.84675,-0.06535601,0.88623
409.335,46.20678,-2.85069,-0.069159,0.88574
410.035,46.2751,-2.85211,-0.07130048,0.88524
410.735,46.3433,-2.85342,-0.07685689,0.88475
411.435,46.41155,-2.85569,-0.07743459,0.88425
412.135,46.47997,-2.85808,-0.07846942,0.88376
412.835,46.54817,-2.85964,-0.08183532,0.88326
413.535,46.6164,-2.86185,-0.0849041,0.88277
414.235,46.68482,-2.86354,-0.08528073,0.88227
414.935,46.75339,-2.86626,-0.08667309,0.88177
415.635,46.82199,-2.87062,-0.09116051,0.88128
416.335,46.89028,-2.87267,-0.09334928,0.88078
417.035,46.95884,-2.87332,-0.0935651,0.88028
417.735,47.0274,-2.87624,-0.09539044,0.87978
418.435,47.0961,-2.87895,-0.09685497,0.87928
419.135,47.1646,-2.88038,-0.1004,0.87878
419.835,47.23296,-2.88287,-0.10302,0.87828
420.535,47.30142,-2.88455,-0.1029,0.87778
421.235,47.37004,-2.88613,-0.10671,0.87728
421.935,47.4388,-2.88954,-0.11073,0.87678
422.635,47.50736,-2.89318,-0.11283,0.87628
423.335,47.57582,-2.896,-0.11276,0.87578
424.035,47.64434,-2.89753,-0.11407,0.87528
424.735,47.71301,-2.89978,-0.11541,0.87478
425.435,47.78181,-2.90141,-0.11579,0.87427
426.135,47.85054,-2.90526,-0.11604,0.87377
426.835,47.9191,-2.90647,-0.11743,0.87327
427.535,47.98798,-2.90715,-0.11977,0.87276
428.235,48.0567,-2.9093,-0.12133,0.87226
428.935,48.12545,-2.91215,-0.12058,0.87175
429.635,48.19404,-2.91475,-0.12403,0.87125
430.335,48.26265,-2.91646,-0.12181,0.87074
431.035,48.33136,-2.91778,-0.1231,0.87024
431.735,48.39999,-2.92357,-0.12199,0.86973
432.435,48.46891,-2.92247,-0.12254,0.86922
433.135,48.53772,-2.92314,-0.12215,0.86871
433.835,48.60621,-2.92554,-0.12225,0.86821
434.535,48.67483,-2.92707,-0.12377,0.8677
435.235,48.74355,-2.92978,-0.12392,0.86719
435.935,48.8125,-2.93241,-0.12138,0.86668
436.635,48.8812,-2.93531,-0.11909,0.86617
437.335,48.9498,-2.93704,-0.12033,0.86566
438.035,49.01843,-2.93816,-0.11878,0.86515
438.735,49.08716,-2.93941,-0.11707,0.86464
439.435,49.15575,-2.94363,-0.11766,0.86413
440.135,49.22442,-2.94538,-0.11562,0.86362
440.835,49.2932,-2.94672,-0.11449,0.86311
441.535,49.36202,-2.94805,-0.1148,0.8626
442.235,49.4309,-2.94948,-0.1116,0.86209
442.935,49.4991,-2.95199,-0.11064,0.86157
443.635,49.5678,-2.95508,-0.10901,0.86106
444.335,49.63641,-2.95638,-0.10527,0.86055
445.035,49.70565,-2.95769,-0.10288,0.86003
445.735,49.7741,-2.96042,-0.10693,0.85952
446.435,49.84295,-2.962,-0.09963179,0.859
447.135,49.91145,-2.96429,-0.09763479,0.85849
447.835,49.98045,-2.96624,-0.09527556,0.85797
448.535,50.04942,-2.96825,-0.09228563,0.85746
449.235,50.11871,-2.96917,-0.09160455,0.85694
449.935,50.18773,-2.97154,-0.08733117,0.85643
450.635,50.25659,-2.97278,-0.08644277,0.85591
451.335,50.3256,-2.97477,-0.08471786,0.85539
452.035,50.3947,-2.97583,-0.08551983,0.85488
452.735,50.46363,-2.9779,-0.08079468,0.85436
453.435,50.53246,-2.97972,-0.07657217,0.85384
454.135,50.6016,-2.98163,-0.07579772,0.85332
454.835,50.6707,-2.9837,-0.07570118,0.8528
455.535,50.7399,-2.98441,-0.07248081,0.85228
456.235,50.8087,-2.98632,-0.06879045,0.85176
456.935,50.87778,-2.98765,-0.06943933,0.85124
457.635,50.94678,-2.99023,-0.06739495,0.85072
458.335,51.016,-2.99148,-0.06448441,0.8502
459.035,51.08504,-2.9927,-0.05986749,0.84968
459.735,51.15415,-2.9929,-0.05994591,0.84916
460.435,51.2232,-2.99418,-0.05963895,0.84864
461.135,51.29222,-2.99924,-0.0551875,0.84812
461.835,51.3611,-3.00054,-0.05243166,0.84759
462.535,51.43,-3.00187,-0.0509225,0.84707
463.235,51.4989,-3.00223,-0.04905215,0.84655
463.935,51.56776,-3.00353,-0.04704992,0.84603
464.635,51.6368,-3.00476,-0.0452538,0.8455
465.335,51.70525,-3.00758,-0.04272336,0.84498
466.035,51.77442,-3.00882,-0.04196037,0.84445
466.735,51.8435,-3.0088,-0.0422217,0.84393
467.435,51.91323,-3.01033,-0.03843104,0.8434
468.135,51.9822,-3.01235,-0.03812584,0.84288
468.835,52.05108,-3.01358,-0.03437717,0.84235
469.535,52.12014,-3.01382,-0.03417781,0.84183
470.235,52.18912,-3.01506,-0.03190044,0.8413
470.935,52.25841,-3.01601,-0.03005833,0.84077
471.635,52.32763,-3.0173,-0.02799448,0.84024
472.335,52.39702,-3.01917,-0.02911435,0.83972
473.035,52.4662,-3.02028,-0.02636324,0.83919
473.735,52.53527,-3.02198,-0.02594967,0.83866
474.435,52.60429,-3.02296,-0.02455206,0.83813
475.135,52.67338,-3.02528,-0.01983038,0.8376
475.835,52.7425,-3.026,-0.0207694,0.83708
476.535,52.81159,-3.02669,-0.02023609,0.83655
477.235,52.8808,-3.02662,-0.02135789,0.83602
477.935,52.9501,-3.02801,-0.01788988,0.83549
478.635,53.0194,-3.02932,-0.01832272,0.83496
479.335,53.08859,-3.02929,-0.01534661,0.83442
480.035,53.1578,-3.03147,-0.01742417,0.83389
480.735,53.227,-3.03474,-0.01496391,0.83336
481.435,53.2962,-3.03556,-0.01632427,0.83283
482.135,53.3653,-3.03425,-0.01458859,0.8323
482.835,53.43424,-3.03452,-0.01439018,0.83177
483.535,53.50315,-3.03559,-0.01325959,0.83123
484.235,53.57229,-3.03714,-0.009745021,0.8307
484.935,53.6416,-3.03839,-0.008650731,0.83017
485.635,53.7111,-3.03837,-0.00862336,0.82963
486.335,53.78024,-3.03952,-0.00750118,0.8291
487.035,53.84932,-3.03986,-0.00296443,0.82856
487.735,53.9183,-3.04218,0.0005100042,0.82803
488.435,53.9873,-3.04438,-0.0005044061,0.8275
489.135,54.05621,-3.04553,0.00245044,0.82696
489.835,54.1252,-3.04572,0.003301149,0.82642
490.535,54.19464,-3.04612,0.004996313,0.82589
491.235,54.26413,-3.04742,0.00439175,0.82535
491.935,54.33354,-3.04781,0.00783516,0.82482
492.635,54.40262,-3.0489,0.0121773,0.82428
493.335,54.47197,-3.05098,0.01123405,0.82374
494.035,54.5411,-3.05132,0.01473175,0.82321
494.735,54.61042,-3.05135,0.01916336,0.82267
495.435,54.6793,-3.05137,0.02222467,0.82213
496.135,54.74856,-3.05334,0.02148439,0.82159
496.835,54.8175,-3.05334,0.0238503,0.82105
497.535,54.8869,-3.05466,0.02667816,0.82051
498.235,54.95635,-3.05603,0.03045799,0.81997
498.935,55.0258,-3.0559,0.03222972,0.81944
499.635,55.0952,-3.05794,0.0292847,0.8189
500.335,55.16471,-3.06025,0.03483986,0.81836
501.035,55.2342,-3.06155,0.03477524,0.81782
501.735,55.30367,-3.06054,0.036091,0.81727
502.435,55.37304,-3.06209,0.03770016,0.81673
503.135,55.4426,-3.06324,0.04020124,0.81619
503.835,55.51197,-3.06445,0.03864334,0.81565
504.535,55.5814,-3.06557,0.04340867,0.81511
505.235,55.65079,-3.06468,0.04476323,0.81457
505.935,55.72035,-3.06552,0.04190033,0.81402
506.635,55.7898,-3.06716,0.04114913,0.81348
507.335,55.85945,-3.06949,0.04309591,0.81294
508.035,55.9289,-3.06816,0.04313784,0.8124
508.735,55.99836,-3.06946,0.04128368,0.81185
509.435,56.06775,-3.07077,0.04215816,0.81131
510.135,56.13704,-3.07078,0.04521597,0.81076
510.835,56.2065,-3.0721,0.04425494,0.81022
511.535,56.2759,-3.07307,0.04184996,0.80968
512.235,56.3454,-3.07341,0.04392702,0.80913
512.935,56.41486,-3.07344,0.04347328,0.80859
513.635,56.4842,-3.07472,0.04564913,0.80804
514.335,56.55355,-3.07475,0.04625049,0.80749
515.035,56.62285,-3.07605,0.04811322,0.80695
515.735,56.69203,-3.07734,0.04781596,0.8064
516.435,56.76124,-3.07737,0.05047855,0.80586
517.135,56.83048,-3.07868,0.04939062,0.80531
517.835,56.89999,-3.07999,0.04590509,0.80476
518.535,56.9697,-3.08,0.04989918,0.80421
519.235,57.0393,-3.08132,0.04758343,0.80367
519.935,57.10881,-3.08361,0.04801112,0.80312
520.635,57.17827,-3.08361,0.04700392,0.80257
521.335,57.2477,-3.08493,0.04948533,0.80202
522.035,57.31715,-3.08606,0.0459222,0.80147
522.735,57.38661,-3.08624,0.04295476,0.80092
523.435,57.45624,-3.08626,0.04268111,0.80037
524.135,57.5259,-3.08757,0.03900126,0.79983
524.835,57.59522,-3.0876,0.03697205,0.79928
525.535,57.6648,-3.08887,0.03427719,0.79873
526.235,57.73409,-3.0902,0.03540385,0.79818
526.935,57.80364,-3.09144,0.03134127,0.79762
527.635,57.87295,-3.09152,0.02846517,0.79707
528.335,57.9428,-3.09283,0.0293737,0.79652
529.035,58.01249,-3.0942,0.02882352,0.79597
529.735,58.0822,-3.09415,0.02806108,0.79542
530.435,58.1515,-3.09369,0.02387144,0.79487
531.135,58.2211,-3.09415,0.02807914,0.79432
531.835,58.2907,-3.09415,0.02724365,0.79376
532.535,58.36005,-3.09546,0.02501238,0.79321
533.235,58.42932,-3.09678,0.02183932,0.79266
533.935,58.4985,-3.09679,0.01914042,0.79211
534.635,58.56815,-3.09943,0.01794741,0.79155
535.335,58.638,-3.09817,0.0185753,0.791
536.035,58.7079,-3.09809,0.01776201,0.79044
536.735,58.7778,-3.09941,0.01621778,0.78989
537.435,58.8473,-3.10073,0.01588305,0.78934
538.135,58.9174,-3.10073,0.01703082,0.78878
538.835,58.98771,-3.10204,0.01603227,0.78823
539.535,59.0581,-3.10336,0.01461897,0.78767
540.235,59.12809,-3.10467,0.01431174,0.78712
540.935,59.1978,-3.10468,0.01680911,0.78656
541.635,59.26775,-3.10468,0.01648958,0.78601
542.335,59.3376,-3.10588,0.01125242,0.78545
543.035,59.40736,-3.10665,0.01302629,0.78489
543.735,59.4773,-3.10685,0.01160676,0.78434
544.435,59.5473,-3.10665,0.01287661,0.78378
545.135,59.6175,-3.108,0.01052682,0.78322
545.835,59.6874,-3.1079,0.01029872,0.78267
546.535,59.7573,-3.10929,0.01004525,0.78211
547.235,59.82705,-3.10929,0.00739216,0.78155
547.935,59.897,-3.1106,0.004873428,0.78099
548.635,59.96689,-3.11059,0.003917721,0.78043
549.335,60.0366,-3.11013,0.00618988,0.77988
550.035,60.1064,-3.11093,0.005781417,0.77932
550.735,60.176,-3.1104,0.00717047,0.77876
551.435,60.2457,-3.11328,0.006285469,0.7782
552.135,60.31533,-3.11552,0.00662694,0.77764
552.835,60.38502,-3.11552,0.009330709,0.77708
553.535,60.45471,-3.1143,0.0101636,0.77652
554.235,60.5244,-3.11553,0.01013344,0.77596
554.935,60.59421,-3.11685,0.01053125,0.7754
555.635,60.66401,-3.11591,0.01264904,0.77484
556.335,60.73372,-3.11643,0.01344316,0.77428
557.035,60.80341,-3.11939,0.01390122,0.77372
557.735,60.8732,-3.11971,0.01437399,0.77316
558.435,60.94307,-3.12068,0.01465561,0.7726
559.135,61.0128,-3.11935,0.01643013,0.77204
559.835,61.08249,-3.12063,0.01565315,0.77147
560.535,61.15224,-3.12102,0.01542826,0.77091
561.235,61.22215,-3.12099,0.01471944,0.77035
561.935,61.29201,-3.12233,0.01634778,0.76979
562.635,61.3619,-3.12234,0.01621196,0.76923
563.335,61.43165,-3.12364,0.01559307,0.76866
564.035,61.5014,-3.12365,0.02120026,0.7681
564.735,61.5711,-3.12379,0.02318213,0.76754
565.435,61.6408,-3.12496,0.02786026,0.76697
566.135,61.7103,-3.12532,0.02998494,0.76641
566.835,61.7798,-3.12403,0.03352566,0.76585
567.535,61.8496,-3.12497,0.03177271,0.76528
568.235,61.9193,-3.12629,0.03035339,0.76472
568.935,61.9892,-3.12761,0.03185105,0.76415
569.635,62.05901,-3.12825,0.03091786,0.76359
570.335,62.12891,-3.12957,0.03195534,0.76302
571.035,62.1989,-3.12957,0.02947956,0.76246
571.735,62.26874,-3.1309,0.02969676,0.76189
572.435,62.3387,-3.13155,0.03152593,0.76133
573.135,62.4086,-3.13155,0.02869101,0.76076
573.835,62.4784,-3.13155,0.03020593,0.7602
574.535,62.54831,-3.13287,0.02930168,0.75963
575.235,62.6182,-3.13287,0.02818184,0.75907
575.935,62.68841,-3.13418,0.02663187,0.7585
576.635,62.7584,-3.13552,0.02624859,0.75793
577.335,62.82833,-3.13484,0.0282177,0.75737
578.035,62.89838,-3.13549,0.02761081,0.7568
578.735,62.96829,-3.1355,0.02543843,0.75623
579.435,63.0383,-3.1355,0.02610599,0.75566
580.135,63.1081,-3.13681,0.02624329,0.7551
580.835,63.1782,-3.13813,0.02551369,0.75453
581.535,63.2482,-3.13942,0.02636625,0.75396
582.235,63.31825,-3.13879,0.02836244,0.75339
582.935,63.3882,-3.13879,0.02492188,0.75283
583.635,63.45825,-3.13879,0.02664619,0.75226
584.335,63.52782,-3.1401,0.03012542,0.75169
585.035,63.59785,-3.14142,0.02745104,0.75112
585.735,63.6678,-3.14049,0.02748095,0.75055
586.435,63.73836,-3.14043,0.02392402,0.74998
587.135,63.8083,-3.14174,0.02205429,0.74941
587.835,63.87823,-3.14174,0.02324874,0.74884
588.535,63.94825,-3.14304,0.02189283,0.74827
589.235,64.01857,-3.14438,0.02240047,0.7477
589.935,64.08878,-3.14436,0.02091568,0.74713
590.635,64.1588,-3.1457,0.02111939,0.74656
591.335,64.22893,-3.14537,0.02090133,0.74599
592.035,64.29887,-3.14669,0.02043646,0.74542
592.735,64.36893,-3.14537,0.02168653,0.74485
593.435,64.4389,-3.14669,0.0188557,0.74428
594.135,64.5091,-3.14801,0.01895105,0.74371
594.835,64.57921,-3.14932,0.02022772,0.74314
595.535,64.64936,-3.148,0.01793497,0.74257
596.235,64.71948,-3.14933,0.01979776,0.742
596.935,64.78958,-3.15064,0.01432071,0.74142
597.635,64.8596,-3.14932,0.01949858,0.74085
598.335,64.9296,-3.15077,0.01795318,0.74028
599.035,64.99973,-3.15175,0.01801027,0.73971
599.735,65.0698,-3.15206,0.02072022,0.73914
600.435,65.13931,-3.15206,0.01778698,0.73856
601.135,65.20912,-3.15107,0.01573844,0.73799
601.835,65.27915,-3.15239,0.01806115,0.73742
602.535,65.3497,-3.15239,0.02003818,0.73684
603.235,65.41994,-3.1537,0.01873822,0.73627
603.935,65.4902,-3.15336,0.02002778,0.7357
604.635,65.5604,-3.15469,0.01780582,0.73512
605.335,65.63039,-3.15601,0.02102488,0.73455
606.035,65.70051,-3.15601,0.01920391,0.73398
606.735,65.77064,-3.15601,0.01880037,0.7334
607.435,65.84087,-3.15711,0.01946906,0.73283
608.135,65.91082,-3.15732,0.01890965,0.73225
608.835,65.98101,-3.15864,0.01815395,0.73168
609.535,66.05125,-3.15864,0.01873232,0.73111
610.235,66.12153,-3.15866,0.01882901,0.73053
610.935,66.19168,-3.15864,0.01731004,0.72996
611.635,66.26169,-3.15864,0.01844811,0.72938
612.335,66.3318,-3.15876,0.0176401,0.72881
613.035,66.40188,-3.15996,0.01949094,0.72823
613.735,66.47199,-3.16057,0.01944719,0.72766
614.435,66.54227,-3.16128,0.0192671,0.72708
615.135,66.6126,-3.16128,0.01591027,0.7265
615.835,66.68267,-3.16157,0.01935488,0.72593
616.535,66.7527,-3.16259,0.021279,0.72535
617.235,66.82264,-3.16391,0.01891964,0.72478
617.935,66.8929,-3.16395,0.02100417,0.7242
618.635,66.96315,-3.16522,0.02112786,0.72362
619.335,67.0334,-3.16457,0.02044295,0.72305
620.035,67.1037,-3.16457,0.02206867,0.72247
620.735,67.17384,-3.16597,0.02109716,0.72189
621.435,67.2439,-3.16671,0.02159778,0.72132
622.135,67.31405,-3.16772,0.01926291,0.72074
622.835,67.38432,-3.16786,0.02125271,0.72016
623.535,67.45465,-3.16786,0.02126649,0.71958
624.235,67.5248,-3.1689,0.02348451,0.71901
624.935,67.59495,-3.16788,0.02107352,0.71843
625.635,67.66506,-3.17013,0.02165902,0.71785
626.335,67.7354,-3.17046,0.02178414,0.71727
627.035,67.80582,-3.16917,0.0210114,0.7167
627.735,67.87618,-3.16917,0.01954125,0.71612
628.435,67.94651,-3.16908,0.02359947,0.71554
629.135,68.01674,-3.17049,0.02385868,0.71496
629.835,68.08729,-3.17182,0.0226756,0.71438
630.535,68.15775,-3.1718,0.02282917,0.7138
631.235,68.2282,-3.1718,0.0238409,0.71323
631.935,68.29864,-3.1718,0.0230825,0.71265
632.635,68.36917,-3.17312,0.02297942,0.71207
633.335,68.43975,-3.17312,0.02637166,0.71149
634.035,68.51024,-3.17255,0.02048433,0.71091
634.735,68.58059,-3.17389,0.0217463,0.71033
635.435,68.6511,-3.17443,0.02361582,0.70975
636.135,68.72142,-3.17443,0.02553049,0.70917
636.835,68.79178,-3.17443,0.02538644,0.70859
637.535,68.86205,-3.17443,0.02385025,0.70801
638.235,68.93267,-3.17575,0.0255045,0.70743
638.935,69.0031,-3.17533,0.02695667,0.70685
639.635,69.0733,-3.17598,0.02844493,0.70627
640.335,69.14339,-3.17542,0.02619985,0.70569
641.035,69.21355,-3.17574,0.02750597,0.70511
641.735,69.28399,-3.17707,0.02877149,0.70453
642.435,69.3543,-3.17707,0.02781197,0.70395
643.135,69.42465,-3.17707,0.02844268,0.70337
643.835,69.49513,-3.17706,0.02989374,0.70279
644.535,69.56551,-3.17839,0.03225212,0.70221
645.235,69.63598,-3.17852,0.03150521,0.70163
645.935,69.7064,-3.1797,0.03094845,0.70104
646.635,69.77694,-3.1797,0.02978879,0.70046
647.335,69.84722,-3.17972,0.02972977,0.69988
648.035,69.91753,-3.18011,0.03254255,0.6993
648.735,69.98777,-3.18036,0.03339838,0.69872
649.435,70.05834,-3.18101,0.03308597,0.69814
650.135,70.12889,-3.18231,0.03250312,0.69756
650.835,70.19926,-3.18331,0.03273799,0.69697
651.535,70.26947,-3.18233,0.03276557,0.69639
652.235,70.33962,-3.18365,0.03264287,0.69581
652.935,70.40994,-3.18365,0.03203404,0.69523
653.635,70.48051,-3.18365,0.0321669,0.69465
654.335,70.55112,-3.18365,0.03309124,0.69406
655.035,70.6217,-3.18452,0.03382615,0.69348
655.735,70.69225,-3.18496,0.0349403,0.6929
656.435,70.76253,-3.18564,0.03673468,0.69232
657.135,70.8326,-3.18562,0.03622573,0.69173
657.835,70.90268,-3.18562,0.03741578,0.69115
658.535,70.9734,-3.18562,0.03916695,0.69057
659.235,71.04443,-3.18629,0.03728008,0.68998
659.935,71.11537,-3.18629,0.03818049,0.6894
660.635,71.18606,-3.18629,0.03735467,0.68882
661.335,71.25668,-3.18631,0.04249423,0.68824
662.035,71.32727,-3.18758,0.0432069,0.68765
662.735,71.39774,-3.18628,0.04811437,0.68707
663.435,71.4687,-3.18889,0.04792539,0.68649
664.135,71.53959,-3.18893,0.04394735,0.6859
664.835,71.61058,-3.18893,0.04533149,0.68532
665.535,71.68121,-3.18891,0.04559938,0.68473
666.235,71.75177,-3.18891,0.04658243,0.68415
666.935,71.8223,-3.18891,0.04948826,0.68357
667.635,71.89278,-3.18894,0.0479655,0.68298
668.335,71.9635,-3.18891,0.04669645,0.6824
669.035,72.03409,-3.18959,0.04990733,0.68181
669.735,72.10483,-3.18957,0.05004999,0.68123
670.435,72.17556,-3.19058,0.0559018,0.68065
671.135,72.2461,-3.19089,0.05847783,0.68006
671.835,72.31675,-3.19095,0.0580557,0.67948
672.535,72.38717,-3.19159,0.05743486,0.67889
673.235,72.45789,-3.19121,0.05940842,0.67831
673.935,72.52858,-3.19121,0.06246194,0.67772
674.635,72.59931,-3.19253,0.06434472,0.67714
675.335,72.66988,-3.19253,0.06706298,0.67656
676.035,72.74044,-3.19253,0.06430946,0.67597
676.735,72.81097,-3.19254,0.06753461,0.67539
677.435,72.88157,-3.19352,0.06680693,0.6748
678.135,72.95205,-3.19354,0.06698361,0.67422
678.835,73.02271,-3.19319,0.06635511,0.67363
679.535,73.0934,-3.19361,0.07087792,0.67305
680.235,73.16407,-3.19385,0.0680213,0.67246
680.935,73.2346,-3.19385,0.07013262,0.67188
681.635,73.3052,-3.19384,0.07045005,0.67129
682.335,73.37541,-3.19517,0.07097132,0.6707
683.035,73.4459,-3.19517,0.07586741,0.67012
683.735,73.51634,-3.19517,0.07892579,0.66953
684.435,73.58712,-3.1965,0.0771371,0.66895
685.135,73.6577,-3.19615,0.08219677,0.66836
685.835,73.72787,-3.19484,0.08154193,0.66778
686.535,73.79855,-3.1955,0.08332687,0.66719
687.235,73.86917,-3.19549,0.0859102,0.66661
687.935,73.94029,-3.19553,0.08700961,0.66602
688.635,74.01093,-3.19682,0.08979899,0.66543
689.335,74.08187,-3.19615,0.08531162,0.66485
690.035,74.15284,-3.19744,0.08811882,0.66426
690.735,74.22384,-3.19747,0.08962642,0.66368
691.435,74.29462,-3.1975,0.091045,0.66309
692.135,74.36533,-3.19846,0.09015016,0.6625
692.835,74.43613,-3.19846,0.09494111,0.66192
693.535,74.50706,-3.19846,0.09426722,0.66133
694.235,74.57805,-3.19845,0.09791763,0.66075
694.935,74.649,-3.19747,0.09311705,0.66016
695.635,74.71992,-3.19747,0.09551361,0.65957
696.335,74.79083,-3.19748,0.09933593,0.65899
697.035,74.86183,-3.19879,0.09648555,0.6584
697.735,74.93281,-3.19879,0.09731422,0.65781
698.435,75.00364,-3.2001,0.1051,0.65723
699.135,75.07421,-3.20116,0.10421,0.65664
699.835,75.14502,-3.20032,0.10255,0.65605
700.535,75.2159,-3.20109,0.10576,0.65547
701.235,75.2869,-3.20109,0.10452,0.65488
701.935,75.35769,-3.20007,0.10704,0.65429
702.635,75.42846,-3.2014,0.10961,0.65371
703.335,75.49927,-3.20142,0.10922,0.65312
704.035,75.57013,-3.20142,0.10867,0.65253
704.735,75.64102,-3.20142,0.10452,0.65195
705.435,75.71199,-3.20009,0.1066,0.65136
706.135,75.78267,-3.20138,0.10582,0.65077
706.835,75.85336,-3.20241,0.10703,0.65019
707.535,75.92396,-3.20241,0.10998,0.6496
708.235,75.9948,-3.20241,0.10902,0.64901
708.935,76.0656,-3.20284,0.11163,0.64843
709.635,76.13636,-3.2039,0.10686,0.64784
710.335,76.20719,-3.20273,0.11047,0.64725
711.035,76.27799,-3.20273,0.11226,0.64667
711.735,76.34866,-3.20272,0.11662,0.64608
712.435,76.41922,-3.20405,0.11673,0.64549
713.135,76.48984,-3.20561,0.11785,0.6449
713.835,76.5605,-3.20567,0.11761,0.64432
714.535,76.63107,-3.20492,0.11543,0.64373
715.235,76.7017,-3.2036,0.11934,0.64314
715.935,76.77239,-3.2036,0.11903,0.64256
716.635,76.8433,-3.20459,0.12434,0.64197
717.335,76.91425,-3.20592,0.11951,0.64138
718.035,76.98506,-3.20592,0.11959,0.64079
718.735,77.05564,-3.20725,0.11986,0.64021
719.435,77.12639,-3.20724,0.12252,0.63962
720.135,77.1972,-3.20724,0.1254,0.63903
720.835,77.268,-3.20724,0.12782,0.63845
721.535,77.3387,-3.20855,0.12943,0.63786
722.235,77.40924,-3.20887,0.13015,0.63727
722.935,77.47986,-3.20746,0.13002,0.63668
723.635,77.55041,-3.20611,0.12833,0.6361
724.335,77.62093,-3.20745,0.13073,0.63551
725.035,77.69148,-3.20745,0.13139,0.63492
725.735,77.76213,-3.20745,0.13315,0.63433
726.435,77.8328,-3.20745,0.13071,0.63375
727.135,77.90358,-3.20875,0.13459,0.63316
727.835,77.97423,-3.20876,0.13711,0.63257
728.535,78.04511,-3.20876,0.13635,0.63198
729.235,78.11572,-3.20876,0.1392,0.6314
729.935,78.18658,-3.20779,0.13726,0.63081
730.635,78.2573,-3.20779,0.13577,0.63022
731.335,78.32826,-3.2091,0.13784,0.62964
732.035,78.39913,-3.20877,0.13672,0.62905
732.735,78.47015,-3.20877,0.13319,0.62846
733.435,78.54091,-3.20801,0.13385,0.62787
734.135,78.61168,-3.20778,0.13686,0.62729
734.835,78.68276,-3.20774,0.14083,0.6267
735.535,78.75403,-3.20912,0.14165,0.62611
736.235,78.825,-3.2104,0.14221,0.62552
736.935,78.89587,-3.21272,0.14208,0.62494
737.635,78.96669,-3.21272,0.13785,0.62435
738.335,79.03778,-3.21272,0.13792,0.62376
739.035,79.10884,-3.21272,0.141,0.62317
739.735,79.18016,-3.21403,0.13984,0.62259
740.435,79.25143,-3.21404,0.13904,0.622
741.135,79.3227,-3.21404,0.14234,0.62141
741.835,79.39376,-3.21258,0.13752,0.62083
742.535,79.46503,-3.21403,0.14018,0.62024
743.235,79.53608,-3.21521,0.13891,0.61965
743.935,79.60729,-3.21395,0.13987,0.61906
744.635,79.6781,-3.21535,0.1373,0.61848
745.335,79.74875,-3.21535,0.14151,0.61789
746.035,79.81907,-3.21535,0.13991,0.6173
746.735,79.88946,-3.21535,0.13734,0.61671
747.435,79.96015,-3.21403,0.13727,0.61613
748.135,80.03104,-3.21534,0.13499,0.61554
748.835,80.10194,-3.21534,0.13736,0.61495
749.535,80.17333,-3.21542,0.13915,0.61437
750.235,80.24475,-3.21568,0.13937,0.61378
750.935,80.31618,-3.21568,0.13817,0.61319
751.635,80.38728,-3.21568,0.13877,0.61261
752.335,80.4582,-3.21633,0.13662,0.61202
753.035,80.52909,-3.21765,0.13942,0.61143
753.735,80.5997,-3.21793,0.13809,0.61084
754.435,80.67056,-3.21765,0.14039,0.61026
755.135,80.74126,-3.21781,0.14228,0.60967
755.835,80.81209,-3.219,0.14148,0.60908
756.535,80.88294,-3.21897,0.1402,0.6085
757.235,80.95381,-3.21896,0.1434,0.60791
757.935,81.02469,-3.21765,0.13911,0.60732
758.635,81.0953,-3.21765,0.13843,0.60674
759.335,81.16609,-3.21897,0.13848,0.60615
760.035,81.2367,-3.21897,0.14298,0.60556
760.735,81.30753,-3.21795,0.13581,0.60498
761.435,81.37828,-3.21932,0.14363,0.60439
762.135,81.44932,-3.21897,0.13892,0.6038
762.835,81.52026,-3.21897,0.14478,0.60322
763.535,81.59133,-3.22029,0.14253,0.60263
764.235,81.66204,-3.22028,0.14414,0.60204
764.935,81.73303,-3.22028,0.14799,0.60146
765.635,81.80373,-3.22028,0.14275,0.60087
766.335,81.87481,-3.221,0.14475,0.60028
767.035,81.94577,-3.22086,0.14497,0.5997
767.735,82.01686,-3.22029,0.1461,0.59911
768.435,82.0879,-3.22115,0.14546,0.59853
769.135,82.1588,-3.22028,0.14514,0.59794
769.835,82.22975,-3.22028,0.14651,0.59735
770.535,82.30055,-3.22028,0.14589,0.59677
771.235,82.37151,-3.22028,0.14428,0.59618
771.935,82.44253,-3.2216,0.14754,0.59559
772.635,82.51386,-3.2216,0.14653,0.59501
773.335,82.5849,-3.2216,0.14604,0.59442
774.035,82.65615,-3.2216,0.14231,0.59384
774.735,82.7272,-3.22162,0.1463,0.59325
775.435,82.79847,-3.22226,0.14103,0.59267
776.135,82.86963,-3.22226,0.14148,0.59208
776.835,82.94071,-3.22357,0.14632,0.59149
777.535,83.01178,-3.22357,0.143,0.59091
778.235,83.08266,-3.22357,0.14429,0.59032
778.935,83.15385,-3.22357,0.1464,0.58974
779.635,83.22496,-3.22355,0.1444,0.58915
780.335,83.29592,-3.22357,0.15001,0.58857
781.035,83.36692,-3.22423,0.15122,0.58798
781.735,83.43796,-3.22423,0.14806,0.5874
782.435,83.50885,-3.22423,0.15397,0.58681
783.135,83.57965,-3.22552,0.15167,0.58623
783.835,83.65074,-3.22457,0.1484,0.58564
784.535,83.7222,-3.22474,0.14912,0.58506
785.235,83.79346,-3.22555,0.15035,0.58447
785.935,83.86453,-3.22555,0.15001,0.58389
786.635,83.93562,-3.22462,0.15463,0.5833
787.335,84.0069,-3.2252,0.15255,0.58272
788.035,84.07815,-3.22424,0.15338,0.58213
788.735,84.14939,-3.22687,0.15175,0.58155
789.435,84.2203,-3.22556,0.15374,0.58096
790.135,84.2912,-3.22556,0.15413,0.58038
790.835,84.36192,-3.22588,0.15898,0.57979
791.535,84.43264,-3.22588,0.16097,0.57921
792.235,84.50376,-3.22558,0.15705,0.57862
792.935,84.57495,-3.22522,0.15977,0.57804
793.635,84.6464,-3.2262,0.15775,0.57746
794.335,84.71726,-3.22621,0.1576,0.57687
795.035,84.7881,-3.22532,0.16195,0.57629
795.735,84.85882,-3.22621,0.16198,0.5757
796.435,84.92976,-3.22621,0.16401,0.57512
797.035,84.9905,-3.22686,0.16379,0.57462