File: 01_Data/Cedar_Shingle/STA/N2/10K_min/Cedar_Shingle_STA_N2_10KData_220401_R1.csv
##Temp./Â°C,Time/min,Mass loss(subtr.2)/mg,DSC(subtr.2)/(mW/mg),Sensit./(uV/mW)
49.703,10.01,-0.02029,0.02630663,1.06052
50.403,10.7722,-0.02019396,0.06171556,1.06037
51.103,10.97512,-0.01605836,0.0892982,1.06023
51.803,11.12878,-0.01820629,0.11201,1.06008
52.503,11.25865,-0.02179086,0.13299,1.05994
53.203,11.37368,-0.01823357,0.15031,1.05979
53.903,11.47948,-0.01964963,0.1646,1.05964
54.603,11.57897,-0.02006319,0.17802,1.05949
55.303,11.67345,-0.01985299,0.18769,1.05934
56.003,11.76445,-0.02045442,0.19764,1.05919
56.703,11.8531,-0.02280574,0.2054,1.05904
57.403,11.939,-0.02231381,0.21604,1.05889
58.103,12.02319,-0.02316923,0.22112,1.05873
58.803,12.10566,-0.02328005,0.22824,1.05858
59.503,12.18741,-0.02454147,0.23499,1.05842
60.203,12.2681,-0.02162498,0.24075,1.05826
60.903,12.34759,-0.02153481,0.24814,1.05811
61.603,12.42648,-0.02015079,0.25084,1.05795
62.303,12.5048,-0.02009658,0.2559,1.05779
63.003,12.5823,-0.01958692,0.25847,1.05763
63.703,12.6593,-0.02483308,0.26558,1.05747
64.403,12.73605,-0.02821403,0.27209,1.05731
65.103,12.8125,-0.02686259,0.27485,1.05714
65.803,12.8885,-0.02488465,0.27974,1.05698
66.503,12.96457,-0.01955625,0.28074,1.05681
67.203,13.04027,-0.01831005,0.28463,1.05665
67.903,13.11537,-0.02031887,0.28974,1.05648
68.603,13.19005,-0.0225868,0.29341,1.05631
69.303,13.2639,-0.02291594,0.29641,1.05615
70.003,13.3382,-0.02431047,0.30112,1.05598
70.703,13.4127,-0.0242299,0.30357,1.05581
71.403,13.4881,-0.02342305,0.30604,1.05564
72.103,13.5625,-0.02288436,0.31105,1.05546
72.803,13.63652,-0.02413852,0.31313,1.05529
73.503,13.7103,-0.02743245,0.31779,1.05512
74.203,13.78415,-0.02931444,0.31924,1.05494
74.903,13.8581,-0.03025852,0.32148,1.05477
75.603,13.93097,-0.02894977,0.32584,1.05459
76.303,14.0044,-0.02897843,0.32786,1.05441
77.003,14.07771,-0.02696553,0.33192,1.05423
77.703,14.15116,-0.02633037,0.33497,1.05406
78.403,14.22383,-0.027858,0.3376,1.05388
79.103,14.2966,-0.02939871,0.3416,1.05369
79.803,14.36922,-0.03201261,0.34251,1.05351
80.503,14.44169,-0.0347105,0.34676,1.05333
81.203,14.5135,-0.03583916,0.34925,1.05315
81.903,14.5852,-0.03398437,0.34715,1.05296
82.603,14.65665,-0.0293147,0.35099,1.05278
83.303,14.72809,-0.032648,0.35303,1.05259
84.003,14.79959,-0.03473767,0.355,1.0524
84.703,14.8709,-0.03443017,0.35442,1.05222
85.403,14.9421,-0.03312159,0.35687,1.05203
86.103,15.0134,-0.03311869,0.3558,1.05184
86.803,15.0843,-0.03107169,0.35896,1.05165
87.503,15.15519,-0.03233233,0.35852,1.05146
88.203,15.22601,-0.03634779,0.359,1.05126
88.903,15.29638,-0.03808595,0.36032,1.05107
89.603,15.3667,-0.03902325,0.35933,1.05088
90.303,15.4372,-0.0400289,0.35919,1.05068
91.003,15.50756,-0.03936737,0.35944,1.05048
91.703,15.578,-0.04096485,0.35866,1.05029
92.403,15.64804,-0.04383142,0.36023,1.05009
93.103,15.718,-0.04519009,0.35818,1.04989
93.803,15.78779,-0.04206934,0.35732,1.04969
94.503,15.85719,-0.04216943,0.35315,1.04949
95.203,15.92697,-0.03972213,0.35473,1.04929
95.903,15.99642,-0.04013813,0.35236,1.04909
96.603,16.066,-0.03980998,0.34932,1.04889
97.303,16.13531,-0.04070243,0.3498,1.04868
98.003,16.20446,-0.04135678,0.34908,1.04848
98.703,16.2739,-0.04313029,0.34927,1.04827
99.403,16.3432,-0.04504433,0.34592,1.04807
100.103,16.41253,-0.04507,0.34513,1.04786
100.803,16.48143,-0.04507377,0.34295,1.04765
101.503,16.55014,-0.04638994,0.33989,1.04744
102.203,16.61907,-0.04770688,0.34043,1.04723
102.903,16.68814,-0.04963779,0.33876,1.04702
103.603,16.75713,-0.05044989,0.33753,1.04681
104.303,16.8261,-0.04931988,0.33526,1.0466
105.003,16.89487,-0.04953728,0.33421,1.04639
105.703,16.96346,-0.04674561,0.33136,1.04617
106.403,17.03225,-0.04672,0.32759,1.04596
107.103,17.101,-0.04672034,0.32744,1.04574
107.803,17.16958,-0.0480305,0.32788,1.04552
108.503,17.23787,-0.04785517,0.32567,1.04531
109.203,17.30623,-0.0467201,0.32425,1.04509
109.903,17.37495,-0.04672337,0.32394,1.04487
110.603,17.4439,-0.04540637,0.32328,1.04465
111.303,17.5126,-0.04539907,0.32097,1.04443
112.003,17.5811,-0.04540676,0.32287,1.04421
112.703,17.64943,-0.04899152,0.31822,1.04398
113.403,17.71777,-0.05032848,0.32128,1.04376
114.103,17.7864,-0.05033953,0.31963,1.04354
114.803,17.85492,-0.05166657,0.32093,1.04331
115.503,17.9235,-0.05165964,0.32019,1.04309
116.203,17.99209,-0.05298574,0.31934,1.04286
116.903,18.06074,-0.05298,0.32021,1.04263
117.603,18.12905,-0.05298089,0.32023,1.0424
118.303,18.1971,-0.0542899,0.3188,1.04217
119.003,18.26526,-0.05554829,0.31866,1.04194
119.703,18.3338,-0.05658906,0.3195,1.04171
120.403,18.40217,-0.05560193,0.32072,1.04148
121.103,18.47026,-0.05428247,0.31844,1.04125
121.803,18.53825,-0.05429126,0.31893,1.04102
122.503,18.6065,-0.05431014,0.31713,1.04078
123.203,18.67482,-0.05395978,0.32115,1.04055
123.903,18.7431,-0.0540045,0.31802,1.04031
124.603,18.81129,-0.05330006,0.31767,1.04007
125.303,18.87944,-0.0532998,0.31752,1.03984
126.003,18.94738,-0.05654218,0.31787,1.0396
126.703,19.0156,-0.05685352,0.31929,1.03936
127.403,19.0839,-0.0591098,0.32138,1.03912
128.103,19.1521,-0.06191003,0.32405,1.03888
128.803,19.21999,-0.06317,0.32398,1.03864
129.503,19.28783,-0.06317,0.32287,1.03839
130.203,19.35582,-0.06326837,0.32111,1.03815
130.903,19.4238,-0.0619496,0.32239,1.0379
131.603,19.49182,-0.06071835,0.32327,1.03766
132.303,19.56,-0.06020999,0.32234,1.03741
133.003,19.62804,-0.05888743,0.32227,1.03717
133.703,19.6959,-0.06016647,0.32415,1.03692
134.403,19.76355,-0.05888295,0.32278,1.03667
135.103,19.83152,-0.06067724,0.32231,1.03642
135.803,19.89936,-0.06119999,0.32458,1.03617
136.503,19.9672,-0.0611589,0.32338,1.03592
137.203,20.03464,-0.06482926,0.32459,1.03567
137.903,20.10236,-0.06603034,0.32527,1.03542
138.603,20.16998,-0.06733986,0.32928,1.03516
139.303,20.23781,-0.0646389,0.32828,1.03491
140.003,20.30547,-0.06330498,0.32768,1.03466
140.703,20.37304,-0.06459987,0.32946,1.0344
141.403,20.44061,-0.06460019,0.32763,1.03414
142.103,20.5079,-0.06592439,0.32967,1.03389
142.803,20.57524,-0.06722833,0.33211,1.03363
143.503,20.64242,-0.06839036,0.3314,1.03337
144.203,20.7098,-0.06921959,0.3321,1.03311
144.903,20.77709,-0.06793673,0.3329,1.03285
145.603,20.84454,-0.06813381,0.33341,1.03259
146.303,20.91196,-0.0685399,0.33358,1.03232
147.003,20.97936,-0.06952818,0.33431,1.03206
147.703,21.04671,-0.06976003,0.33701,1.0318
148.403,21.11407,-0.07120791,0.33706,1.03153
149.103,21.1814,-0.0724932,0.33706,1.03127
149.803,21.2486,-0.07117869,0.33724,1.031
150.503,21.31587,-0.06986144,0.33654,1.03074
151.203,21.38312,-0.06986004,0.33871,1.03047
151.903,21.4504,-0.07055598,0.33914,1.0302
152.603,21.51761,-0.07117948,0.33885,1.02993
153.303,21.58495,-0.07271721,0.339,1.02966
154.003,21.6523,-0.07404599,0.34115,1.02939
154.703,21.71954,-0.07564301,0.34109,1.02912
155.403,21.787,-0.07530841,0.34176,1.02884
156.103,21.85427,-0.07534014,0.34111,1.02857
156.803,21.92178,-0.07690912,0.34035,1.0283
157.503,21.9891,-0.07760629,0.34145,1.02802
158.203,22.05663,-0.07780472,0.34106,1.02775
158.903,22.124,-0.07503793,0.34095,1.02747
159.603,22.19143,-0.07499586,0.3416,1.02719
160.303,22.2588,-0.07770329,0.34339,1.02691
161.003,22.32619,-0.07907586,0.34257,1.02664
161.703,22.39358,-0.07775303,0.34327,1.02636
162.403,22.46101,-0.07776022,0.34315,1.02608
163.103,22.52845,-0.07967489,0.34508,1.02579
163.803,22.59574,-0.07974002,0.34711,1.02551
164.503,22.66293,-0.07975116,0.34708,1.02523
165.203,22.73011,-0.08040001,0.35111,1.02495
165.903,22.79736,-0.08213034,0.35186,1.02466
166.603,22.86465,-0.08332231,0.35045,1.02438
167.303,22.93179,-0.08500521,0.34926,1.02409
168.003,22.999,-0.08500007,0.35365,1.0238
168.703,23.06605,-0.08630101,0.35416,1.02352
169.403,23.13307,-0.08698496,0.35557,1.02323
170.103,23.19998,-0.08698,0.35826,1.02294
170.803,23.26642,-0.08698,0.35811,1.02265
171.503,23.3335,-0.08697999,0.35953,1.02236
172.203,23.40059,-0.08659796,0.3615,1.02207
172.903,23.46835,-0.08718889,0.36116,1.02178
173.603,23.53556,-0.0900973,0.36187,1.02148
174.303,23.60267,-0.09159594,0.36148,1.02119
175.003,23.6696,-0.09541832,0.36225,1.0209
175.703,23.73666,-0.09477503,0.36311,1.0206
176.403,23.80357,-0.09242146,0.3605,1.02031
177.103,23.87085,-0.09103964,0.36039,1.02001
177.803,23.93799,-0.09244804,0.36254,1.01971
178.503,24.00517,-0.09061197,0.36452,1.01941
179.203,24.07229,-0.09050351,0.36237,1.01911
179.903,24.13929,-0.08961099,0.36272,1.01881
180.603,24.20634,-0.09057168,0.36469,1.01851
181.303,24.2733,-0.09178526,0.36525,1.01821
182.003,24.3403,-0.09191254,0.3654,1.01791
182.703,24.40713,-0.09178223,0.36452,1.01761
183.403,24.47419,-0.0947755,0.36679,1.01731
184.103,24.54113,-0.09478023,0.36652,1.017
184.803,24.60834,-0.09344002,0.36823,1.0167
185.503,24.67513,-0.09395119,0.36879,1.01639
186.203,24.7422,-0.09584386,0.36975,1.01608
186.903,24.8091,-0.09910093,0.37077,1.01578
187.603,24.8763,-0.10069,0.37219,1.01547
188.303,24.94353,-0.10182,0.36946,1.01516
189.003,25.01064,-0.09790751,0.37036,1.01485
189.703,25.07771,-0.09706208,0.36864,1.01454
190.403,25.14472,-0.0969867,0.3694,1.01423
191.103,25.21159,-0.09956311,0.37171,1.01392
191.803,25.27862,-0.1008,0.37307,1.01361
192.503,25.3456,-0.1008,0.37277,1.01329
193.203,25.41263,-0.10133,0.37437,1.01298
193.903,25.47965,-0.10376,0.37519,1.01266
194.603,25.54668,-0.10509,0.37913,1.01235
195.303,25.61368,-0.1085,0.37937,1.01203
196.003,25.68055,-0.10902,0.38042,1.01172
196.703,25.74748,-0.10858,0.38026,1.0114
197.403,25.81447,-0.10771,0.37938,1.01108
198.103,25.88171,-0.10771,0.38172,1.01076
198.803,25.94874,-0.10897,0.3826,1.01044
199.503,26.01578,-0.10906,0.38286,1.01012
200.203,26.08266,-0.11165,0.38272,1.0098
200.903,26.14957,-0.11308,0.38476,1.00948
201.603,26.2163,-0.11369,0.38534,1.00916
202.303,26.28336,-0.11412,0.38653,1.00883
203.003,26.3505,-0.11308,0.38767,1.00851
203.703,26.4178,-0.11431,0.38657,1.00818
204.403,26.48487,-0.11333,0.38669,1.00786
205.103,26.55195,-0.11393,0.39009,1.00753
205.803,26.6189,-0.11561,0.38981,1.0072
206.503,26.686,-0.12046,0.39312,1.00688
207.203,26.75279,-0.12243,0.39435,1.00655
207.903,26.8198,-0.11989,0.39272,1.00622
208.603,26.8867,-0.11509,0.39631,1.00589
209.303,26.9538,-0.1198,0.39701,1.00556
210.003,27.02076,-0.12164,0.39682,1.00523
210.703,27.08755,-0.123,0.40132,1.0049
211.403,27.1543,-0.12419,0.4028,1.00456
212.103,27.2214,-0.12834,0.40432,1.00423
212.803,27.28835,-0.12833,0.40353,1.0039
213.503,27.35543,-0.12834,0.40529,1.00356
214.203,27.4223,-0.12699,0.40862,1.00322
214.903,27.4892,-0.12571,0.40787,1.00289
215.603,27.55606,-0.12827,0.40856,1.00255
216.303,27.62296,-0.13103,0.40888,1.00221
217.003,27.6899,-0.13249,0.41089,1.00188
217.703,27.7569,-0.13379,0.41181,1.00154
218.403,27.82387,-0.13522,0.41329,1.0012
219.103,27.89044,-0.13524,0.41572,1.00086
219.803,27.95712,-0.13524,0.41648,1.00051
220.503,28.02375,-0.13524,0.4194,1.00017
221.203,28.0906,-0.13524,0.42171,0.99983
221.903,28.1574,-0.13643,0.41983,0.99949
222.603,28.22413,-0.13911,0.42339,0.99914
223.303,28.2908,-0.14186,0.42459,0.9988
224.003,28.35734,-0.14554,0.4259,0.99845
224.703,28.424,-0.14709,0.42782,0.99811
225.403,28.4908,-0.14882,0.42643,0.99776
226.103,28.55759,-0.15431,0.42892,0.99741
226.803,28.6243,-0.15683,0.43179,0.99706
227.503,28.69107,-0.15902,0.43369,0.99672
228.203,28.7579,-0.15941,0.43246,0.99637
228.903,28.82462,-0.15822,0.4349,0.99602
229.603,28.89136,-0.16119,0.43468,0.99566
230.303,28.95794,-0.1631,0.43838,0.99531
231.003,29.02478,-0.1631,0.43599,0.99496
231.703,29.0916,-0.162,0.43711,0.99461
232.403,29.15843,-0.1631,0.4386,0.99425
233.103,29.2252,-0.16582,0.43853,0.9939
233.803,29.2919,-0.17023,0.4395,0.99354
234.503,29.3587,-0.17438,0.44256,0.99319
235.203,29.4253,-0.17663,0.44137,0.99283
235.903,29.49196,-0.17904,0.44344,0.99248
236.603,29.5587,-0.18093,0.444,0.99212
237.303,29.6255,-0.17491,0.44286,0.99176
238.003,29.6923,-0.17045,0.44201,0.9914
238.703,29.75902,-0.17439,0.44511,0.99104
239.403,29.82556,-0.18554,0.44688,0.99068
240.103,29.89237,-0.1926,0.44862,0.99032
240.803,29.95907,-0.1938,0.44742,0.98996
241.503,30.0259,-0.19298,0.45134,0.98959
242.203,30.0925,-0.19382,0.45135,0.98923
242.903,30.1592,-0.19523,0.45169,0.98887
243.603,30.22595,-0.19883,0.45239,0.9885
244.303,30.29267,-0.20313,0.45416,0.98814
245.003,30.35928,-0.20944,0.45319,0.98777
245.703,30.42598,-0.21087,0.45437,0.98741
246.403,30.49281,-0.2143,0.45348,0.98704
247.103,30.5596,-0.21516,0.45528,0.98667
247.803,30.62653,-0.21826,0.45156,0.9863
248.503,30.69325,-0.21931,0.45362,0.98593
249.203,30.76009,-0.21958,0.45271,0.98556
249.903,30.82612,-0.22221,0.45408,0.98519
250.603,30.89286,-0.22817,0.45323,0.98482
251.303,30.9595,-0.23611,0.45321,0.98445
252.003,31.027,-0.24188,0.45333,0.98408
252.703,31.0938,-0.24604,0.45428,0.9837
253.403,31.1607,-0.24796,0.4539,0.98333
254.103,31.22764,-0.25003,0.45275,0.98296
254.803,31.29471,-0.25392,0.45333,0.98258
255.503,31.36175,-0.25531,0.45146,0.98221
256.203,31.42851,-0.25885,0.45165,0.98183
256.903,31.49517,-0.26566,0.45214,0.98145
257.603,31.562,-0.2697,0.45071,0.98107
258.303,31.62892,-0.27191,0.45027,0.9807
259.003,31.69593,-0.27299,0.45015,0.98032
259.703,31.76285,-0.27618,0.44612,0.97994
260.403,31.82998,-0.27849,0.44658,0.97956
261.103,31.8971,-0.28231,0.4462,0.97918
261.803,31.9642,-0.28821,0.44738,0.9788
262.503,32.03131,-0.29346,0.4454,0.97841
263.203,32.0983,-0.29609,0.4457,0.97803
263.903,32.16537,-0.30128,0.44615,0.97765
264.603,32.23237,-0.30614,0.44505,0.97726
265.303,32.2996,-0.31179,0.44507,0.97688
266.003,32.36663,-0.31774,0.44342,0.97649
266.703,32.4337,-0.32209,0.4413,0.97611
267.403,32.5005,-0.32425,0.44011,0.97572
268.103,32.5676,-0.33076,0.44009,0.97533
268.803,32.63469,-0.3363,0.44236,0.97495
269.503,32.70118,-0.34171,0.43853,0.97456
270.203,32.76846,-0.34696,0.44255,0.97417
270.903,32.8355,-0.35255,0.4376,0.97378
271.603,32.90298,-0.3588,0.44011,0.97339
272.303,32.9696,-0.36216,0.43814,0.973
273.003,33.03641,-0.36715,0.43591,0.97261
273.703,33.1035,-0.37336,0.4351,0.97221
274.403,33.17086,-0.37692,0.43382,0.97182
275.103,33.2382,-0.38217,0.43442,0.97143
275.803,33.30542,-0.39061,0.43099,0.97103
276.503,33.37236,-0.39462,0.43327,0.97064
277.203,33.43939,-0.39967,0.42892,0.97024
277.903,33.50658,-0.40829,0.43005,0.96985
278.603,33.5739,-0.41706,0.42863,0.96945
279.303,33.641,-0.41992,0.42912,0.96905
280.003,33.70823,-0.42106,0.42546,0.96866
280.703,33.7755,-0.42802,0.42362,0.96826
281.403,33.84253,-0.43459,0.42692,0.96786
282.103,33.90945,-0.4411,0.42529,0.96746
282.803,33.97636,-0.44839,0.4234,0.96706
283.503,34.0434,-0.45593,0.42532,0.96666
284.203,34.11033,-0.46127,0.42542,0.96626
284.903,34.17731,-0.47109,0.42352,0.96585
285.603,34.2442,-0.47979,0.42597,0.96545
286.303,34.31123,-0.48497,0.42362,0.96505
287.003,34.37812,-0.49001,0.4265,0.96464
287.703,34.44513,-0.49142,0.42521,0.96424
288.403,34.51218,-0.49797,0.42406,0.96384
289.103,34.5792,-0.50099,0.42055,0.96343
289.803,34.6463,-0.50985,0.42159,0.96302
290.503,34.71338,-0.51895,0.42419,0.96262
291.203,34.78066,-0.52803,0.42084,0.96221
291.903,34.8479,-0.53547,0.42013,0.9618
292.603,34.9151,-0.54337,0.42302,0.96139
293.303,34.9824,-0.55028,0.41981,0.96098
294.003,35.04973,-0.55817,0.42181,0.96057
294.703,35.11698,-0.56747,0.42202,0.96016
295.403,35.18416,-0.57517,0.42354,0.95975
296.103,35.25132,-0.58021,0.42089,0.95934
296.803,35.3186,-0.58671,0.42046,0.95893
297.503,35.38589,-0.59342,0.42466,0.95852
298.203,35.45312,-0.60281,0.42389,0.9581
298.903,35.52021,-0.61536,0.4253,0.95769
299.603,35.5876,-0.62567,0.42556,0.95727
300.303,35.65488,-0.63531,0.42719,0.95686
301.003,35.7226,-0.64521,0.42787,0.95644
301.703,35.79009,-0.65397,0.4288,0.95603
302.403,35.85761,-0.66489,0.4262,0.95561
303.103,35.92498,-0.67538,0.43122,0.95519
303.803,35.9925,-0.68801,0.42998,0.95477
304.503,36.05972,-0.69573,0.43131,0.95436
305.203,36.12719,-0.69975,0.43315,0.95394
305.903,36.1944,-0.71244,0.43351,0.95352
306.603,36.2617,-0.72565,0.43625,0.9531
307.303,36.32905,-0.73447,0.4359,0.95268
308.003,36.3966,-0.74386,0.43652,0.95225
308.703,36.4642,-0.75398,0.43879,0.95183
309.403,36.53174,-0.76474,0.43998,0.95141
310.103,36.59899,-0.77739,0.44288,0.95099
310.803,36.66642,-0.78746,0.44528,0.95056
311.503,36.73379,-0.79757,0.45026,0.95014
312.203,36.80134,-0.80721,0.4503,0.94971
312.903,36.8685,-0.82027,0.45351,0.94929
313.603,36.93582,-0.83407,0.45587,0.94886
314.303,37.00298,-0.84425,0.45785,0.94844
315.003,37.0706,-0.8606,0.46049,0.94801
315.703,37.13778,-0.87437,0.46105,0.94758
316.403,37.20524,-0.88853,0.46217,0.94715
317.103,37.27258,-0.89966,0.46571,0.94672
317.803,37.34002,-0.91236,0.4685,0.94629
318.503,37.4074,-0.92644,0.46997,0.94586
319.203,37.47467,-0.93955,0.47209,0.94543
319.903,37.54211,-0.94992,0.47316,0.945
320.603,37.60947,-0.9637,0.47503,0.94457
321.303,37.6772,-0.98165,0.47909,0.94414
322.003,37.7446,-0.99631,0.48003,0.94371
322.703,37.81216,-1.00982,0.48113,0.94327
323.403,37.8794,-1.02512,0.48586,0.94284
324.103,37.94676,-1.0397,0.48747,0.9424
324.803,38.01429,-1.05619,0.48746,0.94197
325.503,38.08191,-1.07091,0.49118,0.94153
326.203,38.14953,-1.08621,0.49215,0.9411
326.903,38.21713,-1.09934,0.49533,0.94066
327.603,38.28467,-1.11374,0.49847,0.94022
328.303,38.35235,-1.13113,0.50019,0.93979
329.003,38.41979,-1.14529,0.50383,0.93935
329.703,38.4873,-1.16051,0.50663,0.93891
330.403,38.55493,-1.17834,0.5079,0.93847
331.103,38.6226,-1.19404,0.51135,0.93803
331.803,38.6902,-1.20979,0.51355,0.93759
332.503,38.7577,-1.22649,0.51588,0.93715
333.203,38.82527,-1.24353,0.51787,0.93671
333.903,38.8929,-1.25982,0.52073,0.93627
334.603,38.96065,-1.27782,0.52441,0.93582
335.303,39.02833,-1.29415,0.52775,0.93538
336.003,39.09602,-1.31256,0.53065,0.93494
336.703,39.1637,-1.3318,0.53416,0.93449
337.403,39.2312,-1.35027,0.53757,0.93405
338.103,39.2988,-1.36884,0.5418,0.9336
338.803,39.36623,-1.38834,0.54483,0.93316
339.503,39.4339,-1.404,0.5481,0.93271
340.203,39.50152,-1.4182,0.55304,0.93227
340.903,39.56912,-1.43751,0.55809,0.93182
341.603,39.63665,-1.45411,0.55984,0.93137
342.303,39.70445,-1.47475,0.56413,0.93092
343.003,39.7723,-1.48981,0.56674,0.93047
343.703,39.8402,-1.50921,0.57326,0.93002
344.403,39.90798,-1.53258,0.57972,0.92957
345.103,39.97568,-1.55408,0.58467,0.92912
345.803,40.0432,-1.57492,0.59052,0.92867
346.503,40.11094,-1.60018,0.59807,0.92822
347.203,40.17863,-1.62382,0.60433,0.92777
347.903,40.2464,-1.63486,0.60951,0.92732
348.603,40.31387,-1.65258,0.61538,0.92687
349.303,40.38155,-1.67239,0.62387,0.92641
350.003,40.44931,-1.69579,0.6297,0.92596
350.703,40.5175,-1.72012,0.63819,0.9255
351.403,40.58545,-1.74115,0.64647,0.92505
352.103,40.65332,-1.76247,0.65203,0.92459
352.803,40.7205,-1.78142,0.65697,0.92414
353.503,40.7881,-1.80651,0.66374,0.92368
354.203,40.85579,-1.83234,0.67192,0.92322
354.903,40.92409,-1.85621,0.67667,0.92277
355.603,40.99178,-1.87637,0.6843,0.92231
356.303,41.05961,-1.89785,0.69018,0.92185
357.003,41.12743,-1.92107,0.69563,0.92139
357.703,41.19522,-1.94678,0.70108,0.92093
358.403,41.26315,-1.97039,0.70779,0.92047
359.103,41.33109,-1.99627,0.71127,0.92001
359.803,41.3989,-2.02014,0.7162,0.91955
360.503,41.4669,-2.04278,0.7179,0.91909
361.203,41.53465,-2.06575,0.71837,0.91863
361.903,41.6027,-2.08977,0.72175,0.91816
362.603,41.67053,-2.11395,0.72217,0.9177
363.303,41.73859,-2.13987,0.72335,0.91724
364.003,41.8068,-2.1667,0.72303,0.91677
364.703,41.87512,-2.19405,0.72448,0.91631
365.403,41.94334,-2.22071,0.7205,0.91584
366.103,42.01137,-2.24829,0.71635,0.91538
366.803,42.07918,-2.27517,0.71072,0.91491
367.503,42.147,-2.29771,0.70367,0.91445
368.203,42.2151,-2.31811,0.695,0.91398
368.903,42.28335,-2.3395,0.68315,0.91351
369.603,42.3516,-2.36572,0.67273,0.91305
370.303,42.41976,-2.39151,0.65947,0.91258
371.003,42.48795,-2.4139,0.64586,0.91211
371.703,42.55598,-2.4372,0.63291,0.91164
372.403,42.6242,-2.46039,0.61322,0.91117
373.103,42.6921,-2.48018,0.59656,0.9107
373.803,42.7602,-2.49924,0.57626,0.91023
374.503,42.82824,-2.51904,0.55504,0.90976
375.203,42.8964,-2.53835,0.53128,0.90929
375.903,42.96448,-2.55684,0.50731,0.90881
376.603,43.0326,-2.57642,0.48182,0.90834
377.303,43.10065,-2.59151,0.45865,0.90787
378.003,43.16876,-2.60739,0.42982,0.90739
378.703,43.2365,-2.62129,0.40536,0.90692
379.403,43.30438,-2.63622,0.3797,0.90645
380.103,43.37203,-2.64996,0.35166,0.90597
380.803,43.44007,-2.66428,0.32716,0.9055
381.503,43.50804,-2.67372,0.30142,0.90502
382.203,43.57618,-2.68196,0.2755,0.90454
382.903,43.6442,-2.69031,0.24912,0.90407
383.603,43.71218,-2.69829,0.22744,0.90359
384.303,43.7801,-2.70673,0.20776,0.90311
385.003,43.84814,-2.71325,0.18626,0.90263
385.703,43.9162,-2.72135,0.16493,0.90216
386.403,43.98435,-2.72898,0.14984,0.90168
387.103,44.0524,-2.7345,0.1341,0.9012
387.803,44.12058,-2.74185,0.12359,0.90072
388.503,44.18868,-2.74654,0.11111,0.90024
389.203,44.25663,-2.75251,0.10037,0.89976
389.903,44.32475,-2.75729,0.09253733,0.89927
390.603,44.3929,-2.76048,0.08427875,0.89879
391.303,44.46097,-2.76176,0.07698579,0.89831
392.003,44.52895,-2.76309,0.07418301,0.89783
392.703,44.5971,-2.76529,0.07078918,0.89734
393.403,44.66537,-2.76925,0.06904845,0.89686
394.103,44.7338,-2.7756,0.06788447,0.89638
394.803,44.802,-2.77761,0.06323165,0.89589
395.503,44.87028,-2.77515,0.05762514,0.89541
396.203,44.9384,-2.77478,0.05551258,0.89492
396.903,45.00653,-2.77795,0.05391856,0.89444
397.603,45.07458,-2.77796,0.05000416,0.89395
398.303,45.14273,-2.78185,0.05007865,0.89346
399.003,45.2109,-2.78744,0.05001755,0.89298
399.703,45.27915,-2.7935,0.0491559,0.89249
400.403,45.3474,-2.79656,0.04483858,0.892
401.103,45.41559,-2.79808,0.04564586,0.89151
401.803,45.4838,-2.79637,0.04048864,0.89102
402.503,45.55177,-2.79809,0.03822146,0.89053
403.203,45.6202,-2.79995,0.0369079,0.89004
403.903,45.68867,-2.80682,0.0360517,0.88955
404.603,45.75717,-2.8117,0.0345482,0.88906
405.303,45.8252,-2.81453,0.03485152,0.88857
406.003,45.8934,-2.8169,0.03050144,0.88808
406.703,45.96174,-2.81794,0.0290872,0.88759
407.403,46.02978,-2.81794,0.02693601,0.8871
408.103,46.09792,-2.82065,0.02471929,0.88661
408.803,46.1663,-2.82457,0.02161467,0.88611
409.503,46.2348,-2.83009,0.02142147,0.88562
410.203,46.30337,-2.8322,0.01893463,0.88512
410.903,46.3717,-2.8382,0.01906162,0.88463
411.603,46.4401,-2.84098,0.01693743,0.88414
412.303,46.50849,-2.84371,0.0140429,0.88364
413.003,46.57713,-2.84372,0.01190349,0.88314
413.703,46.64581,-2.84184,0.01091198,0.88265
414.403,46.7144,-2.83964,0.006065634,0.88215
415.103,46.78285,-2.83965,0.003971088,0.88165
415.803,46.8515,-2.84739,0.00338369,0.88116
416.503,46.92014,-2.85084,0.0006292295,0.88066
417.203,46.98885,-2.85253,5.599991e-05,0.88016
417.903,47.05742,-2.85703,-0.00516491,0.87966
418.603,47.12592,-2.85873,-0.00434221,0.87916
419.303,47.19474,-2.8625,-0.004915732,0.87866
420.003,47.26358,-2.86723,-0.01088514,0.87816
420.703,47.33255,-2.86699,-0.01215957,0.87766
421.403,47.4013,-2.87017,-0.01163968,0.87716
422.103,47.47033,-2.87168,-0.01338513,0.87666
422.803,47.53862,-2.87072,-0.01564633,0.87616
423.503,47.60745,-2.87026,-0.0191881,0.87566
424.203,47.676,-2.87083,-0.0187806,0.87516
424.903,47.74517,-2.87514,-0.01718485,0.87466
425.603,47.81366,-2.88096,-0.01747465,0.87415
426.303,47.88234,-2.88283,-0.02093434,0.87365
427.003,47.95111,-2.88364,-0.02061058,0.87314
427.703,48.0199,-2.88823,-0.0206546,0.87264
428.403,48.08876,-2.89277,-0.02029036,0.87214
429.103,48.15733,-2.89406,-0.02163978,0.87163
429.803,48.22614,-2.89596,-0.02152661,0.87113
430.503,48.29469,-2.8967,-0.02176901,0.87062
431.203,48.3633,-2.90163,-0.01981707,0.87011
431.903,48.4317,-2.9022,-0.02134661,0.86961
432.603,48.50008,-2.90361,-0.02225974,0.8691
433.303,48.56845,-2.90634,-0.02099818,0.86859
434.003,48.6368,-2.90701,-0.02132684,0.86809
434.703,48.70531,-2.90907,-0.02082645,0.86758
435.403,48.774,-2.9112,-0.02236189,0.86707
436.103,48.84255,-2.91398,-0.0203053,0.86656
436.803,48.9111,-2.91909,-0.01995344,0.86605
437.503,48.9794,-2.92319,-0.01753459,0.86554
438.203,49.04772,-2.925,-0.01869125,0.86503
438.903,49.11616,-2.92685,-0.0158,0.86452
439.603,49.18479,-2.92911,-0.01426057,0.86401
440.303,49.25363,-2.92796,-0.01314408,0.8635
441.003,49.32244,-2.92731,-0.01366864,0.86299
441.703,49.39125,-2.93226,-0.01380744,0.86247
442.403,49.46008,-2.93739,-0.009458471,0.86196
443.103,49.5289,-2.93722,-0.00893046,0.86145
443.803,49.59765,-2.93721,-0.00898617,0.86094
444.503,49.66646,-2.93944,-0.005105985,0.86042
445.203,49.7352,-2.94086,-0.004664471,0.85991
445.903,49.80429,-2.94375,-0.002546276,0.8594
446.603,49.8733,-2.94861,-0.0006658934,0.85888
447.303,49.9425,-2.95042,0.002019726,0.85837
448.003,50.01145,-2.95222,0.004113533,0.85785
448.703,50.0805,-2.95486,0.009493811,0.85733
449.403,50.14968,-2.95614,0.007292386,0.85682
450.103,50.21861,-2.95746,0.01181227,0.8563
450.803,50.2877,-2.9588,0.01388033,0.85579
451.503,50.35673,-2.96129,0.01908457,0.85527
452.203,50.42583,-2.96285,0.02066073,0.85475
452.903,50.49465,-2.96228,0.02322186,0.85423
453.603,50.5635,-2.9642,0.02193025,0.85371
454.303,50.63264,-2.9676,0.02812965,0.8532
455.003,50.70194,-2.97179,0.02941295,0.85268
455.703,50.77108,-2.96829,0.03078507,0.85216
456.403,50.8401,-2.97184,0.03496977,0.85164
457.103,50.90902,-2.97372,0.03855343,0.85112
457.803,50.97798,-2.97666,0.04001201,0.8506
458.503,51.04698,-2.97871,0.04348253,0.85008
459.203,51.1158,-2.97878,0.04614763,0.84956
459.903,51.18475,-2.98137,0.04801422,0.84904
460.603,51.25347,-2.98005,0.05043149,0.84851
461.303,51.32261,-2.98135,0.05182171,0.84799
462.003,51.39172,-2.98281,0.05467609,0.84747
462.703,51.4608,-2.98415,0.05857145,0.84695
463.403,51.52984,-2.98839,0.06006481,0.84642
464.103,51.59881,-2.99125,0.06088015,0.8459
464.803,51.6678,-2.99256,0.06423822,0.84538
465.503,51.73682,-2.99484,0.06637404,0.84485
466.203,51.806,-2.99354,0.06779478,0.84433
466.903,51.87538,-2.99354,0.06933139,0.8438
467.603,51.94453,-2.99653,0.07308159,0.84328
468.303,52.01356,-2.99956,0.07184825,0.84275
469.003,52.08258,-2.99694,0.07335192,0.84223
469.703,52.15164,-2.99781,0.07561836,0.8417
470.403,52.22077,-3.00071,0.07696592,0.84117
471.103,52.29003,-3.00309,0.07947377,0.84065
471.803,52.35928,-3.00567,0.08262488,0.84012
472.503,52.42873,-3.00833,0.08194888,0.83959
473.203,52.49801,-3.00971,0.08606014,0.83906
473.903,52.56715,-3.00859,0.08498362,0.83853
474.603,52.6361,-3.00691,0.08799433,0.83801
475.303,52.7053,-3.00835,0.08612332,0.83748
476.003,52.7746,-3.01009,0.09050773,0.83695
476.703,52.84406,-3.01099,0.08939776,0.83642
477.403,52.9132,-3.01306,0.09249018,0.83589
478.103,52.9822,-3.01508,0.09222484,0.83536
478.803,53.05135,-3.01507,0.0943518,0.83483
479.503,53.12059,-3.01636,0.09302437,0.8343
480.203,53.18996,-3.01768,0.09719059,0.83377
480.903,53.25909,-3.02065,0.09907687,0.83323
481.603,53.32805,-3.02446,0.10105,0.8327
482.303,53.39715,-3.02646,0.10145,0.83217
483.003,53.4665,-3.02798,0.10467,0.83164
483.703,53.53598,-3.02656,0.10664,0.83111
484.403,53.6055,-3.02655,0.10515,0.83057
485.103,53.67487,-3.02787,0.10648,0.83004
485.803,53.74419,-3.02924,0.10718,0.82951
486.503,53.81346,-3.02783,0.10725,0.82897
487.203,53.8826,-3.02917,0.10609,0.82844
487.903,53.95205,-3.03184,0.10954,0.8279
488.603,54.0216,-3.03311,0.11058,0.82737
489.303,54.0913,-3.0339,0.10815,0.82683
490.003,54.1607,-3.03577,0.10826,0.8263
490.703,54.2301,-3.03577,0.10917,0.82576
491.403,54.2996,-3.03577,0.10989,0.82522
492.103,54.3692,-3.03426,0.1089,0.82469
492.803,54.4388,-3.03446,0.11046,0.82415
493.503,54.5082,-3.03775,0.11438,0.82361
494.203,54.57759,-3.04124,0.11767,0.82308
494.903,54.64691,-3.04261,0.1196,0.82254
495.603,54.7165,-3.04257,0.1222,0.822
496.303,54.78581,-3.04121,0.12297,0.82146
497.003,54.8552,-3.0432,0.12501,0.82092
497.703,54.9243,-3.04578,0.12366,0.82038
498.403,54.99358,-3.04586,0.12813,0.81985
499.103,55.0627,-3.04673,0.12869,0.81931
499.803,55.132,-3.04802,0.13551,0.81877
500.503,55.2012,-3.04972,0.13915,0.81823
501.203,55.27049,-3.05103,0.14275,0.81769
501.903,55.33973,-3.04959,0.14882,0.81714
502.603,55.4089,-3.05107,0.15049,0.8166
503.303,55.47809,-3.05408,0.15538,0.81606
504.003,55.54725,-3.05112,0.1551,0.81552
504.703,55.6164,-3.05176,0.15802,0.81498
505.403,55.6856,-3.05393,0.15976,0.81444
506.103,55.7547,-3.05388,0.16049,0.81389
506.803,55.824,-3.05388,0.15922,0.81335
507.503,55.89301,-3.05568,0.16177,0.81281
508.203,55.96213,-3.0578,0.1652,0.81227
508.903,56.03119,-3.0589,0.16474,0.81172
509.603,56.10043,-3.06204,0.16517,0.81118
510.303,56.1698,-3.06527,0.16927,0.81063
511.003,56.23904,-3.06452,0.16924,0.81009
511.703,56.30815,-3.06188,0.16933,0.80954
512.403,56.3773,-3.06108,0.16846,0.809
513.103,56.44654,-3.06469,0.16852,0.80845
513.803,56.516,-3.06822,0.17174,0.80791
514.503,56.58526,-3.06985,0.17234,0.80736
515.203,56.65453,-3.06863,0.17256,0.80682
515.903,56.72388,-3.06742,0.16869,0.80627
516.603,56.7933,-3.06844,0.1692,0.80572
517.303,56.8628,-3.0668,0.17392,0.80518
518.003,56.9323,-3.06683,0.17134,0.80463
518.703,57.00173,-3.06813,0.1695,0.80408
519.403,57.07131,-3.06922,0.17103,0.80353
520.103,57.14089,-3.07343,0.1736,0.80299
520.803,57.2106,-3.07505,0.17008,0.80244
521.503,57.2802,-3.07636,0.17085,0.80189
522.203,57.34975,-3.07406,0.16821,0.80134
522.903,57.4193,-3.07434,0.16888,0.80079
523.603,57.48875,-3.07669,0.17118,0.80024
524.303,57.5582,-3.07669,0.16792,0.79969
525.003,57.6277,-3.07943,0.16767,0.79914
525.703,57.6974,-3.08098,0.16443,0.79859
526.403,57.7671,-3.07965,0.16799,0.79804
527.103,57.8369,-3.07964,0.16753,0.79749
527.803,57.90667,-3.08109,0.16932,0.79694
528.503,57.97636,-3.08361,0.16767,0.79639
529.203,58.0463,-3.08363,0.16484,0.79584
529.903,58.11614,-3.08362,0.16409,0.79529
530.603,58.186,-3.08502,0.1654,0.79474
531.303,58.2557,-3.08624,0.1654,0.79418
532.003,58.3255,-3.08755,0.16555,0.79363
532.703,58.39545,-3.09027,0.16689,0.79308
533.403,58.46539,-3.09129,0.1667,0.79253
534.103,58.5352,-3.09128,0.16557,0.79197
534.803,58.605,-3.09167,0.16286,0.79142
535.503,58.6748,-3.09028,0.16115,0.79087
536.203,58.7446,-3.09202,0.16217,0.79031
536.903,58.81436,-3.09424,0.16173,0.78976
537.603,58.884,-3.09459,0.16329,0.7892
538.303,58.9535,-3.09555,0.15902,0.78865
539.003,59.02313,-3.09685,0.15752,0.78809
539.703,59.09287,-3.09555,0.15646,0.78754
540.403,59.16273,-3.09555,0.1558,0.78698
541.103,59.23231,-3.0978,0.15478,0.78643
541.803,59.30195,-3.09965,0.15538,0.78587
542.503,59.37145,-3.10422,0.15238,0.78532
543.203,59.44118,-3.10268,0.15293,0.78476
543.903,59.5107,-3.10269,0.15124,0.7842
544.603,59.5803,-3.10269,0.14991,0.78365
545.303,59.64986,-3.10531,0.15067,0.78309
546.003,59.71869,-3.10531,0.15145,0.78253
546.703,59.78821,-3.10788,0.15107,0.78197
547.403,59.85754,-3.10849,0.1506,0.78142
548.103,59.9278,-3.10626,0.14859,0.78086
548.803,59.99734,-3.10357,0.14719,0.7803
549.503,60.0667,-3.10237,0.14552,0.77974
550.203,60.1363,-3.10193,0.14651,0.77918
550.903,60.2058,-3.10083,0.14634,0.77862
551.603,60.2755,-3.10248,0.14219,0.77807
552.303,60.3449,-3.10073,0.14412,0.77751
553.003,60.4143,-3.10385,0.14473,0.77695
553.703,60.48392,-3.10539,0.14331,0.77639
554.403,60.5536,-3.10936,0.14381,0.77583
555.103,60.6235,-3.11069,0.14184,0.77527
555.803,60.69319,-3.11054,0.14013,0.77471
556.503,60.7631,-3.11005,0.13888,0.77415
557.203,60.8328,-3.10938,0.138,0.77359
557.903,60.90291,-3.11301,0.1385,0.77302
558.603,60.97295,-3.11431,0.13794,0.77246
559.303,61.04314,-3.11563,0.13811,0.7719
560.003,61.1131,-3.11563,0.13484,0.77134
560.703,61.1827,-3.11422,0.13255,0.77078
561.403,61.2524,-3.11387,0.13538,0.77022
562.103,61.32218,-3.11732,0.13434,0.76965
562.803,61.3924,-3.12179,0.13345,0.76909
563.503,61.46236,-3.1231,0.13756,0.76853
564.203,61.53226,-3.12563,0.13277,0.76796
564.903,61.6021,-3.12693,0.13276,0.7674
565.603,61.67199,-3.12643,0.13311,0.76684
566.303,61.74184,-3.12337,0.13111,0.76627
567.003,61.81136,-3.11983,0.13169,0.76571
567.703,61.8812,-3.11928,0.12907,0.76515
568.403,61.9511,-3.11804,0.13179,0.76458
569.103,62.02129,-3.12095,0.13587,0.76402
569.803,62.09103,-3.12494,0.13396,0.76345
570.503,62.1612,-3.12626,0.13594,0.76289
571.203,62.2313,-3.12627,0.13581,0.76232
571.903,62.30138,-3.12759,0.13753,0.76176
572.603,62.37132,-3.12636,0.13861,0.76119
573.303,62.44129,-3.12844,0.1388,0.76063
574.003,62.51109,-3.12834,0.14103,0.76006
574.703,62.5809,-3.12758,0.13913,0.7595
575.403,62.65064,-3.12905,0.13846,0.75893
576.103,62.72071,-3.13031,0.13906,0.75836
576.803,62.7907,-3.13032,0.13982,0.7578
577.503,62.8606,-3.13103,0.14145,0.75723
578.203,62.9307,-3.13299,0.1383,0.75666
578.903,63.0007,-3.13299,0.14174,0.7561
579.603,63.0708,-3.1313,0.14127,0.75553
580.303,63.1408,-3.12978,0.14238,0.75496
581.003,63.2108,-3.13018,0.14163,0.75439
581.703,63.2809,-3.13109,0.13995,0.75383
582.403,63.35089,-3.13372,0.14096,0.75326
583.103,63.421,-3.13372,0.14647,0.75269
583.803,63.491,-3.13414,0.14352,0.75212
584.503,63.5608,-3.13641,0.14113,0.75155
585.203,63.6309,-3.13635,0.14488,0.75098
585.903,63.701,-3.13766,0.14626,0.75041
586.603,63.7715,-3.13767,0.14773,0.74985
587.303,63.84163,-3.13865,0.14937,0.74928
588.003,63.91176,-3.13998,0.15216,0.74871
588.703,63.98199,-3.14029,0.1554,0.74814
589.403,64.05205,-3.14079,0.15624,0.74757
590.103,64.12221,-3.13899,0.15598,0.747
590.803,64.19237,-3.14032,0.15616,0.74643
591.503,64.26257,-3.14042,0.15755,0.74586
592.203,64.33274,-3.14447,0.15497,0.74529
592.903,64.40278,-3.14722,0.15671,0.74471
593.603,64.473,-3.14722,0.15557,0.74414
594.303,64.54306,-3.14716,0.1538,0.74357
595.003,64.61326,-3.14868,0.15534,0.743
595.703,64.6832,-3.14985,0.15603,0.74243
596.403,64.75339,-3.1498,0.15305,0.74186
597.103,64.82359,-3.14854,0.15157,0.74129
597.803,64.89386,-3.14717,0.14971,0.74071
598.503,64.96395,-3.14722,0.15336,0.74014
599.203,65.03386,-3.14975,0.15044,0.73957
599.903,65.10385,-3.14985,0.15195,0.739
600.603,65.17409,-3.14985,0.15336,0.73843
601.303,65.24433,-3.14885,0.14943,0.73785
602.003,65.31445,-3.14865,0.1493,0.73728
602.703,65.38441,-3.14979,0.14738,0.73671
603.403,65.45453,-3.15112,0.14857,0.73613
604.103,65.5249,-3.15236,0.15102,0.73556
604.803,65.595,-3.15502,0.14542,0.73499
605.503,65.66539,-3.15629,0.14691,0.73441
606.203,65.73567,-3.15801,0.14601,0.73384
606.903,65.80622,-3.15771,0.14559,0.73327
607.603,65.87646,-3.15753,0.14734,0.73269
608.303,65.94666,-3.15895,0.14664,0.73212
609.003,66.01654,-3.15895,0.14467,0.73154
609.703,66.08671,-3.15895,0.14494,0.73097
610.403,66.15705,-3.15896,0.1468,0.73039
611.103,66.22779,-3.16027,0.14762,0.72982
611.803,66.2982,-3.15934,0.14561,0.72924
612.503,66.36839,-3.15748,0.14376,0.72867
613.203,66.4388,-3.1561,0.1448,0.72809
613.903,66.50915,-3.15742,0.14264,0.72752
614.603,66.57942,-3.15873,0.14223,0.72694
615.303,66.64952,-3.16001,0.14781,0.72637
616.003,66.7196,-3.1643,0.14436,0.72579
616.703,66.79005,-3.16433,0.1442,0.72521
617.403,66.8606,-3.16434,0.14183,0.72464
618.103,66.93123,-3.16441,0.14504,0.72406
618.803,67.0019,-3.16564,0.14288,0.72348
619.503,67.07221,-3.16562,0.14571,0.72291
620.203,67.1426,-3.16417,0.14357,0.72233
620.903,67.21298,-3.16289,0.14459,0.72175
621.603,67.28354,-3.16422,0.14304,0.72118
622.303,67.35384,-3.16559,0.14282,0.7206
623.003,67.42419,-3.16403,0.14266,0.72002
623.703,67.49457,-3.16566,0.14124,0.71945
624.403,67.5651,-3.16925,0.14323,0.71887
625.103,67.63515,-3.17241,0.14482,0.71829
625.803,67.70564,-3.17239,0.14601,0.71771
626.503,67.7761,-3.17376,0.14449,0.71714
627.203,67.84687,-3.17245,0.14358,0.71656
627.903,67.9173,-3.17114,0.14466,0.71598
628.603,67.9878,-3.17115,0.14311,0.7154
629.303,68.05806,-3.17245,0.14454,0.71482
630.003,68.12817,-3.17377,0.14738,0.71424
630.703,68.19834,-3.17377,0.14427,0.71366
631.403,68.2684,-3.17245,0.14432,0.71309
632.103,68.33844,-3.17112,0.14579,0.71251
632.803,68.40847,-3.17047,0.14569,0.71193
633.503,68.4785,-3.17252,0.1473,0.71135
634.203,68.54858,-3.17432,0.1464,0.71077
634.903,68.61868,-3.17354,0.14714,0.71019
635.603,68.68903,-3.17354,0.14374,0.70961
636.303,68.7594,-3.17547,0.15059,0.70903
637.003,68.83005,-3.17913,0.14736,0.70845
637.703,68.90075,-3.17757,0.14986,0.70787
638.403,68.97153,-3.17748,0.14692,0.70729
639.103,69.042,-3.17751,0.14846,0.70671
639.803,69.11224,-3.17456,0.14976,0.70613
640.503,69.1826,-3.17464,0.14997,0.70555
641.203,69.25318,-3.1773,0.14957,0.70497
641.903,69.3237,-3.17836,0.15322,0.70439
642.603,69.39402,-3.17831,0.15007,0.70381
643.303,69.46414,-3.17979,0.15191,0.70323
644.003,69.53442,-3.18001,0.15255,0.70265
644.703,69.60464,-3.17978,0.1532,0.70207
645.403,69.67488,-3.17877,0.15323,0.70149
646.103,69.74517,-3.17639,0.15476,0.70091
646.803,69.8156,-3.17804,0.15126,0.70032
647.503,69.88589,-3.18161,0.15267,0.69974
648.203,69.95614,-3.18356,0.1575,0.69916
648.903,70.02642,-3.18527,0.15393,0.69858
649.603,70.09679,-3.1807,0.155,0.698
650.303,70.16713,-3.18069,0.15192,0.69742
651.003,70.23736,-3.18449,0.15309,0.69683
651.703,70.30753,-3.18615,0.1611,0.69625
652.403,70.37777,-3.18747,0.15712,0.69567
653.103,70.4482,-3.18877,0.1597,0.69509
653.803,70.5188,-3.18879,0.16055,0.69451
654.503,70.58937,-3.18748,0.16052,0.69392
655.203,70.65966,-3.18648,0.16282,0.69334
655.903,70.73018,-3.1878,0.16133,0.69276
656.603,70.80079,-3.18912,0.16683,0.69218
657.303,70.87153,-3.19047,0.16103,0.69159
658.003,70.94192,-3.19043,0.16685,0.69101
658.703,71.01258,-3.18913,0.16539,0.69043
659.403,71.08337,-3.19043,0.16778,0.68984
660.103,71.1543,-3.19045,0.16689,0.68926
660.803,71.2251,-3.19168,0.16609,0.68868
661.503,71.2958,-3.1891,0.16302,0.6881
662.203,71.36644,-3.1878,0.16252,0.68751
662.903,71.43698,-3.18482,0.16383,0.68693
663.603,71.5077,-3.18321,0.16478,0.68635
664.303,71.57842,-3.18465,0.16449,0.68576
665.003,71.64914,-3.18726,0.16318,0.68518
665.703,71.7195,-3.18726,0.16533,0.68459
666.403,71.79009,-3.18627,0.16452,0.68401
667.103,71.86078,-3.187,0.16865,0.68343
667.803,71.93181,-3.18887,0.17068,0.68284
668.503,72.00256,-3.19182,0.17337,0.68226
669.203,72.07336,-3.19208,0.17425,0.68167
669.903,72.14409,-3.1947,0.17091,0.68109
670.603,72.21472,-3.19505,0.17104,0.68051
671.303,72.28511,-3.19558,0.17358,0.67992
672.003,72.35569,-3.19603,0.17421,0.67934
672.703,72.42626,-3.19738,0.17392,0.67875
673.403,72.49714,-3.19734,0.17797,0.67817
674.103,72.5677,-3.19739,0.17895,0.67758
674.803,72.63839,-3.19682,0.17936,0.677
675.503,72.70896,-3.19603,0.17837,0.67641
676.203,72.7795,-3.19603,0.1797,0.67583
676.903,72.85004,-3.19603,0.18354,0.67525
677.603,72.92058,-3.19649,0.18356,0.67466
678.303,72.99112,-3.19937,0.1862,0.67408
679.003,73.06174,-3.20064,0.18742,0.67349
679.703,73.13234,-3.19923,0.19066,0.67291
680.403,73.2028,-3.19629,0.18833,0.67232
681.103,73.27348,-3.19562,0.18927,0.67173
681.803,73.34398,-3.19644,0.18688,0.67115
682.503,73.41484,-3.19824,0.18834,0.67056
683.203,73.48544,-3.19855,0.19388,0.66998
683.903,73.55586,-3.19865,0.19137,0.66939
684.603,73.62604,-3.19723,0.19231,0.66881
685.303,73.69622,-3.19855,0.19379,0.66822
686.003,73.7667,-3.19983,0.19372,0.66764
686.703,73.8373,-3.20118,0.19766,0.66705
687.403,73.90776,-3.2025,0.19804,0.66647
688.103,73.97808,-3.20348,0.19687,0.66588
688.803,74.04857,-3.20249,0.19896,0.66529
689.503,74.1191,-3.20119,0.20039,0.66471
690.203,74.18985,-3.20535,0.20459,0.66412
690.903,74.26049,-3.20799,0.20548,0.66354
691.603,74.331,-3.20799,0.20668,0.66295
692.303,74.4016,-3.20791,0.20822,0.66236
693.003,74.47208,-3.20535,0.20789,0.66178
693.703,74.54284,-3.20665,0.2057,0.66119
694.403,74.61333,-3.20468,0.20857,0.66061
695.103,74.6842,-3.20403,0.2091,0.66002
695.803,74.7548,-3.20486,0.21006,0.65943
696.503,74.82558,-3.20532,0.21025,0.65885
697.203,74.89614,-3.20531,0.21123,0.65826
697.903,74.967,-3.2067,0.21582,0.65767
698.603,75.03766,-3.2093,0.21531,0.65709
699.303,75.10847,-3.2093,0.21491,0.6565
700.003,75.17914,-3.2078,0.21232,0.65591
700.703,75.2499,-3.20622,0.20969,0.65533
701.403,75.3207,-3.20865,0.21572,0.65474
702.103,75.39139,-3.20865,0.21635,0.65415
702.803,75.46209,-3.20865,0.221,0.65357
703.503,75.53264,-3.20865,0.22006,0.65298
704.203,75.60316,-3.20736,0.22114,0.65239
704.903,75.67375,-3.20701,0.21942,0.65181
705.603,75.7444,-3.20459,0.21956,0.65122
706.303,75.81518,-3.20359,0.22085,0.65063
707.003,75.88603,-3.20489,0.22219,0.65005
707.703,75.9568,-3.2049,0.22594,0.64946
708.403,76.02775,-3.20755,0.2275,0.64887
709.103,76.0986,-3.20568,0.22907,0.64829
709.803,76.16938,-3.20491,0.23008,0.6477
710.503,76.24016,-3.20756,0.2326,0.64711
711.203,76.3111,-3.21106,0.23405,0.64652
711.903,76.38214,-3.21314,0.23226,0.64594
712.603,76.45309,-3.21314,0.23248,0.64535
713.303,76.52415,-3.21314,0.23287,0.64476
714.003,76.59523,-3.21362,0.23292,0.64418
714.703,76.6663,-3.21444,0.23797,0.64359
715.403,76.73714,-3.21577,0.23609,0.643
716.103,76.80768,-3.21577,0.23727,0.64242
716.803,76.87828,-3.21458,0.23984,0.64183
717.503,76.94866,-3.21448,0.23979,0.64124
718.203,77.01949,-3.21579,0.23798,0.64065
718.903,77.09022,-3.2161,0.24547,0.64007
719.603,77.16085,-3.2161,0.24569,0.63948
720.303,77.23176,-3.21746,0.24458,0.63889
721.003,77.30277,-3.21742,0.2434,0.6383
721.703,77.3742,-3.21818,0.24356,0.63772
722.403,77.44494,-3.21873,0.2431,0.63713
723.103,77.5159,-3.21844,0.24005,0.63654
723.803,77.5865,-3.21721,0.24422,0.63596
724.503,77.65729,-3.21588,0.24642,0.63537
725.203,77.72797,-3.21626,0.24744,0.63478
725.903,77.79901,-3.21852,0.24525,0.63419
726.603,77.8698,-3.2172,0.24232,0.63361
727.303,77.94076,-3.21721,0.24646,0.63302
728.003,78.01137,-3.21719,0.24996,0.63243
728.703,78.0822,-3.21435,0.25006,0.63184
729.403,78.15303,-3.21537,0.24943,0.63126
730.103,78.22415,-3.22007,0.25261,0.63067
730.803,78.2953,-3.22017,0.24889,0.63008
731.503,78.36635,-3.21773,0.25095,0.62949
732.203,78.4374,-3.21665,0.25306,0.62891
732.903,78.5083,-3.2192,0.25655,0.62832
733.603,78.57916,-3.22069,0.2547,0.62773
734.303,78.6502,-3.21698,0.25305,0.62714
735.003,78.72131,-3.21775,0.25355,0.62656
735.703,78.79219,-3.22137,0.25412,0.62597
736.403,78.86279,-3.22138,0.25863,0.62538
737.103,78.93348,-3.22137,0.25689,0.6248
737.803,79.0044,-3.22278,0.25878,0.62421
738.503,79.07519,-3.22269,0.26184,0.62362
739.203,79.146,-3.22447,0.25984,0.62303
739.903,79.21666,-3.224,0.26291,0.62245
740.603,79.28752,-3.22532,0.26118,0.62186
741.303,79.3583,-3.22532,0.26138,0.62127
742.003,79.42917,-3.22663,0.26178,0.62068
742.703,79.49973,-3.22389,0.26413,0.6201
743.403,79.57037,-3.22389,0.26509,0.61951
744.103,79.64102,-3.22314,0.26377,0.61892
744.803,79.71205,-3.22224,0.26837,0.61834
745.503,79.78305,-3.22357,0.26717,0.61775
746.203,79.85415,-3.22356,0.27143,0.61716
746.903,79.92511,-3.22488,0.27355,0.61657
747.603,79.99596,-3.2262,0.27249,0.61599
748.303,80.0664,-3.22619,0.27284,0.6154
749.003,80.13744,-3.22618,0.27311,0.61481
749.703,80.2086,-3.22752,0.27051,0.61423
750.403,80.27979,-3.22652,0.27031,0.61364
751.103,80.35079,-3.22521,0.26841,0.61305
751.803,80.4218,-3.22652,0.26933,0.61246
752.503,80.493,-3.22652,0.27033,0.61188
753.203,80.56424,-3.22635,0.27016,0.61129
753.903,80.6354,-3.22794,0.26965,0.6107
754.603,80.70652,-3.22964,0.27251,0.61012
755.303,80.77749,-3.23058,0.27212,0.60953
756.003,80.84854,-3.23156,0.27244,0.60894
756.703,80.91957,-3.23156,0.27088,0.60836
757.403,80.99041,-3.22895,0.26986,0.60777
758.103,81.06134,-3.22895,0.26795,0.60718
758.803,81.13242,-3.22939,0.27093,0.6066
759.503,81.20375,-3.22893,0.26783,0.60601
760.203,81.27489,-3.22937,0.2706,0.60542
760.903,81.34586,-3.23282,0.26718,0.60484
761.603,81.41677,-3.23551,0.27106,0.60425
762.303,81.4877,-3.23666,0.27144,0.60366
763.003,81.5587,-3.2341,0.27158,0.60308
763.703,81.62976,-3.23267,0.26651,0.60249
764.403,81.70065,-3.23168,0.26887,0.6019
765.103,81.77123,-3.23168,0.27205,0.60132
765.803,81.84179,-3.23181,0.26996,0.60073
766.503,81.91238,-3.23299,0.27189,0.60014
767.203,81.9832,-3.23299,0.27094,0.59956
767.903,82.05412,-3.23299,0.27432,0.59897
768.603,82.12491,-3.23327,0.27772,0.59838
769.303,82.19564,-3.23464,0.2779,0.5978
770.003,82.26646,-3.23428,0.27681,0.59721
770.703,82.33722,-3.23529,0.27718,0.59663
771.403,82.4079,-3.23529,0.27682,0.59604
772.103,82.47854,-3.23529,0.28166,0.59545
772.803,82.54948,-3.23529,0.27692,0.59487
773.503,82.62045,-3.23433,0.2777,0.59428
774.203,82.69116,-3.23562,0.27848,0.5937
774.903,82.76187,-3.23562,0.27784,0.59311
775.603,82.83289,-3.23562,0.27907,0.59252
776.303,82.90419,-3.23563,0.28226,0.59194
777.003,82.97551,-3.23691,0.28205,0.59135
777.703,83.04651,-3.23701,0.2837,0.59077
778.403,83.1176,-3.23629,0.27905,0.59018
779.103,83.18847,-3.23681,0.28235,0.5896
779.803,83.25957,-3.23987,0.28449,0.58901
780.503,83.3306,-3.24024,0.28774,0.58843
781.203,83.4017,-3.24056,0.28566,0.58784
781.903,83.47277,-3.23916,0.28809,0.58726
782.603,83.5438,-3.23653,0.28387,0.58667
783.303,83.6149,-3.2354,0.28235,0.58609
784.003,83.68595,-3.23677,0.28542,0.5855
784.703,83.75703,-3.23989,0.29148,0.58491
785.403,83.828,-3.24078,0.28491,0.58433
786.103,83.89881,-3.24211,0.28507,0.58374
786.803,83.96955,-3.2421,0.29006,0.58316
787.503,84.0401,-3.23967,0.28512,0.58258
788.203,84.1111,-3.23934,0.2848,0.58199
788.903,84.18207,-3.23967,0.2909,0.58141
789.603,84.25324,-3.23969,0.28355,0.58082
790.303,84.3242,-3.241,0.29129,0.58024
791.003,84.39517,-3.241,0.28574,0.57965
791.703,84.4662,-3.23969,0.2869,0.57907
792.403,84.53726,-3.23968,0.28769,0.57848
793.103,84.6082,-3.24019,0.28497,0.5779
793.803,84.6793,-3.24104,0.28784,0.57732
794.503,84.75029,-3.24267,0.28726,0.57673
795.203,84.82143,-3.2437,0.28668,0.57615
795.903,84.8926,-3.24531,0.28815,0.57556
796.603,84.96387,-3.24523,0.28782,0.57498
796.903,84.9945,-3.24666,0.2873,0.57473