File: 01_Data/Cedar_Shingle/STA/N2/10K_min/Cedar_Shingle_STA_N2_10KData_220404_R2.csv
##Temp./Â°C,Time/min,Mass loss(subtr.2)/mg,DSC(subtr.2)/(mW/mg),Sensit./(uV/mW)
49.701,10.00917,-0.00176,0.02379851,1.06052
50.401,10.77852,-0.0006720979,0.0618093,1.06037
51.101,10.9796,-2.23998e-05,0.09182075,1.06023
51.801,11.1306,-0.001682304,0.11292,1.06008
52.501,11.25956,-0.000447191,0.13285,1.05994
53.201,11.37355,-0.0005869133,0.15105,1.05979
53.901,11.47897,-0.0005366979,0.16449,1.05964
54.601,11.57859,-0.0004947193,0.17712,1.05949
55.301,11.6735,-0.0005101221,0.18939,1.05934
56.001,11.76474,-0.0008989331,0.19808,1.05919
56.701,11.85325,-0.0004316239,0.20795,1.05904
57.401,11.93896,-0.000772588,0.21375,1.05889
58.101,12.02317,-0.0007648148,0.22013,1.05873
58.801,12.10604,-0.000281549,0.22865,1.05858
59.501,12.18763,-0.0003267661,0.2333,1.05842
60.201,12.26807,0.0009908519,0.23971,1.05826
60.901,12.3473,1.872174e-05,0.24346,1.05811
61.601,12.4262,-0.001182874,0.2498,1.05795
62.301,12.50445,-0.0006112268,0.25405,1.05779
63.001,12.58222,-0.001716,0.26007,1.05763
63.701,12.65943,-0.0005494403,0.2649,1.05747
64.401,12.73625,-0.0005489971,0.27044,1.05731
65.101,12.8129,-0.001839331,0.27147,1.05714
65.801,12.88855,-0.00183115,0.27531,1.05698
66.501,12.96448,-0.0006475565,0.27909,1.05681
67.201,13.04007,-0.001927556,0.28469,1.05665
67.901,13.11624,-0.002002391,0.28759,1.05648
68.601,13.1913,-0.00183682,0.29042,1.05631
69.301,13.26631,-0.001870065,0.29231,1.05615
70.001,13.3408,-0.00315168,0.29649,1.05598
70.701,13.41525,-0.003255502,0.30245,1.05581
71.401,13.48939,-0.00185316,0.3048,1.05564
72.101,13.5634,-0.003183741,0.30974,1.05546
72.801,13.63684,-0.003176698,0.30898,1.05529
73.501,13.71089,-0.00437578,0.31455,1.05512
74.201,13.78455,-0.004499872,0.31682,1.05494
74.901,13.8585,-0.005100905,0.31887,1.05477
75.601,13.9316,-0.005823325,0.32251,1.05459
76.301,14.00486,-0.00589027,0.3226,1.05441
77.001,14.07801,-0.00450519,0.32643,1.05424
77.701,14.151,-0.004509335,0.32887,1.05406
78.401,14.2239,-0.005819994,0.33158,1.05388
79.101,14.297,-0.00711745,0.33148,1.0537
79.801,14.3696,-0.008454679,0.33573,1.05351
80.501,14.44184,-0.009429854,0.33768,1.05333
81.201,14.51395,-0.009476446,0.33846,1.05315
81.901,14.586,-0.009444243,0.33858,1.05296
82.601,14.6581,-0.009453108,0.34042,1.05278
83.301,14.7296,-0.00879489,0.34242,1.05259
84.001,14.80056,-0.01008999,0.34276,1.0524
84.701,14.87124,-0.01122405,0.34303,1.05222
85.401,14.94224,-0.01140994,0.34671,1.05203
86.101,15.01353,-0.01067953,0.34584,1.05184
86.801,15.0853,-0.01150906,0.34698,1.05165
87.501,15.15686,-0.01174008,0.34563,1.05146
88.201,15.2285,-0.01201948,0.34868,1.05126
88.901,15.29909,-0.01305,0.34734,1.05107
89.601,15.36946,-0.01305026,0.34598,1.05088
90.301,15.4397,-0.01337563,0.34426,1.05068
91.001,15.51016,-0.01338,0.34675,1.05049
91.701,15.58034,-0.01338,0.34408,1.05029
92.401,15.65029,-0.0133799,0.34531,1.05009
93.101,15.7202,-0.01469282,0.34361,1.04989
93.801,15.78997,-0.01469,0.34156,1.04969
94.501,15.85931,-0.01469146,0.34381,1.04949
95.201,15.9289,-0.01504014,0.34183,1.04929
95.901,15.9986,-0.01602067,0.34086,1.04909
96.601,16.06857,-0.01602585,0.33959,1.04889
97.301,16.13759,-0.01668011,0.33615,1.04868
98.001,16.20686,-0.01668001,0.33791,1.04848
98.701,16.27604,-0.01658581,0.33596,1.04827
99.401,16.34486,-0.01799371,0.33812,1.04807
100.101,16.41318,-0.01666626,0.33519,1.04786
100.801,16.48151,-0.01666681,0.33488,1.04765
101.501,16.5504,-0.01799029,0.33205,1.04744
102.201,16.6192,-0.01799,0.33189,1.04723
102.901,16.688,-0.01800444,0.33103,1.04702
103.601,16.75668,-0.01865063,0.33176,1.04681
104.301,16.82581,-0.01831296,0.32881,1.0466
105.001,16.89445,-0.01963045,0.32837,1.04639
105.701,16.96279,-0.01959207,0.32766,1.04617
106.401,17.0309,-0.02095017,0.32593,1.04596
107.101,17.09955,-0.02025756,0.32612,1.04574
107.801,17.1682,-0.01930013,0.32479,1.04553
108.501,17.23692,-0.01930152,0.32274,1.04531
109.201,17.30527,-0.02072604,0.32345,1.04509
109.901,17.37388,-0.02097442,0.32375,1.04487
110.601,17.44246,-0.02085683,0.32351,1.04465
111.301,17.51101,-0.0207415,0.32236,1.04443
112.001,17.5794,-0.02204998,0.32416,1.04421
112.701,17.64752,-0.02204961,0.32485,1.04399
113.401,17.71594,-0.02302161,0.32448,1.04376
114.101,17.78425,-0.02304,0.32298,1.04354
114.801,17.85241,-0.02304,0.32366,1.04331
115.501,17.92066,-0.02304001,0.32111,1.04309
116.201,17.98894,-0.02336514,0.32171,1.04286
116.901,18.0574,-0.02337,0.32204,1.04263
117.601,18.12569,-0.02338351,0.32265,1.0424
118.301,18.19383,-0.02399371,0.32069,1.04218
119.001,18.26197,-0.02401998,0.32362,1.04194
119.701,18.33011,-0.02408831,0.32388,1.04171
120.401,18.3985,-0.02500999,0.32286,1.04148
121.101,18.46735,-0.02444564,0.32425,1.04125
121.801,18.53593,-0.02468051,0.32421,1.04102
122.501,18.6041,-0.02598674,0.32514,1.04078
123.201,18.67158,-0.026,0.32727,1.04055
123.901,18.73915,-0.026,0.32484,1.04031
124.601,18.80688,-0.0260044,0.32766,1.04007
125.301,18.87446,-0.02534119,0.32789,1.03984
126.001,18.9422,-0.02558826,0.32583,1.0396
126.701,19.01043,-0.02664615,0.32572,1.03936
127.401,19.07919,-0.02764,0.32948,1.03912
128.101,19.14796,-0.02764,0.32806,1.03888
128.801,19.21646,-0.02764,0.32921,1.03864
129.501,19.28462,-0.02764,0.3293,1.03839
130.201,19.3525,-0.02764,0.3299,1.03815
130.901,19.42047,-0.02763996,0.32939,1.03791
131.601,19.48849,-0.02797421,0.33416,1.03766
132.301,19.55631,-0.02797014,0.33312,1.03741
133.001,19.624,-0.02906009,0.33349,1.03717
133.701,19.69173,-0.02895999,0.33257,1.03692
134.401,19.75906,-0.02896,0.33452,1.03667
135.101,19.82674,-0.02896,0.3332,1.03642
135.801,19.89428,-0.02896064,0.33485,1.03617
136.501,19.96251,-0.02924786,0.33548,1.03592
137.201,20.03059,-0.03060018,0.33433,1.03567
137.901,20.0986,-0.03060058,0.33606,1.03542
138.601,20.16615,-0.03191921,0.33461,1.03516
139.301,20.2337,-0.03289407,0.33701,1.03491
140.001,20.3014,-0.03293266,0.33685,1.03466
140.701,20.36919,-0.03159,0.33712,1.0344
141.401,20.43666,-0.03159091,0.33599,1.03414
142.101,20.50403,-0.03289682,0.33963,1.03389
142.801,20.57151,-0.0328935,0.33788,1.03363
143.501,20.63908,-0.03324,0.33932,1.03337
144.201,20.7068,-0.03323996,0.34098,1.03311
144.901,20.7743,-0.03468719,0.33952,1.03285
145.601,20.8417,-0.03409844,0.34,1.03259
146.301,20.9093,-0.03455038,0.3419,1.03233
147.001,20.97695,-0.03587123,0.34348,1.03206
147.701,21.04443,-0.0371831,0.34303,1.0318
148.401,21.1118,-0.03587093,0.34446,1.03153
149.101,21.17915,-0.03587,0.34338,1.03127
149.801,21.2464,-0.03587178,0.34525,1.031
150.501,21.3136,-0.03718816,0.34499,1.03074
151.201,21.38087,-0.03719051,0.34649,1.03047
151.901,21.44824,-0.03850117,0.34745,1.0302
152.601,21.51539,-0.0385,0.34843,1.02993
153.301,21.58276,-0.0385,0.34929,1.02966
154.001,21.6501,-0.03849864,0.34896,1.02939
154.701,21.7176,-0.03981943,0.35052,1.02912
155.401,21.7844,-0.03985438,0.35099,1.02885
156.101,21.85073,-0.03984421,0.353,1.02857
156.801,21.9178,-0.03983602,0.35319,1.0283
157.501,21.98527,-0.0411136,0.35468,1.02802
158.201,22.05334,-0.03982013,0.35484,1.02775
158.901,22.12055,-0.03981806,0.35567,1.02747
159.601,22.18758,-0.04109106,0.3575,1.02719
160.301,22.25467,-0.04168344,0.35785,1.02692
161.001,22.32154,-0.04212006,0.35905,1.02664
161.701,22.38863,-0.04243774,0.35977,1.02636
162.401,22.4555,-0.04375123,0.361,1.02608
163.101,22.52265,-0.04377,0.36297,1.0258
163.801,22.58973,-0.04376945,0.36223,1.02551
164.501,22.65681,-0.04507911,0.3637,1.02523
165.201,22.72371,-0.04503437,0.3655,1.02495
165.901,22.79065,-0.04640017,0.36401,1.02466
166.601,22.8578,-0.04412672,0.36473,1.02438
167.301,22.92484,-0.04411583,0.36348,1.02409
168.001,22.99209,-0.04603202,0.36731,1.02381
168.701,23.05931,-0.04673435,0.36517,1.02352
169.401,23.12669,-0.04881658,0.36678,1.02323
170.101,23.19386,-0.04805401,0.3664,1.02294
170.801,23.26119,-0.04840861,0.36986,1.02265
171.501,23.32838,-0.04838,0.36882,1.02236
172.201,23.39563,-0.04828485,0.36979,1.02207
172.901,23.4626,-0.05109505,0.36889,1.02178
173.601,23.52966,-0.051,0.37015,1.02148
174.301,23.5968,-0.051,0.36984,1.02119
175.001,23.66369,-0.05100153,0.37337,1.0209
175.701,23.73102,-0.0523279,0.37267,1.0206
176.401,23.79809,-0.0536401,0.37258,1.02031
177.101,23.8658,-0.05364,0.3754,1.02001
177.801,23.9332,-0.05364,0.37346,1.01971
178.501,24.00072,-0.05364,0.37532,1.01941
179.201,24.0681,-0.05364,0.37443,1.01912
179.901,24.13489,-0.05366566,0.37527,1.01882
180.601,24.2015,-0.0549499,0.37459,1.01852
181.301,24.26802,-0.05494711,0.37652,1.01821
182.001,24.33543,-0.05557317,0.38074,1.01791
182.701,24.40329,-0.05630435,0.37745,1.01761
183.401,24.4712,-0.05758237,0.37944,1.01731
184.101,24.53875,-0.05629573,0.38171,1.017
184.801,24.60585,-0.05626998,0.38081,1.0167
185.501,24.67306,-0.05622977,0.37933,1.01639
186.201,24.74012,-0.05759412,0.38256,1.01609
186.901,24.8071,-0.0589002,0.38253,1.01578
187.601,24.8739,-0.05889892,0.38347,1.01547
188.301,24.94086,-0.05989319,0.38578,1.01516
189.001,25.00769,-0.05987911,0.38617,1.01485
189.701,25.0747,-0.06088028,0.38744,1.01454
190.401,25.14171,-0.06088,0.38663,1.01423
191.101,25.20864,-0.06087929,0.3876,1.01392
191.801,25.2755,-0.06111132,0.39102,1.01361
192.501,25.34231,-0.06256421,0.3905,1.01329
193.201,25.40924,-0.06186959,0.39085,1.01298
193.901,25.47625,-0.06215217,0.39165,1.01267
194.601,25.54319,-0.06350483,0.39422,1.01235
195.301,25.61015,-0.06482102,0.39414,1.01203
196.001,25.677,-0.06499889,0.39501,1.01172
196.701,25.74381,-0.0651607,0.39658,1.0114
197.401,25.8105,-0.0678035,0.39979,1.01108
198.101,25.87734,-0.06859629,0.3993,1.01076
198.801,25.94429,-0.06914558,0.40157,1.01044
199.501,26.01145,-0.06910299,0.40137,1.01012
200.201,26.0784,-0.06868856,0.40366,1.0098
200.901,26.1456,-0.07024773,0.40374,1.00948
201.601,26.21255,-0.06910166,0.40709,1.00916
202.301,26.27958,-0.07043153,0.40615,1.00883
203.001,26.3464,-0.07172163,0.40676,1.00851
203.701,26.4133,-0.07185061,0.40953,1.00818
204.401,26.4803,-0.0717402,0.40857,1.00786
205.101,26.54709,-0.07308648,0.41017,1.00753
205.801,26.61399,-0.07496127,0.41182,1.00721
206.501,26.68065,-0.07502991,0.41322,1.00688
207.201,26.74703,-0.07593201,0.41405,1.00655
207.901,26.81397,-0.0766699,0.41726,1.00622
208.601,26.88095,-0.0767174,0.41789,1.00589
209.301,26.94854,-0.07699882,0.41765,1.00556
210.001,27.0155,-0.07831281,0.41876,1.00523
210.701,27.0823,-0.07827675,0.42052,1.0049
211.401,27.1492,-0.07963053,0.42308,1.00456
212.101,27.216,-0.08133604,0.42459,1.00423
212.801,27.2828,-0.0816097,0.42776,1.0039
213.501,27.3495,-0.08291981,0.42788,1.00356
214.201,27.41625,-0.08282767,0.42877,1.00323
214.901,27.48312,-0.08572734,0.4307,1.00289
215.601,27.55013,-0.08686998,0.43375,1.00255
216.301,27.61695,-0.08737695,0.43395,1.00221
217.001,27.68383,-0.08910516,0.43413,1.00188
217.701,27.75065,-0.09050472,0.43744,1.00154
218.401,27.81707,-0.09165101,0.4399,1.0012
219.101,27.88358,-0.09080343,0.44142,1.00086
219.801,27.95028,-0.0921918,0.44307,1.00052
220.501,28.0174,-0.09335204,0.44326,1.00017
221.201,28.08455,-0.09585264,0.44616,0.99983
221.901,28.15131,-0.09610403,0.4457,0.99949
222.601,28.218,-0.09741665,0.44891,0.99914
223.301,28.28473,-0.0990306,0.44942,0.9988
224.001,28.3515,-0.10136,0.45236,0.99845
224.701,28.41842,-0.10267,0.45285,0.99811
225.401,28.48525,-0.10267,0.45348,0.99776
226.101,28.5519,-0.10399,0.45109,0.99741
226.801,28.61862,-0.10661,0.45616,0.99707
227.501,28.6854,-0.10792,0.45585,0.99672
228.201,28.7523,-0.10939,0.45536,0.99637
228.901,28.81904,-0.11253,0.45611,0.99602
229.601,28.8859,-0.11326,0.45875,0.99567
230.301,28.95277,-0.11452,0.46062,0.99531
231.001,29.0196,-0.11583,0.46145,0.99496
231.701,29.08652,-0.11713,0.46147,0.99461
232.401,29.1535,-0.11977,0.4633,0.99426
233.101,29.2206,-0.1211,0.46273,0.9939
233.801,29.28763,-0.12241,0.46368,0.99355
234.501,29.3547,-0.12506,0.46573,0.99319
235.201,29.42162,-0.12668,0.46961,0.99283
235.901,29.48866,-0.12932,0.46931,0.99248
236.601,29.55557,-0.13222,0.46887,0.99212
237.301,29.62258,-0.13356,0.46805,0.99176
238.001,29.68941,-0.13592,0.47125,0.9914
238.701,29.7563,-0.13892,0.47247,0.99104
239.401,29.82337,-0.14077,0.47345,0.99068
240.101,29.89044,-0.14328,0.47274,0.99032
240.801,29.9576,-0.14619,0.47428,0.98996
241.501,30.0247,-0.14746,0.47579,0.9896
242.201,30.09187,-0.15045,0.4755,0.98923
242.901,30.15902,-0.15278,0.4746,0.98887
243.601,30.22598,-0.15711,0.47649,0.9885
244.301,30.29293,-0.15954,0.47584,0.98814
245.001,30.35975,-0.16146,0.47623,0.98777
245.701,30.4268,-0.16461,0.47697,0.98741
246.401,30.4939,-0.16763,0.47851,0.98704
247.101,30.561,-0.17036,0.47699,0.98667
247.801,30.62825,-0.172,0.47808,0.9863
248.501,30.69538,-0.17508,0.47673,0.98593
249.201,30.76247,-0.17834,0.48001,0.98556
249.901,30.82922,-0.18142,0.476,0.98519
250.601,30.89622,-0.18433,0.47676,0.98482
251.301,30.96345,-0.18774,0.4793,0.98445
252.001,31.0306,-0.19325,0.47822,0.98408
252.701,31.09773,-0.19512,0.47696,0.98371
253.401,31.16457,-0.1987,0.47779,0.98333
254.101,31.2316,-0.20233,0.48092,0.98296
254.801,31.2985,-0.20523,0.47771,0.98258
255.501,31.36555,-0.20914,0.47974,0.98221
256.201,31.43232,-0.21411,0.48083,0.98183
256.901,31.49938,-0.2174,0.47977,0.98145
257.601,31.5663,-0.22159,0.47744,0.98108
258.301,31.6332,-0.22459,0.47853,0.9807
259.001,31.7001,-0.22872,0.47852,0.98032
259.701,31.76695,-0.23381,0.48012,0.97994
260.401,31.83398,-0.23747,0.48089,0.97956
261.101,31.9009,-0.24157,0.4792,0.97918
261.801,31.96785,-0.24499,0.4802,0.9788
262.501,32.03476,-0.24859,0.47933,0.97841
263.201,32.10171,-0.25182,0.47925,0.97803
263.901,32.16872,-0.25579,0.48065,0.97765
264.601,32.23572,-0.26025,0.47861,0.97726
265.301,32.30259,-0.26442,0.47948,0.97688
266.001,32.36932,-0.26929,0.48026,0.97649
266.701,32.4362,-0.27615,0.48166,0.97611
267.401,32.5032,-0.28083,0.47939,0.97572
268.101,32.57035,-0.28564,0.48076,0.97533
268.801,32.63733,-0.29189,0.47997,0.97495
269.501,32.70426,-0.29561,0.47985,0.97456
270.201,32.77117,-0.2994,0.48018,0.97417
270.901,32.83826,-0.3043,0.47909,0.97378
271.601,32.90498,-0.3104,0.47898,0.97339
272.301,32.9722,-0.31519,0.47782,0.973
273.001,33.0392,-0.32073,0.47699,0.97261
273.701,33.10634,-0.3258,0.47868,0.97221
274.401,33.1732,-0.33275,0.4777,0.97182
275.101,33.24023,-0.33711,0.47701,0.97143
275.801,33.30734,-0.34185,0.47775,0.97103
276.501,33.37442,-0.34702,0.47743,0.97064
277.201,33.44157,-0.35238,0.47777,0.97024
277.901,33.50882,-0.35796,0.47599,0.96985
278.601,33.576,-0.36344,0.47633,0.96945
279.301,33.64315,-0.36993,0.47541,0.96905
280.001,33.71021,-0.37489,0.47712,0.96866
280.701,33.77729,-0.38151,0.47435,0.96826
281.401,33.84433,-0.3875,0.47596,0.96786
282.101,33.91158,-0.3931,0.47487,0.96746
282.801,33.97889,-0.39869,0.474,0.96706
283.501,34.04598,-0.4052,0.47609,0.96666
284.201,34.11293,-0.4122,0.47364,0.96626
284.901,34.17998,-0.41935,0.47008,0.96586
285.601,34.24725,-0.42463,0.47163,0.96545
286.301,34.3143,-0.43181,0.47261,0.96505
287.001,34.38135,-0.43825,0.47099,0.96465
287.701,34.44833,-0.44486,0.4715,0.96424
288.401,34.51548,-0.45295,0.47065,0.96384
289.101,34.58266,-0.45985,0.4695,0.96343
289.801,34.6498,-0.46645,0.46994,0.96302
290.501,34.7168,-0.47303,0.46924,0.96262
291.201,34.78415,-0.4815,0.46984,0.96221
291.901,34.85152,-0.48706,0.47068,0.9618
292.601,34.9187,-0.49551,0.4702,0.96139
293.301,34.98595,-0.5029,0.46807,0.96098
294.001,35.0533,-0.51094,0.47121,0.96057
294.701,35.1205,-0.51884,0.46933,0.96016
295.401,35.18764,-0.52737,0.46843,0.95975
296.101,35.25465,-0.53521,0.4706,0.95934
296.801,35.32189,-0.54321,0.47168,0.95893
297.501,35.38913,-0.55292,0.47214,0.95852
298.201,35.45662,-0.56084,0.47206,0.9581
298.901,35.52402,-0.56983,0.47302,0.95769
299.601,35.59153,-0.57656,0.47242,0.95727
300.301,35.65872,-0.585,0.47375,0.95686
301.001,35.72583,-0.59335,0.47518,0.95644
301.701,35.79312,-0.60398,0.47289,0.95603
302.401,35.8605,-0.61374,0.47627,0.95561
303.101,35.9278,-0.62296,0.47611,0.95519
303.801,35.9953,-0.63237,0.47718,0.95478
304.501,36.06259,-0.64003,0.47867,0.95436
305.201,36.12992,-0.64989,0.48101,0.95394
305.901,36.19719,-0.66105,0.47913,0.95352
306.601,36.26437,-0.67205,0.48319,0.9531
307.301,36.33171,-0.68373,0.48544,0.95268
308.001,36.399,-0.69362,0.48821,0.95226
308.701,36.4664,-0.7041,0.48786,0.95183
309.401,36.53382,-0.71639,0.4907,0.95141
310.101,36.60115,-0.7262,0.49371,0.95099
310.801,36.66851,-0.7374,0.49366,0.95056
311.501,36.73573,-0.74834,0.4953,0.95014
312.201,36.80323,-0.76011,0.49796,0.94971
312.901,36.87081,-0.77276,0.50134,0.94929
313.601,36.93835,-0.78383,0.50386,0.94886
314.301,37.00573,-0.79699,0.50473,0.94844
315.001,37.073,-0.80921,0.50751,0.94801
315.701,37.1402,-0.82171,0.50955,0.94758
316.401,37.2074,-0.8341,0.51185,0.94715
317.101,37.27466,-0.8462,0.51546,0.94672
317.801,37.3421,-0.86109,0.5176,0.9463
318.501,37.40935,-0.87433,0.51963,0.94587
319.201,37.47692,-0.88799,0.52064,0.94543
319.901,37.5444,-0.90119,0.52486,0.945
320.601,37.61195,-0.91427,0.52674,0.94457
321.301,37.67941,-0.93062,0.5306,0.94414
322.001,37.74687,-0.94516,0.53144,0.94371
322.701,37.8144,-0.95697,0.53306,0.94327
323.401,37.8818,-0.97085,0.53694,0.94284
324.101,37.94919,-0.98532,0.54053,0.94241
324.801,38.01644,-0.9991,0.54168,0.94197
325.501,38.08395,-1.01348,0.54433,0.94154
326.201,38.15149,-1.02948,0.54776,0.9411
326.901,38.21917,-1.04553,0.54767,0.94066
327.601,38.28669,-1.05978,0.54976,0.94023
328.301,38.35416,-1.07488,0.55024,0.93979
329.001,38.4216,-1.09206,0.55452,0.93935
329.701,38.48924,-1.10774,0.55608,0.93891
330.401,38.55677,-1.12278,0.56104,0.93847
331.101,38.6243,-1.14151,0.56096,0.93803
331.801,38.69198,-1.15724,0.56335,0.93759
332.501,38.75978,-1.17181,0.56772,0.93715
333.201,38.8275,-1.1887,0.56857,0.93671
333.901,38.89503,-1.20515,0.57143,0.93627
334.601,38.9629,-1.22183,0.57622,0.93583
335.301,39.03062,-1.23941,0.57971,0.93538
336.001,39.09848,-1.25804,0.58181,0.93494
336.701,39.1661,-1.27403,0.58405,0.9345
337.401,39.2337,-1.29052,0.58607,0.93405
338.101,39.30145,-1.30938,0.59211,0.93361
338.801,39.36912,-1.32654,0.59708,0.93316
339.501,39.43697,-1.34338,0.59659,0.93271
340.201,39.5046,-1.36162,0.60249,0.93227
340.901,39.57208,-1.3797,0.60746,0.93182
341.601,39.63962,-1.39877,0.60822,0.93137
342.301,39.7073,-1.41795,0.61629,0.93092
343.001,39.7752,-1.43698,0.61946,0.93048
343.701,39.84308,-1.45532,0.62583,0.93003
344.401,39.91089,-1.47434,0.63049,0.92958
345.101,39.97878,-1.49393,0.63742,0.92913
345.801,40.04656,-1.51376,0.64151,0.92867
346.501,40.1145,-1.53305,0.64803,0.92822
347.201,40.1824,-1.5537,0.65358,0.92777
347.901,40.25036,-1.57356,0.65991,0.92732
348.601,40.31817,-1.5936,0.66697,0.92687
349.301,40.386,-1.61422,0.67444,0.92641
350.001,40.45361,-1.63429,0.68182,0.92596
350.701,40.5216,-1.65536,0.691,0.9255
351.401,40.58912,-1.67786,0.69395,0.92505
352.101,40.65728,-1.69951,0.70218,0.92459
352.801,40.72518,-1.72103,0.71058,0.92414
353.501,40.79367,-1.74352,0.71439,0.92368
354.201,40.8617,-1.76673,0.72377,0.92323
354.901,40.93,-1.78823,0.72909,0.92277
355.601,40.99817,-1.81169,0.73587,0.92231
356.301,41.06651,-1.83444,0.74273,0.92185
357.001,41.13477,-1.85776,0.74922,0.92139
357.701,41.2029,-1.87854,0.7533,0.92093
358.401,41.27087,-1.90338,0.76146,0.92047
359.101,41.3389,-1.9283,0.76683,0.92001
359.801,41.40697,-1.9512,0.77073,0.91955
360.501,41.47505,-1.97568,0.77626,0.91909
361.201,41.54305,-2.00055,0.77979,0.91863
361.901,41.6111,-2.02452,0.77944,0.91817
362.601,41.6792,-2.04883,0.78307,0.9177
363.301,41.74731,-2.07382,0.78467,0.91724
364.001,41.81537,-2.09828,0.78173,0.91678
364.701,41.88342,-2.12329,0.77925,0.91631
365.401,41.9514,-2.1475,0.78186,0.91585
366.101,42.01939,-2.17109,0.77867,0.91538
366.801,42.08726,-2.19407,0.77279,0.91491
367.501,42.15513,-2.21786,0.76449,0.91445
368.201,42.22291,-2.24382,0.75608,0.91398
368.901,42.2911,-2.26654,0.74801,0.91351
369.601,42.35941,-2.29055,0.73744,0.91305
370.301,42.42772,-2.31442,0.7245,0.91258
371.001,42.49585,-2.33895,0.71018,0.91211
371.701,42.564,-2.35932,0.6958,0.91164
372.401,42.63193,-2.38015,0.68041,0.91117
373.101,42.69984,-2.40134,0.65951,0.9107
373.801,42.76761,-2.42229,0.64004,0.91023
374.501,42.8356,-2.44176,0.61429,0.90976
375.201,42.90368,-2.46041,0.59055,0.90929
375.901,42.9718,-2.4781,0.56541,0.90881
376.601,43.03969,-2.49514,0.5418,0.90834
377.301,43.1076,-2.51417,0.51548,0.90787
378.001,43.1754,-2.5308,0.4844,0.9074
378.701,43.24328,-2.54591,0.45834,0.90692
379.401,43.31115,-2.5581,0.4311,0.90645
380.101,43.3789,-2.57111,0.40245,0.90597
380.801,43.44682,-2.5849,0.37256,0.9055
381.501,43.51466,-2.59576,0.3454,0.90502
382.201,43.58269,-2.60585,0.31893,0.90455
382.901,43.65052,-2.61585,0.29165,0.90407
383.601,43.71818,-2.62507,0.2668,0.90359
384.301,43.78587,-2.63436,0.23929,0.90311
385.001,43.8534,-2.64043,0.21837,0.90264
385.701,43.92119,-2.64721,0.19986,0.90216
386.401,43.9891,-2.65397,0.17949,0.90168
387.101,44.0571,-2.65913,0.16282,0.9012
387.801,44.12505,-2.66462,0.1476,0.90072
388.501,44.19291,-2.66881,0.13482,0.90024
389.201,44.26073,-2.67286,0.12403,0.89976
389.901,44.32871,-2.6762,0.11346,0.89928
390.601,44.39654,-2.68035,0.10691,0.89879
391.301,44.46458,-2.68353,0.10023,0.89831
392.001,44.53222,-2.68691,0.09402409,0.89783
392.701,44.6004,-2.68939,0.09221136,0.89735
393.401,44.6684,-2.69224,0.08635764,0.89686
394.101,44.73656,-2.69502,0.08529898,0.89638
394.801,44.80473,-2.6964,0.0801532,0.89589
395.501,44.87285,-2.69994,0.08009046,0.89541
396.201,44.94117,-2.70297,0.07764095,0.89492
396.901,45.00907,-2.70508,0.07369204,0.89444
397.601,45.07669,-2.70832,0.0708053,0.89395
398.301,45.14443,-2.71184,0.07062358,0.89347
399.001,45.21224,-2.71454,0.06644101,0.89298
399.701,45.2806,-2.71576,0.06481996,0.89249
400.401,45.3491,-2.71802,0.06242302,0.892
401.101,45.41805,-2.72086,0.06167655,0.89151
401.801,45.48677,-2.72367,0.05883508,0.89103
402.501,45.55519,-2.72625,0.05838787,0.89054
403.201,45.6234,-2.7276,0.05390307,0.89005
403.901,45.69157,-2.73099,0.05361319,0.88956
404.601,45.75993,-2.73387,0.04991006,0.88907
405.301,45.82837,-2.73462,0.04755378,0.88857
406.001,45.89694,-2.73712,0.04532062,0.88808
406.701,45.9655,-2.7391,0.04333824,0.88759
407.401,46.03376,-2.74147,0.04018435,0.8871
408.101,46.10208,-2.74343,0.03800307,0.88661
408.801,46.17046,-2.74571,0.03649284,0.88611
409.501,46.23904,-2.7472,0.0335303,0.88562
410.201,46.30767,-2.74982,0.03270762,0.88513
410.901,46.37597,-2.75165,0.02810293,0.88463
411.601,46.44451,-2.75489,0.02841618,0.88414
412.301,46.51293,-2.75725,0.02683606,0.88364
413.001,46.5815,-2.75975,0.02524599,0.88315
413.701,46.6501,-2.76133,0.02513343,0.88265
414.401,46.71875,-2.7643,0.02207792,0.88215
415.101,46.78727,-2.76862,0.02275089,0.88166
415.801,46.8557,-2.77037,0.01833224,0.88116
416.501,46.92398,-2.77154,0.01795035,0.88066
417.201,46.99253,-2.77438,0.01610937,0.88016
417.901,47.06095,-2.77756,0.01338003,0.87966
418.601,47.12948,-2.77988,0.0157753,0.87917
419.301,47.1978,-2.78104,0.01063766,0.87867
420.001,47.26619,-2.78287,0.009595751,0.87817
420.701,47.3347,-2.78582,0.006706018,0.87767
421.401,47.40315,-2.78863,0.0051653,0.87717
422.101,47.4718,-2.7901,0.006740671,0.87666
422.801,47.5404,-2.7926,0.002474566,0.87616
423.501,47.60882,-2.79392,0.001787561,0.87566
424.201,47.67742,-2.79658,-0.00148385,0.87516
424.901,47.7459,-2.79778,-0.0017267,0.87466
425.601,47.81472,-2.80076,-0.002140504,0.87415
426.301,47.88333,-2.80382,-0.003089702,0.87365
427.001,47.952,-2.80681,-0.002976199,0.87315
427.701,48.02048,-2.80805,-0.002464011,0.87264
428.401,48.08916,-2.81115,-0.005743585,0.87214
429.101,48.15795,-2.81256,-0.00638501,0.87163
429.801,48.2269,-2.81528,-0.007905321,0.87113
430.501,48.29552,-2.81658,-0.006534595,0.87062
431.201,48.36415,-2.81942,-0.008445863,0.87012
431.901,48.4328,-2.82109,-0.007676217,0.86961
432.601,48.5018,-2.82361,-0.008333734,0.8691
433.301,48.5707,-2.8251,-0.009010956,0.86859
434.001,48.63913,-2.82639,-0.006435944,0.86809
434.701,48.70779,-2.83029,-0.0078124,0.86758
435.401,48.77669,-2.83165,-0.004562984,0.86707
436.101,48.84608,-2.83458,-0.00414593,0.86656
436.801,48.91489,-2.83744,-0.00736595,0.86605
437.501,48.98365,-2.8387,-0.007660345,0.86554
438.201,49.05222,-2.84104,-0.003518222,0.86503
438.901,49.1212,-2.84266,-0.00171308,0.86452
439.601,49.18997,-2.84414,-0.000896822,0.86401
440.301,49.2588,-2.84702,-0.00204067,0.8635
441.001,49.32743,-2.84865,0.001295654,0.86299
441.701,49.39617,-2.85007,0.00228047,0.86248
442.401,49.46488,-2.85147,0.004933921,0.86196
443.101,49.53383,-2.85295,0.007121554,0.86145
443.801,49.60256,-2.85556,0.006826334,0.86094
444.501,49.67129,-2.85828,0.01004749,0.86042
445.201,49.73985,-2.85952,0.01139831,0.85991
445.901,49.80855,-2.86211,0.01185824,0.8594
446.601,49.87743,-2.8634,0.01240922,0.85888
447.301,49.94621,-2.86483,0.01875464,0.85837
448.001,50.01506,-2.8662,0.01938772,0.85785
448.701,50.08398,-2.86883,0.02228405,0.85734
449.401,50.15294,-2.87037,0.02249723,0.85682
450.101,50.22182,-2.87257,0.02539265,0.8563
450.801,50.29037,-2.87434,0.02759462,0.85579
451.501,50.35923,-2.87498,0.03559499,0.85527
452.201,50.42815,-2.87564,0.03467396,0.85475
452.901,50.49713,-2.87825,0.03786614,0.85423
453.601,50.56588,-2.88054,0.04047877,0.85372
454.301,50.63463,-2.88217,0.04371207,0.8532
455.001,50.70342,-2.88375,0.04365186,0.85268
455.701,50.77221,-2.88462,0.0487566,0.85216
456.401,50.84109,-2.88617,0.04756513,0.85164
457.101,50.91005,-2.8882,0.05186576,0.85112
457.801,50.9791,-2.89012,0.05322974,0.8506
458.501,51.04807,-2.89276,0.05920049,0.85008
459.201,51.1171,-2.89407,0.06038525,0.84956
459.901,51.18638,-2.89516,0.06511356,0.84904
460.601,51.25535,-2.89569,0.0690077,0.84851
461.301,51.32448,-2.89759,0.06969528,0.84799
462.001,51.39349,-2.89943,0.06973505,0.84747
462.701,51.46264,-2.89933,0.07110863,0.84695
463.401,51.53175,-2.90065,0.07196823,0.84642
464.101,51.60092,-2.90195,0.07476823,0.8459
464.801,51.6701,-2.90262,0.07424062,0.84538
465.501,51.7393,-2.90395,0.07688761,0.84485
466.201,51.80849,-2.90797,0.07819834,0.84433
466.901,51.87775,-2.90797,0.07744077,0.8438
467.601,51.9469,-2.90923,0.08003981,0.84328
468.301,52.0161,-2.9111,0.08233894,0.84275
469.001,52.08525,-2.91264,0.08318476,0.84223
469.701,52.15455,-2.91251,0.08394863,0.8417
470.401,52.22374,-2.91392,0.08478018,0.84117
471.101,52.29307,-2.91528,0.08693078,0.84065
471.801,52.36229,-2.91672,0.08927448,0.84012
472.501,52.4314,-2.91797,0.09215809,0.83959
473.201,52.49971,-2.91798,0.09190809,0.83906
473.901,52.56827,-2.92033,0.09349717,0.83854
474.601,52.6369,-2.92035,0.09706408,0.83801
475.301,52.70613,-2.92311,0.0992474,0.83748
476.001,52.7752,-2.92402,0.09863302,0.83695
476.701,52.8443,-2.92527,0.10015,0.83642
477.401,52.91353,-2.92533,0.10011,0.83589
478.101,52.9831,-2.92665,0.10137,0.83536
478.801,53.05275,-2.92797,0.10383,0.83483
479.501,53.1223,-2.92927,0.10466,0.8343
480.201,53.1917,-2.92923,0.10346,0.83377
480.901,53.26099,-2.9306,0.10292,0.83324
481.601,53.33045,-2.93191,0.10665,0.8327
482.301,53.39995,-2.93264,0.10791,0.83217
483.001,53.46954,-2.93457,0.10958,0.83164
483.701,53.53884,-2.93455,0.10725,0.83111
484.401,53.6079,-2.93455,0.10909,0.83057
485.101,53.6771,-2.93586,0.11204,0.83004
485.801,53.74649,-2.93718,0.11062,0.82951
486.501,53.81593,-2.93849,0.11159,0.82897
487.201,53.88514,-2.9385,0.11257,0.82844
487.901,53.9545,-2.93982,0.11536,0.8279
488.601,54.02404,-2.94112,0.11476,0.82737
489.301,54.09359,-2.94245,0.11642,0.82683
490.001,54.1632,-2.94376,0.11359,0.8263
490.701,54.2324,-2.94403,0.11975,0.82576
491.401,54.30165,-2.94438,0.12088,0.82523
492.101,54.3707,-2.94573,0.12251,0.82469
492.801,54.43995,-2.94646,0.12225,0.82415
493.501,54.50909,-2.94705,0.12422,0.82362
494.201,54.5783,-2.94927,0.12599,0.82308
494.901,54.6475,-2.94968,0.12808,0.82254
495.601,54.71683,-2.95089,0.13162,0.822
496.301,54.7862,-2.95168,0.13185,0.82146
497.001,54.85547,-2.95242,0.13336,0.82093
497.701,54.9248,-2.95363,0.1355,0.82039
498.401,54.9941,-2.95494,0.13974,0.81985
499.101,55.06329,-2.95627,0.14257,0.81931
499.801,55.13236,-2.95626,0.14099,0.81877
500.501,55.2015,-2.95758,0.14304,0.81823
501.201,55.2707,-2.95889,0.14995,0.81769
501.901,55.33999,-2.95895,0.15034,0.81715
502.601,55.4092,-2.95988,0.15384,0.81661
503.301,55.4785,-2.95958,0.1559,0.81606
504.001,55.5478,-2.9608,0.15559,0.81552
504.701,55.61715,-2.96217,0.15952,0.81498
505.401,55.6865,-2.96383,0.16212,0.81444
506.101,55.7559,-2.96496,0.1622,0.8139
506.801,55.82512,-2.96512,0.16502,0.81335
507.501,55.8945,-2.96645,0.16655,0.81281
508.201,55.96366,-2.96726,0.16666,0.81227
508.901,56.0331,-2.96841,0.16582,0.81172
509.601,56.1024,-2.9687,0.16787,0.81118
510.301,56.17182,-2.96986,0.16627,0.81064
511.001,56.2411,-2.97159,0.16702,0.81009
511.701,56.31029,-2.97228,0.16792,0.80955
512.401,56.3796,-2.97238,0.16762,0.809
513.101,56.4492,-2.9737,0.168,0.80846
513.801,56.51895,-2.9737,0.17003,0.80791
514.501,56.5886,-2.97501,0.16887,0.80736
515.201,56.65797,-2.97501,0.17117,0.80682
515.901,56.7275,-2.97633,0.17343,0.80627
516.601,56.79696,-2.97632,0.1715,0.80573
517.301,56.86645,-2.97765,0.17077,0.80518
518.001,56.93594,-2.97777,0.17281,0.80463
518.701,57.00552,-2.97896,0.17365,0.80408
519.401,57.07506,-2.98027,0.17251,0.80354
520.101,57.1446,-2.98136,0.17363,0.80299
520.801,57.21391,-2.98242,0.17102,0.80244
521.501,57.28315,-2.98291,0.17029,0.80189
522.201,57.3523,-2.98291,0.17128,0.80134
522.901,57.42159,-2.98424,0.16993,0.80079
523.601,57.4913,-2.98432,0.17182,0.80024
524.301,57.56095,-2.98554,0.17224,0.7997
525.001,57.6308,-2.98436,0.17476,0.79915
525.701,57.7005,-2.98565,0.17031,0.7986
526.401,57.77045,-2.98785,0.16988,0.79804
527.101,57.84026,-2.98949,0.17138,0.79749
527.801,57.90995,-2.98908,0.16981,0.79694
528.501,57.97954,-2.9895,0.16976,0.79639
529.201,58.04923,-2.9905,0.17042,0.79584
529.901,58.11883,-2.99092,0.16988,0.79529
530.601,58.18863,-2.99224,0.16569,0.79474
531.301,58.2583,-2.99357,0.16245,0.79419
532.001,58.3286,-2.99352,0.16137,0.79363
532.701,58.3987,-2.99553,0.16012,0.79308
533.401,58.4688,-2.99553,0.15729,0.79253
534.101,58.53836,-2.99685,0.1577,0.79197
534.801,58.60784,-2.99553,0.15519,0.79142
535.501,58.67749,-2.99685,0.15533,0.79087
536.201,58.74726,-2.99704,0.15613,0.79031
536.901,58.8169,-2.9995,0.15586,0.78976
537.601,58.88641,-3.00078,0.1552,0.7892
538.301,58.9559,-2.99981,0.15298,0.78865
539.001,59.0255,-3.00079,0.15402,0.7881
539.701,59.09502,-3.0007,0.15413,0.78754
540.401,59.1646,-3.00277,0.15154,0.78698
541.101,59.2341,-3.00418,0.15074,0.78643
541.801,59.30393,-3.00409,0.1531,0.78587
542.501,59.37353,-3.00541,0.1492,0.78532
543.201,59.44335,-3.0054,0.14867,0.78476
543.901,59.51271,-3.00669,0.14776,0.7842
544.601,59.58251,-3.00765,0.14884,0.78365
545.301,59.65231,-3.00804,0.15015,0.78309
546.001,59.72245,-3.00684,0.14798,0.78253
546.701,59.79234,-3.01017,0.14929,0.78198
547.401,59.86209,-3.01165,0.14969,0.78142
548.101,59.93184,-3.01164,0.15095,0.78086
548.801,60.0015,-3.01099,0.1517,0.7803
549.501,60.0712,-3.01231,0.15249,0.77974
550.201,60.14068,-3.01231,0.15632,0.77919
550.901,60.2101,-3.01363,0.16127,0.77863
551.601,60.2798,-3.013,0.16439,0.77807
552.301,60.3495,-3.01428,0.16397,0.77751
553.001,60.4192,-3.01659,0.16415,0.77695
553.701,60.4888,-3.01538,0.16472,0.77639
554.401,60.5585,-3.01689,0.16585,0.77583
555.101,60.62842,-3.01981,0.16598,0.77527
555.801,60.69809,-3.01845,0.16739,0.77471
556.501,60.7676,-3.01977,0.1657,0.77415
557.201,60.83701,-3.01977,0.1637,0.77359
557.901,60.9069,-3.01977,0.16801,0.77303
558.601,60.97691,-3.01976,0.16815,0.77246
559.301,61.04708,-3.02108,0.1669,0.7719
560.001,61.11695,-3.0224,0.16632,0.77134
560.701,61.1868,-3.02372,0.17023,0.77078
561.401,61.2566,-3.02492,0.16778,0.77022
562.101,61.32642,-3.02503,0.16796,0.76965
562.801,61.3962,-3.02371,0.1648,0.76909
563.501,61.4661,-3.02502,0.16365,0.76853
564.201,61.536,-3.02632,0.16962,0.76797
564.901,61.60579,-3.02647,0.16789,0.7674
565.601,61.67553,-3.02767,0.16431,0.76684
566.301,61.74536,-3.02904,0.1684,0.76628
567.001,61.81508,-3.02766,0.1672,0.76571
567.701,61.8849,-3.02898,0.16604,0.76515
568.401,61.95471,-3.0303,0.16708,0.76458
569.101,62.0248,-3.03029,0.16312,0.76402
569.801,62.09485,-3.03032,0.16503,0.76346
570.501,62.1649,-3.03163,0.16623,0.76289
571.201,62.23495,-3.03095,0.16426,0.76233
571.901,62.3049,-3.03195,0.16576,0.76176
572.601,62.3747,-3.03203,0.16777,0.76119
573.301,62.4445,-3.03452,0.16683,0.76063
574.001,62.5145,-3.03467,0.16569,0.76006
574.701,62.58438,-3.03354,0.1666,0.7595
575.401,62.6543,-3.0346,0.16689,0.75893
576.101,62.7238,-3.03589,0.16481,0.75836
576.801,62.7939,-3.03591,0.1661,0.7578
577.501,62.86408,-3.03721,0.16911,0.75723
578.201,62.9346,-3.03716,0.16543,0.75666
578.901,63.0046,-3.03853,0.16543,0.7561
579.601,63.0746,-3.03853,0.16945,0.75553
580.301,63.14456,-3.03982,0.16962,0.75496
581.001,63.2147,-3.03975,0.16989,0.7544
581.701,63.28485,-3.04116,0.16771,0.75383
582.401,63.35491,-3.04216,0.16998,0.75326
583.101,63.425,-3.04215,0.16791,0.75269
583.801,63.49496,-3.04073,0.16982,0.75212
584.501,63.56521,-3.04214,0.16757,0.75155
585.201,63.6352,-3.04214,0.16989,0.75098
585.901,63.70514,-3.04271,0.1668,0.75042
586.601,63.7749,-3.04346,0.16928,0.74985
587.301,63.8449,-3.04485,0.16897,0.74928
588.001,63.91491,-3.04477,0.17038,0.74871
588.701,63.98474,-3.045,0.17183,0.74814
589.401,64.05445,-3.04511,0.17379,0.74757
590.101,64.1242,-3.04639,0.17356,0.747
590.801,64.19407,-3.04674,0.172,0.74643
591.501,64.26388,-3.04675,0.172,0.74586
592.201,64.33358,-3.04805,0.17327,0.74529
592.901,64.40334,-3.04805,0.17315,0.74472
593.601,64.47324,-3.05071,0.17201,0.74415
594.301,64.5433,-3.05051,0.1715,0.74357
595.001,64.61333,-3.0507,0.17068,0.743
595.701,64.6833,-3.0507,0.17571,0.74243
596.401,64.75328,-3.0507,0.17378,0.74186
597.101,64.82337,-3.05202,0.17094,0.74129
597.801,64.89353,-3.0507,0.17075,0.74072
598.501,64.96343,-3.05108,0.17013,0.74014
599.201,65.03352,-3.052,0.17288,0.73957
599.901,65.10367,-3.05398,0.17083,0.739
600.601,65.1738,-3.05399,0.17002,0.73843
601.301,65.24393,-3.05531,0.17347,0.73785
602.001,65.31411,-3.05531,0.17286,0.73728
602.701,65.38467,-3.05531,0.17275,0.73671
603.401,65.45487,-3.05625,0.17381,0.73614
604.101,65.52525,-3.0579,0.17146,0.73556
604.801,65.5955,-3.05679,0.17338,0.73499
605.501,65.66596,-3.05662,0.17263,0.73441
606.201,65.73618,-3.05662,0.17401,0.73384
606.901,65.80651,-3.05927,0.17251,0.73327
607.601,65.8768,-3.05785,0.17357,0.73269
608.301,65.94713,-3.05926,0.17274,0.73212
609.001,66.0174,-3.05926,0.17062,0.73154
609.701,66.08776,-3.05926,0.17487,0.73097
610.401,66.15805,-3.06057,0.17508,0.73039
611.101,66.2281,-3.06057,0.1724,0.72982
611.801,66.298,-3.06054,0.17428,0.72924
612.501,66.36798,-3.06189,0.17385,0.72867
613.201,66.43814,-3.06189,0.17702,0.72809
613.901,66.50846,-3.06288,0.17472,0.72752
614.601,66.57857,-3.06319,0.17568,0.72694
615.301,66.64887,-3.06383,0.17528,0.72637
616.001,66.71901,-3.06452,0.17704,0.72579
616.701,66.78919,-3.06452,0.17826,0.72522
617.401,66.85931,-3.06452,0.1795,0.72464
618.101,66.9293,-3.06584,0.17885,0.72406
618.801,66.9996,-3.06454,0.18166,0.72349
619.501,67.06964,-3.06583,0.18147,0.72291
620.201,67.14,-3.06717,0.18675,0.72233
620.901,67.21016,-3.06847,0.18327,0.72176
621.601,67.28033,-3.06903,0.18469,0.72118
622.301,67.3505,-3.06916,0.18583,0.7206
623.001,67.42071,-3.06912,0.18073,0.72002
623.701,67.4909,-3.06912,0.18246,0.71945
624.401,67.56106,-3.06911,0.18468,0.71887
625.101,67.63117,-3.06825,0.18336,0.71829
625.801,67.7012,-3.0688,0.18439,0.71771
626.501,67.7714,-3.06997,0.18667,0.71714
627.201,67.84156,-3.07109,0.18808,0.71656
627.901,67.91181,-3.07216,0.18612,0.71598
628.601,67.9821,-3.07188,0.19144,0.7154
629.301,68.05251,-3.07236,0.1887,0.71482
630.001,68.12302,-3.07275,0.18946,0.71425
630.701,68.19324,-3.07276,0.1942,0.71367
631.401,68.2635,-3.07406,0.19093,0.71309
632.101,68.33357,-3.07397,0.19335,0.71251
632.801,68.40391,-3.07505,0.1949,0.71193
633.501,68.4743,-3.07406,0.19387,0.71135
634.201,68.54462,-3.07406,0.19415,0.71077
634.901,68.6148,-3.07573,0.19314,0.71019
635.601,68.68489,-3.0752,0.19538,0.70961
636.301,68.75499,-3.07538,0.19564,0.70903
637.001,68.82506,-3.07594,0.19657,0.70845
637.701,68.89528,-3.07706,0.19807,0.70787
638.401,68.96502,-3.07704,0.19625,0.70729
639.101,69.03536,-3.07834,0.1983,0.70671
639.801,69.10557,-3.07834,0.19984,0.70613
640.501,69.17663,-3.07825,0.19972,0.70555
641.201,69.24718,-3.07835,0.19793,0.70497
641.901,69.3177,-3.08024,0.19946,0.70439
642.601,69.388,-3.081,0.19943,0.70381
643.301,69.45838,-3.07965,0.20049,0.70323
644.001,69.52896,-3.08097,0.20292,0.70265
644.701,69.59947,-3.08097,0.20476,0.70207
645.401,69.66999,-3.08097,0.2065,0.70149
646.101,69.74045,-3.08164,0.20519,0.70091
646.801,69.81076,-3.08229,0.20761,0.70033
647.501,69.88119,-3.08229,0.20926,0.69974
648.201,69.95189,-3.08289,0.21093,0.69916
648.901,70.0228,-3.08229,0.21013,0.69858
649.601,70.09358,-3.08229,0.21287,0.698
650.301,70.16411,-3.0822,0.21368,0.69742
651.001,70.2347,-3.085,0.21728,0.69684
651.701,70.30513,-3.08492,0.21389,0.69625
652.401,70.3758,-3.08351,0.21687,0.69567
653.101,70.4464,-3.08493,0.21823,0.69509
653.801,70.51697,-3.08493,0.22092,0.69451
654.501,70.5875,-3.08623,0.21974,0.69393
655.201,70.65799,-3.08624,0.22001,0.69334
655.901,70.72848,-3.08624,0.22258,0.69276
656.601,70.79887,-3.0872,0.22466,0.69218
657.301,70.86931,-3.08756,0.22703,0.69159
658.001,70.9398,-3.08889,0.22929,0.69101
658.701,71.0102,-3.08886,0.22637,0.69043
659.401,71.0807,-3.08919,0.22852,0.68985
660.101,71.1511,-3.0892,0.23478,0.68926
660.801,71.2217,-3.08821,0.23287,0.68868
661.501,71.2925,-3.08788,0.23588,0.6881
662.201,71.36331,-3.08788,0.23629,0.68751
662.901,71.43401,-3.08892,0.2407,0.68693
663.601,71.50451,-3.0892,0.23994,0.68635
664.301,71.5749,-3.0892,0.24242,0.68576
665.001,71.64534,-3.08854,0.24198,0.68518
665.701,71.7158,-3.08986,0.24567,0.6846
666.401,71.78628,-3.08986,0.24429,0.68401
667.101,71.85672,-3.08986,0.24827,0.68343
667.801,71.92725,-3.08988,0.24882,0.68284
668.501,71.99771,-3.09117,0.25091,0.68226
669.201,72.06814,-3.09249,0.25217,0.68168
669.901,72.13874,-3.09183,0.25559,0.68109
670.601,72.2094,-3.09182,0.25348,0.68051
671.301,72.28,-3.09183,0.25396,0.67992
672.001,72.35032,-3.09183,0.25642,0.67934
672.701,72.42063,-3.09183,0.25976,0.67875
673.401,72.4909,-3.09227,0.25973,0.67817
674.101,72.56126,-3.09381,0.26258,0.67759
674.801,72.6318,-3.09417,0.26623,0.677
675.501,72.70255,-3.09413,0.26502,0.67642
676.201,72.7731,-3.09417,0.26504,0.67583
676.901,72.84363,-3.09414,0.26833,0.67525
677.601,72.91413,-3.09414,0.26941,0.67466
678.301,72.98454,-3.09414,0.26821,0.67408
679.001,73.0549,-3.09543,0.27184,0.67349
679.701,73.12499,-3.09545,0.2711,0.67291
680.401,73.19533,-3.09556,0.27582,0.67232
681.101,73.26595,-3.09545,0.27816,0.67174
681.801,73.33646,-3.09545,0.27894,0.67115
682.501,73.40701,-3.09545,0.2803,0.67057
683.201,73.477,-3.0961,0.28288,0.66998
683.901,73.54763,-3.09746,0.28631,0.66939
684.601,73.61811,-3.09743,0.28825,0.66881
685.301,73.6891,-3.09808,0.28775,0.66822
686.001,73.75959,-3.09742,0.29159,0.66764
686.701,73.8295,-3.09742,0.29351,0.66705
687.401,73.8995,-3.09742,0.28944,0.66647
688.101,73.96964,-3.09742,0.29238,0.66588
688.801,74.04085,-3.09742,0.29366,0.6653
689.501,74.11185,-3.09874,0.29544,0.66471
690.201,74.1829,-3.09874,0.2967,0.66412
690.901,74.25329,-3.09984,0.30208,0.66354
691.601,74.32383,-3.10005,0.3014,0.66295
692.301,74.39435,-3.10003,0.30216,0.66237
693.001,74.46508,-3.0994,0.30176,0.66178
693.701,74.53586,-3.0994,0.30549,0.66119
694.401,74.6066,-3.10072,0.30889,0.66061
695.101,74.67748,-3.10072,0.31261,0.66002
695.801,74.74801,-3.10012,0.31164,0.65943
696.501,74.81857,-3.10006,0.31171,0.65885
697.201,74.889,-3.10006,0.31573,0.65826
697.901,74.95963,-3.10138,0.31669,0.65768
698.601,75.03034,-3.10138,0.31617,0.65709
699.301,75.10112,-3.10138,0.31894,0.6565
700.001,75.172,-3.10138,0.32049,0.65592
700.701,75.2429,-3.10132,0.32411,0.65533
701.401,75.31387,-3.1017,0.32512,0.65474
702.101,75.3845,-3.1017,0.32091,0.65416
702.801,75.4552,-3.1017,0.32447,0.65357
703.501,75.52571,-3.1017,0.32598,0.65298
704.201,75.59634,-3.1017,0.3283,0.6524
704.901,75.66691,-3.10306,0.32876,0.65181
705.601,75.73736,-3.10433,0.3288,0.65122
706.301,75.80793,-3.10269,0.32581,0.65064
707.001,75.8785,-3.10268,0.32995,0.65005
707.701,75.94912,-3.1027,0.33195,0.64946
708.401,76.01979,-3.10335,0.33818,0.64887
709.101,76.09044,-3.10335,0.33694,0.64829
709.801,76.16113,-3.10335,0.33858,0.6477
710.501,76.2317,-3.10445,0.3388,0.64711
711.201,76.3023,-3.10335,0.34044,0.64653
711.901,76.373,-3.10334,0.34051,0.64594
712.601,76.4435,-3.10333,0.34534,0.64535
713.301,76.51406,-3.10419,0.34321,0.64477
714.001,76.58479,-3.10599,0.34698,0.64418
714.701,76.65571,-3.10598,0.35166,0.64359
715.401,76.72674,-3.10594,0.35188,0.643
716.101,76.79768,-3.10598,0.35744,0.64242
716.801,76.8686,-3.10697,0.35726,0.64183
717.501,76.9397,-3.1073,0.35854,0.64124
718.201,77.01084,-3.1073,0.3605,0.64066
718.901,77.0821,-3.1073,0.3608,0.64007
719.601,77.15313,-3.10623,0.35841,0.63948
720.301,77.224,-3.10763,0.36049,0.63889
721.001,77.29488,-3.10623,0.36351,0.63831
721.701,77.3658,-3.1077,0.36121,0.63772
722.401,77.43687,-3.10763,0.36539,0.63713
723.101,77.50757,-3.10763,0.36604,0.63654
723.801,77.5783,-3.1082,0.36559,0.63596
724.501,77.64911,-3.10861,0.3666,0.63537
725.201,77.71998,-3.10992,0.36536,0.63478
725.901,77.79077,-3.10993,0.36689,0.63419
726.601,77.86147,-3.10854,0.37292,0.63361
727.301,77.93226,-3.10862,0.37121,0.63302
728.001,78.00309,-3.10862,0.37486,0.63243
728.701,78.07377,-3.10995,0.37388,0.63185
729.401,78.14437,-3.10993,0.37619,0.63126
730.101,78.2151,-3.11125,0.38007,0.63067
730.801,78.28594,-3.11191,0.37734,0.63008
731.501,78.35685,-3.11126,0.38238,0.6295
732.201,78.42733,-3.11125,0.37892,0.62891
732.901,78.49817,-3.11125,0.37969,0.62832
733.601,78.56916,-3.10993,0.38242,0.62773
734.301,78.6403,-3.10993,0.38014,0.62715
735.001,78.7114,-3.10993,0.38382,0.62656
735.701,78.78228,-3.11092,0.38162,0.62597
736.401,78.85319,-3.1119,0.38314,0.62538
737.101,78.9238,-3.11093,0.38244,0.6248
737.801,78.99457,-3.11092,0.38454,0.62421
738.501,79.06535,-3.11092,0.38885,0.62362
739.201,79.13624,-3.11012,0.3877,0.62304
739.901,79.20696,-3.11124,0.38947,0.62245
740.601,79.27776,-3.11124,0.38789,0.62186
741.301,79.3483,-3.11124,0.38798,0.62127
742.001,79.41932,-3.11256,0.39048,0.62069
742.701,79.4901,-3.11387,0.39406,0.6201
743.401,79.56076,-3.11436,0.39402,0.61951
744.101,79.6314,-3.1152,0.39054,0.61892
744.801,79.70217,-3.11526,0.39885,0.61834
745.501,79.77328,-3.11388,0.39326,0.61775
746.201,79.8443,-3.11484,0.39287,0.61716
746.901,79.9151,-3.11388,0.39333,0.61658
747.601,79.9859,-3.11388,0.39321,0.61599
748.301,80.0566,-3.11388,0.39614,0.6154
749.001,80.12735,-3.11408,0.39833,0.61481
749.701,80.19832,-3.1152,0.39408,0.61423
750.401,80.26932,-3.1152,0.39847,0.61364
751.101,80.3404,-3.11586,0.39983,0.61305
751.801,80.4113,-3.11619,0.40089,0.61247
752.501,80.4824,-3.11619,0.40143,0.61188
753.201,80.55356,-3.11619,0.40147,0.61129
753.901,80.62464,-3.11652,0.40416,0.6107
754.601,80.69566,-3.11668,0.40834,0.61012
755.301,80.7667,-3.11651,0.40574,0.60953
756.001,80.8379,-3.11651,0.40556,0.60894
756.701,80.90897,-3.11651,0.40283,0.60836
757.401,80.97995,-3.11756,0.40753,0.60777
758.101,81.051,-3.11783,0.41175,0.60718
758.801,81.12207,-3.11717,0.41249,0.6066
759.501,81.19329,-3.11717,0.4124,0.60601
760.201,81.2645,-3.1176,0.41624,0.60542
760.901,81.3355,-3.11915,0.4147,0.60484
761.601,81.40642,-3.11905,0.4131,0.60425
762.301,81.477,-3.12013,0.41805,0.60366
763.001,81.54795,-3.11914,0.41668,0.60308
763.701,81.61885,-3.11914,0.41577,0.60249
764.401,81.69012,-3.11946,0.41757,0.6019
765.101,81.76091,-3.11915,0.41751,0.60132
765.801,81.83176,-3.11919,0.41891,0.60073
766.501,81.90267,-3.11947,0.42254,0.60015
767.201,81.9738,-3.11946,0.42232,0.59956
767.901,82.04479,-3.11948,0.42625,0.59897
768.601,82.11583,-3.11948,0.42427,0.59839
769.301,82.18674,-3.11948,0.42481,0.5978
770.001,82.2575,-3.12079,0.42653,0.59721
770.701,82.32848,-3.12112,0.42886,0.59663
771.401,82.39952,-3.12245,0.42441,0.59604
772.101,82.47058,-3.12244,0.41939,0.59546
772.801,82.5416,-3.12245,0.42327,0.59487
773.501,82.6126,-3.12375,0.4222,0.59428
774.201,82.68347,-3.12243,0.42313,0.5937
774.901,82.75438,-3.12242,0.42406,0.59311
775.601,82.82518,-3.12149,0.42302,0.59253
776.301,82.89611,-3.12111,0.42195,0.59194
777.001,82.96673,-3.12111,0.42372,0.59136
777.701,83.03749,-3.1198,0.42439,0.59077
778.401,83.1082,-3.12111,0.42561,0.59018
779.101,83.17902,-3.12309,0.42609,0.5896
779.801,83.24988,-3.12204,0.42251,0.58901
780.501,83.32081,-3.12177,0.42132,0.58843
781.201,83.39155,-3.12177,0.41923,0.58784
781.901,83.4623,-3.12177,0.41612,0.58726
782.601,83.53314,-3.12174,0.4217,0.58667
783.301,83.604,-3.12205,0.42404,0.58609
784.001,83.67494,-3.12342,0.42359,0.5855
784.701,83.74553,-3.12342,0.42422,0.58492
785.401,83.81645,-3.12317,0.4299,0.58433
786.101,83.88739,-3.12375,0.43093,0.58375
786.801,83.95858,-3.12375,0.42578,0.58316
787.501,84.02964,-3.12342,0.42802,0.58258
788.201,84.10072,-3.12342,0.4301,0.58199
788.901,84.17196,-3.12475,0.4352,0.58141
789.601,84.24322,-3.12342,0.43316,0.58082
790.301,84.31461,-3.12401,0.43405,0.58024
791.001,84.3859,-3.1254,0.43508,0.57965
791.701,84.45721,-3.1254,0.43293,0.57907
792.401,84.52796,-3.12439,0.43386,0.57849
793.101,84.5991,-3.12441,0.43472,0.5779
793.801,84.67018,-3.12448,0.43123,0.57732
794.501,84.74173,-3.12574,0.43251,0.57673
795.201,84.81272,-3.12539,0.43468,0.57615
795.901,84.88384,-3.12539,0.43181,0.57556
796.601,84.95506,-3.12539,0.43396,0.57498
797.001,84.9962,-3.12539,0.43735,0.57465