File: 01_Data/R30_Fiberglass_Insulation/Cone/R30_Fiberglass_Insulation_Cone_HF75Scan_220503_R2.csv
Names,Time,Stack TC,Smoke TC,Exh Press,Smoke Comp,Smoke Meas,CO Meter,CO2 Meter,O2 Meter,Sample Mass,Ext Coeff,Start Test,Flame Verif
Chan Gain,,500,500,1,1,1,1,1,1,1,1,1.0,1.0
Offset,,0,0,0.135741,0,0,0,0,0,0,0,0.0,0.0
Gain,,1,1,25.011,14.8585,16.6522,1,1,1,1.00087,1.0138,1.0,1.0
Units,sec,C,C,Pa,%,%,%,%,%,g,/m,,
Baseline,,46.2936,48.0322,131.988,113.361,118.958,0.00070459,0.0484402,21.0027,-4.38701,-0.428512,,
7,1.5,43.3088,45.5747,131.603,113.347,117.719,0.00124551,0.0529148,21.0031,492.407,-0.336501,0.0,0.0
14,3.25,43.45,45.8095,129.044,113.352,120.536,0.00207763,0.0541698,21.0023,492.347,-0.546478,0.0,0.0
21,5,44.263,45.5585,128.971,113.358,118.54,0.00282692,0.0559811,20.9994,492.257,-0.397471,0.0,0.0
28,6.75,44.4916,45.8433,130.415,113.351,119.586,0.00351606,0.0578583,20.9966,492.217,-0.476193,0.0,0.0
35,8.5,44.1638,45.7447,129.598,113.336,119.436,0.00392956,0.0588641,20.9952,492.167,-0.466214,0.0,0.0
42,10.25,45.0158,46.5006,130.118,113.324,120.114,0.00418942,0.0595591,20.9945,492.157,-0.517508,0.0,0.0
49,12,44.448,46.7669,132.258,113.327,120.41,0.00433048,0.0598992,20.9942,492.147,-0.539167,0.0,0.0
56,13.75,45.1606,46.3229,129.737,113.305,119.871,0.00433353,0.0600619,20.994,492.127,-0.500965,0.0,0.0
63,15.5,44.891,46.3656,130.341,113.278,119.166,0.00429351,0.0601148,20.9939,492.097,-0.450654,0.0,0.0
70,17.25,44.8902,46.5238,133.589,113.283,119.519,0.00428385,0.0601847,20.9939,492.097,-0.476543,0.0,0.0
77,19,45.4808,46.9058,133.988,113.269,118.394,0.00424734,0.0602066,20.9939,492.087,-0.393569,0.0,0.0
84,20.75,45.1887,46.9524,132.297,113.273,118.35,0.00406207,0.060115,20.9932,492.036,-0.389892,0.0,0.0
91,22.5,45.3013,47.1615,131.712,113.245,119.552,0.00386606,0.0601681,20.9928,492.056,-0.481956,0.0,0.0
98,24.25,45.1219,47.1873,131.735,113.238,119.046,0.00378562,0.0603632,20.9925,492.046,-0.444833,0.0,0.0
105,26,46.0577,47.6615,133.553,113.254,118.923,0.00383832,0.0603384,20.9924,492.036,-0.434393,0.0,0.0
112,27.75,45.8241,47.0274,130.749,113.228,118.688,0.00396344,0.0604198,20.9924,492.016,-0.418775,0.0,0.0
119,29.5,45.5164,47.2722,128.421,113.226,118.239,0.00405264,0.0607134,20.9924,491.976,-0.385266,0.0,0.0
126,31.25,45.917,47.6487,127.709,113.202,119.461,0.00403537,0.0611552,20.9924,492.036,-0.478606,0.0,0.0
133,33,45.9643,47.1852,130.771,113.209,119.829,0.00402418,0.0616655,20.9923,491.966,-0.505345,0.0,0.0
140,34.75,46.3016,47.4778,130.067,113.198,119.221,0.00407996,0.0622323,20.9911,491.936,-0.461016,0.0,0.0
147,36.5,46.4471,47.6884,128.613,113.192,119.973,0.00417872,0.0625938,20.9906,491.896,-0.517405,0.0,0.0
154,38.25,46.5598,48.2654,131.763,113.173,120.304,0.00415424,0.0626817,20.9903,491.956,-0.543427,0.0,0.0
161,40,46.0494,48.0999,129.099,113.172,120.73,0.00404258,0.0627475,20.9902,491.976,-0.574922,0.0,0.0
168,41.75,46.3201,48.0839,129.436,113.169,118.817,0.00397241,0.0626887,20.9901,491.916,-0.43311,0.0,0.0
175,43.5,46.8111,48.3191,131.922,113.169,118.412,0.00385462,0.06261,20.9897,491.926,-0.402743,0.0,0.0
182,45.25,46.5289,48.282,129.663,113.138,120.221,0.00353792,0.0623803,20.9894,491.896,-0.54001,0.0,0.0
189,47,46.6472,48.3393,130.586,113.131,119.557,0.00315359,0.0618059,20.99,491.886,-0.491312,0.0,0.0
196,48.75,46.6753,48.2635,132.153,113.158,120.683,0.00276706,0.0611211,20.9919,491.896,-0.572509,0.0,0.0
203,50.5,47.1214,48.4318,131.295,113.109,119.74,0.00242776,0.0603732,20.994,491.876,-0.506618,0.0,0.0
210,52.25,47.0975,48.7075,133.327,113.112,118.929,0.00216758,0.0595836,20.995,491.916,-0.445964,0.0,0.0
217,54,47.1283,48.9415,127.787,113.09,119.943,0.00201614,0.0589239,20.9951,491.916,-0.523237,0.0,0.0
224,55.75,47.4972,49.2283,126.962,113.086,119.73,0.00193951,0.0580369,20.9961,491.926,-0.507721,0.0,0.0
231,57.5,47.451,49.3453,129.371,113.083,118.831,0.00188286,0.0572362,20.9968,491.946,-0.440947,0.0,0.0
238,59.25,46.9694,49.5507,128.214,113.082,120.086,0.00177944,0.0566208,20.9973,491.906,-0.534461,0.0,0.0
245,61,47.2074,48.924,132.4,113.078,119.047,0.00166323,0.0558592,20.9987,491.966,-0.457488,0.0,0.0
252,62.75,47.2868,48.7558,132.053,113.065,118.67,0.00155454,0.0549374,20.9992,491.916,-0.43031,0.0,0.0
259,64.5,47.2452,48.5184,133.997,113.06,118.487,0.00140827,0.0540358,20.9997,491.956,-0.416908,0.0,0.0
266,66.25,47.0776,48.6061,129.89,113.071,118.977,0.00131181,0.0533961,21.0016,492.006,-0.45278,0.0,0.0
273,68,46.8697,49.1073,130.647,113.056,118.693,0.00128648,0.0528416,21.0042,491.916,-0.432701,0.0,0.0
280,69.75,46.8606,48.8343,128.023,113.043,119.121,0.00125872,0.0522772,21.0056,491.986,-0.465773,0.0,0.0
287,71.5,47.3014,48.9245,128.298,113.045,119.01,0.0012013,0.0517818,21.0063,491.986,-0.457285,0.0,0.0
294,73.25,46.8091,48.7711,129.987,113.035,119.506,0.00112319,0.05127,21.0066,491.956,-0.495017,0.0,0.0
301,75,47.0561,49.0756,132.141,113.016,120.063,0.00108368,0.0507601,21.0071,491.906,-0.537904,0.0,0.0
308,76.75,47.1202,48.6991,128.71,113,120.264,0.00111438,0.0503649,21.0082,491.946,-0.554006,0.0,0.0
315,78.5,47.2088,48.9952,132.959,113.001,119.274,0.00117213,0.0501181,21.0092,491.946,-0.480432,0.0,0.0
322,80.25,47.2555,49.3058,127.236,112.986,119.799,0.00123559,0.0498154,21.0096,491.916,-0.5207,0.0,0.0
329,82,47.017,49.0425,131.574,112.98,120.076,0.00127043,0.0495337,21.0098,491.936,-0.541662,0.0,0.0
336,83.75,47.0126,48.6911,130.155,112.953,119.206,0.00121133,0.0492088,21.0109,491.926,-0.479172,0.0,0.0
343,85.5,47.0835,49.0764,133.408,112.947,119.482,0.00109136,0.0490706,21.0112,491.916,-0.500163,0.0,0.0
350,87.25,47.0489,48.7407,128.461,112.932,119.143,0.000918894,0.0488793,21.0114,491.886,-0.47615,0.0,0.0
357,89,47.0595,48.5466,130.992,112.918,119.016,0.000779679,0.0486987,21.0111,491.936,-0.467732,0.0,0.0
364,90.75,47.1577,49.0941,130.022,112.932,119.034,0.000689274,0.0485189,21.0105,491.936,-0.467991,0.0,0.0
371,92.5,46.8404,48.9922,130.858,112.906,119.226,0.000629946,0.0483484,21.0097,491.916,-0.484402,0.0,0.0
378,94.25,46.9842,49.0349,129.532,112.911,119.707,0.000596378,0.0482898,21.0086,491.956,-0.519795,0.0,0.0
385,96,47.0273,48.8555,131.251,112.945,118.328,0.000578426,0.0483054,21.0084,491.946,-0.414064,0.0,0.0
392,97.75,47.2376,49.0759,133.92,112.973,119.72,0.000472592,0.048238,21.0084,491.976,-0.515848,0.0,0.0
399,99.5,47.3225,48.974,132.463,112.987,117.859,0.000356726,0.048198,21.0088,491.906,-0.375458,0.0,0.0
406,101.25,47.3962,48.8504,131.348,113.002,119.522,0.000383898,0.0481464,21.0098,491.906,-0.498867,0.0,0.0
413,103,46.9192,49.3571,133.817,113.02,118.536,0.000551742,0.0480608,21.0103,491.936,-0.423747,0.0,0.0
420,104.75,47.2005,48.8284,131.784,113.05,120.005,0.000735506,0.0480343,21.0105,491.926,-0.530972,0.0,0.0
427,106.5,47.0409,48.8959,131.723,113.05,119.147,0.000761588,0.0480825,21.0106,491.886,-0.467063,0.0,0.0
434,108.25,46.8767,48.861,127.766,113.067,120.661,0.000657459,0.0480523,21.0107,491.886,-0.578064,0.0,0.0
441,110,47.4655,48.4494,128.6,113.086,120.718,0.000523564,0.0481498,21.0107,491.876,-0.580833,0.0,0.0
448,111.75,46.7794,48.6066,133.842,113.115,118.643,0.000405792,0.0481621,21.0108,491.896,-0.424369,0.0,0.0
455,113.5,47.2235,48.8663,128.68,113.165,120.494,0.000318071,0.0479205,21.011,491.886,-0.558106,0.0,0.0
462,115.25,47.3404,48.7072,128.381,113.129,119.336,0.000309305,0.0478796,21.011,491.896,-0.474996,0.0,0.0
469,117,46.909,48.9734,131.157,113.146,119.577,0.000397055,0.0479203,21.0106,491.876,-0.491647,0.0,0.0
476,118.75,47.203,48.8472,130.662,113.149,118.75,0.000530621,0.0478919,21.0104,491.886,-0.429653,0.0,0.0
483,120.5,47.3311,48.8966,128.715,113.168,119.627,0.000630902,0.0478617,21.0104,491.886,-0.49364,0.0,0.0
490,122.25,46.9975,48.8734,130.951,113.186,120.046,0.000638444,0.04779,21.0103,491.886,-0.523253,0.0,0.0
497,124,47.7256,48.8133,132.877,113.187,120.4,0.00057961,0.0477672,21.0103,491.876,-0.549419,0.0,0.0
504,125.75,47.4327,49.3466,132.655,113.202,119.134,0.000589268,0.0478984,21.0103,491.856,-0.454247,0.0,0.0
511,127.5,46.1687,48.7692,127.952,113.215,119.818,0.00064145,0.048001,21.0103,491.876,-0.504164,0.0,0.0
518,129.25,47.1618,48.9469,128.958,113.23,119.427,0.00064804,0.0479481,21.0103,491.886,-0.473862,0.0,0.0
525,131,46.9782,49.263,130.424,113.228,120.302,0.000627404,0.0477773,21.0103,491.876,-0.538928,0.0,0.0
532,132.75,47.0721,48.6779,133.385,113.238,118.727,0.000638434,0.047599,21.0103,491.896,-0.420958,0.0,0.0
539,134.5,46.9218,48.682,132.206,113.247,119.794,0.00075062,0.0474755,21.0103,491.886,-0.499789,0.0,0.0
546,136.25,47.3863,49.1977,133.441,113.287,120.966,0.000835544,0.0474862,21.0099,491.856,-0.583228,0.0,0.0
553,138,47.1519,49.2632,129.29,113.275,120.154,0.000859307,0.0474674,21.0106,491.866,-0.524287,0.0,0.0
560,139.75,46.9226,49.2078,131.13,113.289,119.5,0.000841897,0.0473348,21.0109,491.856,-0.474644,0.0,0.0
567,141.5,47.3639,48.7441,129.756,113.298,120.888,0.000745617,0.0472707,21.011,491.896,-0.576691,0.0,0.0
574,143.25,47.5076,49.1055,129.331,113.316,119.017,0.000609492,0.0472618,21.0111,491.886,-0.436508,0.0,0.0
581,145,47.114,49.1455,131.985,113.324,118.945,0.000364194,0.0470737,21.0111,491.886,-0.430474,0.0,0.0
588,146.75,46.8968,49.1896,132.776,113.338,118.874,0.000148034,0.0470061,21.0111,491.876,-0.424123,0.0,0.0
595,148.5,47.1103,49.1121,129.045,113.332,119.862,0.000121321,0.0471135,21.0115,491.876,-0.498151,0.0,0.0
602,150.25,47.4691,49.1502,132.606,113.342,118.849,0.000215406,0.0471405,21.0118,491.846,-0.421937,0.0,0.0
609,152,47.3712,49.1444,129.118,113.362,120.176,0.000282781,0.0470601,21.0119,491.856,-0.519109,0.0,0.0
616,153.75,47.057,49.1301,130.792,113.358,120.111,0.00034813,0.047125,21.012,491.876,-0.514579,0.0,0.0
623,155.5,47.7168,48.7214,126.344,113.349,120.095,0.000431125,0.0471285,21.012,491.876,-0.514121,0.0,0.0
630,157.25,47.1525,49.2417,132.868,113.357,118.839,0.000452428,0.047211,21.012,491.856,-0.419968,0.0,0.0
637,159,47.4015,49.3199,131.415,113.389,119.343,0.00035056,0.0472248,21.0118,491.856,-0.455123,0.0,0.0
644,160.75,47.2537,49.3725,131.172,113.37,119.586,0.000250946,0.0471171,21.0114,491.856,-0.474698,0.0,0.0
651,162.5,47.5579,48.9615,129.781,113.371,119.909,0.000305929,0.0471829,21.0113,491.856,-0.498669,0.0,0.0
658,164.25,47.6941,49.1393,129.494,113.366,120.284,0.000439872,0.0471857,21.0112,491.856,-0.526759,0.0,0.0
665,166,47.149,49.3302,130.899,113.37,118.69,0.000527204,0.0471596,21.0112,491.866,-0.407786,0.0,0.0
672,167.75,47.5497,49.1285,133.526,113.378,120.708,0.000508525,0.0470848,21.0111,491.856,-0.557114,0.0,0.0
679,169.5,47.2631,48.8524,130.168,113.378,120.215,0.000430628,0.0470254,21.0107,491.876,-0.520722,0.0,0.0
686,171.25,47.5951,48.8044,130.628,113.366,120.808,0.000417111,0.0471082,21.0105,491.836,-0.565445,0.0,0.0
693,173,47.2569,49.2185,132.99,113.386,120.609,0.000469438,0.0472532,21.0093,491.866,-0.549241,0.0,0.0
700,174.75,47.1723,49.4202,130.538,113.388,119.598,0.000525031,0.0473165,21.0094,491.856,-0.474183,0.0,0.0
707,176.5,47.1099,48.9754,129.428,113.373,119.436,0.000577533,0.0472342,21.0098,491.846,-0.463294,0.0,0.0
714,178.25,47.2574,49.4815,131.762,113.375,120.69,0.000637252,0.0470418,21.0101,491.866,-0.556088,0.0,0.0
721,180,47.4951,49.2147,128.907,113.369,119.936,0.000731527,0.0470785,21.0107,491.846,-0.500772,0.0,0.0
728,181.75,47.1025,49.229,132.292,113.374,119.275,0.00081818,0.0471116,21.0109,491.876,-0.451223,0.0,0.0
735,183.5,47.5989,49.2487,132.463,113.378,119.492,0.000823208,0.0471907,21.011,491.856,-0.467103,0.0,0.0
742,185.25,47.0147,49.1592,127.943,113.377,120.485,0.000756233,0.0472647,21.0111,491.866,-0.540733,0.0,0.0
749,187,47.3093,49.1182,131.641,113.365,119.931,0.000728812,0.0472987,21.0111,491.866,-0.500716,0.0,0.0
756,188.75,47.3788,49.4056,131.512,113.366,120.172,0.000746734,0.0472513,21.0111,491.866,-0.518415,0.0,0.0
763,190.5,47.0559,48.7243,132.595,113.39,120.584,0.000702062,0.0471216,21.0107,491.896,-0.547013,0.0,0.0
770,192.25,47.4564,49.0012,130.983,113.362,120.163,0.000602755,0.0470876,21.0105,491.846,-0.518095,0.0,0.0
777,194,47.0913,48.9138,129.148,113.363,119.427,0.000570404,0.0469679,21.0104,491.876,-0.46336,0.0,0.0
784,195.75,47.152,49.3954,128.929,113.364,119.787,0.000588917,0.0469602,21.0103,491.876,-0.490152,0.0,0.0
791,197.5,47.4404,49.3291,128.822,113.356,119.624,0.000593162,0.0469346,21.0103,491.866,-0.478602,0.0,0.0
798,199.25,47.2747,49.0613,130.433,113.358,119.167,0.000549384,0.0469519,21.0103,491.856,-0.444429,0.0,0.0
805,201,47.4811,49.5713,130.715,113.345,119.283,0.000497019,0.0470229,21.0103,491.876,-0.454106,0.0,0.0
812,202.75,47.2963,49.4832,128.974,113.351,120.722,0.000498887,0.0471251,21.0103,491.856,-0.560333,0.0,0.0
819,204.5,47.2427,49.2,128.972,113.351,120.135,0.000522882,0.0470888,21.0109,491.836,-0.516916,0.0,0.0
826,206.25,47.2185,49.321,132.6,113.356,118.444,0.000516637,0.0470633,21.0122,491.866,-0.390515,0.0,0.0
833,208,47.6986,49.624,132.301,113.34,120.262,0.000468721,0.0471188,21.0121,491.866,-0.527205,0.0,0.0
840,209.75,47.6903,49.3415,130.014,113.342,119.45,0.00043437,0.0470939,21.0117,491.876,-0.466773,0.0,0.0
847,211.5,47.7254,49.7219,130.931,113.331,119.471,0.00041886,0.0471154,21.0119,491.876,-0.469213,0.0,0.0
854,213.25,47.8228,48.9355,130.66,113.333,118.849,0.000398886,0.0470348,21.0126,491.876,-0.422616,0.0,0.0
861,215,47.6636,49.4735,131.112,113.334,119.413,0.000438122,0.0468538,21.0135,491.876,-0.464689,0.0,0.0
868,216.75,47.4759,49.6181,130.139,113.311,119.103,0.000491149,0.0469313,21.0139,491.876,-0.443388,0.0,0.0
875,218.5,47.4457,49.4753,132.4,113.322,119.06,0.000496476,0.0469983,21.0141,491.856,-0.439234,0.0,0.0
882,220.25,47.3678,49.6198,131.734,113.321,119.709,0.000468266,0.0468796,21.0142,491.856,-0.487719,0.0,0.0
889,222,46.8043,49.3659,133.539,113.329,118.907,0.00043895,0.0468019,21.0138,491.846,-0.427306,0.0,0.0
896,223.75,47.7564,50.0509,132.833,113.314,119.188,0.000455548,0.0468371,21.0136,491.856,-0.449473,0.0,0.0
903,225.5,47.4538,49.5708,130.356,113.318,120.805,0.000541425,0.0468596,21.0135,491.856,-0.568957,0.0,0.0
910,227.25,47.9835,49.4313,132.869,113.327,120.088,0.0006762,0.0468989,21.0129,491.846,-0.515305,0.0,0.0
917,229,47.245,49.2793,126.954,113.323,119.763,0.000787898,0.0467923,21.0123,491.876,-0.491545,0.0,0.0
924,230.75,47.6024,49.393,130.705,113.334,119.961,0.000804715,0.0468686,21.0121,491.826,-0.505394,0.0,0.0
931,232.5,47.5122,49.0123,128.919,113.316,118.853,0.000687822,0.0468865,21.0123,491.836,-0.424308,0.0,0.0
938,234.25,47.4845,49.3687,133.877,113.328,119.388,0.000439172,0.046947,21.0125,491.836,-0.463259,0.0,0.0
945,236,47.6094,49.2623,134.256,113.305,118.928,0.000309066,0.0468598,21.0126,491.816,-0.430714,0.0,0.0
952,237.75,47.3867,49.5483,131.752,113.312,121.38,0.000279425,0.0468805,21.0117,491.856,-0.611667,0.0,0.0
959,239.5,47.5774,49.5948,130.437,113.302,119.059,0.00029222,0.0469703,21.011,491.846,-0.440798,0.0,0.0
966,241.25,47.5379,49.5362,132.212,113.308,119.44,0.000307337,0.0469529,21.0106,491.826,-0.468687,0.0,0.0
973,243,47.2919,49.7709,130.999,113.308,119.193,0.00032975,0.0470228,21.01,491.826,-0.450313,0.0,0.0
980,244.75,47.4879,49.3099,129.048,113.311,119.264,0.000399498,0.0470613,21.0098,491.866,-0.455334,0.0,0.0
987,246.5,48.0085,49.311,132.176,113.308,119.811,0.000569443,0.0469851,21.0096,491.856,-0.496266,0.0,0.0
994,248.25,47.4772,49.5899,128.749,113.304,119.132,0.00066218,0.0469342,21.0096,491.886,-0.446049,0.0,0.0
1001,250,47.2734,49.3552,130.174,113.302,119.683,0.000616363,0.046962,21.0101,491.856,-0.487215,0.0,0.0
1008,251.75,47.6043,49.521,129.883,113.315,120.413,0.000588502,0.0469865,21.0108,491.846,-0.540319,0.0,0.0
1015,253.5,47.9405,49.4298,128.647,113.301,119.567,0.000591455,0.0470076,21.0115,491.856,-0.478711,0.0,0.0
1022,255.25,47.0995,49.5716,128.93,113.29,118.879,0.000591897,0.0470026,21.0119,491.866,-0.428202,0.0,0.0
1029,257,47.6902,49.5668,131.534,113.287,119.022,0.000597706,0.0470537,21.0121,491.866,-0.439165,0.0,0.0
1036,258.75,47.9121,49.3482,130.896,113.298,119.799,0.000586719,0.047029,21.0122,491.836,-0.496176,0.0,0.0
1043,260.5,47.3722,49.6808,133.705,113.296,118.779,0.000532774,0.0469768,21.0115,491.846,-0.420285,0.0,0.0
1050,262.25,47.159,49.7021,131.965,113.287,119.716,0.000429076,0.0469742,21.0117,491.836,-0.490917,0.0,0.0
1057,264,47.2177,49.1468,128.438,113.28,119.497,0.00034462,0.0470225,21.0116,491.836,-0.475093,0.0,0.0
1064,265.75,47.6043,49.4558,128.763,113.294,120.707,0.000311923,0.0470591,21.0107,491.826,-0.563658,0.0,0.0
1071,267.5,47.3107,49.3509,129.575,113.298,120.065,0.000332283,0.0470062,21.0111,491.816,-0.515922,0.0,0.0
1078,269.25,47.0297,49.2097,128.065,113.28,118.681,0.000394507,0.0468595,21.0113,491.856,-0.414181,0.0,0.0
1085,271,47.4335,49.358,132.911,113.28,120.403,0.000505179,0.0468318,21.0114,491.816,-0.542308,0.0,0.0
1092,272.75,47.8097,49.8713,129.672,113.281,119.357,0.000562853,0.0469147,21.0113,491.856,-0.464653,0.0,0.0
1099,274.5,46.9021,49.1596,131.676,113.269,119.663,0.00057557,0.0469424,21.0111,491.846,-0.488414,0.0,0.0
1106,276.25,47.4857,49.4456,135.232,113.287,119.542,0.000566973,0.0468427,21.0109,491.846,-0.477923,0.0,0.0
1113,278,47.5377,49.4887,129.899,113.272,120.313,0.000480448,0.0469471,21.0109,491.836,-0.536301,0.0,0.0
1120,279.75,47.2536,49.6156,128.992,113.277,119.531,0.000414216,0.0470151,21.0108,491.846,-0.477949,0.0,0.0
1127,281.5,47.3685,49.5494,131.876,113.281,118.848,0.000444005,0.0470851,21.0108,491.876,-0.426631,0.0,0.0
1134,283.25,47.4124,49.8275,129.741,113.294,120.798,0.000469326,0.0471203,21.0108,491.846,-0.570319,0.0,0.0
1141,285,47.3698,49.2009,134.491,113.264,118.952,0.000428232,0.0472115,21.0109,491.806,-0.435742,0.0,0.0
1148,286.75,47.5244,49.382,131.425,113.246,118.97,0.000363677,0.0471945,21.0113,491.856,-0.438532,0.0,0.0
1155,288.5,47.1508,49.4524,134.828,113.249,118.227,0.000295975,0.0471198,21.0115,491.826,-0.382535,0.0,0.0
1162,290.25,47.2711,49.6154,132.686,113.246,118.727,0.000257044,0.0470665,21.0116,491.826,-0.420282,0.0,0.0
1169,292,47.8361,49.3968,128.298,113.256,120.311,0.0002256,0.0471089,21.0116,491.826,-0.537399,0.0,0.0
1176,293.75,47.3576,49.3281,133.007,113.239,118.94,0.000265762,0.0471654,21.0116,491.826,-0.43686,0.0,0.0
1183,295.5,47.6546,49.6174,132.209,113.227,119.079,0.000382277,0.0471201,21.0116,491.856,-0.448152,0.0,0.0
1190,297.25,47.4723,50.0046,131.348,113.227,118.867,0.00057042,0.047169,21.0119,491.846,-0.432312,0.0,0.0
1197,299,47.7079,49.374,132.563,113.226,119.806,0.000634661,0.0471951,21.012,491.846,-0.502368,0.0,0.0
1204,300.75,46.9805,49.5862,129.895,113.211,120.483,0.000611198,0.0471659,21.012,491.836,-0.553612,0.0,0.0
1211,302.5,47.4746,49.4523,130.017,113.194,118.99,0.00051478,0.0471878,21.0121,491.836,-0.444072,0.0,0.0
1218,304.25,47.1605,49.5405,131.8,113.195,118.58,0.000411285,0.0471256,21.0121,491.846,-0.413334,0.0,0.0
1225,306,47.6765,48.874,131.673,113.191,118.58,0.000398147,0.0471844,21.0108,491.816,-0.413583,0.0,0.0
1232,307.75,47.4233,49.0126,132.057,113.187,118.757,0.000468345,0.0473234,21.0098,491.826,-0.42723,0.0,0.0
1239,309.5,47.1897,49.7119,129.792,113.166,119.844,0.000510847,0.0473178,21.0094,491.826,-0.509897,0.0,0.0
1246,311.25,47.2215,49.8548,132.005,113.165,118.899,0.000488169,0.0473979,21.0091,491.836,-0.43955,0.0,0.0
1253,313,47.0737,49.4271,131.836,113.154,120.342,0.000397178,0.0475013,21.0098,491.826,-0.547705,0.0,0.0
1260,314.75,47.4064,49.4671,131.87,113.142,119.475,0.00030941,0.0474786,21.0106,491.826,-0.484368,0.0,0.0
1267,316.5,47.2203,49.3378,130.603,113.12,118.495,0.000347302,0.0475511,21.0104,491.836,-0.412774,0.0,0.0
1274,318.25,47.4764,49.3741,131.747,113.109,118.517,0.000421799,0.0474864,21.0109,491.826,-0.41538,0.0,0.0
1281,320,47.5328,49.8292,128.94,113.089,120.146,0.000466073,0.0473657,21.0113,491.836,-0.538365,0.0,0.0
1288,321.75,47.4761,49.4864,131.373,113.107,118.965,0.000502499,0.0473759,21.0133,491.826,-0.449089,0.0,0.0
1295,323.5,47.8028,49.829,134.678,113.079,119.103,0.000578439,0.0473991,21.0142,491.846,-0.461592,0.0,0.0
1302,325.25,47.6309,49.3964,128.347,113.067,118.157,0.00060766,0.0474499,21.0147,491.866,-0.391582,0.0,0.0
1309,327,47.3283,49.5019,130.734,113.081,120.172,0.000519696,0.0473889,21.0148,491.846,-0.540854,0.0,0.0
1316,328.75,47.6754,49.4306,128.12,113.048,119.53,0.000405928,0.0474087,21.0145,491.816,-0.495869,0.0,0.0
1323,330.5,47.5932,49.4625,129.945,113.033,119.682,0.00035059,0.0473104,21.0143,491.806,-0.508344,0.0,0.0
1330,332.25,47.6894,49.3362,131.531,113.022,118.128,0.000358778,0.0472823,21.0143,491.826,-0.392936,0.0,0.0
1337,334,47.4415,49.5854,137.019,112.997,120.091,0.000367301,0.0473502,21.0136,491.846,-0.541508,0.0,0.0
1344,335.75,47.6339,49.6455,131.739,112.983,120.205,0.000371723,0.0473847,21.0127,491.836,-0.55104,0.0,0.0
1351,337.5,47.3527,49.3825,129.379,112.994,120.686,0.000386495,0.0474518,21.0123,491.806,-0.585679,0.0,0.0
1358,339.25,47.07,49.2693,130.634,112.957,119.866,0.0004032,0.0474886,21.0121,491.846,-0.527924,0.0,0.0
1365,341,47.4911,49.2968,132.009,112.952,118.893,0.000391311,0.0474805,21.012,491.856,-0.455862,0.0,0.0
1372,342.75,47.0411,49.411,128.763,112.943,119.555,0.00032312,0.0474227,21.0118,491.836,-0.505891,0.0,0.0
1379,344.5,47.2652,49.8496,133.934,112.937,118.897,0.00028033,0.0474524,21.0116,491.846,-0.457342,0.0,0.0
1386,346.25,47.2674,49.3892,132.53,112.925,119.319,0.000353275,0.0475137,21.0115,491.836,-0.489798,0.0,0.0
1393,348,47.4534,49.3971,128.213,112.899,119.65,0.000419299,0.0475311,21.0117,491.826,-0.516493,0.0,0.0
1400,349.75,46.5248,49.6918,132.289,112.911,118.606,0.000464641,0.0476235,21.012,491.826,-0.437571,0.0,0.0
1407,351.5,47.7555,49.2985,130.507,112.933,119.831,0.000509354,0.0475161,21.0122,491.836,-0.527215,0.0,0.0
1414,353.25,47.9758,49.726,130.873,112.923,119.48,0.000541093,0.0474692,21.0122,491.826,-0.501975,0.0,0.0
1421,355,47.7423,49.6041,129.205,112.919,119.217,0.000585239,0.0475667,21.0123,491.846,-0.482684,0.0,0.0
1428,356.75,47.4649,49.3967,133.328,112.924,118.672,0.000602861,0.047629,21.0123,491.826,-0.441526,0.0,0.0
1435,358.5,47.4683,49.2964,127.292,112.922,118.405,0.000623467,0.0476875,21.0123,491.846,-0.421612,0.0,0.0
1442,360.25,47.1315,49.6051,133.822,112.945,119.125,0.000621863,0.0476396,21.0123,491.856,-0.473747,0.0,0.0
1449,362,47.3048,49.618,131.128,112.974,118.131,0.000584274,0.0476315,21.0123,491.826,-0.39691,0.0,0.0
1456,363.75,47.6354,49.2734,131.805,112.939,117.972,0.000536497,0.0476502,21.0123,491.826,-0.387714,0.0,0.0
1463,365.5,47.5439,49.4607,129.786,112.947,119.027,0.00055175,0.0476351,21.0123,491.806,-0.466282,0.0,0.0
1470,367.25,47.8676,49.6877,130.634,112.961,119.685,0.000590953,0.0475903,21.0112,491.846,-0.514244,0.0,0.0
1477,369,47.7983,49.9387,132.086,112.97,118.803,0.000552823,0.0476441,21.0104,491.836,-0.447736,0.0,0.0
1484,370.75,47.6261,49.4331,129.05,112.981,118.501,0.000435822,0.0476979,21.0096,491.846,-0.42422,0.0,0.0
1491,372.5,47.3839,49.7326,132.848,112.985,119.167,0.000324909,0.0476126,21.0093,491.846,-0.473718,0.0,0.0
1498,374.25,47.732,49.0614,135.723,113.001,119.383,0.00027036,0.0474584,21.0091,491.846,-0.488575,0.0,0.0
1505,376,47.2092,49.4675,130.663,113.01,119.793,0.000285436,0.0474155,21.009,491.816,-0.518391,0.0,0.0
1512,377.75,47.5059,49.1367,129.794,113.01,119.491,0.00033987,0.0475042,21.0102,491.826,-0.49588,0.0,0.0
1519,379.5,47.4975,49.5657,131.334,113.016,119.195,0.000314744,0.0476009,21.0111,491.846,-0.473415,0.0,0.0
1526,381.25,47.7092,48.9171,130.045,113.046,118.122,0.000216649,0.0475367,21.0104,491.826,-0.390621,0.0,0.0
1533,383,47.6691,49.4642,127.86,113.031,119.086,0.000158492,0.0475209,21.0101,491.816,-0.464009,0.0,0.0
1540,384.75,47.5676,49.3525,132.576,113.047,119.345,0.000189923,0.0475108,21.0107,491.846,-0.482093,0.0,0.0
1547,386.5,47.8794,49.5438,133.144,113.046,118.855,0.000248996,0.0475076,21.0114,491.836,-0.445585,0.0,0.0
1554,388.25,47.6174,49.718,128.908,113.061,119.284,0.000273375,0.0475173,21.0112,491.856,-0.476481,0.0,0.0
1561,390,47.6992,49.6812,130.063,113.066,118.269,0.000282244,0.0474586,21.0101,491.836,-0.400105,0.0,0.0
1568,391.75,47.7409,49.2261,131.905,113.093,119.433,0.000267505,0.0473964,21.0096,491.826,-0.48504,0.0,0.0
1575,393.5,47.8658,49.4887,133.048,113.075,118.65,0.000264464,0.0475129,21.0094,491.796,-0.427928,0.0,0.0
1582,395.25,47.4555,49.5831,129.861,113.082,119.212,0.000321498,0.0475322,21.0099,491.806,-0.469456,0.0,0.0
1589,397,47.6323,49.8115,134.911,113.113,118.466,0.000420611,0.0474808,21.0107,491.816,-0.41117,0.0,0.0
1596,398.75,48.0441,49.6091,132.112,113.106,118.241,0.000451948,0.0473644,21.0111,491.826,-0.394827,0.0,0.0
1603,400.5,48.0688,49.426,126.74,113.112,119.946,0.000354301,0.0472429,21.0113,491.836,-0.521716,0.0,0.0
1610,402.25,47.3297,49.8356,131.788,113.118,119.367,0.000244822,0.0472535,21.0114,491.846,-0.478161,0.0,0.0
1617,404,47.4277,49.3078,131.394,113.147,118.985,0.0002509,0.0474058,21.0118,491.826,-0.447437,0.0,0.0
1624,405.75,47.5327,49.9479,127.61,113.139,119.577,0.000387475,0.0473813,21.012,491.826,-0.492144,0.0,0.0
1631,407.5,48.0285,49.7565,132.917,113.155,119.04,0.000520449,0.0474449,21.0117,491.826,-0.450894,0.0,0.0
1638,409.25,47.6617,49.0506,129.803,113.151,119.761,0.000590996,0.0474178,21.0116,491.836,-0.504889,0.0,0.0
1645,411,47.6302,49.3616,132.421,113.162,120.531,0.000626874,0.0474359,21.0117,491.836,-0.560984,0.0,0.0
1652,412.75,47.4826,49.6309,130.259,113.195,119.34,0.000613248,0.0474573,21.0127,491.796,-0.470094,0.0,0.0
1659,414.5,47.1049,49.955,128.243,113.205,120.378,0.000586001,0.0474971,21.013,491.816,-0.546342,0.0,0.0
1666,416.25,47.5706,49.5349,130.404,113.187,118.863,0.000546739,0.0474592,21.0132,491.826,-0.435107,0.0,0.0
1673,418,47.4415,49.9367,132.01,113.19,118.931,0.000496976,0.0474523,21.0127,491.806,-0.439985,0.0,0.0
1680,419.75,47.7159,49.8416,131.094,113.196,118.808,0.000510042,0.0475586,21.0119,491.806,-0.430287,0.0,0.0
1687,421.5,47.906,49.3703,132.309,113.215,118.569,0.000537263,0.0475913,21.0115,491.786,-0.410893,0.0,0.0
1694,423.25,47.1558,50.0147,130.863,113.217,119.493,0.000567591,0.0476642,21.0113,491.806,-0.479813,0.0,0.0
1701,425,48.1171,49.4625,133.611,113.232,120.339,0.000560989,0.0477172,21.0118,491.796,-0.541314,0.0,0.0
1708,426.75,47.574,49.6169,133.538,113.235,119.431,0.000486771,0.0476838,21.0126,491.816,-0.473771,0.0,0.0
1715,428.5,47.7775,49.9461,128.91,113.227,120.286,0.000405478,0.0476136,21.013,491.816,-0.537837,0.0,0.0
1722,430.25,48.3025,49.842,132.885,113.25,119.55,0.000351441,0.0476734,21.0132,491.806,-0.481375,0.0,0.0
1729,432,47.9579,49.2115,129.194,113.242,119.22,0.000315222,0.0477249,21.0132,491.816,-0.457486,0.0,0.0
1736,433.75,47.7492,49.8243,127.788,113.24,120.391,0.000312076,0.0477437,21.0128,491.796,-0.544576,0.0,0.0
1743,435.5,47.7287,49.5772,132.812,113.254,119.648,0.000262217,0.0476859,21.0123,491.816,-0.488386,0.0,0.0
1750,437.25,48.1474,49.7521,131.205,113.27,119.91,0.000229583,0.0477848,21.0118,491.836,-0.50657,0.0,0.0
1757,439,47.8739,49.9829,129.829,113.272,120.1,0.000299332,0.0478738,21.0112,491.806,-0.520586,0.0,0.0
1764,440.75,48.0705,49.7064,132.153,113.272,118.517,0.000432064,0.0478907,21.0109,491.826,-0.402591,0.0,0.0
1771,442.5,47.6703,49.5706,131.245,113.28,119.181,0.000476447,0.0478396,21.0105,491.826,-0.451573,0.0,0.0
1778,444.25,47.4694,49.5288,130.015,113.3,119.533,0.000424977,0.0479703,21.0106,491.806,-0.476249,0.0,0.0
1785,446,47.5693,49.8582,132.48,113.317,119.802,0.000327158,0.0479264,21.0106,491.826,-0.494874,0.0,0.0
1792,447.75,47.5919,50.0127,127.939,113.316,119.714,0.00031085,0.0478621,21.0106,491.836,-0.488454,0.0,0.0
1799,449.5,47.7633,49.1832,130.136,113.327,118.913,0.000410325,0.0478084,21.0106,491.846,-0.427904,0.0,0.0
1806,451.25,47.5863,49.5121,129.387,113.347,119.739,0.000475593,0.0477681,21.0106,491.846,-0.48781,0.0,0.0
1813,453,47.8742,49.6929,133.646,113.361,119.729,0.00046114,0.0478144,21.0109,491.846,-0.486063,0.0,0.0
1820,454.75,47.7608,49.9664,132.444,113.373,119.569,0.00038998,0.0478643,21.0113,491.846,-0.473167,0.0,0.0
1827,456.5,47.6623,49.5049,130.119,113.379,119.27,0.00031897,0.0478525,21.0105,491.846,-0.450453,0.0,0.0
1834,458.25,47.9371,49.5807,129.468,113.396,119.519,0.000218482,0.0478972,21.0098,491.846,-0.467684,0.0,0.0
1841,460,47.9882,50.0068,131.746,113.419,119.886,0.000179235,0.0478265,21.0093,491.836,-0.493167,0.0,0.0
1848,461.75,47.8889,49.3888,131.372,113.42,119.648,0.000199074,0.0476813,21.009,491.836,-0.475325,0.0,0.0
1855,463.5,47.9228,49.4285,131.189,113.425,119.003,0.000235829,0.047648,21.0091,491.826,-0.426873,0.0,0.0
1862,465.25,47.8789,49.6323,129.486,113.433,120.389,0.000300042,0.0476722,21.0094,491.846,-0.529269,0.0,0.0
1869,467,47.6135,49.5628,133.18,113.46,119.984,0.000386251,0.0476698,21.0095,491.796,-0.497165,0.0,0.0
1876,468.75,47.5902,49.8078,131.446,113.481,120.184,0.000453334,0.0475692,21.0096,491.826,-0.51036,0.0,0.0
1883,470.5,47.7281,49.6863,131.844,113.488,120.167,0.000470528,0.0475549,21.0096,491.826,-0.508622,0.0,0.0
1890,472.25,47.4671,49.35,129.258,113.495,121.05,0.000475955,0.0475504,21.0104,491.836,-0.573067,0.0,0.0
1897,474,47.7627,49.3058,128.546,113.52,119.881,0.00045699,0.0475057,21.0112,491.846,-0.484865,0.0,0.0
1904,475.75,47.9756,49.3894,130.2,113.53,119.975,0.000348803,0.0474539,21.0116,491.816,-0.49109,0.0,0.0
1911,477.5,47.6088,50.0489,131.562,113.537,118.771,0.000295209,0.0474659,21.0118,491.816,-0.400797,0.0,0.0
1918,479.25,47.5317,49.0838,129.681,113.541,119.687,0.000323218,0.0474965,21.0113,491.816,-0.468781,0.0,0.0
1925,481,47.3331,49.5721,134.677,113.555,119.735,0.000402723,0.047524,21.0106,491.826,-0.471229,0.0,0.0
1932,482.75,47.5264,50.0944,130.253,113.584,120.725,0.000432232,0.047498,21.0103,491.826,-0.542254,0.0,0.0
1939,484.5,47.5302,49.4888,130.642,113.591,120.034,0.000433614,0.0473889,21.0104,491.836,-0.490629,0.0,0.0
1946,486.25,47.2422,49.514,131.403,113.585,119.844,0.000500839,0.0474182,21.0115,491.826,-0.477033,0.0,0.0
1953,488,47.8959,49.8494,131.963,113.605,119.679,0.000570008,0.0475277,21.012,491.836,-0.463244,0.0,0.0
1960,489.75,47.6148,49.2736,136.644,113.629,120.374,0.000553418,0.0476022,21.0122,491.806,-0.512798,0.0,0.0
1967,491.5,46.9977,49.9015,127.345,113.652,118.963,0.000476007,0.0475506,21.0123,491.816,-0.406148,0.0,0.0
1974,493.25,47.9755,49.6917,130.986,113.646,120.128,0.000415976,0.0475866,21.0113,491.806,-0.493333,0.0,0.0
1981,495,47.6378,49.4138,130.013,113.668,120.119,0.000445766,0.0476672,21.0107,491.806,-0.490953,0.0,0.0
1988,496.75,48.0025,49.4341,128.533,113.682,119.777,0.000552903,0.0476487,21.0104,491.806,-0.464459,0.0,0.0
1995,498.5,47.4569,49.5801,130.219,113.699,119.393,0.000620865,0.0474838,21.0102,491.796,-0.434578,0.0,0.0
2002,500.25,47.6326,50.1424,130.148,113.711,120.005,0.000606813,0.0474662,21.0102,491.796,-0.479079,0.0,0.0
2009,502,47.9619,49.3861,127.079,113.723,119.98,0.000499684,0.0474943,21.0101,491.826,-0.476311,0.0,0.0
2016,503.75,47.5738,49.725,129.783,113.736,120.036,0.000389071,0.0476388,21.0111,491.816,-0.47939,0.0,0.0
2023,505.5,47.677,49.6486,130.441,113.743,121.039,0.000376836,0.0477804,21.0115,491.816,-0.552868,0.0,0.0
2030,507.25,47.814,49.1939,129.287,113.764,119.078,0.000435911,0.0477998,21.0115,491.846,-0.405973,0.0,0.0
2037,509,47.6572,49.3116,130.567,113.768,119.543,0.000457944,0.0477551,21.0115,491.816,-0.440351,0.0,0.0
2044,510.75,47.1975,49.4307,129.957,113.769,119.276,0.000445727,0.0477658,21.0115,491.816,-0.420369,0.0,0.0
2051,512.5,47.6584,49.5071,129.303,113.776,120.451,0.000440198,0.0478014,21.0115,491.836,-0.506975,0.0,0.0
2058,514.25,46.981,49.7751,127.979,113.785,120.314,0.000478611,0.0477025,21.0115,491.826,-0.496169,0.0,0.0
2065,516,47.3603,49.912,132.908,113.806,120.442,0.000528011,0.0476721,21.0115,491.806,-0.503999,0.0,0.0
2072,517.75,47.3817,49.5612,132.586,113.797,119.387,0.000545213,0.0477291,21.0115,491.806,-0.426504,0.0,0.0
2079,519.5,47.8985,49.382,134.607,113.813,118.743,0.000477238,0.0478563,21.0106,491.816,-0.3771,0.0,0.0
2086,521.25,47.7159,49.5407,131.755,113.819,119.377,0.000356237,0.0479071,21.01,491.816,-0.423938,0.0,0.0
2093,523,47.7085,49.5288,130.522,113.825,120.219,0.000244709,0.0479152,21.0104,491.836,-0.486024,0.0,0.0
2100,524.75,47.807,49.863,128.878,113.822,120.85,0.000220467,0.0478728,21.011,491.846,-0.532838,0.0,0.0
2107,526.5,47.8272,49.8742,129.129,113.832,119.186,0.000243688,0.0478526,21.0113,491.826,-0.408701,0.0,0.0
2114,528.25,47.8132,48.975,135.893,113.844,120.601,0.000313918,0.0478052,21.0123,491.816,-0.512796,0.0,0.0
2121,530,47.4324,49.8402,137.268,113.859,119.948,0.000418891,0.0477274,21.012,491.816,-0.463309,0.0,0.0
2128,531.75,47.4731,49.8394,129.94,113.853,119.461,0.000502808,0.0477131,21.0119,491.826,-0.427599,0.0,0.0
2135,533.5,48.1011,49.5682,129.986,113.854,120.579,0.000496714,0.0477797,21.0118,491.826,-0.510331,0.0,0.0
2142,535.25,47.8403,49.7673,128.387,113.86,119.756,0.000383398,0.0477873,21.0118,491.826,-0.448947,0.0,0.0
2149,537,47.5824,50.0833,131.386,113.868,119.821,0.000350088,0.0478882,21.0116,491.846,-0.453173,0.0,0.0
2156,538.75,47.9396,50.3303,130.969,113.892,119.328,0.000382305,0.0479411,21.0112,491.846,-0.414639,0.0,0.0
2163,540.5,47.7699,49.5649,131.135,113.867,120.972,0.00036306,0.0479331,21.0111,491.836,-0.538339,0.0,0.0
2170,542.25,47.6002,49.6075,128.96,113.872,121.802,0.000282344,0.047867,21.011,491.816,-0.598674,0.0,0.0
2177,544,47.6749,49.6777,130.076,113.878,121.523,0.00020927,0.0478241,21.0109,491.846,-0.577821,0.0,0.0
2184,545.75,47.9036,49.777,129.988,113.882,120.104,0.000214095,0.0478909,21.0109,491.836,-0.473025,0.0,0.0
2191,547.5,48.2071,49.5865,130.751,113.879,119.938,0.000297202,0.0478244,21.0113,491.796,-0.46096,0.0,0.0
2198,549.25,48.2035,49.9372,127.688,113.874,119.98,0.000364887,0.0476932,21.0116,491.806,-0.464475,0.0,0.0
2205,551,47.3914,49.5207,130.777,113.878,120.076,0.000349093,0.0476557,21.012,491.856,-0.471308,0.0,0.0
2212,552.75,47.7796,49.0483,127.668,113.886,120.314,0.000298568,0.0475774,21.0122,491.856,-0.488303,0.0,0.0
2219,554.5,47.9344,49.9798,131.311,113.892,120.015,0.000292776,0.0475431,21.0123,491.826,-0.465656,0.0,0.0
2226,556.25,47.8614,49.2753,125.866,113.89,121.121,0.000302922,0.047536,21.0124,491.846,-0.547435,0.0,0.0
2233,558,48.2412,49.7644,128.976,113.896,120.078,0.000354069,0.047576,21.0124,491.816,-0.47004,0.0,0.0
2240,559.75,48.4413,49.7539,134.636,113.89,120.25,0.000446922,0.0476647,21.0124,491.846,-0.483251,0.0,0.0
2247,561.5,47.6352,50.3243,134.304,113.909,120.545,0.000499917,0.0477551,21.0124,491.846,-0.503535,0.0,0.0
2254,563.25,48.2541,50.1878,131.768,113.902,119.234,0.000502263,0.0477606,21.0124,491.846,-0.406848,0.0,0.0
2261,565,47.9705,49.7891,132.56,113.89,121.149,0.000527142,0.0476956,21.0124,491.826,-0.549487,0.0,0.0
2268,566.75,48.2162,50.0863,128.298,113.899,121.249,0.000563942,0.0476817,21.0124,491.846,-0.556126,0.0,0.0
2275,568.5,48.0203,49.7943,131.351,113.901,121.004,0.00063272,0.0477354,21.0124,491.856,-0.537964,0.0,0.0
2282,570.25,47.6797,49.0151,131.58,113.908,120.409,0.000728379,0.0478137,21.0124,491.866,-0.493592,0.0,0.0
2289,572,47.8362,49.6119,131.755,113.899,121.141,0.000774438,0.0480044,21.0124,491.856,-0.548184,0.0,0.0
2296,573.75,48.2207,49.9646,130.588,113.895,120.746,0.000739613,0.0480939,21.0136,491.866,-0.519503,0.0,0.0
2303,575.5,47.8193,50.0279,131.98,113.908,119.479,0.000780041,0.0481607,21.0144,491.826,-0.424641,0.0,0.0
2310,577.25,48.0755,49.919,131.717,113.911,120.452,0.000893268,0.0483342,21.0147,491.866,-0.496568,0.0,0.0
2317,579,47.8223,49.3089,129.613,113.91,120.935,0.000926764,0.0484622,21.0149,491.856,-0.53221,0.0,0.0
2324,580.75,48.2912,50.0574,130.47,113.912,119.133,0.000825036,0.0484951,21.0149,491.846,-0.398558,0.0,0.0
2331,582.5,47.9787,49.4667,129.233,113.904,119.235,0.00069516,0.0486768,21.015,491.846,-0.40682,0.0,0.0
2338,584.25,47.882,49.6102,129.494,113.917,119.664,0.000656762,0.048881,21.015,491.836,-0.437726,0.0,0.0
2345,586,48.1029,50.191,130.176,113.919,120.124,0.000614447,0.0488256,21.015,491.866,-0.471697,0.0,0.0
2352,587.75,48.4624,49.8342,129.98,113.903,119.85,0.000507728,0.0488248,21.0144,491.846,-0.452562,0.0,0.0
2359,589.5,47.5699,49.6781,132.112,113.917,119.072,0.00038598,0.0487697,21.0135,491.836,-0.393545,0.0,0.0
2366,591.25,47.9459,49.6578,127.347,113.919,121.316,0.000381571,0.0488101,21.0131,491.846,-0.559523,0.0,0.0
2373,593,47.6107,49.9928,134.543,113.924,120.026,0.000433305,0.0487664,21.0129,491.846,-0.463971,0.0,0.0
2380,594.75,48.0447,49.411,130.75,113.913,119.924,0.000386827,0.0488831,21.0128,491.836,-0.457286,0.0,0.0
2387,596.5,47.6207,49.6592,128.937,113.907,119.951,0.000257356,0.048833,21.0113,491.836,-0.459779,0.0,0.0
2394,598.25,47.9417,49.9916,129.362,113.915,119.13,0.000157148,0.0487796,21.0098,491.836,-0.398083,0.0,0.0
2401,600,47.6899,49.875,132.017,113.924,120.423,0.000106413,0.048778,21.0091,491.856,-0.493367,0.0,0.0
2408,601.75,47.1546,48.5224,132.796,113.907,120.315,5.49e-05,0.0487635,21.0088,491.876,-0.486714,0.0,0.0
2415,603.5,45.8173,48.5274,132.746,113.911,120.32,5.43256e-05,0.0487078,21.0086,491.866,-0.486809,0.0,0.0
2422,605.25,45.8368,47.7921,130.161,113.907,120.411,0.000150623,0.0487369,21.0085,491.846,-0.493884,0.0,0.0
2429,607,46.1082,48.4013,132.164,113.919,120.003,0.000215942,0.0489515,21.0085,491.896,-0.462703,0.0,0.0
2436,608.75,45.9316,47.8409,134.957,113.921,119.941,0.000234055,0.049112,21.0085,491.876,-0.457928,0.0,0.0
2443,610.5,46.0248,48.2111,130.274,113.919,120.066,0.000280798,0.0490155,21.008,491.826,-0.467372,0.0,0.0
2450,612.25,45.7523,47.8739,131.347,113.907,120.642,0.000343984,0.0490154,21.0078,491.836,-0.510907,0.0,0.0
2457,614,46.4255,47.4313,131.406,113.914,119.429,0.00042201,0.0489641,21.0077,491.836,-0.420434,0.0,0.0
2464,615.75,46.1414,48.4109,131.125,113.929,120.021,0.000451535,0.0488899,21.0076,491.816,-0.463278,0.0,0.0
2471,617.5,46.2994,48.0423,129.416,113.912,121.303,0.000400765,0.0490665,21.0076,491.846,-0.559121,0.0,0.0
2478,619.25,46.1034,47.5204,130.648,113.924,119.572,0.000327224,0.0493787,21.0077,491.836,-0.430283,0.0,0.0
2485,621,46.3929,47.8777,129,113.904,120.826,0.000287169,0.0496073,21.008,491.836,-0.52467,0.0,0.0
2492,622.75,46.2433,47.792,131.716,113.919,121.563,0.000265676,0.0497393,21.0083,491.846,-0.577608,0.0,0.0
2499,624.5,46.2554,47.9702,129.378,113.923,121.045,0.000270076,0.0497028,21.0085,491.846,-0.539252,0.0,0.0
2506,626.25,46.1945,48.6105,132.159,113.918,120.275,0.000263361,0.0496913,21.0086,491.846,-0.482897,0.0,0.0
2513,628,46.0602,48.3044,128.891,113.921,120.066,0.000155374,0.0497579,21.0086,491.866,-0.467195,0.0,0.0
2520,629.75,46.1762,48.3299,129.725,113.926,120.667,6.77603e-05,0.0496256,21.0086,491.846,-0.511255,0.0,0.0
2527,631.5,46.3381,47.958,133.109,113.923,120.495,8.12671e-05,0.0495971,21.0082,491.806,-0.498763,0.0,0.0
2534,633.25,46.0634,48.0157,126.799,113.912,120.729,0.000205605,0.0494946,21.008,491.816,-0.516851,0.0,0.0
2541,635,46.1904,48.2507,130.158,113.931,118.924,0.000335436,0.0494375,21.0079,491.846,-0.38147,0.0,0.0
2548,636.75,46.0268,48.3839,133.878,113.92,119.464,0.000328324,0.049392,21.0078,491.846,-0.422583,0.0,0.0
2555,638.5,46.037,47.9019,132.25,113.921,120.553,0.000309101,0.0494065,21.0078,491.846,-0.503181,0.0,0.0
2562,640.25,46.2162,47.9252,128.449,113.92,119.872,0.000304369,0.0492405,21.0078,491.866,-0.452873,0.0,0.0
2569,642,46.3528,47.6806,134.347,113.913,119.592,0.000323756,0.0490636,21.0088,491.826,-0.432644,0.0,0.0
2576,643.75,46.3814,48.2502,128.422,113.92,119.757,0.000331497,0.0491002,21.0098,491.876,-0.444348,0.0,0.0
2583,645.5,45.5636,48.3322,128.402,113.918,120.238,0.000364032,0.0491793,21.0105,491.846,-0.480191,0.0,0.0
2590,647.25,45.9736,47.8666,128.993,113.939,120.575,0.000372186,0.0491932,21.0119,491.836,-0.503411,0.0,0.0
2597,649,45.9033,47.8143,132.494,113.916,121.084,0.000345462,0.0491502,21.0125,491.926,-0.54273,0.0,0.0
2604,650.75,46.1479,47.995,129.648,113.915,120.759,0.000368144,0.049186,21.0118,491.876,-0.518882,0.0,0.0
2611,652.5,46.2667,48.2987,133.35,113.906,120.212,0.000512254,0.0492422,21.0113,491.876,-0.479195,0.0,0.0
2618,654.25,46.208,47.6383,129.078,113.903,120.377,0.000636619,0.0492037,21.011,491.856,-0.491652,0.0,0.0
2625,656,45.6627,47.8083,132.895,113.902,119.814,0.000653082,0.0493075,21.0109,491.856,-0.450025,0.0,0.0
2632,657.75,45.4923,47.8533,132.74,113.887,120.167,0.000479976,0.0492349,21.0108,491.826,-0.477373,0.0,0.0
2639,659.5,45.8529,47.8427,130.719,113.897,119.784,0.000222539,0.0493058,21.0108,491.876,-0.448154,0.0,0.0
2646,661.25,46.7027,48.0613,132.477,113.896,120.416,7.05736e-05,0.0492674,21.0108,491.846,-0.495036,0.0,0.0
2653,663,46.2197,47.6337,130.001,113.895,119.412,5.68316e-05,0.049136,21.0108,491.896,-0.420635,0.0,0.0
2660,664.75,46.2838,48.258,130.984,113.892,119.131,0.000175207,0.0490776,21.0101,491.856,-0.399929,0.0,0.0
2667,666.5,46.2634,48.1844,134.914,113.877,120.899,0.000289637,0.0488962,21.0092,491.876,-0.532143,0.0,0.0
2674,668.25,45.7791,48.1366,133.199,113.883,120.144,0.000249623,0.0488689,21.0088,491.856,-0.475961,0.0,0.0
2681,670,46.2732,48.6284,129.268,113.876,119.624,0.000125475,0.0488195,21.0086,491.846,-0.437926,0.0,0.0
2688,671.75,46.0054,48.0617,133.311,113.856,119.876,4.93174e-05,0.0487197,21.0085,491.856,-0.458205,0.0,0.0
2695,673.5,46.2569,47.6397,129.076,113.862,120.938,4.76879e-05,0.0487216,21.0085,491.836,-0.536225,0.0,0.0
2702,675.25,45.6678,48.07,129.547,113.87,120.561,6.8166e-05,0.048633,21.0087,491.866,-0.50778,0.0,0.0
2709,677,46.2473,47.8362,133.162,113.877,119.958,0.000106418,0.0485552,21.0098,491.816,-0.462606,0.0,0.0
2716,678.75,46.6369,48.5144,130.901,113.859,120.642,0.000174751,0.0485693,21.0103,491.846,-0.514552,0.0,0.0
2723,680.5,46.2056,47.8421,127.098,113.868,119.622,0.000275775,0.048533,21.0105,491.876,-0.43845,0.0,0.0
2730,682.25,46.0381,47.5738,130.319,113.847,120.08,0.000313109,0.0485281,21.0106,491.866,-0.474016,0.0,0.0
2737,684,46.0696,47.6306,130.886,113.846,119.126,0.000289573,0.0483921,21.0111,491.856,-0.4032,0.0,0.0
2744,685.75,46.4811,48.0682,125.441,113.855,120.619,0.000240223,0.0482903,21.0114,491.856,-0.513221,0.0,0.0
2751,687.5,46.3217,48.3863,129.31,113.838,121.103,0.000197062,0.0481887,21.0122,491.876,-0.550166,0.0,0.0
2758,689.25,46.1154,47.6125,133.627,113.843,120.354,0.000175329,0.0481426,21.013,491.896,-0.494672,0.0,0.0
2765,691,46.08,47.8782,127.915,113.841,120.818,0.000158785,0.0480966,21.0134,491.866,-0.528996,0.0,0.0
2772,692.75,46.5536,48.4727,128.312,113.848,119.363,9.41831e-05,0.0480472,21.0129,491.866,-0.420611,0.0,0.0
2779,694.5,46.6297,48.4745,131.533,113.842,120.041,5.99285e-05,0.0479217,21.0128,491.866,-0.471509,0.0,0.0
2786,696.25,46.196,47.8739,129.324,113.832,120.675,0.000131721,0.0479773,21.0121,491.896,-0.519149,0.0,0.0
2793,698,46.2496,48.6048,131.487,113.822,120.038,0.000280827,0.0480616,21.0117,491.856,-0.472915,0.0,0.0
2800,699.75,45.9307,48.036,134.196,113.832,120.47,0.000468937,0.0480188,21.0116,491.856,-0.504044,0.0,0.0
2807,701.5,46.1086,48.433,134.327,113.828,119.96,0.000626607,0.047942,21.0115,491.856,-0.466582,0.0,0.0
2814,703.25,46.3687,47.9857,132.842,113.832,120.631,0.000699133,0.0480587,21.0114,491.816,-0.515964,0.0,0.0
2821,705,46.4233,48.1929,130.986,113.825,120.1,0.000699584,0.0480355,21.0114,491.806,-0.477186,0.0,0.0
2828,706.75,46.5183,48.2312,131.702,113.827,119.635,0.000582639,0.0479773,21.0114,491.806,-0.442546,0.0,0.0
2835,708.5,46.5627,47.8237,129.764,113.831,120.687,0.000455581,0.0479603,21.0114,491.826,-0.520082,0.0,0.0
2842,710.25,46.5146,48.2973,132.112,113.817,119.552,,0.047914,,491.816,-0.437201,0.0,0.0
2849,712,46.1958,48.3791,134.465,113.82,119.49,,0.0478708,,491.836,-0.432303,0.0,0.0
2856,713.75,45.904,47.7365,129.382,113.828,119.547,,,,491.826,-0.435974,0.0,0.0
2863,715.5,46.494,48.1463,132.113,113.838,120.595,,,,491.806,-0.51277,0.0,0.0
2870,717.25,46.504,48.4393,129.997,113.818,118.729,,,,491.836,-0.375683,0.0,0.0
2877,719,45.9675,47.84,131.676,113.821,118.829,,,,491.826,-0.382966,0.0,0.0
2884,720.75,46.2383,48.0866,134.107,113.818,120.972,,,,491.836,-0.542127,0.0,0.0
2885,721,46.2026,47.8317,130.11,113.808,120.273,,,,491.826,-0.491352,0.0,0.0