File: 01_Data/R30_Fiberglass_Insulation/Cone/R30_Fiberglass_Insulation_Cone_HF25Scan_220502_R2.csv
Names,Time,Stack TC,Smoke TC,Exh Press,Smoke Comp,Smoke Meas,CO Meter,CO2 Meter,O2 Meter,Sample Mass,Ext Coeff,Start Test,Flame Verif
Chan Gain,,500,500,1,1,1,1,1,1,1,1,1.0,1.0
Offset,,0,0,0.134537,0,0,0,0,0,0,0,0.0,0.0
Gain,,1,1,25.011,14.8585,16.6522,1,1,1,1.00087,1.0138,1.0,1.0
Units,sec,C,C,Pa,%,%,%,%,%,g,/m,,
Baseline,,21.9505,22.5205,140.097,112.015,113.977,0.000311038,0.0507932,21.0078,-834.187,-0.154393,,
7,1.5,19.1716,20.3579,140.487,111.973,113.809,0.000335682,0.058569,20.9977,-331.577,-0.144674,0.0,0.0
14,3.25,19.7939,20.4134,140.183,111.978,113.411,0.000449445,0.0580003,20.9987,-331.607,-0.113058,0.0,0.0
21,5,19.6043,20.0023,137.418,111.979,113.489,0.00053789,0.0575189,20.9991,-331.627,-0.119121,0.0,0.0
28,6.75,19.6712,20.3424,143.673,111.996,113.641,0.000571536,0.0567386,20.9996,-331.657,-0.129687,0.0,0.0
35,8.5,19.9612,20.7568,138.809,111.993,114.066,0.000600283,0.0554032,21.0015,-331.677,-0.16316,0.0,0.0
42,10.25,19.7429,20.4414,141.67,111.993,113.594,0.000668752,0.0541704,21.0029,-331.698,-0.126201,0.0,0.0
49,12,19.8953,20.6408,141.769,112.003,113.767,0.000784707,0.0533007,21.0048,-331.717,-0.138968,0.0,0.0
56,13.75,20.2983,20.6824,134.266,112.007,114.017,0.000892633,0.0525855,21.0058,-331.728,-0.15824,0.0,0.0
63,15.5,20.1955,20.4247,139.009,112.013,113.845,0.000924099,0.0518939,21.0077,-331.728,-0.144249,0.0,0.0
70,17.25,20.0448,20.7948,139.68,112.018,113.788,0.000895791,0.0514561,21.0088,-331.758,-0.139406,0.0,0.0
77,19,20.6368,20.8265,139.658,112.022,114.253,0.000898247,0.0511129,21.0094,-331.768,-0.175387,0.0,0.0
84,20.75,20.6142,20.9177,143.054,112.006,114.27,0.000869258,0.0511625,21.0096,-331.768,-0.177989,0.0,0.0
91,22.5,20.4807,20.9346,142.995,112.007,113.953,0.00080463,0.0511227,21.0098,-331.778,-0.153243,0.0,0.0
98,24.25,20.6846,21.3917,138.918,112.014,114.093,0.000713486,0.0510136,21.0109,-331.788,-0.163528,0.0,0.0
105,26,19.95,20.8351,143.235,112.016,113.769,0.000629012,0.051012,21.0113,-331.808,-0.138116,0.0,0.0
112,27.75,20.7949,20.8769,138.561,112.02,114.314,0.000588719,0.0510277,21.0113,-331.818,-0.180274,0.0,0.0
119,29.5,20.6098,20.8602,142.692,112.031,114.094,0.000580201,0.050967,21.0104,-331.818,-0.162239,0.0,0.0
126,31.25,20.4727,21.0403,138.819,112.027,114.16,0.000595851,0.0510081,21.0097,-331.828,-0.167786,0.0,0.0
133,33,20.3155,20.5144,138.667,112.032,114.09,0.000634345,0.0511051,21.0093,-331.838,-0.16189,0.0,0.0
140,34.75,20.6557,21.648,140.279,112.025,114.366,0.000684442,0.0510741,21.0098,-331.848,-0.183909,0.0,0.0
147,36.5,20.655,21.2787,140.684,112.034,113.992,0.000730003,0.0511362,21.0103,-331.848,-0.154062,0.0,0.0
154,38.25,20.7682,21.4798,139.68,112.043,114.095,0.000801413,0.051199,21.0108,-331.838,-0.161383,0.0,0.0
161,40,20.7443,20.8187,141.251,112.04,113.916,0.000903489,0.0511804,21.011,-331.848,-0.147645,0.0,0.0
168,41.75,20.7541,21.1699,139.258,112.033,114.403,0.000976902,0.0512507,21.0118,-331.878,-0.186185,0.0,0.0
175,43.5,20.9147,21.7522,138.256,112.025,114.082,0.00106149,0.0512561,21.0123,-331.878,-0.161872,0.0,0.0
182,45.25,21.3659,21.372,140.306,112.033,114.155,0.0010887,0.0512391,21.0129,-331.868,-0.166851,0.0,0.0
189,47,21.353,21.7671,139.123,112.032,114.852,0.00100366,0.0512338,21.0132,-331.868,-0.221073,0.0,0.0
196,48.75,20.711,21.723,136.894,112.037,114.469,0.000855819,0.0512385,21.0129,-331.878,-0.190991,0.0,0.0
203,50.5,21.5057,21.4328,140.887,112.038,114.303,0.00075549,0.0512713,21.012,-331.878,-0.177964,0.0,0.0
210,52.25,20.9857,21.9049,137.581,112.025,114.565,0.000721236,0.0513638,21.0116,-331.888,-0.199389,0.0,0.0
217,54,21.1749,21.2053,139.809,112.041,114.186,0.00072263,0.0515036,21.0116,-331.888,-0.16865,0.0,0.0
224,55.75,21.618,21.3631,138.509,112.041,113.863,0.000759191,0.0514553,21.0124,-331.878,-0.143446,0.0,0.0
231,57.5,20.9259,21.7209,136.775,112.034,114.188,0.000853801,0.0513912,21.0115,-331.898,-0.169387,0.0,0.0
238,59.25,21.1638,22.0101,142.585,112.023,113.845,0.000934699,0.0513584,21.0106,-331.908,-0.143457,0.0,0.0
245,61,21.3363,21.8823,138.411,112.018,114.195,0.000908685,0.0513824,21.01,-331.898,-0.171162,0.0,0.0
252,62.75,21.3192,22.4868,138.916,112.02,114.014,0.000839652,0.0513165,21.0097,-331.898,-0.156958,0.0,0.0
259,64.5,21.4575,21.9398,138.924,112.025,113.964,0.000803403,0.0512884,21.0096,-331.898,-0.152637,0.0,0.0
266,66.25,21.3355,21.8936,138.287,112.001,114.303,0.000831837,0.0513205,21.0095,-331.908,-0.18088,0.0,0.0
273,68,21.2557,21.9595,139.552,112.024,114.262,0.000882182,0.0514134,21.0098,-331.928,-0.175956,0.0,0.0
280,69.75,21.5969,21.7516,137.108,112.019,113.977,0.000910791,0.0513313,21.0101,-331.918,-0.154096,0.0,0.0
287,71.5,21.2815,21.5803,142.788,112.006,114.047,0.000906139,0.0513028,21.0102,-331.918,-0.160574,0.0,0.0
294,73.25,21.3558,21.873,136.505,111.999,114.575,0.000880018,0.0511497,21.0103,-331.918,-0.20223,0.0,0.0
301,75,21.2215,21.81,138.881,112.007,114.461,0.0008226,0.0510403,21.0103,-331.918,-0.192736,0.0,0.0
308,76.75,21.5889,22.0454,140.04,112.003,113.879,0.00073363,0.0509879,21.0103,-331.928,-0.14774,0.0,0.0
315,78.5,21.4451,22.3716,139.644,112.003,114.036,0.000651682,0.0510581,21.0106,-331.928,-0.159994,0.0,0.0
322,80.25,21.3499,21.9187,139.864,111.995,114.205,0.0006495,0.0509779,21.0106,-331.938,-0.173793,0.0,0.0
329,82,21.1519,22.3621,140.096,111.999,114.343,0.000729901,0.0508827,21.0101,-331.928,-0.184183,0.0,0.0
336,83.75,21.6678,21.8376,140.77,111.995,114.16,0.000814806,0.0508234,21.0099,-331.928,-0.170307,0.0,0.0
343,85.5,21.4706,22.1803,138.262,111.996,114.219,0.000848429,0.0508454,21.0098,-331.938,-0.174789,0.0,0.0
350,87.25,21.6282,21.8512,139.129,111.993,114.26,0.000854031,0.0507944,21.0097,-331.938,-0.178245,0.0,0.0
357,89,21.518,22.1064,136.735,111.987,114.196,0.000839099,0.0507234,21.0097,-331.948,-0.173689,0.0,0.0
364,90.75,21.5609,22.1326,143.093,111.982,114.114,0.000859897,0.0507443,21.0097,-331.948,-0.167747,0.0,0.0
371,92.5,22.0236,22.0767,136.756,112.004,114.014,0.000870921,0.0507718,21.0097,-331.928,-0.158178,0.0,0.0
378,94.25,21.5596,22.6754,140.452,112.001,114.017,0.000822929,0.0506967,21.0109,-331.948,-0.158707,0.0,0.0
385,96,21.4337,22.4481,137.172,111.996,113.85,0.000706912,0.0505868,21.0115,-331.938,-0.145978,0.0,0.0
392,97.75,21.5037,22.0966,136.225,111.99,114.198,0.0006017,0.0505086,21.0118,-331.958,-0.173596,0.0,0.0
399,99.5,21.6364,22.2565,137.533,111.994,113.888,0.000555635,0.0505074,21.0119,-331.938,-0.149138,0.0,0.0
406,101.25,21.5839,22.1404,136.794,111.998,114.879,0.000533234,0.0504476,21.0119,-331.938,-0.225892,0.0,0.0
413,103,21.6069,22.3848,138.608,112.012,114.734,0.000470924,0.0504972,21.0122,-331.948,-0.21356,0.0,0.0
420,104.75,21.7313,22.5818,138.926,111.992,114.301,0.000410879,0.0504745,21.0124,-331.938,-0.181482,0.0,0.0
427,106.5,21.4285,22.2747,138.524,112.005,114.185,0.000411303,0.0504525,21.0126,-331.948,-0.171414,0.0,0.0
434,108.25,22.1391,22.3998,137.671,112.003,113.956,0.00044816,0.0503812,21.0126,-331.948,-0.153734,0.0,0.0
441,110,21.4976,22.7151,140.217,112,114.216,0.000401884,0.0502569,21.0124,-331.968,-0.174264,0.0,0.0
448,111.75,21.9832,22.2167,135.321,112,114.704,0.00029779,0.0502868,21.0113,-331.968,-0.212208,0.0,0.0
455,113.5,21.9086,22.6939,140.418,111.993,114.432,0.000224322,0.0502278,21.0108,-331.958,-0.191569,0.0,0.0
462,115.25,22.0702,22.3537,140.031,112.008,114.119,0.000188184,0.05026,21.0106,-331.948,-0.166016,0.0,0.0
469,117,21.8597,22.4586,139.827,112.014,114.164,0.000140663,0.050377,21.0109,-331.938,-0.169036,0.0,0.0
476,118.75,22.0822,22.4339,136.585,112.016,114.927,0.000138429,0.0503948,21.0118,-331.938,-0.228112,0.0,0.0
483,120.5,21.9304,22.511,140.162,112.012,114.251,0.000210313,0.0503761,21.0123,-331.948,-0.175946,0.0,0.0
490,122.25,21.5936,22.8004,138.778,112.024,114.376,0.000353495,0.0502632,21.0133,-331.948,-0.184812,0.0,0.0
497,124,21.7891,22.2728,140.015,112.033,114.898,0.000446367,0.0502537,21.0142,-331.968,-0.224503,0.0,0.0
504,125.75,21.9676,22.5134,139.621,112.032,114.282,0.000511867,0.0502604,21.014,-331.948,-0.17685,0.0,0.0
511,127.5,21.9009,22.7195,140.684,112.054,114.704,0.000535524,0.0502451,21.0124,-331.958,-0.207924,0.0,0.0
518,129.25,22.1508,22.6434,138.824,112.039,113.767,0.000528631,0.0502186,21.0117,-331.968,-0.136125,0.0,0.0
525,131,22.1686,22.4263,137.404,112.039,114.355,0.000552856,0.0502069,21.0113,-331.968,-0.181963,0.0,0.0
532,132.75,21.7864,22.6005,139.241,112.042,114.258,0.000618228,0.0501001,21.0112,-331.968,-0.174199,0.0,0.0
539,134.5,21.7498,22.5958,138.725,112.034,114.839,0.000673735,0.049996,21.0111,-331.958,-0.219903,0.0,0.0
546,136.25,21.6449,22.4454,137.356,112.032,114.19,0.000696623,0.049935,21.011,-331.958,-0.169614,0.0,0.0
553,138,21.6764,22.5937,139.368,112.045,114.384,0.000675727,0.0499966,21.011,-331.958,-0.183712,0.0,0.0
560,139.75,21.5319,22.5978,139.798,112.041,114.033,0.000552597,0.0500662,21.011,-331.968,-0.156729,0.0,0.0
567,141.5,21.697,22.8173,137.741,112.043,114.723,0.000442557,0.0501578,21.011,-331.958,-0.210246,0.0,0.0
574,143.25,22.1056,22.8089,140.964,112.04,114.11,0.000365094,0.0501523,21.0106,-331.968,-0.162787,0.0,0.0
581,145,21.5975,22.8376,142.215,112.041,114.218,0.000313021,0.0499761,21.0104,-331.968,-0.171071,0.0,0.0
588,146.75,22.6161,22.5994,136.056,112.054,114.497,0.00024639,0.0499552,21.0102,-331.958,-0.191799,0.0,0.0
595,148.5,21.6573,22.7262,140.663,112.079,114.476,0.000212945,0.0499623,21.0109,-331.958,-0.188202,0.0,0.0
602,150.25,22.2854,23.2416,140.828,112.07,114.016,0.000263162,0.0499048,21.0125,-331.978,-0.153118,0.0,0.0
609,152,22.0994,22.98,139.771,112.062,114.29,0.000370594,0.0498157,21.0134,-331.968,-0.175032,0.0,0.0
616,153.75,22.2759,23.0534,143.118,112.078,113.902,0.000383557,0.0499157,21.0142,-331.958,-0.143547,0.0,0.0
623,155.5,22.3416,22.9797,137.163,112.089,114.306,0.000368548,0.0499781,21.0145,-331.968,-0.174172,0.0,0.0
630,157.25,21.8469,22.9232,141.228,112.097,114.527,0.000357073,0.0499221,21.0147,-331.958,-0.190706,0.0,0.0
637,159,22.0707,22.818,142.139,112.087,113.867,0.000349643,0.0499116,21.0148,-331.988,-0.140053,0.0,0.0
644,160.75,21.917,22.7235,138.636,112.09,113.777,0.00036057,0.0498603,21.0148,-331.988,-0.132849,0.0,0.0
651,162.5,21.9793,23.1827,137.907,112.104,114.127,0.000371597,0.0498581,21.0148,-331.978,-0.15906,0.0,0.0
658,164.25,21.8812,22.6544,139.928,112.116,114.174,0.000366048,0.0498563,21.0145,-331.998,-0.16173,0.0,0.0
665,166,22.1644,22.5873,141.631,112.129,114.13,0.000363375,0.0497954,21.0142,-331.968,-0.157355,0.0,0.0
672,167.75,22.1172,22.7356,136.405,112.111,114.196,0.000339715,0.0497266,21.0141,-331.988,-0.163868,0.0,0.0
679,169.5,22.1709,22.8105,139.601,112.127,114.138,0.00031072,0.0498521,21.014,-331.978,-0.158132,0.0,0.0
686,171.25,22.174,22.906,141.199,112.149,114.62,0.000274893,0.0498506,21.014,-331.968,-0.193823,0.0,0.0
693,173,22.1478,22.8223,140.423,112.139,114.417,0.000208053,0.049929,21.0132,-331.988,-0.178797,0.0,0.0
700,174.75,21.8819,22.8581,136.592,112.146,114.624,0.00011493,0.0499745,21.0119,-331.998,-0.194395,0.0,0.0
707,176.5,22.4387,23.0676,138.719,112.164,114.769,3.55326e-06,0.0498738,21.0109,-331.988,-0.204186,0.0,0.0
714,178.25,21.9466,23.1531,140.281,112.178,114.533,-0.000115991,0.0497255,21.0112,-331.988,-0.184778,0.0,0.0
721,180,22.1285,22.8621,143.365,112.195,114.302,-0.000103483,0.0496536,21.0118,-331.988,-0.165404,0.0,0.0
728,181.75,21.84,22.9147,140.009,112.194,114.669,-2.28926e-07,0.0497767,21.0121,-331.998,-0.194092,0.0,0.0
735,183.5,22.4713,23.1638,132.905,112.198,114.512,0.000111402,0.0497046,21.0122,-331.988,-0.181547,0.0,0.0
742,185.25,22.6397,22.6443,138.781,112.219,114.6,0.0001806,0.0497491,21.0126,-331.968,-0.186718,0.0,0.0
749,187,22.0426,22.7868,141.613,112.228,114.404,0.000281771,0.0497987,21.0129,-331.978,-0.17076,0.0,0.0
756,188.75,21.8219,23.0709,140.072,112.22,114.999,0.000362195,0.0498859,21.0131,-331.988,-0.217509,0.0,0.0
763,190.5,21.9921,22.7485,136.524,112.227,114.695,0.000398578,0.0499183,21.0131,-331.978,-0.193514,0.0,0.0
770,192.25,22.0282,23.0074,140.633,112.228,114.552,0.000368509,0.0498361,21.0131,-331.988,-0.182252,0.0,0.0
777,194,22.1004,23.5233,139.79,112.238,114.76,0.000342842,0.0496906,21.0132,-331.988,-0.197659,0.0,0.0
784,195.75,22.5163,22.6951,140.096,112.231,114.366,0.000447552,0.0497016,21.0125,-331.978,-0.167621,0.0,0.0
791,197.5,22.2363,22.788,134.264,112.22,114.761,0.000535555,0.0497068,21.0121,-331.998,-0.199174,0.0,0.0
798,199.25,21.91,22.7878,134.566,112.211,114.336,0.000528659,0.0497128,21.0119,-331.998,-0.166795,0.0,0.0
805,201,22.352,23.0173,141.392,112.223,114.291,0.000400287,0.0497302,21.0117,-331.998,-0.162386,0.0,0.0
812,202.75,22.2078,23.1262,139.838,112.211,114.604,0.000309127,0.0497401,21.0107,-331.998,-0.18764,0.0,0.0
819,204.5,22.4141,23.0323,136.958,112.218,114.703,0.000209485,0.0497428,21.011,-331.998,-0.194752,0.0,0.0
826,206.25,22.3498,22.7697,136.815,112.2,114.301,3.27114e-05,0.0497228,21.0114,-331.998,-0.16497,0.0,0.0
833,208,22.3146,22.998,137.983,112.196,114.364,-6.1602e-05,0.0497161,21.0115,-331.998,-0.170155,0.0,0.0
840,209.75,22.5315,23.1952,138.505,112.201,115.022,-0.000112153,0.0497017,21.0116,-331.978,-0.220823,0.0,0.0
847,211.5,22.088,22.7398,140.672,112.196,114.28,-4.49484e-05,0.0497332,21.0114,-331.998,-0.163672,0.0,0.0
854,213.25,22.2525,23.2239,135.902,112.184,114.593,8.47681e-05,0.0498054,21.0113,-331.998,-0.188969,0.0,0.0
861,215,22.3817,23.6558,139.122,112.198,114.638,0.000191359,0.0497294,21.0103,-331.988,-0.191289,0.0,0.0
868,216.75,22.3567,23.1371,137.836,112.205,114.247,0.00020591,0.0495102,21.0098,-331.998,-0.160382,0.0,0.0
875,218.5,22.2604,23.1833,139.673,112.21,114.548,0.000111531,0.0493891,21.0098,-331.988,-0.183413,0.0,0.0
882,220.25,22.0082,23.4494,136.551,112.194,114.283,5.44104e-05,0.0493704,21.0099,-331.998,-0.16405,0.0,0.0
889,222,22.4651,23.1591,138.104,112.204,114.68,0.000124619,0.0495304,21.0099,-331.998,-0.194089,0.0,0.0
896,223.75,22.0625,23.0568,139.916,112.196,114.417,0.000157892,0.0497003,21.01,-331.988,-0.174379,0.0,0.0
903,225.5,22.6484,22.6893,137.667,112.179,114.352,0.000125803,0.0497047,21.01,-332.008,-0.170651,0.0,0.0
910,227.25,22.2729,23.6744,139.22,112.183,114.687,0.000151304,0.049641,21.01,-331.998,-0.196298,0.0,0.0
917,229,22.1606,23.02,138.085,112.158,114.47,0.000217622,0.0496299,21.01,-331.998,-0.181433,0.0,0.0
924,230.75,22.589,23.1057,139.996,112.185,114.309,0.000223646,0.0497222,21.01,-331.998,-0.166749,0.0,0.0
931,232.5,22.1822,22.7248,140.242,112.121,114.255,0.00014345,0.0496594,21.01,-332.008,-0.167666,0.0,0.0
938,234.25,22.1522,22.954,138.662,112.122,113.784,0.000104484,0.0495817,21.01,-331.988,-0.130848,0.0,0.0
945,236,22.1331,22.6894,135.986,112.101,114.056,0.000204468,0.0495574,21.01,-332.008,-0.153766,0.0,0.0
952,237.75,22.0477,22.9648,139.528,112.099,113.952,0.000400342,0.0495663,21.0096,-332.028,-0.145859,0.0,0.0
959,239.5,22.6701,23.0671,138.61,112.093,114.129,0.000516523,0.049615,21.0093,-332.008,-0.160118,0.0,0.0
966,241.25,22.3263,22.8598,145.419,112.057,114.043,0.000476714,0.0495135,21.0101,-332.008,-0.156226,0.0,0.0
973,243,22.3777,22.7475,135.916,112.049,113.911,0.000423578,0.0494436,21.0117,-332.008,-0.146528,0.0,0.0
980,244.75,22.1745,23.0945,140.602,112.017,114.32,0.000420877,0.0494764,21.0129,-332.008,-0.180968,0.0,0.0
987,246.5,22.0036,22.8782,138.874,112.014,114.052,0.000456263,0.0495585,21.0128,-332.008,-0.160362,0.0,0.0
994,248.25,23.1641,23.0641,135.413,111.998,114.004,0.000501369,0.0497162,21.0122,-332.018,-0.157929,0.0,0.0
1001,250,22.7143,23.0159,138.147,111.979,114.124,0.000567117,0.0496921,21.0119,-331.998,-0.168716,0.0,0.0
1008,251.75,22.0297,23.2195,143.211,111.953,113.735,0.000620667,0.0496827,21.0118,-331.998,-0.140499,0.0,0.0
1015,253.5,22.3479,23.0799,138.696,111.947,114.405,0.000580721,0.0496241,21.0117,-332.018,-0.193185,0.0,0.0
1022,255.25,22.4367,23.1308,139.188,111.937,114.126,0.000447475,0.0495617,21.0117,-332.008,-0.172228,0.0,0.0
1029,257,22.3528,22.8575,141.353,111.91,113.743,0.000360871,0.0495623,21.0117,-332.018,-0.144405,0.0,0.0
1036,258.75,22.2712,23.3668,138.803,111.907,113.787,0.000358036,0.0495194,21.0117,-331.988,-0.148154,0.0,0.0
1043,260.5,22.2996,22.6588,139.393,111.879,114.255,0.000408511,0.0495495,21.0117,-331.988,-0.186893,0.0,0.0
1050,262.25,22.2702,22.9144,142.746,111.852,113.588,0.000411586,0.0495356,21.0117,-331.978,-0.137004,0.0,0.0
1057,264,22.1909,23.685,142.681,111.844,113.614,0.000342089,0.0495286,21.0112,-331.998,-0.13965,0.0,0.0
1064,265.75,22.5337,22.9111,140.003,111.817,113.577,0.000273079,0.0495676,21.0109,-331.998,-0.138945,0.0,0.0
1071,267.5,22.4773,23.1214,135.257,111.795,114.289,0.000215365,0.0497084,21.0108,-331.998,-0.196174,0.0,0.0
1078,269.25,22.1839,23.3205,139.566,111.797,113.629,0.000131381,0.0496908,21.0113,-332.008,-0.144514,0.0,0.0
1085,271,22.3836,23.0868,139.375,111.782,113.718,3.78737e-05,0.0495585,21.0126,-331.998,-0.152738,0.0,0.0
1092,272.75,22.1701,22.8189,138.229,111.763,114.215,-8.84673e-07,0.0495827,21.0133,-332.008,-0.192999,0.0,0.0
1099,274.5,22.1737,23.2058,139.694,111.75,113.741,2.56907e-06,0.049545,21.0136,-332.008,-0.157015,0.0,0.0
1106,276.25,22.5531,23.0972,138.688,111.736,114.337,2.6782e-05,0.0496319,21.0137,-332.008,-0.204616,0.0,0.0
1113,278,22.4529,23.1121,142.501,111.706,113.723,5.38083e-05,0.0496518,21.0138,-332.018,-0.159122,0.0,0.0
1120,279.75,22.656,22.8878,136.266,111.699,113.756,4.92129e-05,0.0495844,21.0138,-331.998,-0.162286,0.0,0.0
1127,281.5,22.1811,22.7525,138.531,111.674,113.581,8.84177e-06,0.0495986,21.0138,-332.018,-0.150555,0.0,0.0
1134,283.25,22.3607,23.073,137.339,111.659,113.77,-1.65284e-07,0.0495445,21.0136,-331.998,-0.166536,0.0,0.0
1141,285,22.5111,22.6627,139.108,111.646,113.62,3.26999e-05,0.0494857,21.0125,-332.008,-0.155854,0.0,0.0
1148,286.75,22.5959,23.1157,139.842,111.637,113.725,0.000118943,0.0496134,21.0117,-331.998,-0.164806,0.0,0.0
1155,288.5,22.5486,23.3638,143.828,111.618,113.714,0.000201118,0.0496611,21.011,-331.998,-0.165377,0.0,0.0
1162,290.25,22.387,22.9584,137.277,111.593,113.708,0.000169569,0.0496121,21.0104,-331.998,-0.166927,0.0,0.0
1169,292,22.2192,23.0952,138.946,111.587,113.706,5.78323e-05,0.0496617,21.0099,-332.008,-0.167274,0.0,0.0
1176,293.75,22.5832,23.4165,134.158,111.57,113.474,-5.1197e-05,0.049624,21.0097,-331.998,-0.150464,0.0,0.0
1183,295.5,22.5547,22.7336,137.236,111.55,113.261,-0.000146046,0.0494655,21.0096,-331.998,-0.135356,0.0,0.0
1190,297.25,22.3298,23.083,139.288,111.526,113.344,-0.000194316,0.0493905,21.0095,-332.008,-0.143769,0.0,0.0
1197,299,22.4975,22.9006,138.958,111.524,113.379,-0.000161004,0.0494248,21.0095,-332.008,-0.146665,0.0,0.0
1204,300.75,22.0367,23.6157,139.222,111.511,113.203,-5.84496e-05,0.0495536,21.0095,-332.008,-0.133915,0.0,0.0
1211,302.5,22.4496,23.0195,138.836,111.482,113.245,0.000116899,0.0495414,21.0095,-332.018,-0.139543,0.0,0.0
1218,304.25,22.3392,22.9591,141.397,111.469,113.184,0.000228917,0.0494894,21.0095,-332.018,-0.135722,0.0,0.0
1225,306,22.4025,23.1284,138.926,111.457,113.509,0.000275253,0.0495917,21.0095,-332.018,-0.16222,0.0,0.0
1232,307.75,22.1629,23.142,140.245,111.446,113.488,0.000271043,0.0495644,21.0095,-332.008,-0.161452,0.0,0.0
1239,309.5,22.4844,23.4208,139.136,111.434,113.773,0.000194913,0.0495637,21.0099,-332.018,-0.184741,0.0,0.0
1246,311.25,22.1856,23.0389,140.246,111.41,113.26,0.000132616,0.0495973,21.0111,-332.018,-0.146453,0.0,0.0
1253,313,22.242,23.1498,138.503,111.399,113.783,0.000121727,0.0495658,21.0127,-332.018,-0.188319,0.0,0.0
1260,314.75,22.3088,23.2999,137.843,111.398,113.933,0.000133105,0.049565,21.0124,-332.018,-0.200065,0.0,0.0
1267,316.5,22.4004,22.8748,140.696,111.394,113.271,0.000172236,0.0495763,21.0121,-332.028,-0.148598,0.0,0.0
1274,318.25,22.5564,23.0338,140.842,111.375,113.728,0.000271388,0.0494841,21.012,-332.038,-0.185914,0.0,0.0
1281,320,22.4528,22.9953,138.687,111.367,113.398,0.000363478,0.0494897,21.0119,-332.028,-0.160739,0.0,0.0
1288,321.75,22.561,23.6654,140.572,111.355,113.567,0.000414468,0.0495263,21.0117,-332.028,-0.174899,0.0,0.0
1295,323.5,22.7077,22.835,139.187,111.36,113.328,0.000421347,0.0495743,21.0113,-332.038,-0.155781,0.0,0.0
1302,325.25,22.7126,23.0975,136.042,111.352,113.043,0.000431769,0.0495655,21.0121,-332.038,-0.134029,0.0,0.0
1309,327,22.1735,23.0828,138.903,111.338,113.766,0.000450488,0.049509,21.0119,-332.048,-0.1919,0.0,0.0
1316,328.75,22.7644,22.9538,139.353,111.331,113.669,0.000407979,0.0494843,21.0115,-332.028,-0.184813,0.0,0.0
1323,330.5,22.6874,23.407,136.583,111.328,113.05,0.000309771,0.0494696,21.0112,-332.028,-0.136548,0.0,0.0
1330,332.25,22.5712,23.7226,139.6,111.322,113.732,0.0001975,0.0494735,21.0121,-332.028,-0.190506,0.0,0.0
1337,334,22.3964,23.195,141.307,111.316,113.646,0.000148033,0.0494381,21.013,-332.018,-0.184183,0.0,0.0
1344,335.75,22.3699,23.308,139.385,111.317,113.312,0.000212667,0.0493675,21.0126,-332.028,-0.157981,0.0,0.0
1351,337.5,22.4594,22.9035,139.322,111.307,113.229,0.00034065,0.0494854,21.0125,-332.028,-0.152274,0.0,0.0
1358,339.25,22.3413,23.1899,140.084,111.322,113.534,0.000431232,0.0494912,21.0124,-332.018,-0.174919,0.0,0.0
1365,341,22.6451,23.1406,139.428,111.316,113.558,0.000466354,0.0494554,21.0124,-332.018,-0.177261,0.0,0.0
1372,342.75,22.3985,23.2502,136.154,111.334,113.375,0.000414875,0.0493642,21.012,-332.028,-0.161549,0.0,0.0
1379,344.5,22.8142,23.1414,139.833,111.313,113.106,0.000230781,0.0493707,21.0117,-332.028,-0.14214,0.0,0.0
1386,346.25,22.4295,23.3069,140.006,111.333,112.932,1.80482e-05,0.0493212,21.0116,-332.028,-0.126794,0.0,0.0
1393,348,22.396,23.2901,138.748,111.324,113.629,-6.16444e-05,0.049354,21.0115,-332.008,-0.182291,0.0,0.0
1400,349.75,22.246,23.1629,138.056,111.327,113.449,-6.21164e-05,0.0493264,21.0115,-332.018,-0.167947,0.0,0.0
1407,351.5,22.3574,22.9182,137.62,111.356,113.632,-8.4022e-05,0.0492367,21.0115,-332.018,-0.179957,0.0,0.0
1414,353.25,22.3341,23.0268,139.646,111.334,113.695,1.92027e-05,0.0493099,21.0118,-332.018,-0.186626,0.0,0.0
1421,355,22.2295,23.251,140.087,111.342,113.891,0.00022924,0.0493312,21.0117,-332.008,-0.201265,0.0,0.0
1428,356.75,22.6971,23.4077,143.237,111.35,113.037,0.000466856,0.049405,21.011,-332.028,-0.133734,0.0,0.0
1435,358.5,22.3453,23.1227,137.711,111.353,112.925,0.000577782,0.0493842,21.0106,-332.008,-0.124716,0.0,0.0
1442,360.25,22.3537,23.2599,139.174,111.351,113.671,0.000487478,0.0492921,21.0105,-332.018,-0.183381,0.0,0.0
1449,362,22.5222,23.6191,143.572,111.37,113.489,0.000298677,0.0492982,21.0104,-332.018,-0.167653,0.0,0.0
1456,363.75,22.703,23.1424,136.985,111.388,113.243,0.000121678,0.0494152,21.0104,-332.028,-0.146907,0.0,0.0
1463,365.5,22.3218,23.3962,141.415,111.383,113.634,4.11968e-05,0.0495184,21.0104,-332.038,-0.177944,0.0,0.0
1470,367.25,22.6244,22.982,138.671,111.394,113.094,3.68379e-05,0.0495935,21.0103,-332.048,-0.134695,0.0,0.0
1477,369,22.6167,23.0486,140.559,111.391,113.267,5.78698e-05,0.0495328,21.0091,-332.028,-0.148568,0.0,0.0
1484,370.75,22.1811,23.5934,137.676,111.403,113.674,9.06924e-05,0.0494873,21.0085,-332.028,-0.179457,0.0,0.0
1491,372.5,22.422,23.0858,136.437,111.403,113.779,0.000114388,0.0496146,21.0083,-332.028,-0.187603,0.0,0.0
1498,374.25,22.3502,23.2882,133.068,111.409,113.518,0.000146252,0.0496026,21.0089,-332.028,-0.166769,0.0,0.0
1505,376,22.3303,23.2336,137.218,111.399,114.082,0.000236165,0.0496218,21.0097,-332.028,-0.21161,0.0,0.0
1512,377.75,22.2339,23.0827,138.919,111.421,113.563,0.000298941,0.0496086,21.01,-332.028,-0.169294,0.0,0.0
1519,379.5,22.2128,23.4599,137.491,111.42,113.707,0.000287971,0.0496246,21.0107,-332.038,-0.180698,0.0,0.0
1526,381.25,22.5547,22.97,139.343,111.425,113.448,0.000255058,0.0496323,21.0112,-332.038,-0.160046,0.0,0.0
1533,383,22.7179,23.2164,138.474,111.426,113.557,0.000195574,0.0496281,21.0114,-332.038,-0.168455,0.0,0.0
1540,384.75,22.2613,23.0555,137.153,111.444,113.425,0.000139367,0.0497342,21.0114,-332.038,-0.156694,0.0,0.0
1547,386.5,22.4807,23.1884,136.496,111.461,113.477,8.98275e-05,0.0496804,21.0111,-332.038,-0.159382,0.0,0.0
1554,388.25,22.4064,23.3095,142.773,111.462,113.413,3.46078e-05,0.0495424,21.0109,-332.038,-0.154294,0.0,0.0
1561,390,22.5857,23.3099,140.609,111.474,113.386,-2.6281e-05,0.0495216,21.0109,-332.058,-0.151201,0.0,0.0
1568,391.75,22.4569,23.1389,138.343,111.478,113.523,-7.06877e-05,0.0495184,21.0108,-332.038,-0.16163,0.0,0.0
1575,393.5,22.6625,23.1277,139.406,111.492,113.507,-8.62931e-05,0.0495555,21.0108,-332.048,-0.159275,0.0,0.0
1582,395.25,22.6568,23.2584,140.232,111.512,113.505,-6.42427e-05,0.0495972,21.0111,-332.048,-0.157525,0.0,0.0
1589,397,22.7524,23.2721,138.513,111.511,113.677,4.69506e-07,0.0496179,21.0114,-332.038,-0.171117,0.0,0.0
1596,398.75,22.3474,23.4687,137.37,111.503,113.606,3.64144e-05,0.049562,21.0115,-332.048,-0.166164,0.0,0.0
1603,400.5,22.6309,23.8701,136.237,111.528,112.854,-1.97928e-05,0.0496415,21.0116,-332.038,-0.105108,0.0,0.0
1610,402.25,22.288,23.2094,134.189,111.526,113.508,-0.00015138,0.0497309,21.0114,-332.028,-0.156639,0.0,0.0
1617,404,22.3741,23.4258,137.382,111.533,113.962,-0.000235336,0.0496775,21.0104,-332.028,-0.19162,0.0,0.0
1624,405.75,22.545,23.3269,138.252,111.507,113.985,-0.000253539,0.0494267,21.0098,-332.038,-0.195469,0.0,0.0
1631,407.5,22.7265,23.0553,135.714,111.448,114.146,-0.000223375,0.049339,21.0092,-332.028,-0.212728,0.0,0.0
1638,409.25,22.2408,23.4698,141.301,111.404,113.333,-0.000168475,0.0493449,21.0089,-332.038,-0.152668,0.0,0.0
1645,411,22.1091,23.3489,139.574,111.384,113.026,-0.000119458,0.0493139,21.0099,-332.048,-0.130179,0.0,0.0
1652,412.75,22.506,23.1819,141.209,111.39,113.163,-7.85876e-05,0.0492953,21.0105,-332.038,-0.140418,0.0,0.0
1659,414.5,22.5087,23.2164,137.412,111.386,113.656,-5.01389e-07,0.0493112,21.0107,-332.038,-0.179437,0.0,0.0
1666,416.25,22.3052,23.013,138.017,111.389,113.817,9.16695e-05,0.0493655,21.0109,-332.028,-0.191816,0.0,0.0
1673,418,22.0827,23.1134,140.87,111.393,113.403,0.000130071,0.0494201,21.0109,-332.018,-0.158994,0.0,0.0
1680,419.75,22.6537,23.1992,137.914,111.378,113.188,0.000119185,0.0494728,21.011,-332.018,-0.143352,0.0,0.0
1687,421.5,22.4724,22.8498,137.04,111.392,113.406,0.000161231,0.049522,21.011,-332.028,-0.159345,0.0,0.0
1694,423.25,22.2803,23.0517,136.472,111.38,113.519,0.000289177,0.0494352,21.011,-332.028,-0.169205,0.0,0.0
1701,425,22.5985,23.3501,135.213,111.404,113.525,0.000382982,0.0494689,21.0114,-332.028,-0.167725,0.0,0.0
1708,426.75,22.3322,23.1537,147.416,111.389,113.72,0.00033751,0.0494448,21.0119,-332.048,-0.184192,0.0,0.0
1715,428.5,22.2831,23.1319,136.283,111.39,113.555,0.000198317,0.0494919,21.0121,-332.058,-0.171235,0.0,0.0
1722,430.25,22.5271,23.0909,144.13,111.391,112.978,0.00010398,0.0494722,21.0116,-332.048,-0.1258,0.0,0.0
1729,432,22.3916,23.016,136.846,111.392,113.304,5.2304e-05,0.0495217,21.0118,-332.048,-0.151372,0.0,0.0
1736,433.75,22.7254,23.1285,137.997,111.394,113.437,3.39194e-05,0.0495635,21.0115,-332.048,-0.161592,0.0,0.0
1743,435.5,22.3702,23.2143,141.198,111.395,113.545,0.000170696,0.0495949,21.0109,-332.038,-0.170004,0.0,0.0
1750,437.25,22.5953,23.3136,139.094,111.392,112.855,0.000339623,0.0496686,21.0108,-332.038,-0.116038,0.0,0.0
1757,439,22.5063,23.067,136.893,111.384,113.545,0.000385697,0.0496671,21.0104,-332.038,-0.170873,0.0,0.0
1764,440.75,22.1993,23.1602,136.563,111.392,113.282,0.000305809,0.0496924,21.0102,-332.048,-0.149616,0.0,0.0
1771,442.5,22.3154,23.1763,143.145,111.395,113.504,0.000185396,0.0496481,21.0101,-332.038,-0.166816,0.0,0.0
1778,444.25,22.6382,23.1337,135.747,111.389,113.436,0.000144016,0.0497309,21.01,-332.028,-0.161986,0.0,0.0
1785,446,22.2775,23.514,138.165,111.392,113.52,0.000135022,0.0498099,21.01,-332.038,-0.168304,0.0,0.0
1792,447.75,22.353,23.2683,134.453,111.403,113.571,0.000140938,0.0498125,21.0098,-332.038,-0.171343,0.0,0.0
1799,449.5,22.1924,23.3229,138.871,111.401,113.216,0.000168274,0.0495337,21.0089,-332.038,-0.143701,0.0,0.0
1806,451.25,22.3751,22.9617,137.158,111.406,113.472,0.000177506,0.0494663,21.0096,-332.038,-0.163398,0.0,0.0
1813,453,22.5635,23.1575,135.611,111.402,113.488,0.000184408,0.049471,21.01,-332.038,-0.165038,0.0,0.0
1820,454.75,22.0653,23.0506,140.318,111.416,113.662,0.000218547,0.0495311,21.0102,-332.038,-0.177488,0.0,0.0
1827,456.5,21.9592,23.4641,140.606,111.412,113.757,0.000225522,0.049555,21.0098,-332.048,-0.185207,0.0,0.0
1834,458.25,22.736,23.2891,141.434,111.416,113.366,0.000124861,0.0495224,21.0092,-332.048,-0.154318,0.0,0.0
1841,460,22.394,23.1851,141.741,111.414,113.482,-7.34315e-05,0.0495205,21.009,-332.068,-0.163584,0.0,0.0
1848,461.75,22.222,22.9708,140.754,111.416,113.206,-0.000173689,0.0495448,21.009,-332.048,-0.141712,0.0,0.0
1855,463.5,21.8504,23.0723,137.457,111.439,113.606,-0.000107597,0.049505,21.0089,-332.058,-0.171229,0.0,0.0
1862,465.25,22.6342,23.21,140.495,111.433,113.383,-3.336e-05,0.0494844,21.01,-332.048,-0.154331,0.0,0.0
1869,467,22.5053,22.9464,138.803,111.438,113.339,-3.95473e-05,0.0494522,21.0106,-332.058,-0.150428,0.0,0.0
1876,468.75,22.5722,23.4177,137.394,111.435,113.388,-0.000108741,0.049497,21.0109,-332.068,-0.154508,0.0,0.0
1883,470.5,22.2324,23.7204,138.152,111.45,113.289,-0.000153095,0.049533,21.0108,-332.058,-0.145578,0.0,0.0
1890,472.25,22.1955,23.2699,137.828,111.453,113.192,-0.000184547,0.0494734,21.0109,-332.048,-0.137663,0.0,0.0
1897,474,22.5525,23.816,137.724,111.47,113.343,-0.000206219,0.0494512,21.011,-332.058,-0.148178,0.0,0.0
1904,475.75,22.3101,23.427,141.469,111.456,112.958,-0.000227033,0.0494038,21.011,-332.048,-0.119061,0.0,0.0
1911,477.5,22.5573,23.1816,135.92,111.477,113.669,-0.000229289,0.0493979,21.011,-332.058,-0.173234,0.0,0.0
1918,479.25,22.4127,23.3522,138.254,111.479,113.612,-0.000176314,0.0494374,21.0111,-332.038,-0.168558,0.0,0.0
1925,481,22.2627,23.1236,139.078,111.486,113.478,-7.15027e-05,0.0495041,21.0115,-332.048,-0.157476,0.0,0.0
1932,482.75,22.557,23.2237,141.796,111.494,113.964,5.73686e-05,0.0494354,21.0117,-332.048,-0.194853,0.0,0.0
1939,484.5,22.493,23.6672,139.717,111.52,113.147,0.000111759,0.0495213,21.0118,-332.048,-0.128796,0.0,0.0
1946,486.25,22.0913,22.9933,141.475,111.529,113.053,0.000136385,0.0494584,21.0118,-332.038,-0.12068,0.0,0.0
1953,488,22.6453,23.1044,137.304,111.54,113.604,0.000148753,0.0494517,21.0118,-332.048,-0.163044,0.0,0.0
1960,489.75,22.5094,23.3382,136.705,111.555,113.411,0.00013172,0.0495564,21.0119,-332.048,-0.146681,0.0,0.0
1967,491.5,22.3639,23.1247,136.331,111.554,113.885,0.000103284,0.0494121,21.0109,-332.048,-0.183931,0.0,0.0
1974,493.25,22.9582,23.1097,137.252,111.584,113.815,8.69201e-05,0.0494348,21.0101,-332.048,-0.176064,0.0,0.0
1981,495,22.2608,23.111,141.057,111.621,113.583,0.000100521,0.0495753,21.0098,-332.058,-0.15498,0.0,0.0
1988,496.75,22.5912,22.8897,140.664,111.613,113.916,0.000140799,0.0494992,21.0095,-332.058,-0.181577,0.0,0.0
1995,498.5,22.7935,23.1178,140.105,111.633,114.123,0.000110275,0.0492965,21.0094,-332.068,-0.196195,0.0,0.0
2002,500.25,22.53,22.7589,141.047,111.655,114.062,2.15952e-06,0.0492617,21.0091,-332.058,-0.189672,0.0,0.0
2009,502,22.4914,22.9082,139.1,111.677,113.668,-5.2622e-05,0.0492171,21.0088,-332.058,-0.15714,0.0,0.0
2016,503.75,22.3613,23.0554,139.942,111.684,113.83,-6.2006e-05,0.0492194,21.0086,-332.048,-0.169276,0.0,0.0
2023,505.5,22.5597,23.0552,139.195,111.715,113.604,-9.34356e-05,0.0492271,21.0085,-332.058,-0.1491,0.0,0.0
2030,507.25,22.5989,23.4413,137.51,111.71,114.043,-9.36607e-05,0.0493452,21.0085,-332.058,-0.183762,0.0,0.0
2037,509,22.4033,22.8671,135.343,111.74,114.233,7.78782e-06,0.0493244,21.0085,-332.058,-0.196264,0.0,0.0
2044,510.75,22.8746,23.3003,139.535,111.757,114.43,0.00015967,0.0492982,21.0085,-332.068,-0.210151,0.0,0.0
2051,512.5,22.3192,23.5103,139.75,111.772,113.797,0.000249526,0.0493602,21.0085,-332.048,-0.159653,0.0,0.0
2058,514.25,22.1759,23.0777,141.871,111.787,113.622,0.00022729,0.0494044,21.0085,-332.048,-0.144827,0.0,0.0
2065,516,22.9194,23.5571,142.769,111.795,114.006,0.000189627,0.0494247,21.0088,-332.048,-0.17416,0.0,0.0
2072,517.75,22.6374,23.1557,140.603,111.823,113.918,0.000147677,0.0494216,21.0093,-332.068,-0.16506,0.0,0.0
2079,519.5,22.8945,22.9779,141.124,111.836,114.215,7.582e-05,0.0494788,21.0097,-332.078,-0.187192,0.0,0.0
2086,521.25,22.7522,23.6748,138.308,111.856,114.144,-4.04322e-05,0.0495226,21.0098,-332.068,-0.1801,0.0,0.0
2093,523,22.6034,23.1292,142.244,111.852,113.655,-0.000127639,0.0494444,21.0099,-332.078,-0.142178,0.0,0.0
2100,524.75,22.5421,23.0149,135.624,111.885,114.141,-0.000162878,0.0493628,21.01,-332.048,-0.17752,0.0,0.0
2107,526.5,22.6868,23.202,135.258,111.913,113.657,-0.000137524,0.0493543,21.01,-332.068,-0.137472,0.0,0.0
2114,528.25,22.6442,23.2064,140.049,111.936,113.889,-4.25781e-05,0.0493511,21.01,-332.048,-0.153788,0.0,0.0
2121,530,22.0488,23.5628,143.406,111.949,114.025,0.000131699,0.0495354,21.01,-332.058,-0.163367,0.0,0.0
2128,531.75,22.4902,23.6175,139.787,111.977,113.606,0.000323148,0.0496758,21.01,-332.058,-0.128492,0.0,0.0
2135,533.5,22.6772,23.0212,137.092,112.002,113.797,0.000456175,0.049686,21.01,-332.048,-0.141456,0.0,0.0
2142,535.25,21.9844,23.7846,139.415,112.023,113.793,0.000409291,0.0496219,21.01,-332.068,-0.139447,0.0,0.0
2149,537,22.5481,23.5602,139.586,112.04,113.721,0.000266888,0.0495913,21.01,-332.038,-0.132397,0.0,0.0
2156,538.75,22.5877,22.6938,139.876,112.066,114.337,0.000246171,0.0496014,21.0093,-332.058,-0.178385,0.0,0.0
2163,540.5,22.5524,23.7251,139.648,112.084,114.111,0.000375861,0.0494499,21.0078,-332.048,-0.159451,0.0,0.0
2170,542.25,22.9815,23.595,138.924,112.118,114.403,0.000502612,0.0494924,21.0078,-332.048,-0.179421,0.0,0.0
2177,544,22.9222,23.1646,143.246,112.133,114.072,0.000532431,0.0494921,21.0083,-332.048,-0.152517,0.0,0.0
2184,545.75,22.8603,22.733,138.695,112.158,113.994,0.000418031,0.0494538,21.0085,-332.048,-0.144363,0.0,0.0
2191,547.5,22.6446,23.2613,141.003,112.197,113.965,0.000261953,0.0494939,21.0086,-332.058,-0.139048,0.0,0.0
2198,549.25,22.3575,22.8259,139.127,112.238,114.009,0.000105284,0.0495934,21.0086,-332.058,-0.139187,0.0,0.0
2205,551,22.166,23.3254,140.621,112.248,114.147,2.83872e-05,0.0495189,21.0087,-332.068,-0.149172,0.0,0.0
2212,552.75,22.3961,23.796,140.24,112.258,114.023,3.9983e-05,0.0493698,21.0087,-332.038,-0.138716,0.0,0.0
2219,554.5,22.4898,23.0521,144.44,112.285,114.341,9.83497e-05,0.049272,21.0091,-332.048,-0.16141,0.0,0.0
2226,556.25,22.9178,23.4572,137.362,112.31,114.331,0.000138907,0.0492156,21.0093,-332.048,-0.158648,0.0,0.0
2233,558,23.0649,23.3906,139.611,112.329,114.015,0.0001714,0.0493266,21.0094,-332.048,-0.13252,0.0,0.0
2240,559.75,22.2604,23.0894,139.79,112.347,114.638,0.000239037,0.0493633,21.0095,-332.048,-0.179508,0.0,0.0
2247,561.5,22.2261,23.5748,137.377,112.358,114.81,0.000296071,0.0494319,21.0096,-332.048,-0.191961,0.0,0.0
2254,563.25,22.8025,23.5236,138.515,112.4,114.905,0.000312551,0.0493971,21.0098,-332.058,-0.195982,0.0,0.0
2261,565,22.472,22.9449,135.938,112.398,114.615,0.000326849,0.0492836,21.0099,-332.048,-0.173679,0.0,0.0
2268,566.75,22.3728,23.0699,140.39,112.416,115.283,0.000363083,0.0492728,21.0099,-332.068,-0.223977,0.0,0.0
2275,568.5,22.236,23.509,137.668,112.421,114.312,0.00032728,0.0494202,21.01,-332.058,-0.148318,0.0,0.0
2282,570.25,22.3937,22.9591,141.892,112.434,114.365,0.000210342,0.0494223,21.01,-332.048,-0.15146,0.0,0.0
2289,572,22.5131,23.242,140.84,112.465,114.087,6.55985e-05,0.049329,21.01,-332.048,-0.12734,0.0,0.0
2296,573.75,22.3632,23.1028,137.856,112.477,114.139,-5.03635e-05,0.0493321,21.01,-332.058,-0.130455,0.0,0.0
2303,575.5,22.4671,22.8582,138.573,112.478,114.519,-0.000138302,0.0492677,21.0096,-332.078,-0.159947,0.0,0.0
2310,577.25,22.7328,23.3647,136.924,112.491,114.434,-0.000161904,0.0493842,21.0093,-332.068,-0.152276,0.0,0.0
2317,579,22.5619,23.0908,142.998,112.519,114.353,-0.0001464,0.0493268,21.0092,-332.068,-0.143736,0.0,0.0
2324,580.75,22.4391,23.1393,139.508,112.519,114.424,-0.00012165,0.0492497,21.0092,-332.058,-0.149378,0.0,0.0
2331,582.5,22.9282,22.9055,141.818,112.543,114.499,-0.000110343,0.0492072,21.0092,-332.068,-0.153247,0.0,0.0
2338,584.25,22.6951,22.8846,141.053,112.543,114.432,-0.000106023,0.0492455,21.009,-332.058,-0.148032,0.0,0.0
2345,586,22.3618,23.421,139.818,112.574,114.591,-0.000114008,0.0493358,21.0091,-332.058,-0.157916,0.0,0.0
2352,587.75,22.4967,23.3119,136.843,112.588,114.601,-0.000132431,0.0493524,21.0093,-332.068,-0.157591,0.0,0.0
2359,589.5,22.489,23.2527,136.756,112.607,114.848,-0.000134581,0.0492888,21.0094,-332.048,-0.175271,0.0,0.0
2366,591.25,22.0656,23.9581,139.241,112.616,114.619,-0.000107864,0.0492456,21.0095,-332.038,-0.156826,0.0,0.0
2373,593,22.2518,23.349,138.549,112.626,114.351,-7.11115e-05,0.0492185,21.0095,-332.048,-0.135164,0.0,0.0
2380,594.75,22.7048,23.3457,137.72,112.64,114.622,-7.41236e-05,0.0492496,21.0095,-332.058,-0.155129,0.0,0.0
2387,596.5,22.1856,23.3616,141.019,112.653,115.103,-9.03155e-05,0.0492826,21.0095,-332.068,-0.191347,0.0,0.0
2394,598.25,22.3639,23.1187,138.95,112.666,114.402,-0.000105786,0.0493395,21.0095,-332.068,-0.136,0.0,0.0
2401,600,22.5042,23.5376,138.817,112.67,114.685,-0.000111688,0.0493995,21.0083,-332.078,-0.157654,0.0,0.0
2408,601.75,22.1163,22.8074,140.33,112.686,114.522,-0.00017388,0.0494077,21.008,-332.068,-0.143743,0.0,0.0
2415,603.5,21.2114,22.1345,138.513,112.695,114.821,-0.000198318,0.0494523,21.0087,-332.088,-0.166165,0.0,0.0
2422,605.25,21.1871,22.6526,139.094,112.684,114.45,-0.000145391,0.0493806,21.0091,-332.068,-0.138285,0.0,0.0
2429,607,21.6746,22.3353,135.851,112.705,114.372,-2.75077e-05,0.0492398,21.0093,-332.068,-0.130592,0.0,0.0
2436,608.75,21.4236,22.8328,137.253,112.711,114.619,7.90444e-05,0.049316,21.009,-332.068,-0.14931,0.0,0.0
2443,610.5,21.2577,22.7731,138.482,112.724,115.143,0.000138968,0.0493197,21.0088,-332.068,-0.18883,0.0,0.0
2450,612.25,21.4057,22.1211,136.035,112.735,115.12,0.00018132,0.0494351,21.0078,-332.068,-0.186166,0.0,0.0
2457,614,21.5767,22.1875,136.285,112.737,114.634,0.000229713,0.0494663,21.007,-332.068,-0.148413,0.0,0.0
2464,615.75,21.3353,22.8566,137.598,112.733,114.508,0.000205044,0.0494797,21.0067,-332.068,-0.138993,0.0,0.0
2471,617.5,21.7785,22.4346,139.223,112.745,114.814,0.000181656,0.049539,21.0065,-332.068,-0.161718,0.0,0.0
2478,619.25,21.7692,22.3799,138.416,112.756,115.189,0.00026518,0.0495841,21.0064,-332.068,-0.189862,0.0,0.0
2485,621,21.6367,22.0959,137.488,112.752,114.671,0.00033816,0.0495557,21.0064,-332.058,-0.150115,0.0,0.0
2492,622.75,21.3126,22.7522,137.931,112.743,114.512,0.000313947,0.0495016,21.0064,-332.058,-0.138482,0.0,0.0
2499,624.5,21.614,22.5625,138.422,112.751,114.462,0.000231054,0.0494573,21.0064,-332.058,-0.13397,0.0,0.0
2506,626.25,21.8012,22.4088,135.007,112.769,114.491,0.000164531,0.0494158,21.0064,-332.058,-0.13479,0.0,0.0
2513,628,21.7679,22.5861,143.417,112.776,114.589,0.000134655,0.0494313,21.0074,-332.078,-0.141829,0.0,0.0
2520,629.75,21.6077,21.9306,139.024,112.756,115.333,0.000166328,0.0494333,21.0071,-332.068,-0.200994,0.0,0.0
2527,631.5,21.4722,22.6224,137.015,112.744,114.337,0.00027632,0.049364,21.0077,-332.058,-0.124748,0.0,0.0
2534,633.25,21.8566,22.3279,134.729,112.759,114.9,0.000362717,0.0493353,21.0084,-332.068,-0.167295,0.0,0.0
2541,635,21.521,21.9984,138.207,112.754,114.759,0.000378716,0.0493517,21.0087,-332.058,-0.156787,0.0,0.0
2548,636.75,21.3343,22.5693,136.942,112.761,114.51,0.000379291,0.0493656,21.0088,-332.078,-0.136894,0.0,0.0
2555,638.5,21.3792,22.6476,140.571,112.743,115.028,0.000327491,0.0492503,21.0089,-332.048,-0.17845,0.0,0.0
2562,640.25,21.8011,22.6102,137.93,112.745,114.585,0.000232301,0.0492371,21.0089,-332.058,-0.143985,0.0,0.0
2569,642,21.4832,22.4592,139.587,112.755,114.631,5.7943e-05,0.0493508,21.009,-332.068,-0.14675,0.0,0.0
2576,643.75,21.7539,22.4995,138.971,112.733,114.572,-0.00011181,0.0493862,21.009,-332.058,-0.143924,0.0,0.0
2583,645.5,21.0462,22.4937,133.752,112.725,114.738,-0.000123921,0.049383,21.009,-332.058,-0.157386,0.0,0.0
2590,647.25,21.3438,22.4077,142.81,112.699,114.426,-4.26567e-05,0.049424,21.009,-332.048,-0.135169,0.0,0.0
2597,649,21.6763,22.2415,136.723,112.691,114.809,8.67671e-05,0.0494212,21.0091,-332.028,-0.165543,0.0,0.0
2604,650.75,21.2182,22.6215,138.333,112.685,115.003,0.000166837,0.0493526,21.0095,-332.058,-0.181032,0.0,0.0
2611,652.5,21.5675,21.9252,142.773,112.664,114.579,0.000218199,0.0492746,21.0097,-332.058,-0.149919,0.0,0.0
2618,654.25,21.3659,22.4162,141.571,112.663,114.441,0.000250151,0.0492898,21.0086,-332.078,-0.139292,0.0,0.0
2625,656,21.6503,22.5504,137.531,112.643,115.082,0.000264768,0.0493968,21.0078,-332.058,-0.190486,0.0,0.0
2632,657.75,21.9476,22.3309,137.546,112.627,115.144,0.00034882,0.0493888,21.0074,-332.058,-0.196528,0.0,0.0
2639,659.5,21.6954,22.2924,136.057,112.602,114.968,0.000475264,0.0493507,21.0072,-332.068,-0.184983,0.0,0.0
2646,661.25,21.8088,22.3634,137.691,112.582,114.726,0.000499669,0.0493167,21.0071,-332.058,-0.167788,0.0,0.0
2653,663,21.054,22.4741,143.622,112.563,114.444,0.000338084,0.0492574,21.007,-332.068,-0.147368,0.0,0.0
2660,664.75,21.6248,22.8506,138.735,112.553,114.469,0.000175751,0.0491929,21.007,-332.068,-0.15009,0.0,0.0
2667,666.5,21.6269,22.3467,139.519,112.533,114.675,0.000102277,0.0491997,21.007,-332.058,-0.167646,0.0,0.0
2674,668.25,21.8777,22.2383,141.705,112.529,114.732,6.42205e-05,0.0491149,21.007,-332.048,-0.17242,0.0,0.0
2681,670,21.2961,22.2995,140.49,112.486,114.476,-1.30237e-05,0.0490251,21.007,-332.048,-0.155911,0.0,0.0
2688,671.75,22.3391,22.6587,140.335,112.485,114.675,-0.000146262,0.0491727,21.0066,-332.068,-0.171441,0.0,0.0
2695,673.5,21.6399,22.2583,141.612,112.465,114.322,-0.000163717,0.0491503,21.0064,-332.078,-0.145662,0.0,0.0
2702,675.25,21.6039,22.3389,138.77,112.454,114.327,-4.44796e-05,0.0492073,21.0063,-332.078,-0.146918,0.0,0.0
2709,677,21.5508,22.4525,138.52,112.433,114.288,0.000129341,0.0491068,21.0064,-332.078,-0.145563,0.0,0.0
2716,678.75,21.9515,22.4228,139.737,112.423,114.144,0.000263758,0.0490579,21.0067,-332.078,-0.135155,0.0,0.0
2723,680.5,21.7956,22.1881,139.525,112.422,114.372,0.000363375,0.0491541,21.0069,-332.068,-0.15287,0.0,0.0
2730,682.25,21.4299,22.5816,139.351,112.416,114.664,0.000456224,0.0492069,21.0069,-332.058,-0.1761,0.0,0.0
2737,684,21.524,22.6286,143.234,112.396,114.456,0.000443051,0.049254,21.007,-332.068,-0.161544,0.0,0.0
2744,685.75,21.8368,22.4278,140.311,112.391,114.888,0.000302264,0.0493023,21.007,-332.058,-0.195402,0.0,0.0
2751,687.5,21.8516,22.1774,137.659,112.399,114.681,0.000116214,0.0493253,21.007,-332.048,-0.178731,0.0,0.0
2758,689.25,21.7992,22.5007,143.748,112.391,114.521,-2.61816e-05,0.0492618,21.007,-332.058,-0.166992,0.0,0.0
2765,691,21.4124,22.196,141.198,112.378,114.266,-0.000119847,0.0492855,21.007,-332.058,-0.148163,0.0,0.0
2772,692.75,21.2417,22.1739,138.328,112.349,113.917,-0.000128927,0.0493181,21.007,-332.058,-0.123248,0.0,0.0
2779,694.5,21.9858,22.5691,139.681,112.346,114.529,-5.37316e-05,0.0492065,21.007,-332.058,-0.171176,0.0,0.0
2786,696.25,21.4783,22.2028,140.671,112.323,114.738,-2.58203e-05,0.0491119,21.007,-332.048,-0.18917,0.0,0.0
2793,698,21.4812,22.9524,136.683,112.314,114.424,-3.42425e-05,0.0490669,21.007,-332.058,-0.165591,0.0,0.0
2800,699.75,21.6163,22.5801,138.003,112.288,114.189,-2.60982e-05,0.0491595,21.0074,-332.078,-0.149298,0.0,0.0
2807,701.5,21.7323,22.2855,139.727,112.265,114.211,-3.65447e-05,0.0491136,21.0079,-332.078,-0.152867,0.0,0.0
2814,703.25,21.4341,22.607,136.006,112.268,114.464,-3.1393e-05,0.0490972,21.0085,-332.058,-0.172224,0.0,0.0
2821,705,21.6288,22.438,138.078,112.244,114.186,-6.40919e-06,0.0491077,21.0089,-332.048,-0.152544,0.0,0.0
2828,706.75,21.642,22.2588,140.078,112.229,114.379,4.04588e-05,0.049135,21.009,-332.078,-0.168754,0.0,0.0
2835,708.5,21.5319,22.5109,137.307,112.211,114.536,6.3178e-05,0.0491648,21.0091,-332.058,-0.182355,0.0,0.0
2842,710.25,21.5249,22.4781,141.742,112.203,114.378,,0.0491734,,-332.068,-0.170686,0.0,0.0
2849,712,21.6545,22.2077,136.936,112.206,114.314,,0.0491687,,-332.068,-0.165527,0.0,0.0
2856,713.75,22.2569,22.3554,136.588,112.181,114.258,,,,-332.068,-0.163157,0.0,0.0
2863,715.5,21.3971,22.0853,138.262,112.177,114.069,,,,-332.068,-0.148715,0.0,0.0
2870,717.25,21.7374,22.7449,140.395,112.178,114.45,,,,-332.078,-0.178312,0.0,0.0
2877,719,22.0569,22.5311,139.548,112.168,114.625,,,,-332.078,-0.192747,0.0,0.0
2884,720.75,21.7822,22.7564,137.978,112.163,114.52,,,,-332.068,-0.184978,0.0,0.0
2885,721,21.9814,22.4132,137.841,112.183,114.233,,,,-332.078,-0.161,0.0,0.0