File: 01_Data/LW_GypBoard_Unpainted_Paper/STA/N2/30K_min/Lw_Gypsum_Paper_STA_N2_30KData_220203_R1.csv
##Temp./Â°C,Time/min,DSC(subtr.2)/(mW/mg),Mass loss(subtr.2)/mg,Sensit./(uV/mW)
48.727,10.01,0.01695375,-0.01536,1.08895
49.327,10.5281,0.04904411,-0.01556185,1.08844
49.927,10.64585,0.07830305,-0.01532041,1.08794
50.527,10.73068,0.10388,-0.01581215,1.08743
51.127,10.79852,0.1283,-0.01602113,1.08693
51.727,10.85811,0.15119,-0.01727354,1.08642
52.327,10.9111,0.17339,-0.01627127,1.08592
52.927,10.95931,0.19441,-0.01572438,1.08542
53.527,11.00383,0.21422,-0.01584859,1.08491
54.127,11.0452,0.23449,-0.01563129,1.08441
54.727,11.0844,0.25121,-0.01618282,1.08391
55.327,11.12205,0.26781,-0.01604005,1.08341
55.927,11.15803,0.28672,-0.0157453,1.08291
56.527,11.1923,0.30103,-0.01627015,1.08241
57.127,11.22516,0.31712,-0.01710135,1.08191
57.727,11.25721,0.33083,-0.01700035,1.08142
58.327,11.2886,0.34689,-0.01703946,1.08092
58.927,11.31908,0.36013,-0.01630872,1.08042
59.527,11.34873,0.37415,-0.01635506,1.07993
60.127,11.37775,0.38852,-0.0172219,1.07943
60.727,11.40617,0.40129,-0.01787507,1.07893
61.327,11.43403,0.41207,-0.01728469,1.07844
61.927,11.46139,0.42657,-0.01691975,1.07795
62.527,11.48829,0.43873,-0.01729133,1.07745
63.127,11.51475,0.44944,-0.01664584,1.07696
63.727,11.54092,0.46083,-0.0164547,1.07647
64.327,11.56657,0.47085,-0.01613729,1.07598
64.927,11.59196,0.48206,-0.01563505,1.07549
65.527,11.61712,0.49309,-0.01579476,1.075
66.127,11.64208,0.50235,-0.01629997,1.07451
66.727,11.6667,0.51241,-0.01657675,1.07402
67.327,11.6912,0.52146,-0.01707047,1.07353
67.927,11.71535,0.53215,-0.01715002,1.07305
68.527,11.7393,0.54245,-0.01855859,1.07256
69.127,11.76308,0.55191,-0.01831253,1.07207
69.727,11.7866,0.55939,-0.01642636,1.07159
70.327,11.81,0.57019,-0.01634988,1.0711
70.927,11.8332,0.57719,-0.01523761,1.07062
71.527,11.85633,0.58722,-0.01542281,1.07013
72.127,11.87922,0.5959,-0.01636247,1.06965
72.727,11.90198,0.60196,-0.01683426,1.06917
73.327,11.92474,0.61135,-0.01725296,1.06869
73.927,11.9473,0.62094,-0.01649309,1.06821
74.527,11.96991,0.62807,-0.0171197,1.06772
75.127,11.99243,0.63599,-0.01679689,1.06724
75.727,12.01474,0.6461,-0.01702663,1.06677
76.327,12.037,0.65217,-0.01795406,1.06629
76.927,12.05922,0.66206,-0.01812283,1.06581
77.527,12.08116,0.66899,-0.01864069,1.06533
78.127,12.10316,0.67502,-0.01909116,1.06485
78.727,12.12492,0.68392,-0.01830043,1.06438
79.327,12.14663,0.69068,-0.01805897,1.0639
79.927,12.16823,0.69967,-0.01892179,1.06343
80.527,12.18988,0.70493,-0.01787616,1.06295
81.127,12.21159,0.71337,-0.01898482,1.06248
81.727,12.23316,0.72143,-0.01941665,1.06201
82.327,12.25483,0.72922,-0.02035865,1.06153
82.927,12.27621,0.73869,-0.02087277,1.06106
83.527,12.29754,0.74458,-0.02090353,1.06059
84.127,12.3188,0.75115,-0.02129017,1.06012
84.727,12.33998,0.7591,-0.02227083,1.05965
85.327,12.3611,0.76873,-0.02092023,1.05918
85.927,12.38215,0.77638,-0.02090491,1.05871
86.527,12.40323,0.78318,-0.02212615,1.05824
87.127,12.4242,0.79049,-0.02194117,1.05778
87.727,12.44515,0.79844,-0.02236322,1.05731
88.327,12.46611,0.80662,-0.02228615,1.05684
88.927,12.48692,0.81594,-0.02226915,1.05638
89.527,12.50775,0.82208,-0.02226421,1.05591
90.127,12.52861,0.83142,-0.02349462,1.05545
90.727,12.54927,0.83789,-0.02360356,1.05498
91.327,12.57,0.84746,-0.02227,1.05452
91.927,12.5908,0.85427,-0.02359325,1.05406
92.527,12.6115,0.86458,-0.02364496,1.05359
93.127,12.6321,0.87212,-0.02494339,1.05313
93.727,12.6527,0.88109,-0.02492391,1.05267
94.327,12.67323,0.88897,-0.02631594,1.05221
94.927,12.6937,0.90067,-0.02622696,1.05175
95.527,12.71428,0.90856,-0.02622003,1.05129
96.127,12.73479,0.91835,-0.02621291,1.05083
96.727,12.75527,0.92702,-0.02710363,1.05038
97.327,12.7757,0.93672,-0.0275095,1.04992
97.927,12.79603,0.94599,-0.02754251,1.04946
98.527,12.8164,0.95494,-0.02789868,1.04901
99.127,12.8368,0.96472,-0.02888348,1.04855
99.727,12.85719,0.97419,-0.02884858,1.0481
100.327,12.8775,0.98239,-0.02880258,1.04764
100.927,12.89765,0.99018,-0.03007123,1.04719
101.527,12.91772,0.99947,-0.03016069,1.04673
102.127,12.93797,1.00824,-0.03012851,1.04628
102.727,12.95824,1.01432,-0.03141058,1.04583
103.327,12.97863,1.02199,-0.03147593,1.04538
103.927,12.9992,1.02843,-0.03147558,1.04493
104.527,13.01958,1.03506,-0.03144586,1.04448
105.127,13.0398,1.04105,-0.034113,1.04403
105.727,13.05993,1.0457,-0.03412037,1.04358
106.327,13.0801,1.0516,-0.03478942,1.04313
106.927,13.10028,1.05386,-0.035439,1.04268
107.527,13.1205,1.06003,-0.03678437,1.04224
108.127,13.1406,1.06386,-0.03676182,1.04179
108.727,13.1608,1.06617,-0.03675312,1.04134
109.327,13.18096,1.06845,-0.03749415,1.0409
109.927,13.2009,1.07125,-0.0381206,1.04046
110.527,13.22109,1.07171,-0.03938225,1.04001
111.127,13.24129,1.07437,-0.03982957,1.03957
111.727,13.2614,1.07331,-0.04068354,1.03912
112.327,13.2816,1.07514,-0.04069872,1.03868
112.927,13.30185,1.07455,-0.04069972,1.03824
113.527,13.3218,1.07561,-0.04069755,1.0378
114.127,13.3419,1.07424,-0.04066435,1.03736
114.727,13.362,1.07561,-0.04183225,1.03692
115.327,13.3821,1.07442,-0.04201415,1.03648
115.927,13.40211,1.07359,-0.04195774,1.03604
116.527,13.4222,1.07265,-0.04399625,1.0356
117.127,13.44217,1.07095,-0.04462717,1.03517
117.727,13.4622,1.06801,-0.04463906,1.03473
118.327,13.4822,1.06679,-0.04463993,1.03429
118.927,13.50221,1.06586,-0.04463994,1.03386
119.527,13.5221,1.06412,-0.04463919,1.03342
120.127,13.5421,1.06344,-0.04462899,1.03299
120.727,13.56204,1.06117,-0.04561812,1.03255
121.327,13.582,1.05827,-0.04739924,1.03212
121.927,13.6018,1.0577,-0.04746245,1.03169
122.527,13.62165,1.05596,-0.04874478,1.03125
123.127,13.6415,1.05186,-0.04868535,1.03082
123.727,13.66128,1.0495,-0.04979609,1.03039
124.327,13.6811,1.04603,-0.0500294,1.02996
124.927,13.70089,1.04318,-0.05003401,1.02953
125.527,13.72065,1.04172,-0.05007075,1.0291
126.127,13.7404,1.04053,-0.05134165,1.02867
126.727,13.76007,1.03729,-0.05134002,1.02825
127.327,13.7798,1.03372,-0.05134001,1.02782
127.927,13.7996,1.03371,-0.05134043,1.02739
128.527,13.8193,1.03482,-0.05134944,1.02696
129.127,13.83891,1.03291,-0.05222225,1.02654
129.727,13.8586,1.02841,-0.0526519,1.02611
130.327,13.8782,1.02778,-0.0526498,1.02569
130.927,13.89785,1.02656,-0.05264414,1.02526
131.527,13.91746,1.0258,-0.05376981,1.02484
132.127,13.9371,1.02456,-0.05395484,1.02442
132.727,13.9566,1.02385,-0.05396873,1.024
133.327,13.9761,1.0218,-0.05396991,1.02357
133.927,13.9956,1.02292,-0.05397013,1.02315
134.527,14.0152,1.02273,-0.05397183,1.02273
135.127,14.03471,1.02099,-0.05402847,1.02231
135.727,14.0542,1.02028,-0.05538625,1.02189
136.327,14.07363,1.01732,-0.055297,1.02147
136.927,14.093,1.01539,-0.05529049,1.02105
137.527,14.11236,1.01327,-0.05529006,1.02064
138.127,14.13171,1.01059,-0.05529033,1.02022
138.727,14.1511,1.00792,-0.05529268,1.0198
139.327,14.1704,1.00769,-0.05530223,1.01939
139.927,14.1897,1.00265,-0.05660123,1.01897
140.527,14.20907,1.00055,-0.05660741,1.01856
141.127,14.2284,0.99687,-0.05660445,1.01814
141.727,14.24779,0.99182,-0.05652092,1.01773
142.327,14.26714,0.98846,-0.05765088,1.01731
142.927,14.28641,0.9844,-0.0575955,1.0169
143.527,14.3056,0.97973,-0.05759047,1.01649
144.127,14.32487,0.97849,-0.05759004,1.01608
144.727,14.3441,0.97297,-0.05759,1.01567
145.327,14.36338,0.96949,-0.05758999,1.01526
145.927,14.3826,0.96624,-0.05758986,1.01485
146.527,14.4018,0.96601,-0.05758869,1.01444
147.127,14.42097,0.96026,-0.05758094,1.01403
147.727,14.44006,0.95842,-0.0582547,1.01362
148.327,14.45919,0.95483,-0.05890726,1.01321
148.927,14.47826,0.9523,-0.05890151,1.0128
149.527,14.49738,0.94847,-0.05890499,1.0124
150.127,14.5165,0.94778,-0.05787663,1.01199
150.727,14.53563,0.9438,-0.0574225,1.01159
151.327,14.55463,0.94309,-0.05726448,1.01118
151.927,14.5738,0.9404,-0.05797495,1.01078
152.527,14.59286,0.94102,-0.05854541,1.01037
153.127,14.61201,0.9383,-0.05856854,1.00997
153.727,14.63105,0.93911,-0.05857012,1.00957
154.327,14.6502,0.93725,-0.05857047,1.00916
154.927,14.6692,0.93476,-0.05854945,1.00876
155.527,14.68825,0.93341,-0.05982041,1.00836
156.127,14.70718,0.9303,-0.05988213,1.00796
156.727,14.72623,0.93102,-0.05988971,1.00756
157.327,14.74513,0.93032,-0.05989616,1.00716
157.927,14.7641,0.93174,-0.05996349,1.00676
158.527,14.7829,0.93224,-0.05867613,1.00636
159.127,14.8018,0.93157,-0.05933358,1.00596
159.727,14.8207,0.93111,-0.05955384,1.00557
160.327,14.83968,0.93053,-0.05988308,1.00517
160.927,14.8586,0.93173,-0.05989636,1.00477
161.527,14.87759,0.93185,-0.06034978,1.00438
162.127,14.8965,0.93537,-0.06124666,1.00398
162.727,14.9154,0.93294,-0.06121333,1.00359
163.327,14.93425,0.93472,-0.06121026,1.00319
163.927,14.95311,0.93444,-0.06121,1.0028
164.527,14.97194,0.93629,-0.06120981,1.00241
165.127,14.9908,0.93775,-0.06120903,1.00201
165.727,15.00964,0.93822,-0.06151054,1.00162
166.327,15.0285,0.93848,-0.06255772,1.00123
166.927,15.0473,0.94111,-0.06253384,1.00084
167.527,15.06606,0.94341,-0.06253042,1.00045
168.127,15.08486,0.94349,-0.06253026,1.00006
168.727,15.1037,0.94444,-0.06253245,0.99967
169.327,15.12248,0.94285,-0.06193073,0.99928
169.927,15.1413,0.94343,-0.06199209,0.99889
170.527,15.16001,0.94708,-0.06252993,0.9985
171.127,15.1787,0.9471,-0.06253018,0.99811
171.727,15.1974,0.94942,-0.06251734,0.99773
172.327,15.216,0.95156,-0.06219065,0.99734
172.927,15.2348,0.95179,-0.06116071,0.99695
173.527,15.2536,0.9504,-0.06120557,0.99657
174.127,15.27242,0.95331,-0.06120325,0.99618
174.727,15.2911,0.95607,-0.06117002,0.9958
175.327,15.3099,0.95854,-0.05990418,0.99542
175.927,15.3285,0.95629,-0.059904,0.99503
176.527,15.3471,0.96095,-0.05990034,0.99465
177.127,15.3656,0.96231,-0.05989639,0.99427
177.727,15.38429,0.96573,-0.05985654,0.99389
178.327,15.40284,0.96428,-0.06079126,0.9935
178.927,15.4214,0.96723,-0.06120105,0.99312
179.527,15.44,0.96758,-0.06120998,0.99274
180.127,15.45873,0.97041,-0.06121006,0.99236
180.727,15.47734,0.97161,-0.06121002,0.99198
181.327,15.49595,0.97406,-0.06121013,0.9916
181.927,15.5145,0.97455,-0.06121162,0.99123
182.527,15.5331,0.97625,-0.06122601,0.99085
183.127,15.55163,0.97844,-0.06132684,0.99047
183.727,15.5701,0.98122,-0.06253049,0.99009
184.327,15.5887,0.98267,-0.06252955,0.98972
184.927,15.60726,0.98385,-0.06252993,0.98934
185.527,15.6258,0.98396,-0.06252999,0.98897
186.127,15.6443,0.98489,-0.06252992,0.98859
186.727,15.66278,0.98757,-0.06252924,0.98822
187.327,15.68118,0.98825,-0.06252585,0.98784
187.927,15.6997,0.98807,-0.0625422,0.98747
188.527,15.7182,0.98996,-0.06184463,0.9871
189.127,15.73659,0.99223,-0.0618665,0.98672
189.727,15.75504,0.99382,-0.06186968,0.98635
190.327,15.7735,0.9945,-0.06187014,0.98598
190.927,15.7919,0.99671,-0.06187122,0.98561
191.527,15.8103,0.99785,-0.06187248,0.98524
192.127,15.82872,1.00092,-0.06177007,0.98487
192.727,15.84715,1.00231,-0.06386806,0.9845
193.327,15.86559,1.00463,-0.06385278,0.98413
193.927,15.8839,1.00584,-0.06385023,0.98376
194.527,15.90231,1.00704,-0.06384995,0.98339
195.127,15.92075,1.00753,-0.06384975,0.98302
195.727,15.93914,1.00908,-0.06385305,0.98266
196.327,15.9575,1.01212,-0.06393816,0.98229
196.927,15.976,1.01323,-0.06257207,0.98192
197.527,15.9944,1.01375,-0.06253239,0.98156
198.127,16.0128,1.01568,-0.06253541,0.98119
198.727,16.03121,1.018,-0.06255996,0.98083
199.327,16.04956,1.01911,-0.06286341,0.98046
199.927,16.06793,1.01843,-0.06290013,0.9801
200.527,16.08626,1.02169,-0.06165653,0.97973
201.127,16.10465,1.0248,-0.06243361,0.97937
201.727,16.12298,1.02536,-0.06252676,0.97901
202.327,16.1413,1.02411,-0.06252989,0.97864
202.927,16.15965,1.02809,-0.06252991,0.97828
203.527,16.17803,1.02832,-0.06252448,0.97792
204.127,16.19635,1.02838,-0.06353923,0.97756
204.727,16.21465,1.03193,-0.06384816,0.9772
205.327,16.23304,1.03221,-0.06409734,0.97684
205.927,16.25133,1.03444,-0.06516349,0.97648
206.527,16.26962,1.03492,-0.06516018,0.97612
207.127,16.288,1.03806,-0.06517477,0.97576
207.727,16.3062,1.03937,-0.06557702,0.9754
208.327,16.32447,1.04069,-0.06579195,0.97505
208.927,16.3428,1.04202,-0.06580875,0.97469
209.527,16.3611,1.04053,-0.06580994,0.97433
210.127,16.3794,1.0418,-0.06581005,0.97398
210.727,16.3979,1.04688,-0.06581152,0.97362
211.327,16.41621,1.04694,-0.06591498,0.97326
211.927,16.43451,1.05011,-0.06722515,0.97291
212.527,16.45275,1.05129,-0.06713655,0.97255
213.127,16.47103,1.05187,-0.0671303,0.9722
213.727,16.48926,1.05245,-0.06712965,0.97185
214.327,16.50749,1.05276,-0.06698016,0.97149
214.927,16.5258,1.05613,-0.0660594,0.97114
215.527,16.54404,1.05778,-0.06718484,0.97079
216.127,16.56234,1.06129,-0.0671405,0.97043
216.727,16.5806,1.06029,-0.06713283,0.97008
217.327,16.59891,1.06257,-0.06774371,0.96973
217.927,16.61714,1.06435,-0.06772222,0.96938
218.527,16.63535,1.06481,-0.06851094,0.96903
219.127,16.65355,1.06511,-0.06844977,0.96868
219.727,16.67175,1.0698,-0.06894466,0.96833
220.327,16.68996,1.069,-0.06976067,0.96798
220.927,16.70826,1.06951,-0.06976371,0.96763
221.527,16.72654,1.07329,-0.06987919,0.96728
222.127,16.74479,1.07291,-0.07117239,0.96694
222.727,16.7631,1.07663,-0.07108802,0.96659
223.327,16.78132,1.07939,-0.07108732,0.96624
223.927,16.79951,1.07915,-0.07105199,0.96589
224.527,16.81771,1.08183,-0.07211813,0.96555
225.127,16.8359,1.08141,-0.07206926,0.9652
225.727,16.8541,1.08464,-0.07282765,0.96486
226.327,16.8723,1.0862,-0.07336787,0.96451
226.927,16.8905,1.0866,-0.07339066,0.96417
227.527,16.90871,1.08897,-0.07335962,0.96382
228.127,16.92689,1.0888,-0.07455852,0.96348
228.727,16.94509,1.09064,-0.07468712,0.96313
229.327,16.9633,1.0913,-0.07469885,0.96279
229.927,16.9815,1.09472,-0.07469906,0.96245
230.527,16.9997,1.09455,-0.07470228,0.96211
231.127,17.01786,1.09631,-0.07376209,0.96176
231.727,17.036,1.09849,-0.07464343,0.96142
232.327,17.0542,1.09918,-0.07469641,0.96108
232.927,17.07234,1.09912,-0.07469655,0.96074
233.527,17.09057,1.10072,-0.0746905,0.9604
234.127,17.10877,1.10242,-0.07557794,0.96006
234.727,17.12697,1.10162,-0.0760136,0.95972
235.327,17.14516,1.1055,-0.07601039,0.95938
235.927,17.16337,1.10424,-0.07601003,0.95904
236.527,17.18143,1.10743,-0.07601001,0.9587
237.127,17.19959,1.10753,-0.07601,0.95836
237.727,17.21779,1.10903,-0.07601001,0.95803
238.327,17.23593,1.10889,-0.07601015,0.95769
238.927,17.25402,1.11173,-0.07603311,0.95735
239.527,17.2722,1.11174,-0.0776484,0.95702
240.127,17.29026,1.11468,-0.07790282,0.95668
240.727,17.30835,1.11524,-0.07997141,0.95634
241.327,17.32641,1.11835,-0.08077169,0.95601
241.927,17.34455,1.11611,-0.08190583,0.95567
242.527,17.36275,1.11821,-0.08195442,0.95534
243.127,17.38091,1.1198,-0.08317434,0.955
243.727,17.39903,1.1204,-0.08314237,0.95467
244.327,17.41718,1.12342,-0.08288605,0.95434
244.927,17.43529,1.12331,-0.08353741,0.954
245.527,17.45336,1.12452,-0.0837859,0.95367
246.127,17.47137,1.12293,-0.08380713,0.95334
246.727,17.48945,1.12443,-0.08508471,0.953
247.327,17.5076,1.12481,-0.08506717,0.95267
247.927,17.52573,1.12507,-0.08634722,0.95234
248.527,17.5439,1.12418,-0.08656735,0.95201
249.127,17.5621,1.12569,-0.0877983,0.95168
249.727,17.58021,1.12735,-0.08807592,0.95135
250.327,17.5983,1.12941,-0.08892461,0.95102
250.927,17.61639,1.12877,-0.09017907,0.95069
251.527,17.63449,1.12798,-0.09136457,0.95036
252.127,17.65263,1.12551,-0.09199178,0.95003
252.727,17.67076,1.12561,-0.09383953,0.9497
253.327,17.68881,1.12411,-0.0943277,0.94937
253.927,17.70693,1.12467,-0.0953084,0.94904
254.527,17.72501,1.12184,-0.09661365,0.94871
255.127,17.74301,1.123,-0.09696336,0.94839
255.727,17.76105,1.12237,-0.09856443,0.94806
256.327,17.77913,1.12534,-0.09845829,0.94773
256.927,17.79716,1.12662,-0.10014,0.94741
257.527,17.81523,1.12602,-0.1005,0.94708
258.127,17.83328,1.12524,-0.1018,0.94675
258.727,17.85136,1.12634,-0.10299,0.94643
259.327,17.86944,1.12514,-0.10275,0.9461
259.927,17.88755,1.12856,-0.10395,0.94578
260.527,17.90565,1.12661,-0.1056,0.94545
261.127,17.92371,1.12884,-0.10657,0.94513
261.727,17.9418,1.12789,-0.10705,0.9448
262.327,17.95981,1.12928,-0.10858,0.94448
262.927,17.9779,1.12953,-0.10912,0.94416
263.527,17.9959,1.12885,-0.11044,0.94383
264.127,18.01399,1.1294,-0.11229,0.94351
264.727,18.03204,1.13011,-0.11347,0.94319
265.327,18.05012,1.13005,-0.11442,0.94287
265.927,18.06814,1.13009,-0.11545,0.94255
266.527,18.08621,1.13205,-0.11715,0.94222
267.127,18.10427,1.12944,-0.11861,0.9419
267.727,18.12239,1.13073,-0.12028,0.94158
268.327,18.1404,1.12936,-0.1218,0.94126
268.927,18.15849,1.13361,-0.1229,0.94094
269.527,18.17653,1.13266,-0.12416,0.94062
270.127,18.1946,1.13514,-0.12534,0.9403
270.727,18.21259,1.13242,-0.12663,0.93998
271.327,18.2307,1.13561,-0.1282,0.93966
271.927,18.24879,1.13527,-0.13039,0.93934
272.527,18.26679,1.13649,-0.1326,0.93902
273.127,18.28487,1.13601,-0.13476,0.93871
273.727,18.303,1.13854,-0.13658,0.93839
274.327,18.321,1.13816,-0.1388,0.93807
274.927,18.33906,1.14075,-0.14119,0.93775
275.527,18.3572,1.14356,-0.14294,0.93744
276.127,18.3752,1.14274,-0.14463,0.93712
276.727,18.39325,1.14632,-0.14663,0.9368
277.327,18.41132,1.14702,-0.14909,0.93649
277.927,18.42934,1.14853,-0.1515,0.93617
278.527,18.44738,1.15008,-0.15347,0.93585
279.127,18.4655,1.15299,-0.15595,0.93554
279.727,18.48359,1.15607,-0.15901,0.93522
280.327,18.50169,1.15556,-0.16146,0.93491
280.927,18.51976,1.15918,-0.16406,0.93459
281.527,18.53784,1.16089,-0.16676,0.93428
282.127,18.55591,1.16177,-0.16959,0.93396
282.727,18.57399,1.16723,-0.17225,0.93365
283.327,18.59207,1.17123,-0.17503,0.93334
283.927,18.61017,1.17473,-0.17859,0.93302
284.527,18.6283,1.17649,-0.18198,0.93271
285.127,18.64643,1.18163,-0.18415,0.9324
285.727,18.66452,1.18339,-0.18696,0.93208
286.327,18.68265,1.18546,-0.19086,0.93177
286.927,18.7008,1.19195,-0.19426,0.93146
287.527,18.7189,1.19707,-0.19805,0.93115
288.127,18.73701,1.20227,-0.20247,0.93084
288.727,18.75515,1.20551,-0.20614,0.93052
289.327,18.7732,1.21143,-0.20935,0.93021
289.927,18.7913,1.21468,-0.21268,0.9299
290.527,18.80937,1.22092,-0.21685,0.92959
291.127,18.82742,1.22452,-0.221,0.92928
291.727,18.8455,1.23182,-0.22401,0.92897
292.327,18.8636,1.23566,-0.2278,0.92866
292.927,18.88174,1.24099,-0.23161,0.92835
293.527,18.89986,1.25035,-0.23437,0.92804
294.127,18.918,1.25783,-0.23914,0.92773
294.727,18.93616,1.26191,-0.24578,0.92742
295.327,18.9543,1.26765,-0.25201,0.92711
295.927,18.97241,1.27583,-0.25806,0.9268
296.527,18.9906,1.28511,-0.26282,0.9265
297.127,19.00874,1.29114,-0.26747,0.92619
297.727,19.02691,1.29955,-0.27268,0.92588
298.327,19.04513,1.30727,-0.27763,0.92557
298.927,19.0632,1.31483,-0.28404,0.92526
299.527,19.08141,1.32361,-0.28926,0.92496
300.127,19.0995,1.33123,-0.296,0.92465
300.727,19.11768,1.33926,-0.30093,0.92434
301.327,19.1358,1.34743,-0.30741,0.92404
301.927,19.15404,1.35749,-0.31289,0.92373
302.527,19.17214,1.36717,-0.31951,0.92342
303.127,19.19031,1.37434,-0.32608,0.92312
303.727,19.20844,1.3841,-0.33254,0.92281
304.327,19.22656,1.39315,-0.33998,0.9225
304.927,19.24479,1.40059,-0.34666,0.9222
305.527,19.263,1.41217,-0.3547,0.92189
306.127,19.28121,1.42007,-0.36089,0.92159
306.727,19.29949,1.42994,-0.369,0.92128
307.327,19.3177,1.43855,-0.37534,0.92098
307.927,19.3359,1.44595,-0.38327,0.92067
308.527,19.35407,1.45743,-0.39002,0.92037
309.127,19.3722,1.46699,-0.3983,0.92007
309.727,19.39037,1.47521,-0.40653,0.91976
310.327,19.4085,1.48483,-0.4149,0.91946
310.927,19.4267,1.49553,-0.42395,0.91915
311.527,19.44483,1.50503,-0.43233,0.91885
312.127,19.46303,1.51144,-0.4427,0.91855
312.727,19.4812,1.52395,-0.45087,0.91824
313.327,19.49942,1.53254,-0.46166,0.91794
313.927,19.51764,1.54285,-0.47083,0.91764
314.527,19.5359,1.55167,-0.48192,0.91734
315.127,19.55412,1.56091,-0.49095,0.91703
315.727,19.57228,1.57161,-0.50125,0.91673
316.327,19.5905,1.58215,-0.5107,0.91643
316.927,19.6087,1.59091,-0.51991,0.91613
317.527,19.62695,1.60077,-0.53035,0.91583
318.127,19.64519,1.61006,-0.53978,0.91552
318.727,19.6635,1.62063,-0.55168,0.91522
319.327,19.68176,1.62958,-0.56145,0.91492
319.927,19.69997,1.63926,-0.57419,0.91462
320.527,19.7182,1.64644,-0.58252,0.91432
321.127,19.73638,1.65876,-0.59408,0.91402
321.727,19.75453,1.66799,-0.60402,0.91372
322.327,19.77272,1.67565,-0.61604,0.91342
322.927,19.79092,1.68362,-0.62735,0.91312
323.527,19.80913,1.69288,-0.6385,0.91282
324.127,19.8274,1.69982,-0.65093,0.91252
324.727,19.8457,1.71139,-0.66216,0.91222
325.327,19.8639,1.71978,-0.67668,0.91192
325.927,19.8822,1.72661,-0.68705,0.91162
326.527,19.9005,1.73759,-0.70057,0.91132
327.127,19.91872,1.74482,-0.71155,0.91102
327.727,19.93701,1.75631,-0.72605,0.91072
328.327,19.95528,1.76215,-0.73877,0.91042
328.927,19.97348,1.77195,-0.75213,0.91012
329.527,19.99172,1.7792,-0.7646,0.90982
330.127,20.01002,1.7914,-0.77802,0.90952
330.727,20.02826,1.79675,-0.79223,0.90922
331.327,20.04658,1.80464,-0.80528,0.90893
331.927,20.06489,1.81589,-0.81897,0.90863
332.527,20.0832,1.82001,-0.83172,0.90833
333.127,20.10146,1.82996,-0.84799,0.90803
333.727,20.11979,1.83944,-0.86,0.90773
334.327,20.13803,1.8466,-0.87613,0.90744
334.927,20.15633,1.85609,-0.8879,0.90714
335.527,20.17461,1.86451,-0.90306,0.90684
336.127,20.19285,1.87178,-0.91793,0.90654
336.727,20.2111,1.88081,-0.93533,0.90625
337.327,20.22939,1.88817,-0.9523,0.90595
337.927,20.24767,1.89904,-0.96751,0.90565
338.527,20.26596,1.90786,-0.98418,0.90535
339.127,20.28431,1.91369,-0.99838,0.90506
339.727,20.3026,1.92211,-1.01594,0.90476
340.327,20.32099,1.93263,-1.02948,0.90446
340.927,20.33934,1.94167,-1.04736,0.90417
341.527,20.3577,1.95384,-1.06112,0.90387
342.127,20.376,1.95968,-1.08018,0.90357
342.727,20.3944,1.96952,-1.09548,0.90328
343.327,20.41255,1.97785,-1.11326,0.90298
343.927,20.43084,1.98851,-1.13011,0.90268
344.527,20.44918,1.99703,-1.14679,0.90239
345.127,20.46756,2.00871,-1.16417,0.90209
345.727,20.4859,2.01628,-1.18001,0.9018
346.327,20.5044,2.02528,-1.19949,0.9015
346.927,20.52277,2.03961,-1.21561,0.9012
347.527,20.54114,2.04685,-1.23621,0.90091
348.127,20.5595,2.05678,-1.2511,0.90061
348.727,20.57787,2.06795,-1.27099,0.90032
349.327,20.59629,2.079,-1.28698,0.90002
349.927,20.61466,2.0917,-1.30661,0.89973
350.527,20.633,2.10077,-1.32421,0.89943
351.127,20.65135,2.11378,-1.34484,0.89914
351.727,20.66976,2.12497,-1.36419,0.89884
352.327,20.68811,2.13908,-1.38296,0.89855
352.927,20.7065,2.14808,-1.40364,0.89825
353.527,20.72493,2.16323,-1.42168,0.89796
354.127,20.7434,2.17432,-1.44387,0.89766
354.727,20.76181,2.18518,-1.46169,0.89737
355.327,20.78024,2.20007,-1.48477,0.89707
355.927,20.79863,2.21405,-1.50274,0.89678
356.527,20.81705,2.22738,-1.52546,0.89648
357.127,20.8354,2.23995,-1.54303,0.89619
357.727,20.8538,2.25521,-1.56402,0.89589
358.327,20.87226,2.26882,-1.58478,0.8956
358.927,20.89065,2.28202,-1.60729,0.8953
359.527,20.90905,2.29455,-1.62947,0.89501
360.127,20.92749,2.30829,-1.65061,0.89472
360.727,20.94592,2.31975,-1.67576,0.89442
361.327,20.96432,2.32961,-1.69652,0.89413
361.927,20.98283,2.3435,-1.72212,0.89383
362.527,21.0013,2.35192,-1.7422,0.89354
363.127,21.01976,2.35983,-1.76774,0.89324
363.727,21.0382,2.36829,-1.78766,0.89295
364.327,21.05667,2.37803,-1.81308,0.89266
364.927,21.0751,2.38352,-1.83412,0.89236
365.527,21.09358,2.38963,-1.85906,0.89207
366.127,21.11205,2.39442,-1.88174,0.89177
366.727,21.1305,2.39927,-1.9058,0.89148
367.327,21.14901,2.4006,-1.93013,0.89119
367.927,21.1675,2.39866,-1.95274,0.89089
368.527,21.18592,2.3969,-1.97788,0.8906
369.127,21.20446,2.3921,-1.99932,0.8903
369.727,21.223,2.38364,-2.02603,0.89001
370.327,21.24146,2.37422,-2.04694,0.88972
370.927,21.26003,2.36324,-2.07345,0.88942
371.527,21.27856,2.34644,-2.09389,0.88913
372.127,21.29699,2.33041,-2.11979,0.88883
372.727,21.31549,2.30845,-2.1411,0.88854
373.327,21.33398,2.28758,-2.16605,0.88825
373.927,21.35238,2.26268,-2.18743,0.88795
374.527,21.3709,2.23081,-2.21029,0.88766
375.127,21.38938,2.20177,-2.23176,0.88736
375.727,21.40789,2.16724,-2.25214,0.88707
376.327,21.42642,2.13219,-2.27556,0.88678
376.927,21.44497,2.09075,-2.29488,0.88648
377.527,21.46339,2.04588,-2.31714,0.88619
378.127,21.48193,2.00566,-2.3346,0.8859
378.727,21.50044,1.95709,-2.35674,0.8856
379.327,21.51886,1.90931,-2.37335,0.88531
379.927,21.5372,1.86126,-2.39344,0.88501
380.527,21.55568,1.81058,-2.40921,0.88472
381.127,21.57421,1.75409,-2.42752,0.88443
381.727,21.59264,1.70077,-2.44334,0.88413
382.327,21.61115,1.64553,-2.4599,0.88384
382.927,21.62977,1.58811,-2.47536,0.88354
383.527,21.64828,1.52936,-2.48946,0.88325
384.127,21.66669,1.47265,-2.5042,0.88296
384.727,21.68519,1.4113,-2.51672,0.88266
385.327,21.7036,1.35252,-2.53145,0.88237
385.927,21.72202,1.29503,-2.54266,0.88207
386.527,21.74042,1.23362,-2.5555,0.88178
387.127,21.75895,1.17253,-2.56467,0.88149
387.727,21.7774,1.11505,-2.57557,0.88119
388.327,21.7959,1.05632,-2.58437,0.8809
388.927,21.81447,0.99566,-2.59438,0.8806
389.527,21.83299,0.94013,-2.60245,0.88031
390.127,21.85145,0.88841,-2.6101,0.88002
390.727,21.8699,0.83349,-2.61686,0.87972
391.327,21.8884,0.7836,-2.62324,0.87943
391.927,21.9068,0.73923,-2.62988,0.87913
392.527,21.92524,0.69274,-2.63494,0.87884
393.127,21.9437,0.65002,-2.64072,0.87854
393.727,21.9622,0.60793,-2.64527,0.87825
394.327,21.98068,0.57207,-2.65029,0.87795
394.927,21.99918,0.53962,-2.65382,0.87766
395.527,22.01771,0.50622,-2.65784,0.87736
396.127,22.03621,0.47393,-2.66196,0.87707
396.727,22.05469,0.44832,-2.6648,0.87678
397.327,22.0732,0.42556,-2.66817,0.87648
397.927,22.0917,0.39999,-2.6712,0.87619
398.527,22.11022,0.3789,-2.67364,0.87589
399.127,22.12875,0.35913,-2.67544,0.8756
399.727,22.14733,0.34237,-2.67762,0.8753
400.327,22.1659,0.32969,-2.68019,0.87501
400.927,22.18443,0.31398,-2.68237,0.87471
401.527,22.203,0.29998,-2.6847,0.87441
402.127,22.2215,0.28931,-2.68719,0.87412
402.727,22.24006,0.27894,-2.68952,0.87382
403.327,22.25863,0.26984,-2.69162,0.87353
403.927,22.27715,0.26045,-2.69332,0.87323
404.527,22.29575,0.25022,-2.6944,0.87294
405.127,22.31439,0.24095,-2.69412,0.87264
405.727,22.33301,0.23437,-2.69566,0.87235
406.327,22.3517,0.22562,-2.69553,0.87205
406.927,22.37031,0.2223,-2.69623,0.87175
407.527,22.38898,0.2152,-2.69683,0.87146
408.127,22.4076,0.20831,-2.69851,0.87116
408.727,22.42625,0.20452,-2.70088,0.87087
409.327,22.4449,0.19824,-2.70462,0.87057
409.927,22.46354,0.19432,-2.70733,0.87027
410.527,22.48216,0.18814,-2.70922,0.86998
411.127,22.50079,0.18522,-2.71115,0.86968
411.727,22.51942,0.17998,-2.71295,0.86938
412.327,22.53806,0.17927,-2.71463,0.86909
412.927,22.55676,0.17529,-2.71561,0.86879
413.527,22.5754,0.16873,-2.71639,0.86849
414.127,22.5942,0.16513,-2.71805,0.86819
414.727,22.61285,0.16348,-2.72027,0.8679
415.327,22.63159,0.15989,-2.72171,0.8676
415.927,22.6503,0.15486,-2.72321,0.8673
416.527,22.66901,0.14811,-2.72469,0.86701
417.127,22.68769,0.1486,-2.72654,0.86671
417.727,22.7064,0.14338,-2.72773,0.86641
418.327,22.72511,0.14212,-2.72811,0.86611
418.927,22.74383,0.13799,-2.72999,0.86581
419.527,22.76255,0.13457,-2.73199,0.86552
420.127,22.78128,0.13341,-2.7339,0.86522
420.727,22.8,0.12937,-2.73514,0.86492
421.327,22.81867,0.12532,-2.73632,0.86462
421.927,22.83735,0.12313,-2.73791,0.86432
422.527,22.85611,0.12211,-2.73959,0.86402
423.127,22.87483,0.11772,-2.7417,0.86373
423.727,22.89359,0.11638,-2.74377,0.86343
424.327,22.9123,0.11326,-2.74565,0.86313
424.927,22.9311,0.11045,-2.74736,0.86283
425.527,22.94984,0.1064,-2.74917,0.86253
426.127,22.96867,0.10487,-2.74979,0.86223
426.727,22.9875,0.10043,-2.75082,0.86193
427.327,23.00627,0.09953352,-2.75329,0.86163
427.927,23.02498,0.09723219,-2.75462,0.86133
428.527,23.0437,0.09505954,-2.75609,0.86103
429.127,23.06243,0.09384343,-2.75759,0.86073
429.727,23.0812,0.08881721,-2.75808,0.86043
430.327,23.10003,0.08869943,-2.75938,0.86013
430.927,23.11884,0.08591326,-2.76035,0.85983
431.527,23.13765,0.08342048,-2.76119,0.85953
432.127,23.1565,0.08348695,-2.76266,0.85923
432.727,23.1752,0.08232406,-2.76421,0.85893
433.327,23.19386,0.07960129,-2.76528,0.85862
433.927,23.21275,0.07702477,-2.76687,0.85832
434.527,23.23166,0.07648138,-2.76886,0.85802
435.127,23.25049,0.07471251,-2.77048,0.85772
435.727,23.26951,0.07283901,-2.77229,0.85742
436.327,23.28846,0.0716659,-2.77334,0.85712
436.927,23.30735,0.07147209,-2.77461,0.85681
437.527,23.3262,0.07025428,-2.77699,0.85651
438.127,23.34507,0.06846045,-2.77962,0.85621
438.727,23.36394,0.06855106,-2.7812,0.85591
439.327,23.38285,0.06899487,-2.78297,0.8556
439.927,23.40168,0.0680951,-2.78369,0.8553
440.527,23.42051,0.06636033,-2.78438,0.855
441.127,23.4394,0.06632488,-2.78439,0.8547
441.727,23.45828,0.06652974,-2.78442,0.85439
442.327,23.47715,0.06768101,-2.78532,0.85409
442.927,23.49605,0.06869473,-2.78797,0.85378
443.527,23.515,0.06586218,-2.7907,0.85348
444.127,23.53385,0.06647275,-2.79417,0.85318
444.727,23.5528,0.06800764,-2.79655,0.85287
445.327,23.57166,0.06501353,-2.79785,0.85257
445.927,23.59058,0.06823047,-2.79904,0.85226
446.527,23.60954,0.06517654,-2.80031,0.85196
447.127,23.62848,0.06720475,-2.80085,0.85165
447.727,23.64741,0.06561295,-2.80129,0.85135
448.327,23.66637,0.06864955,-2.80144,0.85104
448.927,23.68535,0.06932635,-2.80321,0.85074
449.527,23.70425,0.06953363,-2.80499,0.85043
450.127,23.72321,0.07069542,-2.80691,0.85012
450.727,23.7422,0.07212659,-2.80884,0.84982
451.327,23.7611,0.0757191,-2.81005,0.84951
451.927,23.7801,0.0758551,-2.81161,0.84921
452.527,23.7991,0.07600602,-2.81393,0.8489
453.127,23.81805,0.07628333,-2.81551,0.84859
453.727,23.83707,0.07737594,-2.81724,0.84828
454.327,23.85605,0.07984709,-2.81855,0.84798
454.927,23.87501,0.07807428,-2.81925,0.84767
455.527,23.89404,0.08072601,-2.82056,0.84736
456.127,23.9131,0.08135969,-2.82216,0.84705
456.727,23.93202,0.08131143,-2.82346,0.84675
457.327,23.95105,0.08461444,-2.82531,0.84644
457.927,23.97006,0.08594283,-2.82674,0.84613
458.527,23.98903,0.08867082,-2.8283,0.84582
459.127,24.008,0.08865947,-2.82924,0.84551
459.727,24.02705,0.09136303,-2.83113,0.8452
460.327,24.04607,0.09155929,-2.83253,0.84489
460.927,24.06508,0.09225994,-2.83331,0.84458
461.527,24.0841,0.09462601,-2.83472,0.84427
462.127,24.10322,0.09676716,-2.83611,0.84396
462.727,24.1223,0.09734476,-2.83781,0.84365
463.327,24.1414,0.09751143,-2.83738,0.84334
463.927,24.1604,0.10018,-2.83815,0.84303
464.527,24.17952,0.10186,-2.83955,0.84272
465.127,24.19856,0.10287,-2.8406,0.84241
465.727,24.2176,0.1053,-2.84135,0.8421
466.327,24.2366,0.10523,-2.8429,0.84179
466.927,24.25566,0.1075,-2.84411,0.84147
467.527,24.2747,0.10589,-2.84484,0.84116
468.127,24.29373,0.10593,-2.84596,0.84085
468.727,24.31269,0.10827,-2.84745,0.84054
469.327,24.33178,0.10865,-2.84792,0.84022
469.927,24.35088,0.1086,-2.84912,0.83991
470.527,24.37,0.11039,-2.85086,0.8396
471.127,24.38919,0.11215,-2.85244,0.83928
471.727,24.40837,0.1119,-2.85341,0.83897
472.327,24.42754,0.11154,-2.85421,0.83866
472.927,24.44669,0.11211,-2.85544,0.83834
473.527,24.46578,0.11267,-2.85566,0.83803
474.127,24.48488,0.11643,-2.85673,0.83771
474.727,24.50401,0.11477,-2.85834,0.8374
475.327,24.5231,0.11286,-2.86109,0.83708
475.927,24.54231,0.11859,-2.86178,0.83677
476.527,24.56148,0.1149,-2.86312,0.83645
477.127,24.58063,0.11692,-2.8644,0.83613
477.727,24.59982,0.11559,-2.86478,0.83582
478.327,24.61899,0.11654,-2.86603,0.8355
478.927,24.63816,0.11557,-2.86605,0.83518
479.527,24.65736,0.11737,-2.86761,0.83487
480.127,24.67659,0.11646,-2.86843,0.83455
480.727,24.69576,0.11696,-2.86936,0.83423
481.327,24.71496,0.11734,-2.87093,0.83392
481.927,24.7342,0.11797,-2.87167,0.8336
482.527,24.75337,0.11876,-2.87225,0.83328
483.127,24.77251,0.11733,-2.87365,0.83296
483.727,24.79174,0.11711,-2.8739,0.83264
484.327,24.81084,0.11709,-2.87524,0.83232
484.927,24.83,0.11684,-2.8752,0.832
485.527,24.84926,0.11578,-2.87658,0.83168
486.127,24.86853,0.11562,-2.87714,0.83136
486.727,24.88776,0.11845,-2.8782,0.83104
487.327,24.907,0.11783,-2.87924,0.83072
487.927,24.92618,0.11808,-2.87949,0.8304
488.527,24.9453,0.11723,-2.87997,0.83008
489.127,24.96453,0.12009,-2.88077,0.82976
489.727,24.98372,0.1186,-2.88182,0.82944
490.327,25.003,0.12069,-2.88249,0.82912
490.927,25.02228,0.12134,-2.88401,0.82879
491.527,25.04157,0.12168,-2.8856,0.82847
492.127,25.0608,0.1207,-2.88557,0.82815
492.727,25.08006,0.1197,-2.88705,0.82782
493.327,25.09929,0.11804,-2.88701,0.8275
493.927,25.1185,0.11887,-2.88845,0.82718
494.527,25.1377,0.11675,-2.88839,0.82685
495.127,25.15695,0.11957,-2.88997,0.82653
495.727,25.17619,0.1176,-2.89035,0.82621
496.327,25.1954,0.11695,-2.89149,0.82588
496.927,25.21471,0.11818,-2.89227,0.82556
497.527,25.23399,0.11827,-2.89273,0.82523
498.127,25.25331,0.11927,-2.89277,0.8249
498.727,25.2726,0.1194,-2.89295,0.82458
499.327,25.29186,0.11888,-2.89407,0.82425
499.927,25.31117,0.11842,-2.89453,0.82393
500.527,25.33045,0.11994,-2.8956,0.8236
501.127,25.34966,0.11504,-2.8959,0.82327
501.727,25.36893,0.11911,-2.89717,0.82294
502.327,25.38821,0.11775,-2.89765,0.82262
502.927,25.40729,0.11737,-2.89848,0.82229
503.527,25.42644,0.11656,-2.89837,0.82196
504.127,25.44577,0.11928,-2.89979,0.82163
504.727,25.4651,0.12063,-2.89992,0.8213
505.327,25.48447,0.11675,-2.90154,0.82097
505.927,25.50398,0.11734,-2.90224,0.82064
506.527,25.5233,0.11962,-2.90285,0.82031
507.127,25.54259,0.11837,-2.90426,0.81998
507.727,25.5618,0.11844,-2.90455,0.81965
508.327,25.5811,0.11971,-2.90595,0.81932
508.927,25.60039,0.11783,-2.90627,0.81899
509.527,25.6197,0.11782,-2.90724,0.81866
510.127,25.639,0.11695,-2.90723,0.81833
510.727,25.65837,0.11887,-2.90719,0.81799
511.327,25.67769,0.11527,-2.90845,0.81766
511.927,25.697,0.11469,-2.9085,0.81733
512.527,25.71633,0.11758,-2.90983,0.817
513.127,25.73563,0.11768,-2.91013,0.81666
513.727,25.7549,0.11887,-2.91246,0.81633
514.327,25.77426,0.11437,-2.91285,0.81599
514.927,25.7936,0.1148,-2.91438,0.81566
515.527,25.81285,0.11785,-2.91439,0.81533
516.127,25.83215,0.11774,-2.91574,0.81499
516.727,25.85146,0.11763,-2.91578,0.81465
517.327,25.8708,0.12128,-2.91712,0.81432
517.927,25.89015,0.1183,-2.91712,0.81398
518.527,25.90956,0.11761,-2.91864,0.81365
519.127,25.9289,0.11848,-2.91864,0.81331
519.727,25.9482,0.11877,-2.91983,0.81297
520.327,25.96744,0.11735,-2.91997,0.81264
520.927,25.9867,0.11913,-2.91932,0.8123
521.527,26.00599,0.1207,-2.92043,0.81196
522.127,26.02533,0.12189,-2.92063,0.81162
522.727,26.04466,0.11886,-2.92104,0.81128
523.327,26.06403,0.11838,-2.92193,0.81094
523.927,26.08336,0.11847,-2.92186,0.8106
524.527,26.10269,0.11858,-2.9231,0.81026
525.127,26.122,0.11861,-2.92325,0.80992
525.727,26.1413,0.12031,-2.9233,0.80958
526.327,26.16059,0.11762,-2.92458,0.80924
526.927,26.1799,0.11715,-2.92456,0.8089
527.527,26.19918,0.11644,-2.92548,0.80856
528.127,26.21852,0.11669,-2.92585,0.80822
528.727,26.2378,0.1164,-2.92711,0.80788
529.327,26.25719,0.11473,-2.92719,0.80753
529.927,26.2765,0.11487,-2.92822,0.80719
530.527,26.2958,0.11313,-2.9285,0.80685
531.127,26.3152,0.11599,-2.92844,0.8065
531.727,26.3346,0.11452,-2.92702,0.80616
532.327,26.35395,0.11398,-2.9284,0.80581
532.927,26.3733,0.11571,-2.9285,0.80547
533.527,26.3927,0.11446,-2.92913,0.80512
534.127,26.412,0.11461,-2.9299,0.80478
534.727,26.4314,0.11572,-2.93074,0.80443
535.327,26.4508,0.11518,-2.93146,0.80409
535.927,26.47012,0.11322,-2.93147,0.80374
536.527,26.4894,0.11335,-2.93277,0.80339
537.127,26.5088,0.11558,-2.9325,0.80305
537.727,26.5281,0.11327,-2.93297,0.8027
538.327,26.54747,0.11824,-2.93382,0.80235
538.927,26.5669,0.11944,-2.93419,0.802
539.527,26.58635,0.12093,-2.93512,0.80165
540.127,26.6057,0.12123,-2.935,0.8013
540.727,26.625,0.12246,-2.93635,0.80095
541.327,26.64443,0.12542,-2.93641,0.8006
541.927,26.6638,0.12688,-2.93645,0.80025
542.527,26.68315,0.13052,-2.93782,0.7999
543.127,26.7026,0.129,-2.93771,0.79955
543.727,26.72198,0.13168,-2.93854,0.7992
544.327,26.7413,0.13391,-2.93903,0.79885
544.927,26.7607,0.13538,-2.93904,0.7985
545.527,26.7801,0.13736,-2.94036,0.79814
546.127,26.7994,0.13896,-2.94037,0.79779
546.727,26.8188,0.13862,-2.94124,0.79744
547.327,26.8381,0.13853,-2.94286,0.79708
547.927,26.8575,0.14356,-2.94343,0.79673
548.527,26.87694,0.14294,-2.94434,0.79638
549.127,26.8964,0.14531,-2.94431,0.79602
549.727,26.91592,0.14676,-2.94431,0.79567
550.327,26.93535,0.14718,-2.94431,0.79531
550.927,26.95481,0.149,-2.94519,0.79495
551.527,26.97415,0.14953,-2.94564,0.7946
552.127,26.99352,0.15117,-2.94698,0.79424
552.727,27.013,0.15192,-2.94728,0.79388
553.327,27.0324,0.15324,-2.94865,0.79353
553.927,27.0518,0.15722,-2.94866,0.79317
554.527,27.07122,0.15367,-2.94993,0.79281
555.127,27.0906,0.1567,-2.9499,0.79245
555.727,27.11005,0.15649,-2.9499,0.79209
556.327,27.1295,0.15666,-2.9512,0.79173
556.927,27.14896,0.15898,-2.95097,0.79137
557.527,27.16845,0.15743,-2.94987,0.79101
558.127,27.18794,0.15882,-2.95106,0.79065
558.727,27.2075,0.15597,-2.95121,0.79029
559.327,27.227,0.15816,-2.95123,0.78993
559.927,27.2465,0.15821,-2.95158,0.78957
560.527,27.26595,0.15858,-2.95272,0.78921
561.127,27.28541,0.15776,-2.95314,0.78884
561.727,27.3049,0.15853,-2.95409,0.78848
562.327,27.32426,0.15946,-2.95493,0.78812
562.927,27.3437,0.15858,-2.95558,0.78775
563.527,27.36318,0.15888,-2.95574,0.78739
564.127,27.3826,0.15692,-2.95697,0.78702
564.727,27.4021,0.15369,-2.95692,0.78666
565.327,27.4216,0.15454,-2.9574,0.78629
565.927,27.44115,0.15314,-2.95822,0.78593
566.527,27.46067,0.15033,-2.95823,0.78556
567.127,27.48028,0.14709,-2.95892,0.7852
567.727,27.49982,0.14644,-2.95955,0.78483
568.327,27.5194,0.14603,-2.95955,0.78446
568.927,27.5389,0.14311,-2.96011,0.78409
569.527,27.5584,0.14155,-2.96099,0.78372
570.127,27.57795,0.14204,-2.9609,0.78336
570.727,27.5975,0.13916,-2.96228,0.78299
571.327,27.617,0.13568,-2.9623,0.78262
571.927,27.6365,0.13552,-2.9623,0.78225
572.527,27.65605,0.13196,-2.9623,0.78188
573.127,27.6756,0.12911,-2.9623,0.78151
573.727,27.6951,0.13,-2.96225,0.78113
574.327,27.7147,0.12621,-2.96333,0.78076
574.927,27.7344,0.12485,-2.9636,0.78039
575.527,27.75395,0.125,-2.9636,0.78002
576.127,27.77355,0.11816,-2.96354,0.77965
576.727,27.79311,0.12239,-2.96475,0.77927
577.327,27.8127,0.11958,-2.96566,0.7789
577.927,27.8323,0.11826,-2.96569,0.77852
578.527,27.8519,0.11776,-2.96694,0.77815
579.127,27.8715,0.11199,-2.96691,0.77778
579.727,27.89112,0.11558,-2.96698,0.7774
580.327,27.9108,0.10919,-2.96822,0.77702
580.927,27.93028,0.11015,-2.96822,0.77665
581.527,27.9499,0.10923,-2.96822,0.77627
582.127,27.96958,0.109,-2.96823,0.77589
582.727,27.98915,0.10511,-2.96913,0.77552
583.327,28.0088,0.10545,-2.96954,0.77514
583.927,28.02843,0.10394,-2.96954,0.77476
584.527,28.048,0.10547,-2.97075,0.77438
585.127,28.06764,0.10135,-2.96963,0.774
585.727,28.0873,0.10402,-2.96957,0.77362
586.327,28.10691,0.10274,-2.97021,0.77324
586.927,28.12657,0.09954674,-2.97077,0.77286
587.527,28.14617,0.0985523,-2.97212,0.77248
588.127,28.1658,0.09878336,-2.97312,0.7721
588.727,28.1854,0.10034,-2.97347,0.77172
589.327,28.20505,0.09835982,-2.97355,0.77134
589.927,28.22475,0.0970262,-2.97489,0.77095
590.527,28.2444,0.09764392,-2.97477,0.77057
591.127,28.2639,0.09552321,-2.97582,0.77019
591.727,28.28336,0.09784962,-2.97752,0.7698
592.327,28.3029,0.09094298,-2.97745,0.76942
592.927,28.3225,0.09152644,-2.97744,0.76903
593.527,28.34217,0.09266652,-2.97746,0.76865
594.127,28.36202,0.08990993,-2.97662,0.76826
594.727,28.38188,0.09197051,-2.97764,0.76788
595.327,28.4016,0.08936662,-2.97755,0.76749
595.927,28.42127,0.09146062,-2.97763,0.7671
596.527,28.4409,0.09026243,-2.97886,0.76672
597.127,28.46061,0.08839438,-2.97886,0.76633
597.727,28.4803,0.08834582,-2.97886,0.76594
598.327,28.49995,0.08587575,-2.97919,0.76555
598.927,28.5196,0.08699348,-2.98019,0.76516
599.527,28.53933,0.08568667,-2.98018,0.76477
600.127,28.55902,0.0865614,-2.98016,0.76438
600.727,28.57875,0.08702986,-2.98174,0.76399
601.327,28.59846,0.08336857,-2.98181,0.7636
601.927,28.6182,0.08310358,-2.98182,0.76321
602.527,28.6379,0.08459652,-2.98182,0.76282
603.127,28.65761,0.08224167,-2.98304,0.76242
603.727,28.67732,0.08279075,-2.98326,0.76203
604.327,28.69704,0.08242314,-2.98393,0.76164
604.927,28.71673,0.0826369,-2.98467,0.76124
605.527,28.73644,0.08334543,-2.98569,0.76085
606.127,28.7562,0.08332883,-2.98597,0.76046
606.727,28.7759,0.08281138,-2.98599,0.76006
607.327,28.7956,0.08126368,-2.98594,0.75967
607.927,28.81536,0.08078113,-2.98611,0.75927
608.527,28.8351,0.08112765,-2.98589,0.75887
609.127,28.85468,0.08226786,-2.98589,0.75848
609.727,28.8744,0.08039773,-2.9861,0.75808
610.327,28.89416,0.07849138,-2.98724,0.75768
610.927,28.9139,0.07753925,-2.9872,0.75728
611.527,28.9337,0.07666421,-2.98726,0.75689
612.127,28.95355,0.08193601,-2.98767,0.75649
612.727,28.97327,0.07911243,-2.98722,0.75609
613.327,28.99302,0.07784057,-2.9872,0.75569
613.927,29.01277,0.08123795,-2.9872,0.75529
614.527,29.03252,0.08104015,-2.98715,0.75489
615.127,29.05224,0.08001938,-2.98836,0.75448
615.727,29.07198,0.07837627,-2.98862,0.75408
616.327,29.09174,0.07735298,-2.99013,0.75368
616.927,29.1115,0.07999534,-2.99006,0.75328
617.527,29.13128,0.0784694,-2.99006,0.75288
618.127,29.151,0.079393,-2.99141,0.75247
618.727,29.17075,0.07964363,-2.99136,0.75207
619.327,29.19055,0.07931756,-2.99136,0.75166
619.927,29.2103,0.0795632,-2.99136,0.75126
620.527,29.23005,0.07676748,-2.99136,0.75085
621.127,29.2498,0.08034162,-2.99136,0.75045
621.727,29.26963,0.07763545,-2.99232,0.75004
622.327,29.2894,0.08252938,-2.99372,0.74963
622.927,29.3092,0.08265392,-2.99423,0.74923
623.527,29.32897,0.0839897,-2.9951,0.74882
624.127,29.34873,0.08821792,-2.99566,0.74841
624.727,29.36843,0.08665677,-2.99496,0.748
625.327,29.3882,0.08828632,-2.99568,0.74759
625.927,29.40793,0.0891239,-2.99612,0.74718
626.527,29.42768,0.09001016,-2.99709,0.74678
627.127,29.4475,0.08956857,-2.99706,0.74636
627.727,29.46722,0.09208236,-2.99697,0.74595
628.327,29.4869,0.09076814,-2.99834,0.74554
628.927,29.5067,0.09169442,-2.99792,0.74513
629.527,29.5265,0.09359467,-2.99765,0.74472
630.127,29.54625,0.09400426,-2.99908,0.74431
630.727,29.5661,0.09697432,-2.99906,0.74389
631.327,29.58591,0.09479155,-3.00042,0.74348
631.927,29.60568,0.09642358,-3.00047,0.74307
632.527,29.62552,0.09618867,-3.00055,0.74265
633.127,29.64538,0.09600631,-3.00188,0.74224
633.727,29.6652,0.09818761,-3.00179,0.74182
634.327,29.68487,0.09992639,-3.0017,0.7414
634.927,29.7048,0.10129,-3.00304,0.74099
635.527,29.72462,0.10193,-3.00313,0.74057
636.127,29.7444,0.10254,-3.0035,0.74015
636.727,29.7643,0.10327,-3.00457,0.73974
637.327,29.78417,0.10407,-3.0049,0.73932
637.927,29.80398,0.10399,-3.00588,0.7389
638.527,29.8239,0.10492,-3.00618,0.73848
639.127,29.84367,0.10589,-3.00716,0.73806
639.727,29.8635,0.10548,-3.00713,0.73764
640.327,29.88335,0.10936,-3.00813,0.73722
640.927,29.9031,0.11124,-3.00989,0.7368
641.527,29.9229,0.11139,-3.01003,0.73638
642.127,29.9427,0.11408,-3.01112,0.73596
642.727,29.96255,0.11495,-3.01111,0.73553
643.327,29.9824,0.11598,-3.01111,0.73511
643.927,30.0023,0.11834,-3.01111,0.73469
644.527,30.02198,0.11495,-3.01163,0.73426
645.127,30.04174,0.11811,-3.0124,0.73384
645.727,30.0616,0.1206,-3.01243,0.73341
646.327,30.0814,0.12203,-3.01381,0.73299
646.927,30.1014,0.12242,-3.0138,0.73256
647.527,30.1213,0.12425,-3.01483,0.73214
648.127,30.14122,0.12418,-3.01555,0.73171
648.727,30.16106,0.1272,-3.01572,0.73128
649.327,30.181,0.12509,-3.01611,0.73086
649.927,30.20085,0.12704,-3.0167,0.73043
650.527,30.2207,0.12853,-3.01671,0.73
651.127,30.24059,0.12964,-3.01709,0.72957
651.727,30.2604,0.1319,-3.01801,0.72914
652.327,30.28023,0.13264,-3.01835,0.72871
652.927,30.30012,0.13246,-3.01835,0.72828
653.527,30.32,0.13484,-3.01835,0.72785
654.127,30.33985,0.13234,-3.01933,0.72742
654.727,30.3598,0.1352,-3.01967,0.72699
655.327,30.3796,0.13539,-3.01967,0.72656
655.927,30.39943,0.13558,-3.02095,0.72612
656.527,30.41923,0.13643,-3.02099,0.72569
657.127,30.43908,0.13934,-3.02244,0.72526
657.727,30.4589,0.13883,-3.02252,0.72482
658.327,30.47877,0.14119,-3.02308,0.72439
658.927,30.49864,0.14141,-3.02385,0.72395
659.527,30.51848,0.14173,-3.02384,0.72352
660.127,30.5384,0.14586,-3.02386,0.72308
660.727,30.55817,0.14406,-3.02465,0.72265
661.327,30.57807,0.15005,-3.02512,0.72221
661.927,30.59795,0.1481,-3.02658,0.72177
662.527,30.6178,0.1534,-3.02715,0.72133
663.127,30.6376,0.15353,-3.027,0.7209
663.727,30.6575,0.15578,-3.02681,0.72046
664.327,30.6774,0.1559,-3.02695,0.72002
664.927,30.69725,0.16192,-3.02817,0.71958
665.527,30.7171,0.1623,-3.02826,0.71914
666.127,30.73698,0.16199,-3.02948,0.7187
666.727,30.7568,0.16316,-3.02934,0.71826
667.327,30.7767,0.16775,-3.03071,0.71782
667.927,30.79658,0.17006,-3.03069,0.71737
668.527,30.8165,0.17,-3.03197,0.71693
669.127,30.83635,0.17647,-3.03212,0.71649
669.727,30.8562,0.17549,-3.03373,0.71604
670.327,30.876,0.18177,-3.03413,0.7156
670.927,30.89588,0.18635,-3.03424,0.71516
671.527,30.91575,0.18814,-3.03557,0.71471
672.127,30.9356,0.19436,-3.03598,0.71427
672.727,30.95546,0.19875,-3.03686,0.71382
673.327,30.9753,0.19901,-3.03796,0.71337
673.927,30.99512,0.20385,-3.03822,0.71293
674.527,31.015,0.21053,-3.03993,0.71248
675.127,31.0348,0.2147,-3.04096,0.71203
675.727,31.0547,0.21867,-3.04126,0.71159
676.327,31.0747,0.21948,-3.04127,0.71114
676.927,31.0945,0.22807,-3.04207,0.71069
677.527,31.11438,0.23513,-3.04257,0.71024
678.127,31.13427,0.23909,-3.04181,0.70979
678.727,31.1541,0.24208,-3.0413,0.70934
679.327,31.174,0.25168,-3.0413,0.70889
679.927,31.1939,0.2524,-3.04295,0.70844
680.527,31.21371,0.26043,-3.04316,0.70798
681.127,31.23354,0.26514,-3.04435,0.70753
681.727,31.25344,0.27481,-3.04499,0.70708
682.327,31.27325,0.27786,-3.04695,0.70663
682.927,31.29315,0.28289,-3.04875,0.70617
683.527,31.3131,0.29074,-3.04888,0.70572
684.127,31.33294,0.29803,-3.0499,0.70526
684.727,31.35277,0.30491,-3.0489,0.70481
685.327,31.37265,0.31071,-3.04905,0.70435
685.927,31.3926,0.31866,-3.05056,0.7039
686.527,31.4125,0.32118,-3.05107,0.70344
687.127,31.43242,0.3292,-3.05179,0.70298
687.727,31.45236,0.33797,-3.05197,0.70253
688.327,31.47227,0.34406,-3.05314,0.70207
688.927,31.4922,0.35164,-3.05408,0.70161
689.527,31.512,0.35611,-3.05449,0.70115
690.127,31.53195,0.36342,-3.05606,0.70069
690.727,31.5519,0.37094,-3.05734,0.70023
691.327,31.5718,0.37616,-3.05767,0.69977
691.927,31.59177,0.38515,-3.05921,0.69931
692.527,31.61171,0.3945,-3.0592,0.69885
693.127,31.6317,0.39935,-3.05921,0.69839
693.727,31.65168,0.40255,-3.06062,0.69793
694.327,31.67163,0.41445,-3.06197,0.69746
694.927,31.69159,0.41785,-3.0633,0.697
695.527,31.71159,0.42205,-3.06456,0.69654
696.127,31.7316,0.43064,-3.06645,0.69607
696.727,31.7515,0.43365,-3.06845,0.69561
697.327,31.7714,0.44043,-3.06986,0.69514
697.927,31.79137,0.44181,-3.07033,0.69468
698.527,31.81123,0.44781,-3.07178,0.69421
699.127,31.83111,0.45339,-3.07181,0.69375
699.727,31.851,0.45897,-3.07312,0.69328
700.327,31.871,0.4634,-3.07309,0.69281
700.927,31.89092,0.46545,-3.07454,0.69235
701.527,31.91102,0.46825,-3.07596,0.69188
702.127,31.931,0.46883,-3.07673,0.69141
702.727,31.95102,0.47041,-3.07804,0.69094
703.327,31.97097,0.476,-3.07804,0.69047
703.927,31.991,0.47626,-3.07947,0.69
704.527,32.01095,0.47644,-3.07941,0.68953
705.127,32.0309,0.47978,-3.07959,0.68906
705.727,32.05087,0.47611,-3.07962,0.68859
706.327,32.0709,0.47955,-3.0811,0.68812
706.927,32.09084,0.47753,-3.08151,0.68764
707.527,32.11079,0.4787,-3.08262,0.68717
708.127,32.1308,0.47906,-3.08268,0.6867
708.727,32.15074,0.47709,-3.08406,0.68623
709.327,32.17071,0.47541,-3.08447,0.68575
709.927,32.19076,0.47925,-3.0868,0.68528
710.527,32.21078,0.47576,-3.08859,0.6848
711.127,32.23083,0.47596,-3.08929,0.68433
711.727,32.2508,0.47343,-3.09007,0.68385
712.327,32.27078,0.47128,-3.09156,0.68337
712.927,32.29068,0.46682,-3.09156,0.6829
713.527,32.3106,0.46803,-3.09304,0.68242
714.127,32.3306,0.46228,-3.09484,0.68194
714.727,32.35062,0.46168,-3.09552,0.68147
715.327,32.37063,0.45753,-3.09673,0.68099
715.927,32.39071,0.44875,-3.0981,0.68051
716.527,32.4108,0.44035,-3.09965,0.68003
717.127,32.4309,0.4393,-3.09962,0.67955
717.727,32.45092,0.43227,-3.10109,0.67907
718.327,32.47087,0.42551,-3.10182,0.67859
718.927,32.4908,0.41454,-3.10155,0.67811
719.527,32.51083,0.40521,-3.10285,0.67762
720.127,32.53085,0.39763,-3.10287,0.67714
720.727,32.55089,0.38164,-3.10435,0.67666
721.327,32.57092,0.36884,-3.10502,0.67618
721.927,32.59091,0.35804,-3.10444,0.67569
722.527,32.6109,0.34097,-3.10604,0.67521
723.127,32.6309,0.32476,-3.10686,0.67472
723.727,32.65096,0.31071,-3.1078,0.67424
724.327,32.67099,0.29261,-3.10949,0.67375
724.927,32.69104,0.27577,-3.11056,0.67327
725.527,32.7111,0.25978,-3.11081,0.67278
726.127,32.73106,0.24457,-3.11082,0.6723
726.727,32.75101,0.22587,-3.11007,0.67181
727.327,32.77095,0.2133,-3.10956,0.67132
727.927,32.79098,0.20063,-3.11093,0.67083
728.527,32.811,0.18925,-3.1114,0.67034
729.127,32.831,0.17784,-3.11375,0.66986
729.727,32.85107,0.17164,-3.11484,0.66937
730.327,32.87109,0.16009,-3.11509,0.66888
730.927,32.8911,0.15028,-3.11669,0.66839
731.527,32.91113,0.14197,-3.11709,0.6679
732.127,32.93112,0.13345,-3.11728,0.6674
732.727,32.95115,0.1321,-3.11674,0.66691
733.327,32.9711,0.12157,-3.1181,0.66642
733.927,32.99116,0.11715,-3.11803,0.66593
734.527,33.0112,0.11191,-3.11913,0.66544
735.127,33.03127,0.10724,-3.11937,0.66494
735.727,33.05129,0.1013,-3.11936,0.66445
736.327,33.0712,0.09883155,-3.12016,0.66395
736.927,33.09127,0.09281389,-3.12214,0.66346
737.527,33.11128,0.09138245,-3.12215,0.66296
738.127,33.13135,0.08498844,-3.12381,0.66247
738.727,33.15146,0.08128761,-3.12376,0.66197
739.327,33.17159,0.08210151,-3.12425,0.66148
739.927,33.1915,0.07255167,-3.12517,0.66098
740.527,33.21141,0.07217098,-3.12528,0.66048
741.127,33.2314,0.06691738,-3.1265,0.65999
741.727,33.25144,0.06524846,-3.1265,0.65949
742.327,33.27149,0.06101635,-3.12651,0.65899
742.927,33.29179,0.06219362,-3.12789,0.65849
743.527,33.31283,0.055433,-3.12798,0.65799
744.127,33.33262,0.05056394,-3.13039,0.65749