File: 01_Data/LW_GypBoard_Unpainted_Paper/STA/N2/30K_min/Lw_Gypsum_Paper_STA_N2_30KData_220303_R2.csv
##Temp./Â°C,Time/min,DSC(subtr.2)/(mW/mg),Mass loss(subtr.2)/mg,Sensit./(uV/mW)
48.763,10.01,0.01327913,-0.00054,1.08892
49.363,10.528,0.04790676,0.000332856,1.08841
49.963,10.6464,0.07826386,-0.0001142642,1.08791
50.563,10.7308,0.10677,2.909136e-05,1.0874
51.163,10.79901,0.13301,-0.0001530263,1.0869
51.763,10.85845,0.15727,-0.000319406,1.08639
52.363,10.91108,0.17964,0.0002466737,1.08589
52.963,10.95881,0.20226,-0.0004402145,1.08539
53.563,11.00352,0.22169,0.000990082,1.08488
54.163,11.04547,0.24259,0.001441899,1.08438
54.763,11.08425,0.26127,-8.734713e-05,1.08388
55.363,11.12139,0.2789,0.0008895184,1.08338
55.963,11.1572,0.2978,0.001180969,1.08288
56.563,11.19153,0.31373,0.000293051,1.08238
57.163,11.22488,0.32873,-0.001349195,1.08188
57.763,11.2574,0.3433,-0.00172017,1.08139
58.363,11.28887,0.35712,-0.0007832001,1.08089
58.963,11.3193,0.37048,9.408079e-05,1.08039
59.563,11.34883,0.38566,0.000456564,1.0799
60.163,11.37779,0.39746,0.0002641271,1.0794
60.763,11.40618,0.41056,1.075435e-05,1.07891
61.363,11.43421,0.4251,-9.48266e-05,1.07841
61.963,11.4617,0.43538,-3.967231e-05,1.07792
62.563,11.48874,0.44986,-0.00177925,1.07742
63.163,11.5154,0.46297,-0.002220162,1.07693
63.763,11.54145,0.47143,-0.00253414,1.07644
64.363,11.56725,0.48322,-0.002217886,1.07595
64.963,11.59265,0.49302,-0.00187852,1.07546
65.563,11.61783,0.50319,-0.002031978,1.07497
66.163,11.64281,0.51365,-0.002151284,1.07448
66.763,11.66741,0.52414,-0.00149019,1.07399
67.363,11.69152,0.53284,-0.001371106,1.0735
67.963,11.71573,0.5434,-0.00190631,1.07302
68.563,11.73966,0.55407,-0.002501169,1.07253
69.163,11.76367,0.56308,-0.00337341,1.07204
69.763,11.78754,0.57362,-0.003564486,1.07156
70.363,11.8111,0.5825,-0.003664079,1.07107
70.963,11.8344,0.59332,-0.003255485,1.07059
71.563,11.8576,0.59899,-0.004013475,1.0701
72.163,11.88057,0.60803,-0.0035834,1.06962
72.763,11.90342,0.61821,-0.003777718,1.06914
73.363,11.9262,0.62617,-0.00419484,1.06866
73.963,11.9488,0.63526,-0.004327839,1.06818
74.563,11.97143,0.64374,-0.004791809,1.0677
75.163,11.99392,0.65139,-0.004693416,1.06722
75.763,12.01629,0.66016,-0.00402048,1.06674
76.363,12.03858,0.6676,-0.002911757,1.06626
76.963,12.06071,0.67589,-0.00251484,1.06578
77.563,12.08267,0.68446,-0.00166741,1.0653
78.163,12.1046,0.69449,-0.00187517,1.06483
78.763,12.1264,0.70113,-0.001812333,1.06435
79.363,12.14829,0.70736,-0.000751992,1.06387
79.963,12.17,0.71602,-0.002309878,1.0634
80.563,12.19175,0.72399,-0.002285777,1.06292
81.163,12.21326,0.73013,-0.00291987,1.06245
81.763,12.2348,0.73733,-0.003312771,1.06198
82.363,12.2562,0.74665,-0.00414822,1.0615
82.963,12.2776,0.75396,-0.004638678,1.06103
83.563,12.2989,0.76168,-0.004581684,1.06056
84.163,12.32013,0.76871,-0.00614597,1.06009
84.763,12.3413,0.77648,-0.00569575,1.05962
85.363,12.36241,0.78511,-0.006376431,1.05915
85.963,12.3835,0.79134,-0.006422988,1.05868
86.563,12.4045,0.80262,-0.0076202,1.05821
87.163,12.4255,0.80935,-0.007552953,1.05775
87.763,12.44645,0.81871,-0.007104905,1.05728
88.363,12.46727,0.82743,-0.00751017,1.05681
88.963,12.48816,0.83365,-0.00755807,1.05635
89.563,12.50905,0.84155,-0.00756081,1.05588
90.163,12.52994,0.85049,-0.00756093,1.05542
90.763,12.55076,0.8581,-0.008609664,1.05495
91.363,12.57146,0.86903,-0.008878634,1.05449
91.963,12.5921,0.87627,-0.00887704,1.05403
92.563,12.6126,0.88586,-0.008828731,1.05357
93.163,12.6332,0.89255,-0.01007095,1.0531
93.763,12.6538,0.90265,-0.01022224,1.05264
94.363,12.67445,0.9135,-0.009979107,1.05218
94.963,12.69512,0.92017,-0.01018993,1.05172
95.563,12.71568,0.9298,-0.01021311,1.05126
96.163,12.73622,0.94123,-0.01055323,1.05081
96.763,12.75666,0.95039,-0.01155455,1.05035
97.363,12.77707,0.95896,-0.01151555,1.04989
97.963,12.79744,0.96707,-0.01143231,1.04943
98.563,12.81785,0.9777,-0.01281639,1.04898
99.163,12.8382,0.98633,-0.01283959,1.04852
99.763,12.85858,0.9947,-0.01337089,1.04807
100.363,12.8789,1.00184,-0.0141567,1.04761
100.963,12.89925,1.0107,-0.01411285,1.04716
101.563,12.91956,1.018,-0.01546812,1.04671
102.163,12.9399,1.0263,-0.01547011,1.04625
102.763,12.96015,1.03302,-0.0154676,1.0458
103.363,12.98047,1.03935,-0.01648798,1.04535
103.963,13.00072,1.04586,-0.01678293,1.0449
104.563,13.02103,1.05113,-0.01813829,1.04445
105.163,13.04133,1.0575,-0.01809716,1.044
105.763,13.06156,1.06133,-0.01814251,1.04355
106.363,13.08188,1.06689,-0.01985878,1.0431
106.963,13.102,1.06908,-0.0200665,1.04266
107.563,13.12217,1.07331,-0.02005566,1.04221
108.163,13.1421,1.07727,-0.02101404,1.04176
108.763,13.1619,1.07993,-0.02201949,1.04132
109.363,13.1818,1.07921,-0.02211143,1.04087
109.963,13.202,1.0819,-0.02340217,1.04043
110.563,13.2223,1.08495,-0.02336319,1.03998
111.163,13.24265,1.08576,-0.02336011,1.03954
111.763,13.263,1.08675,-0.02335783,1.0391
112.363,13.28306,1.08854,-0.02332762,1.03866
112.963,13.30315,1.08943,-0.02427788,1.03821
113.563,13.32329,1.09114,-0.02466185,1.03777
114.163,13.34343,1.08786,-0.0246128,1.03733
114.763,13.3635,1.08991,-0.02586797,1.03689
115.363,13.38362,1.08925,-0.02591737,1.03645
115.963,13.40369,1.08803,-0.02720082,1.03602
116.563,13.4237,1.08649,-0.0273093,1.03558
117.163,13.44374,1.08727,-0.02734374,1.03514
117.763,13.46379,1.08339,-0.02868866,1.0347
118.363,13.4838,1.08374,-0.02959725,1.03427
118.963,13.5038,1.08281,-0.02992635,1.03383
119.563,13.5238,1.08169,-0.02993913,1.0334
120.163,13.54369,1.07995,-0.02994133,1.03296
120.763,13.56365,1.07921,-0.02997544,1.03253
121.363,13.58353,1.07584,-0.03135609,1.03209
121.963,13.60346,1.07475,-0.03126768,1.03166
122.563,13.62331,1.07109,-0.03127072,1.03123
123.163,13.64316,1.07162,-0.0314178,1.0308
123.763,13.66296,1.067,-0.03286098,1.03037
124.363,13.68276,1.06586,-0.03389996,1.02994
124.963,13.70253,1.06512,-0.03389069,1.02951
125.563,13.7223,1.06326,-0.03389003,1.02908
126.163,13.742,1.06094,-0.03388979,1.02865
126.763,13.76172,1.06143,-0.03388754,1.02822
127.363,13.78142,1.0588,-0.0338624,1.02779
127.963,13.80115,1.05827,-0.03494686,1.02736
128.563,13.8207,1.05631,-0.03625437,1.02694
129.163,13.84044,1.05467,-0.03652949,1.02651
129.763,13.86005,1.05562,-0.03652999,1.02609
130.363,13.87967,1.05401,-0.03653027,1.02566
130.963,13.8992,1.05287,-0.03653789,1.02524
131.563,13.9189,1.0531,-0.03866582,1.02482
132.163,13.93842,1.05293,-0.03880337,1.02439
132.763,13.9579,1.05284,-0.03881258,1.02397
133.363,13.97747,1.05318,-0.03873007,1.02355
133.963,13.997,1.05043,-0.04008029,1.02313
134.563,14.01648,1.05072,-0.04049409,1.02271
135.163,14.03595,1.04882,-0.04047194,1.02229
135.763,14.05546,1.05054,-0.04047015,1.02187
136.363,14.0749,1.04633,-0.04047001,1.02145
136.963,14.09435,1.04596,-0.04047,1.02103
137.563,14.11382,1.04247,-0.04047,1.02061
138.163,14.13313,1.04177,-0.04047001,1.02019
138.763,14.1524,1.03783,-0.04047006,1.01978
139.363,14.1717,1.03831,-0.04047058,1.01936
139.963,14.1909,1.035,-0.0404743,1.01895
140.563,14.2102,1.03238,-0.04180071,1.01853
141.163,14.22949,1.02695,-0.04178772,1.01812
141.763,14.2488,1.02327,-0.04178959,1.0177
142.363,14.26803,1.02128,-0.04178995,1.01729
142.963,14.2873,1.01732,-0.04178998,1.01688
143.563,14.30649,1.01593,-0.04178973,1.01646
144.163,14.32581,1.01186,-0.0417863,1.01605
144.763,14.34491,1.00903,-0.0417416,1.01564
145.363,14.3641,1.00597,-0.04277831,1.01523
145.963,14.3832,1.00189,-0.04309148,1.01482
146.563,14.40228,1.00004,-0.04306129,1.01441
147.163,14.42136,0.99731,-0.04415355,1.014
147.763,14.4405,0.99444,-0.04408354,1.01359
148.363,14.4596,0.99406,-0.04503775,1.01319
148.963,14.4788,0.9915,-0.04540162,1.01278
149.563,14.4979,0.98844,-0.04540022,1.01237
150.163,14.51706,0.9868,-0.04540002,1.01197
150.763,14.5362,0.984,-0.0454,1.01156
151.363,14.55526,0.98178,-0.04539999,1.01116
151.963,14.5743,0.98137,-0.04539989,1.01075
152.563,14.59332,0.97953,-0.04539878,1.01035
153.163,14.6123,0.97726,-0.04538819,1.00994
153.763,14.6313,0.97584,-0.04531027,1.00954
154.363,14.6502,0.97413,-0.04408898,1.00914
154.963,14.66915,0.97458,-0.04409435,1.00874
155.563,14.68806,0.9739,-0.0443675,1.00834
156.163,14.70691,0.97354,-0.04441511,1.00794
156.763,14.72587,0.97398,-0.04443351,1.00754
157.363,14.74485,0.97256,-0.04467353,1.00714
157.963,14.76375,0.97357,-0.04578063,1.00674
158.563,14.7826,0.9707,-0.04573342,1.00634
159.163,14.8015,0.97074,-0.04573071,1.00594
159.763,14.82045,0.96911,-0.04573196,1.00554
160.363,14.8393,0.97038,-0.04700751,1.00515
160.963,14.8582,0.96927,-0.04704108,1.00475
161.563,14.8771,0.97119,-0.04704892,1.00435
162.163,14.89595,0.96964,-0.04704989,1.00396
162.763,14.9148,0.97055,-0.04704999,1.00356
163.363,14.93361,0.96998,-0.04705002,1.00317
163.963,14.9525,0.96907,-0.04705018,1.00278
164.563,14.97135,0.9724,-0.04705126,1.00238
165.163,14.99025,0.97217,-0.04705286,1.00199
165.763,15.0092,0.97242,-0.04643855,1.0016
166.363,15.028,0.97204,-0.04640735,1.00121
166.963,15.0468,0.97337,-0.04640088,1.00081
167.563,15.0656,0.97508,-0.04640008,1.00042
168.163,15.08436,0.97585,-0.04640001,1.00003
168.763,15.10312,0.97701,-0.0464,0.99964
169.363,15.1219,0.97745,-0.0464,0.99926
169.963,15.1407,0.97912,-0.0464,0.99887
170.563,15.15944,0.98067,-0.0464,0.99848
171.163,15.1782,0.97961,-0.0464,0.99809
171.763,15.19696,0.98059,-0.0464,0.9977
172.363,15.2157,0.98309,-0.0464,0.99732
172.963,15.23441,0.9839,-0.0464,0.99693
173.563,15.2531,0.98628,-0.04640001,0.99655
174.163,15.27183,0.98833,-0.04640005,0.99616
174.763,15.2904,0.9892,-0.04640013,0.99578
175.363,15.30905,0.99007,-0.04639676,0.99539
175.963,15.32766,0.99115,-0.04631622,0.99501
176.563,15.3463,0.9908,-0.04770318,0.99463
177.163,15.3649,0.99274,-0.0480456,0.99424
177.763,15.3836,0.99473,-0.04846081,0.99386
178.363,15.40223,0.9957,-0.04869055,0.99348
178.963,15.4208,0.99785,-0.04869951,0.9931
179.563,15.43925,0.99673,-0.04870199,0.99272
180.163,15.45785,0.99804,-0.04875927,0.99234
180.763,15.4764,1.00013,-0.0479888,0.99196
181.363,15.49497,1.00311,-0.04803525,0.99158
181.963,15.5136,1.00283,-0.04803964,0.9912
182.563,15.5322,1.00553,-0.04803998,0.99083
183.163,15.5507,1.00592,-0.04803999,0.99045
183.763,15.5692,1.00895,-0.04804007,0.99007
184.363,15.58769,1.01015,-0.04804217,0.98969
184.963,15.60624,1.01203,-0.04807484,0.98932
185.563,15.6247,1.01224,-0.04766941,0.98894
186.163,15.64318,1.01554,-0.04835512,0.98857
186.763,15.66156,1.0159,-0.04900233,0.98819
187.363,15.68,1.01676,-0.04902004,0.98782
187.963,15.69834,1.01941,-0.04902016,0.98745
188.563,15.7168,1.01848,-0.04902002,0.98707
189.163,15.73528,1.02214,-0.04902,0.9867
189.763,15.7538,1.02156,-0.04902,0.98633
190.363,15.77227,1.02633,-0.04902,0.98596
190.963,15.79075,1.02605,-0.04902,0.98559
191.563,15.8092,1.03018,-0.04902,0.98521
192.163,15.8276,1.02931,-0.04902,0.98484
192.763,15.846,1.03075,-0.04902,0.98447
193.363,15.8644,1.03503,-0.04902001,0.98411
193.963,15.88282,1.03702,-0.04902006,0.98374
194.563,15.9012,1.03693,-0.0490203,0.98337
195.163,15.9195,1.03914,-0.0490187,0.983
195.763,15.93784,1.04177,-0.04896039,0.98263
196.363,15.9562,1.0443,-0.04973351,0.98227
196.963,15.97453,1.04566,-0.04967886,0.9819
197.563,15.9929,1.04744,-0.0496245,0.98153
198.163,16.0113,1.04743,-0.05029392,0.98117
198.763,16.02972,1.04923,-0.04903035,0.9808
199.363,16.04806,1.05177,-0.0490302,0.98044
199.963,16.06646,1.05218,-0.04903,0.98008
200.563,16.08484,1.05526,-0.04902966,0.97971
201.163,16.10313,1.05689,-0.04902669,0.97935
201.763,16.1214,1.05798,-0.04949587,0.97899
202.363,16.13975,1.05958,-0.05033027,0.97862
202.963,16.15805,1.06171,-0.05165034,0.97826
203.563,16.17634,1.06363,-0.05165901,0.9779
204.163,16.1947,1.06647,-0.05165991,0.97754
204.763,16.21296,1.069,-0.05165999,0.97718
205.363,16.23124,1.07156,-0.05165999,0.97682
205.963,16.24955,1.07299,-0.05166003,0.97646
206.563,16.26785,1.07417,-0.05166154,0.9761
207.163,16.28611,1.07711,-0.05176113,0.97574
207.763,16.30441,1.07575,-0.0530762,0.97538
208.363,16.3227,1.07977,-0.05298655,0.97503
208.963,16.341,1.0814,-0.05298041,0.97467
209.563,16.35921,1.08285,-0.05297849,0.97431
210.163,16.37745,1.08685,-0.05293317,0.97395
210.763,16.39582,1.08709,-0.05408037,0.9736
211.363,16.4141,1.08742,-0.05427586,0.97324
211.963,16.4323,1.09049,-0.05428912,0.97289
212.563,16.45058,1.09086,-0.05428998,0.97253
213.163,16.46885,1.09414,-0.05429002,0.97218
213.763,16.48704,1.09581,-0.05429034,0.97182
214.363,16.50527,1.09824,-0.05429476,0.97147
214.963,16.52356,1.09465,-0.05435392,0.97112
215.563,16.5418,1.10103,-0.05482288,0.97077
216.163,16.56005,1.10284,-0.05396096,0.97041
216.763,16.57825,1.10573,-0.05395711,0.97006
217.363,16.59645,1.10643,-0.05395705,0.96971
217.963,16.61461,1.10785,-0.05392859,0.96936
218.563,16.63278,1.10974,-0.05432452,0.96901
219.163,16.65097,1.10952,-0.05429582,0.96866
219.763,16.6692,1.11493,-0.05424945,0.96831
220.363,16.68741,1.1141,-0.05558314,0.96796
220.963,16.70563,1.11764,-0.05559866,0.96761
221.563,16.72382,1.12013,-0.05559998,0.96726
222.163,16.7421,1.11854,-0.05560072,0.96691
222.763,16.76025,1.11992,-0.05560103,0.96657
223.363,16.77844,1.12328,-0.0568094,0.96622
223.963,16.79664,1.12587,-0.05691621,0.96587
224.563,16.81486,1.12839,-0.05717196,0.96553
225.163,16.8329,1.13018,-0.05828894,0.96518
225.763,16.8509,1.13267,-0.05823731,0.96484
226.363,16.86908,1.13141,-0.05828448,0.96449
226.963,16.8873,1.13384,-0.05694102,0.96415
227.563,16.9055,1.13536,-0.05692352,0.9638
228.163,16.9238,1.13765,-0.05693967,0.96346
228.763,16.94214,1.13634,-0.05708132,0.96311
229.363,16.9604,1.13765,-0.05824141,0.96277
229.963,16.9785,1.14179,-0.05823948,0.96243
230.563,16.99662,1.14283,-0.05823992,0.96209
231.163,17.0148,1.14428,-0.05824011,0.96174
231.763,17.0329,1.14368,-0.05824109,0.9614
232.363,17.051,1.14734,-0.05824503,0.96106
232.963,17.0691,1.1468,-0.05949432,0.96072
233.563,17.08726,1.14968,-0.05955051,0.96038
234.163,17.10536,1.15114,-0.05991269,0.96004
234.763,17.12355,1.15295,-0.06233975,0.9597
235.363,17.1417,1.15282,-0.06219837,0.95936
235.963,17.1598,1.156,-0.06218904,0.95902
236.563,17.17788,1.15546,-0.0633499,0.95868
237.163,17.19606,1.15698,-0.06348947,0.95834
237.763,17.2141,1.15808,-0.06350515,0.95801
238.363,17.23229,1.16019,-0.06348692,0.95767
238.963,17.2504,1.16285,-0.06419428,0.95733
239.563,17.2685,1.16327,-0.06483435,0.957
240.163,17.2866,1.16467,-0.06481571,0.95666
240.763,17.30467,1.16448,-0.0656433,0.95632
241.363,17.3228,1.16501,-0.06613123,0.95599
241.963,17.3409,1.1697,-0.06620164,0.95565
242.563,17.359,1.16976,-0.06740065,0.95532
243.163,17.37714,1.17163,-0.06889017,0.95498
243.763,17.39535,1.17093,-0.07016892,0.95465
244.363,17.4134,1.17168,-0.07003409,0.95432
244.963,17.43158,1.17611,-0.07122305,0.95398
245.563,17.44969,1.17438,-0.07089119,0.95365
246.163,17.46784,1.17446,-0.07094821,0.95332
246.763,17.48583,1.17514,-0.07146742,0.95298
247.363,17.50388,1.17611,-0.07257466,0.95265
247.963,17.5219,1.17609,-0.07310356,0.95232
248.563,17.53999,1.17774,-0.07457937,0.95199
249.163,17.55803,1.17942,-0.07449818,0.95166
249.763,17.57614,1.17862,-0.0759403,0.95133
250.363,17.59425,1.17951,-0.07619486,0.951
250.963,17.6124,1.17902,-0.07759545,0.95067
251.563,17.63051,1.18162,-0.07825076,0.95034
252.163,17.64856,1.18005,-0.07910907,0.95001
252.763,17.66667,1.18232,-0.07947118,0.94968
253.363,17.68475,1.18297,-0.08044991,0.94935
253.963,17.70275,1.18362,-0.08105882,0.94902
254.563,17.72077,1.18012,-0.08192082,0.94869
255.163,17.73871,1.18236,-0.08187681,0.94837
255.763,17.75675,1.17931,-0.08332884,0.94804
256.363,17.77479,1.18257,-0.08384801,0.94771
256.963,17.79293,1.18291,-0.08502719,0.94739
257.563,17.811,1.18378,-0.08691875,0.94706
258.163,17.82927,1.18359,-0.08855826,0.94673
258.763,17.84734,1.18379,-0.08956899,0.94641
259.363,17.86543,1.18197,-0.09123276,0.94608
259.963,17.88351,1.18209,-0.09262554,0.94576
260.563,17.90156,1.18163,-0.09279336,0.94543
261.163,17.91959,1.17978,-0.09419095,0.94511
261.763,17.9377,1.18131,-0.09416565,0.94479
262.363,17.9558,1.18378,-0.09540568,0.94446
262.963,17.97383,1.18078,-0.09579427,0.94414
263.563,17.99191,1.1841,-0.09722296,0.94382
264.163,18.00994,1.17968,-0.09915455,0.94349
264.763,18.02794,1.18093,-0.10085,0.94317
265.363,18.0459,1.18031,-0.1024,0.94285
265.963,18.06396,1.18204,-0.1039,0.94253
266.563,18.08201,1.18099,-0.10546,0.9422
267.163,18.10012,1.18269,-0.10717,0.94188
267.763,18.11819,1.18184,-0.10868,0.94156
268.363,18.13629,1.18206,-0.11019,0.94124
268.963,18.15431,1.18181,-0.11127,0.94092
269.563,18.1723,1.18271,-0.11231,0.9406
270.163,18.19032,1.18409,-0.1141,0.94028
270.763,18.20828,1.18593,-0.1157,0.93996
271.363,18.22632,1.18353,-0.11751,0.93964
271.963,18.24437,1.18584,-0.11967,0.93932
272.563,18.26246,1.18566,-0.12213,0.93901
273.163,18.28053,1.18572,-0.12433,0.93869
273.763,18.29866,1.18713,-0.1259,0.93837
274.363,18.31671,1.18656,-0.12718,0.93805
274.963,18.33482,1.18931,-0.12913,0.93773
275.563,18.35289,1.18805,-0.13103,0.93742
276.163,18.37084,1.1926,-0.13325,0.9371
276.763,18.38867,1.19302,-0.13489,0.93678
277.363,18.40669,1.19534,-0.13661,0.93647
277.963,18.42474,1.19573,-0.13784,0.93615
278.563,18.44278,1.19627,-0.13947,0.93583
279.163,18.46092,1.1976,-0.14214,0.93552
279.763,18.4792,1.20246,-0.14488,0.9352
280.363,18.4973,1.20168,-0.14687,0.93489
280.963,18.51539,1.20281,-0.14924,0.93457
281.563,18.53343,1.2072,-0.15217,0.93426
282.163,18.5515,1.20913,-0.15459,0.93394
282.763,18.56956,1.21151,-0.15784,0.93363
283.363,18.58764,1.21381,-0.16117,0.93332
283.963,18.60568,1.21757,-0.1642,0.933
284.563,18.62381,1.21995,-0.16739,0.93269
285.163,18.6419,1.22448,-0.1704,0.93238
285.763,18.66,1.22599,-0.17352,0.93206
286.363,18.67807,1.22906,-0.17644,0.93175
286.963,18.69615,1.23233,-0.17897,0.93144
287.563,18.71419,1.23776,-0.18295,0.93113
288.163,18.73225,1.24113,-0.18787,0.93082
288.763,18.75036,1.24813,-0.19138,0.9305
289.363,18.76847,1.25075,-0.19696,0.93019
289.963,18.7866,1.25443,-0.2016,0.92988
290.563,18.80467,1.26184,-0.20648,0.92957
291.163,18.82275,1.26881,-0.21015,0.92926
291.763,18.84082,1.27242,-0.21474,0.92895
292.363,18.85892,1.27845,-0.21789,0.92864
292.963,18.877,1.28482,-0.22193,0.92833
293.563,18.89509,1.28847,-0.22624,0.92802
294.163,18.91318,1.29487,-0.22997,0.92771
294.763,18.93126,1.30146,-0.23435,0.9274
295.363,18.9494,1.30944,-0.23919,0.92709
295.963,18.96743,1.31525,-0.24364,0.92679
296.563,18.98556,1.32139,-0.24883,0.92648
297.163,19.00368,1.32921,-0.25343,0.92617
297.763,19.02177,1.33724,-0.25984,0.92586
298.363,19.03986,1.34351,-0.26452,0.92555
298.963,19.05803,1.34924,-0.2702,0.92525
299.563,19.07615,1.35994,-0.27498,0.92494
300.163,19.09425,1.3675,-0.28094,0.92463
300.763,19.1124,1.37477,-0.28641,0.92432
301.363,19.13054,1.38532,-0.29242,0.92402
301.963,19.14865,1.39299,-0.29894,0.92371
302.563,19.1668,1.39968,-0.30507,0.9234
303.163,19.18497,1.40827,-0.31229,0.9231
303.763,19.2031,1.41627,-0.31831,0.92279
304.363,19.22129,1.42653,-0.32554,0.92249
304.963,19.23944,1.43152,-0.33095,0.92218
305.563,19.25761,1.4403,-0.33806,0.92188
306.163,19.27577,1.45109,-0.34427,0.92157
306.763,19.294,1.45967,-0.35237,0.92127
307.363,19.3121,1.46825,-0.3594,0.92096
307.963,19.33028,1.479,-0.36704,0.92066
308.563,19.34844,1.48739,-0.37512,0.92035
309.163,19.36648,1.49545,-0.38304,0.92005
309.763,19.3846,1.50518,-0.39225,0.91974
310.363,19.4028,1.51552,-0.39979,0.91944
310.963,19.42098,1.52517,-0.40961,0.91914
311.563,19.43913,1.53741,-0.41779,0.91883
312.163,19.45744,1.54253,-0.42823,0.91853
312.763,19.47561,1.55396,-0.43612,0.91823
313.363,19.49372,1.56283,-0.44582,0.91792
313.963,19.51191,1.57117,-0.45538,0.91762
314.563,19.53012,1.5803,-0.46592,0.91732
315.163,19.54836,1.58879,-0.47696,0.91702
315.763,19.5666,1.59899,-0.48635,0.91671
316.363,19.5848,1.60989,-0.49711,0.91641
316.963,19.60294,1.61945,-0.50709,0.91611
317.563,19.62115,1.62733,-0.51844,0.91581
318.163,19.63928,1.63688,-0.5274,0.91551
318.763,19.6575,1.64535,-0.53899,0.9152
319.363,19.67587,1.65304,-0.54833,0.9149
319.963,19.69416,1.66247,-0.56024,0.9146
320.563,19.71242,1.67355,-0.57087,0.9143
321.163,19.7307,1.6806,-0.58217,0.914
321.763,19.74894,1.68932,-0.59311,0.9137
322.363,19.76711,1.6974,-0.60349,0.9134
322.963,19.7853,1.70845,-0.61588,0.9131
323.563,19.8035,1.71529,-0.6264,0.9128
324.163,19.82175,1.72469,-0.63992,0.9125
324.763,19.83999,1.73282,-0.65054,0.9122
325.363,19.85829,1.74153,-0.66443,0.9119
325.963,19.8766,1.74921,-0.67548,0.9116
326.563,19.89491,1.75904,-0.68893,0.9113
327.163,19.9132,1.76547,-0.70048,0.911
327.763,19.93145,1.7747,-0.71306,0.9107
328.363,19.94974,1.78123,-0.72618,0.9104
328.963,19.96804,1.78991,-0.73908,0.9101
329.563,19.98639,1.79942,-0.75356,0.9098
330.163,20.0047,1.80455,-0.76616,0.90951
330.763,20.02311,1.81198,-0.78131,0.90921
331.363,20.04138,1.8222,-0.79339,0.90891
331.963,20.05967,1.82978,-0.8091,0.90861
332.563,20.07795,1.83702,-0.82179,0.90831
333.163,20.0962,1.84382,-0.83792,0.90801
333.763,20.11455,1.85487,-0.85123,0.90772
334.363,20.1329,1.85954,-0.86645,0.90742
334.963,20.15118,1.86975,-0.88022,0.90712
335.563,20.16951,1.88028,-0.89308,0.90682
336.163,20.18786,1.88417,-0.90835,0.90653
336.763,20.20618,1.89427,-0.92242,0.90623
337.363,20.2245,1.90232,-0.93926,0.90593
337.963,20.24292,1.9099,-0.95284,0.90563
338.563,20.26132,1.91633,-0.97026,0.90534
339.163,20.27971,1.92382,-0.98397,0.90504
339.763,20.29815,1.93406,-1.00187,0.90474
340.363,20.31651,1.94203,-1.01701,0.90445
340.963,20.33488,1.94971,-1.03479,0.90415
341.563,20.3533,1.95982,-1.05056,0.90385
342.163,20.37164,1.96673,-1.06734,0.90356
342.763,20.38999,1.97618,-1.08446,0.90326
343.363,20.4084,1.98378,-1.10057,0.90296
343.963,20.4268,1.99247,-1.11689,0.90267
344.563,20.44521,1.99932,-1.13239,0.90237
345.163,20.4636,2.0108,-1.15051,0.90207
345.763,20.482,2.01993,-1.1657,0.90178
346.363,20.5004,2.03113,-1.18489,0.90148
346.963,20.5188,2.0389,-1.20006,0.90119
347.563,20.53724,2.0492,-1.22037,0.90089
348.163,20.5556,2.05838,-1.23678,0.9006
348.763,20.57405,2.06977,-1.25598,0.9003
349.363,20.59248,2.07795,-1.27302,0.9
349.963,20.6109,2.09005,-1.29196,0.89971
350.563,20.62929,2.10087,-1.31104,0.89941
351.163,20.64774,2.11427,-1.32897,0.89912
351.763,20.6661,2.12381,-1.34912,0.89882
352.363,20.68458,2.1373,-1.36668,0.89853
352.963,20.70301,2.14742,-1.38824,0.89823
353.563,20.72144,2.16159,-1.40514,0.89794
354.163,20.7399,2.17184,-1.42745,0.89764
354.763,20.7584,2.1835,-1.44501,0.89735
355.363,20.7768,2.19665,-1.46769,0.89705
355.963,20.79531,2.20755,-1.4863,0.89676
356.563,20.81379,2.22143,-1.50838,0.89646
357.163,20.83226,2.23366,-1.52825,0.89617
357.763,20.85071,2.24705,-1.5495,0.89588
358.363,20.86928,2.25968,-1.57119,0.89558
358.963,20.8877,2.27049,-1.59252,0.89529
359.563,20.9062,2.28344,-1.6157,0.89499
360.163,20.92465,2.29508,-1.63595,0.8947
360.763,20.9432,2.30721,-1.66076,0.8944
361.363,20.96169,2.31775,-1.68041,0.89411
361.963,20.9802,2.32754,-1.70573,0.89381
362.563,20.9987,2.3374,-1.72525,0.89352
363.163,21.01718,2.34615,-1.74999,0.89323
363.763,21.0356,2.35518,-1.77038,0.89293
364.363,21.05412,2.36242,-1.79519,0.89264
364.963,21.07261,2.36625,-1.81728,0.89234
365.563,21.0911,2.37443,-1.84096,0.89205
366.163,21.10955,2.37609,-1.8642,0.89176
366.763,21.12803,2.37916,-1.88662,0.89146
367.363,21.14649,2.38143,-1.91141,0.89117
367.963,21.1649,2.37754,-1.93284,0.89087
368.563,21.18339,2.37366,-1.95836,0.89058
369.163,21.20194,2.36838,-1.9788,0.89029
369.763,21.22045,2.36006,-2.00497,0.88999
370.363,21.23902,2.35034,-2.02545,0.8897
370.963,21.2576,2.3394,-2.0515,0.8894
371.563,21.27618,2.32216,-2.07207,0.88911
372.163,21.29474,2.30536,-2.09675,0.88882
372.763,21.31325,2.28496,-2.11748,0.88852
373.363,21.33181,2.25834,-2.14049,0.88823
373.963,21.3503,2.23802,-2.1622,0.88793
374.563,21.36881,2.20924,-2.18355,0.88764
375.163,21.38727,2.17433,-2.20606,0.88735
375.763,21.4058,2.14107,-2.22581,0.88705
376.363,21.42434,2.10536,-2.24859,0.88676
376.963,21.4429,2.06537,-2.26665,0.88647
377.563,21.4614,2.02373,-2.28916,0.88617
378.163,21.47992,1.98186,-2.30618,0.88588
378.763,21.49844,1.93588,-2.32778,0.88558
379.363,21.51695,1.89087,-2.34373,0.88529
379.963,21.53552,1.84093,-2.363,0.885
380.563,21.55404,1.79036,-2.37873,0.8847
381.163,21.5726,1.73692,-2.39633,0.88441
381.763,21.59105,1.6862,-2.41139,0.88411
382.363,21.60957,1.63243,-2.42628,0.88382
382.963,21.62804,1.57534,-2.4414,0.88353
383.563,21.6465,1.52181,-2.45485,0.88323
384.163,21.66505,1.46527,-2.47008,0.88294
384.763,21.68362,1.40595,-2.48223,0.88265
385.363,21.70215,1.3513,-2.49651,0.88235
385.963,21.7207,1.29271,-2.50684,0.88206
386.563,21.73921,1.23746,-2.51903,0.88176
387.163,21.75768,1.1807,-2.5278,0.88147
387.763,21.77615,1.12367,-2.53861,0.88117
388.363,21.7946,1.06777,-2.54698,0.88088
388.963,21.81308,1.01411,-2.55623,0.88059
389.563,21.83156,0.96103,-2.56378,0.88029
390.163,21.85002,0.90951,-2.57083,0.88
390.763,21.8685,0.86291,-2.57675,0.8797
391.363,21.88695,0.81541,-2.58251,0.87941
391.963,21.90539,0.76951,-2.58813,0.87911
392.563,21.9238,0.72919,-2.59269,0.87882
393.163,21.94229,0.68737,-2.59826,0.87853
393.763,21.9607,0.64953,-2.60216,0.87823
394.363,21.97917,0.61717,-2.60843,0.87794
394.963,21.99768,0.58343,-2.61212,0.87764
395.563,22.0162,0.55548,-2.61602,0.87735
396.163,22.0347,0.52475,-2.61904,0.87705
396.763,22.05326,0.50042,-2.62154,0.87676
397.363,22.07165,0.4791,-2.62362,0.87646
397.963,22.09008,0.4555,-2.62644,0.87617
398.563,22.10864,0.43575,-2.62841,0.87587
399.163,22.12719,0.42414,-2.63076,0.87558
399.763,22.14571,0.40798,-2.63367,0.87528
400.363,22.1644,0.3915,-2.63631,0.87499
400.963,22.18299,0.37726,-2.63808,0.87469
401.563,22.2015,0.36643,-2.63977,0.8744
402.163,22.22008,0.35563,-2.63993,0.8741
402.763,22.2387,0.34612,-2.64167,0.87381
403.363,22.2572,0.33764,-2.64289,0.87351
403.963,22.27572,0.32934,-2.64475,0.87322
404.563,22.29421,0.3208,-2.64641,0.87292
405.163,22.3128,0.31399,-2.64845,0.87262
405.763,22.33138,0.30709,-2.65169,0.87233
406.363,22.35011,0.30258,-2.6533,0.87203
406.963,22.36872,0.29531,-2.65478,0.87174
407.563,22.38738,0.29095,-2.65637,0.87144
408.163,22.40596,0.2843,-2.65805,0.87114
408.763,22.42458,0.27897,-2.65975,0.87085
409.363,22.4432,0.27738,-2.66145,0.87055
409.963,22.46184,0.26983,-2.66318,0.87025
410.563,22.48049,0.26382,-2.66451,0.86996
411.163,22.49917,0.26385,-2.66622,0.86966
411.763,22.51782,0.25693,-2.66765,0.86936
412.363,22.53642,0.25455,-2.66909,0.86907
412.963,22.5551,0.24954,-2.66977,0.86877
413.563,22.57378,0.2498,-2.67194,0.86847
414.163,22.5925,0.2436,-2.67372,0.86818
414.763,22.61117,0.24041,-2.67602,0.86788
415.363,22.62989,0.2362,-2.67765,0.86758
415.963,22.64856,0.23316,-2.67859,0.86729
416.563,22.66722,0.23141,-2.67932,0.86699
417.163,22.68589,0.22608,-2.68076,0.86669
417.763,22.70456,0.22237,-2.68203,0.86639
418.363,22.72326,0.22082,-2.68355,0.86609
418.963,22.742,0.2185,-2.68523,0.8658
419.563,22.7607,0.21618,-2.68651,0.8655
420.163,22.7794,0.21226,-2.68785,0.8652
420.763,22.7982,0.20818,-2.68934,0.8649
421.363,22.81674,0.20667,-2.691,0.8646
421.963,22.8354,0.20454,-2.69155,0.8643
422.563,22.8541,0.19975,-2.69313,0.86401
423.163,22.87283,0.19807,-2.69452,0.86371
423.763,22.8916,0.19463,-2.69577,0.86341
424.363,22.9105,0.19283,-2.69753,0.86311
424.963,22.92928,0.1897,-2.70068,0.86281
425.563,22.94804,0.18733,-2.70255,0.86251
426.163,22.9668,0.18628,-2.70437,0.86221
426.763,22.98555,0.18397,-2.70591,0.86191
427.363,23.0043,0.18065,-2.70749,0.86161
427.963,23.02298,0.17687,-2.70903,0.86131
428.563,23.04177,0.178,-2.71076,0.86101
429.163,23.0605,0.17417,-2.71236,0.86071
429.763,23.07923,0.17026,-2.71401,0.86041
430.363,23.098,0.1707,-2.71535,0.86011
430.963,23.1169,0.16703,-2.7172,0.85981
431.563,23.13564,0.16616,-2.71851,0.85951
432.163,23.15445,0.16492,-2.71931,0.85921
432.763,23.1733,0.16606,-2.72087,0.85891
433.363,23.19202,0.16195,-2.72226,0.85861
433.963,23.21076,0.16025,-2.72347,0.85831
434.563,23.22961,0.15996,-2.72501,0.858
435.163,23.2484,0.15678,-2.72664,0.8577
435.763,23.26727,0.15445,-2.72861,0.8574
436.363,23.2862,0.15602,-2.73058,0.8571
436.963,23.30507,0.15509,-2.7317,0.8568
437.563,23.32391,0.15118,-2.73254,0.85649
438.163,23.34279,0.15032,-2.73339,0.85619
438.763,23.36169,0.15118,-2.73439,0.85589
439.363,23.38056,0.14919,-2.73613,0.85559
439.963,23.39947,0.14585,-2.73763,0.85528
440.563,23.4184,0.14863,-2.73867,0.85498
441.163,23.4374,0.14817,-2.73983,0.85468
441.763,23.45628,0.14662,-2.74099,0.85437
442.363,23.47524,0.14676,-2.74378,0.85407
442.963,23.4942,0.14474,-2.74559,0.85377
443.563,23.5132,0.14352,-2.7473,0.85346
444.163,23.53207,0.14441,-2.74901,0.85316
444.763,23.55109,0.14464,-2.75029,0.85285
445.363,23.56999,0.14685,-2.75158,0.85255
445.963,23.5889,0.14562,-2.75324,0.85224
446.563,23.60785,0.14597,-2.75465,0.85194
447.163,23.6268,0.14795,-2.75512,0.85163
447.763,23.6458,0.146,-2.7564,0.85133
448.363,23.66477,0.14535,-2.75815,0.85102
448.963,23.68382,0.14721,-2.75925,0.85072
449.563,23.70289,0.14655,-2.75997,0.85041
450.163,23.72198,0.14859,-2.76156,0.85011
450.763,23.74106,0.14525,-2.76325,0.8498
451.363,23.7603,0.1473,-2.76499,0.84949
451.963,23.7793,0.14899,-2.76555,0.84919
452.563,23.7984,0.15127,-2.76645,0.84888
453.163,23.8174,0.14904,-2.76805,0.84857
453.763,23.83652,0.15214,-2.76972,0.84827
454.363,23.8556,0.15154,-2.77126,0.84796
454.963,23.87469,0.15199,-2.77234,0.84765
455.563,23.89377,0.15415,-2.77367,0.84734
456.163,23.91292,0.15495,-2.77523,0.84704
456.763,23.93198,0.15421,-2.77643,0.84673
457.363,23.9511,0.15701,-2.77771,0.84642
457.963,23.97017,0.15969,-2.77903,0.84611
458.563,23.98927,0.16159,-2.78158,0.8458
459.163,24.00839,0.16,-2.78354,0.84549
459.763,24.02753,0.16163,-2.78531,0.84518
460.363,24.04662,0.16383,-2.78625,0.84487
460.963,24.06573,0.16702,-2.7872,0.84456
461.563,24.0849,0.16709,-2.78877,0.84425
462.163,24.10397,0.16805,-2.78937,0.84394
462.763,24.12313,0.1684,-2.79161,0.84363
463.363,24.14226,0.17066,-2.79343,0.84332
463.963,24.16147,0.17049,-2.79381,0.84301
464.563,24.1806,0.17192,-2.79525,0.8427
465.163,24.19978,0.17479,-2.79675,0.84239
465.763,24.219,0.17328,-2.79676,0.84208
466.363,24.2381,0.17602,-2.79685,0.84177
466.963,24.2573,0.17772,-2.79816,0.84145
467.563,24.27646,0.17543,-2.79839,0.84114
468.163,24.29559,0.1787,-2.80004,0.84083
468.763,24.31476,0.18368,-2.79962,0.84052
469.363,24.3339,0.18138,-2.80093,0.8402
469.963,24.3531,0.182,-2.80248,0.83989
470.563,24.37228,0.18398,-2.80401,0.83958
471.163,24.39147,0.18422,-2.80567,0.83926
471.763,24.41065,0.18492,-2.80695,0.83895
472.363,24.42991,0.18624,-2.80828,0.83864
472.963,24.44914,0.18784,-2.80948,0.83832
473.563,24.46835,0.18632,-2.81175,0.83801
474.163,24.48752,0.18832,-2.81389,0.83769
474.763,24.5066,0.19058,-2.81444,0.83738
475.363,24.52579,0.19082,-2.81561,0.83706
475.963,24.545,0.18941,-2.81694,0.83675
476.563,24.56418,0.19336,-2.81698,0.83643
477.163,24.5836,0.19304,-2.81831,0.83612
477.763,24.60264,0.19354,-2.81859,0.8358
478.363,24.62179,0.19123,-2.82007,0.83548
478.963,24.64106,0.19562,-2.82045,0.83517
479.563,24.6602,0.19594,-2.82134,0.83485
480.163,24.6794,0.19974,-2.82162,0.83453
480.763,24.69882,0.19687,-2.82269,0.83421
481.363,24.71797,0.19945,-2.82314,0.8339
481.963,24.73709,0.19993,-2.82423,0.83358
482.563,24.75628,0.19943,-2.82533,0.83326
483.163,24.77544,0.19904,-2.82561,0.83294
483.763,24.79469,0.20039,-2.82705,0.83262
484.363,24.814,0.20091,-2.82753,0.8323
484.963,24.83325,0.19935,-2.82867,0.83198
485.563,24.8525,0.20126,-2.82956,0.83166
486.163,24.87171,0.20421,-2.82997,0.83134
486.763,24.89086,0.20188,-2.83118,0.83102
487.363,24.90997,0.20452,-2.83154,0.8307
487.963,24.9291,0.20291,-2.83308,0.83038
488.563,24.94833,0.202,-2.83389,0.83006
489.163,24.9675,0.20366,-2.83446,0.82974
489.763,24.9867,0.20522,-2.83567,0.82942
490.363,25.00594,0.20639,-2.83581,0.8291
490.963,25.02518,0.20286,-2.83587,0.82877
491.563,25.04441,0.20451,-2.83817,0.82845
492.163,25.0636,0.20707,-2.83888,0.82813
492.763,25.08278,0.20709,-2.84009,0.82781
493.363,25.10194,0.20876,-2.84092,0.82748
493.963,25.12114,0.20442,-2.84142,0.82716
494.563,25.14031,0.20636,-2.84107,0.82683
495.163,25.1595,0.21039,-2.84138,0.82651
495.763,25.17875,0.20948,-2.84135,0.82619
496.363,25.198,0.20688,-2.84271,0.82586
496.963,25.21716,0.20991,-2.84268,0.82554
497.563,25.23643,0.20702,-2.84388,0.82521
498.163,25.25564,0.2107,-2.84404,0.82488
498.763,25.27484,0.20763,-2.84499,0.82456
499.363,25.29403,0.20988,-2.84556,0.82423
499.963,25.31324,0.21002,-2.84574,0.82391
500.563,25.33243,0.20979,-2.84713,0.82358
501.163,25.3517,0.2103,-2.84821,0.82325
501.763,25.3709,0.21166,-2.84896,0.82292
502.363,25.39015,0.21184,-2.84964,0.8226
502.963,25.40921,0.21049,-2.85066,0.82227
503.563,25.42819,0.21134,-2.85121,0.82194
504.163,25.44728,0.21128,-2.85197,0.82161
504.763,25.46651,0.2105,-2.85273,0.82128
505.363,25.48585,0.2108,-2.85379,0.82095
505.963,25.50517,0.21412,-2.85417,0.82062
506.563,25.5246,0.21195,-2.85528,0.82029
507.163,25.5439,0.21186,-2.85557,0.81996
507.763,25.56307,0.21134,-2.85577,0.81963
508.363,25.58226,0.2128,-2.85632,0.8193
508.963,25.6016,0.21337,-2.85784,0.81897
509.563,25.6208,0.21281,-2.85779,0.81864
510.163,25.6401,0.21344,-2.85918,0.81831
510.763,25.65931,0.21365,-2.85974,0.81797
511.363,25.67856,0.21221,-2.86194,0.81764
511.963,25.69771,0.2175,-2.8621,0.81731
512.563,25.71695,0.2168,-2.86331,0.81698
513.163,25.7362,0.2159,-2.86321,0.81664
513.763,25.75546,0.21181,-2.86438,0.81631
514.363,25.7747,0.21279,-2.86461,0.81597
514.963,25.79405,0.21307,-2.8657,0.81564
515.563,25.81335,0.21433,-2.86607,0.81531
516.163,25.83265,0.21716,-2.86719,0.81497
516.763,25.85193,0.21673,-2.86872,0.81463
517.363,25.87118,0.21658,-2.86876,0.8143
517.963,25.89039,0.21552,-2.87005,0.81396
518.563,25.90962,0.21332,-2.87034,0.81363
519.163,25.9289,0.21534,-2.87151,0.81329
519.763,25.9482,0.21515,-2.87237,0.81295
520.363,25.9675,0.21589,-2.87303,0.81261
520.963,25.98676,0.21507,-2.87366,0.81228
521.563,26.00604,0.21479,-2.87432,0.81194
522.163,26.02525,0.21311,-2.87423,0.8116
522.763,26.04451,0.21505,-2.87557,0.81126
523.363,26.06379,0.21536,-2.87571,0.81092
523.963,26.08305,0.21597,-2.87447,0.81058
524.563,26.10238,0.21263,-2.87596,0.81024
525.163,26.12174,0.21607,-2.87583,0.8099
525.763,26.14108,0.21465,-2.87693,0.80956
526.363,26.16036,0.21347,-2.87718,0.80922
526.963,26.17971,0.21356,-2.87718,0.80888
527.563,26.19904,0.21278,-2.87719,0.80854
528.163,26.21834,0.21579,-2.878,0.8082
528.763,26.2376,0.21236,-2.87863,0.80785
529.363,26.25698,0.21359,-2.87929,0.80751
529.963,26.27628,0.21379,-2.87992,0.80717
530.563,26.2956,0.21202,-2.88083,0.80683
531.163,26.3149,0.21481,-2.88195,0.80648
531.763,26.33428,0.21375,-2.88328,0.80614
532.363,26.35365,0.21295,-2.88346,0.80579
532.963,26.3729,0.21396,-2.88484,0.80545
533.563,26.39224,0.21148,-2.88475,0.8051
534.163,26.4116,0.21384,-2.88524,0.80476
534.763,26.4309,0.2105,-2.88614,0.80441
535.363,26.45018,0.21387,-2.8875,0.80407
535.963,26.4695,0.21178,-2.88814,0.80372
536.563,26.4888,0.21068,-2.88838,0.80337
537.163,26.5081,0.21168,-2.8895,0.80302
537.763,26.5275,0.21068,-2.88947,0.80268
538.363,26.5468,0.21114,-2.88958,0.80233
538.963,26.56615,0.2102,-2.89084,0.80198
539.563,26.58551,0.20905,-2.89077,0.80163
540.163,26.6048,0.20801,-2.89068,0.80128
540.763,26.62414,0.20761,-2.892,0.80093
541.363,26.64353,0.21069,-2.89208,0.80058
541.963,26.663,0.20975,-2.89196,0.80023
542.563,26.68232,0.2102,-2.89129,0.79988
543.163,26.7017,0.20791,-2.89207,0.79953
543.763,26.7211,0.21011,-2.89209,0.79918
544.363,26.74052,0.21174,-2.89209,0.79883
544.963,26.7599,0.21039,-2.8934,0.79848
545.563,26.77923,0.21208,-2.89341,0.79812
546.163,26.79865,0.21479,-2.89475,0.79777
546.763,26.81805,0.21307,-2.89579,0.79742
547.363,26.83748,0.217,-2.89795,0.79706
547.963,26.8569,0.21854,-2.89925,0.79671
548.563,26.87632,0.21921,-2.89988,0.79636
549.163,26.89572,0.21845,-2.89876,0.796
549.763,26.9151,0.21808,-2.89819,0.79565
550.363,26.93455,0.22104,-2.89855,0.79529
550.963,26.954,0.21954,-2.89794,0.79493
551.563,26.97343,0.2231,-2.89827,0.79458
552.163,26.9928,0.22366,-2.89887,0.79422
552.763,27.0122,0.22631,-2.89889,0.79386
553.363,27.03165,0.2246,-2.89889,0.79351
553.963,27.0511,0.22617,-2.89889,0.79315
554.563,27.0706,0.22849,-2.89889,0.79279
555.163,27.0901,0.22713,-2.89889,0.79243
555.763,27.1093,0.2346,-2.89889,0.79207
556.363,27.1287,0.23248,-2.90068,0.79171
556.963,27.14821,0.23228,-2.90154,0.79135
557.563,27.1677,0.23193,-2.90153,0.79099
558.163,27.18737,0.23452,-2.90155,0.79063
558.763,27.20703,0.23415,-2.9022,0.79027
559.363,27.2265,0.23716,-2.90296,0.78991
559.963,27.24605,0.23611,-2.90409,0.78955
560.563,27.26561,0.23765,-2.90581,0.78918
561.163,27.2851,0.24065,-2.90736,0.78882
561.763,27.3046,0.23613,-2.90768,0.78846
562.363,27.32406,0.2405,-2.90878,0.7881
562.963,27.3435,0.24051,-2.90876,0.78773
563.563,27.36298,0.24037,-2.9087,0.78737
564.163,27.38253,0.2404,-2.90992,0.787
564.763,27.40209,0.23945,-2.91008,0.78664
565.363,27.4217,0.2385,-2.91009,0.78627
565.963,27.4412,0.2389,-2.91144,0.78591
566.563,27.4608,0.2408,-2.91139,0.78554
567.163,27.48027,0.23964,-2.91207,0.78517
567.763,27.49977,0.23873,-2.91271,0.78481
568.363,27.51932,0.23553,-2.91268,0.78444
568.963,27.5389,0.23622,-2.91401,0.78407
569.563,27.55841,0.23183,-2.91374,0.7837
570.163,27.578,0.23265,-2.91398,0.78333
570.763,27.5975,0.23487,-2.91403,0.78296
571.363,27.61712,0.23309,-2.91403,0.78259
571.963,27.63662,0.23359,-2.91403,0.78222
572.563,27.6562,0.22798,-2.91397,0.78185
573.163,27.6758,0.23083,-2.91609,0.78148
573.763,27.69544,0.22619,-2.91668,0.78111
574.363,27.715,0.22473,-2.91831,0.78074
574.963,27.73456,0.22605,-2.91822,0.78037
575.563,27.7541,0.22105,-2.9184,0.78
576.163,27.7737,0.22006,-2.91957,0.77962
576.763,27.79324,0.21759,-2.91888,0.77925
577.363,27.8129,0.21582,-2.91974,0.77888
577.963,27.83255,0.21305,-2.91956,0.7785
578.563,27.85213,0.21279,-2.91939,0.77813
579.163,27.87175,0.21199,-2.91974,0.77775
579.763,27.8913,0.21026,-2.92111,0.77738
580.363,27.9109,0.20818,-2.92106,0.777
580.963,27.9304,0.20919,-2.92106,0.77663
581.563,27.95,0.20687,-2.92237,0.77625
582.163,27.9696,0.20871,-2.92237,0.77587
582.763,27.98915,0.20478,-2.92238,0.77549
583.363,28.0088,0.20195,-2.92292,0.77512
583.963,28.02842,0.20244,-2.92312,0.77474
584.563,28.04798,0.20182,-2.92302,0.77436
585.163,28.06755,0.19958,-2.92293,0.77398
585.763,28.08715,0.19839,-2.92432,0.7736
586.363,28.1067,0.19728,-2.92434,0.77322
586.963,28.12635,0.19927,-2.92433,0.77284
587.563,28.146,0.19598,-2.92424,0.77246
588.163,28.16555,0.19597,-2.9256,0.77208
588.763,28.1851,0.19618,-2.92561,0.7717
589.363,28.20468,0.19356,-2.92668,0.77131
589.963,28.22428,0.19409,-2.92698,0.77093
590.563,28.2439,0.19535,-2.9273,0.77055
591.163,28.26349,0.19282,-2.9283,0.77016
591.763,28.28312,0.19064,-2.92829,0.76978
592.363,28.30276,0.19332,-2.92889,0.7694
592.963,28.3224,0.18933,-2.92959,0.76901
593.563,28.34208,0.18921,-2.92961,0.76862
594.163,28.36174,0.19098,-2.92968,0.76824
594.763,28.38125,0.18876,-2.93095,0.76785
595.363,28.40077,0.18806,-2.93092,0.76747
595.963,28.4204,0.18786,-2.93091,0.76708
596.563,28.44,0.18761,-2.93191,0.76669
597.163,28.4596,0.18945,-2.93224,0.7663
597.763,28.4793,0.18759,-2.93224,0.76592
598.363,28.49897,0.18709,-2.93224,0.76553
598.963,28.51857,0.18629,-2.93224,0.76514
599.563,28.53818,0.1852,-2.93225,0.76475
600.163,28.5579,0.18515,-2.93273,0.76436
600.763,28.57755,0.18368,-2.93357,0.76397
601.363,28.5972,0.18722,-2.93355,0.76358
601.963,28.61683,0.1821,-2.93346,0.76319
602.563,28.63645,0.1857,-2.93498,0.76279
603.163,28.6561,0.18428,-2.93425,0.7624
603.763,28.6757,0.18655,-2.93422,0.76201
604.363,28.6954,0.18566,-2.93557,0.76161
604.963,28.71508,0.18483,-2.9353,0.76122
605.563,28.7348,0.18632,-2.93502,0.76083
606.163,28.75452,0.18372,-2.93538,0.76043
606.763,28.77416,0.18308,-2.9363,0.76004
607.363,28.79385,0.18184,-2.93628,0.75964
607.963,28.8135,0.18166,-2.93619,0.75925
608.563,28.8331,0.18288,-2.93839,0.75885
609.163,28.8528,0.18117,-2.93892,0.75845
609.763,28.87241,0.18208,-2.93893,0.75806
610.363,28.8921,0.1798,-2.93894,0.75766
610.963,28.91185,0.18281,-2.939,0.75726
611.563,28.93155,0.18384,-2.94027,0.75686
612.163,28.9512,0.18313,-2.94024,0.75646
612.763,28.97087,0.18155,-2.94024,0.75606
613.363,28.9905,0.17997,-2.94061,0.75566
613.963,29.0101,0.18318,-2.94156,0.75526
614.563,29.02985,0.1802,-2.94156,0.75486
615.163,29.0495,0.18015,-2.94153,0.75446
615.763,29.0693,0.18302,-2.94194,0.75406
616.363,29.08892,0.18267,-2.94191,0.75366
616.963,29.10858,0.18058,-2.94274,0.75325
617.563,29.12821,0.18229,-2.9432,0.75285
618.163,29.1479,0.18496,-2.94319,0.75245
618.763,29.16757,0.18083,-2.94312,0.75204
619.363,29.18725,0.18088,-2.94452,0.75164
619.963,29.20699,0.18436,-2.94521,0.75123
620.563,29.22669,0.18666,-2.94597,0.75083
621.163,29.2464,0.18539,-2.94723,0.75042
621.763,29.2661,0.18468,-2.94719,0.75002
622.363,29.2858,0.18463,-2.94773,0.74961
622.963,29.3055,0.18687,-2.94899,0.7492
623.563,29.3252,0.18722,-2.94974,0.7488
624.163,29.34491,0.18797,-2.95083,0.74839
624.763,29.36458,0.19109,-2.95108,0.74798
625.363,29.3843,0.1911,-2.95106,0.74757
625.963,29.40408,0.19266,-2.95134,0.74716
626.563,29.42385,0.19163,-2.95111,0.74675
627.163,29.4436,0.19208,-2.95111,0.74634
627.763,29.4635,0.19644,-2.95126,0.74593
628.363,29.4832,0.1947,-2.95247,0.74552
628.963,29.503,0.19652,-2.95237,0.74511
629.563,29.52269,0.1955,-2.95361,0.74469
630.163,29.54242,0.19779,-2.95384,0.74428
630.763,29.56203,0.20021,-2.95437,0.74387
631.363,29.5819,0.19531,-2.95514,0.74345
631.963,29.60165,0.19914,-2.95517,0.74304
632.563,29.6214,0.1982,-2.95654,0.74263
633.163,29.64118,0.20087,-2.95648,0.74221
633.763,29.66099,0.20252,-2.95649,0.7418
634.363,29.68072,0.20142,-2.95784,0.74138
634.963,29.70052,0.20276,-2.95781,0.74096
635.563,29.7203,0.20579,-2.95712,0.74055
636.163,29.74015,0.20616,-2.95813,0.74013
636.763,29.76,0.20886,-2.95812,0.73971
637.363,29.77982,0.20692,-2.95812,0.73929
637.963,29.79965,0.20699,-2.95942,0.73887
638.563,29.81946,0.20985,-2.95944,0.73846
639.163,29.83925,0.2115,-2.95944,0.73804
639.763,29.8591,0.21417,-2.9597,0.73762
640.363,29.8789,0.21298,-2.96079,0.7372
640.963,29.89873,0.21215,-2.96041,0.73677
641.563,29.9185,0.21608,-2.96044,0.73635
642.163,29.9383,0.21845,-2.96125,0.73593
642.763,29.9582,0.21765,-2.96175,0.73551
643.363,29.97802,0.22003,-2.96182,0.73509
643.963,29.99788,0.21883,-2.96063,0.73466
644.563,30.01778,0.22291,-2.96179,0.73424
645.163,30.03763,0.22394,-2.96171,0.73381
645.763,30.0574,0.22584,-2.96303,0.73339
646.363,30.0773,0.22377,-2.96311,0.73296
646.963,30.09708,0.22661,-2.96432,0.73254
647.563,30.11689,0.22742,-2.96472,0.73211
648.163,30.1367,0.23048,-2.96632,0.73169
648.763,30.15645,0.23252,-2.96703,0.73126
649.363,30.17625,0.22971,-2.96789,0.73083
649.963,30.19609,0.23449,-2.96893,0.7304
650.563,30.21595,0.2333,-2.96929,0.72997
651.163,30.2359,0.23513,-2.96931,0.72955
651.763,30.2558,0.23794,-2.96931,0.72912
652.363,30.27562,0.23781,-2.96932,0.72869
652.963,30.29546,0.23757,-2.9696,0.72826
653.563,30.31527,0.23718,-2.97066,0.72783
654.163,30.3351,0.24021,-2.97057,0.72739
654.763,30.35502,0.23924,-2.97168,0.72696
655.363,30.3749,0.24356,-2.97199,0.72653
655.963,30.3947,0.24312,-2.97334,0.7261
656.563,30.4146,0.2452,-2.97326,0.72566
657.163,30.4344,0.24181,-2.97325,0.72523
657.763,30.4541,0.24612,-2.97405,0.7248
658.363,30.474,0.24422,-2.97461,0.72436
658.963,30.4939,0.25159,-2.97569,0.72393
659.563,30.5137,0.24697,-2.97609,0.72349
660.163,30.5336,0.24703,-2.97681,0.72306
660.763,30.5535,0.24878,-2.97739,0.72262
661.363,30.5734,0.25159,-2.97743,0.72218
661.963,30.5933,0.25142,-2.97757,0.72175
662.563,30.6132,0.25654,-2.97879,0.72131
663.163,30.63308,0.25809,-2.97874,0.72087
663.763,30.65294,0.25856,-2.97874,0.72043
664.363,30.6728,0.2612,-2.97876,0.71999
664.963,30.69261,0.25928,-2.98015,0.71955
665.563,30.7125,0.26253,-2.98004,0.71911
666.163,30.73235,0.26621,-2.9809,0.71867
666.763,30.7522,0.26861,-2.98134,0.71823
667.363,30.7721,0.26868,-2.9822,0.71779
667.963,30.7919,0.27426,-2.98268,0.71735
668.563,30.81178,0.27628,-2.98266,0.7169
669.163,30.83163,0.28313,-2.98379,0.71646
669.763,30.85146,0.28035,-2.984,0.71602
670.363,30.87128,0.28832,-2.98398,0.71557
670.963,30.89118,0.28865,-2.98508,0.71513
671.563,30.911,0.28975,-2.98531,0.71468
672.163,30.9308,0.29489,-2.98608,0.71424
672.763,30.9507,0.30135,-2.98768,0.71379
673.363,30.9706,0.30335,-2.98895,0.71335
673.963,30.9905,0.30939,-2.98896,0.7129
674.563,31.0104,0.31256,-2.98781,0.71245
675.163,31.0303,0.31829,-2.98739,0.71201
675.763,31.05022,0.31985,-2.98743,0.71156
676.363,31.07007,0.32484,-2.98929,0.71111
676.963,31.0899,0.33329,-2.9907,0.71066
677.563,31.1097,0.33637,-2.99133,0.71021
678.163,31.12955,0.34088,-2.99263,0.70976
678.763,31.1494,0.34781,-2.99356,0.70931
679.363,31.1693,0.35119,-2.99482,0.70886
679.963,31.1891,0.35774,-2.9946,0.70841
680.563,31.209,0.36496,-2.99353,0.70796
681.163,31.22894,0.36959,-2.99499,0.7075
681.763,31.2489,0.37188,-2.99502,0.70705
682.363,31.26875,0.38077,-2.99639,0.7066
682.963,31.28868,0.38663,-2.99637,0.70614
683.563,31.30854,0.39393,-2.99787,0.70569
684.163,31.3284,0.39905,-2.99885,0.70524
684.763,31.34827,0.40356,-2.9994,0.70478
685.363,31.3682,0.41196,-3.00099,0.70433
685.963,31.388,0.41709,-3.00118,0.70387
686.563,31.40796,0.42293,-3.00261,0.70341
687.163,31.42792,0.43145,-3.00332,0.70296
687.763,31.44783,0.43825,-3.00393,0.7025
688.363,31.46772,0.44422,-3.00519,0.70204
688.963,31.48762,0.45382,-3.00527,0.70158
689.563,31.50747,0.46215,-3.00648,0.70112
690.163,31.52743,0.46536,-3.0066,0.70066
690.763,31.5474,0.47092,-3.00822,0.7002
691.363,31.5673,0.47761,-3.00868,0.69974
691.963,31.5872,0.48547,-3.00958,0.69928
692.563,31.60717,0.49244,-3.00947,0.69882
693.163,31.62705,0.49986,-3.01085,0.69836
693.763,31.647,0.50775,-3.01078,0.6979
694.363,31.6669,0.51159,-3.01237,0.69744
694.963,31.68685,0.51484,-3.01281,0.69697
695.563,31.70678,0.52035,-3.01389,0.69651
696.163,31.7267,0.52961,-3.01522,0.69605
696.763,31.74665,0.53571,-3.0167,0.69558
697.363,31.7666,0.53796,-3.0173,0.69512
697.963,31.7866,0.54575,-3.01816,0.69465
698.563,31.8065,0.5515,-3.01885,0.69419
699.163,31.8265,0.55476,-3.01816,0.69372
699.763,31.84638,0.56025,-3.01927,0.69325
700.363,31.86632,0.56259,-3.01957,0.69279
700.963,31.88627,0.56759,-3.02079,0.69232
701.563,31.9062,0.57186,-3.02096,0.69185
702.163,31.92613,0.57277,-3.0221,0.69138
702.763,31.946,0.57818,-3.02284,0.69091
703.363,31.96589,0.57988,-3.02326,0.69044
703.963,31.98582,0.58216,-3.02464,0.68997
704.563,32.00577,0.58425,-3.02535,0.6895
705.163,32.0258,0.58512,-3.02652,0.68903
705.763,32.0458,0.58698,-3.02828,0.68856
706.363,32.06578,0.58804,-3.02947,0.68809
706.963,32.08576,0.58872,-3.03003,0.68762
707.563,32.1057,0.58889,-3.0313,0.68714
708.163,32.12571,0.59119,-3.03264,0.68667
708.763,32.14565,0.59242,-3.03297,0.6862
709.363,32.16565,0.5931,-3.03453,0.68572
709.963,32.18565,0.59193,-3.03572,0.68525
710.563,32.20567,0.59134,-3.03657,0.68477
711.163,32.22566,0.58895,-3.03755,0.6843
711.763,32.24569,0.586,-3.03853,0.68382
712.363,32.2657,0.58555,-3.039,0.68335
712.963,32.2857,0.58231,-3.04056,0.68287
713.563,32.30579,0.58261,-3.04177,0.68239
714.163,32.32592,0.57716,-3.04263,0.68191
714.763,32.346,0.57559,-3.04348,0.68144
715.363,32.366,0.57425,-3.04483,0.68096
715.963,32.3861,0.57015,-3.04441,0.68048
716.563,32.406,0.56501,-3.04498,0.68
717.163,32.42601,0.56068,-3.04551,0.67952
717.763,32.44601,0.55567,-3.04634,0.67904
718.363,32.46602,0.54796,-3.04779,0.67856
718.963,32.48608,0.53837,-3.04853,0.67808
719.563,32.50613,0.52943,-3.05044,0.6776
720.163,32.52623,0.52172,-3.05048,0.67711
720.763,32.54633,0.50871,-3.05176,0.67663
721.363,32.5664,0.49708,-3.05169,0.67615
721.963,32.58647,0.488,-3.05279,0.67566
722.563,32.60654,0.4768,-3.05351,0.67518
723.163,32.62662,0.45877,-3.055,0.6747
723.763,32.6467,0.4514,-3.05668,0.67421
724.363,32.6668,0.43377,-3.05818,0.67372
724.963,32.6868,0.42069,-3.05837,0.67324
725.563,32.70691,0.40741,-3.05997,0.67275
726.163,32.72698,0.39325,-3.06003,0.67227
726.763,32.74708,0.38555,-3.06044,0.67178
727.363,32.76719,0.37302,-3.06137,0.67129
727.963,32.7872,0.36112,-3.06129,0.6708
728.563,32.80737,0.35581,-3.06254,0.67032
729.163,32.82751,0.34386,-3.06261,0.66983
729.763,32.8476,0.33898,-3.06396,0.66934
730.363,32.86772,0.33255,-3.06413,0.66885
730.963,32.88785,0.32348,-3.06332,0.66836
731.563,32.90795,0.31588,-3.06422,0.66787
732.163,32.92804,0.30992,-3.06554,0.66737
732.763,32.9482,0.30824,-3.06567,0.66688
733.363,32.96829,0.30309,-3.06697,0.66639
733.963,32.9884,0.30307,-3.06696,0.6659
734.563,33.0086,0.29757,-3.06857,0.66541
735.163,33.02867,0.29693,-3.06912,0.66491
735.763,33.04878,0.2896,-3.06992,0.66442
736.363,33.06886,0.28879,-3.07077,0.66392
736.963,33.089,0.28557,-3.07119,0.66343
737.563,33.10917,0.2824,-3.07243,0.66293
738.163,33.12935,0.28213,-3.07142,0.66244
738.763,33.1495,0.27971,-3.07237,0.66194
739.363,33.16968,0.27219,-3.07274,0.66145
739.963,33.18967,0.2706,-3.07274,0.66095
740.563,33.20968,0.26848,-3.07274,0.66045
741.163,33.2298,0.26931,-3.07274,0.65996
741.763,33.24991,0.2666,-3.07274,0.65946
742.363,33.2701,0.26418,-3.07407,0.65896
742.963,33.29043,0.25536,-3.07406,0.65846
743.563,33.3115,0.25457,-3.07406,0.65796
744.163,33.33193,0.25295,-3.07406,0.65746