File: 01_Data/PMMA/Cone/PMMA_Cone_HF50Scan_210826_R2.csv
Names,Time,Stack TC,Smoke TC,Exh Press,Smoke Comp,Smoke Meas,CO Meter,CO2 Meter,O2 Meter,Sample Mass,Ext Coeff,Start Test,Flame Verif
Chan Gain,,500,500,1,1,1,1,1,1,1,1,1.0,1.0
Offset,,0,0,0.141443,0,0,0,0,0,0,0,0.0,0.0
Gain,,1,1,25.011,13.1742,16.6938,1,1,1,1.00099,1.02845,1.0,1.0
Units,sec,C,C,Pa,%,%,%,%,%,g,/m,,
Baseline,,43.2534,45.7153,165.3,101.502,112.167,0.00154087,0.0539933,20.9778,-506.551,-0.901359,,
3,0.5,41.5257,43.8957,167.321,101.868,112.591,0.00162778,0.0536544,20.9795,36.416,-0.902912,0.0,0.0
6,1.25,41.1117,43.102,164.164,101.866,112.555,0.00164547,0.0537274,20.9795,36.446,-0.900191,0.0,0.0
9,2,40.4207,42.9413,163.47,101.85,112.791,0.00166384,0.0537807,20.9795,36.416,-0.920465,0.0,0.0
12,2.75,41.1466,43.0045,164.492,101.862,112.636,0.00167467,0.0538335,20.9796,36.426,-0.907037,0.0,0.0
15,3.5,40.7691,42.9223,164.752,101.838,112.411,0.00168147,0.053878,20.9796,36.416,-0.891166,0.0,0.0
18,4.25,40.613,43.3028,161.902,101.82,112.476,0.00168826,0.0539705,20.9796,36.4059,-0.897954,0.0,0.0
21,5,41.2271,43.6184,169.78,101.819,112.545,0.00170088,0.05406,20.9796,36.3859,-0.903623,0.0,0.0
24,5.75,40.7855,43.3233,164.162,101.816,112.631,0.0017221,0.0541632,20.9796,36.3559,-0.910765,0.0,0.0
27,6.5,41.2122,43.1871,166.775,101.797,112.82,0.00173706,0.0541984,20.9796,36.2858,-0.92749,0.0,0.0
30,7.25,40.8003,43.3665,163.235,101.789,112.153,0.00175433,0.0541871,20.9796,36.3259,-0.874718,0.0,0.0
33,8,41.4566,42.9576,163.313,101.773,112.415,0.00176693,0.0541157,20.9796,36.2458,-0.897223,0.0,0.0
36,8.75,41.0269,42.9014,162.704,101.773,112.409,0.00176515,0.0540217,20.9796,36.1957,-0.896774,0.0,0.0
39,9.5,41.1854,43.0161,166.837,101.76,112.454,0.00176223,0.0539204,20.9796,36.3459,-0.901476,0.0,0.0
42,10.25,41.0289,42.9801,164.665,101.755,112.562,0.00175625,0.0538213,20.979,36.416,-0.910635,0.0,0.0
45,11,40.9907,43.3026,168.027,101.723,112.396,0.00174422,0.053735,20.9788,36.416,-0.900091,0.0,0.0
48,11.75,41.1364,43.4184,166.922,101.713,112.474,0.00172322,0.0536662,20.979,36.3559,-0.907277,0.0,0.0
51,12.5,41.1874,42.9039,166.774,101.719,112.367,0.0017041,0.053631,20.9792,36.3259,-0.898116,0.0,0.0
54,13.25,40.7428,43.1546,163.042,101.703,112.484,0.00167009,0.0535977,20.9793,36.3659,-0.90895,0.0,0.0
57,14,40.4493,42.8299,164.644,101.67,112.654,0.00162707,0.0535861,20.9794,36.416,-0.925471,0.0,0.0
60,14.75,41.1726,43.0107,162.831,101.657,112.567,0.00159571,0.0535176,20.9795,36.4059,-0.91971,0.0,0.0
63,15.5,40.8097,43.6179,164.994,101.647,112.499,0.0015754,0.0534676,20.9795,36.416,-0.915093,0.0,0.0
66,16.25,41.2754,43.784,168.525,101.664,112.501,0.00156168,0.0534239,20.9795,36.3859,-0.913717,0.0,0.0
69,17,40.9445,43.4655,160.085,101.662,112.424,0.00156992,0.0533793,20.9796,36.3359,-0.907766,0.0,0.0
72,17.75,41.102,43.4426,165.742,101.673,112.323,0.00157976,0.0532487,20.9796,36.3359,-0.898663,0.0,0.0
75,18.5,40.7772,43.4624,169.424,101.677,112.178,0.0015852,0.0531116,20.9796,36.3459,-0.886673,0.0,0.0
78,19.25,41.3293,43.3371,166.448,101.682,112.039,0.00158342,0.0530257,20.9796,36.3459,-0.875052,0.0,0.0
81,20,41.1238,43.7885,166.51,101.687,112.562,0.00157337,0.0529765,20.9796,36.3559,-0.916656,0.0,0.0
84,20.75,41.5387,43.4293,166.872,101.692,112.454,0.00155109,0.0529532,20.98,36.3159,-0.907532,0.0,0.0
87,21.5,41.1295,43.4427,159.309,101.709,112.14,0.00153667,0.0529562,20.9802,36.3059,-0.880823,0.0,0.0
90,22.25,41.4481,43.7081,166.469,101.727,112.532,0.00152616,0.0529584,20.9804,36.3059,-0.91068,0.0,0.0
93,23,41.4271,43.7668,166.523,101.719,112.289,0.00155862,0.052946,20.9806,36.2858,-0.891896,0.0,0.0
96,23.75,41.109,44.0157,164.865,101.737,112.591,0.00162194,0.052945,20.9807,36.3559,-0.914526,0.0,0.0
99,24.5,41.239,43.6345,166.038,101.753,112.503,0.00168502,0.0529502,20.9807,36.2958,-0.906076,0.0,0.0
102,25.25,41.076,43.6118,162.989,101.755,112.397,0.00177668,0.052994,20.9808,36.2558,-0.89732,0.0,0.0
105,26,41.3494,43.8467,165.126,101.769,112.569,0.00184734,0.0530407,20.9808,36.3059,-0.909954,0.0,0.0
108,26.75,41.3092,43.9616,162.862,101.781,112.557,0.00190049,0.0531,20.9809,36.3259,-0.907874,0.0,0.0
111,27.5,41.5239,43.5059,169.975,101.794,112.75,0.00191731,0.0531292,20.9804,36.3159,-0.922156,0.0,0.0
114,28.25,41.7797,44.2148,167.56,101.797,112.411,0.0019142,0.0531445,20.9797,36.3059,-0.894723,0.0,0.0
117,29,41.729,43.7618,163.041,101.814,112.732,0.00190538,0.0540563,20.9788,36.3059,-0.91906,0.0,0.0
120,29.75,41.1949,44.3478,163.937,101.832,112.191,0.00189639,0.0567611,20.9711,36.2058,-0.87402,0.0,0.0
123,30.5,41.5879,44.0298,164.104,101.834,112.503,0.00190156,0.0622217,20.9625,36.2258,-0.898842,0.0,1.0
126,31.25,41.7245,43.4778,160.928,101.845,112.109,0.00192722,0.0764003,20.9406,36.2458,-0.866318,0.0,1.0
129,32,41.8131,44.8113,162.05,101.851,112.056,0.00201908,0.100945,20.9092,36.1757,-0.861484,0.0,1.0
132,32.75,42.2743,44.9351,151.648,101.862,111.321,0.00216567,0.124896,20.8671,36.1057,-0.801064,0.0,1.0
135,33.5,42.4288,45.7973,153.633,101.878,109.515,0.00235865,0.165499,20.8147,36.0556,-0.652115,0.0,1.0
138,34.25,43.2783,46.7684,148.299,101.895,108.978,0.00258854,0.202649,20.7483,35.9455,-0.606319,0.0,1.0
141,35,44.276,47.6131,146.551,101.908,108.35,0.00290526,0.242645,20.6904,35.8854,-0.552952,0.0,1.0
144,35.75,43.089,48.2027,148.983,101.906,108.134,0.00313615,0.292351,20.6321,35.8054,-0.535161,0.0,1.0
147,36.5,44.0369,49.0962,141.262,101.922,105.76,0.00353909,0.346516,20.5737,35.7353,-0.333473,0.0,0.0
150,37.25,45.3916,51.0581,142.356,101.94,106.124,0.00388962,0.397319,20.5244,35.6652,-0.362883,0.0,0.0
153,38,46.1854,52.6435,140.545,101.949,106.012,0.00424226,0.439178,20.4691,35.5551,-0.352574,0.0,0.0
156,38.75,47.3714,54.5223,146.476,101.955,106.002,0.00460711,0.483776,20.4116,35.435,-0.351095,0.0,0.0
159,39.5,49.0658,55.9719,134.213,101.975,103.752,0.00493835,0.522293,20.3537,35.3449,-0.155865,0.0,0.0
162,40.25,50.1875,58.8357,134.61,101.984,104.564,0.00523517,0.566871,20.2964,35.1847,-0.225455,0.0,0.0
165,41,51.3838,60.194,132.737,101.995,103.824,0.00549861,0.60481,20.2334,35.0446,-0.160286,0.0,0.0
168,41.75,52.5029,62.5275,134.099,102.014,103.174,0.00575226,0.64663,20.1874,34.9345,-0.101951,0.0,0.0
171,42.5,53.9011,64.3911,137.314,102.019,102.402,0.00593718,0.685422,20.1364,34.8144,-0.0338277,0.0,0.0
174,43.25,55.7836,66.3311,139.319,102.026,103.509,0.00612788,0.725662,20.0992,34.6742,-0.130149,0.0,0.0
177,44,56.7307,68.79,130.496,102.046,101.771,0.0063625,0.761617,20.0592,34.5641,0.0243712,0.0,0.0
180,44.75,58.3312,70.6067,130.41,102.05,102.649,0.00661502,0.790651,20.0259,34.2438,-0.0528321,0.0,0.0
183,45.5,59.3018,73.2238,135.261,102.05,103.306,0.00689281,0.816018,19.9946,34.2038,-0.110282,0.0,0.0
186,46.25,60.4882,75.3297,129.978,102.075,101.321,0.00719611,0.841697,19.9623,33.8735,0.0669057,0.0,0.0
189,47,62.0915,77.0326,129.858,102.089,101.078,0.0075227,0.866386,19.9265,33.8935,0.0897768,0.0,0.0
192,47.75,63.1821,78.9295,140.061,102.099,100.493,0.00778864,0.88693,19.8951,33.7333,0.143016,0.0,0.0
195,48.5,64.1405,80.8668,137.162,102.109,101.645,0.00803013,0.91049,19.8604,33.7433,0.041157,0.0,0.0
198,49.25,65.6375,82.4673,129.566,102.11,99.856,0.00826284,0.931609,19.824,33.5631,0.201362,0.0,0.0
201,50,66.511,83.7789,128.569,102.131,101.053,0.00843249,0.95375,19.7929,33.3429,0.0957249,0.0,0.0
204,50.75,67.6617,85.8377,123.897,102.146,101.249,0.00866967,0.982118,19.7588,33.3129,0.0796256,0.0,0.0
207,51.5,68.7779,87.7159,132.627,102.146,100.271,0.00890235,1.00824,19.7225,33.1027,0.167089,0.0,0.0
210,52.25,70.2919,89.1133,131.669,102.141,100.443,0.00909747,1.03658,19.6851,32.9525,0.151218,0.0,0.0
213,53,71.5055,91.9884,124.525,102.163,100.103,0.00932322,1.06829,19.6446,32.7523,0.183836,0.0,0.0
216,53.75,72.6047,94.3122,127.126,102.175,99.7516,0.00953841,1.09612,19.6018,32.4821,0.216555,0.0,0.0
219,54.5,74.3476,96.1591,124.209,102.178,99.1555,0.00977958,1.13135,19.5518,32.2619,0.270873,0.0,0.0
222,55.25,75.429,99.0208,123.548,102.193,98.2767,0.010025,1.16521,19.5055,32.3319,0.3525,0.0,0.0
225,56,77.1183,100.818,127.928,102.214,98.1666,0.0102774,1.19751,19.4616,32.0016,0.364488,0.0,0.0
228,56.75,78.433,102.875,120.637,102.212,97.6608,0.0104613,1.22812,19.4254,31.9115,0.410957,0.0,0.0
231,57.5,79.6138,105.109,127.337,102.208,99.0139,0.0107865,1.26108,19.3901,31.6813,0.286465,0.0,0.0
234,58.25,80.6601,107.043,115.828,102.209,97.4779,0.0111164,1.29282,19.3547,31.5712,0.427549,0.0,0.0
237,59,82.5579,109.435,133.635,102.222,96.7193,0.0113963,1.31924,19.3186,31.371,0.499201,0.0,0.0
240,59.75,83.5076,111.711,126.317,102.236,98.3592,0.0116945,1.35406,19.276,31.1708,0.348724,0.0,0.0
243,60.5,84.9509,114.076,119.344,102.234,97.9674,0.0119888,1.38449,19.2322,30.9606,0.384623,0.0,0.0
246,61.25,86.5952,115.963,123.919,102.231,97.8707,0.0122601,1.41529,19.1904,30.7203,0.393257,0.0,0.0
249,62,88.209,118.278,105.478,102.239,97.2043,0.0125226,1.44409,19.1525,30.4601,0.45553,0.0,0.0
252,62.75,89.2986,120.701,111.154,102.26,96.0738,0.0127834,1.47046,19.1178,30.2299,0.56298,0.0,0.0
255,63.5,91.1171,122.418,118.642,102.253,95.7554,0.013047,1.49422,19.0895,30.1798,0.592326,0.0,0.0
258,64.25,92.1792,124.823,105.815,102.251,95.6851,0.0133648,1.51901,19.0595,29.9696,0.598704,0.0,0.0
261,65,93.8371,126.488,115.669,102.257,94.011,0.0137536,1.543,19.0376,29.7394,0.758505,0.0,0.0
264,65.75,95.0379,128.815,123.391,102.268,96.5104,0.0140371,1.56301,19.0098,29.5091,0.522749,0.0,0.0
267,66.5,95.7955,130.463,114.228,102.264,96.6388,0.0144335,1.58923,18.986,29.329,0.510436,0.0,0.0
270,67.25,97.2865,132.823,110.505,102.275,95.5068,0.0148646,1.6167,18.9626,29.1288,0.617694,0.0,0.0
273,68,98.487,134.745,114.024,102.288,93.5235,0.0152837,1.64028,18.9274,28.9186,0.808109,0.0,0.0
276,68.75,100.162,136.538,123.52,102.302,94.2989,0.0157115,1.66261,18.8969,28.6983,0.734932,0.0,0.0
279,69.5,101.469,138.856,122.109,102.285,94.7752,0.0161356,1.68768,18.8663,28.388,0.687951,0.0,0.0
282,70.25,102.654,140.535,130.512,102.291,94.9255,0.0165477,1.71279,18.8328,28.0577,0.674189,0.0,0.0
285,71,103.562,142.6,121.829,102.291,94.4624,0.0169209,1.73415,18.8083,27.9576,0.718272,0.0,0.0
288,71.75,105.128,144.285,115.008,102.305,93.9616,0.0173173,1.75102,18.7855,27.7074,0.767503,0.0,0.0
291,72.5,106.259,145.325,120.688,102.301,94.4278,0.017707,1.77083,18.7605,27.4771,0.722468,0.0,0.0
294,73.25,107.067,146.784,106.272,102.319,91.8275,0.0180411,1.78956,18.7338,27.2869,0.975973,0.0,0.0
297,74,107.999,148.843,123.154,102.308,93.5484,0.0183227,1.81056,18.7061,27.0367,0.807474,0.0,0.0
300,74.75,109.125,150.432,112.919,102.324,93.9489,0.0185567,1.83704,18.6634,26.7664,0.770393,0.0,0.0
303,75.5,110.672,152.235,112.066,102.321,93.6244,0.0187888,1.8611,18.6225,26.5262,0.801361,0.0,0.0
306,76.25,112.03,154.323,107.865,102.324,93.8923,0.0190261,1.8906,18.5886,26.306,0.775824,0.0,0.0
309,77,112.573,156.102,111.333,102.331,94.117,0.0192282,1.91968,18.557,26.0657,0.754902,0.0,0.0
312,77.75,113.834,158.03,114.662,102.329,92.6768,0.019546,1.94746,18.5278,25.8255,0.893808,0.0,0.0
315,78.5,115.492,159.651,117.529,102.332,91.0017,0.0198503,1.97588,18.4957,25.4952,1.05864,0.0,0.0
318,79.25,116.617,161.195,112.868,102.336,91.5061,0.0202919,2.00577,18.4598,25.2649,1.0091,0.0,0.0
321,80,117.82,162.085,113.443,102.332,92.0384,0.0207628,2.0355,18.4206,25.0247,0.956445,0.0,0.0
324,80.75,118.603,165.04,101.226,102.327,89.7979,0.0211696,2.07075,18.379,24.7845,1.17832,0.0,0.0
327,81.5,119.664,166.266,98.1612,102.35,90.9803,0.0216411,2.10925,18.323,24.5843,1.06236,0.0,0.0
330,82.25,121.309,168.5,117.003,102.353,91.7949,0.0221021,2.14277,18.2699,24.304,0.982225,0.0,0.0
333,83,122.534,170.536,123.887,102.353,91.1515,0.0226173,2.18148,18.2224,23.9336,1.04561,0.0,0.0
336,83.75,123.582,172.583,101.251,102.35,90.9029,0.0230479,2.2159,18.1819,23.6634,1.07001,0.0,0.0
339,84.5,125.172,174.655,107.962,102.371,90.4892,0.0235795,2.24683,18.1477,23.4331,1.113,0.0,0.0
342,85.25,126.251,176.389,105.351,102.363,89.6287,0.0241631,2.27486,18.1149,23.0828,1.19852,0.0,0.0
345,86,127.767,177.595,109.061,102.366,90.0587,0.0247648,2.30581,18.076,22.8125,1.15556,0.0,0.0
348,86.75,128.81,179.949,100.04,102.357,91.0491,0.0254595,2.33348,18.0425,22.6424,1.05614,0.0,0.0
351,87.5,129.374,181.976,110.473,102.374,89.2782,0.0260532,2.36238,18.0094,22.3721,1.23483,0.0,0.0
354,88.25,131.55,183.857,94.3952,102.366,89.3653,0.0266353,2.39627,17.9755,22.1218,1.22532,0.0,0.0
357,89,132.305,186.117,95.4645,102.364,90.5243,0.0270596,2.43235,17.9342,21.8316,1.10889,0.0,0.0
360,89.75,133.196,187.773,101.221,102.366,90.3644,0.0275835,2.46872,17.8909,21.5513,1.12506,0.0,0.0
363,90.5,134.809,190.186,105.913,102.372,92.367,0.0280148,2.51611,17.8441,21.1909,0.927801,0.0,0.0
366,91.25,135.967,192.729,91.0978,102.376,90.1234,0.0283502,2.55065,17.7938,20.9207,1.14996,0.0,0.0
369,92,137.025,194.727,89.1011,102.378,90.8937,0.0286484,2.5919,17.7497,20.5303,1.07336,0.0,0.0
372,92.75,138.992,197.118,105.647,102.371,89.7607,0.0289086,2.62882,17.7049,20.24,1.18596,0.0,0.0
375,93.5,140.277,199.11,100.201,102.377,90.4601,0.0291323,2.66261,17.6616,19.9697,1.11642,0.0,0.0
378,94.25,142.044,201.387,114.275,102.378,89.3612,0.0293514,2.68977,17.6235,19.6594,1.22676,0.0,0.0
381,95,143.003,202.978,92.819,102.384,89.3123,0.0295286,2.71389,17.5898,19.4392,1.23223,0.0,0.0
384,95.75,144.099,204.141,103.461,102.378,89.8732,0.0296437,2.7371,17.5602,19.1589,1.17522,0.0,0.0
387,96.5,145.5,206.531,108.538,102.379,90.0526,0.029691,2.75528,17.5348,18.8286,1.15737,0.0,0.0
390,97.25,146.636,208.145,100.307,102.386,90.078,0.0295598,2.77067,17.5124,18.5783,1.15539,0.0,0.0
393,98,147.898,209.483,84.7023,102.394,90.2834,0.0294641,2.78814,17.4893,18.238,1.13559,0.0,0.0
396,98.75,149.052,211.27,97.4437,102.382,89.8559,0.0291279,2.80842,17.4681,17.9377,1.17738,0.0,0.0
399,99.5,150.624,213.05,95.0279,102.388,89.8804,0.0286974,2.82392,17.4507,17.3672,1.17546,0.0,0.0
402,100.25,151.114,214.614,102.752,102.388,90.2395,0.0282604,2.83642,17.437,16.9467,1.13944,0.0,0.0
405,101,152.189,216.306,103.703,102.393,89.5803,0.0278958,2.84743,17.4252,16.7065,1.20605,0.0,0.0
408,101.75,152.887,217.208,95.7301,102.387,90.6206,0.0276241,2.85627,17.4143,16.2961,1.10136,0.0,0.0
411,102.5,154.382,218.496,91.8313,102.382,89.4866,0.0274492,2.86861,17.4057,16.2961,1.2145,0.0,0.0
414,103.25,154.835,219.2,99.4694,102.393,90.1061,0.0274161,2.87815,17.3994,15.9758,1.15326,0.0,0.0
417,104,155.627,220.735,97.4223,102.396,90.0994,0.0274828,2.88604,17.3948,15.6555,1.15417,0.0,0.0
420,104.75,156.498,221.623,92.132,102.401,89.1442,0.02757,2.88698,17.3914,15.3351,1.25075,0.0,0.0
423,105.5,156.915,222.186,103.117,102.391,89.1024,0.0278128,2.88369,17.3987,15.1049,1.25413,0.0,0.0
426,106.25,158.129,222.846,110.129,102.391,90.4122,0.0281333,2.8706,17.4081,14.8647,1.12248,0.0,0.0
429,107,158.614,224.22,114.286,102.399,90.1509,0.0283776,2.8544,17.4208,14.5143,1.14923,0.0,0.0
432,107.75,159.009,225.15,93.1327,102.411,90.9299,0.0287602,2.83512,17.4355,14.2841,1.07275,0.0,0.0
435,108.5,159.634,225.237,102.599,102.388,88.3841,0.0290818,2.81789,17.4549,13.9838,1.3269,0.0,0.0
438,109.25,160.437,225.442,99.071,102.392,89.4489,0.0293458,2.79905,17.4753,13.7336,1.21923,0.0,0.0
441,110,160.255,226.242,93.0464,102.399,90.3847,0.0295091,2.78734,17.4954,13.4032,1.12593,0.0,0.0
444,110.75,161.297,226.928,112.678,102.398,91.0119,0.0295929,2.77115,17.5145,13.143,1.06344,0.0,0.0
447,111.5,162.496,227.318,102.33,102.379,90.291,0.0295939,2.75673,17.5298,12.8627,1.13352,0.0,0.0
450,112.25,162.487,228.09,100.265,102.393,91.3446,0.0295945,2.74414,17.5434,12.6225,1.0301,0.0,0.0
453,113,163.08,228.692,101.87,102.387,92.4205,0.0294167,2.73335,17.5548,12.2921,0.923926,0.0,0.0
456,113.75,163.403,229.136,95.2195,102.396,91.3481,0.0291569,2.71994,17.5658,11.9818,1.02996,0.0,0.0
459,114.5,164.244,230.18,102.59,102.388,91.1927,0.0288752,2.70781,17.5876,11.7416,1.04468,0.0,0.0
462,115.25,164.955,230.331,110.399,102.395,89.6185,0.0285775,2.69498,17.6092,11.4813,1.20231,0.0,0.0
465,116,164.949,230.116,91.0825,102.397,91.5381,0.0282795,2.67881,17.6299,11.171,1.01136,0.0,0.0
468,116.75,164.721,229.881,100.069,102.393,91.019,0.0279909,2.66428,17.6494,11.0709,1.06231,0.0,0.0
471,117.5,165.547,230.56,106.532,102.392,90.9645,0.0276392,2.65043,17.6697,10.7506,1.06765,0.0,0.0
474,118.25,165.823,230.373,101.742,102.39,91.124,0.0272996,2.63677,17.6872,10.4703,1.0516,0.0,0.0
477,119,165.571,230.4,110.977,102.402,91.1759,0.0270166,2.61876,17.7112,10.1901,1.04752,0.0,0.0
480,119.75,166.544,230.643,97.23,102.402,90.8641,0.0266942,2.60023,17.7312,9.96985,1.07845,0.0,0.0
483,120.5,166.266,229.765,120.111,102.399,91.0827,0.0264096,2.58442,17.7502,9.68957,1.0565,0.0,0.0
486,121.25,166.865,230.624,99.6251,102.392,90.991,0.0260882,2.56519,17.7709,9.38927,1.06498,0.0,0.0
489,122,167.251,230.309,104.023,102.409,91.3226,0.0257897,2.54699,17.7933,9.109,1.03365,0.0,0.0
492,122.75,167.486,230.793,104.251,102.397,92.0934,0.0254976,2.52656,17.8172,8.88878,0.956759,0.0,0.0
495,123.5,167.27,230.512,109.447,102.4,92.5988,0.025204,2.50277,17.8528,8.61851,0.907635,0.0,0.0
498,124.25,167.046,230.453,108.67,102.39,91.6945,0.0247977,2.48164,17.8976,8.4083,0.995283,0.0,0.0
501,125,167.625,229.286,98.8397,102.403,92.0914,0.024346,2.44736,17.9383,8.14805,0.957454,0.0,0.0
504,125.75,166.962,229.09,105.812,102.402,92.8811,0.0239503,2.41128,17.9856,7.8978,0.880392,0.0,0.0
507,126.5,167.519,228.465,105.729,102.396,93.0339,0.0233847,2.37485,18.026,7.62753,0.865028,0.0,0.0
510,127.25,166.841,227.748,105.814,102.39,92.5881,0.0227495,2.33905,18.0658,7.42733,0.907792,0.0,0.0
513,128,167.022,227.335,104.331,102.401,94.2153,0.0221077,2.30024,18.1105,7.19711,0.751646,0.0,0.0
516,128.75,166.773,225.858,104.236,102.414,93.2066,0.0213497,2.26377,18.1593,6.93685,0.84989,0.0,0.0
519,129.5,166.493,224.944,112.704,102.39,93.5851,0.0206899,2.22321,18.2018,6.6866,0.811166,0.0,0.0
522,130.25,166.12,224.332,121.167,102.392,94.7289,0.0200257,2.16701,18.2748,6.55647,0.701793,0.0,0.0
525,131,165.24,223.132,102.632,102.395,94.1471,0.0193131,2.11828,18.3453,6.28621,0.75762,0.0,0.0
528,131.75,165.515,221.625,114.157,102.397,91.7918,0.0187082,2.06948,18.4106,6.06599,0.986352,0.0,0.0
531,132.5,165.023,220.37,108.23,102.391,93.4089,0.0181212,2.01474,18.4692,5.82575,0.82828,0.0,0.0
534,133.25,163.549,218.626,109.601,102.379,94.9112,0.0175234,1.96883,18.5219,5.49543,0.683306,0.0,0.0
537,134,163.33,217.501,116.528,102.388,95.1471,0.0170151,1.92509,18.5773,5.35529,0.661693,0.0,0.0
540,134.75,163.244,216.01,108.325,102.394,95.1288,0.0164713,1.8716,18.6178,5.2652,0.663963,0.0,0.0
543,135.5,162.361,214.753,109.529,102.395,92.4134,0.0160749,1.82508,18.671,5.12506,0.925259,0.0,0.0
546,136.25,161.498,212.71,114.554,102.395,94.8022,0.0155163,1.77829,18.7251,4.98492,0.695057,0.0,0.0
549,137,160.453,210.551,122.201,102.39,94.2352,0.0149885,1.73195,18.78,4.77471,0.748788,0.0,0.0
552,137.75,159.805,209.421,110.132,102.39,95.5878,0.0144947,1.69295,18.8355,4.61456,0.620148,0.0,0.0
555,138.5,158.317,207.62,123.103,102.386,96.8003,0.0140362,1.64359,18.9085,4.56451,0.506078,0.0,0.0
558,139.25,158.003,206.573,117.084,102.38,97.0163,0.0135654,1.59026,19,4.4544,0.485508,0.0,0.0
561,140,157.333,203.903,115.869,102.386,97.4264,0.0132222,1.537,19.0838,4.27422,0.447949,0.0,0.0
564,140.75,156.696,202.643,120.021,102.384,97.5125,0.0128201,1.47888,19.1522,4.12407,0.439802,0.0,0.0
567,141.5,155.482,200.243,122.485,102.393,97.2557,0.0124225,1.42538,19.2219,3.93388,0.464368,0.0,0.0
570,142.25,154.59,198.612,125.664,102.37,98.0632,0.0120652,1.38163,19.2727,3.66362,0.38779,0.0,0.0
573,143,153.363,196.491,123.102,102.363,98.2451,0.0117285,1.32532,19.3335,3.48344,0.370436,0.0,0.0
576,143.75,152.491,194.364,121.117,102.376,97.1314,0.0114098,1.27518,19.3959,3.52348,0.474454,0.0,0.0
579,144.5,151.207,192.6,128.973,102.37,99.1794,0.0111077,1.22309,19.4608,3.39335,0.285681,0.0,0.0
582,145.25,150.144,190.323,128.562,102.362,97.9894,0.0107564,1.16693,19.5283,3.31327,0.393809,0.0,0.0
585,146,148.802,188.107,135.027,102.357,99.155,0.0103953,1.11824,19.6095,3.12308,0.286737,0.0,0.0
588,146.75,147.337,185.397,130.854,102.36,98.4738,0.0100873,1.05932,19.6798,3.01298,0.349172,0.0,0.0
591,147.5,146.163,182.704,137.609,102.362,99.4337,0.00971836,1.00227,19.7606,2.96293,0.261808,0.0,0.0
594,148.25,144.995,180.05,134.779,102.353,101.874,0.00932389,0.945986,19.8377,2.91288,0.0423228,0.0,0.0
597,149,143.413,177.968,132.042,102.354,101.291,0.00892698,0.890126,19.9278,2.85282,0.0942084,0.0,0.0
600,149.75,141.707,175.262,135.717,102.358,102.606,0.00846487,0.829508,20.0071,2.79276,-0.0217605,0.0,0.0
603,150.5,140.943,172.544,138.715,102.36,101.128,0.0080479,0.776834,20.0882,2.70267,0.109236,0.0,0.0
606,151.25,138.964,169.733,135.701,102.353,101.553,0.00760696,0.714382,20.1761,2.7327,0.0707895,0.0,0.0
609,152,137.28,166.087,141.533,102.347,103.459,0.00715609,0.643804,20.2502,2.59256,-0.0974723,0.0,0.0
612,152.75,135.826,163.623,142.043,102.351,105.419,0.00677224,0.586043,20.3212,2.6326,-0.266382,0.0,0.0
615,153.5,133.821,160.02,143.917,102.347,105.545,0.00627503,0.519001,20.4037,2.62259,-0.277535,0.0,0.0
618,154.25,131.841,157.327,148.563,102.354,107.433,0.00583676,0.463285,20.4638,2.60257,-0.436852,0.0,0.0
621,155,130.091,154.28,148.194,102.349,108.347,0.00538763,0.410969,20.5308,2.58255,-0.513779,0.0,0.0
624,155.75,127.864,151.088,145.728,102.339,108.361,0.00492736,0.358447,20.5919,2.6326,-0.515854,0.0,0.0
627,156.5,125.839,147.813,147.865,102.35,108.807,0.00454699,0.320158,20.6418,2.57254,-0.551933,0.0,0.0
630,157.25,124.605,145.14,150.816,102.34,110.003,0.00419304,0.279642,20.6836,2.60257,-0.651458,0.0,0.0
633,158,122.502,141.86,152.819,102.337,111.084,0.00388418,0.247326,20.7236,2.57254,-0.739897,0.0,0.0
636,158.75,120.598,139.304,149.491,102.331,111.061,0.00357211,0.219013,20.762,2.58255,-0.738561,0.0,0.0
639,159.5,119.384,136.93,151.536,102.335,111.557,0.00328046,0.193068,20.7953,2.54251,-0.778388,0.0,0.0
642,160.25,117.829,134.108,147.995,102.331,111.608,0.00305095,0.174154,20.8218,2.55252,-0.78282,0.0,0.0
645,161,116.298,131.667,149.085,102.314,111.332,0.00285475,0.153846,20.8486,2.58255,-0.762038,0.0,0.0
648,161.75,112.762,128.039,154.437,102.317,111.809,0.00269754,0.136817,20.87,2.52249,-0.800425,0.0,0.0
651,162.5,111.672,125.291,152.473,102.316,111.929,0.00255868,0.123456,20.8888,2.56253,-0.810109,0.0,0.0
654,163.25,109.853,122.989,154.079,102.315,111.817,0.00242272,0.111791,20.9046,2.48245,-0.801147,0.0,0.0
657,164,108.2,120.82,150.524,102.331,112.201,0.00228389,0.102618,20.9178,2.54251,-0.830699,0.0,0.0
660,164.75,106.802,118.947,154.593,102.306,112.171,0.00216575,0.0947837,20.9287,2.61258,-0.830444,0.0,0.0
663,165.5,105.61,116.686,151.5,102.32,111.53,0.00203582,0.0884369,20.9374,2.48245,-0.777552,0.0,0.0
666,166.25,104.209,114.804,155.014,102.31,112.14,0.00190463,0.0835392,20.9446,2.36233,-0.827666,0.0,0.0
669,167,103.639,113.463,151.579,102.305,112.145,0.0017962,0.0793248,20.9505,2.55252,-0.828501,0.0,0.0
672,167.75,101.812,110.922,153.773,102.304,111.832,0.00171171,0.0759,20.9556,2.51248,-0.803408,0.0,0.0
675,168.5,101.204,109.423,156.846,102.296,112.078,0.0016514,0.0731197,20.9593,2.57254,-0.823834,0.0,0.0
678,169.25,99.8903,107.797,154.733,102.3,111.449,0.00161335,0.0708646,20.962,2.54251,-0.772769,0.0,0.0
681,170,98.1477,105.453,153.026,102.276,111.735,0.00159482,0.0689394,20.9646,2.55252,-0.798008,0.0,0.0
684,170.75,97.5668,103.821,152.505,102.265,112.014,0.00158131,0.0672967,20.9665,2.52249,-0.821437,0.0,0.0
687,171.5,96.7032,102.709,152.786,102.259,111.896,0.00157441,0.0659971,20.9675,2.49246,-0.812522,0.0,0.0
690,172.25,95.5184,101.456,154.774,102.262,111.934,0.00154091,0.0646685,20.9692,2.58255,-0.815313,0.0,0.0
693,173,94.646,99.8044,151.69,102.265,112.026,0.00149827,0.0635171,20.9709,2.61258,-0.822494,0.0,0.0
696,173.75,94.2341,98.8405,151.6,102.252,111.717,0.00147102,0.0625998,20.9724,2.58255,-0.798655,0.0,0.0
699,174.5,93.0948,97.4678,154.574,102.251,111.667,0.00145279,0.0619764,20.9734,2.57254,-0.794729,0.0,0.0
702,175.25,92.4609,96.1295,153.174,102.255,111.916,0.00144555,0.0611895,20.9742,2.5325,-0.814473,0.0,0.0
705,176,91.8339,94.6798,153.802,102.243,111.943,0.00145062,0.060502,20.9747,2.5325,-0.817684,0.0,0.0
708,176.75,90.7102,93.8755,153.477,102.229,111.805,0.00145978,0.0598606,20.9751,2.51248,-0.807792,0.0,0.0
711,177.5,89.8233,93.1261,155.739,102.24,111.891,0.00146646,0.0593043,20.9754,2.54251,-0.813737,0.0,0.0
714,178.25,89.5702,91.6226,154.689,102.245,111.666,0.00147671,0.058747,20.9756,2.51248,-0.795143,0.0,0.0
717,179,88.8416,91.0522,156.091,102.233,112.049,0.00149339,0.0582706,20.9764,2.46243,-0.827101,0.0,0.0
720,179.75,88.344,90.3652,155.034,102.21,111.862,0.00152378,0.057849,20.977,2.54251,-0.814092,0.0,0.0
723,180.5,87.8345,89.3554,155.535,102.211,112.028,0.00154594,0.0574658,20.9774,2.5325,-0.82737,0.0,0.0
726,181.25,86.8926,87.7725,158.479,102.21,111.78,0.0015672,0.0570263,20.978,2.51248,-0.807404,0.0,0.0
729,182,86.2632,87.6285,154.141,102.203,112.272,0.00158489,0.0566542,20.979,2.55252,-0.847751,0.0,0.0
732,182.75,85.5617,86.358,159.357,102.199,112.19,0.00159717,0.0562945,20.9796,2.5325,-0.841436,0.0,0.0
735,183.5,85.0252,85.3068,156.581,102.179,111.783,0.0015997,0.0559806,20.9802,2.52249,-0.810418,0.0,0.0
738,184.25,84.3,84.6387,150.093,102.214,111.771,0.00159234,0.0556633,20.9807,2.5325,-0.806386,0.0,0.0
741,185,84.0708,83.9051,156.182,102.195,111.692,0.00157163,0.0553347,20.9811,2.49246,-0.801642,0.0,0.0
744,185.75,83.9453,83.344,156.375,102.183,111.996,0.00154126,0.0550536,20.9815,2.56253,-0.82724,0.0,0.0
747,186.5,83.0504,82.6588,155.762,102.177,111.881,0.00150416,0.0548206,20.9817,2.57254,-0.818493,0.0,0.0
750,187.25,82.3154,81.7919,156.075,102.181,111.872,0.00145526,0.0546241,20.9819,2.55252,-0.81744,0.0,0.0
753,188,82.0593,81.0342,155.062,102.177,112.017,0.00141578,0.0544555,20.982,2.52249,-0.829525,0.0,0.0
756,188.75,81.3558,80.8322,156.114,102.172,112.111,0.00138537,0.0542727,20.9821,2.52249,-0.837497,0.0,0.0
759,189.5,81.0613,79.7985,154.087,102.165,111.978,0.00137341,0.0540692,20.9826,2.54251,-0.827471,0.0,0.0
762,190.25,80.8506,79.6156,152.931,102.188,111.883,0.00137578,0.0538689,20.9832,2.50247,-0.817693,0.0,0.0
765,191,80.2934,78.9322,153.421,102.155,111.975,0.00138899,0.0536849,20.9836,2.49246,-0.828077,0.0,0.0
768,191.75,79.59,78.616,151.95,102.153,111.621,0.00141686,0.0535228,20.9839,2.49246,-0.799648,0.0,0.0
771,192.5,79.5367,77.584,153.948,102.143,111.986,0.00144047,0.0533927,20.9841,2.54251,-0.830005,0.0,0.0
774,193.25,78.8161,77.5015,157.036,102.148,112.118,0.00146332,0.0532978,20.9842,2.51248,-0.84009,0.0,0.0
777,194,78.4892,76.8796,152.259,102.145,112.017,0.00146904,0.0532006,20.9842,2.49246,-0.832254,0.0,0.0
780,194.75,78.3844,76.3506,151.28,102.135,112.054,0.00146043,0.0531178,20.9839,2.49246,-0.836136,0.0,0.0
783,195.5,77.8599,75.5294,158.732,102.13,112.338,0.00144871,0.0530562,20.9832,2.38235,-0.859415,0.0,0.0
786,196.25,77.5719,75.4189,161.441,102.144,112.237,0.00141335,0.0530039,20.9828,2.52249,-0.850145,0.0,0.0
789,197,76.9824,74.5766,155.428,102.143,112.191,0.00136808,0.052931,20.9824,2.58255,-0.846529,0.0,0.0
792,197.75,77.1113,74.2298,155.128,102.121,111.839,0.00132129,0.0528401,20.9822,2.5325,-0.82013,0.0,0.0
795,198.5,76.7481,74.1528,156.164,102.111,111.809,0.00126899,0.0527457,20.9824,2.54251,-0.818481,0.0,0.0
798,199.25,76.0601,73.4583,152.246,102.137,111.907,0.00121938,0.052665,20.9828,2.64261,-0.824133,0.0,0.0
801,200,75.868,73.2132,158.492,102.13,111.955,0.00117362,0.0526261,20.9831,2.55252,-0.828673,0.0,0.0
804,200.75,75.8938,72.9422,163.975,102.125,111.965,0.00113223,0.0526052,20.9833,2.57254,-0.829879,0.0,0.0
807,201.5,75.0971,72.7827,153.424,102.122,112.19,0.00110387,0.052573,20.9834,2.50247,-0.848258,0.0,0.0
810,202.25,75.0888,71.9985,155.695,102.112,111.897,0.0010832,0.0524991,20.9835,2.52249,-0.825519,0.0,0.0
813,203,74.7337,72.1221,157.736,102.122,111.769,0.00110002,0.0524052,20.9836,2.51248,-0.814386,0.0,0.0
816,203.75,74.3452,71.0764,153.1,102.117,111.994,0.00112588,0.0523367,20.9837,2.49246,-0.832899,0.0,0.0
819,204.5,74.46,71.3469,156.635,102.11,112.186,0.00118814,0.0522869,20.9837,2.5325,-0.849032,0.0,0.0
822,205.25,73.5819,70.9239,156.452,102.124,111.712,0.00125203,0.0522785,20.9837,2.50247,-0.809567,0.0,0.0
825,206,73.761,70.5796,154.495,102.125,111.601,0.00132161,0.0522844,20.9835,2.47244,-0.800563,0.0,0.0
828,206.75,73.0661,70.4501,159.051,102.129,111.83,0.00138349,0.0522887,20.983,2.5325,-0.818639,0.0,0.0
831,207.5,73.495,69.9251,151.945,102.1,112.094,0.0014309,0.0521718,20.9826,2.49246,-0.842466,0.0,0.0
834,208.25,72.8556,69.6011,159.608,102.096,112.022,0.00145634,0.0520727,20.9823,2.47244,-0.837033,0.0,0.0
837,209,72.9015,69.5323,155.141,102.106,111.913,0.00147106,0.0519944,20.9821,2.47244,-0.827366,0.0,0.0
840,209.75,72.2742,69.0248,153.547,102.105,111.987,0.00148015,0.0519173,20.9819,2.54251,-0.833384,0.0,0.0
843,210.5,71.8531,69.2183,153.48,102.111,112.46,0.00150084,0.0518752,20.9818,2.56253,-0.870898,0.0,0.0
846,211.25,72.253,68.6476,158.847,102.108,111.692,0.00153067,0.051843,20.9817,2.54251,-0.809382,0.0,0.0
849,212,71.7962,68.2946,161.766,102.101,112.154,0.00156737,0.051807,20.9817,2.36233,-0.847231,0.0,0.0
852,212.75,71.2888,68.4901,156.527,102.107,112.362,0.00160691,0.0517667,20.9821,2.48245,-0.863327,0.0,0.0
855,213.5,71.1702,67.9166,155.33,102.106,112.178,0.00163457,0.0517313,20.9825,2.58255,-0.848732,0.0,0.0
858,214.25,71.0858,67.8438,156.333,102.106,112.042,0.00164953,0.0517056,20.9829,2.58255,-0.837709,0.0,0.0
861,215,70.5817,67.2494,158.949,102.096,112.366,0.00165238,0.0517008,20.9834,2.45242,-0.864685,0.0,0.0
864,215.75,70.9805,66.8946,158.939,102.104,111.849,0.00163256,0.0517033,20.9837,2.45242,-0.822367,0.0,0.0
867,216.5,70.3499,67.0908,157.99,102.106,112.045,0.00161812,0.0516652,20.984,2.44241,-0.837995,0.0,0.0
870,217.25,70.2214,66.8426,156.731,102.107,112.148,0.00160132,0.0516382,20.9841,2.40237,-0.846166,0.0,0.0
873,218,69.8999,66.7505,157.071,102.096,112.263,0.00156982,0.0516189,20.9843,2.38235,-0.856424,0.0,0.0
876,218.75,69.9885,66.7376,157.324,102.105,112.186,0.00154868,0.0516048,20.9844,2.55252,-0.849416,0.0,0.0
879,219.5,69.3668,65.9914,161.979,102.115,112.137,0.0015371,0.0516019,20.9844,2.51248,-0.844631,0.0,0.0
882,220.25,69.3745,65.5998,161.532,102.098,112.35,0.00153029,0.0516093,20.9845,2.4324,-0.863244,0.0,0.0
885,221,68.9611,65.448,157.888,102.099,112.215,0.00152715,0.0516318,20.9846,2.41238,-0.852249,0.0,0.0
888,221.75,68.5921,65.2876,157.126,102.096,112.223,0.0015194,0.0516321,20.9846,2.50247,-0.853266,0.0,0.0
891,222.5,68.4483,64.896,160.203,102.117,112.085,0.00151072,0.0515944,20.9846,2.59256,-0.840272,0.0,0.0
894,223.25,68.4182,64.9013,158.209,102.095,111.643,0.00149466,0.051507,20.9846,2.60257,-0.806604,0.0,0.0
897,224,68.2561,64.7565,159.235,102.102,112.358,0.00148087,0.0514573,20.9846,2.59256,-0.863543,0.0,0.0
900,224.75,68.1668,64.6567,154.82,102.093,111.977,0.00146725,0.0514197,20.9846,2.60257,-0.833705,0.0,0.0
903,225.5,68.1792,64.4257,156.643,102.095,112.15,0.0014628,0.0513916,20.9846,2.60257,-0.84736,0.0,0.0
906,226.25,67.7897,64.1802,152.923,102.088,112.26,0.00145955,0.0513171,20.9846,2.5325,-0.856889,0.0,0.0
909,227,67.6727,64.5126,157.768,102.083,112.093,0.00144078,0.0512449,20.9844,2.48245,-0.843907,0.0,0.0
912,227.75,67.2376,64.4854,160.918,102.075,112.121,0.00143119,0.0511511,20.9843,2.50247,-0.846877,0.0,0.0
915,228.5,67.0259,63.7099,155.412,102.087,112.186,0.00139096,0.0510547,20.9841,2.49246,-0.851092,0.0,0.0
918,229.25,67.1335,64.1967,155.49,102.086,112.044,0.00133615,0.0509724,20.984,2.5325,-0.839685,0.0,0.0
921,230,66.718,63.5621,162.521,102.074,112.161,0.00127834,0.0509125,20.9846,2.48245,-0.850109,0.0,0.0
924,230.75,66.9324,63.5012,154.761,102.081,112.492,0.00122857,0.0509659,20.985,2.3323,-0.876177,0.0,0.0
927,231.5,66.8925,63.3108,156.711,102.091,112.033,0.00118082,0.0510417,20.9853,2.45242,-0.838367,0.0,0.0
930,232.25,66.4617,63.472,162.885,102.065,112.065,0.0011438,0.0511029,20.9851,2.52249,-0.843178,0.0,0.0
933,233,66.5434,63.3002,157.584,102.062,112.185,0.0011214,0.0511475,20.985,2.52249,-0.853101,0.0,0.0
936,233.75,66.5034,62.9164,158.193,102.054,112.145,0.00112038,0.051152,20.9853,2.54251,-0.850575,0.0,0.0
939,234.5,66.0073,62.5404,154.876,102.073,111.483,0.00112616,0.0511433,20.9851,2.54251,-0.795586,0.0,0.0
942,235.25,65.6502,63.4369,153.363,102.064,112.227,0.00116131,0.0511769,20.9847,2.59256,-0.856359,0.0,0.0
945,236,66.0386,62.8699,157.31,102.046,111.939,0.00120865,0.0511875,20.9845,2.54251,-0.834754,0.0,0.0
948,236.75,65.9148,62.4964,159.095,102.054,111.905,0.00125644,0.0511892,20.9843,2.52249,-0.831292,0.0,0.0
951,237.5,65.7789,62.3186,154.895,102.045,111.877,0.00129818,0.0512104,20.9842,2.49246,-0.829809,0.0,0.0
954,238.25,65.3643,62.4908,160.251,102.056,112.112,0.00132861,0.0511978,20.9847,2.50247,-0.847886,0.0,0.0
957,239,65.0213,62.3483,159.915,102.036,111.859,0.00132529,0.051162,20.9849,2.52249,-0.829189,0.0,0.0
960,239.75,65.6597,62.2275,160.467,102.039,112.272,0.00130755,0.0511106,20.9846,2.5325,-0.862201,0.0,0.0
963,240.5,65.1172,61.4208,151.458,102.036,112.382,0.00128607,0.0510953,20.985,2.55252,-0.871329,0.0,0.0
966,241.25,64.7759,61.7641,159.498,102.035,112.325,0.00126697,0.051122,20.9853,2.55252,-0.866854,0.0,0.0
969,242,64.1541,61.837,161.158,102.032,112.26,0.00125668,0.0511274,20.9855,2.5325,-0.861864,0.0,0.0
972,242.75,64.5742,61.404,160.553,102.029,112.224,0.00126067,0.0511254,20.9857,2.44241,-0.859206,0.0,0.0
975,243.5,64.3791,61.213,156.607,102.028,112.273,0.00126848,0.0510839,20.9854,2.50247,-0.863243,0.0,0.0
978,244.25,64.3168,60.9912,152.374,102.04,111.945,0.00128509,0.0510257,20.9849,2.57254,-0.835775,0.0,0.0
981,245,64.2754,60.7337,160.826,102.013,112.262,0.00129721,0.0509492,20.9851,2.52249,-0.863663,0.0,0.0
984,245.75,64.4198,61.1237,157.901,102.015,112.229,0.00129711,0.0508556,20.9854,2.51248,-0.860819,0.0,0.0
987,246.5,63.4677,60.9031,158.574,102.023,112.36,0.00129448,0.0508873,20.9852,2.5325,-0.870662,0.0,0.0
990,247.25,63.5942,60.3945,157.654,102.014,111.86,0.00129685,0.0509103,20.985,2.41238,-0.831232,0.0,0.0
993,248,63.5624,60.4274,160.391,102.009,111.944,0.00130778,0.0509284,20.9849,2.37234,-0.838435,0.0,0.0
996,248.75,63.5429,60.5541,161.691,102.001,112.203,0.00133362,0.0509194,20.9849,2.37234,-0.859938,0.0,0.0
999,249.5,63.1392,60.1175,156.135,102.016,112.134,0.00136009,0.050875,20.9848,2.39236,-0.853132,0.0,0.0
1002,250.25,63.3358,60.8475,156.228,102.015,111.888,0.00139485,0.0508027,20.9848,2.41238,-0.833421,0.0,0.0
1005,251,63.4403,59.7167,160.793,102.019,112.243,0.00144665,0.05075,20.9847,2.47244,-0.861645,0.0,0.0
1008,251.75,63.5515,60.2418,153.238,102.015,112.119,0.00150448,0.0507116,20.9844,2.54251,-0.852045,0.0,0.0
1011,252.5,62.5634,59.8052,155.587,102.009,112.259,0.00154663,0.0506636,20.9843,2.55252,-0.863808,0.0,0.0
1014,253.25,62.9328,60.3879,161.602,102.009,112.131,0.00157554,0.0506286,20.9841,2.49246,-0.853562,0.0,0.0
1017,254,62.5078,60.2194,164.5,102.022,112.017,0.00159022,0.0505891,20.984,2.54251,-0.843167,0.0,0.0
1020,254.75,62.5829,59.616,161.137,102.018,112.355,0.00159611,0.0505543,20.984,2.56253,-0.87072,0.0,0.0
1023,255.5,62.2843,59.6142,156.319,102.006,112.176,0.00159684,0.0505289,20.9839,2.58255,-0.85734,0.0,0.0
1026,256.25,62.3306,59.8719,159.277,102.035,112.392,0.0015992,0.0505385,20.9839,2.56253,-0.872171,0.0,0.0
1029,257,62.446,59.1963,157.026,102.025,112.073,0.00159755,0.0505573,20.9836,2.55252,-0.84743,0.0,0.0
1032,257.75,62.1729,59.226,154.554,102.022,112.059,0.0015906,0.0504912,20.9835,2.54251,-0.846531,0.0,0.0
1035,258.5,61.8313,59.184,156.713,102.025,112.275,0.00156365,0.0504561,20.9833,2.5325,-0.86366,0.0,0.0
1038,259.25,62.2817,59.3762,161.082,102.045,111.837,0.001544,0.0504583,20.9832,2.57254,-0.826645,0.0,0.0
1041,260,61.8778,59.8311,159.789,102.033,111.826,0.0015118,0.0504977,20.9831,2.57254,-0.826843,0.0,0.0
1044,260.75,61.9724,58.9805,160.641,102.031,112.2,0.00147814,0.0505405,20.9831,2.49246,-0.857103,0.0,0.0
1047,261.5,61.7581,58.8633,155.648,102.033,112.082,0.00145385,0.0505776,20.9831,2.4324,-0.847457,0.0,0.0
1050,262.25,61.4462,59.2628,158.865,102.046,111.884,0.00143845,0.0505847,20.983,2.41238,-0.830355,0.0,0.0
1053,263,61.3432,58.5856,157.262,102.057,112.349,0.00142594,0.0505972,20.983,2.44241,-0.866786,0.0,0.0
1056,263.75,61.1937,58.5158,159.982,102.042,112.137,0.00141292,0.050619,20.983,2.46243,-0.851098,0.0,0.0
1059,264.5,61.3783,58.3973,156.42,102.049,112.052,0.00139768,0.0506348,20.983,2.45242,-0.843575,0.0,0.0
1062,265.25,61.0491,58.738,163.227,102.048,112.438,0.00137382,0.0506464,20.983,2.47244,-0.87476,0.0,0.0
1065,266,61.123,58.3927,156.904,102.054,112.551,0.00135643,0.0506548,20.983,2.49246,-0.883215,0.0,0.0
1068,266.75,61.2769,58.4907,160.213,102.053,112.29,0.00133464,0.050581,20.983,2.49246,-0.862431,0.0,0.0
1071,267.5,60.8154,57.8228,156.582,102.051,112.294,0.00132259,0.0505273,20.983,2.49246,-0.862937,0.0,0.0
1074,268.25,60.5328,58.1201,161.49,102.063,112.253,0.0013235,0.050488,20.983,2.54251,-0.858554,0.0,0.0
1077,269,60.4094,58.2954,158.665,102.07,112.295,0.00133796,0.0504794,20.983,2.52249,-0.861347,0.0,0.0
1080,269.75,60.1999,57.9052,161.477,102.071,112.409,0.00137036,0.0504584,20.983,2.49246,-0.870368,0.0,0.0
1083,270.5,60.3239,57.9139,159.148,102.065,112.417,,0.0504179,,2.48245,-0.87151,0.0,0.0
1086,271.25,60.4639,57.8999,163.607,102.065,112.326,,0.0503284,,2.49246,-0.864234,0.0,0.0
1089,272,60.44,57.891,168.694,102.08,112.022,,0.0502772,,2.49246,-0.838453,0.0,0.0
1092,272.75,60.0792,57.4758,157.582,102.068,112.29,,0.0502458,,2.5325,-0.86104,0.0,0.0
1095,273.5,59.8983,57.9405,160.398,102.062,112.366,,,,2.55252,-0.867669,0.0,0.0
1098,274.25,60.0536,57.6368,160.082,102.064,112.2,,,,2.58255,-0.854183,0.0,0.0
1101,275,59.7594,57.2369,156.094,102.088,112.367,,,,2.59256,-0.865517,0.0,0.0
1104,275.75,59.4544,57.8442,161.185,102.085,111.952,,,,2.54251,-0.832405,0.0,0.0
1107,276.5,59.7938,57.5085,159.264,102.078,111.946,,,,2.52249,-0.832486,0.0,0.0
1110,277.25,59.3896,57.36,157.138,102.082,112.127,,,,2.51248,-0.846729,0.0,0.0
1113,278,59.6042,57.3159,159.02,102.096,112.357,,,,2.52249,-0.863989,0.0,0.0
1116,278.75,58.9591,57.6474,161.127,102.092,112.407,,,,2.50247,-0.868352,0.0,0.0
1119,279.5,59.7157,57.2629,155.333,102.088,112.599,,,,2.49246,-0.884073,0.0,0.0
1122,280.25,59.6045,57.6686,160.96,102.083,112.319,,,,2.49246,-0.862057,0.0,0.0
1124,280.75,59.0832,56.7819,156.859,102.094,112.129,,,,2.51248,-0.845787,0.0,0.0