File: 01_Data/PMMA/Cone/PMMA_Cone_HF15-noSparkScan_210827_R1.csv
Names,Time,Stack TC,Smoke TC,Exh Press,Smoke Comp,Smoke Meas,CO Meter,CO2 Meter,O2 Meter,Sample Mass,Ext Coeff,Start Test,Flame Verif
Chan Gain,,500,500,1,1,1,1,1,1,1,1,1.0,1.0
Offset,,0,0,0.145697,0,0,0,0,0,0,0,0.0,0.0
Gain,,1,1,25.011,13.1742,16.6938,1,1,1,1.00099,1.02845,1.0,1.0
Units,sec,C,C,Pa,%,%,%,%,%,g,/m,,
Baseline,,25.7251,26.6322,194.842,100.731,104.219,0.000786293,0.0465156,20.9829,-507.829,-0.30712,,
12,2.75,24.4735,25.2674,193.135,100.228,103.492,0.000652546,0.0477703,20.98,33.9735,-0.289083,0.0,0.0
24,5.75,24.0488,24.9116,197.023,100.233,103.907,0.000562128,0.0486792,20.9785,33.9435,-0.324725,0.0,0.0
36,8.75,23.7447,24.8488,193.134,100.243,103.907,0.000531989,0.0492534,20.9779,34.0436,-0.323901,0.0,0.0
48,11.75,24.1885,25.3609,196.304,100.219,103.493,0.000468035,0.0482419,20.9792,34.0536,-0.289967,0.0,0.0
60,14.75,24.3785,25.0915,193.395,100.218,103.835,0.000424805,0.0473487,20.9814,34.0036,-0.319826,0.0,0.0
72,17.75,24.5214,25.5167,196.441,100.222,103.57,0.000515316,0.0470554,20.982,33.9635,-0.296454,0.0,0.0
84,20.75,23.9787,24.6186,198.185,100.214,103.516,0.00055597,0.0467611,20.9822,33.9836,-0.292472,0.0,0.0
96,23.75,24.1036,25.1342,187.978,100.207,103.644,0.000669095,0.0464813,20.9823,33.9535,-0.304305,0.0,0.0
108,26.75,24.0004,25.196,197.796,100.202,103.548,0.000910493,0.0463996,20.9823,34.0136,-0.296355,0.0,0.0
120,29.75,24.3627,25.5366,193.207,100.214,103.501,0.000793145,0.046398,20.9827,33.9635,-0.291149,0.0,0.0
132,32.75,24.3323,25.1491,195.423,100.204,103.786,0.000638169,0.0464091,20.983,33.9836,-0.316922,0.0,0.0
144,35.75,24.3759,25.4003,191.528,100.196,103.717,0.000703279,0.0464789,20.9831,34.0536,-0.311577,0.0,0.0
156,38.75,24.4076,25.3846,195.405,100.199,103.822,0.000709579,0.0464607,20.9831,34.0336,-0.320492,0.0,0.0
168,41.75,24.1047,24.885,194.187,100.209,103.673,0.000771405,0.0466327,20.9842,34.0336,-0.306535,0.0,0.0
180,44.75,24.3197,24.9412,195.03,100.201,103.316,0.000746928,0.0464571,20.985,34.0336,-0.276201,0.0,0.0
192,47.75,24.1379,25.4158,198.938,100.206,103.29,0.000791179,0.046487,20.9852,34.0036,-0.273506,0.0,0.0
204,50.75,24.4886,25.2367,201.75,100.202,103.517,0.000975846,0.0466184,20.9852,33.9535,-0.293692,0.0,0.0
216,53.75,24.3106,25.1122,194.297,100.207,103.481,0.00100542,0.0466399,20.9852,33.9235,-0.290032,0.0,0.0
228,56.75,24.4463,25.2615,196.401,100.197,103.776,0.000996621,0.0465408,20.9852,33.9936,-0.316616,0.0,0.0
240,59.75,24.257,25.3257,196.263,100.2,103.825,0.000848515,0.04667,20.9852,34.0036,-0.320613,0.0,0.0
252,62.75,24.2772,25.0895,198.139,100.214,103.475,0.000637166,0.0467648,20.9852,34.0136,-0.28892,0.0,0.0
264,65.75,24.2887,25.1971,200.154,100.206,103.416,0.000508866,0.0466847,20.9844,34.0036,-0.284453,0.0,0.0
276,68.75,24.0766,25.2004,193.938,100.222,103.786,0.00036208,0.0464097,20.9841,33.9836,-0.315294,0.0,0.0
288,71.75,24.1668,25.2752,189.876,100.203,103.839,0.000531393,0.0463676,20.984,33.8434,-0.321563,0.0,0.0
300,74.75,24.2755,25.2298,193.589,100.207,103.659,0.000674694,0.046278,20.9839,33.8634,-0.305474,0.0,0.0
312,77.75,24.1183,25.1611,194.716,100.205,103.592,0.000730918,0.0465011,20.9831,33.9035,-0.29989,0.0,0.0
324,80.75,24.4666,25.8739,196.606,100.208,103.364,0.000719407,0.0477017,20.9821,33.9435,-0.279694,0.0,0.0
336,83.75,24.2106,25.2121,193.661,100.206,103.909,0.000787394,0.0489763,20.981,34.0036,-0.327371,0.0,0.0
348,86.75,24.4809,25.4914,197.481,100.206,103.933,0.000830761,0.0500423,20.9799,33.9936,-0.329406,0.0,0.0
360,89.75,24.3688,25.3108,192.092,100.203,103.781,0.000742945,0.049711,20.9799,33.9936,-0.316516,0.0,0.0
372,92.75,24.3876,25.3754,194.468,100.209,103.808,0.000670202,0.0483772,20.9819,33.9936,-0.318312,0.0,0.0
384,95.75,24.2129,25.3137,197.087,100.227,103.335,0.000908635,0.0475157,20.9828,33.8034,-0.275493,0.0,0.0
396,98.75,24.2154,25.072,198.522,100.223,103.371,0.00112281,0.0468244,20.9845,33.8334,-0.279013,0.0,0.0
408,101.75,24.3137,25.2557,192.85,100.225,103.387,0.00114754,0.0465637,20.9852,33.8835,-0.280218,0.0,0.0
420,104.75,24.2985,25.3763,200.534,100.233,103.242,0.000897948,0.0465768,20.9848,33.9235,-0.266852,0.0,0.0
432,107.75,24.343,25.2698,194.737,100.24,103.706,0.000567755,0.0464464,20.9847,33.9035,-0.306674,0.0,0.0
444,110.75,24.5567,25.5017,193.412,100.258,102.964,0.000441964,0.0462753,20.9838,33.7333,-0.240242,0.0,0.0
456,113.75,24.5268,25.4153,198.735,100.262,103.715,0.000533526,0.0462666,20.9841,33.8234,-0.305393,0.0,0.0
468,116.75,24.4754,25.2785,193.763,100.29,103.539,0.000908589,0.0461424,20.9848,33.8835,-0.28764,0.0,0.0
480,119.75,24.4765,25.4138,191.365,100.296,103.978,0.0010419,0.0461693,20.9836,33.8134,-0.325272,0.0,0.0
492,122.75,24.4491,25.3375,196.076,100.324,103.628,0.000867414,0.0461714,20.9833,33.8835,-0.292359,0.0,0.0
504,125.75,24.5163,25.3728,195.472,100.342,103.747,0.000714979,0.0462127,20.9827,33.8935,-0.301024,0.0,0.0
516,128.75,24.4554,25.8307,195.487,100.37,103.484,0.000732804,0.046186,20.9824,33.8434,-0.275607,0.0,0.0
528,131.75,24.847,25.8361,199.924,100.418,103.416,0.000716424,0.0461278,20.9823,33.8935,-0.265398,0.0,0.0
540,134.75,24.4724,25.7119,195.746,100.438,103.708,0.000659743,0.046266,20.9838,33.8134,-0.289102,0.0,0.0
552,137.75,24.8962,25.6243,189.299,100.462,103.621,0.000752343,0.0462135,20.9859,33.8034,-0.279319,0.0,0.0
564,140.75,24.4349,25.705,197.949,100.491,103.74,0.000776472,0.0461655,20.9865,33.8935,-0.287004,0.0,0.0
576,143.75,24.5905,25.6835,202.71,100.52,103.939,0.000519004,0.0461357,20.9867,33.8234,-0.301748,0.0,0.0
588,146.75,24.8118,25.8451,193.648,100.525,104.035,0.000416892,0.0462364,20.9867,33.8735,-0.309668,0.0,0.0
600,149.75,24.2334,25.4517,190.844,100.537,104.359,0.000550171,0.046251,20.9867,33.8735,-0.336603,0.0,0.0
612,152.75,24.6693,25.6188,192.691,100.54,103.81,0.00062223,0.0463423,20.9867,33.8835,-0.288714,0.0,0.0
624,155.75,24.8062,25.7495,189.781,100.545,104.229,0.000811602,0.0464395,20.9867,33.9235,-0.324636,0.0,0.0
636,158.75,24.8075,25.9384,197.836,100.549,104.031,0.000914445,0.0463909,20.9863,33.8534,-0.307114,0.0,0.0
648,161.75,24.7607,25.7238,206.445,100.562,103.696,0.000864218,0.046278,20.986,33.8735,-0.27685,0.0,0.0
660,164.75,24.4714,25.5019,190.461,100.569,103.845,0.000842721,0.0463338,20.9859,33.8534,-0.289126,0.0,0.0
672,167.75,24.8917,25.9585,194.692,100.577,103.807,0.000868377,0.0464759,20.9855,33.7433,-0.285165,0.0,0.0
684,170.75,24.6319,25.8408,190.026,100.605,103.862,0.000907643,0.0464656,20.9844,33.7734,-0.287502,0.0,0.0
696,173.75,24.6186,25.6001,194.203,100.613,104.235,0.00099452,0.0464552,20.9832,33.8334,-0.319035,0.0,0.0
708,176.75,24.6941,25.61,194.853,100.648,104.076,0.000850469,0.0464527,20.9838,33.8634,-0.302212,0.0,0.0
720,179.75,24.8772,25.7411,188.2,100.679,104.103,0.000680564,0.0462888,20.9847,33.8634,-0.301733,0.0,0.0
732,182.75,24.8635,25.8679,196.877,100.717,104,0.000685023,0.0461475,20.9847,33.8634,-0.289433,0.0,0.0
744,185.75,24.6529,25.7978,194.135,100.763,104.106,0.00051519,0.0462154,20.9833,33.8835,-0.294444,0.0,0.0
756,188.75,25.16,26.0451,194.4,100.768,103.876,0.000445364,0.046386,20.9829,33.8434,-0.274035,0.0,0.0
768,191.75,24.712,25.933,197.052,100.831,103.761,0.000438459,0.0465989,20.9831,33.8835,-0.258381,0.0,0.0
780,194.75,24.5568,25.7352,196.113,100.841,103.88,0.000572162,0.046701,20.9831,33.8534,-0.267913,0.0,0.0
792,197.75,24.4701,25.7417,191.445,100.876,104.519,0.000707667,0.0465081,20.983,33.8634,-0.32006,0.0,0.0
804,200.75,25.096,26.2009,193.846,100.923,104.134,0.000704608,0.0464869,20.9825,33.8234,-0.282628,0.0,0.0
816,203.75,24.7791,25.6233,195.088,100.956,104.122,0.000639591,0.0467016,20.9823,33.8134,-0.278623,0.0,0.0
828,206.75,24.6487,25.2365,192.775,100.991,104.157,0.000835382,0.0466652,20.9828,33.7934,-0.278471,0.0,0.0
840,209.75,24.7177,25.5955,188.993,101.055,104.341,0.000996906,0.0465265,20.9829,33.8234,-0.288678,0.0,0.0
852,212.75,24.5016,25.5626,195.294,101.08,103.571,0.000925579,0.0462331,20.9835,33.8134,-0.219641,0.0,0.0
864,215.75,25.1752,26.1336,193.073,101.1,104.189,0.000794056,0.0462108,20.9848,33.6532,-0.271594,0.0,0.0
876,218.75,24.1479,25.6562,196.233,101.124,104.22,0.000724046,0.0463683,20.9851,33.6132,-0.27206,0.0,0.0
888,221.75,24.7052,25.5187,194.025,101.156,104.296,0.000589795,0.0465125,20.9848,33.7133,-0.275788,0.0,0.0
900,224.75,24.8701,25.7477,193.364,101.168,104.198,0.0004258,0.0464407,20.9834,33.6933,-0.266203,0.0,0.0
912,227.75,24.649,25.8639,196.509,101.181,104.421,0.000503428,0.0463204,20.9834,33.7333,-0.2844,0.0,0.0
924,230.75,24.5356,25.7338,191.193,101.204,104.372,0.000726087,0.0461989,20.9852,33.7433,-0.278094,0.0,0.0
936,233.75,24.9222,26.3016,193.189,101.222,104.304,0.00082801,0.0464,20.9857,33.7033,-0.270579,0.0,0.0
948,236.75,24.9158,26.0604,191.465,101.26,104.585,0.000629795,0.0464831,20.9858,33.7734,-0.291501,0.0,0.0
960,239.75,24.685,25.9395,197.575,101.254,104.3,0.000378375,0.0465289,20.9859,33.7333,-0.267476,0.0,0.0
972,242.75,25.1571,26.2251,195.564,101.261,104.216,0.000367582,0.0466169,20.9859,33.7033,-0.259557,0.0,0.0
984,245.75,24.4678,25.6874,198.704,101.258,104.301,0.000525878,0.0464731,20.9859,33.7133,-0.26709,0.0,0.0
996,248.75,24.8343,26.2549,193.542,101.267,104.396,0.000661745,0.0463547,20.9853,33.7233,-0.274495,0.0,0.0
1008,251.75,24.8234,26.1708,190.155,101.245,104.375,0.000589434,0.0465437,20.9836,33.6933,-0.274659,0.0,0.0
1020,254.75,24.8705,25.832,196.044,101.261,104.459,0.000589938,0.0465251,20.9822,33.6532,-0.280525,0.0,0.0
1032,257.75,24.8035,25.9374,194.23,101.268,104.328,0.000710905,0.0466715,20.9832,33.6833,-0.268601,0.0,0.0
1044,260.75,24.5592,25.8489,195.372,101.278,104.547,0.000831873,0.0467188,20.9835,33.6532,-0.286557,0.0,0.0
1056,263.75,24.7409,25.7299,190.022,101.295,104.795,0.000853019,0.0466404,20.983,33.6032,-0.306394,0.0,0.0
1068,266.75,24.3509,25.418,196.977,101.298,104.159,0.000706875,0.0465972,20.9828,33.5932,-0.251278,0.0,0.0
1080,269.75,24.6225,25.8847,193.265,101.289,104.165,0.000678851,0.0464197,20.9827,33.5531,-0.252603,0.0,0.0
1092,272.75,24.4832,25.3502,193.767,101.297,104.388,0.000551942,0.0466233,20.9827,33.4731,-0.27122,0.0,0.0
1104,275.75,24.5822,25.7681,191.423,101.303,104.441,0.000492541,0.0467903,20.9826,33.5231,-0.275189,0.0,0.0
1116,278.75,24.4584,25.5437,195.905,101.309,104.899,0.00036538,0.0465806,20.9824,33.5732,-0.314084,0.0,0.0
1128,281.75,24.7389,25.6684,192.454,101.323,104.063,0.000466236,0.0465514,20.9823,33.5031,-0.240679,0.0,0.0
1140,284.75,25.2249,26.1297,189.233,101.338,104.413,0.000698664,0.0466263,20.9823,33.3629,-0.269646,0.0,0.0
1152,287.75,24.7769,26.01,197.018,101.331,104.036,0.00082383,0.0466331,20.9834,33.463,-0.237586,0.0,0.0
1164,290.75,25.2488,26.1353,195.791,101.338,104.315,0.000763495,0.0465049,20.9832,33.3229,-0.261199,0.0,0.0
1176,293.75,24.9603,26.2192,192.396,101.324,104.32,0.000529697,0.0464237,20.9828,33.413,-0.262892,0.0,0.0
1188,296.75,25.1247,25.9044,192.875,101.347,104.29,0.00048408,0.0465009,20.983,33.373,-0.258252,0.0,0.0
1200,299.75,25.1254,26.102,194.49,101.345,104.45,0.000676351,0.0465597,20.9834,33.3529,-0.272214,0.0,0.0
1212,302.75,25.1361,26.4894,197.469,101.364,104.143,0.000698787,0.0465857,20.9835,33.393,-0.243996,0.0,0.0
1224,305.75,25.1805,25.9572,192.175,101.354,104.384,0.000592623,0.0465472,20.9831,33.383,-0.265749,0.0,0.0
1236,308.75,25.0486,25.9382,193.859,101.373,104.465,0.000470381,0.0465697,20.9828,33.3129,-0.271022,0.0,0.0
1248,311.75,24.6836,25.9198,195.455,101.36,104.511,0.000504536,0.0465391,20.9827,33.1828,-0.276204,0.0,0.0
1260,314.75,24.4366,25.4746,197.787,101.362,104.137,0.000664529,0.0466539,20.9827,33.2628,-0.243661,0.0,0.0
1272,317.75,24.5179,25.8854,198.017,101.352,104.351,0.000703376,0.0468156,20.9827,33.2628,-0.263029,0.0,0.0
1284,320.75,25.1696,26.2743,193.769,101.335,104.057,0.000495446,0.0468971,20.9827,33.1527,-0.239119,0.0,0.0
1296,323.75,25.1881,26.0517,192.58,101.318,104.287,0.000423594,0.0470013,20.9836,33.2328,-0.260564,0.0,0.0
1308,326.75,24.5666,25.9021,193.721,101.306,104.224,0.000571843,0.0471752,20.9846,33.1928,-0.256164,0.0,0.0
1320,329.75,24.8557,26.0765,191.416,101.268,104.345,0.000674584,0.0473359,20.985,33.1828,-0.270063,0.0,0.0
1332,332.75,25.0313,25.8661,192.679,101.249,104.21,0.000751137,0.0473761,20.9851,33.0626,-0.260103,0.0,0.0
1344,335.75,25.0098,26.1436,191.794,101.224,103.984,0.000767088,0.047469,20.9849,33.0727,-0.242641,0.0,0.0
1356,338.75,25.2359,26.1925,193.087,101.212,104.472,0.000697154,0.047893,20.9834,33.0727,-0.28604,0.0,0.0
1368,341.75,25.1169,26.1774,197.439,101.167,104.395,0.000570647,0.0482363,20.9817,32.9826,-0.283365,0.0,0.0
1380,344.75,24.6787,25.9851,187.059,101.107,104.539,0.000716173,0.0485622,20.9823,32.9826,-0.301123,0.0,0.0
1392,347.75,24.7029,26.1435,197.011,101.054,104.11,0.000879912,0.0488801,20.9796,32.9525,-0.268801,0.0,0.0
1404,350.75,25.0406,26.0905,194.117,100.958,104.158,0.000907752,0.0491918,20.9785,32.9325,-0.281532,0.0,0.0
1416,353.75,25.1766,26.292,192.275,100.902,103.872,0.000884807,0.0493445,20.977,32.9125,-0.261738,0.0,0.0
1428,356.75,24.8482,26.1742,196.441,100.854,104.21,0.000596391,0.0495002,20.9761,32.8625,-0.295306,0.0,0.0
1440,359.75,24.9861,26.0268,198.264,100.797,103.853,0.000396593,0.0496892,20.9759,32.7924,-0.269444,0.0,0.0
1452,362.75,24.8982,25.9024,196.452,100.711,103.617,0.000508418,0.0499941,20.9758,32.8324,-0.256599,0.0,0.0
1464,365.75,25.0314,25.9943,192.212,100.646,104.159,0.000727768,0.0504243,20.9753,32.8324,-0.309507,0.0,0.0
1476,368.75,24.4536,25.5511,194.611,100.584,103.682,0.000890828,0.0506513,20.9744,32.7123,-0.273626,0.0,0.0
1488,371.75,25.1888,26.327,191.253,100.521,103.529,0.000959985,0.0507525,20.9753,32.5822,-0.266053,0.0,0.0
1500,374.75,25.0875,26.1526,193.936,100.449,103.353,0.000923574,0.0509853,20.9755,32.6422,-0.257113,0.0,0.0
1512,377.75,25.0092,25.7524,191.422,100.402,103.338,0.000775739,0.0511555,20.977,32.7323,-0.260005,0.0,0.0
1524,380.75,25.1463,26.2724,196.831,100.361,103.218,0.00074236,0.0513536,20.9757,32.6623,-0.25326,0.0,0.0
1536,383.75,25.2582,26.2088,193.041,100.304,103.083,0.000876867,0.0514393,20.975,32.6322,-0.246594,0.0,0.0
1548,386.75,25.0251,26.1543,197.297,100.266,103.043,0.000970892,0.0516544,20.9748,32.6122,-0.246508,0.0,0.0
1560,389.75,24.9869,25.6462,194.033,100.229,103.566,0.000973408,0.0519087,20.9748,32.5922,-0.295491,0.0,0.0
1572,392.75,25.2963,26.1782,197.345,100.207,103.103,0.00104243,0.0521644,20.9751,32.5221,-0.257088,0.0,0.0
1584,395.75,25.1582,26.0188,195.378,100.189,103.562,0.000910583,0.0523207,20.9742,32.362,-0.298711,0.0,0.0
1596,398.75,25.1498,26.0913,193.193,100.18,103.154,0.000861318,0.0523993,20.9736,32.4821,-0.263853,0.0,0.0
1608,401.75,25.2379,26.3441,194.281,100.177,103.144,0.000848321,0.0523854,20.9734,32.3519,-0.263252,0.0,0.0
1620,404.75,25.2578,26.2709,193.968,100.19,102.698,0.000697042,0.0526069,20.9733,32.2919,-0.223099,0.0,0.0
1632,407.75,25.3195,26.4424,188.33,100.219,103.259,0.000582359,0.0525502,20.9733,32.362,-0.269588,0.0,0.0
1644,410.75,24.9696,26.2407,192.001,100.256,102.993,0.000509616,0.0530341,20.9733,32.2719,-0.242995,0.0,0.0
1656,413.75,24.8494,26.0473,192.531,100.262,103.164,0.00042912,0.0533614,20.9733,32.2218,-0.257398,0.0,0.0
1668,416.75,24.9633,25.9202,195.134,100.315,103.527,0.000361816,0.0534278,20.9728,32.1417,-0.284369,0.0,0.0
1680,419.75,24.977,26.2984,189.645,100.346,103.221,0.000425569,0.0536325,20.972,32.1517,-0.254865,0.0,0.0
1692,422.75,25.1896,26.3218,195.646,100.395,103.537,0.000823091,0.0537471,20.9738,32.1317,-0.27802,0.0,0.0
1704,425.75,24.9101,26.1049,196.316,100.477,103.146,0.000824647,0.0541038,20.9736,32.0917,-0.236542,0.0,0.0
1716,428.75,25.1734,26.2338,192.113,100.514,103.485,0.00069397,0.054161,20.9722,31.9616,-0.262848,0.0,0.0
1728,431.75,24.8585,26.5994,189.867,100.584,103.699,0.00078902,0.0541192,20.9723,31.9415,-0.275089,0.0,0.0
1740,434.75,25.0353,26.2073,195.412,100.689,103.69,0.000902602,0.0543145,20.9724,31.8715,-0.265001,0.0,0.0
1752,437.75,25.0504,26.175,193.176,100.751,103.659,0.00107962,0.0546193,20.9722,31.9916,-0.25667,0.0,0.0
1764,440.75,25.3796,26.2798,198.6,100.837,103.51,0.00111784,0.0547036,20.9713,31.8815,-0.236022,0.0,0.0
1776,443.75,25.3044,26.4547,193.832,100.915,103.862,0.00100646,0.0547554,20.9711,31.8515,-0.259712,0.0,0.0
1788,446.75,25.2816,26.4182,194.826,100.985,103.921,0.000885767,0.0546912,20.971,31.7914,-0.258548,0.0,0.0
1800,449.75,25.2437,26.327,201.808,101.053,103.695,0.000756717,0.0549359,20.971,31.7914,-0.232866,0.0,0.0
1812,452.75,25.6008,26.8165,194.925,101.115,104.041,0.000843281,0.0549178,20.9696,31.7413,-0.257342,0.0,0.0
1824,455.75,25.0138,26.0835,196.71,101.186,103.719,0.000979427,0.0549896,20.9705,31.6813,-0.223077,0.0,0.0
1836,458.75,25.3339,26.3332,188.475,101.23,103.848,0.00084935,0.0550067,20.9709,31.6012,-0.230294,0.0,0.0
1848,461.75,25.1686,26.2534,193.434,101.294,104.187,0.000505887,0.0549375,20.9712,31.5912,-0.254026,0.0,0.0
1860,464.75,25.0963,26.346,194.269,101.356,104.303,0.000518368,0.0550668,20.9699,31.5011,-0.258486,0.0,0.0
1872,467.75,25.4011,26.2326,191.316,101.391,104.399,0.00064986,0.0550789,20.9695,31.5011,-0.263698,0.0,0.0
1884,470.75,25.2311,26.2565,194.766,101.419,104.768,0.000660499,0.0554882,20.9694,31.5011,-0.293091,0.0,0.0
1896,473.75,25.3722,26.1839,195.552,101.436,104.297,0.000774092,0.0556958,20.969,31.4811,-0.250963,0.0,0.0
1908,476.75,25.5046,26.4352,191.841,101.429,104.347,0.000802759,0.0559376,20.9686,31.381,-0.255924,0.0,0.0
1920,479.75,25.2496,26.4472,190.876,101.418,104.483,0.00079535,0.0559552,20.9683,31.2909,-0.268678,0.0,0.0
1932,482.75,25.3521,26.6839,196.249,101.388,104.1,0.000842161,0.0562254,20.9668,31.2809,-0.238106,0.0,0.0
1944,485.75,25.2426,26.4967,195.323,101.347,104.534,0.00075283,0.0564261,20.9673,31.2709,-0.279293,0.0,0.0
1956,488.75,25.3811,26.7129,191.876,101.291,104.314,0.000402567,0.0566293,20.9676,31.1608,-0.265299,0.0,0.0
1968,491.75,25.4849,26.6169,192.018,101.22,103.701,0.00025552,0.0566524,20.9677,31.1608,-0.218515,0.0,0.0
1980,494.75,25.4602,26.8132,198.058,101.129,104.24,0.000690314,0.0567686,20.9677,30.9906,-0.273351,0.0,0.0
1992,497.75,25.7118,26.6667,193.147,101.035,103.934,0.000963736,0.0568099,20.9677,30.9806,-0.255209,0.0,0.0
2004,500.75,25.2466,26.1835,194.813,100.945,103.632,0.00111814,0.0568547,20.9677,30.9105,-0.236948,0.0,0.0
2016,503.75,25.6615,26.6836,197.347,100.832,103.65,0.00112246,0.0568804,20.9669,30.9105,-0.248648,0.0,0.0
2028,506.75,25.2126,26.2288,190.819,100.741,103.793,0.000787624,0.0570369,20.9669,30.9506,-0.269223,0.0,0.0
2040,509.75,25.5998,26.6859,192.204,100.711,103.606,0.000535046,0.057396,20.9672,30.8805,-0.255703,0.0,0.0
2052,512.75,25.3803,26.2455,190.397,100.816,103.676,0.000672105,0.0576831,20.9673,30.8705,-0.252383,0.0,0.0
2064,515.75,25.7678,26.9392,195.51,100.871,104.171,0.000825367,0.0578758,20.9677,30.8104,-0.290363,0.0,0.0
2076,518.75,25.7336,26.8485,195.121,100.957,103.546,0.000745514,0.057731,20.968,30.7404,-0.228453,0.0,0.0
2088,521.75,25.5849,26.6923,200.359,101.015,103.822,0.000641986,0.057726,20.9681,30.5902,-0.247261,0.0,0.0
2100,524.75,25.5472,26.9215,199.831,101.064,104.242,0.000646713,0.057542,20.9682,30.6403,-0.279295,0.0,0.0
2112,527.75,25.757,26.6203,192.615,101.12,103.931,0.000709151,0.0576586,20.9676,30.43,-0.247336,0.0,0.0
2124,530.75,25.844,26.6494,199.667,101.12,103.944,0.000683027,0.0579074,20.9665,30.5402,-0.248486,0.0,0.0
2136,533.75,25.1784,26.2023,196.568,101.083,103.993,0.000657881,0.0579517,20.9652,30.4801,-0.25603,0.0,0.0
2148,536.75,25.7341,26.8353,195.436,100.999,103.945,0.000475725,0.0581967,20.9649,30.42,-0.259414,0.0,0.0
2160,539.75,25.5585,26.6568,197.629,100.886,104.148,0.000489673,0.0583338,20.9648,30.3099,-0.287055,0.0,0.0
2172,542.75,25.5504,26.6335,200.819,100.738,103.124,0.000678025,0.0582541,20.9647,30.2999,-0.211155,0.0,0.0
2184,545.75,25.3131,26.3963,189.661,100.798,103.787,0.000636923,0.0582771,20.9647,30.2699,-0.26359,0.0,0.0
2196,548.75,25.6425,26.7163,198.765,100.869,104.176,0.000631612,0.0584028,20.9647,30.0096,-0.290984,0.0,0.0
2208,551.75,25.6525,26.1651,191.231,100.963,103.993,0.000644827,0.0584484,20.9647,30.0697,-0.266766,0.0,0.0
2220,554.75,25.4402,26.2519,191.952,101.059,104.142,0.00074031,0.0586183,20.9641,30.1598,-0.271071,0.0,0.0
2232,557.75,25.6548,26.878,193.722,101.171,104.319,0.000865758,0.0588851,20.9643,30.0497,-0.276408,0.0,0.0
2244,560.75,25.4609,26.6142,195.411,101.269,104.003,0.000887029,0.059088,20.9643,30.0096,-0.240352,0.0,0.0
2256,563.75,25.7956,26.8007,190.664,101.36,104.45,0.000855456,0.059241,20.9644,29.8395,-0.27089,0.0,0.0
2268,566.75,25.4522,26.8207,192.518,101.45,104.521,0.000705738,0.0594206,20.9644,29.8495,-0.269072,0.0,0.0
2280,569.75,25.3544,26.7519,196.58,101.516,104.774,0.000665073,0.0593173,20.9648,29.8795,-0.284967,0.0,0.0
2292,572.75,25.623,26.7198,193.176,101.574,104.402,0.000706944,0.0595537,20.9661,29.6192,-0.247816,0.0,0.0
2304,575.75,25.3717,26.7112,197.297,101.598,104.71,0.000742245,0.0596392,20.9663,29.7694,-0.272109,0.0,0.0
2316,578.75,25.7918,27.0197,197.391,101.592,104.237,0.000806415,0.0596668,20.9647,29.6893,-0.231899,0.0,0.0
2328,581.75,25.8636,27.1082,192.053,101.589,104.797,0.00089051,0.0598044,20.9636,29.7093,-0.280512,0.0,0.0
2340,584.75,25.6723,26.8865,195.746,101.528,104.701,0.000853145,0.0598749,20.9619,29.6793,-0.277692,0.0,0.0
2352,587.75,26.0584,26.9567,195.133,101.456,104.129,0.000723289,0.059928,20.962,29.5292,-0.234614,0.0,0.0
2364,590.75,26.06,27.213,197.829,101.352,104.292,0.000622001,0.0599787,20.9623,29.389,-0.258034,0.0,0.0
2376,593.75,25.9942,27.1823,196.616,101.206,104.162,0.000765726,0.0599165,20.9618,29.4491,-0.259754,0.0,0.0
2388,596.75,25.7416,26.6538,194.341,101.066,104.057,0.000905837,0.0600796,20.9613,29.369,-0.263132,0.0,0.0
2400,599.75,25.7293,27.0839,191.142,100.895,104.293,0.000886007,0.0601228,20.9612,29.319,-0.298869,0.0,0.0
2412,602.75,26.0245,27.0952,189.962,100.734,103.448,0.000910639,0.0602637,20.9607,29.349,-0.239852,0.0,0.0
2424,605.75,25.876,26.9087,199.666,100.572,103.75,0.00087179,0.0602502,20.9605,29.359,-0.280718,0.0,0.0
2436,608.75,25.8482,26.8748,191.883,100.42,103.029,0.000839313,0.0604133,20.9604,29.1488,-0.231414,0.0,0.0
2448,611.75,25.8388,26.7862,197.143,100.293,103.434,0.000728086,0.0607094,20.9604,29.0887,-0.278274,0.0,0.0
2460,614.75,25.5951,27.1754,188.487,100.199,103.145,0.000748237,0.0608317,20.96,28.9886,-0.261394,0.0,0.0
2472,617.75,25.8175,27.0652,195.069,100.168,103.039,0.000788045,0.0608169,20.9603,28.9986,-0.254937,0.0,0.0
2484,620.75,25.931,27.0628,194.427,100.175,103.209,0.000900327,0.0610956,20.9604,28.9786,-0.269135,0.0,0.0
2496,623.75,25.7484,27.1959,193.918,100.25,103.389,0.000935885,0.061074,20.961,28.9786,-0.278116,0.0,0.0
2508,626.75,25.7929,26.9431,191.939,100.372,102.85,0.000751282,0.0609941,20.9613,28.8985,-0.220005,0.0,0.0
2520,629.75,26.4034,27.2848,195.494,100.52,103.883,0.000622615,0.0612063,20.9614,28.8185,-0.296882,0.0,0.0
2532,632.75,25.9688,26.9587,192.639,100.675,103.32,0.000667095,0.0612693,20.9614,28.6683,-0.233944,0.0,0.0
2544,635.75,25.703,26.9569,197.199,100.845,104.196,0.000889515,0.0613217,20.9614,28.7384,-0.29487,0.0,0.0
2556,638.75,25.6923,27.0605,190.468,100.982,104.144,0.00121484,0.0614985,20.9608,28.6683,-0.278141,0.0,0.0
2568,641.75,25.8691,26.9156,196.79,101.115,104.325,0.00126373,0.0616929,20.9596,28.6383,-0.281921,0.0,0.0
2580,644.75,26.1581,27.122,189.385,101.221,104.049,0.00109169,0.0617492,20.9592,28.6183,-0.248592,0.0,0.0
2592,647.75,26.2604,27.1679,197.342,101.314,104.595,0.000835033,0.0620394,20.9594,28.5782,-0.287546,0.0,0.0
2604,650.75,25.935,27.0988,193.679,101.394,104.528,0.000772716,0.0621525,20.9597,28.5082,-0.274659,0.0,0.0
2616,653.75,25.8562,26.9346,191.377,101.411,104.433,0.000798221,0.0622384,20.9597,28.358,-0.26493,0.0,0.0
2628,656.75,26.0032,27.1426,193.11,101.43,104.695,0.000680407,0.0621689,20.9597,28.358,-0.285842,0.0,0.0
2640,659.75,26.0203,27.1291,194.8,101.43,104.401,0.000780665,0.0623011,20.9583,28.1778,-0.260449,0.0,0.0
2652,662.75,26.2917,27.3835,197.053,101.417,104.417,0.000719819,0.0623692,20.9577,28.318,-0.262994,0.0,0.0
2664,665.75,26.0756,26.8566,190.513,101.404,104.683,0.000608767,0.0624249,20.957,28.2679,-0.287041,0.0,0.0
2676,668.75,26.0233,26.8638,198.044,101.331,103.93,0.000685917,0.0625938,20.9567,28.0877,-0.228428,0.0,0.0
2688,671.75,25.8253,27.1249,195.914,101.268,105.042,0.000652399,0.0625652,20.9585,28.1278,-0.330039,0.0,0.0
2700,674.75,26.2224,27.2686,191.083,101.183,104.11,0.000479424,0.0625985,20.9586,28.0877,-0.257251,0.0,0.0
2712,677.75,26.2857,27.3608,195.836,101.091,104.29,0.000490072,0.0625774,20.9591,27.8675,-0.281042,0.0,0.0
2724,680.75,26.0506,27.3607,193.726,100.992,104.105,0.000640899,0.0627201,20.9606,27.9076,-0.273852,0.0,0.0
2736,683.75,26.1065,26.7563,193.852,100.882,104.165,0.000598766,0.0627088,20.9598,27.8575,-0.288943,0.0,0.0
2748,686.75,25.9877,27.1377,192.595,100.786,103.872,0.000563206,0.0628521,20.9592,27.8775,-0.272017,0.0,0.0
2760,689.75,26.0682,27.4347,195.496,100.696,103.941,0.000564424,0.0630878,20.959,27.7774,-0.286098,0.0,0.0
2772,692.75,25.7588,26.8541,195.578,100.743,103.752,0.000583269,0.063109,20.959,27.7274,-0.265501,0.0,0.0
2784,695.75,26.206,27.3757,192.118,100.839,104.002,0.000512245,0.0632199,20.9569,27.7274,-0.278633,0.0,0.0
2796,698.75,26.3763,27.2699,190.777,100.888,103.817,0.000670378,0.06318,20.9562,27.6473,-0.258145,0.0,0.0
2808,701.75,26.1893,26.955,191.083,100.964,104.055,0.000809596,0.0631779,20.956,27.5172,-0.272004,0.0,0.0
2820,704.75,26.009,27.2155,199.086,101.002,104.693,0.000710038,0.0632782,20.9559,27.5172,-0.323839,0.0,0.0
2832,707.75,25.9794,27.2026,191.901,101.061,104.204,0.000762504,0.0633273,20.9564,27.387,-0.276283,0.0,0.0
2844,710.75,25.8317,27.0474,192.807,101.06,104.259,0.000944614,0.0630003,20.9567,27.4371,-0.281153,0.0,0.0
2856,713.75,26.1058,26.8914,189.271,101.02,104.325,0.000886547,0.0629598,20.9567,27.337,-0.290435,0.0,0.0
2868,716.75,26.517,27.5356,195.772,100.944,104.282,0.000740044,0.0629655,20.9569,27.4271,-0.293478,0.0,0.0
2880,719.75,25.9787,27.1089,196.089,100.831,104.286,0.000628289,0.0631338,20.9564,27.327,-0.304005,0.0,0.0
2892,722.75,26.0406,27.1708,195.226,100.674,103.779,0.000570595,0.0631583,20.9571,27.2669,-0.274051,0.0,0.0
2904,725.75,26.0066,27.178,192.894,100.753,103.61,0.000472115,0.0633564,20.9573,27.1768,-0.252269,0.0,0.0
2916,728.75,25.849,27.051,196.514,100.862,103.901,0.000540965,0.063303,20.9574,27.0567,-0.267784,0.0,0.0
2928,731.75,25.9063,26.9771,196.4,100.958,104.058,0.000655853,0.0632152,20.9574,27.1168,-0.272852,0.0,0.0
2940,734.75,26.0329,27.1753,197.625,101.084,104.466,0.000738084,0.0631234,20.9574,27.0267,-0.296836,0.0,0.0
2952,737.75,26.339,27.0482,193.241,101.169,104.359,0.000837606,0.0630608,20.9574,26.9466,-0.280068,0.0,0.0
2964,740.75,25.9952,27.191,195.839,101.254,104.742,0.000921486,0.0633163,20.9577,26.9266,-0.305484,0.0,0.0
2976,743.75,26.2147,27.0917,187.746,101.339,104.777,0.000927311,0.06336,20.958,26.8665,-0.300993,0.0,0.0
2988,746.75,26.223,27.222,191.989,101.426,104.877,0.000947034,0.0636762,20.958,26.7064,-0.301866,0.0,0.0
3000,749.75,25.8165,26.9515,191.915,101.479,104.915,0.000990161,0.0638687,20.9581,26.7464,-0.300398,0.0,0.0
3012,752.75,25.7657,27.0898,188.63,101.52,104.685,0.000887438,0.0637399,20.9572,26.6563,-0.277001,0.0,0.0
3024,755.75,25.6386,26.9292,193.434,101.549,104.746,0.000763068,0.0636261,20.957,26.6463,-0.279696,0.0,0.0
3036,758.75,25.965,27.1364,193.018,101.546,105.045,0.000632243,0.0638843,20.957,26.6263,-0.30563,0.0,0.0
3048,761.75,26.1311,27.246,191.087,101.538,105.146,0.000570845,0.0640525,20.9574,26.5762,-0.31504,0.0,0.0
3060,764.75,26.1504,27.4451,191.992,101.514,104.767,0.000506528,0.0641274,20.9583,26.5062,-0.284559,0.0,0.0
3072,767.75,26.5046,27.2899,194.539,101.461,104.833,0.000702256,0.0640617,20.957,26.346,-0.294978,0.0,0.0
3084,770.75,25.8871,26.7445,192.376,101.384,104.623,0.000926532,0.064157,20.9566,26.356,-0.283771,0.0,0.0
3096,773.75,26.3549,27.2867,192.771,101.291,104.234,0.00103058,0.0641319,20.9565,26.346,-0.258335,0.0,0.0
3108,776.75,25.777,26.9455,195.525,101.177,104.58,0.00099299,0.064114,20.9564,26.346,-0.298437,0.0,0.0
3120,779.75,26.171,27.167,198.567,101.081,104.725,0.000962533,0.0641795,20.9564,26.1558,-0.319489,0.0,0.0
3132,782.75,25.6295,26.882,191.124,100.964,104.389,0.0010911,0.0641773,20.9564,26.1859,-0.300968,0.0,0.0
3144,785.75,25.8875,27.2968,198.367,100.841,104.185,0.00102728,0.0643103,20.9557,26.1859,-0.29426,0.0,0.0
3156,788.75,26.123,26.9863,198.031,100.719,104.309,0.000925887,0.0644149,20.9538,26.1158,-0.315994,0.0,0.0
3168,791.75,25.761,27.053,194.032,100.597,104.367,0.00087634,0.0644518,20.9548,26.0557,-0.33189,0.0,0.0
3180,794.75,25.6427,26.9608,190.919,100.477,103.88,0.000603868,0.0645114,20.955,26.0357,-0.300523,0.0,0.0
3192,797.75,26.4649,27.517,192.122,100.364,103.955,0.000582825,0.0647526,20.9548,25.8355,-0.317174,0.0,0.0
3204,800.75,25.9582,26.8125,195.639,100.264,103.438,0.000838637,0.0648463,20.9534,25.7254,-0.281118,0.0,0.0
3216,803.75,26.0752,27.1886,189.21,100.189,103.555,0.000965046,0.0652269,20.953,25.7454,-0.298098,0.0,0.0
3228,806.75,25.8312,27.239,194.32,100.164,103.498,0.000997795,0.0654231,20.9528,25.8355,-0.295362,0.0,0.0
3240,809.75,26.3548,27.5015,191.335,100.158,103.189,0.00104258,0.0655444,20.953,25.8055,-0.268955,0.0,0.0
3252,812.75,25.9176,26.8283,192.512,100.189,103.801,0.000872469,0.0655539,20.9533,25.6954,-0.319509,0.0,0.0
3264,815.75,26.1716,27.0943,201.586,100.261,103.444,0.000680191,0.065841,20.9534,25.6553,-0.281976,0.0,0.0
3276,818.75,26.3709,27.4445,192.667,100.361,103.664,0.00073124,0.0659441,20.9534,25.5853,-0.292102,0.0,0.0
3288,821.75,26.2622,27.0889,194.798,100.486,103.713,0.000762273,0.0661609,20.9534,25.5853,-0.285132,0.0,0.0
3300,824.75,26.3197,27.0212,189.81,100.639,104.246,0.000801422,0.0662562,20.9534,25.3851,-0.317698,0.0,0.0
3312,827.75,26.3481,27.2677,191.892,100.781,104.085,0.000833647,0.0661214,20.9534,25.4551,-0.29105,0.0,0.0
3324,830.75,26.2541,27.3033,192.004,100.928,104.654,0.000913575,0.0662054,20.9534,25.4351,-0.327024,0.0,0.0
3336,833.75,26.1551,27.0931,193.789,101.057,104.664,0.000857543,0.0660782,20.9534,25.2549,-0.316338,0.0,0.0
3348,836.75,25.8298,26.9327,192.299,101.188,104.524,0.000729037,0.0660829,20.9534,25.305,-0.292561,0.0,0.0
3360,839.75,26.5928,27.4833,193.645,101.287,104.648,0.00056824,0.0661689,20.953,25.2049,-0.29455,0.0,0.0
3372,842.75,26.2124,27.3958,193.695,101.369,105.163,0.000520794,0.0661479,20.952,25.2049,-0.33154,0.0,0.0
3384,845.75,26.2526,27.3399,195.764,101.411,105.33,0.000626413,0.0664114,20.952,25.1048,-0.342056,0.0,0.0
3396,848.75,26.2303,27.2338,202.098,101.434,105.14,0.0006205,0.0664574,20.952,25.0447,-0.323656,0.0,0.0
3408,851.75,26.4409,27.3299,190.552,101.437,105.166,0.000531263,0.0664088,20.952,24.9947,-0.325714,0.0,0.0
3420,854.75,26.071,27.3826,196.71,101.407,105.023,0.000476031,0.0664293,20.9519,25.0147,-0.316108,0.0,0.0
3432,857.75,26.49,27.6534,188.723,101.362,104.644,0.000450052,0.0665085,20.9523,25.0247,-0.287496,0.0,0.0
3444,860.75,25.9754,27.1407,196.784,101.294,104.658,0.000644296,0.0667277,20.9524,24.9146,-0.294695,0.0,0.0
3456,863.75,25.7713,27.1213,191.19,101.23,104.751,0.000930488,0.0668277,20.9524,24.8746,-0.308504,0.0,0.0
3468,866.75,26.0622,27.1725,194.579,101.126,104.794,0.000977281,0.0668004,20.9524,24.7144,-0.321437,0.0,0.0
3480,869.75,26.044,27.2474,196.05,101.027,104.413,0.000753669,0.0668326,20.9524,24.7745,-0.297399,0.0,0.0
3492,872.75,26.6105,27.3881,197.223,100.929,104.449,0.000580548,0.0668255,20.9524,24.5643,-0.309281,0.0,0.0
3504,875.75,26.5791,27.4041,195.906,100.836,104.737,0.000611744,0.0669093,20.9524,24.5442,-0.342413,0.0,0.0
3516,878.75,26.4753,27.3827,196.779,100.746,104.475,0.000923932,0.0669174,20.9518,24.5743,-0.327898,0.0,0.0
3528,881.75,26.3193,27.4981,194.913,100.714,104.345,0.00100189,0.0668107,20.9513,24.5142,-0.319518,0.0,0.0
3540,884.75,26.2973,27.6559,195.057,100.811,104.606,0.00100205,0.0670091,20.9509,24.5142,-0.333322,0.0,0.0
3552,887.75,26.5026,27.4526,196.829,100.882,104.768,0.000987136,0.0672065,20.9502,24.4541,-0.340962,0.0,0.0
3564,890.75,26.2556,27.3414,196.431,100.909,104.956,0.00086701,0.0673608,20.9509,24.354,-0.354754,0.0,0.0
3576,893.75,26.3073,27.2468,190.914,100.962,104.799,0.000600737,0.0674836,20.9499,24.304,-0.336522,0.0,0.0
3588,896.75,25.8883,26.7868,194.359,100.978,104.874,0.00053859,0.0676054,20.9491,24.1739,-0.341566,0.0,0.0
3600,899.75,26.3056,27.4036,196.132,100.982,105.028,0.000595208,0.0678644,20.9489,24.2239,-0.354475,0.0,0.0
3612,902.75,26.2575,27.264,195.185,101.014,104.698,0.000818888,0.0679107,20.9491,24.1739,-0.323157,0.0,0.0
3624,905.75,25.9063,26.8933,194.719,101.016,104.9,0.00106307,0.0680061,20.9486,24.0938,-0.340344,0.0,0.0
3636,908.75,26.2051,27.1141,192.254,100.991,104.456,0.00111169,0.0681366,20.9477,24.0838,-0.304408,0.0,0.0
3648,911.75,26.5569,27.5617,198.022,100.938,104.876,0.00104744,0.068165,20.9483,24.0437,-0.345253,0.0,0.0
3660,914.75,26.3263,27.3983,188.054,100.851,104.787,0.00090313,0.0682859,20.9476,24.0037,-0.345353,0.0,0.0
3672,917.75,26.0633,27.3124,198.077,100.71,104.542,0.000923354,0.0680731,20.9479,23.9036,-0.336908,0.0,0.0
3684,920.75,26.2121,27.1562,192.689,100.654,104.487,0.000880054,0.0680293,20.9481,23.8235,-0.337203,0.0,0.0
3696,923.75,26.6021,27.4423,193.205,100.739,105.207,0.00083478,0.068402,20.9481,23.8836,-0.391507,0.0,0.0
3708,926.75,26.0794,27.1577,195.32,100.833,104.608,0.000881762,0.0683621,20.9482,23.7134,-0.331555,0.0,0.0
3720,929.75,26.0361,26.9406,195.564,100.935,104.65,0.000945765,0.0686465,20.9467,23.7034,-0.326078,0.0,0.0
3732,932.75,26.0673,27.3637,196.882,101.051,104.846,0.00102472,0.0689661,20.9461,23.6534,-0.332619,0.0,0.0
3744,935.75,26.4554,26.7788,197.205,101.153,105.077,0.00110179,0.0690377,20.9459,23.5533,-0.343387,0.0,0.0
3756,938.75,26.4573,26.9606,195.984,101.273,105.323,0.00111088,0.0690593,20.9465,23.5833,-0.353766,0.0,0.0
3768,941.75,26.1867,27.3609,194.112,101.375,104.936,0.00102341,0.0691207,20.9466,23.5733,-0.311527,0.0,0.0
3780,944.75,26.2659,27.5727,194.653,101.453,105.643,0.000926931,0.0692905,20.9467,23.5332,-0.365134,0.0,0.0
3792,947.75,26.8129,27.877,196.742,101.504,105.571,0.000944119,0.0695061,20.9463,23.313,-0.354458,0.0,0.0
3804,950.75,26.5496,27.4005,192.711,101.535,105.666,0.00107255,0.0695021,20.9455,23.3431,-0.3598,0.0,0.0
3816,953.75,25.911,27.0825,199.731,101.53,105.737,0.00120714,0.0696386,20.9462,23.1929,-0.366273,0.0,0.0
3828,956.75,25.9327,27.438,191.567,101.489,105.686,0.0012645,0.0696526,20.9472,23.2329,-0.365571,0.0,0.0
3840,959.75,26.5983,27.4827,195.243,101.411,105.119,0.00121493,0.0697742,20.9462,23.2029,-0.323938,0.0,0.0
3852,962.75,26.6834,27.624,190.281,101.321,105.371,0.000940116,0.0700893,20.9455,23.2029,-0.353534,0.0,0.0
3864,965.75,26.5328,27.4828,188.824,101.198,105.507,0.00081266,0.07018,20.9453,23.0828,-0.376176,0.0,0.0
3876,968.75,26.5511,27.4965,197.699,101.054,105.149,0.0008227,0.0702104,20.9452,23.0327,-0.358377,0.0,0.0
3888,971.75,26.5257,27.6586,195.449,100.909,104.821,0.000908226,0.0704617,20.9456,23.0828,-0.343142,0.0,0.0
3900,974.75,26.1214,27.3491,196.447,100.749,105.047,0.000771765,0.0703051,20.9458,23.0528,-0.376907,0.0,0.0
3912,977.75,26.3978,27.5781,196.658,100.596,104.903,0.000669424,0.0702627,20.9458,22.9827,-0.378251,0.0,0.0
3924,980.75,26.4459,27.5727,192.106,100.452,104.677,0.000885411,0.0703265,20.9458,22.6924,-0.371658,0.0,0.0
3936,983.75,26.3616,27.4717,191.857,100.332,103.894,0.00101414,0.0704523,20.9448,22.8526,-0.314758,0.0,0.0
3948,986.75,26.465,27.4029,194.083,100.229,104.476,0.000934717,0.070192,20.9439,22.8225,-0.374404,0.0,0.0
3960,989.75,25.6952,26.5847,196.338,100.167,104.466,0.000859409,0.0703357,20.9436,22.7725,-0.379099,0.0,0.0
3972,992.75,26.8187,27.6801,194.778,100.156,104.156,0.000840094,0.0705373,20.9434,22.6824,-0.35328,0.0,0.0
3984,995.75,26.1781,26.898,190.765,100.177,104.035,0.000853974,0.0705019,20.9435,22.6724,-0.340852,0.0,0.0
3996,998.75,25.6902,26.9015,192.836,100.234,104.546,0.000858754,0.0704186,20.9446,22.6023,-0.379958,0.0,0.0
4008,1001.75,25.9908,26.9899,189.88,100.33,104.47,0.000688139,0.070444,20.9434,22.5423,-0.364753,0.0,0.0
4020,1004.75,26.4632,27.6159,197.432,100.424,104.719,0.000678191,0.0705083,20.943,22.4422,-0.377829,0.0,0.0
4032,1007.75,26.0945,27.2018,195.796,100.552,104.433,0.000785688,0.0706692,20.9442,22.272,-0.34166,0.0,0.0
4044,1010.75,26.624,27.3818,186.131,100.683,105.301,0.000864508,0.0706573,20.9449,22.3621,-0.404547,0.0,0.0
4056,1013.75,26.1926,27.2525,190.02,100.823,105.136,0.00082626,0.0707361,20.9442,22.3821,-0.37791,0.0,0.0
4068,1016.75,26.0878,26.7712,196.676,100.937,105.005,0.00076089,0.0710046,20.9446,22.302,-0.356369,0.0,0.0
4080,1019.75,26.6492,27.3643,196.402,101.079,105.412,0.000669906,0.0711466,20.9455,22.242,-0.378678,0.0,0.0
4092,1022.75,26.5075,27.6404,195.332,101.18,105.704,0.000679528,0.0712217,20.9463,22.1619,-0.394589,0.0,0.0
4104,1025.75,26.2938,27.1189,199.06,101.284,105.214,0.000831217,0.0712143,20.9466,22.1919,-0.34342,0.0,0.0
4116,1028.75,25.9691,27.0399,195.806,101.35,105.695,0.000841748,0.0712927,20.9467,22.1118,-0.378734,0.0,0.0
4128,1031.75,26.2327,27.0563,199.356,101.411,105.746,0.000806558,0.0715531,20.9463,21.9917,-0.3776,0.0,0.0
4140,1034.75,26.41,27.4073,191.449,101.457,105.804,0.00104361,0.0717165,20.9449,21.9216,-0.378557,0.0,0.0
4152,1037.75,26.6068,27.4561,195.813,101.459,105.903,0.00114266,0.0718581,20.9446,21.8816,-0.386687,0.0,0.0
4164,1040.75,26.5342,27.2463,198.124,101.445,105.772,0.00104828,0.0717679,20.9423,21.9016,-0.37682,0.0,0.0
4176,1043.75,26.4357,27.3354,190.982,101.426,105.697,0.00119873,0.0719138,20.9415,21.7215,-0.372111,0.0,0.0
4188,1046.75,26.2395,27.2598,196.484,101.352,105.459,0.00120097,0.0722305,20.9413,21.7315,-0.358321,0.0,0.0
4200,1049.75,26.3484,27.3351,193.279,101.269,105.404,0.00111032,0.0722157,20.9428,21.6714,-0.361067,0.0,0.0
4212,1052.75,26.5915,27.4576,195.394,101.174,105.52,0.0009893,0.0723972,20.9424,21.6914,-0.379408,0.0,0.0
4224,1055.75,26.6529,27.6074,188.127,101.07,105.095,0.000937771,0.0724007,20.9415,21.6814,-0.352263,0.0,0.0
4236,1058.75,26.3345,27.3304,197.341,100.97,105.425,0.000967607,0.0722929,20.9413,21.6013,-0.389533,0.0,0.0
4248,1061.75,26.5714,27.5335,188.67,100.871,105.125,0.000961642,0.0722056,20.9412,21.4712,-0.372704,0.0,0.0
4260,1064.75,26.3695,27.4308,192.392,100.778,104.856,0.000687985,0.0721385,20.9429,21.4212,-0.357857,0.0,0.0
4272,1067.75,26.2722,27.262,192.708,100.695,104.761,0.000661769,0.07205,20.944,21.291,-0.357117,0.0,0.0
4284,1070.75,26.0614,27.1291,199.89,100.8,105.014,0.000883437,0.0721121,20.9453,21.291,-0.369491,0.0,0.0
4296,1073.75,26.5754,27.5573,188.001,100.892,105.034,0.00100985,0.0720933,20.9457,21.261,-0.363005,0.0,0.0
4308,1076.75,26.4367,27.5163,190.735,100.925,105.424,0.00102112,0.0722236,20.9458,21.3311,-0.393514,0.0,0.0
4320,1079.75,26.4951,27.3399,187.859,100.95,105.131,0.000877646,0.0722948,20.9448,21.271,-0.366148,0.0,0.0
4332,1082.75,26.3915,27.4087,194.884,100.964,105.659,0.000687267,0.0722916,20.9456,21.231,-0.410025,0.0,0.0
4344,1085.75,26.7024,27.602,187.495,100.957,105.139,0.00054027,0.0723305,20.9454,21.0408,-0.366193,0.0,0.0
4356,1088.75,26.299,27.3329,194.86,100.976,105.362,0.000334695,0.0723389,20.9431,21.0708,-0.383595,0.0,0.0
4368,1091.75,26.1749,27.1159,196.316,100.945,105.327,0.000394666,0.0723178,20.9425,21.0107,-0.383307,0.0,0.0
4380,1094.75,26.5157,27.176,195.498,100.828,105.15,0.000525497,0.0723041,20.9423,20.9807,-0.37865,0.0,0.0
4392,1097.75,26.7293,27.4383,196.998,100.663,105.32,0.000517356,0.07239,20.9423,20.8906,-0.408006,0.0,0.0
4404,1100.75,26.8606,27.6778,192.772,100.652,105.051,0.000653089,0.0723872,20.9434,20.7805,-0.385901,0.0,0.0
4416,1103.75,26.6505,27.5531,197.137,100.775,104.845,0.000685255,0.0723221,20.9442,20.8005,-0.357145,0.0,0.0
4428,1106.75,26.623,27.6262,193.523,100.895,105.144,0.000703891,0.0721559,20.9445,20.7004,-0.372165,0.0,0.0
4440,1109.75,26.3458,27.3401,195.381,101.016,105.192,0.000752325,0.0721311,20.9441,20.8005,-0.365423,0.0,0.0
4452,1112.75,26.414,27.3899,192.795,101.169,105.88,0.000881336,0.0720267,20.9437,20.6504,-0.410617,0.0,0.0
4464,1115.75,26.3469,27.3854,191.902,101.279,105.626,0.00108424,0.0721132,20.9429,20.6204,-0.379076,0.0,0.0
4476,1118.75,26.2413,27.2936,196.042,101.376,105.649,0.00106404,0.072176,20.9434,20.5703,-0.372487,0.0,0.0
4488,1121.75,26.5042,27.3475,191.761,101.454,106.01,0.000973193,0.0724084,20.9435,20.5703,-0.39626,0.0,0.0
4500,1124.75,26.405,27.4419,193.605,101.487,106.634,0.000946964,0.072185,20.9435,20.4102,-0.446362,0.0,0.0
4512,1127.75,26.092,27.1688,198.645,101.488,105.698,0.000908377,0.0721882,20.9435,20.3801,-0.366729,0.0,0.0
4524,1130.75,26.5144,27.5162,192.957,101.446,106.224,0.000964213,0.0723805,20.9435,20.28,-0.415201,0.0,0.0
4536,1133.75,26.4449,27.4986,196.049,101.367,105.534,0.00111248,0.0724623,20.9432,20.29,-0.363444,0.0,0.0
4548,1136.75,26.3961,27.4041,189.985,101.252,105.93,0.00114192,0.0724897,20.943,20.24,-0.407451,0.0,0.0
4560,1139.75,26.5127,27.4962,198.527,101.12,105.568,0.00106664,0.0725889,20.9429,20.21,-0.388315,0.0,0.0
4572,1142.75,26.4874,27.701,192.428,100.957,105.718,0.00113406,0.0723791,20.9425,20.1499,-0.415723,0.0,0.0
4584,1145.75,26.4895,27.4898,195.321,100.788,105.306,0.00103804,0.072499,20.9428,20.1299,-0.395621,0.0,0.0
4596,1148.75,26.5053,27.5527,194.417,100.635,105.114,0.000824936,0.072407,20.9416,20.0998,-0.392794,0.0,0.0
4608,1151.75,26.4865,27.4441,196.434,100.488,105.323,0.000812709,0.0723423,20.9409,19.8896,-0.423948,0.0,0.0
4620,1154.75,26.3757,27.5346,199.229,100.343,104.793,0.000932557,0.0723942,20.9415,19.8997,-0.391454,0.0,0.0
4632,1157.75,26.3443,27.4728,194.111,100.236,104.941,0.00113412,0.0722783,20.9413,19.8696,-0.413856,0.0,0.0
4644,1160.75,26.5297,27.4965,199.915,100.186,104.535,0.00108323,0.0721117,20.9412,19.9397,-0.383298,0.0,0.0
4656,1163.75,26.2239,27.168,192.234,100.149,104.952,0.00100556,0.0721675,20.9412,19.7495,-0.422523,0.0,0.0
4668,1166.75,26.4473,27.2814,191.736,100.175,104.603,0.000993905,0.0722825,20.9412,19.7895,-0.390158,0.0,0.0
4680,1169.75,26.4296,27.4193,192.474,100.251,104.828,0.000948545,0.0723987,20.9426,19.7795,-0.402761,0.0,0.0
4692,1172.75,26.623,27.2315,194.819,100.318,105.212,0.000832343,0.0725888,20.9416,19.6995,-0.429791,0.0,0.0
4704,1175.75,26.396,27.4848,191.847,100.433,104.892,0.000620574,0.0727438,20.9413,19.6294,-0.391945,0.0,0.0
4716,1178.75,26.5902,27.4943,197.006,100.548,105.166,0.000580961,0.0727298,20.9409,19.6294,-0.405042,0.0,0.0
4728,1181.75,26.387,27.2211,200.379,100.705,105.612,0.00067923,0.0728382,20.9402,19.5693,-0.429267,0.0,0.0
4740,1184.75,26.6801,27.7061,198.661,100.849,105.538,0.00081372,0.0726739,20.9406,19.4192,-0.410069,0.0,0.0
4752,1187.75,26.3562,27.5532,195.823,101.008,105.394,0.000736554,0.0727853,20.9419,19.3992,-0.383426,0.0,0.0
4764,1190.75,26.6755,27.5278,196.303,101.132,105.552,0.000734047,0.0727182,20.942,19.3091,-0.385881,0.0,0.0
4776,1193.75,26.2555,27.009,197.396,101.266,105.64,0.000891081,0.0728839,20.9402,19.3091,-0.381476,0.0,0.0
4788,1196.75,26.6257,27.5604,191.803,101.356,106.251,0.000834796,0.0730725,20.9395,19.209,-0.425471,0.0,0.0
4800,1199.75,26.5835,27.3734,193.005,101.429,106.423,0.000764882,0.0731672,20.9393,19.199,-0.433649,0.0,0.0
4812,1202.75,26.4521,27.5316,190.588,101.462,106.543,0.000764266,0.0734068,20.9398,19.0989,-0.440781,0.0,0.0
4824,1205.75,24.5077,26.0799,192.941,101.467,105.922,0.000817414,0.0735596,20.9384,19.0188,-0.38762,0.0,0.0
4836,1208.75,24.5962,26.2307,191.324,101.436,106.181,0.000964407,0.0735109,20.9389,19.1189,-0.412432,0.0,0.0
4848,1211.75,24.6005,25.8952,191.418,101.37,106.232,0.000991741,0.0736513,20.9396,19.0588,-0.422697,0.0,0.0
4860,1214.75,24.8504,25.7745,189.22,101.272,106.023,0.000912142,0.0736129,20.9394,19.0088,-0.413597,0.0,0.0
4872,1217.75,24.7293,26.2007,193.272,101.164,106.132,0.000884775,0.0738228,20.9391,18.8987,-0.432509,0.0,0.0
4884,1220.75,24.764,25.9304,194.563,101.043,105.785,0.000965003,0.07364,20.9397,18.9187,-0.413732,0.0,0.0
4896,1223.75,24.7953,25.8672,193.463,100.904,105.167,0.00100674,0.0735041,20.9394,18.8386,-0.373305,0.0,0.0
4908,1226.75,25.1136,25.4688,197.535,100.795,105.11,0.0011162,0.0734758,20.9403,18.7085,-0.378155,0.0,0.0
4920,1229.75,25.1674,25.884,196.253,100.726,105.948,0.00140455,0.0735592,20.941,18.7285,-0.455955,0.0,0.0
4932,1232.75,24.7357,26.4464,195.938,100.851,105.667,0.00149802,0.0736648,20.9397,18.6084,-0.420821,0.0,0.0
4944,1235.75,24.9926,25.8099,192.042,100.917,105.596,0.00115293,0.0736895,20.9391,18.6885,-0.408877,0.0,0.0
4956,1238.75,25.4086,26.2226,194.469,100.948,106.192,0.00119466,0.0737673,20.9401,18.6584,-0.456847,0.0,0.0
4968,1241.75,25.0424,25.9115,192.286,100.939,105.381,0.00109304,0.0735735,20.9409,18.4983,-0.388514,0.0,0.0
4980,1244.75,24.8694,25.6761,198.464,100.956,105.677,0.00077145,0.0737378,20.9411,18.4883,-0.412345,0.0,0.0
4992,1247.75,24.833,25.9644,192.557,100.947,105.8,0.000750948,0.0735237,20.9412,18.4382,-0.423654,0.0,0.0
5004,1250.75,25.194,25.906,192.069,100.938,105.154,0.000988391,0.07353,20.9419,18.2981,-0.369193,0.0,0.0
5016,1253.75,24.9676,25.9404,197.13,100.938,105.611,0.000959476,0.0732245,20.9421,18.3781,-0.408278,0.0,0.0
5028,1256.75,24.9335,25.8378,195.205,100.914,105.498,0.00112415,0.0732418,20.9422,18.3081,-0.400768,0.0,0.0
5040,1259.75,25.1283,26.0659,192.215,100.847,105.835,0.00148385,0.0733541,20.9422,18.2881,-0.435603,0.0,0.0
5052,1262.75,24.7913,25.9655,198.087,100.738,105.48,0.00158881,0.073438,20.9414,18.188,-0.414963,0.0,0.0
5064,1265.75,24.78,26.3672,190.294,100.625,105.625,0.00132975,0.073543,20.9403,18.0879,-0.437524,0.0,0.0
5076,1268.75,25.0929,26.026,196.365,100.641,105.377,0.00116647,0.0737403,20.9415,17.9878,-0.414831,0.0,0.0
5088,1271.75,24.8012,25.9281,191.687,100.72,105.792,0.00104527,0.0736373,20.942,18.0278,-0.443167,0.0,0.0
5100,1274.75,24.7295,25.9205,196.097,100.804,105.562,0.000933712,0.0735616,20.9422,17.9377,-0.416073,0.0,0.0
5112,1277.75,25.2348,25.7898,189.594,100.904,105.845,0.00102379,0.0738393,20.9426,17.9177,-0.431322,0.0,0.0
5124,1280.75,25.305,25.9499,191.349,100.983,105.936,0.00101888,0.0738797,20.9427,17.9077,-0.431968,0.0,0.0
5136,1283.75,25.5136,25.7575,192.219,101.072,105.805,0.000991913,0.073897,20.9427,17.8676,-0.412842,0.0,0.0
5148,1286.75,25.04,26.0159,196.836,101.167,106.228,0.000827379,0.0738229,20.9421,17.8576,-0.440395,0.0,0.0
5160,1289.75,25.1198,25.9158,193.868,101.263,106.087,0.000858765,0.0739295,20.9407,17.7876,-0.41988,0.0,0.0
5172,1292.75,25.1665,25.8557,195.932,101.328,106.212,0.000991538,0.0739096,20.9399,17.6274,-0.424696,0.0,0.0
5184,1295.75,25.5454,25.7299,193.907,101.383,106.144,0.000960149,0.0739001,20.9391,17.6775,-0.413949,0.0,0.0
5196,1298.75,24.7303,26.0569,192.113,101.451,106.716,0.000856971,0.0737329,20.938,17.5373,-0.45648,0.0,0.0
5208,1301.75,25.1042,26.0175,196.593,101.481,106.301,0.00102846,0.0735941,20.9377,17.5673,-0.418666,0.0,0.0
5220,1304.75,25.2678,25.9783,193.257,101.479,106.008,0.00112905,0.0737195,20.9376,17.5273,-0.393871,0.0,0.0
5232,1307.75,24.8198,26.2393,198.588,101.459,106.782,0.00110745,0.0740625,20.9376,17.5373,-0.461319,0.0,0.0
5244,1310.75,24.697,25.9887,190.585,101.422,106.304,0.00112246,0.074252,20.9376,17.5473,-0.424181,0.0,0.0
5256,1313.75,24.7581,26.356,192.584,101.372,106.408,,0.0744259,,17.4372,-0.437353,0.0,0.0
5268,1316.75,24.995,25.8489,195.562,101.395,106.168,,,,17.3772,-0.414955,0.0,0.0
5280,1319.75,24.4831,26.4317,190.396,101.37,106.297,,,,17.257,-0.428119,0.0,0.0
5290,1322.25,25.6273,25.6242,195.745,101.306,106.554,,,,17.0869,-0.45561,0.0,0.0