File: 01_Data/PMMA/Cone/PMMA_Cone_HF50Scan_210826_R1.csv
Names,Time,Stack TC,Smoke TC,Exh Press,Smoke Comp,Smoke Meas,CO Meter,CO2 Meter,O2 Meter,Sample Mass,Ext Coeff,Start Test,Flame Verif
Chan Gain,,500,500,1,1,1,1,1,1,1,1,1.0,1.0
Offset,,0,0,0.141443,0,0,0,0,0,0,0,0.0,0.0
Gain,,1,1,25.011,13.1742,16.6938,1,1,1,1.00099,1.02845,1.0,1.0
Units,sec,C,C,Pa,%,%,%,%,%,g,/m,,
Baseline,,36.9075,39.4061,168.196,101.448,111.068,0.00156766,0.0629051,20.9665,-506.026,-0.817357,,
3,0.5,35.8795,37.9953,170.672,101.315,111.134,0.00155955,0.0639747,20.9666,33.2829,-0.834534,0.0,0.0
6,1.25,34.5524,35.8868,173.768,101.358,110.915,0.0015629,0.0639809,20.9665,32.9826,-0.812897,0.0,0.0
9,2,34.1337,36.0747,167.393,101.393,111.05,0.00158887,0.0639391,20.9664,33.1027,-0.820759,0.0,0.0
12,2.75,34.3082,36.2973,170.799,101.428,110.928,0.0016078,0.0638707,20.9663,33.2628,-0.807715,0.0,0.0
15,3.5,34.6689,36.136,167.03,101.461,110.821,0.00162488,0.0638007,20.9662,33.1828,-0.796114,0.0,0.0
18,4.25,34.6845,36.7185,170.153,101.504,111.096,0.00165413,0.0637418,20.966,33.0827,-0.814621,0.0,0.0
21,5,34.6921,36.6975,169.519,101.551,110.914,0.00167545,0.0636854,20.9658,33.0426,-0.795624,0.0,0.0
24,5.75,34.4777,36.2972,168.112,101.571,110.988,0.00168459,0.0636443,20.9657,33.2328,-0.799839,0.0,0.0
27,6.5,34.7654,36.4895,168.811,101.605,111.234,0.00168449,0.0636232,20.9656,32.9826,-0.81686,0.0,0.0
30,7.25,35.2595,36.596,163.686,101.655,111.202,0.00167482,0.063613,20.9655,32.8925,-0.809833,0.0,0.0
33,8,34.9428,36.6966,168.711,101.68,111.56,0.00166316,0.0636116,20.9655,33.0927,-0.83663,0.0,0.0
36,8.75,34.7091,36.767,171.89,101.714,111.108,0.00165284,0.0636106,20.9654,33.1327,-0.796981,0.0,0.0
39,9.5,34.9362,37.4998,162.325,101.744,111.667,0.00164532,0.0635697,20.9654,33.1628,-0.839494,0.0,0.0
42,10.25,35.1718,37.1231,170.294,101.773,111.979,0.00164895,0.0635117,20.9654,32.9826,-0.862123,0.0,0.0
45,11,35.1116,37.2955,168.96,101.803,111.872,0.00166056,0.0634574,20.9654,33.1027,-0.850863,0.0,0.0
48,11.75,35.1601,37.4513,164.387,101.812,111.234,0.00167283,0.0634178,20.9654,33.1527,-0.798419,0.0,0.0
51,12.5,35.0396,37.6252,167.463,101.827,111.91,0.00168178,0.0634031,20.9653,33.2028,-0.851841,0.0,0.0
54,13.25,35.3422,37.897,168.315,101.869,111.607,0.00167919,0.0633983,20.9659,33.1828,-0.823633,0.0,0.0
57,14,35.5244,37.9281,168.929,101.875,111.016,0.00166787,0.0634751,20.9665,33.1928,-0.775161,0.0,0.0
60,14.75,35.6696,37.7937,166.387,101.879,111.196,0.00163543,0.0635312,20.967,32.9726,-0.78949,0.0,0.0
63,15.5,35.4405,38.1102,169.331,101.876,111.461,0.00159798,0.0638536,20.9667,33.1527,-0.811165,0.0,0.0
66,16.25,35.628,37.9501,168.427,101.887,111.578,0.00156173,0.0642755,20.9665,33.2128,-0.819642,0.0,0.0
69,17,35.5642,37.8755,168.167,101.892,111.963,0.0015315,0.0646972,20.9664,33.1027,-0.850266,0.0,0.0
72,17.75,35.8547,38.0448,162.169,101.891,111.565,0.00150945,0.0649764,20.9663,33.2428,-0.818256,0.0,0.0
75,18.5,36.0317,38.3848,166.69,101.868,111.789,0.00149876,0.0651235,20.9662,33.2428,-0.838394,0.0,0.0
78,19.25,36.0384,38.2402,166.214,101.868,111.194,0.00150017,0.0651546,20.9661,33.2028,-0.79028,0.0,0.0
81,20,35.7305,38.4265,167.676,101.861,111.671,0.00152673,0.0651069,20.9661,33.1327,-0.829491,0.0,0.0
84,20.75,35.6798,38.0649,167.661,101.836,111.196,0.00156271,0.065042,20.9661,33.1227,-0.793294,0.0,0.0
87,21.5,35.8821,38.1853,164.175,101.809,111.659,0.00161138,0.0648943,20.966,33.1527,-0.833133,0.0,0.0
90,22.25,35.6937,38.503,166.64,101.787,111.33,0.00164085,0.0646881,20.966,33.2028,-0.808433,0.0,0.0
93,23,36.1039,38.3417,168.099,101.764,111.217,0.00169665,0.0644587,20.966,33.1427,-0.801408,0.0,0.0
96,23.75,35.9525,38.147,165.766,101.727,111.78,0.00174661,0.0642281,20.966,32.9525,-0.85016,0.0,0.0
99,24.5,35.7057,39.1423,164.242,101.693,111.645,0.00180737,0.06406,20.966,32.9826,-0.842323,0.0,0.0
102,25.25,36.4653,38.8218,163.931,101.661,111.521,0.00186743,0.0639815,20.966,32.9926,-0.835175,0.0,0.0
105,26,36.2278,39.2075,167.528,101.633,110.999,0.00192044,0.0639003,20.966,32.9626,-0.79533,0.0,0.0
108,26.75,36.3683,39.4912,169.475,101.584,111.135,0.00196274,0.0638129,20.966,33.0927,-0.810663,0.0,0.0
111,27.5,36.0788,39.3936,169.891,101.545,110.834,0.0020064,0.0637372,20.9641,33.1227,-0.789688,0.0,0.0
114,28.25,36.5594,38.5087,167.417,101.504,110.971,0.00205854,0.065445,20.9596,33.1728,-0.804403,0.0,0.0
117,29,36.2148,38.8283,172.264,101.457,111.585,0.00212195,0.0701791,20.9445,33.1027,-0.858431,0.0,0.0
120,29.75,36.3921,38.9359,165.087,101.42,111.437,0.00222494,0.0783118,20.922,32.9726,-0.849763,0.0,1.0
123,30.5,36.7264,39.2936,166.812,101.383,110.836,0.00230002,0.0956127,20.9008,32.8725,-0.80426,0.0,1.0
126,31.25,36.7126,39.8635,163.743,101.317,110.674,0.00248865,0.118372,20.8713,32.7323,-0.796927,0.0,1.0
129,32,37.1104,40.1047,157.23,101.265,109.684,0.00271512,0.145782,20.8438,32.7824,-0.720501,0.0,1.0
132,32.75,37.6896,41.0913,159.751,101.222,108.823,0.00291813,0.176863,20.7999,32.6723,-0.653275,0.0,1.0
135,33.5,38.3356,41.886,151.075,101.174,107.14,0.00323205,0.224531,20.7465,32.7624,-0.516908,0.0,1.0
138,34.25,38.3635,43.1709,148.756,101.13,106.322,0.00353995,0.259281,20.6984,32.7423,-0.451667,0.0,1.0
141,35,37.6902,42.3078,144.778,101.072,106.493,0.0037981,0.313876,20.6357,32.7023,-0.47133,0.0,0.0
144,35.75,39.1697,44.2396,142.341,101.03,104.656,0.0040588,0.361377,20.5782,32.5321,-0.31812,0.0,0.0
147,36.5,40.2922,46.2153,141.818,100.987,104.774,0.00437281,0.414406,20.5123,32.3119,-0.332146,0.0,0.0
150,37.25,41.2694,48.2771,141.74,100.939,104.301,0.00472813,0.462013,20.452,32.2819,-0.29554,0.0,0.0
153,38,42.7694,50.4555,143.932,100.902,104.536,0.00498716,0.496718,20.4028,32.2318,-0.319218,0.0,0.0
156,38.75,43.9833,52.3722,146.148,100.857,103.042,0.00535307,0.544119,20.3503,32.0917,-0.193326,0.0,0.0
159,39.5,45.1087,54.7471,139.115,100.827,102.499,0.00565981,0.585092,20.3049,31.9816,-0.148305,0.0,0.0
162,40.25,46.8544,56.4196,133.299,100.795,101.457,0.00595181,0.625936,20.2417,31.8114,-0.0590523,0.0,0.0
165,41,48.16,59.0827,141.953,100.744,101.687,0.00625454,0.666794,20.1788,31.7213,-0.0840762,0.0,0.0
168,41.75,49.2424,60.8078,134.631,100.724,100.804,0.00656147,0.701304,20.1248,31.5912,-0.00716965,0.0,0.0
171,42.5,51.0779,63.2811,135.28,100.695,100.83,0.00682195,0.742255,20.0717,31.4811,-0.0120876,0.0,0.0
174,43.25,52.4093,65.0862,125.679,100.668,100.808,0.00707465,0.77898,20.0192,31.351,-0.0124957,0.0,0.0
177,44,53.6485,67.7922,130.247,100.65,100.273,0.00734858,0.811639,19.9769,31.1808,0.0338722,0.0,0.0
180,44.75,55.3552,69.5403,124.397,100.619,98.9899,0.00758652,0.840504,19.9395,30.9806,0.147302,0.0,0.0
183,45.5,56.6694,71.8561,133.059,100.609,99.2706,0.00786369,0.869718,19.9042,30.8805,0.120854,0.0,0.0
186,46.25,57.6172,73.8529,131.715,100.596,98.8875,0.00808804,0.895075,19.8752,30.35,0.154548,0.0,0.0
189,47,59.3107,76.1918,129.391,100.578,95.7162,0.00828972,0.920503,19.8402,30.4901,0.446953,0.0,0.0
192,47.75,60.2278,78.0608,140.576,100.588,99.641,0.00849913,0.945053,19.8078,30.36,0.0853461,0.0,0.0
195,48.5,61.772,80.0866,130.186,100.604,97.7754,0.00871283,0.965514,19.7811,30.2098,0.257268,0.0,0.0
198,49.25,63.0692,81.5998,131.715,100.594,98.3801,0.00889464,0.987889,19.751,30.1498,0.200778,0.0,0.0
201,50,63.8655,83.8028,140.323,100.606,97.9277,0.00917703,1.00926,19.7128,29.9095,0.24344,0.0,0.0
204,50.75,65.2654,85.2393,132.782,100.625,97.3688,0.00948821,1.0335,19.6704,29.7794,0.296732,0.0,0.0
207,51.5,66.3001,86.8525,131.783,100.653,97.1182,0.00975997,1.06788,19.6265,29.6192,0.322509,0.0,0.0
210,52.25,67.4296,89.0856,120.155,100.673,97.2685,0.0100797,1.10518,19.5864,29.349,0.310396,0.0,0.0
213,53,68.7953,91.2373,132.011,100.679,96.7147,0.0103958,1.14368,19.5434,29.1588,0.362446,0.0,0.0
216,53.75,70.383,93.4889,124.228,100.719,96.6189,0.0106792,1.18215,19.4984,29.0587,0.374949,0.0,0.0
219,54.5,71.8484,95.7962,119.03,100.771,96.6775,0.0109314,1.22257,19.4522,28.7684,0.374161,0.0,0.0
222,55.25,73.4428,98.236,127.034,100.784,96.4182,0.0111546,1.25731,19.4055,28.6183,0.399471,0.0,0.0
225,56,75.186,100.558,121.488,100.814,97.0392,0.0113511,1.29458,19.3495,28.4481,0.344285,0.0,0.0
228,56.75,76.7383,103.193,123.881,100.859,95.1344,0.0115548,1.33151,19.3025,28.2979,0.527201,0.0,0.0
231,57.5,78.1698,105.569,117.337,100.907,93.4399,0.0117625,1.3664,19.2575,27.9276,0.693611,0.0,0.0
234,58.25,79.2009,107.671,120.511,100.952,93.5867,0.0119708,1.40078,19.2185,28.0077,0.683444,0.0,0.0
237,59,80.838,109.647,114.573,101.003,92.3273,0.0121227,1.43409,19.1794,27.6573,0.810267,0.0,0.0
240,59.75,82.0098,111.415,120.695,101.048,94.4125,0.0123045,1.46594,19.1457,27.307,0.612804,0.0,0.0
243,60.5,82.9593,113.67,122.362,101.103,93.7308,0.0125585,1.50092,19.1123,27.2669,0.68302,0.0,0.0
246,61.25,84.5316,115.916,118.341,101.157,94.7966,0.0128189,1.52643,19.0788,26.9766,0.585896,0.0,0.0
249,62,86.1839,117.208,117.045,101.201,93.6646,0.0130453,1.55176,19.0446,26.5863,0.698182,0.0,0.0
252,62.75,86.8447,119.075,128.427,101.258,92.2478,0.013246,1.58175,19.0098,26.5662,0.840738,0.0,0.0
255,63.5,88.2673,121.658,127.347,101.322,92.4867,0.0134264,1.60943,18.9757,26.336,0.823095,0.0,0.0
258,64.25,89.7154,123.652,124.29,101.387,93.4226,0.0136326,1.63115,18.9482,26.0257,0.738062,0.0,0.0
261,65,91.2158,125.536,121.688,101.444,94.416,0.0138929,1.64538,18.9239,25.6353,0.647716,0.0,0.0
264,65.75,92.335,127.2,120.078,101.47,91.7353,0.0142164,1.66043,18.8987,25.5853,0.909858,0.0,0.0
267,66.5,93.109,127.537,114.024,101.53,91.691,0.0145738,1.68588,18.8683,25.355,0.919577,0.0,0.0
270,67.25,93.9194,129.083,105.068,101.588,89.211,0.0150424,1.7106,18.8258,25.2049,1.17213,0.0,0.0
273,68,95.1256,130.941,122.499,101.631,89.0199,0.0156544,1.7639,18.7658,24.8646,1.19525,0.0,0.0
276,68.75,96.3328,133.597,100.739,101.69,89.9537,0.0162455,1.81128,18.7015,24.5643,1.10632,0.0,0.0
279,69.5,97.4342,135.638,107.367,101.728,89.6104,0.0167381,1.86037,18.6403,24.3741,1.14424,0.0,0.0
282,70.25,99.2998,137.964,121.538,101.768,91.665,0.0172828,1.90486,18.5845,24.1238,0.943223,0.0,0.0
285,71,100.737,140.955,111.418,101.801,92.0216,0.0177993,1.94177,18.5421,23.7935,0.911186,0.0,0.0
288,71.75,102.515,142.896,119.642,101.829,92.4597,0.0182802,1.96998,18.5085,23.6934,0.870757,0.0,0.0
291,72.5,103.888,144.917,107.041,101.854,91.2707,0.0187222,1.99689,18.4671,23.5232,0.989738,0.0,0.0
294,73.25,104.863,146.451,112.604,101.88,91.5937,0.0191046,2.02447,18.4307,23.2029,0.960219,0.0,0.0
297,74,106.058,148.398,106.068,101.904,92.7557,0.0195202,2.05357,18.3934,22.9527,0.848616,0.0,0.0
300,74.75,107.938,151.084,110.193,101.926,91.9126,0.0198811,2.08771,18.3513,22.6324,0.932884,0.0,0.0
303,75.5,109.4,153.674,124.466,101.938,91.9961,0.0202308,2.1164,18.3175,22.4021,0.925754,0.0,0.0
306,76.25,110.718,155.589,107.259,101.951,93.4985,0.0205677,2.14383,18.2878,22.0818,0.780753,0.0,0.0
309,77,112.616,157.702,104.622,101.963,90.5401,0.0208903,2.16486,18.2653,21.8215,1.07189,0.0,0.0
312,77.75,113.988,160.092,109.652,101.956,91.1229,0.0212522,2.1795,18.2482,21.5313,1.01343,0.0,0.0
315,78.5,115.081,161.771,102.588,101.966,90.3261,0.0216271,2.18901,18.2345,21.1809,1.09355,0.0,0.0
318,79.25,116.283,163.104,112.529,101.946,90.3491,0.0219982,2.20077,18.2158,20.9307,1.08948,0.0,0.0
321,80,116.892,164.828,110.981,101.938,90.2935,0.0223536,2.21285,18.2022,20.9407,1.09428,0.0,0.0
324,80.75,118.17,166.489,117.4,101.939,89.2293,0.0227578,2.22768,18.1797,20.3801,1.20139,0.0,0.0
327,81.5,119.551,168.603,111.602,101.911,90.131,0.0232591,2.25149,18.1633,20.1899,1.10818,0.0,0.0
330,82.25,120.423,169.409,101.844,101.894,90.7862,0.0236246,2.28375,18.1257,19.9597,1.04128,0.0,0.0
333,83,121.573,171.463,114.767,101.878,90.5111,0.0242164,2.32327,18.0881,19.6594,1.0673,0.0,0.0
336,83.75,122.835,173.547,101.171,101.855,90.4362,0.024781,2.36802,18.0336,19.5493,1.07274,0.0,0.0
339,84.5,124.255,176.008,105.66,101.803,90.1881,0.0253166,2.40744,17.9772,19.0588,1.09286,0.0,0.0
342,85.25,125.714,177.743,98.2222,101.781,90.8422,0.0258221,2.44071,17.9296,18.6985,1.02574,0.0,0.0
345,86,127.036,180.227,95.7958,101.753,89.7851,0.0262818,2.47269,17.8878,18.3882,1.12888,0.0,0.0
348,86.75,128.895,182.805,108.897,101.717,88.6709,0.0267727,2.50148,17.8503,17.9878,1.23832,0.0,0.0
351,87.5,129.647,184.533,121.231,101.672,90.8295,0.0273549,2.53217,17.8154,17.7675,1.01731,0.0,0.0
354,88.25,130.629,185.93,107.637,101.619,89.6343,0.027875,2.55869,17.7771,17.5874,1.13217,0.0,0.0
357,89,131.658,186.504,117.587,101.6,88.0178,0.0284968,2.60965,17.7184,17.3171,1.2946,0.0,0.0
360,89.75,132.716,187.806,105.096,101.555,87.4696,0.0290696,2.66245,17.6454,17.0669,1.347,0.0,0.0
363,90.5,134.237,190.776,107.11,101.507,89.293,0.0295382,2.7277,17.5629,16.4563,1.15659,0.0,0.0
366,91.25,135.13,192.741,114.721,101.455,90.4581,0.0300571,2.80025,17.4782,16.4362,1.03499,0.0,0.0
369,92,137.61,196.155,90.8589,101.426,89.7556,0.0305718,2.8638,17.3867,16.206,1.10278,0.0,0.0
372,92.75,139.214,198.711,97.0254,101.375,91.3955,0.0311243,2.92943,17.3078,15.8356,0.934861,0.0,0.0
375,93.5,140.891,201.519,87.7684,101.328,89.862,0.0315779,2.98749,17.2436,15.4953,1.08336,0.0,0.0
378,94.25,142.684,204.538,103.986,101.295,91.0414,0.032028,3.03608,17.1967,15.0449,0.962828,0.0,0.0
381,95,144.728,208.061,89.8117,101.252,90.4122,0.0325075,3.07477,17.1534,14.7846,1.02152,0.0,0.0
384,95.75,146.268,210.818,83.2658,101.223,91.7587,0.0326807,3.0978,17.1377,14.5644,0.885543,0.0,0.0
387,96.5,147.651,213.573,100.353,101.225,89.751,0.0327831,3.10635,17.1233,14.2941,1.08535,0.0,0.0
390,97.25,148.746,215.202,109.561,101.278,91.5977,0.0327403,3.10907,17.1191,13.9438,0.906328,0.0,0.0
393,98,150.791,217.774,97.891,101.345,90.048,0.0325794,3.08669,17.1302,13.3632,1.06625,0.0,0.0
396,98.75,152.006,219.803,97.2841,101.375,90.319,0.0323198,3.07624,17.142,13.2431,1.04175,0.0,0.0
399,99.5,153.389,220.888,90.8352,101.395,89.1412,0.0320314,3.06116,17.1569,12.9928,1.16204,0.0,0.0
402,100.25,153.704,221.76,94.4478,101.416,89.9863,0.0317553,3.05787,17.1716,12.7025,1.07876,0.0,0.0
405,101,154.227,223.216,91.2978,101.429,91.4337,0.031518,3.0553,17.1822,12.3222,0.935919,0.0,0.0
408,101.75,155.509,224.73,87.4463,101.452,92.9616,0.031257,3.05314,17.19,12.0719,0.788489,0.0,0.0
411,102.5,156.927,226.268,114.541,101.45,92.4358,0.0310222,3.04067,17.2051,11.7216,0.839478,0.0,0.0
414,103.25,158.016,227.724,102.463,101.432,90.6328,0.0308233,3.02664,17.2214,11.151,1.01561,0.0,0.0
417,104,158.776,228.558,95.3752,101.411,88.2695,0.0306787,3.00796,17.2424,10.7306,1.25205,0.0,0.0
420,104.75,158.918,229.43,98.4703,101.409,88.2124,0.0305944,2.98392,17.2576,10.5404,1.25777,0.0,0.0
423,105.5,160.141,229.734,97.359,101.407,89.5059,0.0305329,2.96222,17.2688,10.4203,1.12619,0.0,0.0
426,106.25,160.337,229.636,110.187,101.397,88.865,0.03069,2.94685,17.2776,10.15,1.19013,0.0,0.0
429,107,160.829,229.39,87.6951,101.379,89.6674,0.0308909,2.94719,17.2818,9.83972,1.1075,0.0,0.0
432,107.75,160.819,229.876,92.5511,101.36,90.0531,0.0310742,2.94745,17.2806,9.64953,1.0671,0.0,0.0
435,108.5,161.525,230.633,92.0572,101.343,90.9451,0.0311991,2.96073,17.2796,9.22911,0.976598,0.0,0.0
438,109.25,162.551,231.956,103.657,101.319,89.2762,0.0312578,2.97042,17.2789,8.91881,1.14155,0.0,0.0
441,110,163.599,233.246,110.032,101.313,90.7587,0.0312519,2.97532,17.2784,8.62852,0.992465,0.0,0.0
444,110.75,164.21,234.154,100.201,101.303,89.133,0.0312059,2.97656,17.2781,8.28818,1.15463,0.0,0.0
447,111.5,164.811,234.671,99.9243,101.274,90.1484,0.0311533,2.97647,17.2822,7.97788,1.04983,0.0,0.0
450,112.25,165.196,235.036,96.4072,101.23,88.756,0.0310869,2.96942,17.2927,7.58749,1.18638,0.0,0.0
453,113,165.589,235.294,111.615,101.165,88.6944,0.0310043,2.95804,17.3129,7.44735,1.18684,0.0,0.0
456,113.75,166.651,235.654,101.046,101.128,86.3147,0.0308192,2.94412,17.3298,6.90682,1.42886,0.0,0.0
459,114.5,166.428,235.535,98.855,101.073,85.7436,0.0305863,2.92871,17.3431,6.72664,1.48384,0.0,0.0
462,115.25,167.113,235.682,107.955,100.993,87.9363,0.030249,2.91613,17.3553,6.31624,1.24896,0.0,0.0
465,116,167.076,235.772,98.7428,100.973,88.5884,0.0297592,2.90246,17.3712,6.28621,1.18048,0.0,0.0
468,116.75,167.336,236.16,88.8164,101.015,89.9385,0.0292967,2.89082,17.3858,5.92585,1.0478,0.0,0.0
471,117.5,167.71,236.225,98.9321,101.066,86.6489,0.028779,2.87175,17.409,5.60554,1.38847,0.0,0.0
474,118.25,167.66,235.935,95.9332,101.103,89.2094,0.028168,2.84535,17.4456,5.24518,1.12908,0.0,0.0
477,119,168.442,235.602,96.1324,101.149,88.9094,0.0275365,2.82078,17.4807,5.1651,1.16353,0.0,0.0
480,119.75,168.571,235.889,108.111,101.221,88.9822,0.0269969,2.77537,17.5421,4.79473,1.16263,0.0,0.0
483,120.5,168.759,235.261,110.98,101.269,88.1656,0.026244,2.71947,17.6144,4.5545,1.25007,0.0,0.0
486,121.25,168.965,234.992,103.464,101.325,90.021,0.0255009,2.669,17.679,3.99394,1.06717,0.0,0.0
489,122,167.81,233.19,102.372,101.372,87.7819,0.0246271,2.60124,17.7655,3.80376,1.29858,0.0,0.0
492,122.75,167.727,232.018,97.1048,101.432,89.4188,0.0237444,2.52323,17.8468,3.65361,1.13727,0.0,0.0
495,123.5,166.939,229.982,110.034,101.486,89.9726,0.0229013,2.45417,17.9373,3.53349,1.08636,0.0,0.0
498,124.25,165.627,227.382,114.931,101.539,90.4316,0.0221244,2.37058,18.0334,3.20316,1.0451,0.0,0.0
501,125,164.921,225.745,113.116,101.583,92.5183,0.0213933,2.30554,18.1091,2.95292,0.843252,0.0,0.0
504,125.75,163.991,223.532,115.905,101.633,91.879,0.0207617,2.25111,18.1698,2.78275,0.910241,0.0,0.0
507,126.5,163.093,221.841,100.765,101.669,90.425,0.0202593,2.20823,18.2191,2.6326,1.05736,0.0,0.0
510,127.25,162.554,221.067,113.353,101.719,90.7908,0.0197369,2.16708,18.2551,2.34231,1.0254,0.0,0.0
513,128,162.338,219.797,103.249,101.75,91.9406,0.019356,2.12415,18.307,2.10208,0.914569,0.0,0.0
516,128.75,162.082,218.805,112.599,101.777,91.8779,0.0189217,2.07796,18.3448,2.07205,0.923073,0.0,0.0
519,129.5,161.534,216.889,116.207,101.808,93.2682,0.018337,2.02497,18.4019,1.87185,0.790324,0.0,0.0
522,130.25,160.459,215.444,107.88,101.835,93.4664,0.017712,1.97809,18.4568,1.71169,0.773634,0.0,0.0
525,131,159.664,213.828,113.277,101.849,95.1405,0.0170897,1.94393,18.5198,1.39137,0.614726,0.0,0.0
528,131.75,158.971,212.076,106.856,101.855,94.9301,0.016496,1.86915,18.609,1.37135,0.635234,0.0,0.0
531,132.5,158.13,210.161,115.149,101.877,94.3656,0.0158615,1.80382,18.7108,1.17116,0.690926,0.0,0.0
534,133.25,157.077,208.187,115.547,101.876,96.1227,0.0152755,1.73767,18.8135,1.10109,0.524452,0.0,0.0
537,134,156.462,206.049,117.267,101.87,96.0825,0.0149392,1.66356,18.8813,0.940929,0.52766,0.0,0.0
540,134.75,154.719,203.549,119.708,101.842,98.1386,0.0143617,1.59444,18.9788,0.670662,0.334215,0.0,0.0
543,135.5,154.383,201.753,121.977,101.838,95.3524,0.0138329,1.53761,19.0582,0.650643,0.59362,0.0,0.0
546,136.25,153.137,199.879,126.993,101.82,96.7473,0.0132634,1.47212,19.1449,0.450445,0.461071,0.0,0.0
549,137,151.597,197.124,123.936,101.796,97.915,0.0125921,1.42172,19.2205,0.370366,0.350701,0.0,0.0
552,137.75,150.948,195.265,120.278,101.751,97.702,0.0119925,1.36349,19.297,0.130129,0.366317,0.0,0.0
555,138.5,149.813,192.495,123.114,101.723,97.8401,0.0113671,1.28437,19.3935,0.090089,0.351082,0.0,0.0
558,139.25,148.265,189.742,127.546,101.676,98.8992,0.0107085,1.21212,19.5047,-0.160158,0.249772,0.0,0.0
561,140,147.088,187.253,131.566,101.626,101.087,0.0101066,1.1345,19.6031,-0.160158,0.0479718,0.0,0.0
564,140.75,145.104,183.954,135.361,101.571,100.689,0.00961598,1.04651,19.7175,-0.280277,0.078696,0.0,0.0
567,141.5,143.419,180.883,141.011,101.524,99.427,0.00905889,0.969496,19.8329,-0.380376,0.188262,0.0,0.0
570,142.25,141.586,177.391,139.728,101.464,99.7658,0.00865277,0.891348,19.9307,-0.340336,0.152284,0.0,0.0
573,143,139.768,174.138,140.157,101.401,101.774,0.00811685,0.807822,20.0261,-0.430425,-0.033092,0.0,0.0
576,143.75,137.383,170.134,138.885,101.34,104.055,0.00760704,0.736605,20.1201,-0.300297,-0.238521,0.0,0.0
579,144.5,135.671,167.392,148.301,101.265,104.009,0.0071173,0.667029,20.2127,-0.360356,-0.241152,0.0,0.0
582,145.25,133.234,163.677,148.824,101.213,104.288,0.00664518,0.589404,20.3084,-0.420415,-0.269957,0.0,0.0
585,146,131.21,159.924,143.915,101.137,106.226,0.00611365,0.524608,20.4015,-0.500494,-0.442919,0.0,0.0
588,146.75,129.457,156.349,151.593,101.06,106.623,0.00560172,0.463335,20.4857,-0.510504,-0.483449,0.0,0.0
591,147.5,127.153,152.863,151.403,101.003,108.608,0.00511153,0.404691,20.5581,-0.400395,-0.654942,0.0,0.0
594,148.25,125.113,149.515,152.97,100.944,108.413,0.00464487,0.354427,20.6198,-0.350346,-0.644007,0.0,0.0
597,149,123.289,146.295,154.766,100.89,108.676,0.00423689,0.314582,20.6684,-0.280277,-0.670594,0.0,0.0
600,149.75,120.95,142.798,157.836,100.816,108.521,0.00382355,0.278162,20.7126,-0.410405,-0.664417,0.0,0.0
603,150.5,118.863,140.197,153.538,100.766,108.795,0.0034734,0.245485,20.7449,-0.370366,-0.691678,0.0,0.0
606,151.25,117.051,136.952,154.97,100.723,109.357,0.00319732,0.221664,20.7716,-0.370366,-0.741929,0.0,0.0
609,152,115.475,134.198,153.215,100.678,109.775,0.00296567,0.197189,20.7967,-0.400395,-0.780403,0.0,0.0
612,152.75,113.799,131.382,153.712,100.648,109.253,0.00274483,0.177536,20.8195,-0.320316,-0.740123,0.0,0.0
615,153.5,110.978,127.285,152.448,100.624,109.946,0.00255458,0.160114,20.841,-0.300297,-0.799323,0.0,0.0
618,154.25,109.221,125.073,157.494,100.606,109.707,0.00239539,0.147413,20.8601,-0.300297,-0.781277,0.0,0.0
621,155,107.494,122.288,158.058,100.603,109.779,0.00226319,0.133963,20.8764,-0.350346,-0.787471,0.0,0.0
624,155.75,106.323,119.211,154.774,100.595,109.804,0.00215414,0.123188,20.8914,-0.440435,-0.790285,0.0,0.0
627,156.5,104.657,117.39,151.086,100.6,110.001,0.00207532,0.114567,20.9024,-0.560554,-0.805922,0.0,0.0
630,157.25,103.262,115.776,156.36,100.61,109.892,0.002019,0.10768,20.9116,-0.340336,-0.796111,0.0,0.0
633,158,101.636,113.391,155.628,100.64,110.294,0.00199987,0.101848,20.9188,-0.310306,-0.82631,0.0,0.0
636,158.75,100.506,111.465,157.165,100.665,109.893,0.00198801,0.0973056,20.9247,-0.430425,-0.791258,0.0,0.0
639,159.5,99.5317,109.116,156.623,100.69,109.969,0.00198294,0.0934954,20.9297,-0.370366,-0.795259,0.0,0.0
642,160.25,98.7001,107.912,157.901,100.743,110.053,0.00196097,0.0902497,20.9345,-0.440435,-0.797357,0.0,0.0
645,161,96.7895,105.712,158.111,100.798,109.973,0.00192319,0.0875573,20.9384,-0.430425,-0.785939,0.0,0.0
648,161.75,95.7047,104.015,157.841,100.84,109.779,0.00188638,0.0853776,20.9412,-0.600593,-0.76623,0.0,0.0
651,162.5,94.8509,102.266,158.961,100.911,110.226,0.00183216,0.0835346,20.9442,-0.590583,-0.796585,0.0,0.0
654,163.25,93.7371,100.519,155.346,100.972,110.419,0.00178725,0.0819636,20.9467,-0.450445,-0.80683,0.0,0.0
657,164,92.8633,99.5619,156.526,101.027,110.478,0.0017453,0.0806144,20.9485,-0.450445,-0.806773,0.0,0.0
660,164.75,91.7369,97.528,156.234,101.116,110.157,0.00171107,0.0794045,20.9499,-0.490484,-0.772637,0.0,0.0
663,165.5,90.7711,96.2123,158.803,101.165,110.525,0.00168356,0.0784259,20.9511,-0.480474,-0.798335,0.0,0.0
666,166.25,89.8555,94.9036,156.033,101.229,110.734,0.00166174,0.0774099,20.9524,-0.500494,-0.809597,0.0,0.0
669,167,88.8008,93.6143,151.397,101.307,110.703,0.00164469,0.0764572,20.9539,-0.440435,-0.800117,0.0,0.0
672,167.75,88.1472,92.1718,153.123,101.368,110.912,0.0016359,0.075583,20.955,-0.450445,-0.811719,0.0,0.0
675,168.5,87.3577,91.2247,157.552,101.426,110.779,0.00163589,0.0747931,20.9559,-0.280277,-0.795751,0.0,0.0
678,169.25,86.7335,89.9371,157.993,101.488,110.778,0.00163861,0.0739957,20.9565,-0.230227,-0.790157,0.0,0.0
681,170,86.3505,89.2693,154.666,101.547,111.083,0.00164658,0.0733623,20.9569,-0.270267,-0.809758,0.0,0.0
684,170.75,85.276,87.91,155.499,101.598,111.413,0.00166265,0.0728116,20.9572,-0.350346,-0.832036,0.0,0.0
687,171.5,84.7421,87.2161,159.355,101.659,111.35,0.00166706,0.072249,20.9577,-0.260257,-0.821453,0.0,0.0
690,172.25,84.0069,86.0936,155.227,101.715,110.937,0.00166489,0.0717938,20.9582,-0.300297,-0.782929,0.0,0.0
693,173,83.2464,84.9063,153.565,101.757,111.01,0.0016541,0.0713849,20.9586,-0.460455,-0.785143,0.0,0.0
696,173.75,82.8981,84.4847,151.478,101.796,111.655,0.00162982,0.0710021,20.9589,-0.490484,-0.83395,0.0,0.0
699,174.5,82.6329,83.4776,154.079,101.855,111.337,0.00161212,0.070687,20.959,-0.470465,-0.803021,0.0,0.0
702,175.25,81.5907,82.4251,159.26,101.882,111.098,0.0015901,0.0702962,20.9591,-0.410405,-0.781218,0.0,0.0
705,176,81.1873,81.8736,159.019,101.916,110.966,0.00158556,0.0698985,20.9594,-0.460455,-0.767436,0.0,0.0
708,176.75,80.5045,80.6307,155.511,101.945,111.481,0.00158715,0.0695605,20.96,-0.530524,-0.806652,0.0,0.0
711,177.5,79.4818,80.4189,156.59,101.971,111.787,0.0016011,0.0692843,20.9604,-0.410405,-0.829153,0.0,0.0
714,178.25,79.5034,79.1852,155.044,101.974,111.774,0.00161941,0.0689952,20.9607,-0.470465,-0.827806,0.0,0.0
717,179,78.9732,78.4921,158.644,101.994,111.9,0.00163736,0.0687209,20.9609,-0.540534,-0.836291,0.0,0.0
720,179.75,78.9952,78.234,157.558,101.991,112.076,0.00166849,0.0684645,20.9611,-0.620613,-0.850657,0.0,0.0
723,180.5,77.4314,77.1526,155.304,101.991,111.142,0.00171504,0.0682536,20.9612,-0.480474,-0.775215,0.0,0.0
726,181.25,77.4066,76.2123,159.328,101.977,111.142,0.00177664,0.0679993,20.9616,-0.560554,-0.776383,0.0,0.0
729,182,76.4936,76.0314,154.691,101.966,111.743,0.00185992,0.0677857,20.9618,-0.660652,-0.825968,0.0,0.0
732,182.75,76.4497,75.3389,159.408,101.931,111.464,0.00193986,0.0676179,20.9622,-0.500494,-0.806578,0.0,0.0
735,183.5,75.7719,74.843,156.643,101.923,111.958,0.00200634,0.0674567,20.9629,-0.420415,-0.847192,0.0,0.0
738,184.25,75.4323,74.145,159.21,101.884,111.868,0.00203941,0.0673674,20.9631,-0.410405,-0.84334,0.0,0.0
741,185,75.083,73.5285,155.775,101.853,111.793,0.00204145,0.0673143,20.963,-0.450445,-0.84004,0.0,0.0
744,185.75,74.9129,73.2306,158.007,101.829,111.064,0.00201642,0.0672354,20.9628,-0.450445,-0.783188,0.0,0.0
747,186.5,73.9049,72.3632,155.837,101.784,111.606,0.00194886,0.0671779,20.9627,-0.390386,-0.831101,0.0,0.0
750,187.25,73.6687,72.3516,155.437,101.737,110.955,0.00187402,0.0671359,20.9626,-0.460455,-0.782494,0.0,0.0
753,188,73.9213,70.9032,153.894,101.694,110.967,0.00180115,0.0671255,20.9626,-0.480474,-0.787297,0.0,0.0
756,188.75,74.1873,71.4529,157.453,101.65,111.34,0.00173538,0.0670756,20.9625,-0.510504,-0.821412,0.0,0.0
759,189.5,73.1603,70.3648,160.135,101.597,111.393,0.00167284,0.0670137,20.9625,-0.550544,-0.830422,0.0,0.0
762,190.25,72.6583,70.4635,157.543,101.548,110.957,0.00162725,0.0669559,20.9625,-0.680672,-0.799426,0.0,0.0
765,191,72.8294,70.2039,157.709,101.491,111.448,0.00157214,0.0668937,20.9625,-0.540534,-0.844307,0.0,0.0
768,191.75,71.7773,69.8582,157.704,101.432,111.036,0.00153069,0.0668202,20.9625,-0.480474,-0.816214,0.0,0.0
771,192.5,71.8382,68.9165,159.104,101.391,111.066,0.00149993,0.0667545,20.9624,-0.360356,-0.822185,0.0,0.0
774,193.25,71.5528,69.1439,155.932,101.338,110.991,0.00149391,0.066566,20.9624,-0.410405,-0.820859,0.0,0.0
777,194,70.7838,68.4802,156.436,101.308,110.68,0.00149719,0.0664211,20.9624,-0.490484,-0.798219,0.0,0.0
780,194.75,70.6725,68.4541,160.583,101.253,110.275,0.00150217,0.0663028,20.9624,-0.460455,-0.77001,0.0,0.0
783,195.5,70.1206,68.04,158.44,101.284,111.521,0.00150465,0.0661743,20.9631,-0.470465,-0.868661,0.0,0.0
786,196.25,70.4327,67.3003,160.383,101.334,111.073,0.00150647,0.0660404,20.9635,-0.400395,-0.827851,0.0,0.0
789,197,70.3409,67.0776,155.121,101.39,110.537,0.00150739,0.0659047,20.9637,-0.380376,-0.779235,0.0,0.0
792,197.75,70.1521,66.5456,159.72,101.425,111.476,0.00150846,0.0658258,20.964,-0.310306,-0.852396,0.0,0.0
795,198.5,69.9869,66.5598,158.932,101.453,111.064,0.0014983,0.065761,20.9642,-0.350346,-0.816518,0.0,0.0
798,199.25,69.0397,66.3943,162.037,101.479,110.545,0.00148834,0.065701,20.9643,-0.420415,-0.771964,0.0,0.0
801,200,69.1006,65.9784,154.267,101.483,111.188,0.00147999,0.0656703,20.965,-0.450445,-0.823964,0.0,0.0
804,200.75,69.1674,65.9539,159,101.5,111.475,0.00147755,0.0655927,20.9655,-0.430425,-0.845705,0.0,0.0
807,201.5,68.3908,65.4326,156.203,101.477,111.165,0.00147705,0.065518,20.9658,-0.520514,-0.822604,0.0,0.0
810,202.25,68.2511,65.3619,160.779,101.451,111.108,0.00147888,0.0654837,20.9661,-0.630623,-0.820297,0.0,0.0
813,203,68.1674,65.2926,161.388,101.423,110.856,0.00147838,0.0654023,20.966,-0.610603,-0.802299,0.0,0.0
816,203.75,68.0485,64.7775,155.379,101.414,111.019,0.00148475,0.065319,20.9653,-0.530524,-0.816303,0.0,0.0
819,204.5,67.9006,64.019,162.368,101.418,111.025,0.0015009,0.0651967,20.9649,-1.03102,-0.816442,0.0,0.0
822,205.25,67.1897,64.4244,161.43,101.403,111.369,0.00151738,0.0650793,20.9646,-0.710702,-0.8457,0.0,0.0
825,206,67.3625,64.2201,157.921,101.358,111.212,0.00153744,0.0649818,20.9643,-0.370366,-0.836994,0.0,0.0
828,206.75,66.7118,63.4163,160.876,101.323,111.028,0.00155207,0.0649508,20.9641,-0.530524,-0.825211,0.0,0.0
831,207.5,66.614,63.5309,157.852,101.299,110.858,0.00156274,0.0649209,20.964,-0.540534,-0.813482,0.0,0.0
834,208.25,66.6703,63.6623,154.998,101.293,110.403,0.00156668,0.0648864,20.9639,-0.490484,-0.776925,0.0,0.0
837,209,65.8642,62.9672,159.925,101.251,110.694,0.00156051,0.0648612,20.9638,-0.560554,-0.804461,0.0,0.0
840,209.75,65.8559,62.5401,153.995,101.217,110.651,0.00154337,0.0648577,20.9638,-0.610603,-0.804019,0.0,0.0
843,210.5,65.5691,62.0742,159.951,101.18,110.819,0.001509,0.0648805,20.9638,-0.530524,-0.82094,0.0,0.0
846,211.25,65.8889,62.7675,157.873,101.108,110.894,0.00148394,0.0648368,20.9637,-0.530524,-0.833412,0.0,0.0
849,212,65.2843,62.1415,159.08,101.056,110.932,0.00145047,0.0647769,20.9637,-0.550544,-0.841221,0.0,0.0
852,212.75,65.378,61.3259,156.779,100.982,110.594,0.00142093,0.0647433,20.9637,-0.600593,-0.820317,0.0,0.0
855,213.5,64.8251,61.5853,161.779,100.989,110.646,0.0014017,0.064757,20.9639,-0.470465,-0.823908,0.0,0.0
858,214.25,64.4858,61.5763,158.68,101.025,110.824,0.00140045,0.0648232,20.9641,-0.610603,-0.83512,0.0,0.0
861,215,64.6175,61.1116,160.444,101.069,111.125,0.00141037,0.0648955,20.9642,-0.510504,-0.855726,0.0,0.0
864,215.75,64.6384,61.3098,159.662,101.106,110.385,0.00142679,0.0649209,20.9643,-0.420415,-0.792206,0.0,0.0
867,216.5,64.1032,61.1074,163.834,101.163,111.207,0.00144424,0.0649501,20.9643,-0.490484,-0.853953,0.0,0.0
870,217.25,64.4349,60.9108,157.366,101.215,110.706,0.0014544,0.0650094,20.9644,-0.540534,-0.808646,0.0,0.0
873,218,63.5545,60.5815,159.226,101.268,110.614,0.00146071,0.0650325,20.9644,-0.640633,-0.796322,0.0,0.0
876,218.75,63.6876,60.7413,156.836,101.316,111.002,0.00144527,0.0650494,20.9645,-0.660652,-0.823709,0.0,0.0
879,219.5,63.4243,60.5173,166.515,101.383,111.094,0.00143334,0.0650691,20.9645,-0.650643,-0.825141,0.0,0.0
882,220.25,63.4931,60.1211,154.573,101.43,110.964,0.0014235,0.0650962,20.9645,-0.640633,-0.810513,0.0,0.0
885,221,63.211,59.9654,161.244,101.479,111.407,0.00141699,0.0651018,20.9645,-0.520514,-0.842073,0.0,0.0
888,221.75,63.3174,59.7617,160.572,101.516,111.504,0.0014134,0.0650999,20.9649,-0.540534,-0.84655,0.0,0.0
891,222.5,63.2223,59.7077,159.554,101.573,111.602,0.00140184,0.0651186,20.9651,-0.560554,-0.849464,0.0,0.0
894,223.25,62.5625,59.165,158.61,101.611,111.436,0.00138483,0.0651322,20.9653,-0.650643,-0.832673,0.0,0.0
897,224,62.5763,59.1537,158.568,101.67,111.509,0.00136428,0.0652024,20.9652,-0.570563,-0.833359,0.0,0.0
900,224.75,62.3506,59.0926,161.321,101.707,111.151,0.00135185,0.0652114,20.9651,-0.580573,-0.801096,0.0,0.0
903,225.5,62.1378,58.5013,158.253,101.739,111.585,0.00134388,0.0651999,20.9651,-0.710702,-0.83337,0.0,0.0
906,226.25,62.1619,58.8951,159,101.769,111.803,0.00136721,0.0652505,20.9651,-0.480474,-0.848379,0.0,0.0
909,227,62.3317,58.543,159.012,101.799,110.945,0.00139061,0.06528,20.9648,-0.540534,-0.776172,0.0,0.0
912,227.75,61.4915,58.0768,158.958,101.818,111.812,0.00141107,0.0652888,20.9642,-0.440435,-0.844772,0.0,0.0
915,228.5,61.6811,58.6173,158.332,101.83,111.874,0.00142713,0.0652529,20.9638,-0.600593,-0.848604,0.0,0.0
918,229.25,61.41,58.2864,153.542,101.841,111.877,0.00142608,0.0652088,20.9635,-0.420415,-0.84789,0.0,0.0
921,230,61.3766,58.1109,158.361,101.863,111.611,0.00141382,0.0651364,20.9635,-0.500494,-0.82446,0.0,0.0
924,230.75,61.432,58.1473,155.715,101.866,111.546,0.00140066,0.0651119,20.9639,-0.600593,-0.81898,0.0,0.0
927,231.5,60.955,58.1575,164.128,101.861,111.839,0.00139221,0.0651282,20.9642,-0.560554,-0.843027,0.0,0.0
930,232.25,61.262,58.3539,161.298,101.856,111.837,0.00140138,0.0651855,20.9644,-0.550544,-0.843361,0.0,0.0
933,233,61.0018,57.7135,159.797,101.843,111.819,0.0014146,0.06524,20.9645,-0.670662,-0.843067,0.0,0.0
936,233.75,60.7005,57.4632,159.35,101.83,111.696,0.00142623,0.0652798,20.9647,-0.740731,-0.834255,0.0,0.0
939,234.5,60.8428,57.6912,159.422,101.803,111.36,0.00143404,0.0653013,20.9647,-0.540534,-0.809557,0.0,0.0
942,235.25,60.4462,57.2822,157.819,101.78,111.279,0.00143858,0.0653043,20.965,-0.530524,-0.804981,0.0,0.0
945,236,60.6916,57.3329,157.046,101.748,111.472,0.00144918,0.0652933,20.9648,-0.400395,-0.823436,0.0,0.0
948,236.75,60.7487,57.1574,161.133,101.725,111.415,0.00145436,0.0652946,20.9645,-0.630623,-0.820886,0.0,0.0
951,237.5,59.9878,56.9058,163.19,101.673,111.699,0.00145624,0.0653208,20.9643,-0.520514,-0.84844,0.0,0.0
954,238.25,60.1635,56.7573,159.665,101.623,111.522,0.00144748,0.0653399,20.9641,-0.510504,-0.838605,0.0,0.0
957,239,59.9918,56.5054,163.24,101.589,111.637,0.00144109,0.0653538,20.9639,-0.470465,-0.850837,0.0,0.0
960,239.75,60.3083,57.1718,159.367,101.545,111.27,0.00142368,0.065364,20.9638,-0.480474,-0.825073,0.0,0.0
963,240.5,59.7274,56.5321,159.485,101.491,111.245,0.00140588,0.0653551,20.964,-0.480474,-0.827879,0.0,0.0
966,241.25,59.2833,56.5716,157.636,101.437,111.503,0.00138938,0.0653448,20.9645,-0.580573,-0.853508,0.0,0.0
969,242,58.9943,56.5041,160.23,101.389,110.74,0.00137505,0.0653374,20.9648,-0.480474,-0.795883,0.0,0.0
972,242.75,59.5071,56.3838,160.802,101.325,111.053,0.00135368,0.065369,20.9651,-0.500494,-0.827025,0.0,0.0
975,243.5,58.6994,55.8307,156.356,101.272,111.307,0.0013381,0.0654554,20.9653,-0.430425,-0.852451,0.0,0.0
978,244.25,59.1632,56.1029,159.718,101.214,110.965,0.00132292,0.0654581,20.9656,-0.460455,-0.829818,0.0,0.0
981,245,58.9718,55.978,161.444,101.155,111.388,0.00131021,0.0654742,20.966,-0.430425,-0.869371,0.0,0.0
984,245.75,58.273,55.4777,159.064,101.11,111.234,0.00133009,0.065492,20.9663,-0.530524,-0.860948,0.0,0.0
987,246.5,58.7527,56.0886,160.744,101.058,111.024,0.00134458,0.0654626,20.9665,-0.660652,-0.848496,0.0,0.0
990,247.25,58.4037,55.9405,157.628,101.015,110.735,0.0013916,0.0654232,20.9662,-0.680672,-0.828799,0.0,0.0
993,248,58.4247,55.9214,158.016,100.968,110.984,0.00143865,0.0654146,20.9659,-0.630623,-0.853309,0.0,0.0
996,248.75,58.6554,56.0682,166.163,100.917,110.561,0.00148312,0.0654083,20.9656,-0.430425,-0.823394,0.0,0.0
999,249.5,58.9452,55.9273,166.952,100.868,110.898,0.00152359,0.0653635,20.9654,-0.710702,-0.855222,0.0,0.0
1002,250.25,58.3693,55.4643,157.356,100.832,110.49,0.00156221,0.0653309,20.9652,-0.560554,-0.825165,0.0,0.0
1005,251,58.1825,55.5692,160.426,100.794,110.396,0.00159549,0.0653071,20.9651,-0.530524,-0.82092,0.0,0.0
1008,251.75,57.8231,54.9809,156.836,100.761,110.518,0.00162193,0.0653098,20.965,-0.620613,-0.833899,0.0,0.0
1011,252.5,58.0817,55.541,160.756,100.72,110.383,0.0016485,0.0652822,20.965,-0.320316,-0.826544,0.0,0.0
1014,253.25,57.7515,55.2621,157.305,100.687,110.765,0.00166989,0.0652113,20.9649,-0.400395,-0.86063,0.0,0.0
1017,254,57.5252,54.7415,158.806,100.689,110.506,0.00168894,0.0651194,20.9655,-0.560554,-0.839311,0.0,0.0
1020,254.75,57.7239,54.8742,162.74,100.636,110.461,0.00170474,0.0650525,20.9661,-0.500494,-0.84037,0.0,0.0
1023,255.5,58.0081,54.7553,158.327,100.634,110.78,0.00171019,0.0650037,20.9663,-0.550544,-0.86656,0.0,0.0
1026,256.25,57.0282,54.4219,158.7,100.613,110.3,0.0017092,0.0649882,20.9665,-0.530524,-0.829267,0.0,0.0
1029,257,56.9967,54.5089,162.339,100.609,110.488,0.00169312,0.0649843,20.9667,-0.430425,-0.84499,0.0,0.0
1032,257.75,57.4552,54.4388,161.609,100.604,110.598,0.00165804,0.0649894,20.9668,-0.700692,-0.854439,0.0,0.0
1035,258.5,57.169,54.278,158.477,100.619,110.404,0.0016037,0.0649812,20.9669,-0.470465,-0.837217,0.0,0.0
1038,259.25,56.6942,54.3037,163.799,100.613,110.477,0.00152219,0.0649644,20.967,-0.430425,-0.843787,0.0,0.0
1041,260,56.1522,54.0887,165.382,100.632,110.446,0.00145269,0.0649395,20.967,-0.670662,-0.839518,0.0,0.0
1044,260.75,56.3254,54.0798,161.488,100.669,109.93,0.00138479,0.0649213,20.967,-0.490484,-0.793991,0.0,0.0
1047,261.5,56.4294,53.7536,161.421,100.693,110.478,,0.0649221,,-0.550544,-0.836621,0.0,0.0
1050,262.25,56.1516,53.9709,158.838,100.73,110.483,,0.0649287,,-0.490484,-0.83376,0.0,0.0
1053,263,56.5135,53.9312,161.167,100.742,110.818,,0.0649335,,-0.630623,-0.859975,0.0,0.0
1056,263.75,56.4045,53.8428,160.867,100.788,110.704,,0.0649148,,-0.670662,-0.846576,0.0,0.0
1059,264.5,56.507,53.9452,162.418,100.84,110.66,,,,-0.590583,-0.838328,0.0,0.0
1062,265.25,56.5611,53.9606,166.821,100.884,110.605,,,,-0.550544,-0.829927,0.0,0.0
1065,266,55.5669,53.8879,167.035,100.915,110.92,,,,-0.410405,-0.852797,0.0,0.0
1068,266.75,55.9992,53.5017,161.509,100.96,110.777,,,,-0.590583,-0.837085,0.0,0.0
1071,267.5,56.077,53.4579,158.386,101.033,110.863,,,,-0.570563,-0.83763,0.0,0.0
1074,268.25,55.4658,53.4573,160.276,101.069,111.199,,,,-0.630623,-0.861756,0.0,0.0
1077,269,55.8391,53.503,161.173,101.127,110.9,,,,-0.720712,-0.832265,0.0,0.0
1080,269.75,55.7974,53.5518,158.246,101.179,111.048,,,,-0.800791,-0.839609,0.0,0.0
1083,270.5,55.6334,53.4793,160.008,101.246,111.244,,,,-0.570563,-0.849586,0.0,0.0
1086,271.25,55.4316,53.5326,158.615,101.29,111.356,,,,-0.780771,-0.854761,0.0,0.0
1089,272,55.7356,53.1574,164.154,101.351,111.581,,,,-0.750741,-0.867468,0.0,0.0
1090,272.25,55.522,53.2861,161.782,101.372,111.075,,,,-0.700692,-0.824648,0.0,0.0