File: 01_Data/PMMA/Cone/PMMA_Cone_HF15-noSparkScan_210827_R2.csv
Names,Time,Stack TC,Smoke TC,Exh Press,Smoke Comp,Smoke Meas,CO Meter,CO2 Meter,O2 Meter,Sample Mass,Ext Coeff,Start Test,Flame Verif
Chan Gain,,500,500,1,1,1,1,1,1,1,1,1.0,1.0
Offset,,0,0,0.145697,0,0,0,0,0,0,0,0.0,0.0
Gain,,1,1,25.011,13.1742,16.6938,1,1,1,1.00099,1.02845,1.0,1.0
Units,sec,C,C,Pa,%,%,%,%,%,g,/m,,
Baseline,,26.6048,27.5075,194.533,101.376,106.568,0.000864231,0.0567876,20.9646,-507.743,-0.450517,,
12,2.75,24.849,24.9468,193.682,100.449,105.514,0.000925904,0.0578644,20.9629,30.8805,-0.443799,0.0,0.0
24,5.75,24.7265,25.5602,191.524,100.483,105.604,0.000860326,0.0577165,20.9636,30.9906,-0.448474,0.0,0.0
36,8.75,24.948,26.012,194.147,100.523,105.903,0.000873124,0.0571865,20.9639,31.0106,-0.470376,0.0,0.0
48,11.75,24.6055,25.6362,197.305,100.581,105.308,0.000812301,0.0566373,20.9639,30.9406,-0.414304,0.0,0.0
60,14.75,24.9388,25.4472,195.556,100.634,105.41,0.000677588,0.0563373,20.964,30.9706,-0.41827,0.0,0.0
72,17.75,25.0042,25.6378,198.783,100.699,105.688,0.00059667,0.0560524,20.9664,30.9706,-0.436209,0.0,0.0
84,20.75,24.8097,25.6144,196.941,100.736,105.702,0.00073316,0.0558563,20.9685,30.9205,-0.434121,0.0,0.0
96,23.75,24.9224,25.6414,191.173,100.81,105.994,0.0010514,0.0557192,20.9694,30.9606,-0.452408,0.0,0.0
108,26.75,24.8556,25.6479,200.306,100.851,105.899,0.00112744,0.0556741,20.9702,30.8204,-0.440669,0.0,0.0
120,29.75,24.641,25.7891,195.275,100.89,105.793,0.00103299,0.0554204,20.9704,30.9105,-0.428078,0.0,0.0
132,32.75,24.9654,25.8309,195.143,100.931,105.925,0.0010791,0.0554472,20.9705,30.9806,-0.435649,0.0,0.0
144,35.75,24.6894,25.6406,193.721,100.991,106.178,0.00107439,0.0552067,20.9701,30.8905,-0.451842,0.0,0.0
156,38.75,24.8433,26.0263,190.065,101.047,106.481,0.000835969,0.0550799,20.9695,30.9506,-0.472563,0.0,0.0
168,41.75,24.8476,25.6155,194.005,101.124,106.036,0.000808351,0.055024,20.9675,30.9305,-0.427906,0.0,0.0
180,44.75,24.8262,25.6933,199.106,101.2,106.097,0.00095656,0.0549973,20.9669,30.9005,-0.426301,0.0,0.0
192,47.75,24.9031,25.7595,198.32,101.262,106.187,0.000869594,0.0550284,20.9668,30.8805,-0.428447,0.0,0.0
204,50.75,24.7538,25.9247,195.443,101.341,106.548,0.000877982,0.0549718,20.9677,30.8605,-0.451979,0.0,0.0
216,53.75,24.9946,25.915,196.226,101.402,106.699,0.000957671,0.0549037,20.9686,30.9005,-0.459343,0.0,0.0
228,56.75,25.0271,25.8301,190.752,101.473,106.453,0.000880276,0.0549663,20.9678,30.9606,-0.432264,0.0,0.0
240,59.75,24.6543,25.7948,194.685,101.517,106.475,0.000869425,0.0551342,20.967,30.9205,-0.430224,0.0,0.0
252,62.75,24.9537,26.0146,192.694,101.586,106.843,0.000888371,0.0550789,20.9672,31.0106,-0.45515,0.0,0.0
264,65.75,25.0697,26.3395,187.924,101.635,106.409,0.000700715,0.0549983,20.9676,31.0106,-0.414077,0.0,0.0
276,68.75,24.9796,25.7826,189.847,101.666,106.39,0.000748265,0.0549756,20.9677,30.9906,-0.409724,0.0,0.0
288,71.75,25.1108,26.1563,197.301,101.715,106.677,0.00103593,0.0549,20.9677,30.9606,-0.42974,0.0,0.0
300,74.75,25.1372,26.1126,196.666,101.73,106.716,0.000872907,0.0549544,20.9677,30.9406,-0.431738,0.0,0.0
312,77.75,24.8366,25.9907,197.791,101.741,106.384,0.000775381,0.0549823,20.9677,30.9706,-0.402615,0.0,0.0
324,80.75,25.0912,26.0451,190.045,101.75,106.685,0.000738519,0.0547363,20.9684,30.9906,-0.427214,0.0,0.0
336,83.75,25.1637,26.0124,194.587,101.756,106.294,0.000800633,0.0546591,20.9686,30.9406,-0.39369,0.0,0.0
348,86.75,24.6672,25.7451,196.787,101.765,106.637,0.000898893,0.0544396,20.9693,30.8705,-0.421887,0.0,0.0
360,89.75,25.1159,26.0836,198.249,101.76,106.83,0.00101336,0.0545261,20.97,30.9406,-0.438635,0.0,0.0
372,92.75,24.869,25.8903,198.82,101.752,106.512,0.00102978,0.0544779,20.9704,30.9005,-0.412491,0.0,0.0
384,95.75,24.6747,25.6351,196.89,101.738,106.979,0.000981789,0.0544883,20.9705,30.9205,-0.453185,0.0,0.0
396,98.75,25.0924,25.9609,191.769,101.723,107.209,0.000820971,0.0544998,20.9705,30.9205,-0.473895,0.0,0.0
408,101.75,24.9138,25.8969,191.535,101.693,106.336,0.000617309,0.0542238,20.97,30.9406,-0.402754,0.0,0.0
420,104.75,25.0687,26.0792,194.888,101.658,107.082,0.000625964,0.0541201,20.9698,30.9205,-0.468913,0.0,0.0
432,107.75,24.9468,25.9131,194.407,101.61,106.41,0.00066719,0.0542686,20.9697,30.8905,-0.416448,0.0,0.0
444,110.75,25.0212,25.9905,198.253,101.563,106.295,0.000514965,0.0542084,20.9699,30.8705,-0.41086,0.0,0.0
456,113.75,24.6757,25.7276,195.151,101.524,106.513,0.000518916,0.0541007,20.97,30.8805,-0.432739,0.0,0.0
468,116.75,25.192,26.3061,199.657,101.489,106.347,0.000594883,0.0539423,20.97,30.9105,-0.421885,0.0,0.0
480,119.75,25.1838,26.0171,194.765,101.444,106.486,0.000575261,0.0539962,20.97,30.9105,-0.437564,0.0,0.0
492,122.75,24.9899,26.0965,195.576,101.378,106.23,0.000652818,0.0539547,20.97,30.9205,-0.421772,0.0,0.0
504,125.75,25.1934,26.2327,192.445,101.32,106.155,0.000740482,0.0540174,20.97,30.8405,-0.420521,0.0,0.0
516,128.75,24.8849,25.8741,192.371,101.274,105.924,0.000892749,0.0541112,20.97,30.9406,-0.405004,0.0,0.0
528,131.75,25.1361,26.2488,196.08,101.234,106.098,0.00105289,0.0540722,20.97,30.8405,-0.423413,0.0,0.0
540,134.75,25.2877,25.9852,198.638,101.19,105.658,0.000836127,0.053955,20.971,30.8705,-0.389735,0.0,0.0
552,137.75,25.3188,26.1812,199.043,101.146,106.003,0.000693053,0.053954,20.9725,30.8304,-0.42308,0.0,0.0
564,140.75,25.3315,26.0168,194.182,101.134,106.282,0.000739336,0.0538801,20.9733,30.8104,-0.447885,0.0,0.0
576,143.75,25.2593,26.4024,196.293,101.113,105.403,0.000660672,0.0536575,20.9736,30.9205,-0.374887,0.0,0.0
588,146.75,25.198,26.1856,193.777,101.101,105.861,0.000718838,0.0536772,20.9736,30.8104,-0.415115,0.0,0.0
600,149.75,25.0695,26.1165,190.95,101.086,105.651,0.000858546,0.0534709,20.9732,30.8905,-0.398458,0.0,0.0
612,152.75,24.9923,25.8638,193.24,101.055,105.671,0.000752748,0.0534292,20.9719,30.9005,-0.402917,0.0,0.0
624,155.75,25.1988,26.2443,197.205,101.03,105.853,0.000672675,0.0533125,20.9698,30.8405,-0.420701,0.0,0.0
636,158.75,25.2536,26.3432,192.987,101.025,105.606,0.000741399,0.0532301,20.9683,30.8405,-0.40012,0.0,0.0
648,161.75,25.6264,26.658,192.743,101.006,105.778,0.000989333,0.0532121,20.9679,30.8905,-0.416463,0.0,0.0
660,164.75,25.4553,26.4886,190.316,100.99,105.654,0.00115077,0.0531486,20.9678,30.8204,-0.407255,0.0,0.0
672,167.75,25.0073,25.8073,190.801,100.968,106.094,0.00118551,0.0532363,20.9677,30.8104,-0.446781,0.0,0.0
684,170.75,25.1047,26.1822,193.353,100.979,105.566,0.000978045,0.0533431,20.9677,30.8004,-0.400818,0.0,0.0
696,173.75,25.4019,26.3435,190.471,100.975,105.823,0.000747668,0.0531945,20.9686,30.7704,-0.423015,0.0,0.0
708,176.75,24.991,26.0458,194.883,100.976,105.674,0.000588693,0.0530032,20.9701,30.8505,-0.410216,0.0,0.0
720,179.75,24.8857,26.0108,192.314,100.981,105.577,0.00052779,0.0529355,20.9702,30.7404,-0.401474,0.0,0.0
732,182.75,25.1003,26.0436,196.7,100.981,105.521,0.000528229,0.0530816,20.97,30.7904,-0.396756,0.0,0.0
744,185.75,25.5006,26.555,196.4,100.96,106.016,0.000659489,0.0529725,20.9689,30.7904,-0.440905,0.0,0.0
756,188.75,25.0635,25.8053,190.726,100.946,105.563,0.00088953,0.0528973,20.9687,30.8004,-0.40346,0.0,0.0
768,191.75,25.4667,26.5944,198.962,100.926,105.456,0.00100056,0.0529373,20.9686,30.7303,-0.396073,0.0,0.0
780,194.75,25.2624,26.2209,189.924,100.908,105.857,0.000992313,0.0528261,20.9685,30.8405,-0.431961,0.0,0.0
792,197.75,24.9612,25.871,199.167,100.89,105.246,0.000825033,0.0526743,20.9685,30.8505,-0.381326,0.0,0.0
804,200.75,25.4272,26.4252,196.055,100.864,105.241,0.000843074,0.0527067,20.9685,30.8705,-0.383234,0.0,0.0
816,203.75,25.1314,26.2532,191.309,100.895,105.263,0.000965451,0.0527001,20.9696,30.8204,-0.382387,0.0,0.0
828,206.75,25.4454,26.4525,199.944,100.927,105.521,0.000899333,0.0526535,20.9699,30.7804,-0.401534,0.0,0.0
840,209.75,25.0445,26.2625,196.267,100.957,105.485,0.000712704,0.0526531,20.97,30.6603,-0.39587,0.0,0.0
852,212.75,25.1414,25.9474,196.084,100.974,105.635,0.000695165,0.0526552,20.97,30.7103,-0.407118,0.0,0.0
864,215.75,25.0718,26.2959,192.852,100.992,105.704,0.000695422,0.0526181,20.9714,30.8004,-0.411381,0.0,0.0
876,218.75,25.0823,25.969,190.929,101.015,105.734,0.000675205,0.0524271,20.9721,30.7804,-0.411863,0.0,0.0
888,221.75,25.25,26.2452,192.51,101.018,105.271,0.000569014,0.0522787,20.9723,30.7804,-0.372092,0.0,0.0
900,224.75,25.4621,26.6311,193.149,101.03,105.51,0.000609151,0.052355,20.9723,30.8104,-0.391468,0.0,0.0
912,227.75,25.5359,26.5356,193.686,100.999,105.734,0.00082619,0.0522435,20.9723,30.8004,-0.413292,0.0,0.0
924,230.75,25.3264,26.3612,195.202,101.013,105.694,0.000934286,0.0523308,20.9723,30.7504,-0.408652,0.0,0.0
936,233.75,25.6451,26.6447,196.387,101.002,105.645,0.000848834,0.0523865,20.9723,30.7404,-0.405482,0.0,0.0
948,236.75,25.5261,26.6707,191.083,100.994,105.598,0.000629968,0.0525497,20.9728,30.6202,-0.402189,0.0,0.0
960,239.75,25.5945,26.6811,196.831,100.997,105.696,0.000519658,0.0523819,20.9731,30.5301,-0.410298,0.0,0.0
972,242.75,25.3357,26.6696,191.693,100.991,105.499,0.000702355,0.0522802,20.9732,30.6002,-0.393957,0.0,0.0
984,245.75,25.3459,26.335,186.831,100.987,105.809,0.000670146,0.0520813,20.973,30.6503,-0.420844,0.0,0.0
996,248.75,25.6678,26.4737,193.764,100.984,105.562,0.000676889,0.0519629,20.9728,30.6002,-0.399996,0.0,0.0
1008,251.75,25.2677,26.4216,194.416,100.969,105.272,0.000725513,0.0519711,20.9714,30.5702,-0.376481,0.0,0.0
1020,254.75,25.5497,26.6638,191.472,100.96,105.547,0.000649074,0.0520621,20.9709,30.4701,-0.400817,0.0,0.0
1032,257.75,25.6978,26.7096,190.955,100.962,105.574,0.000676743,0.0520551,20.9712,30.5902,-0.402937,0.0,0.0
1044,260.75,25.9202,26.6878,195.981,100.953,105.937,0.000706209,0.0520311,20.9721,30.5902,-0.434714,0.0,0.0
1056,263.75,25.4808,26.5095,194.831,100.96,105.839,0.000613495,0.0519616,20.9724,30.4701,-0.425805,0.0,0.0
1068,266.75,25.8554,26.8641,189.014,100.962,105.241,0.000534549,0.0519805,20.9715,30.4701,-0.374472,0.0,0.0
1080,269.75,25.5534,26.6645,193.756,100.968,105.294,0.000742583,0.0518113,20.9709,30.39,-0.378509,0.0,0.0
1092,272.75,25.3124,26.4725,192.918,100.983,105.239,0.000871869,0.0516843,20.972,30.4401,-0.372502,0.0,0.0
1104,275.75,25.6917,26.6959,189.119,101.006,105.418,0.000779921,0.0517238,20.9727,30.5001,-0.385698,0.0,0.0
1116,278.75,25.5656,26.7728,193.937,101.039,105.511,0.00080141,0.0516524,20.9734,30.5101,-0.390766,0.0,0.0
1128,281.75,26.272,26.8533,194.14,101.044,105.409,0.000731633,0.0517193,20.9737,30.4701,-0.381531,0.0,0.0
1140,284.75,25.8593,27.112,202.575,101.048,105.386,0.000509402,0.0517418,20.9747,30.4,-0.379174,0.0,0.0
1152,287.75,25.577,27.0267,190.857,101.081,105.408,0.00061373,0.0519025,20.9755,30.35,-0.378186,0.0,0.0
1164,290.75,25.6646,26.7542,194.595,101.1,105.127,0.00081666,0.0517916,20.9738,30.36,-0.352398,0.0,0.0
1176,293.75,25.8326,27.0137,191.815,101.12,105.324,0.000789787,0.0516661,20.9732,30.2799,-0.36748,0.0,0.0
1188,296.75,25.759,26.8958,194.106,101.118,105.512,0.000698422,0.0516546,20.9722,30.2098,-0.383748,0.0,0.0
1200,299.75,25.7938,26.926,194.559,101.131,105.914,0.000747631,0.0516202,20.9735,30.2599,-0.416902,0.0,0.0
1212,302.75,25.9103,27.073,194.35,101.126,105.463,0.000701677,0.0516526,20.9745,30.1898,-0.37884,0.0,0.0
1224,305.75,25.6252,26.8872,188.697,101.118,105.768,0.000852199,0.0515219,20.9748,30.1698,-0.405588,0.0,0.0
1236,308.75,25.7277,26.7334,194.306,101.12,105.307,0.000889028,0.0513946,20.974,30.1898,-0.365989,0.0,0.0
1248,311.75,25.5064,26.6373,197.263,101.122,104.996,0.000809841,0.0512854,20.9723,30.1798,-0.339183,0.0,0.0
1260,314.75,25.7565,26.8766,194.907,101.116,105.334,0.000683955,0.0513637,20.9733,30.1598,-0.368697,0.0,0.0
1272,317.75,25.6925,26.7882,196.422,101.126,105.576,0.000478328,0.051383,20.9721,30.0497,-0.388502,0.0,0.0
1284,320.75,25.9811,27.13,195.558,101.135,105.57,0.000401491,0.051286,20.9722,30.0297,-0.387162,0.0,0.0
1296,323.75,25.7177,27.2863,191.352,101.151,105.421,0.000771786,0.0512919,20.9733,29.9696,-0.373042,0.0,0.0
1308,326.75,25.8977,26.9871,192.79,101.154,105.614,0.000984872,0.0513095,20.9737,29.9095,-0.38922,0.0,0.0
1320,329.75,25.6574,26.2511,194.198,101.154,105.633,0.000855515,0.0510352,20.9736,30.0196,-0.390865,0.0,0.0
1332,332.75,25.5579,26.4325,197.763,101.155,105.414,0.000861195,0.0510334,20.9732,30.0397,-0.372109,0.0,0.0
1344,335.75,25.8519,26.8942,194.635,101.176,105.649,0.000977332,0.0510721,20.9731,30.0196,-0.39025,0.0,0.0
1356,338.75,25.7129,26.92,194.795,101.188,105.06,0.00103211,0.0512188,20.973,30.0096,-0.3387,0.0,0.0
1368,341.75,25.9075,26.8857,191.058,101.186,105.088,0.00094319,0.0511323,20.9733,29.9796,-0.341357,0.0,0.0
1380,344.75,25.7871,26.8843,189.738,101.199,105.502,0.000813743,0.0511632,20.9752,29.8995,-0.37567,0.0,0.0
1392,347.75,25.658,26.7796,197.094,101.216,104.996,0.000782219,0.0511373,20.9758,29.9396,-0.330801,0.0,0.0
1404,350.75,25.9258,27.0702,194.179,101.213,104.879,0.000716423,0.0511253,20.9759,29.8295,-0.320971,0.0,0.0
1416,353.75,25.9626,26.8797,192.933,101.22,105.129,0.000797099,0.0512068,20.976,29.8595,-0.34186,0.0,0.0
1428,356.75,26.0717,26.9033,188.739,101.22,105.279,0.000964564,0.0510639,20.976,29.6192,-0.354741,0.0,0.0
1440,359.75,26.1152,27.1039,195.65,101.234,105.443,0.00108222,0.0511252,20.976,29.6393,-0.36749,0.0,0.0
1452,362.75,25.9709,27.0512,198.35,101.226,105.525,0.00111862,0.05103,20.9755,29.7494,-0.375228,0.0,0.0
1464,365.75,25.7806,26.6673,197.525,101.233,105.358,0.00100914,0.0511366,20.9742,29.7694,-0.360286,0.0,0.0
1476,368.75,25.7903,26.9623,193.552,101.23,105.658,0.00080336,0.0514913,20.9736,29.7193,-0.386231,0.0,0.0
1488,371.75,26.0219,27.1189,192.714,101.23,105.473,0.000822175,0.0518605,20.9734,29.6693,-0.370419,0.0,0.0
1500,374.75,25.8375,27.1055,194.541,101.229,105.436,0.000910834,0.0520452,20.9721,29.5892,-0.367273,0.0,0.0
1512,377.75,25.7111,26.8541,196.318,101.224,105.516,0.000823811,0.0523702,20.9713,29.5592,-0.374659,0.0,0.0
1524,380.75,25.7845,26.7169,199.193,101.211,105.549,0.000762709,0.0528569,20.9711,29.4691,-0.378601,0.0,0.0
1536,383.75,26.0314,27.1421,191.624,101.204,105.266,0.000729336,0.0532648,20.9716,29.5392,-0.355003,0.0,0.0
1548,386.75,25.9574,26.9431,195.997,101.187,105.37,0.000915878,0.0535354,20.9718,29.4891,-0.36541,0.0,0.0
1560,389.75,25.9581,27.0308,195.545,101.189,105.387,0.000993026,0.0537785,20.9693,29.4591,-0.366715,0.0,0.0
1572,392.75,25.3975,26.527,197.556,101.192,105.537,0.000822243,0.0539143,20.9686,29.399,-0.379356,0.0,0.0
1584,395.75,26.2594,27.3105,190.611,101.179,105.373,0.000765744,0.0540786,20.9674,29.4391,-0.36639,0.0,0.0
1596,398.75,26.0857,27.1477,193.872,101.172,105.508,0.000929385,0.0544232,20.9658,29.389,-0.378586,0.0,0.0
1608,401.75,25.9722,27.0022,191.899,101.168,105.303,0.000872512,0.0545384,20.9654,29.1488,-0.36138,0.0,0.0
1620,404.75,26.1644,27.2721,200.734,101.159,104.973,0.000808969,0.0549002,20.9653,29.1988,-0.333877,0.0,0.0
1632,407.75,25.9488,26.9986,193.205,101.167,105.149,0.000765926,0.0550718,20.9652,29.1087,-0.348297,0.0,0.0
1644,410.75,26.3637,27.3995,192.222,101.161,105.513,0.00083566,0.0553761,20.9652,29.1688,-0.37999,0.0,0.0
1656,413.75,25.3524,26.3462,195.562,101.164,105.668,0.000855553,0.0555593,20.9673,29.1588,-0.393015,0.0,0.0
1668,416.75,25.7515,26.8701,199.23,101.162,105.455,0.000811769,0.0555439,20.9671,29.0887,-0.37495,0.0,0.0
1680,419.75,26.7594,28.0008,199.254,101.145,105.436,0.000670197,0.0556817,20.9665,28.9186,-0.37488,0.0,0.0
1692,422.75,25.1842,26.5214,192.389,101.138,105.376,0.000524829,0.055904,20.9663,28.9486,-0.370344,0.0,0.0
1704,425.75,25.905,27.0586,193.531,101.105,105.815,0.000532893,0.0560223,20.9659,28.8485,-0.410761,0.0,0.0
1716,428.75,26.0326,26.8917,193.337,101.091,105.276,0.000685622,0.0562503,20.9639,28.7784,-0.365873,0.0,0.0
1728,431.75,26.2945,27.4828,196.075,101.045,105.455,0.000837362,0.0563437,20.9638,28.9386,-0.385434,0.0,0.0
1740,434.75,26.1402,27.2647,195.391,100.994,104.923,0.000939614,0.0565748,20.9651,28.9085,-0.344254,0.0,0.0
1752,437.75,26.3085,27.2727,190.773,100.941,105.347,0.000910678,0.0567235,20.9644,28.8785,-0.385412,0.0,0.0
1764,440.75,26.1739,27.4356,198.622,100.894,104.968,0.000652755,0.0570267,20.9639,28.8185,-0.357107,0.0,0.0
1776,443.75,26.0886,27.0514,194.901,100.858,105.228,0.000823766,0.0573945,20.9634,28.7884,-0.382647,0.0,0.0
1788,446.75,26.2686,27.3823,195.291,100.907,105.209,0.00105924,0.0573567,20.9638,28.7083,-0.376716,0.0,0.0
1800,449.75,26.2801,27.2717,194.949,100.918,105.218,0.000997141,0.0573946,20.9644,28.6783,-0.376416,0.0,0.0
1812,452.75,26.4339,27.1616,192.139,100.938,105,0.000935295,0.0572953,20.9646,28.5882,-0.355948,0.0,0.0
1824,455.75,26.2695,27.2764,195.345,101.007,105.187,0.000842291,0.0576242,20.9646,28.5882,-0.365891,0.0,0.0
1836,458.75,26.1787,27.2451,197.219,101.031,104.983,0.000754916,0.0579016,20.9643,28.5582,-0.346119,0.0,0.0
1848,461.75,26.1198,27.0841,195.538,101.063,104.984,0.00080715,0.0580085,20.9639,28.4381,-0.343378,0.0,0.0
1860,464.75,26.4823,27.5181,188.245,101.098,105.286,0.000982871,0.0581806,20.9634,28.4881,-0.366252,0.0,0.0
1872,467.75,26.6715,27.8718,187.973,101.13,105.21,0.000885525,0.0585443,20.962,28.378,-0.356832,0.0,0.0
1884,470.75,26.2537,27.2043,195.306,101.175,105.101,0.000818293,0.0586086,20.9616,28.368,-0.343506,0.0,0.0
1896,473.75,26.1723,27.2388,193.355,101.219,105.331,0.000722883,0.0585527,20.9615,28.2979,-0.3593,0.0,0.0
1908,476.75,25.9464,27.0802,187.633,101.264,105.23,0.000636909,0.0588006,20.9615,28.2479,-0.346644,0.0,0.0
1920,479.75,26.1598,27.3635,200.33,101.282,105.362,0.000695745,0.0589642,20.9614,28.1978,-0.356222,0.0,0.0
1932,482.75,26.3,27.3176,200.5,101.335,105.547,0.00081187,0.0591498,20.9601,28.1678,-0.367396,0.0,0.0
1944,485.75,26.281,27.288,200.423,101.395,105.779,0.000867162,0.0592407,20.9594,27.9776,-0.381935,0.0,0.0
1956,488.75,26.5618,27.5975,192.628,101.445,105.897,0.00094635,0.0593475,20.9592,28.0477,-0.387453,0.0,0.0
1968,491.75,26.2565,27.262,191.648,101.484,105.791,0.000886307,0.0595564,20.9592,27.9576,-0.374917,0.0,0.0
1980,494.75,26.1412,27.1238,192.493,101.526,105.901,0.000681959,0.0596478,20.9591,27.9876,-0.380659,0.0,0.0
1992,497.75,26.1813,27.1379,193.295,101.57,105.107,0.000637433,0.0598471,20.9591,27.9076,-0.308851,0.0,0.0
2004,500.75,26.1675,27.2249,194.731,101.617,105.909,0.000729761,0.0600768,20.9583,27.8075,-0.373212,0.0,0.0
2016,503.75,26.5037,27.5745,194.14,101.649,105.87,0.000748417,0.0602368,20.9589,27.8475,-0.367086,0.0,0.0
2028,506.75,26.2371,27.2639,193.089,101.692,105.894,0.000570301,0.0602043,20.9591,27.8375,-0.365266,0.0,0.0
2040,509.75,26.4584,27.4515,194.066,101.704,106.179,0.00060009,0.0602981,20.9591,27.7874,-0.388468,0.0,0.0
2052,512.75,25.8259,27.5302,190.64,101.717,106.542,0.000608817,0.0605876,20.958,27.6273,-0.418138,0.0,0.0
2064,515.75,26.4097,27.4684,191.734,101.736,106.168,0.000733695,0.0606606,20.9585,27.5372,-0.384743,0.0,0.0
2076,518.75,26.1021,27.3425,194.714,101.731,105.734,0.00100892,0.0608061,20.9587,27.5172,-0.348132,0.0,0.0
2088,521.75,26.2566,27.1064,189.585,101.759,106.234,0.00102557,0.0609022,20.9584,27.5472,-0.388223,0.0,0.0
2100,524.75,26.361,27.4762,188.452,101.738,106.153,0.000906779,0.0608743,20.9569,27.4571,-0.383309,0.0,0.0
2112,527.75,26.7015,27.6411,192.609,101.72,105.854,0.00085977,0.0609728,20.9555,27.4671,-0.359426,0.0,0.0
2124,530.75,26.4312,27.5692,196.762,101.719,106.282,0.000773596,0.0609848,20.9548,27.4171,-0.395853,0.0,0.0
2136,533.75,26.4354,27.4223,199.561,101.694,106.193,0.000667273,0.0608614,20.9546,27.327,-0.390494,0.0,0.0
2148,536.75,26.4612,27.5138,198.58,101.669,106.167,0.000675789,0.0611219,20.9545,27.2469,-0.39054,0.0,0.0
2160,539.75,26.4521,27.3949,195.663,101.643,105.865,0.000581004,0.0611321,20.9545,27.1068,-0.367151,0.0,0.0
2172,542.75,26.3672,27.6593,193.43,101.603,105.583,0.000429175,0.0614071,20.9545,27.2169,-0.346681,0.0,0.0
2184,545.75,26.5167,27.586,195.758,101.567,105.643,0.000421768,0.0612282,20.9545,27.0667,-0.354993,0.0,0.0
2196,548.75,26.7173,27.7835,192.647,101.51,105.618,0.000535057,0.0613529,20.9545,27.1068,-0.357891,0.0,0.0
2208,551.75,26.5516,27.5385,193.635,101.475,105.797,0.000855523,0.0614398,20.9552,27.0167,-0.376268,0.0,0.0
2220,554.75,26.3772,27.4436,194.702,101.423,105.558,0.00108976,0.0616907,20.9554,26.9766,-0.360555,0.0,0.0
2232,557.75,26.4536,27.6404,196.587,101.371,105.965,0.00100809,0.0616496,20.9555,26.8265,-0.399891,0.0,0.0
2244,560.75,26.506,27.3404,188.31,101.299,105.404,0.000945299,0.0619135,20.9538,26.8866,-0.358338,0.0,0.0
2256,563.75,26.2485,27.321,198.109,101.243,105.573,0.000941008,0.0619124,20.9549,26.7965,-0.377852,0.0,0.0
2268,566.75,26.5712,27.5383,192.957,101.169,105.507,0.00076987,0.0618617,20.9553,26.7364,-0.378757,0.0,0.0
2280,569.75,26.2928,27.411,195.643,101.096,105.027,0.000638382,0.0619756,20.9555,26.5562,-0.344113,0.0,0.0
2292,572.75,26.2459,27.3048,194.278,101.004,105.146,0.000497379,0.061995,20.956,26.7264,-0.362523,0.0,0.0
2304,575.75,26.7177,27.5612,192.045,100.927,105.069,0.000630491,0.0620394,20.9571,26.5762,-0.362853,0.0,0.0
2316,578.75,26.5229,27.705,198.748,100.849,105.177,0.000866123,0.0621863,20.9562,26.5462,-0.379096,0.0,0.0
2328,581.75,26.603,27.6479,188.425,100.767,105.067,0.0010252,0.0625792,20.9559,26.4761,-0.376957,0.0,0.0
2340,584.75,26.7312,27.3719,193.337,100.69,105.377,0.00108427,0.0627717,20.9558,26.4361,-0.410436,0.0,0.0
2352,587.75,26.5279,27.4844,192.627,100.611,105.062,0.000850851,0.0627139,20.9558,26.2159,-0.390504,0.0,0.0
2364,590.75,26.3311,27.2419,187.832,100.541,105.065,0.000773744,0.0628985,20.9558,26.1758,-0.397041,0.0,0.0
2376,593.75,26.5262,27.472,190.487,100.476,104.61,0.000952462,0.0628776,20.9558,26.0958,-0.363774,0.0,0.0
2388,596.75,26.5237,27.4954,194.955,100.428,105.001,0.00102714,0.063085,20.9548,26.1358,-0.401787,0.0,0.0
2400,599.75,26.3679,27.3596,193.261,100.402,104.646,0.000973361,0.0631546,20.9541,25.8655,-0.373537,0.0,0.0
2412,602.75,26.734,27.7848,193.135,100.378,104.522,0.000992455,0.0632549,20.9523,26.0457,-0.364983,0.0,0.0
2424,605.75,26.8899,27.8751,188.13,100.396,104.761,0.000999069,0.063404,20.9528,26.0457,-0.383957,0.0,0.0
2436,608.75,26.7547,27.7705,194.408,100.426,105.42,0.000770586,0.0635227,20.9527,26.0457,-0.437803,0.0,0.0
2448,611.75,26.5658,27.6138,196.761,100.482,104.925,0.000567658,0.0635744,20.9519,26.0157,-0.390336,0.0,0.0
2460,614.75,26.5438,27.7077,195.374,100.542,104.867,0.000546871,0.0638962,20.9531,25.8455,-0.37998,0.0,0.0
2472,617.75,26.667,27.8109,191.324,100.652,104.847,0.000717787,0.0639001,20.9536,25.8756,-0.36834,0.0,0.0
2484,620.75,26.6436,27.7814,194.814,100.777,104.956,0.000758643,0.0637453,20.9542,25.7254,-0.366516,0.0,0.0
2496,623.75,26.5209,27.9759,199.599,100.9,105.367,0.000656173,0.0635357,20.9544,25.7554,-0.390815,0.0,0.0
2508,626.75,26.6506,27.9759,195.797,101.023,105.329,0.000563362,0.0636796,20.9529,25.7554,-0.376557,0.0,0.0
2520,629.75,26.4396,27.5562,193.845,101.154,105.677,0.000598041,0.0638315,20.9524,25.5953,-0.394571,0.0,0.0
2532,632.75,26.6505,27.866,193.753,101.275,105.701,0.000752111,0.0637808,20.9522,25.4251,-0.385916,0.0,0.0
2544,635.75,26.8207,27.8608,190.896,101.392,105.828,0.000902798,0.0637905,20.9518,25.6153,-0.38632,0.0,0.0
2556,638.75,26.7672,27.8729,193.192,101.499,106.355,0.00110384,0.063992,20.9505,25.3951,-0.42156,0.0,0.0
2568,641.75,26.6044,27.6294,196.062,101.575,106.21,0.00117591,0.0642306,20.9494,25.355,-0.402571,0.0,0.0
2580,644.75,26.8068,27.7418,194.082,101.653,105.632,0.00100813,0.0642827,20.9502,25.365,-0.346354,0.0,0.0
2592,647.75,26.8677,27.4793,189.32,101.701,106.001,0.000787765,0.0645062,20.9514,25.3851,-0.373556,0.0,0.0
2604,650.75,26.6143,28.1135,194.187,101.703,106.289,0.00056632,0.0646536,20.9524,25.275,-0.397884,0.0,0.0
2616,653.75,26.3924,28.119,192.319,101.699,106.221,0.000773827,0.0646214,20.9524,25.2549,-0.392524,0.0,0.0
2628,656.75,26.7161,27.8112,195.914,101.666,105.872,0.00109776,0.0647667,20.9516,25.1448,-0.365761,0.0,0.0
2640,659.75,26.5096,27.5789,194.132,101.613,106.248,0.0011373,0.0649276,20.9515,25.0848,-0.402452,0.0,0.0
2652,662.75,26.5956,27.7091,191.473,101.547,105.92,0.000890717,0.0649253,20.9514,25.1148,-0.380292,0.0,0.0
2664,665.75,26.3226,27.4256,195.38,101.456,105.777,0.000689233,0.0650847,20.951,25.0447,-0.37629,0.0,0.0
2676,668.75,26.3293,27.481,194.812,101.354,105.483,0.000774751,0.0651768,20.95,24.8646,-0.360305,0.0,0.0
2688,671.75,26.3203,27.5069,197.52,101.264,105.776,0.00106854,0.0652774,20.9485,24.9546,-0.393308,0.0,0.0
2700,674.75,26.6249,27.6681,194.037,101.177,105.736,0.0011158,0.0653202,20.9495,24.8045,-0.397607,0.0,0.0
2712,677.75,26.5032,27.6135,190.08,101.098,105.289,0.000927784,0.0653425,20.9497,24.8445,-0.366514,0.0,0.0
2724,680.75,26.5369,27.7356,189.033,101.007,105.154,0.000871541,0.0652336,20.9498,24.7945,-0.362935,0.0,0.0
2736,683.75,26.8103,27.9692,200.993,100.956,105.349,0.000803965,0.0654093,20.9499,24.7645,-0.384336,0.0,0.0
2748,686.75,26.6582,27.6831,194.195,101.079,105.004,0.000775973,0.0655997,20.9499,24.6644,-0.343686,0.0,0.0
2760,689.75,26.4538,27.5809,195.059,101.15,106.202,0.000820348,0.0655214,20.9485,24.6443,-0.439738,0.0,0.0
2772,692.75,26.649,27.4741,192.912,101.183,105.579,0.000891215,0.0656846,20.9483,24.5743,-0.383635,0.0,0.0
2784,695.75,26.2512,27.354,192.43,101.169,105.491,0.000826743,0.0656093,20.9482,24.4241,-0.377436,0.0,0.0
2796,698.75,26.3318,27.6435,194.279,101.203,105.517,0.00075217,0.06549,20.9493,24.324,-0.376574,0.0,0.0
2808,701.75,26.4632,27.3723,197.01,101.171,105.591,0.000940931,0.0655436,20.9502,24.344,-0.385835,0.0,0.0
2820,704.75,26.541,27.6056,190.206,101.171,105.725,0.00108416,0.0655267,20.9504,24.4141,-0.397275,0.0,0.0
2832,707.75,26.5436,27.6463,190.396,101.152,105.853,0.00086174,0.0655871,20.9503,24.334,-0.409829,0.0,0.0
2844,710.75,26.5769,27.4799,197.579,101.111,105.423,0.000771468,0.0658193,20.9488,24.254,-0.376723,0.0,0.0
2856,713.75,26.7606,27.726,191.241,101.06,105.142,0.000953152,0.0657757,20.9487,24.274,-0.357183,0.0,0.0
2868,716.75,26.1931,27.4928,193.199,100.975,105.688,0.00106398,0.0657986,20.9488,24.1639,-0.411534,0.0,0.0
2880,719.75,26.3551,27.3421,193.284,100.866,105.331,0.000972185,0.065965,20.9489,24.0738,-0.390773,0.0,0.0
2892,722.75,27.1149,27.6028,191.651,100.806,104.956,0.000858617,0.0658927,20.9489,24.0738,-0.364005,0.0,0.0
2904,725.75,26.6819,27.6518,195.703,100.853,105.621,0.000840227,0.0658425,20.9503,23.8035,-0.416734,0.0,0.0
2916,728.75,26.6105,27.4768,190.954,100.906,105.478,0.00086253,0.0659014,20.9501,23.9637,-0.39978,0.0,0.0
2928,731.75,26.674,27.6683,194.459,100.981,105.485,0.000899801,0.0660445,20.9492,23.7535,-0.393714,0.0,0.0
2940,734.75,26.66,27.8007,195.201,101.056,104.908,0.00100739,0.0661455,20.949,23.7835,-0.337491,0.0,0.0
2952,737.75,26.6632,27.1848,191.954,101.139,105.483,0.000980858,0.0663466,20.9484,23.8035,-0.379391,0.0,0.0
2964,740.75,26.0608,27.4917,198.958,101.217,106.195,0.000884273,0.066482,20.948,23.7535,-0.433102,0.0,0.0
2976,743.75,27.2072,28.0488,193.573,101.304,105.946,0.000879719,0.0667268,20.9475,23.6333,-0.40422,0.0,0.0
2988,746.75,26.6754,28.002,193.535,101.385,105.691,0.000933894,0.0669315,20.9474,23.5132,-0.375265,0.0,0.0
3000,749.75,26.8718,27.7776,191.304,101.465,105.975,0.000889815,0.0670282,20.9474,23.4832,-0.392303,0.0,0.0
3012,752.75,26.106,27.5185,192.784,101.516,106.15,0.000951355,0.0671431,20.9469,23.273,-0.402707,0.0,0.0
3024,755.75,26.824,27.4965,195.726,101.587,106.629,0.00100355,0.0671142,20.9456,23.3431,-0.437036,0.0,0.0
3036,758.75,26.6558,28.0191,194.646,101.642,106.161,0.00091102,0.0672925,20.9454,23.333,-0.392412,0.0,0.0
3048,761.75,26.1166,27.1372,191.941,101.676,106.733,0.000863587,0.0672957,20.9473,23.323,-0.437823,0.0,0.0
3060,764.75,26.0433,27.1296,191.317,101.687,106.414,0.000806252,0.0674381,20.9485,23.3431,-0.409978,0.0,0.0
3072,767.75,26.4291,27.6111,192.988,101.688,106.398,0.000845406,0.0676408,20.9488,23.243,-0.408532,0.0,0.0
3084,770.75,26.6137,27.4022,196.588,101.66,106.187,0.000844021,0.0676688,20.9489,23.1929,-0.393057,0.0,0.0
3096,773.75,26.7005,28.1338,194.034,101.628,106.337,0.000732738,0.0674769,20.9485,23.0528,-0.40862,0.0,0.0
3108,776.75,27.0023,27.94,192.538,101.552,106.849,0.000701331,0.0676977,20.9482,23.0628,-0.458666,0.0,0.0
3120,779.75,26.7838,27.7689,192.86,101.459,106.096,0.000852051,0.0678099,20.9481,22.9326,-0.403234,0.0,0.0
3132,782.75,26.3418,27.748,190.755,101.345,106.013,0.000983312,0.067775,20.9472,22.9727,-0.406258,0.0,0.0
3144,785.75,26.9594,28.0648,191.606,101.221,105.782,0.000976743,0.0679718,20.9462,22.9026,-0.397655,0.0,0.0
3156,788.75,26.4231,27.5655,189.945,101.074,106.007,0.000802141,0.0681156,20.9458,22.8826,-0.429847,0.0,0.0
3168,791.75,26.5494,27.6139,193.24,100.939,106.134,0.000577821,0.068137,20.9457,22.8225,-0.452824,0.0,0.0
3180,794.75,26.9314,27.732,193.439,100.797,105.442,0.000584188,0.0681659,20.9459,22.8426,-0.406439,0.0,0.0
3192,797.75,26.595,27.9354,185.539,100.685,105.222,0.000781035,0.0681459,20.9464,22.7725,-0.397671,0.0,0.0
3204,800.75,27.0666,28.0149,193.012,100.577,105.199,0.00087415,0.0681572,20.9465,22.6924,-0.405364,0.0,0.0
3216,803.75,26.8803,27.841,200.655,100.479,105.317,0.000914279,0.0681014,20.9465,22.6424,-0.424298,0.0,0.0
3228,806.75,26.2275,27.6398,190.985,100.427,104.713,0.000979208,0.0680037,20.9461,22.5623,-0.37705,0.0,0.0
3240,809.75,26.4903,27.4879,192.194,100.379,104.984,0.00103739,0.0680208,20.946,22.5423,-0.404588,0.0,0.0
3252,812.75,26.3873,27.8149,190.958,100.38,104.92,0.0010001,0.0681689,20.9459,22.4922,-0.399123,0.0,0.0
3264,815.75,27.0758,28.108,192.378,100.403,105.403,0.000718185,0.0678928,20.9459,22.4522,-0.438415,0.0,0.0
3276,818.75,26.3494,27.4492,197.879,100.447,105.352,0.000598674,0.0679245,20.9459,22.4021,-0.430154,0.0,0.0
3288,821.75,26.4226,27.3348,194.878,100.524,104.875,0.000602009,0.0680024,20.9473,22.3521,-0.382253,0.0,0.0
3300,824.75,26.42,27.4374,195.354,100.626,105.342,0.000695708,0.0678341,20.9473,22.1218,-0.41327,0.0,0.0
3312,827.75,26.3621,27.166,193.51,100.732,105.331,0.000750888,0.0680318,20.9463,22.1719,-0.402684,0.0,0.0
3324,830.75,26.8176,27.6518,204.502,100.84,105.938,0.000752644,0.0680939,20.946,22.0117,-0.444982,0.0,0.0
3336,833.75,26.9863,28.1237,190.04,100.961,105.661,0.000880081,0.0681438,20.9459,22.0117,-0.410486,0.0,0.0
3348,836.75,26.3301,27.4573,191.004,101.09,105.772,0.000892529,0.0681003,20.9459,22.0718,-0.408403,0.0,0.0
3360,839.75,27.263,28.0482,194.633,101.192,105.837,0.000854162,0.0681012,20.9459,22.0217,-0.40489,0.0,0.0
3372,842.75,26.5265,27.5453,200.176,101.313,106.41,0.000815793,0.0682488,20.9448,21.9216,-0.442823,0.0,0.0
3384,845.75,26.0271,27.2415,193.574,101.425,106.338,0.000785499,0.0683038,20.9439,21.9517,-0.426712,0.0,0.0
3396,848.75,26.7567,27.9645,189.967,101.532,106.708,0.000861353,0.068326,20.945,21.8716,-0.448565,0.0,0.0
3408,851.75,25.8957,27.1422,200.549,101.613,106.559,0.00105047,0.0685911,20.9441,21.7615,-0.428773,0.0,0.0
3420,854.75,26.685,27.4156,196.616,101.674,106.3,0.00124585,0.0686374,20.9433,21.7415,-0.401368,0.0,0.0
3432,857.75,26.3768,27.2433,200.331,101.698,106.957,0.00125229,0.0687283,20.943,21.7315,-0.454868,0.0,0.0
3444,860.75,26.9123,27.8074,189.96,101.719,106.81,0.00111285,0.0686354,20.943,21.7014,-0.440621,0.0,0.0
3456,863.75,26.8168,27.9558,194.096,101.709,106.703,0.00103203,0.0686235,20.9429,21.5213,-0.432473,0.0,0.0
3468,866.75,26.5686,27.3937,196.989,101.68,106.856,0.000923899,0.0687714,20.9429,21.5112,-0.447881,0.0,0.0
3480,869.75,26.9023,27.8553,192.296,101.641,106.616,0.000785839,0.0692326,20.9415,21.5513,-0.43114,0.0,0.0
3492,872.75,26.8854,27.6525,194.406,101.572,106.886,0.000673315,0.0693999,20.9409,21.5012,-0.460091,0.0,0.0
3504,875.75,26.4331,27.8713,189.342,101.499,106.296,0.000640227,0.0695387,20.9403,21.4512,-0.416625,0.0,0.0
3516,878.75,26.6367,27.878,190.071,101.431,105.956,0.000690267,0.0696375,20.9403,21.3411,-0.393737,0.0,0.0
3528,881.75,26.5127,27.6291,194.635,101.328,106.574,0.000813303,0.0696384,20.9417,21.221,-0.455367,0.0,0.0
3540,884.75,26.3147,27.5121,191.312,101.264,106.475,0.000867964,0.0696013,20.9421,21.2009,-0.452762,0.0,0.0
3552,887.75,26.5932,27.8315,197.103,101.164,105.61,0.000859227,0.0694733,20.9416,21.1709,-0.388055,0.0,0.0
3564,890.75,26.7956,27.7411,191.639,101.083,106.263,0.000671066,0.0695581,20.9399,21.1909,-0.45092,0.0,0.0
3576,893.75,26.2355,27.0975,194.496,101.018,105.883,0.000746978,0.0696023,20.9393,21.1409,-0.424375,0.0,0.0
3588,896.75,26.0797,27.0378,196.078,100.95,105.901,0.000926023,0.0697168,20.9392,21.1008,-0.431885,0.0,0.0
3600,899.75,26.3753,27.0145,193.018,101.021,105.97,0.000814358,0.069928,20.9411,21.0007,-0.431499,0.0,0.0
3612,902.75,26.7881,27.7884,193.941,101.082,105.711,0.000789816,0.0699215,20.9417,20.9207,-0.403948,0.0,0.0
3624,905.75,26.3294,27.298,189.366,101.122,106.146,0.000925986,0.0697512,20.9419,20.9607,-0.437486,0.0,0.0
3636,908.75,26.1357,27.3012,196.238,101.157,105.937,0.00107634,0.0697658,20.942,20.8706,-0.416525,0.0,0.0
3648,911.75,27.2948,28.1135,194.279,101.17,106.386,0.00112161,0.0698158,20.9426,20.8506,-0.453518,0.0,0.0
3660,914.75,26.9913,28.1882,192.617,101.185,106.19,0.000920751,0.0698178,20.9427,20.8106,-0.4355,0.0,0.0
3672,917.75,26.4925,27.9245,192.293,101.175,105.883,0.000874625,0.0697801,20.9428,20.7004,-0.410346,0.0,0.0
3684,920.75,26.3972,27.0669,198.793,101.164,106.274,0.000875037,0.0698894,20.9425,20.6904,-0.444503,0.0,0.0
3696,923.75,26.586,27.495,197.645,101.174,106.409,0.000898795,0.0699992,20.9404,20.4802,-0.455139,0.0,0.0
3708,926.75,26.7378,27.7199,193.911,101.159,105.955,0.00106746,0.0700637,20.9398,20.6104,-0.417864,0.0,0.0
3720,929.75,26.8059,27.6141,192.7,101.14,105.695,0.00101928,0.0701259,20.9397,20.5002,-0.397392,0.0,0.0
3732,932.75,26.5382,27.5403,190.023,101.142,106.052,0.00100217,0.0701318,20.9382,20.4001,-0.427687,0.0,0.0
3744,935.75,26.6213,27.5943,194.476,101.118,106.635,0.00119651,0.0702484,20.9376,20.4001,-0.479202,0.0,0.0
3756,938.75,26.244,27.3514,197.445,101.085,106.448,0.00126267,0.0703221,20.9376,20.3801,-0.466347,0.0,0.0
3768,941.75,26.5795,27.4306,193.239,101.03,106.225,0.00108768,0.0703904,20.939,20.29,-0.45237,0.0,0.0
3780,944.75,26.4638,27.5193,191.772,100.971,106.495,0.000885754,0.070278,20.9401,20.28,-0.480523,0.0,0.0
3792,947.75,26.3871,27.6316,191.875,100.887,105.923,0.000789718,0.0701647,20.9409,20.1899,-0.439393,0.0,0.0
3804,950.75,26.4552,27.9131,198.764,100.815,105.876,0.000898997,0.0700883,20.9412,20.0598,-0.441838,0.0,0.0
3816,953.75,27.0315,27.5545,187.502,100.785,106.275,0.00101404,0.0699916,20.9412,20.0498,-0.478506,0.0,0.0
3828,956.75,26.5762,27.6926,196.785,100.849,105.761,0.00103177,0.0701205,20.9413,20.0798,-0.428965,0.0,0.0
3840,959.75,27.0739,28.231,199.536,100.933,106.19,0.00103921,0.070227,20.9413,20.0098,-0.458004,0.0,0.0
3852,962.75,26.2358,27.357,196.652,101.009,105.882,0.00113322,0.0702596,20.9413,19.9897,-0.424998,0.0,0.0
3864,965.75,26.4732,27.2496,194.714,101.094,106.293,0.00115574,0.0703635,20.9413,19.8997,-0.452466,0.0,0.0
3876,968.75,26.5269,27.3627,197.787,101.175,106.02,0.000974076,0.0705103,20.9407,19.8997,-0.422016,0.0,0.0
3888,971.75,26.7325,27.2709,193.708,101.288,106.149,0.000782199,0.0704942,20.9402,19.8296,-0.422873,0.0,0.0
3900,974.75,26.4742,27.2903,190.613,101.369,106.39,0.00098124,0.070528,20.9398,19.7595,-0.436127,0.0,0.0
3912,977.75,26.4639,27.6642,192.147,101.456,106.642,0.00111444,0.0706045,20.9383,19.6894,-0.449725,0.0,0.0
3924,980.75,27.1831,28.2442,195.05,101.528,106.621,0.000994488,0.0705354,20.9386,19.6194,-0.441518,0.0,0.0
3936,983.75,26.5137,27.3861,196.962,101.59,107.054,0.000868331,0.0705315,20.9385,19.5493,-0.47262,0.0,0.0
3948,986.75,26.3796,27.6318,193.454,101.645,106.67,0.000942275,0.0706471,20.9373,19.5393,-0.435344,0.0,0.0
3960,989.75,26.8206,27.7005,190.791,101.657,106.934,0.00102724,0.0707239,20.9369,19.3691,-0.456572,0.0,0.0
3972,992.75,26.3892,27.3822,192.357,101.661,106.619,0.0010046,0.0706436,20.9373,19.3891,-0.429608,0.0,0.0
3984,995.75,26.3928,27.0335,193.116,101.639,107.056,0.000751798,0.0707771,20.938,19.279,-0.468444,0.0,0.0
3996,998.75,26.6298,27.0645,191.791,101.592,107.003,0.000642293,0.0708397,20.9384,19.3591,-0.468155,0.0,0.0
4008,1001.75,25.9931,26.8429,193.744,101.539,106.551,0.000719508,0.0708897,20.9385,19.3091,-0.434681,0.0,0.0
4020,1004.75,26.5084,27.515,193.328,101.448,106.476,0.000819383,0.0710561,20.9385,19.259,-0.436379,0.0,0.0
4032,1007.75,26.8403,27.7339,188.688,101.346,106.399,0.00079579,0.0712479,20.9391,19.1389,-0.438909,0.0,0.0
4044,1010.75,26.7379,27.8557,194.754,101.237,106.43,0.000711135,0.071108,20.9393,19.0889,-0.451291,0.0,0.0
4056,1013.75,26.9565,27.879,190.9,101.107,106.592,0.000761577,0.0713573,20.9394,19.0688,-0.476622,0.0,0.0
4068,1016.75,26.916,27.9117,193.057,100.978,106.48,0.000859125,0.0714173,20.9388,19.0688,-0.478653,0.0,0.0
4080,1019.75,26.4423,27.632,195.982,100.881,105.73,0.000936264,0.0714236,20.9383,18.9187,-0.423516,0.0,0.0
4092,1022.75,26.5777,27.4029,194.856,100.751,105.705,0.00103428,0.0713445,20.9382,18.7986,-0.433042,0.0,0.0
4104,1025.75,26.6996,27.697,195.594,100.64,105.749,0.00107571,0.0711958,20.9381,18.8586,-0.446722,0.0,0.0
4116,1028.75,26.82,27.6526,191.941,100.554,106.135,0.00124991,0.0712394,20.9381,18.8086,-0.487286,0.0,0.0
4128,1031.75,26.8165,27.8595,196.835,100.506,105.907,0.0012269,0.0712462,20.9381,18.7585,-0.472195,0.0,0.0
4140,1034.75,26.6219,27.4501,199.623,100.412,106.207,0.00089734,0.0713865,20.9365,18.7285,-0.506205,0.0,0.0
4152,1037.75,27.2272,27.8325,192.709,100.369,105.618,0.000712855,0.0714067,20.9361,18.7385,-0.459913,0.0,0.0
4164,1040.75,27.1899,28.0498,191.353,100.344,105.686,0.000751924,0.071471,20.9379,18.6384,-0.467976,0.0,0.0
4176,1043.75,26.6048,27.3781,194.872,100.367,105.454,0.000884865,0.0714372,20.9391,18.5884,-0.446071,0.0,0.0
4188,1046.75,26.5087,27.4711,194.351,100.402,105.54,0.00101501,0.0714123,20.9384,18.5683,-0.45021,0.0,0.0
4200,1049.75,26.3976,27.3859,197.076,100.467,105.57,0.000924361,0.071499,20.9372,18.4782,-0.446958,0.0,0.0
4212,1052.75,26.4478,27.7502,194.803,100.567,105.788,0.000829302,0.0715915,20.9383,18.4082,-0.45663,0.0,0.0
4224,1055.75,26.7528,27.924,190.003,100.701,106.411,0.000710239,0.0716955,20.9386,18.3681,-0.497491,0.0,0.0
4236,1058.75,26.8237,27.9887,190.168,100.855,106.507,0.0007168,0.0717157,20.9375,18.228,-0.491945,0.0,0.0
4248,1061.75,26.9806,27.8772,198.491,100.995,106.391,0.000828856,0.0716324,20.938,18.208,-0.469595,0.0,0.0
4260,1064.75,26.5694,27.6492,192.795,101.137,106.505,0.000978875,0.0712596,20.9387,18.228,-0.46659,0.0,0.0
4272,1067.75,26.9536,27.8243,197.307,101.255,106.751,0.00102621,0.070925,20.9389,18.218,-0.476915,0.0,0.0
4284,1070.75,26.6307,27.9986,193.05,101.393,107.172,0.000841587,0.0709596,20.9389,18.0979,-0.500015,0.0,0.0
4296,1073.75,26.6662,27.5996,192.692,101.5,106.944,0.000684375,0.0709237,20.9389,18.0779,-0.471315,0.0,0.0
4308,1076.75,27.1506,28.0425,198.171,101.579,106.759,0.000840851,0.0711397,20.9389,17.9778,-0.448692,0.0,0.0
4320,1079.75,26.8136,27.7027,193.888,101.643,107.534,0.000979213,0.0714616,20.9389,17.8676,-0.508274,0.0,0.0
4332,1082.75,26.7535,27.6487,189.537,101.682,107.506,0.000938545,0.0715303,20.9389,17.9277,-0.502499,0.0,0.0
4344,1085.75,26.6754,27.8587,194.9,101.707,106.813,0.00101234,0.0715114,20.9386,17.8977,-0.441906,0.0,0.0
4356,1088.75,26.9004,27.8214,192.138,101.715,107.325,0.00109779,0.0716989,20.9381,17.8076,-0.484377,0.0,0.0
4368,1091.75,26.6984,27.6607,192.958,101.705,107.018,0.000965751,0.0716747,20.9374,17.8476,-0.459416,0.0,0.0
4380,1094.75,26.7735,27.8546,197.081,101.705,106.968,0.000793189,0.0717398,20.9374,17.6875,-0.455171,0.0,0.0
4392,1097.75,27.1729,27.551,189.028,101.69,107.007,0.00074625,0.0718268,20.9364,17.6374,-0.459791,0.0,0.0
4404,1100.75,26.5545,27.8813,196.113,101.638,107.1,0.000879001,0.0717823,20.9357,17.6374,-0.472285,0.0,0.0
4416,1103.75,26.8017,27.7304,189.229,101.565,106.902,0.000923138,0.071917,20.9359,17.6174,-0.461995,0.0,0.0
4428,1106.75,26.9308,27.8274,195.633,101.487,107.066,0.00104159,0.0720465,20.936,17.4472,-0.482837,0.0,0.0
4440,1109.75,26.6285,27.6137,193.917,101.41,107.237,0.00102541,0.0722646,20.9368,17.4672,-0.504036,0.0,0.0
4452,1112.75,26.547,27.8448,195.336,101.32,106.861,0.00105042,0.0722138,20.9362,17.3571,-0.480373,0.0,0.0
4464,1115.75,26.7285,27.7716,187.348,101.239,106.4,0.00107964,0.0719151,20.9356,17.2771,-0.448556,0.0,0.0
4476,1118.75,26.9843,27.9297,193.906,101.17,106.735,0.000958951,0.0718309,20.936,17.3071,-0.483098,0.0,0.0
4488,1121.75,26.686,27.5096,193.798,101.138,106.594,0.000967127,0.071801,20.9376,17.2671,-0.473952,0.0,0.0
4500,1124.75,26.4454,27.6731,195.717,101.097,106.806,0.000912747,0.0719174,20.9392,17.1269,-0.495609,0.0,0.0
4512,1127.75,27.0274,27.7045,194.849,101.011,106.492,0.000758432,0.0720074,20.9404,17.1269,-0.476672,0.0,0.0
4524,1130.75,27.1751,27.7713,194.908,101.05,106.698,0.000898004,0.0719211,20.9395,17.0168,-0.490724,0.0,0.0
4536,1133.75,26.525,27.5758,193.666,101.143,106.464,0.00118143,0.0719862,20.9385,17.0368,-0.462556,0.0,0.0
4548,1136.75,26.7151,27.6088,199.174,101.208,106.862,0.00118699,0.0717444,20.9382,16.9968,-0.490445,0.0,0.0
4560,1139.75,26.5903,27.5283,190.554,101.239,107.033,0.00102818,0.0718426,20.9381,16.9467,-0.502082,0.0,0.0
4572,1142.75,26.7176,27.6737,194.552,101.232,106.574,0.000823696,0.0719424,20.9381,16.8066,-0.463961,0.0,0.0
4584,1145.75,26.9346,27.8145,190.635,101.197,106.809,0.00077721,0.0720606,20.9381,16.8266,-0.486903,0.0,0.0
4596,1148.75,26.9799,28.0334,187.305,101.206,106.858,0.000975287,0.0722231,20.9368,16.7966,-0.49028,0.0,0.0
4608,1151.75,26.7048,27.4918,187.89,101.165,106.997,0.00118243,0.0722363,20.9361,16.7465,-0.505635,0.0,0.0
4620,1154.75,26.9754,27.9543,193.554,101.139,106.55,0.00135831,0.0723174,20.9371,16.6264,-0.470179,0.0,0.0
4632,1157.75,27.0643,27.8099,195.544,101.108,106.771,0.00124886,0.0725485,20.9363,16.5964,-0.491642,0.0,0.0
4644,1160.75,26.8658,27.8829,192.782,101.067,106.639,0.00119013,0.0723973,20.9361,16.6564,-0.484139,0.0,0.0
4656,1163.75,26.8108,27.5581,190.939,101.01,106.672,0.0012594,0.0724802,20.9364,16.6064,-0.492045,0.0,0.0
4668,1166.75,26.9553,27.9587,195.619,100.924,106.605,0.00115056,0.0726909,20.9367,16.4763,-0.494036,0.0,0.0
4680,1169.75,26.918,27.9259,194.314,100.822,106.08,0.00107616,0.0727876,20.9368,16.4362,-0.458696,0.0,0.0
4692,1172.75,26.8208,28.0224,193.086,100.805,106.283,0.00113113,0.0728837,20.9368,16.4162,-0.477391,0.0,0.0
4704,1175.75,26.7734,27.9719,195.849,100.883,106.13,0.001011,0.0727671,20.9367,16.4262,-0.457474,0.0,0.0
4716,1178.75,26.561,28.54,188.427,100.951,106.553,0.000867317,0.0729386,20.9371,16.3161,-0.487273,0.0,0.0
4728,1181.75,26.8603,27.6579,198.607,101.034,106.287,0.000880636,0.0728362,20.9372,16.246,-0.457215,0.0,0.0
4740,1184.75,26.7017,27.6152,193.553,101.134,106.903,0.000789116,0.0726422,20.9373,16.196,-0.500481,0.0,0.0
4752,1187.75,26.925,27.7788,190.107,101.223,106.075,0.000797906,0.0727182,20.9373,16.206,-0.422432,0.0,0.0
4764,1190.75,26.9502,27.7127,192.083,101.327,106.667,0.000960775,0.0725075,20.9386,16.176,-0.463399,0.0,0.0
4776,1193.75,26.7303,27.6331,195.348,101.408,107.041,0.00101963,0.0723443,20.9393,16.0358,-0.487699,0.0,0.0
4788,1196.75,26.6672,27.663,195.71,101.473,107.105,0.000931894,0.0723978,20.9395,16.0058,-0.487279,0.0,0.0
4800,1199.75,26.8652,27.8182,196.004,101.535,106.988,0.000958644,0.0722445,20.9394,15.9457,-0.471937,0.0,0.0
4812,1202.75,25.6267,26.2976,195.713,101.584,107.134,0.00102427,0.0720423,20.9391,15.8156,-0.4799,0.0,0.0
4824,1205.75,25.2807,25.9516,190.463,101.619,107.241,0.00113823,0.0720517,20.939,15.8657,-0.48572,0.0,0.0
4836,1208.75,25.4065,26.5044,194.046,101.649,107.504,0.00123455,0.0719881,20.939,15.8256,-0.505245,0.0,0.0
4848,1211.75,25.8882,26.492,197.506,101.68,107.065,0.00110877,0.0723181,20.9406,15.7255,-0.465578,0.0,0.0
4860,1214.75,25.556,26.4709,190.861,101.68,107.493,0.000845963,0.0725131,20.9396,15.6454,-0.501558,0.0,0.0
4872,1217.75,25.6247,26.2605,190.403,101.695,107.43,0.000907847,0.0725141,20.9383,15.6555,-0.494978,0.0,0.0
4884,1220.75,25.3236,26.4932,192.93,101.697,107.323,0.0010575,0.0725446,20.9371,15.6054,-0.485696,0.0,0.0
4896,1223.75,25.8132,26.7188,194.546,101.668,107.258,0.00101551,0.0726731,20.9381,15.5353,-0.482903,0.0,0.0
4908,1226.75,25.1857,26.1664,190.654,101.64,107.598,0.0011046,0.0726395,20.9387,15.4853,-0.513894,0.0,0.0
4920,1229.75,25.5614,26.4612,197.758,101.6,107.41,0.00120655,0.072586,20.9389,15.4252,-0.501659,0.0,0.0
4932,1232.75,26.0104,26.7376,194.411,101.553,107.39,0.000964694,0.0725388,20.9389,15.4352,-0.504168,0.0,0.0
4944,1235.75,25.5635,26.3122,193.731,101.506,107.636,0.000752194,0.0724647,20.9389,15.3452,-0.528995,0.0,0.0
4956,1238.75,25.4515,25.9411,194.391,101.474,107.189,0.000606675,0.0725145,20.9389,15.2851,-0.494322,0.0,0.0
4968,1241.75,25.5773,26.3016,194.285,101.367,107.493,0.000732191,0.0725558,20.9389,15.235,-0.529317,0.0,0.0
4980,1244.75,25.9241,26.4562,194.181,101.284,107.128,0.00104734,0.0726961,20.9389,15.2451,-0.506069,0.0,0.0
4992,1247.75,25.2194,26.406,201.512,101.203,107.026,0.00118469,0.0727449,20.9385,15.1349,-0.504678,0.0,0.0
5004,1250.75,25.6773,26.2004,195.62,101.142,106.786,0.00117212,0.0728073,20.9393,15.0449,-0.489871,0.0,0.0
5016,1253.75,25.5078,26.4014,194.943,101.065,106.726,0.00126285,0.0728137,20.9402,14.9748,-0.491685,0.0,0.0
5028,1256.75,25.3709,26.5422,194.421,100.993,106.63,0.00109371,0.0725225,20.9405,14.9848,-0.489976,0.0,0.0
5040,1259.75,24.8868,25.7443,189.961,100.901,106.577,0.000984029,0.0726171,20.9411,14.9548,-0.493713,0.0,0.0
5052,1262.75,25.0295,26.0988,197.908,100.825,106.6,0.000995272,0.072701,20.9414,14.8847,-0.502486,0.0,0.0
5064,1265.75,25.6441,26.2983,189.265,100.755,106.446,0.00118079,0.0727144,20.9399,14.8346,-0.495682,0.0,0.0
5076,1268.75,25.4082,26.3355,192.989,100.693,106.102,0.00134189,0.0729841,20.9392,14.7946,-0.472043,0.0,0.0
5088,1271.75,25.3524,26.2386,191.197,100.63,106.432,0.00117836,0.0732803,20.9379,14.7045,-0.505639,0.0,0.0
5100,1274.75,25.3224,26.2223,194.804,100.593,106.722,0.000871225,0.0733307,20.9375,14.5844,-0.533537,0.0,0.0
5112,1277.75,25.4955,26.2412,194.824,100.545,106.43,0.000662828,0.0733391,20.9373,14.6044,-0.513154,0.0,0.0
5124,1280.75,25.4802,26.1193,190.046,100.508,106.485,0.000756306,0.0731295,20.9373,14.5143,-0.521172,0.0,0.0
5136,1283.75,25.341,26.2088,200.124,100.481,106.494,0.000931394,0.0729666,20.9373,14.5043,-0.524331,0.0,0.0
5148,1286.75,25.535,26.2686,196.803,100.456,106.533,0.0010987,0.0728785,20.9373,14.4443,-0.529928,0.0,0.0
5160,1289.75,25.5418,26.7906,196.109,100.448,105.742,0.00106568,0.072945,20.9373,14.4142,-0.463365,0.0,0.0
5172,1292.75,25.291,26.4897,192.271,100.441,106.041,0.000822934,0.0730632,20.9371,14.4142,-0.489457,0.0,0.0
5184,1295.75,25.5659,26.4077,195.582,100.463,105.927,0.000721333,0.0733539,20.9369,14.3442,-0.477756,0.0,0.0
5196,1298.75,25.3634,26.2724,191.875,100.494,106.235,0.000915534,0.0735436,20.9365,14.224,-0.501218,0.0,0.0
5208,1301.75,25.9672,26.9444,193.992,100.537,105.846,0.00100261,0.0736547,20.9363,14.184,-0.464171,0.0,0.0
5220,1304.75,25.6818,26.333,195.225,100.614,106.629,0.000982827,0.0736861,20.9363,14.1139,-0.523813,0.0,0.0
5232,1307.75,25.6037,26.3601,194.405,100.661,106.487,0.000976388,0.0735774,20.9363,13.9638,-0.507527,0.0,0.0
5244,1310.75,25.6904,26.5032,191.568,100.737,106.44,,0.0734937,,13.9938,-0.496791,0.0,0.0
5256,1313.75,25.5192,26.5866,191.493,100.818,106.591,,,,13.9338,-0.502293,0.0,0.0
5268,1316.75,26.051,26.7782,185.642,100.911,106.776,,,,13.9037,-0.50974,0.0,0.0
5280,1319.75,25.3894,26.6216,190.748,101.01,106.652,,,,13.7936,-0.490314,0.0,0.0
5285,1321,25.4007,26.6709,192.363,101.037,107.023,,,,13.8337,-0.519312,0.0,0.0