File: 01_Data/PMMA/Cone/PMMA_Cone_HF50Scan_210826_R3.csv
Names,Time,Stack TC,Smoke TC,Exh Press,Smoke Comp,Smoke Meas,CO Meter,CO2 Meter,O2 Meter,Sample Mass,Ext Coeff,Start Test,Flame Verif
Chan Gain,,500,500,1,1,1,1,1,1,1,1,1.0,1.0
Offset,,0,0,0.141443,0,0,0,0,0,0,0,0.0,0.0
Gain,,1,1,25.011,13.1742,16.6938,1,1,1,1.00099,1.02845,1.0,1.0
Units,sec,C,C,Pa,%,%,%,%,%,g,/m,,
Baseline,,45.8888,47.5495,164.507,101.322,111.955,0.00151943,0.0474149,20.9874,-507.06,-0.900313,,
3,0.5,43.3692,45.2636,168.631,100.925,111.247,0.00136748,0.0486302,20.9882,32.2318,-0.878498,0.0,0.0
6,1.25,42.7512,44.3522,166.274,100.933,111.746,0.00129555,0.0487667,20.9881,32.2318,-0.918063,0.0,0.0
9,2,42.4629,43.9649,163.001,100.939,111.633,0.00120311,0.0488862,20.9881,32.1918,-0.908465,0.0,0.0
12,2.75,42.5444,44.1758,162.585,100.934,111.563,0.00113572,0.0489872,20.9881,32.2118,-0.903249,0.0,0.0
15,3.5,42.3929,44.3202,167.287,100.945,111.768,0.00109678,0.0490669,20.9881,32.2018,-0.918789,0.0,0.0
18,4.25,42.96,43.838,163.11,100.928,111.457,0.00107275,0.0490251,20.9881,32.1317,-0.895215,0.0,0.0
21,5,42.3899,44.3998,162.519,100.942,111.339,0.00106796,0.0489652,20.9881,32.0517,-0.884463,0.0,0.0
24,5.75,43.1064,44.8224,165.381,100.968,111.695,0.00107085,0.0488711,20.9881,32.0416,-0.910936,0.0,0.0
27,6.5,42.6079,44.2942,163.43,100.957,111.071,0.00107567,0.0488025,20.9881,32.0517,-0.861317,0.0,0.0
30,7.25,43.1131,44.7647,160.915,100.949,111.711,0.00108828,0.0487245,20.9881,32.1217,-0.913864,0.0,0.0
33,8,42.7725,44.4365,165.82,100.969,111.232,0.00109747,0.048641,20.9881,32.1818,-0.87327,0.0,0.0
36,8.75,43.2685,44.4362,167.548,100.991,111.721,0.00113147,0.0485549,20.9881,32.2018,-0.910911,0.0,0.0
39,9.5,42.945,44.4449,166.301,100.981,111.8,0.00119073,0.0484501,20.9881,32.2118,-0.918187,0.0,0.0
42,10.25,43.1377,44.4544,167.514,100.979,111.563,0.00128825,0.0483558,20.9881,32.2018,-0.89919,0.0,0.0
45,11,43.1291,44.8089,167.106,100.995,111.725,0.0013897,0.0482272,20.9881,32.1918,-0.91088,0.0,0.0
48,11.75,43.4553,44.5237,163.113,101.007,111.772,0.00148668,0.0481408,20.9881,32.2118,-0.913592,0.0,0.0
51,12.5,42.7292,45.1124,162.875,101.009,111.616,0.00157016,0.0480904,20.9881,32.2218,-0.900893,0.0,0.0
54,13.25,42.9596,44.8801,161.997,101.006,111.33,0.00162974,0.0480537,20.9883,32.2118,-0.877972,0.0,0.0
57,14,42.837,44.6526,163.718,101.01,111.156,0.00167262,0.048007,20.9889,32.1618,-0.863483,0.0,0.0
60,14.75,42.8792,45.1495,165.345,101.03,111.613,0.00170321,0.0479729,20.9893,32.1517,-0.898742,0.0,0.0
63,15.5,43.1101,45.5481,164.325,101.028,111.401,0.00172436,0.0479039,20.9896,32.1217,-0.881812,0.0,0.0
66,16.25,42.9952,45.1722,163.862,101.04,111.428,0.00173641,0.047778,20.9898,32.1718,-0.882879,0.0,0.0
69,17,43.5491,45.4415,163.478,101.039,111.453,0.00173943,0.0477002,20.9898,32.0717,-0.884972,0.0,0.0
72,17.75,43.4522,45.5248,164.146,101.055,111.936,0.001725,0.0476494,20.9897,32.0617,-0.922509,0.0,0.0
75,18.5,43.3637,45.1604,172.659,101.059,111.667,0.00169865,0.0476125,20.9896,32.0416,-0.900517,0.0,0.0
78,19.25,43.5497,45.5697,164.491,101.063,111.504,0.00166447,0.0474857,20.9895,32.0517,-0.886947,0.0,0.0
81,20,43.5062,45.1556,163.185,101.073,111.754,0.00162133,0.0474227,20.9895,32.0617,-0.906337,0.0,0.0
84,20.75,43.6084,45.0821,164.919,101.07,111.893,0.00159115,0.0474272,20.9895,31.9415,-0.917732,0.0,0.0
87,21.5,43.303,45.2799,165.284,101.085,111.727,0.0015697,0.0474505,20.9894,31.9616,-0.903009,0.0,0.0
90,22.25,43.3557,45.5802,166.763,101.108,111.806,0.00157323,0.0474114,20.9894,32.0416,-0.907368,0.0,0.0
93,23,43.0224,45.2476,164.285,101.091,111.449,0.00159408,0.0473517,20.9894,32.0517,-0.880018,0.0,0.0
96,23.75,43.4037,45.427,166.909,101.099,111.858,0.00163598,0.0472956,20.9894,32.0717,-0.91235,0.0,0.0
99,24.5,43.5031,45.4348,162.791,101.118,111.81,0.00168265,0.0472687,20.9894,32.0717,-0.906842,0.0,0.0
102,25.25,43.4525,45.1744,162.668,101.11,111.752,0.00173076,0.047255,20.9894,32.0717,-0.902801,0.0,0.0
105,26,43.4943,45.3467,163.146,101.123,111.686,0.00177581,0.0472651,20.9894,32.0817,-0.896262,0.0,0.0
108,26.75,43.1647,45.0233,164.685,101.134,111.791,0.00181545,0.0472864,20.9885,32.1417,-0.903845,0.0,0.0
111,27.5,43.3936,45.4473,159.994,101.149,111.554,0.00185312,0.0475068,20.9877,32.1017,-0.883267,0.0,0.0
114,28.25,43.5954,45.5211,164.994,101.16,111.732,0.00189557,0.0480076,20.9867,32.1417,-0.896749,0.0,0.0
117,29,43.875,45.7853,163.604,101.166,111.619,0.00196753,0.051772,20.9831,32.1217,-0.887034,0.0,0.0
120,29.75,43.6347,45.67,165.772,101.165,111.24,0.00206045,0.0597047,20.9758,32.0617,-0.856418,0.0,1.0
123,30.5,43.9879,46.1411,156.826,101.202,111.303,0.00216747,0.071882,20.9561,31.9916,-0.858242,0.0,1.0
126,31.25,44.0547,46.4038,156.459,101.195,111.333,0.0023298,0.0890858,20.9237,31.9516,-0.861359,0.0,1.0
129,32,44.4082,47.0011,157.346,101.205,110.148,0.00251766,0.115866,20.879,31.8815,-0.763932,0.0,1.0
132,32.75,44.6781,47.4966,152.541,101.218,108.408,0.00272769,0.160157,20.8235,31.8515,-0.619069,0.0,1.0
135,33.5,45.1993,48.4368,144.818,101.24,108.12,0.0029551,0.207654,20.7542,31.7914,-0.593155,0.0,1.0
138,34.25,45.9852,49.8099,150.081,101.253,108.02,0.00327397,0.256293,20.6857,31.6112,-0.583666,0.0,1.0
141,35,44.8918,49.4225,149.678,101.272,106.748,0.00350643,0.304624,20.6281,31.5411,-0.475153,0.0,0.0
144,35.75,46.2281,50.9748,142.926,101.294,106.107,0.00390538,0.359466,20.5681,31.4911,-0.41882,0.0,0.0
147,36.5,47.6271,52.6607,142.526,101.306,105.364,0.00426897,0.412622,20.5166,31.4611,-0.354319,0.0,0.0
150,37.25,48.5045,54.877,140.041,101.319,103.945,0.00465842,0.45699,20.4541,31.3009,-0.230909,0.0,0.0
153,38,49.9398,56.8636,142.291,101.321,103.859,0.00506387,0.510433,20.4085,31.1808,-0.223254,0.0,0.0
156,38.75,51.1941,58.3977,139.056,101.348,103.183,0.00541127,0.549393,20.3591,31.0707,-0.16186,0.0,0.0
159,39.5,52.0268,60.985,131.057,101.374,101.054,0.00574445,0.599954,20.3163,31.0006,0.028476,0.0,0.0
162,40.25,53.4794,62.4344,133.619,101.402,101.895,0.00602141,0.641564,20.2558,30.8605,-0.0437526,0.0,0.0
165,41,55.2826,65.2374,132.758,101.416,101.127,0.00627385,0.680019,20.1994,30.7604,0.0256946,0.0,0.0
168,41.75,56.4754,67.2205,136.46,101.427,101.318,0.00651306,0.708054,20.153,30.5702,0.00975122,0.0,0.0
171,42.5,57.5261,69.7236,138.996,101.457,101.639,0.00671096,0.749168,20.0967,30.4601,-0.0161823,0.0,0.0
174,43.25,59.6685,71.772,132.416,101.482,102.191,0.00691483,0.786318,20.0489,30.39,-0.0628061,0.0,0.0
177,44,60.8302,74.3766,130.912,101.488,102.309,0.00721328,0.816462,20.0026,30.2499,-0.0726171,0.0,0.0
180,44.75,61.6138,75.4328,134.205,101.508,100.844,0.00751282,0.849458,19.9583,30.1197,0.0591864,0.0,0.0
183,45.5,63.5242,78.0068,127.232,101.53,100.431,0.00780128,0.878677,19.9101,29.9796,0.0981794,0.0,0.0
186,46.25,65.4717,80.5521,127.403,101.545,101.488,0.00807422,0.908809,19.87,29.7794,0.00511877,0.0,0.0
189,47,66.0817,82.4268,125.386,101.565,100.897,0.00832923,0.938802,19.8233,29.5392,0.0595454,0.0,0.0
192,47.75,67.5364,84.1724,124.066,101.578,98.7479,0.00855626,0.96663,19.786,29.359,0.254948,0.0,0.0
195,48.5,69.2044,86.8577,130.468,101.594,99.4072,0.00876305,0.991265,19.7533,29.2289,0.196314,0.0,0.0
198,49.25,70.4924,89.1631,130.158,101.618,100.212,0.00895444,1.01486,19.7219,29.0387,0.125664,0.0,0.0
201,50,71.35,90.939,120.93,101.648,99.6797,0.00914227,1.03656,19.699,28.9986,0.176394,0.0,0.0
204,50.75,72.8422,93.1728,133.076,101.656,99.4393,0.0093618,1.06008,19.6654,28.8084,0.198862,0.0,0.0
207,51.5,74.2525,94.8039,129.175,101.678,97.1676,0.0096245,1.09082,19.6319,28.5782,0.40938,0.0,0.0
210,52.25,75.1745,96.4325,132.416,101.696,99.0144,0.00998413,1.11902,19.584,28.4281,0.24106,0.0,0.0
213,53,76.3302,98.3765,117.114,101.716,97.5431,0.0102993,1.15952,19.5352,28.2779,0.377904,0.0,0.0
216,53.75,78.6612,101.209,126.157,101.721,96.6673,0.0106898,1.19544,19.4816,28.1578,0.459693,0.0,0.0
219,54.5,79.4335,103.233,119.019,101.734,96.8935,0.011086,1.23255,19.4293,27.9376,0.439785,0.0,0.0
222,55.25,81.0796,105.726,118.594,101.763,97.0326,0.0114813,1.27176,19.3817,27.7174,0.429447,0.0,0.0
225,56,82.2357,107.533,116.141,101.771,97.0392,0.0118702,1.30998,19.3276,27.6173,0.429544,0.0,0.0
228,56.75,84.2056,110.41,113.827,101.785,96.3408,0.0122349,1.3477,19.2881,27.4071,0.49596,0.0,0.0
231,57.5,85.4132,112.531,113.667,101.794,95.5858,0.0125186,1.38499,19.2543,27.1969,0.567687,0.0,0.0
234,58.25,86.5678,114.773,117.274,101.81,95.519,0.0128957,1.42202,19.2153,26.9866,0.57545,0.0,0.0
237,59,88.1189,117.226,116.024,101.829,96.0005,0.0132548,1.4532,19.1699,26.7564,0.531768,0.0,0.0
240,59.75,89.6116,119.348,113.752,101.833,96.2103,0.0136145,1.49002,19.1263,26.4962,0.51242,0.0,0.0
243,60.5,91.4165,121.644,114.149,101.846,96.2302,0.013977,1.50883,19.0837,26.316,0.511662,0.0,0.0
246,61.25,92.6778,124.598,115.448,101.867,94.9922,0.0142663,1.5425,19.042,26.0557,0.630398,0.0,0.0
249,62,94.2204,126.54,116.708,101.879,95.4721,0.0145316,1.57117,19.0116,25.9356,0.586004,0.0,0.0
252,62.75,95.9754,128.865,110.685,101.888,93.848,0.0147251,1.5991,18.9726,25.6854,0.741578,0.0,0.0
255,63.5,97.3977,131.029,112.615,101.893,93.0833,0.0149148,1.63087,18.9358,25.4251,0.81578,0.0,0.0
258,64.25,98.7896,133.466,109.183,101.897,94.0207,0.0150955,1.66054,18.9054,25.1949,0.725739,0.0,0.0
261,65,99.9282,135.244,115.944,101.917,95.2536,0.0152999,1.68496,18.8726,25.0347,0.609989,0.0,0.0
264,65.75,101.268,137.277,116.113,101.934,94.5587,0.0155934,1.70985,18.842,24.8145,0.677574,0.0,0.0
267,66.5,102.971,139.691,122.539,101.933,95.0936,0.0159118,1.73102,18.8098,24.5542,0.626612,0.0,0.0
270,67.25,103.987,140.9,120.241,101.946,93.0049,0.0161884,1.75913,18.7741,24.294,0.828085,0.0,0.0
273,68,105.509,143.002,110.036,101.965,93.6697,0.0165668,1.78456,18.7353,24.0938,0.765532,0.0,0.0
276,68.75,106.734,145.318,105.171,101.971,93.6193,0.0169449,1.81155,18.6974,23.8235,0.770923,0.0,0.0
279,69.5,108.234,147.458,121.372,101.974,93.1714,0.017264,1.84104,18.6626,23.6133,0.814466,0.0,0.0
282,70.25,109.475,149.614,109.01,101.978,93.712,0.0176428,1.86886,18.6289,23.313,0.762634,0.0,0.0
285,71,111.238,151.444,115.982,101.994,93.5046,0.0179824,1.89567,18.6008,23.1529,0.784004,0.0,0.0
288,71.75,112.32,153.512,106.389,101.99,92.5193,0.0183387,1.92176,18.5672,22.9126,0.879216,0.0,0.0
291,72.5,113.424,155.605,103.29,102.007,91.7516,0.0187631,1.9475,18.5338,22.6223,0.955883,0.0,0.0
294,73.25,114.904,157.709,109.482,102.007,91.3288,0.0191379,1.96912,18.5058,22.3521,0.997521,0.0,0.0
297,74,115.797,158.981,123.323,102.021,92.8984,0.0195921,1.99356,18.4772,22.1819,0.845105,0.0,0.0
300,74.75,117.023,160.661,99.4847,102.023,93.3956,0.0200417,2.01504,18.4419,21.9116,0.797124,0.0,0.0
303,75.5,118.434,163.135,116.024,102.031,92.5586,0.0205676,2.03696,18.4044,21.7114,0.879053,0.0,0.0
306,76.25,119.287,163.98,117.883,102.037,94.4828,0.0210947,2.0644,18.3659,21.4111,0.693889,0.0,0.0
309,77,120.386,166.044,104.898,102.046,92.9646,0.0215402,2.09404,18.3276,21.1609,0.84088,0.0,0.0
312,77.75,121.654,168.195,106.031,102.044,92.2835,0.0220162,2.12475,18.2938,20.9407,0.906974,0.0,0.0
315,78.5,122.672,169.732,97.7879,102.06,93.1185,0.0224276,2.15565,18.2594,20.6904,0.82717,0.0,0.0
318,79.25,123.914,171.838,98.2825,102.05,92.7583,0.0228934,2.19005,18.2241,20.3801,0.861244,0.0,0.0
321,80,125.814,174.063,92.8182,102.054,92.688,0.0233055,2.21887,18.1941,20.1599,0.868404,0.0,0.0
324,80.75,126.947,175.939,96.7819,102.075,90.8759,0.0237301,2.2463,18.1622,19.7895,1.04841,0.0,0.0
327,81.5,128.517,177.885,107.494,102.067,92.4608,0.024241,2.27408,18.1289,19.4993,0.891755,0.0,0.0
330,82.25,129.855,180.034,109.745,102.077,91.398,0.0247536,2.30178,18.0933,19.199,0.996935,0.0,0.0
333,83,130.569,181.587,101.023,102.071,92.4674,0.0251871,2.32902,18.0555,18.9487,0.891465,0.0,0.0
336,83.75,131.375,183.407,108.562,102.085,91.0939,0.0257448,2.36198,18.0066,18.7485,1.02772,0.0,0.0
339,84.5,133.193,185.442,84.6558,102.09,91.6212,0.0262546,2.40038,17.971,18.4682,0.976038,0.0,0.0
342,85.25,134.385,187.392,101.157,102.085,90.0363,0.0268027,2.44341,17.933,18.1579,1.13307,0.0,0.0
345,86,135.716,189.25,99.6755,102.09,90.3302,0.0273059,2.4923,17.8847,17.8476,1.10406,0.0,0.0
348,86.75,136.846,191.639,126.456,102.102,91.2697,0.0278499,2.54238,17.8225,17.5974,1.01182,0.0,0.0
351,87.5,138.179,194.16,93.2632,102.089,91.2906,0.0284207,2.59081,17.7657,17.207,1.00855,0.0,0.0
354,88.25,140.053,196.682,99.1053,102.096,90.7001,0.0289127,2.62612,17.7194,16.9367,1.06773,0.0,0.0
357,89,141.381,198.549,95.7637,102.097,91.3252,0.0294013,2.66742,17.6656,16.5964,1.00591,0.0,0.0
360,89.75,142.602,200.703,117.211,102.11,90.7006,0.0300183,2.70078,17.6193,16.3161,1.06895,0.0,0.0
363,90.5,144.036,203.116,102.787,102.119,90.59,0.0305469,2.72648,17.5826,15.9658,1.08074,0.0,0.0
366,91.25,145.686,205.099,104.489,102.113,90.3903,0.031067,2.75675,17.5383,15.7155,1.10008,0.0,0.0
369,92,146.978,206.325,106.571,102.116,91.6349,0.0314826,2.78957,17.5059,15.3952,0.977028,0.0,0.0
372,92.75,147.534,208.842,96.3896,102.121,89.1391,0.0318479,2.81809,17.4654,15.145,1.22658,0.0,0.0
375,93.5,149.138,210.505,100.898,102.123,89.184,0.0320721,2.84434,17.4342,14.8346,1.22222,0.0,0.0
378,94.25,150.589,212.382,101.032,102.132,89.3577,0.0321488,2.86634,17.4064,14.5043,1.20548,0.0,0.0
381,95,151.98,214.026,97.8108,102.122,90.1407,0.0321098,2.88727,17.3791,14.1039,1.12581,0.0,0.0
384,95.75,153.109,215.392,93.4174,102.117,90.4128,0.0319824,2.91335,17.3447,13.8537,1.09823,0.0,0.0
387,96.5,153.487,216.381,89.4285,102.126,91.4602,0.0316995,2.93699,17.3134,13.5334,0.995101,0.0,0.0
390,97.25,154.372,219.059,106.236,102.138,91.6614,0.031378,2.96324,17.2812,13.183,0.976339,0.0,0.0
393,98,156.323,221.003,86.967,102.133,90.9543,0.0310944,2.98489,17.2573,12.9328,1.04578,0.0,0.0
396,98.75,157.604,223.229,95.5439,102.126,91.5412,0.0307858,3.00192,17.2396,12.5924,0.987114,0.0,0.0
399,99.5,158.831,225.172,113.621,102.142,91.475,0.0305174,3.0139,17.2268,12.2821,0.995065,0.0,0.0
402,100.25,159.838,226.804,100.037,102.133,91.6793,0.0302098,3.02175,17.2174,11.9618,0.974158,0.0,0.0
405,101,160.481,228.637,94.3654,102.134,90.3791,0.0299188,3.02461,17.2106,11.5614,1.10308,0.0,0.0
408,101.75,161.58,229.489,106.795,102.124,91.0852,0.0296782,3.02547,17.2122,11.3812,1.03199,0.0,0.0
411,102.5,162.924,230.821,90.1926,102.142,91.7786,0.0294388,3.0163,17.2162,11.0709,0.965169,0.0,0.0
414,103.25,163.857,232.611,99.0557,102.138,90.4077,0.0292758,3.00689,17.2298,10.6605,1.10062,0.0,0.0
417,104,163.982,233.074,91.4695,102.133,91.0587,0.029162,2.99538,17.2458,10.4203,1.03543,0.0,0.0
420,104.75,165.685,234.387,88.1111,102.128,91.5809,0.0291513,2.9792,17.2601,10.0599,0.983342,0.0,0.0
423,105.5,165.411,234.367,90.9543,102.148,91.3313,0.0291436,2.9664,17.2756,9.82971,1.00978,0.0,0.0
426,106.25,166.098,235.685,102.59,102.145,90.3852,0.0292269,2.95536,17.2882,9.49938,1.10343,0.0,0.0
429,107,167.362,236.188,97.9963,102.142,88.4962,0.0292825,2.94409,17.295,9.15904,1.29369,0.0,0.0
432,107.75,167.699,236.587,96.1118,102.126,89.97,0.0293634,2.93381,17.3104,8.98888,1.1433,0.0,0.0
435,108.5,168.148,237.144,98.9084,102.137,90.4443,0.0294493,2.92279,17.3217,8.57847,1.09686,0.0,0.0
438,109.25,168.778,237.429,105.108,102.134,89.9298,0.029512,2.91299,17.3355,8.33823,1.14808,0.0,0.0
441,110,168.848,237.471,108.545,102.138,91.1632,0.0295649,2.90586,17.3464,8.08799,1.02555,0.0,0.0
444,110.75,169.504,238.118,103.461,102.136,90.7301,0.0295829,2.89734,17.3559,7.81772,1.06825,0.0,0.0
447,111.5,169.895,238.817,102.279,102.136,90.6823,0.0295555,2.89064,17.3634,7.45736,1.07302,0.0,0.0
450,112.25,170.684,239.049,93.4823,102.138,90.8611,0.0294267,2.8766,17.3742,7.19711,1.05542,0.0,0.0
453,113,170.762,239.524,85.4396,102.135,91.2528,0.0292864,2.86245,17.3912,6.8868,1.01636,0.0,0.0
456,113.75,171.439,239.723,100.879,102.134,91.4286,0.0289688,2.82797,17.4273,6.5865,0.998963,0.0,0.0
459,114.5,171.51,239.506,91.7321,102.128,91.2345,0.0284598,2.78839,17.4732,6.30623,1.01757,0.0,0.0
462,115.25,171.675,239.328,96.1736,102.146,91.4347,0.0280097,2.75339,17.523,6.14607,0.999355,0.0,0.0
465,116,171.919,238.856,108.375,102.137,91.2666,0.0273364,2.71608,17.5689,5.79572,1.01521,0.0,0.0
468,116.75,171.849,238.033,95.6385,102.141,90.9115,0.0266332,2.68386,17.616,5.50544,1.0507,0.0,0.0
471,117.5,171.255,237.415,95.205,102.132,92.2626,0.0259354,2.6445,17.6665,5.30524,0.916797,0.0,0.0
474,118.25,172.136,237.734,110.964,102.136,90.7439,0.0252646,2.60554,17.7203,5.03497,1.06696,0.0,0.0
477,119,171.435,237.072,100.148,102.132,92.6314,0.0246203,2.56812,17.7696,4.74469,0.880873,0.0,0.0
480,119.75,171.921,236.424,108.202,102.141,93.1052,0.0241506,2.53292,17.8099,4.49444,0.835629,0.0,0.0
483,120.5,171.328,235.716,95.8293,102.134,92.3665,0.0237217,2.49422,17.852,4.24419,0.906888,0.0,0.0
486,121.25,170.69,234.807,101.768,102.134,92.9926,0.0233919,2.4569,17.8935,4.10405,0.84587,0.0,0.0
489,122,170.842,233.806,115.378,102.132,91.2625,0.0231224,2.42581,17.9328,3.83379,1.01512,0.0,0.0
492,122.75,170.775,233.017,103.541,102.133,91.4979,0.0228344,2.39003,17.9703,3.51347,0.992023,0.0,0.0
495,123.5,170.118,232.417,95.0119,102.133,91.6747,0.0225227,2.36396,18.0013,3.25321,0.974609,0.0,0.0
498,124.25,170.579,231.409,105.793,102.14,93.0619,0.022188,2.32589,18.0541,3.01298,0.839683,0.0,0.0
501,125,169.982,230.415,110.519,102.134,93.6493,0.0216727,2.28444,18.1114,2.75272,0.782422,0.0,0.0
504,125.75,170.316,229.793,106.8,102.13,91.5886,0.0211396,2.24838,18.1724,2.69266,0.982837,0.0,0.0
507,126.5,169.462,228.097,114.262,102.135,92.5545,0.0206839,2.19486,18.2359,2.41238,0.888581,0.0,0.0
510,127.25,168.888,227.107,111.173,102.139,92.8999,0.020145,2.13963,18.2932,2.18215,0.855367,0.0,0.0
513,128,168.864,226.622,115.981,102.139,92.6391,0.0195927,2.08461,18.3541,2.09207,0.880734,0.0,0.0
516,128.75,167.735,224.321,99.7091,102.135,92.6442,0.0190682,2.03108,18.4229,1.84182,0.879882,0.0,0.0
519,129.5,167.486,223.324,110.73,102.14,93.7604,0.0185468,1.97494,18.4823,1.64162,0.772298,0.0,0.0
522,130.25,166.674,221.333,96.066,102.144,93.9356,0.0180149,1.92671,18.5414,1.41139,0.75577,0.0,0.0
525,131,166.233,219.902,131.109,102.142,94.8644,0.0174691,1.87232,18.6131,1.26125,0.666871,0.0,0.0
528,131.75,165.075,218.251,121.251,102.144,95.1298,0.0169263,1.81815,18.6776,1.15114,0.641807,0.0,0.0
531,132.5,164.378,216.422,112.918,102.143,94.7375,0.0164688,1.76786,18.7391,0.930919,0.678979,0.0,0.0
534,133.25,163.277,214.038,119.172,102.142,94.0798,0.0159067,1.71623,18.796,0.650643,0.741757,0.0,0.0
537,134,162.319,213.133,114.214,102.16,96.2042,0.0153995,1.67102,18.8475,0.580573,0.54187,0.0,0.0
540,134.75,162.471,211.209,110.498,102.153,96.4661,0.0148483,1.6251,18.8959,0.400395,0.516744,0.0,0.0
543,135.5,160.877,209.684,117.008,102.136,96.6581,0.0143136,1.58106,18.9499,0.290287,0.497272,0.0,0.0
546,136.25,160.331,207.523,114.994,102.142,96.9302,0.0138292,1.53092,19.018,0.100099,0.472521,0.0,0.0
549,137,159.463,205.418,112.725,102.147,95.2648,0.0133359,1.47772,19.0918,-0.0300297,0.629262,0.0,0.0
552,137.75,158.287,203.521,118.754,102.143,95.2577,0.0129204,1.43184,19.156,-0.200198,0.629617,0.0,0.0
555,138.5,157.247,201.515,121.279,102.139,97.1365,0.012522,1.37085,19.241,-0.270267,0.453054,0.0,0.0
558,139.25,156.473,199.361,124.729,102.137,96.7244,0.0120578,1.3103,19.3254,-0.390386,0.4912,0.0,0.0
561,140,155.065,197.134,126.386,102.135,97.7326,0.0116233,1.25931,19.4158,-0.480474,0.397509,0.0,0.0
564,140.75,153.248,194.474,123.373,102.143,98.1432,0.0112655,1.19902,19.4899,-0.570563,0.360359,0.0,0.0
567,141.5,152.33,192.603,125.631,102.138,98.5676,0.0108529,1.13849,19.5551,-0.700692,0.321042,0.0,0.0
570,142.25,151.265,189.981,128.564,102.123,99.4372,0.0105967,1.07989,19.6017,-0.780771,0.240411,0.0,0.0
573,143,149.917,187.695,126.976,102.136,99.2691,0.0101341,1.02448,19.674,-0.86085,0.25685,0.0,0.0
576,143.75,148.329,185.047,129.513,102.124,99.2258,0.00971192,0.968033,19.7346,-0.950939,0.259756,0.0,0.0
579,144.5,146.5,181.851,130.902,102.116,100.129,0.00925899,0.920044,19.8064,-1.08107,0.177294,0.0,0.0
582,145.25,145.209,179.335,130.585,102.118,98.8631,0.008739,0.883169,19.8774,-1.19118,0.292264,0.0,0.0
585,146,143.543,176.873,139.191,102.117,101.637,0.00822207,0.824717,19.9756,-1.20119,0.042509,0.0,0.0
588,146.75,142.668,174.479,136.003,102.119,102.945,0.00778646,0.752138,20.0717,-1.24123,-0.0726882,0.0,0.0
591,147.5,141.246,171.801,141.005,102.114,103.104,0.0072953,0.688369,20.1682,-1.3213,-0.0870776,0.0,0.0
594,148.25,139.234,168.574,139.809,102.108,103.302,0.00693725,0.623312,20.2497,-1.36134,-0.10489,0.0,0.0
597,149,137.27,164.825,139.794,102.116,105.605,0.00642891,0.552306,20.332,-1.35133,-0.303036,0.0,0.0
600,149.75,135.71,161.955,148.82,102.11,107.398,0.00594532,0.487177,20.4108,-1.34132,-0.455557,0.0,0.0
603,150.5,133.146,158.226,147.784,102.095,108.681,0.0054853,0.433999,20.4836,-1.40138,-0.563953,0.0,0.0
606,151.25,131.372,155.546,149.793,102.069,109.551,0.00504853,0.376609,20.5561,-1.51149,-0.638205,0.0,0.0
609,152,129.477,152.376,149.38,102.078,110.061,0.00462423,0.330076,20.6167,-1.45143,-0.679244,0.0,0.0
612,152.75,127.98,149.724,150.484,102.068,110.757,0.00423788,0.288124,20.6738,-1.50148,-0.737073,0.0,0.0
615,153.5,125.924,146.395,150.414,102.06,110.482,0.00390173,0.252406,20.7249,-1.49147,-0.715271,0.0,0.0
618,154.25,124.229,144.033,150.771,102.045,111.438,0.00360526,0.2201,20.7654,-1.43141,-0.794369,0.0,0.0
621,155,122.333,140.925,149.02,102.042,111.328,0.00338914,0.194811,20.8004,-1.37135,-0.785817,0.0,0.0
624,155.75,120.459,137.827,151.465,102.037,111.581,0.00316476,0.170131,20.826,-1.40138,-0.806585,0.0,0.0
627,156.5,118.994,135.483,151.079,102.038,111.501,0.00297268,0.150749,20.8499,-1.37135,-0.800044,0.0,0.0
630,157.25,115.636,131.374,150.042,102.002,111.847,0.00273391,0.134242,20.8711,-1.39137,-0.831266,0.0,0.0
633,158,114.23,129.072,154.559,102.007,111.274,0.00251774,0.119881,20.8894,-1.4214,-0.784498,0.0,0.0
636,158.75,112.789,126.836,155.553,101.993,111.812,0.00228165,0.108419,20.9049,-1.47145,-0.829176,0.0,0.0
639,159.5,110.94,124.227,151.647,101.963,111.859,0.00208142,0.100063,20.9193,-1.59157,-0.835625,0.0,0.0
642,160.25,109.881,122.631,150.248,101.964,111.482,0.00192473,0.0917947,20.9317,-1.6216,-0.805174,0.0,0.0
645,161,108.501,120.166,153.128,101.943,111.413,0.00181778,0.0851605,20.9423,-1.54152,-0.801421,0.0,0.0
648,161.75,107.1,118.18,153.73,101.943,111.576,0.00175132,0.0798506,20.95,-1.61159,-0.814648,0.0,0.0
651,162.5,105.597,116.342,152.368,101.933,111.578,0.00170287,0.0756119,20.9556,-1.54152,-0.815585,0.0,0.0
654,163.25,104.628,113.869,155.628,101.914,111.805,0.00170221,0.0720803,20.961,-1.50148,-0.835575,0.0,0.0
657,164,103.586,112.591,152.493,101.886,111.704,0.00169789,0.0692525,20.9649,-1.48146,-0.830035,0.0,0.0
660,164.75,102.216,110.853,157.022,101.885,111.819,0.00167964,0.067083,20.9678,-1.65163,-0.839359,0.0,0.0
663,165.5,101.307,109.235,155.498,101.877,111.74,0.00164332,0.0649801,20.9705,-1.61159,-0.833627,0.0,0.0
666,166.25,99.9023,107.808,155.342,101.871,111.871,0.00158618,0.0633139,20.9729,-1.65163,-0.844797,0.0,0.0
669,167,98.9645,105.776,154.139,101.839,111.612,0.00151733,0.0618716,20.9748,-1.61159,-0.826674,0.0,0.0
672,167.75,98.1431,104.211,153.493,101.827,111.394,0.00141899,0.0605598,20.9774,-1.49147,-0.810101,0.0,0.0
675,168.5,97.2825,103.01,156.307,101.815,111.605,0.00137791,0.0594926,20.9783,-1.64162,-0.828199,0.0,0.0
678,169.25,96.3018,101.754,158.087,101.798,111.246,0.00133045,0.058525,20.9794,-1.56154,-0.800657,0.0,0.0
681,170,95.2131,100.039,156.595,101.791,111.374,0.0012995,0.0575995,20.9807,-1.54152,-0.811739,0.0,0.0
684,170.75,94.8201,99.128,157.691,101.775,111.404,0.00128331,0.0565432,20.9817,-1.50148,-0.815558,0.0,0.0
687,171.5,93.4595,97.5647,158.5,101.76,111.605,0.0012749,0.0561305,20.9825,-1.43141,-0.833116,0.0,0.0
690,172.25,92.7168,96.958,153.879,101.762,111.108,0.00126992,0.0554737,20.9831,-1.38136,-0.792697,0.0,0.0
693,173,92.2372,95.5998,159.835,101.74,111.441,0.00126811,0.0549211,20.9835,-1.4214,-0.821634,0.0,0.0
696,173.75,91.4864,94.2687,154.734,101.753,111.414,0.00127015,0.054392,20.9841,-1.40138,-0.818313,0.0,0.0
699,174.5,91.1012,93.465,151.851,101.73,111.629,0.00127738,0.0538463,20.9849,-1.43141,-0.837695,0.0,0.0
702,175.25,90.0662,92.861,151.908,101.719,111.435,0.00130451,0.0534065,20.9854,-1.45143,-0.823,0.0,0.0
705,176,89.155,91.5093,156.456,101.704,111.384,0.00132429,0.0530679,20.9859,-1.38136,-0.820223,0.0,0.0
708,176.75,88.981,90.4492,153.728,101.69,111.642,0.00136422,0.0527011,20.9862,-1.41139,-0.842332,0.0,0.0
711,177.5,88.5602,89.6074,156.542,101.687,111.51,0.00139716,0.0523496,20.9864,-1.4214,-0.831943,0.0,0.0
714,178.25,87.8292,88.5552,161.036,101.676,111.623,0.00142079,0.0520576,20.9865,-1.50148,-0.84198,0.0,0.0
717,179,87.4416,88.0062,150.622,101.663,111.568,0.00143457,0.0516848,20.9867,-1.47145,-0.838745,0.0,0.0
720,179.75,86.3738,87.1055,156.601,101.651,111.169,0.00144528,0.051413,20.9867,-1.43141,-0.807508,0.0,0.0
723,180.5,86.1611,86.8107,156.452,101.63,111.333,0.00145424,0.0512149,20.9868,-1.45143,-0.822624,0.0,0.0
726,181.25,85.7899,85.8149,154.36,101.624,110.891,0.00146461,0.0510505,20.9869,-1.4214,-0.787256,0.0,0.0
729,182,85.0163,84.9972,156.797,101.596,111.444,0.00147179,0.0509306,20.9869,-1.46144,-0.834613,0.0,0.0
732,182.75,84.041,83.7316,155.707,101.604,111.572,0.00147356,0.0507034,20.9869,-1.50148,-0.844249,0.0,0.0
735,183.5,83.544,83.8549,155.93,101.596,111.587,0.00146612,0.0505008,20.9869,-1.54152,-0.846194,0.0,0.0
738,184.25,83.3881,83.0978,157.164,101.574,111.248,0.00144575,0.0502902,20.9869,-1.55153,-0.820731,0.0,0.0
741,185,82.9031,82.4367,155.072,101.551,111.425,0.00140704,0.0500767,20.9868,-1.58156,-0.837091,0.0,0.0
744,185.75,82.7736,81.4977,152.399,101.54,111.513,0.00136606,0.0499063,20.9866,-1.48146,-0.845218,0.0,0.0
747,186.5,82.1658,81.211,154.241,101.531,111.262,0.00131436,0.0497569,20.9865,-1.38136,-0.825627,0.0,0.0
750,187.25,81.7112,80.6273,154.749,101.513,111.438,0.00126757,0.0496401,20.9864,-1.31129,-0.841593,0.0,0.0
753,188,81.0784,79.5999,154.008,101.5,111.354,0.00122453,0.0495417,20.9863,-1.4214,-0.835964,0.0,0.0
756,188.75,80.9796,79.3969,154.231,101.474,111.299,0.00118264,0.0493701,20.9863,-1.4214,-0.833757,0.0,0.0
759,189.5,80.6253,78.9441,155.468,101.471,111.053,0.00114062,0.0492376,20.9862,-1.44142,-0.814071,0.0,0.0
762,190.25,80.315,78.4842,158.361,101.477,111.672,0.00109725,0.0491284,20.9862,-1.40138,-0.863643,0.0,0.0
765,191,80.1724,77.762,158.689,101.453,110.869,0.00104383,0.0490288,20.9862,-1.38136,-0.800732,0.0,0.0
768,191.75,79.335,77.6271,156.437,101.433,111.318,0.000992171,0.0488862,20.9864,-1.37135,-0.838931,0.0,0.0
771,192.5,79.5664,76.7182,155.68,101.434,111.184,0.000960545,0.0487525,20.9869,-1.38136,-0.827954,0.0,0.0
774,193.25,78.4038,76.6692,156.897,101.424,111.408,0.00094781,0.048615,20.9874,-1.39137,-0.847059,0.0,0.0
777,194,78.3947,76.3474,157.492,101.388,111.006,0.000971252,0.0485008,20.9876,-1.47145,-0.817593,0.0,0.0
780,194.75,78.2097,75.427,155.488,101.401,111.118,0.00100887,0.0484116,20.9879,-1.37135,-0.825594,0.0,0.0
783,195.5,77.5103,75.4348,153.973,101.376,111.21,0.00104705,0.0483465,20.988,-1.36134,-0.83529,0.0,0.0
786,196.25,77.503,75.3217,153.837,101.374,111.385,0.00106899,0.0483271,20.9882,-1.39137,-0.849674,0.0,0.0
789,197,77.2638,74.5258,160.093,101.355,110.124,0.00109432,0.0483249,20.9885,-1.44142,-0.748606,0.0,0.0
792,197.75,76.9397,74.3865,157.595,101.341,111.459,0.00112554,0.0482646,20.9887,-1.57155,-0.858512,0.0,0.0
795,198.5,76.3661,73.4822,155.669,101.353,111.201,0.00116489,0.0482346,20.9889,-1.57155,-0.836549,0.0,0.0
798,199.25,76.1298,74.1342,150.841,101.322,111.138,0.00120938,0.0482234,20.989,-1.4214,-0.834179,0.0,0.0
801,200,76.2409,73.4788,153.657,101.321,111.144,0.00125676,0.0481686,20.9891,-1.47145,-0.834818,0.0,0.0
804,200.75,75.5094,72.6923,156.354,101.311,111.318,0.00130952,0.0481033,20.9889,-1.43141,-0.849732,0.0,0.0
807,201.5,75.6586,72.8092,158.746,101.307,111.403,0.00135,0.0480431,20.9884,-1.65163,-0.857054,0.0,0.0
810,202.25,75.0184,72.1331,157.85,101.295,111.234,0.00138296,0.0480272,20.988,-1.57155,-0.844385,0.0,0.0
813,203,74.5454,71.8406,157.989,101.299,111.351,0.00139959,0.0480202,20.9877,-1.56154,-0.853567,0.0,0.0
816,203.75,74.3973,71.4645,154.839,101.284,110.606,0.00139907,0.0480025,20.9874,-1.53151,-0.794345,0.0,0.0
819,204.5,74.8159,71.2807,157.333,101.271,111.636,0.00139869,0.0479098,20.9871,-1.44142,-0.879039,0.0,0.0
822,205.25,74.0989,70.5409,153.808,101.264,111.11,0.00135834,0.0478422,20.9873,-1.55153,-0.837096,0.0,0.0
825,206,73.5105,71.0855,155.391,101.265,111.059,0.00131234,0.0478128,20.9877,-1.56154,-0.832887,0.0,0.0
828,206.75,73.7738,70.5639,154.562,101.234,110.605,0.00127173,0.0477914,20.9879,-1.67165,-0.798661,0.0,0.0
831,207.5,73.2518,70.3532,159.35,101.217,110.749,0.00122029,0.0478357,20.9881,-1.66164,-0.811949,0.0,0.0
834,208.25,72.946,69.4732,158.961,101.207,111.292,0.00117259,0.0478607,20.9883,-1.47145,-0.856939,0.0,0.0
837,209,72.3127,69.647,160.19,101.198,111.421,0.0011216,0.0478662,20.9884,-1.46144,-0.868134,0.0,0.0
840,209.75,72.6763,69.1104,157.603,101.196,111.32,0.00109266,0.0478104,20.9885,-1.48146,-0.860219,0.0,0.0
843,210.5,72.1172,68.7726,160.245,101.185,110.755,0.00108297,0.0477624,20.9885,-1.44142,-0.815278,0.0,0.0
846,211.25,71.7286,68.9401,159.832,101.197,111.324,0.00107177,0.0477147,20.9885,-1.39137,-0.8604,0.0,0.0
849,212,71.5914,68.7115,157.096,101.181,110.844,0.00109272,0.0476906,20.9886,-1.33131,-0.822937,0.0,0.0
852,212.75,71.8807,68.0796,159.09,101.182,110.595,0.00112841,0.0476544,20.9886,-1.35133,-0.80253,0.0,0.0
855,213.5,71.3001,68.0753,153.892,101.165,111.19,0.00117926,0.0476275,20.9886,-1.37135,-0.852445,0.0,0.0
858,214.25,71.4385,67.843,156.114,101.172,110.932,0.00124391,0.0476385,20.9886,-1.38136,-0.830777,0.0,0.0
861,215,71.081,67.7338,155.423,101.161,110.854,0.00132811,0.0476643,20.9886,-1.36134,-0.825517,0.0,0.0
864,215.75,70.6851,67.6936,154.217,101.169,111.241,0.00142751,0.0476632,20.9886,-1.39137,-0.856142,0.0,0.0
867,216.5,71.0134,67.3345,157.147,101.143,111.043,0.00153798,0.0476344,20.9886,-1.37135,-0.842463,0.0,0.0
870,217.25,71.0736,67.1639,158.185,101.166,110.638,0.00163677,0.0475941,20.9886,-1.37135,-0.807413,0.0,0.0
873,218,70.8723,67.0166,163.198,101.146,111.13,0.0017088,0.0475522,20.9886,-1.38136,-0.849211,0.0,0.0
876,218.75,70.1935,66.6578,157.715,101.158,110.822,0.00171565,0.0475076,20.9886,-1.34132,-0.823155,0.0,0.0
879,219.5,70.2106,66.7118,156.314,101.147,110.954,0.00168484,0.0474765,20.9886,-1.34132,-0.834822,0.0,0.0
882,220.25,70.2252,66.5393,156.643,101.139,110.709,0.00164711,0.0474664,20.9886,-1.38136,-0.815707,0.0,0.0
885,221,70.1052,66.2084,155.475,101.143,110.986,0.00155583,0.0474731,20.9886,-1.39137,-0.83779,0.0,0.0
888,221.75,69.2661,66.2668,153.794,101.157,110.951,0.00144014,0.0474839,20.9886,-1.48146,-0.833714,0.0,0.0
891,222.5,69.0564,66.2262,163.836,101.132,110.659,0.00133794,0.0474518,20.9886,-1.50148,-0.812133,0.0,0.0
894,223.25,69.1484,65.9779,158.604,101.126,110.988,0.00125784,0.0474145,20.9886,-1.49147,-0.839498,0.0,0.0
897,224,68.538,65.7484,161.754,101.123,111.215,0.00120289,0.0473739,20.9886,-1.40138,-0.858194,0.0,0.0
900,224.75,68.8599,65.7804,158.276,101.122,111.037,0.00118231,0.0473318,20.9886,-1.4214,-0.843868,0.0,0.0
903,225.5,68.9127,65.1877,156.649,101.109,111.243,0.0012006,0.0472411,20.9886,-1.51149,-0.861728,0.0,0.0
906,226.25,68.7437,65.5756,159.566,101.096,110.942,0.00121393,0.0471891,20.9886,-1.55153,-0.838461,0.0,0.0
909,227,68.0891,64.827,159.666,101.088,110.91,0.00130017,0.0471497,20.9891,-1.55153,-0.836533,0.0,0.0
912,227.75,68.3746,64.4126,156.547,101.099,110.895,0.0013765,0.0471084,20.9896,-1.4214,-0.83432,0.0,0.0
915,228.5,67.9482,64.7299,159.275,101.095,111.021,0.00145516,0.0470783,20.99,-1.5215,-0.844911,0.0,0.0
918,229.25,67.6169,64.1062,159.323,101.067,111.25,0.00152346,0.0470424,20.9902,-1.4214,-0.866069,0.0,0.0
921,230,67.2671,64.2456,158.99,101.078,111.115,0.00157196,0.0470103,20.9902,-1.39137,-0.854073,0.0,0.0
924,230.75,67.3828,64.0753,158.568,101.074,110.952,0.00160341,0.0469868,20.9898,-1.51149,-0.841221,0.0,0.0
927,231.5,66.7915,64.2087,157.939,101.061,110.987,0.00162058,0.0470257,20.9899,-1.45143,-0.845151,0.0,0.0
930,232.25,66.725,63.7498,153.517,101.044,110.55,0.00162771,0.0470779,20.9902,-1.44142,-0.811212,0.0,0.0
933,233,67.1755,63.8953,152.657,101.037,111.154,0.0016237,0.0470561,20.9898,-1.43141,-0.860877,0.0,0.0
936,233.75,67.1086,64.1677,155.215,101.046,111.144,0.00161166,0.0470262,20.9895,-1.4214,-0.859379,0.0,0.0
939,234.5,66.6854,63.5862,163.891,101.038,111.131,0.00158754,0.0470426,20.9895,-1.4214,-0.859022,0.0,0.0
942,235.25,66.843,63.4236,158.784,101.019,110.969,0.00156342,0.0471302,20.9899,-1.44142,-0.847547,0.0,0.0
945,236,66.6815,63.7473,158.817,101.001,110.807,0.00152396,0.04718,20.9902,-1.41139,-0.835911,0.0,0.0
948,236.75,66.1664,63.6299,153.919,101.005,110.756,0.00149103,0.0472103,20.9903,-1.49147,-0.831403,0.0,0.0
951,237.5,66.1543,63.3332,157.364,100.991,111.043,0.00143658,0.0472325,20.9905,-1.57155,-0.856029,0.0,0.0
954,238.25,66.1227,62.9841,157.174,100.989,111.163,0.00138414,0.0472626,20.9906,-1.53151,-0.865971,0.0,0.0
957,239,65.8345,62.784,159.881,100.985,111.048,0.00134592,0.0473053,20.9907,-1.44142,-0.856977,0.0,0.0
960,239.75,65.9415,63.148,153.908,101.007,110.564,0.00132443,0.0473447,20.9908,-1.40138,-0.815602,0.0,0.0
963,240.5,65.6156,63.0667,156.974,100.981,110.844,0.00130948,0.0473343,20.9908,-1.43141,-0.840765,0.0,0.0
966,241.25,65.767,62.9969,159.404,100.978,111.047,0.00129513,0.0473029,20.9909,-1.44142,-0.857468,0.0,0.0
969,242,65.4358,62.6917,162.462,100.964,111.041,0.00126464,0.047266,20.9909,-1.50148,-0.858234,0.0,0.0
972,242.75,65.4816,62.634,162.479,100.967,111.127,0.00122073,0.0472331,20.9909,-1.61159,-0.864934,0.0,0.0
975,243.5,65.0885,62.4562,162.782,100.965,110.69,0.0011721,0.0472491,20.9909,-1.49147,-0.829635,0.0,0.0
978,244.25,64.8852,62.6008,162.902,100.953,110.856,0.00112402,0.0472887,20.9909,-1.49147,-0.844202,0.0,0.0
981,245,64.8906,62.3241,155.647,100.944,111.265,0.00109079,0.0473074,20.9909,-1.38136,-0.878296,0.0,0.0
984,245.75,64.492,61.6489,157.871,100.954,110.911,0.00106656,0.0472833,20.9909,-1.47145,-0.848572,0.0,0.0
987,246.5,64.7955,61.9574,163.866,100.946,110.974,0.00108346,0.0472257,20.9909,-1.48146,-0.854498,0.0,0.0
990,247.25,64.2907,61.6524,161.203,100.934,111.027,0.00110249,0.0471698,20.9909,-1.40138,-0.85977,0.0,0.0
993,248,64.1211,61.2744,157.54,100.93,110.766,0.00112785,0.0471231,20.9909,-1.45143,-0.838951,0.0,0.0
996,248.75,63.7194,61.4972,157.383,100.939,111.075,0.00115544,0.0470191,20.9909,-1.44142,-0.863228,0.0,0.0
999,249.5,64.1861,61.5152,153.07,100.924,110.821,0.00117555,0.0469429,20.9909,-1.43141,-0.843965,0.0,0.0
1002,250.25,64.2027,61.1389,150.175,100.915,110.86,0.00119424,0.0469377,20.9909,-1.49147,-0.847913,0.0,0.0
1005,251,63.9986,61.3407,154.473,100.919,110.867,0.00121476,0.0469199,20.9909,-1.47145,-0.848169,0.0,0.0
1008,251.75,63.689,60.9715,157.394,100.904,111.06,0.0012188,0.046901,20.9909,-1.41139,-0.865155,0.0,0.0
1011,252.5,63.6964,61.0412,158.207,100.91,111.321,0.00121536,0.0468872,20.9909,-1.5215,-0.885815,0.0,0.0
1014,253.25,63.6563,60.9934,158.53,100.898,111.12,0.00121013,0.0468772,20.9909,-1.63161,-0.870613,0.0,0.0
1017,254,63.7087,60.6942,157.389,100.899,110.386,0.00120504,0.0468558,20.9909,-1.56154,-0.810705,0.0,0.0
1020,254.75,63.3852,60.6717,160.966,100.897,110.655,0.00120146,0.0468343,20.9909,-1.6216,-0.832848,0.0,0.0
1023,255.5,63.1461,60.4985,160.038,100.898,110.84,0.0012,0.0468187,20.9909,-1.45143,-0.847805,0.0,0.0
1026,256.25,63.3085,60.3554,160.873,100.894,111.087,0.00120076,0.0468212,20.9909,-1.60158,-0.868253,0.0,0.0
1029,257,63.0424,60.3519,160.973,100.896,110.973,0.00120513,0.046829,20.9909,-1.59157,-0.858759,0.0,0.0
1032,257.75,63.2607,60.306,163.614,100.882,111.113,0.00120996,0.0468208,20.9909,-1.54152,-0.8714,0.0,0.0
1035,258.5,62.4971,59.8529,160.427,100.903,111.007,0.00121712,0.0468088,20.9909,-1.48146,-0.860958,0.0,0.0
1038,259.25,62.8064,60.2114,161.794,100.895,110.595,0.00122616,0.0467779,20.9909,-1.51149,-0.828125,0.0,0.0
1041,260,62.1957,59.9106,158.935,100.877,110.826,0.00123439,0.0467177,20.9909,-1.56154,-0.848508,0.0,0.0
1044,260.75,62.5047,59.2822,159.804,100.89,111.019,0.00127615,0.0466737,20.9909,-1.56154,-0.863102,0.0,0.0
1047,261.5,62.2777,59.8048,157.071,100.887,110.862,0.00132183,0.0466491,20.9909,-1.56154,-0.850631,0.0,0.0
1050,262.25,61.7439,59.7747,155.685,100.896,110.959,0.00139707,0.0466437,20.9909,-1.53151,-0.857671,0.0,0.0
1053,263,62.1256,59.7398,158.45,100.883,111.118,0.00146854,0.0466545,20.9909,-1.58156,-0.871741,0.0,0.0
1056,263.75,61.8297,59.4313,157.164,100.879,110.729,0.00152639,0.0466876,20.9909,-1.56154,-0.840522,0.0,0.0
1059,264.5,61.9761,59.1074,159.751,100.875,110.874,0.00156625,0.0466977,20.9909,-1.5215,-0.852662,0.0,0.0
1062,265.25,61.3199,59.7008,161.241,100.884,110.719,,0.0466917,,-1.49147,-0.839183,0.0,0.0
1065,266,61.5982,59.0841,151.638,100.891,111.067,,0.0466748,,-1.51149,-0.866843,0.0,0.0
1068,266.75,61.7857,59.3325,157.071,100.888,110.609,,0.0466764,,-1.53151,-0.829931,0.0,0.0
1071,267.5,61.4967,59.6662,153.854,100.884,110.419,,0.0466689,,-1.50148,-0.814741,0.0,0.0
1074,268.25,61.4117,58.5199,154.772,100.887,110.611,,,,-1.44142,-0.830133,0.0,0.0
1077,269,61.3548,58.6226,160.868,100.888,111.024,,,,-1.49147,-0.863654,0.0,0.0
1080,269.75,61.5866,59.086,159.197,100.873,110.746,,,,-1.47145,-0.842354,0.0,0.0
1083,270.5,60.8549,58.9008,161.051,100.888,110.522,,,,-1.49147,-0.822792,0.0,0.0
1086,271.25,61.7093,59.2826,157.453,100.898,111.049,,,,-1.47145,-0.864862,0.0,0.0
1089,272,60.7314,58.7725,157.948,100.903,111.034,,,,-1.47145,-0.863153,0.0,0.0
1092,272.75,60.7515,58.2864,161.492,100.892,110.899,,,,-1.46144,-0.853183,0.0,0.0
1095,273.5,61.1822,58.7635,159.112,100.898,110.842,,,,-1.47145,-0.848001,0.0,0.0
1098,274.25,60.833,58.3338,158.835,100.895,110.853,,,,-1.47145,-0.849087,0.0,0.0
1101,275,60.3643,58.907,158.078,100.904,111.051,,,,-1.47145,-0.864452,0.0,0.0
1104,275.75,60.0768,58.0607,157.791,100.899,111.21,,,,-1.49147,-0.877823,0.0,0.0