File: 01_Data/PMMA/Cone/PMMA_Cone_HF25Scan_220225_R1.csv
Names,Time,Stack TC,Smoke TC,Exh Press,Smoke Comp,Smoke Meas,CO Meter,CO2 Meter,O2 Meter,Sample Mass,Ext Coeff,Start Test,Flame Verif
Chan Gain,,500,500,1,1,1,1,1,1,1,1,1.0,1.0
Offset,,0,0,0.136092,0,0,0,0,0,0,0,0.0,0.0
Gain,,1,1,25.011,15.4219,15.1528,1,1,1,1.00089,1.02113,1.0,1.0
Units,sec,C,C,Pa,%,%,%,%,%,g,/m,,
Baseline,,16.1345,16.9627,166.808,116.121,116.43,-0.00877716,0.108452,20.7776,-0.0990877,-0.0238113,,
4,0.75,14.4485,14.5125,168.555,116.277,116.532,-0.00909216,0.121968,20.7532,906.022,-0.0196672,0.0,0.0
8,1.75,15.0031,15.1477,167.661,116.279,116.642,-0.00908175,0.121954,20.7531,906.022,-0.0279057,0.0,0.0
12,2.75,14.506,14.8029,169.703,116.28,116.57,-0.00909421,0.121743,20.7531,906.042,-0.022328,0.0,0.0
16,3.75,13.4179,14.1888,163.98,116.302,116.539,-0.00912617,0.121371,20.753,906.032,-0.0182425,0.0,0.0
20,4.75,15.0227,15.42,167.977,116.282,116.62,-0.00916822,0.121168,20.7522,906.012,-0.0259843,0.0,0.0
24,5.75,14.9099,15.187,168.525,116.289,116.406,-0.00920059,0.121046,20.7517,906.032,-0.00894451,0.0,0.0
28,6.75,14.4556,15.0997,162.935,116.286,116.557,-0.00919486,0.120966,20.7513,906.042,-0.0208621,0.0,0.0
32,7.75,14.1332,15.3514,168.254,116.276,116.634,-0.00915914,0.120842,20.7509,905.992,-0.0275206,0.0,0.0
36,8.75,14.7138,14.8752,164.182,116.287,116.617,-0.00911471,0.120488,20.751,906.012,-0.0253359,0.0,0.0
40,9.75,14.8193,14.9776,169.943,116.271,116.444,-0.0090996,0.119954,20.7524,906.022,-0.0133466,0.0,0.0
44,10.75,15.1724,15.5012,166.326,116.271,116.557,-0.00912736,0.11929,20.7541,906.032,-0.0219501,0.0,0.0
48,11.75,14.5607,15.2915,167.65,116.27,116.708,-0.00918827,0.118622,20.7561,906.012,-0.0337082,0.0,0.0
52,12.75,14.7213,15.3729,163.428,116.267,116.625,-0.009248,0.118204,20.7579,906.012,-0.0275351,0.0,0.0
56,13.75,14.9935,15.8626,167.406,116.26,116.48,-0.00928013,0.118139,20.7593,905.992,-0.0169549,0.0,0.0
60,14.75,15.015,15.2235,166.628,116.258,116.773,-0.00928372,0.118375,20.7608,905.982,-0.0395821,0.0,0.0
64,15.75,14.8471,15.246,165.354,116.255,116.62,-0.00922167,0.118631,20.7613,905.992,-0.0280144,0.0,0.0
68,16.75,14.6767,15.6312,164.544,116.256,116.592,-0.00917937,0.118773,20.7617,905.982,-0.0258108,0.0,0.0
72,17.75,15.2014,15.5667,172.859,116.246,116.548,-0.00919206,0.118414,20.7632,905.952,-0.0232684,0.0,0.0
76,18.75,14.352,15.5589,165.636,116.239,116.605,-0.00922772,0.117719,20.7653,905.982,-0.0281831,0.0,0.0
80,19.75,15.3403,15.5229,169.495,116.221,116.812,-0.0092575,0.116669,20.7673,905.982,-0.0453906,0.0,0.0
84,20.75,15.1799,15.2864,167.613,116.226,116.632,-0.00926935,0.115515,20.7689,905.992,-0.0311866,0.0,0.0
88,21.75,15.0394,16.2887,166.965,116.207,116.559,-0.00927038,0.11444,20.7709,905.992,-0.0270971,0.0,0.0
92,22.75,14.6146,14.8201,167.922,116.194,116.683,-0.00925556,0.113522,20.7727,905.982,-0.037559,0.0,0.0
96,23.75,15.2206,15.2617,166.443,116.181,116.445,-0.00923856,0.112993,20.7739,905.982,-0.0203463,0.0,0.0
100,24.75,15.1075,15.9643,167.475,116.167,116.372,-0.00922268,0.112632,20.7747,905.982,-0.0158124,0.0,0.0
104,25.75,15.2826,15.5657,169.557,116.155,116.667,-0.00919807,0.112498,20.7752,906.002,-0.0393638,0.0,0.0
108,26.75,14.7639,15.3771,160.711,116.139,116.338,-0.009153,0.112566,20.7756,905.972,-0.0153546,0.0,0.0
112,27.75,15.3775,16.0243,169.041,116.131,116.564,-0.00910735,0.112711,20.7758,905.992,-0.0333293,0.0,0.0
116,28.75,15.1929,15.5976,163.163,116.121,116.255,-0.00900773,0.112989,20.7753,905.982,-0.0102876,0.0,0.0
120,29.75,15.0885,16.137,163.384,116.092,116.357,-0.00892888,0.113274,20.7748,905.982,-0.0203736,0.0,0.0
124,30.75,14.9261,15.5761,166.159,116.072,116.433,-0.00891434,0.11359,20.7745,905.992,-0.0278061,0.0,0.0
128,31.75,15.4811,15.8631,165.119,116.056,116.488,-0.00896262,0.113908,20.7743,905.972,-0.0332747,0.0,0.0
132,32.75,15.0698,15.9556,160.678,116.03,116.239,-0.00902627,0.114098,20.7742,905.972,-0.0160862,0.0,0.0
136,33.75,15.5233,15.8946,165.002,115.997,116.115,-0.0091395,0.114131,20.7741,905.962,-0.00911125,0.0,0.0
140,34.75,15.8329,15.8587,164.937,115.974,116.357,-0.00919079,0.114071,20.7741,905.962,-0.0296004,0.0,0.0
144,35.75,15.6402,15.6767,163.441,115.945,116.243,-0.00924936,0.113982,20.774,905.962,-0.0229489,0.0,0.0
148,36.75,15.7484,16.4315,161.271,115.911,116.214,-0.00929417,0.11377,20.774,905.962,-0.0233942,0.0,0.0
152,37.75,15.5569,15.9312,170.509,115.887,116.184,-0.00933336,0.113641,20.774,905.972,-0.0229323,0.0,0.0
156,38.75,15.4716,16.0408,165.379,115.851,116.103,-0.00938625,0.11335,20.7727,905.952,-0.01942,0.0,0.0
160,39.75,15.7419,16.1299,167.495,115.829,116.226,-0.009425,0.113021,20.7719,905.952,-0.0306514,0.0,0.0
164,40.75,15.2584,16.0087,168.403,115.783,116.298,-0.00942975,0.112651,20.7714,905.952,-0.0397043,0.0,0.0
168,41.75,15.6757,16.6934,168.009,115.743,116.131,-0.00940578,0.112286,20.771,905.952,-0.02997,0.0,0.0
172,42.75,15.6919,16.632,167.961,115.71,116.293,-0.00932453,0.111932,20.7708,905.962,-0.0450665,0.0,0.0
176,43.75,15.8414,16.3753,165.746,115.668,116.214,-0.00921109,0.11174,20.7706,905.952,-0.0421447,0.0,0.0
180,44.75,15.5071,16.5127,165.534,115.626,116.039,-0.00909867,0.111743,20.7705,905.972,-0.0319421,0.0,0.0
184,45.75,15.8607,16.1026,169.293,115.589,116.046,-0.00900537,0.111861,20.7704,905.972,-0.0353584,0.0,0.0
188,46.75,15.828,16.3148,164.603,115.546,115.749,-0.00894436,0.111992,20.7702,905.962,-0.0157338,0.0,0.0
192,47.75,15.2565,16.5726,163.976,115.497,115.877,-0.0089177,0.112079,20.7694,905.932,-0.0293636,0.0,0.0
196,48.75,15.7143,16.3943,169.174,115.496,115.886,-0.00891027,0.112136,20.7689,905.972,-0.0301869,0.0,0.0
200,49.75,15.2355,16.1622,169.077,115.51,115.674,-0.00894809,0.112199,20.7686,905.962,-0.0127798,0.0,0.0
204,50.75,15.6656,16.405,165.888,115.512,115.809,-0.00900661,0.112214,20.7684,905.952,-0.0230115,0.0,0.0
208,51.75,15.4223,15.9838,161.66,115.521,115.519,-0.00908751,0.112163,20.7683,905.962,0.000171912,0.0,0.0
212,52.75,15.9959,15.8544,170.562,115.521,115.766,-0.00918212,0.112042,20.7677,905.972,-0.0189551,0.0,0.0
216,53.75,15.4545,15.8348,164.974,115.539,116.068,-0.00926719,0.111913,20.767,905.932,-0.0409743,0.0,0.0
220,54.75,15.7723,16.1527,167.426,115.542,115.891,-0.0093388,0.111846,20.7666,905.932,-0.026968,0.0,0.0
224,55.75,15.4953,16.3093,166.374,115.557,115.995,-0.00937639,0.111751,20.7663,905.942,-0.0339119,0.0,0.0
228,56.75,15.7724,16.0036,164.235,115.558,115.815,-0.0093577,0.111637,20.7661,905.942,-0.0198642,0.0,0.0
232,57.75,15.2749,16.1313,166.945,115.575,115.564,-0.00931356,0.111639,20.766,905.942,0.000889422,0.0,0.0
236,58.75,15.423,16.3298,168.288,115.582,115.901,-0.00926887,0.111743,20.7659,905.932,-0.0246544,0.0,0.0
240,59.75,15.6354,15.9853,168.489,115.593,115.976,-0.00925752,0.11188,20.7658,905.952,-0.0296389,0.0,0.0
244,60.75,15.686,16.6931,168.907,115.6,115.913,-0.00928112,0.112048,20.7656,905.942,-0.0241613,0.0,0.0
248,61.75,15.759,16.6166,163.45,115.616,115.887,-0.00932828,0.112235,20.7652,905.942,-0.0209205,0.0,0.0
252,62.75,16.1677,16.1525,166.975,115.618,116.057,-0.00937515,0.112393,20.7649,905.922,-0.0339178,0.0,0.0
256,63.75,16.01,17.2599,165.317,115.627,115.936,-0.00937758,0.112659,20.7648,905.942,-0.0238696,0.0,0.0
260,64.75,16.5711,16.597,165.52,115.642,115.897,-0.00934321,0.112958,20.7646,905.932,-0.0197373,0.0,0.0
264,65.75,15.3184,16.4287,168.587,115.641,115.92,-0.00929002,0.113163,20.7646,905.932,-0.0215969,0.0,0.0
268,66.75,15.8992,16.8118,168.806,115.655,116.133,-0.00924008,0.113262,20.765,905.942,-0.0368894,0.0,0.0
272,67.75,16.1074,16.8982,169.177,115.671,115.997,-0.00920316,0.113251,20.7656,905.912,-0.025194,0.0,0.0
276,68.75,15.9704,16.6655,165.146,115.69,115.99,-0.00917491,0.113188,20.766,905.932,-0.023201,0.0,0.0
280,69.75,15.8168,16.7052,162.694,115.687,115.976,-0.00915543,0.113121,20.7662,905.942,-0.0223483,0.0,0.0
284,70.75,15.7768,16.732,166.091,115.689,115.801,-0.00912916,0.113077,20.7664,905.952,-0.00865539,0.0,0.0
288,71.75,15.9251,16.4576,167.819,115.705,115.838,-0.00911193,0.112971,20.7665,905.942,-0.0103149,0.0,0.0
292,72.75,15.9162,16.4821,167.815,115.726,115.704,-0.00910594,0.112942,20.7666,905.942,0.00173605,0.0,0.0
296,73.75,16.1633,16.6956,171.724,115.72,116.041,-0.00909812,0.113019,20.7666,905.922,-0.0248327,0.0,0.0
300,74.75,15.9298,16.8789,168.104,115.731,116.035,-0.00908625,0.113132,20.7667,905.942,-0.0234938,0.0,0.0
304,75.75,16.3463,17.0337,166.529,115.733,115.921,-0.00906995,0.113188,20.7667,905.922,-0.0145267,0.0,0.0
308,76.75,16.0617,16.3051,166.196,115.761,116.162,-0.00905363,0.113216,20.7667,905.922,-0.0310103,0.0,0.0
312,77.75,16.3002,16.5755,165.775,115.776,116.062,-0.00904983,0.113187,20.7667,905.912,-0.0221032,0.0,0.0
316,78.75,15.9781,16.5926,165.947,115.766,116.236,-0.0090678,0.113095,20.7667,905.902,-0.0363131,0.0,0.0
320,79.75,15.8321,16.6915,170.086,115.781,116.105,-0.00909488,0.112905,20.7667,905.912,-0.0250217,0.0,0.0
324,80.75,16.4497,17.1734,163.807,115.794,116.002,-0.0091267,0.112598,20.7667,905.912,-0.0160803,0.0,0.0
328,81.75,16.2748,16.9576,164.671,115.792,116.063,-0.00914749,0.112266,20.7667,905.912,-0.020937,0.0,0.0
332,82.75,16.1826,16.9703,169.413,115.811,116.084,-0.00915317,0.112067,20.7672,905.912,-0.0210505,0.0,0.0
336,83.75,16.2176,16.7149,168.344,115.808,116.103,-0.0091569,0.111905,20.7678,905.902,-0.022768,0.0,0.0
340,84.75,15.8901,16.9182,165.545,115.822,116.085,-0.00915934,0.111743,20.7685,905.912,-0.020357,0.0,0.0
344,85.75,16.3478,17.1977,165.101,115.814,116.208,-0.00919016,0.111632,20.769,905.892,-0.0304623,0.0,0.0
348,86.75,16.1933,16.7788,166.778,115.831,116.193,-0.0092351,0.111396,20.7694,905.842,-0.0279394,0.0,0.0
352,87.75,16.3589,17.2179,167.237,115.84,116.259,-0.00926683,0.111241,20.7696,905.902,-0.0323439,0.0,0.0
356,88.75,16.012,16.8652,165.798,115.859,116.092,-0.00926742,0.111173,20.7691,905.882,-0.0179819,0.0,0.0
360,89.75,16.5514,17.0744,161.681,115.862,115.868,-0.00922961,0.1112,20.7687,905.892,-0.000441541,0.0,0.0
364,90.75,15.6758,16.5456,165.543,115.865,116.224,-0.0092048,0.111361,20.7683,905.882,-0.0277065,0.0,0.0
368,91.75,16.6231,17.1431,168.497,115.886,116.155,-0.0091638,0.111664,20.7681,905.872,-0.0208306,0.0,0.0
372,92.75,15.925,16.7871,165.93,115.891,116.23,-0.00916387,0.111966,20.7678,905.852,-0.0261696,0.0,0.0
376,93.75,15.9474,17.2081,167.104,115.895,116.192,-0.00918414,0.112552,20.767,905.852,-0.0229922,0.0,0.0
380,94.75,16.5773,17.3571,165.805,115.902,116.149,-0.00918845,0.1132,20.7662,905.832,-0.0190947,0.0,0.0
384,95.75,16.2072,17.153,162.937,115.915,115.61,-0.00915308,0.113782,20.7651,905.832,0.0236033,0.0,0.0
388,96.75,16.21,16.5597,165.916,115.907,115.849,-0.00908028,0.114205,20.7645,905.842,0.00447931,0.0,0.0
392,97.75,16.79,17.2445,165.428,115.917,116.221,-0.00897324,0.11483,20.764,905.822,-0.0234563,0.0,0.0
396,98.75,16.7728,17.5161,172.34,115.92,115.969,-0.00884222,0.117315,20.7581,905.782,-0.00372094,0.0,0.0
400,99.75,16.353,17.6528,162.845,115.933,115.531,-0.00874896,0.122371,20.747,905.752,0.0311125,0.0,0.0
404,100.75,15.6807,17.0977,162.338,115.922,115.409,-0.0086335,0.133334,20.7287,905.722,0.0397476,0.0,1.0
408,101.75,16.4811,17.527,162.329,115.94,114.323,-0.00854058,0.149825,20.7018,905.502,0.125835,0.0,1.0
412,102.75,16.8847,18.0381,160.571,115.95,114.567,-0.00847643,0.163106,20.6683,905.572,0.107415,0.0,1.0
416,103.75,17.4976,18.3452,158.133,115.951,113.364,-0.00840962,0.186217,20.6325,905.712,0.202095,0.0,1.0
420,104.75,17.0851,18.0925,154.906,115.936,111.498,-0.00828255,0.21446,20.5927,905.632,0.349626,0.0,1.0
424,105.75,17.4893,18.2137,149.417,115.959,110.437,-0.00817679,0.247479,20.5548,905.472,0.436998,0.0,0.0
428,106.75,17.8146,18.7376,151.082,115.951,110.646,-0.00795684,0.281706,20.5154,905.352,0.419481,0.0,0.0
432,107.75,18.474,19.6604,146.155,115.955,109.217,-0.00774061,0.311779,20.4716,905.292,0.536275,0.0,0.0
436,108.75,19.0929,20.2953,149.146,115.951,108.922,-0.00752683,0.349366,20.4198,905.182,0.560141,0.0,0.0
440,109.75,20.1417,21.5382,145.461,115.955,107.954,-0.00729668,0.38416,20.3609,905.102,0.640415,0.0,0.0
444,110.75,20.8526,22.0652,144.711,115.956,107.251,-0.00702657,0.421133,20.3081,905.052,0.698998,0.0,0.0
448,111.75,21.7334,22.7546,143.256,115.957,107.619,-0.00678986,0.456036,20.2622,904.911,0.668421,0.0,0.0
452,112.75,23.1881,24.1928,137.172,115.95,106.121,-0.00645744,0.489582,20.2175,904.851,0.793414,0.0,0.0
456,113.75,23.5654,24.4897,139.984,115.959,106.181,-0.00613248,0.516385,20.1777,904.711,0.789107,0.0,0.0
460,114.75,24.1048,26.4505,136.176,115.958,104.845,-0.00582237,0.546521,20.1376,904.561,0.902373,0.0,0.0
464,115.75,24.9565,27.3665,139.55,115.957,105.404,-0.00555355,0.574283,20.0987,904.471,0.854704,0.0,0.0
468,116.75,26.5878,28.5821,141.154,115.957,105.506,-0.0052828,0.600892,20.0648,904.261,0.845986,0.0,0.0
472,117.75,27.2243,29.7073,140.725,115.948,104.767,-0.00505572,0.626014,20.034,904.191,0.908253,0.0,0.0
476,118.75,28.3451,30.839,142.996,115.947,105.102,-0.00486948,0.648794,20.0043,904.121,0.879677,0.0,0.0
480,119.75,29.2316,32.0622,135.893,115.955,104.085,-0.00470732,0.672064,19.9729,903.971,0.967304,0.0,0.0
484,120.75,30.474,33.6246,142.454,115.941,103.455,-0.00457049,0.693178,19.9444,903.79,1.02061,0.0,0.0
488,121.75,31.2027,34.716,137.522,115.941,104.129,-0.00446478,0.712351,19.9169,903.69,0.962509,0.0,0.0
492,122.75,32.1719,36.3019,128.147,115.933,103.46,-0.00434864,0.733103,19.8896,903.52,1.0196,0.0,0.0
496,123.75,33.614,37.0704,136.305,115.943,102.984,-0.00422162,0.754228,19.8619,903.43,1.06162,0.0,0.0
500,124.75,34.818,38.7281,128.882,115.928,102.882,-0.00409206,0.774056,19.8294,903.24,1.06942,0.0,0.0
504,125.75,35.6106,39.6445,134.069,115.924,103.315,-0.00393091,0.794894,19.8041,903.16,1.03141,0.0,0.0
508,126.75,36.8087,40.8817,128.302,115.911,104.535,-0.00376396,0.814543,19.7834,903.01,0.925361,0.0,0.0
512,127.75,37.2519,42.1189,130.353,115.912,101.791,-0.00363726,0.831845,19.7676,902.93,1.1637,0.0,0.0
516,128.75,39.111,44.3409,133.022,115.905,102.259,-0.0035678,0.845054,19.7562,902.69,1.12199,0.0,0.0
520,129.75,40.1926,45.2032,131.691,115.915,102.259,-0.00348331,0.860933,19.7384,902.589,1.12276,0.0,0.0
524,130.75,41.2996,46.6464,129.872,115.91,101.417,-0.00337619,0.877423,19.7172,902.419,1.19638,0.0,0.0
528,131.75,42.2431,47.9899,126.771,115.876,101.165,-0.00324972,0.888276,19.6944,902.219,1.21605,0.0,0.0
532,132.75,43.7723,49.0428,132.974,115.872,102.088,-0.00313203,0.906387,19.6746,902.069,1.13449,0.0,0.0
536,133.75,44.8306,50.3853,119.755,115.864,101.209,-0.00302172,0.923458,19.6527,901.849,1.21129,0.0,0.0
540,134.75,45.6432,51.9666,124.115,115.847,101.908,-0.00295773,0.936876,19.6325,901.699,1.14828,0.0,0.0
544,135.75,46.728,53.3492,119.479,115.846,102.185,-0.00294195,0.952287,19.6121,901.548,1.12401,0.0,0.0
548,136.75,47.5272,54.6668,123.804,115.834,102.071,-0.00295121,0.967142,19.5937,901.438,1.13304,0.0,0.0
552,137.75,49.1707,55.7175,128.241,115.82,101.43,-0.00297648,0.979974,19.5776,901.238,1.18833,0.0,0.0
556,138.75,50.3197,57.0625,123.408,115.808,102.648,-0.00300104,0.992762,19.5559,901.058,1.08046,0.0,0.0
560,139.75,51.5065,58.6261,123.846,115.8,101.247,-0.0030136,1.00843,19.5351,900.918,1.20299,0.0,0.0
564,140.75,51.9955,59.9234,116.314,115.783,101.608,-0.00299788,1.02433,19.5117,900.748,1.16978,0.0,0.0
568,141.75,53.2376,60.9069,121.478,115.763,102.462,-0.00294772,1.04156,19.4884,900.538,1.09332,0.0,0.0
572,142.75,54.5288,62.8797,122.582,115.744,100.556,-0.00287968,1.05819,19.4659,900.397,1.25995,0.0,0.0
576,143.75,55.1779,63.9569,120.509,115.742,100.57,-0.00278289,1.07499,19.44,900.247,1.2586,0.0,0.0
580,144.75,56.4626,65.2141,118.458,115.724,101.137,-0.00265451,1.09188,19.4154,900.027,1.20687,0.0,0.0
584,145.75,57.8351,66.4242,124.428,115.705,99.6176,-0.00253809,1.10939,19.393,899.837,1.34097,0.0,0.0
588,146.75,59.077,68.4332,114.854,115.688,100.055,-0.00232913,1.126,19.372,899.627,1.30045,0.0,0.0
592,147.75,60.0429,69.1695,122.666,115.667,101.068,-0.00210348,1.14094,19.3551,899.427,1.20853,0.0,0.0
596,148.75,61.4911,70.8216,120.099,115.657,99.908,-0.00184397,1.15338,19.3397,899.226,1.31114,0.0,0.0
600,149.75,62.2794,71.9765,121.444,115.646,99.5242,-0.0016188,1.16436,19.3234,899.016,1.34478,0.0,0.0
604,150.75,63.6677,73.5858,120.177,115.635,99.4331,-0.00140318,1.17417,19.3112,898.816,1.35215,0.0,0.0
608,151.75,64.6627,74.8832,122.917,115.613,97.4747,-0.00123304,1.18314,19.3014,898.716,1.52857,0.0,0.0
612,152.75,65.8869,76.1577,120.99,115.602,98.1618,-0.00108635,1.19073,19.2964,898.426,1.46485,0.0,0.0
616,153.75,66.3667,77.2797,123.359,115.598,97.9505,-0.000998059,1.19801,19.2903,898.336,1.48386,0.0,0.0
620,154.75,67.2804,78.3251,123.41,115.589,99.5551,-0.00090468,1.21078,19.2787,898.165,1.33755,0.0,0.0
624,155.75,67.4086,78.3417,120.483,115.572,99.6855,-0.00083815,1.22609,19.2574,897.905,1.32454,0.0,0.0
628,156.75,69.0834,80.2793,123.326,115.568,98.7801,-0.000789769,1.23707,19.2292,897.735,1.40598,0.0,0.0
632,157.75,70.0813,81.6695,124.571,115.56,100.313,-0.000743247,1.25753,19.1994,897.455,1.26743,0.0,0.0
636,158.75,71.2888,83.3419,116.946,115.554,99.3147,-0.000663779,1.27799,19.1719,897.255,1.35654,0.0,0.0
640,159.75,71.6004,83.9015,118.448,115.546,99.7165,-0.000542859,1.29714,19.1438,897.065,1.31975,0.0,0.0
644,160.75,73.6983,85.7816,119.297,115.538,98.8495,-0.000421232,1.31366,19.1289,896.904,1.39736,0.0,0.0
648,161.75,74.463,87.4029,110.581,115.529,99.1584,-0.000276838,1.33038,19.1081,896.694,1.36872,0.0,0.0
652,162.75,75.9376,88.2489,111.896,115.511,99.6828,-0.000178839,1.34916,19.0879,896.444,1.32009,0.0,0.0
656,163.75,76.2763,88.9195,119.76,115.51,98.5734,-0.000128387,1.3593,19.069,896.274,1.42022,0.0,0.0
660,164.75,77.2504,91.0968,115.051,115.516,98.468,-0.000110654,1.37329,19.0484,896.074,1.43024,0.0,0.0
664,165.75,79.2769,92.833,112.283,115.491,99.0095,-9.9208e-05,1.38795,19.0293,895.843,1.37919,0.0,0.0
668,166.75,79.0676,92.4973,114.89,115.486,98.6895,-9.06927e-05,1.40136,19.0134,895.583,1.40782,0.0,0.0
672,167.75,80.6789,95.2296,121.905,115.479,98.3108,-8.51059e-05,1.41442,18.9997,895.433,1.44175,0.0,0.0
676,168.75,81.8815,95.8303,116.25,115.475,99.3466,-7.69449e-05,1.42733,18.9839,895.133,1.3475,0.0,0.0
680,169.75,82.7377,97.7085,114.326,115.472,99.8062,-7.15905e-05,1.43969,18.9698,894.993,1.30593,0.0,0.0
684,170.75,83.9382,98.5435,111.969,115.456,99.551,-6.63073e-05,1.44993,18.96,894.652,1.32763,0.0,0.0
688,171.75,85.002,100.027,107.153,115.442,98.5022,-4.46554e-05,1.45758,18.953,894.502,1.42144,0.0,0.0
692,172.75,85.9571,101.529,113.535,115.447,99.1972,6.20093e-06,1.46271,18.9482,894.302,1.35886,0.0,0.0
696,173.75,87.0922,103.128,111.5,115.462,97.8132,6.14988e-05,1.46658,18.9457,894.082,1.48588,0.0,0.0
700,174.75,87.8222,103.681,114.554,115.441,97.4294,0.000160926,1.47105,18.9427,893.842,1.51942,0.0,0.0
704,175.75,88.9707,104.597,112.99,115.43,97.84,0.000259759,1.47653,18.9387,893.591,1.48094,0.0,0.0
708,176.75,89.5501,105.584,112.088,115.425,99.1769,0.000364269,1.48223,18.9354,893.461,1.35898,0.0,0.0
712,177.75,90.7508,107.026,116.443,115.419,98.3297,0.00046069,1.48751,18.9332,893.171,1.43531,0.0,0.0
716,178.75,91.1999,108.015,115.162,115.42,98.6983,0.000542437,1.48999,18.9318,892.981,1.40191,0.0,0.0
720,179.75,92.848,109.404,111.517,115.389,98.4883,0.000609666,1.49107,18.9308,892.741,1.41853,0.0,0.0
724,180.75,93.3342,109.977,115.485,115.399,96.8962,0.000655793,1.49091,18.9302,892.53,1.56532,0.0,0.0
728,181.75,93.7148,110.78,112.545,115.39,95.8955,0.000638702,1.49097,18.9292,892.31,1.65761,0.0,0.0
732,182.75,94.9765,112.399,109.208,115.378,97.9071,0.000568902,1.49297,18.9264,892.08,1.47075,0.0,0.0
736,183.75,95.52,113.217,111.401,115.37,97.2333,0.000460073,1.49527,18.9241,891.87,1.53198,0.0,0.0
740,184.75,96.2718,113.76,110.319,115.358,98.0652,0.000359425,1.49777,18.9226,891.68,1.45472,0.0,0.0
744,185.75,97.325,114.91,113.709,115.351,97.9769,0.000321755,1.50048,18.9216,891.399,1.46225,0.0,0.0
748,186.75,97.8339,115.714,105.632,115.345,97.4959,0.000361449,1.50325,18.921,891.239,1.50585,0.0,0.0
752,187.75,98.645,116.406,104.835,115.331,97.3697,0.000446353,1.50385,18.9215,891.029,1.51636,0.0,0.0
756,188.75,99.4158,117.313,107.805,115.33,98.3954,0.000541301,1.50235,18.9241,890.729,1.42246,0.0,0.0
760,189.75,100.295,118.281,109.228,115.318,97.6213,0.000613196,1.49935,18.9258,890.539,1.49222,0.0,0.0
764,190.75,100.067,118.501,114.879,115.302,97.9667,0.000664958,1.49727,18.9269,890.339,1.45941,0.0,0.0
768,191.75,101.263,119.537,117.84,115.292,99.6564,0.00071012,1.49659,18.9268,890.148,1.3054,0.0,0.0
772,192.75,102.218,120.534,101.646,115.287,99.3808,0.000766834,1.49779,18.9268,889.918,1.32984,0.0,0.0
776,193.75,102.843,121.203,111.097,115.283,97.594,0.000826621,1.49961,18.9268,889.688,1.49202,0.0,0.0
780,194.75,102.423,121.172,117.29,115.285,99.1736,0.000881865,1.50059,18.9272,889.458,1.34838,0.0,0.0
784,195.75,104.022,122.595,104.216,115.285,99.3017,0.000919924,1.49875,18.9278,889.228,1.33678,0.0,0.0
788,196.75,104.636,123.503,114.888,115.283,97.422,0.000935387,1.49589,18.9282,889.017,1.50782,0.0,0.0
792,197.75,105.517,124.103,114.576,115.271,97.2439,0.000938602,1.49375,18.9284,888.837,1.52329,0.0,0.0
796,198.75,104.927,124.085,106.718,115.261,98.4744,0.000936239,1.49911,18.9229,888.577,1.40993,0.0,0.0
800,199.75,106.075,125.411,108.901,115.275,98.616,0.000932004,1.50675,18.9135,888.397,1.39809,0.0,0.0
804,200.75,106.395,125.993,108.076,115.293,98.3413,0.000913249,1.5121,18.9045,888.187,1.42446,0.0,0.0
808,201.75,107.167,126.782,108.551,115.287,99.4284,0.000888821,1.52043,18.8986,887.926,1.32558,0.0,0.0
812,202.75,107.772,127.287,111.124,115.295,98.5508,0.000856996,1.52676,18.8948,887.766,1.40559,0.0,0.0
816,203.75,108.592,128.479,115.265,115.301,100.73,0.000829347,1.52937,18.8922,887.536,1.21014,0.0,0.0
820,204.75,109.034,129.363,117.621,115.303,98.7172,0.000795415,1.529,18.8943,887.316,1.39109,0.0,0.0
824,205.75,109.675,129.847,115.376,115.321,98.9387,0.000752853,1.52591,18.8967,887.066,1.3724,0.0,0.0
828,206.75,109.965,130.107,107.415,115.345,98.345,0.000697875,1.52091,18.8983,886.875,1.42822,0.0,0.0
832,207.75,110.701,130.506,112.384,115.336,99.4654,0.000646026,1.51832,18.8993,886.605,1.32601,0.0,0.0
836,208.75,111.151,131.448,103.51,115.337,99.4724,0.000608272,1.51765,18.9,886.435,1.32546,0.0,0.0
840,209.75,111.661,131.932,108.54,115.348,100.639,0.000577856,1.51784,18.9004,886.215,1.2219,0.0,0.0
844,210.75,112.178,133.088,113.045,115.354,100.468,0.000549544,1.51816,18.9007,885.995,1.23761,0.0,0.0
848,211.75,112.691,133.066,113.36,115.361,98.9757,0.000528139,1.51854,18.9001,885.794,1.37216,0.0,0.0
852,212.75,113.113,133.574,111.552,115.369,99.8876,0.000540057,1.518,18.8987,885.544,1.29063,0.0,0.0
856,213.75,113.354,134.335,106.066,115.376,96.8245,0.000599912,1.51796,18.8949,885.344,1.57016,0.0,0.0
860,214.75,113.726,134.684,112.377,115.393,99.5163,0.000667443,1.52064,18.8867,885.094,1.32586,0.0,0.0
864,215.75,114.36,135.189,113.428,115.389,98.8264,0.00079981,1.5257,18.879,884.934,1.38788,0.0,0.0
868,216.75,114.895,135.495,113.991,115.428,98.6252,0.000920556,1.53225,18.8709,884.643,1.40916,0.0,0.0
872,217.75,115.391,136.184,113.328,115.407,99.2176,0.00100868,1.53934,18.8626,884.433,1.35388,0.0,0.0
876,218.75,115.796,136.852,106.534,115.408,98.179,0.00106488,1.54533,18.8575,884.263,1.44825,0.0,0.0
880,219.75,116.244,137.29,110.858,115.415,98.3783,0.00113943,1.54993,18.8519,884.063,1.43059,0.0,0.0
884,220.75,116.954,137.963,101.44,115.428,99.2296,0.00119313,1.55319,18.8482,883.843,1.3544,0.0,0.0
888,221.75,117.498,138.787,113.996,115.434,97.896,0.0012783,1.55508,18.8461,883.603,1.47608,0.0,0.0
892,222.75,117.535,139.001,109.537,115.443,99.3082,0.00137891,1.55841,18.8448,883.332,1.34851,0.0,0.0
896,223.75,118.072,139.589,111.72,115.459,98.5087,0.00149781,1.56015,18.8437,883.112,1.42213,0.0,0.0
900,224.75,118.712,140.439,117.181,115.477,99.1399,0.001612,1.56095,18.8424,882.922,1.3663,0.0,0.0
904,225.75,118.292,139.722,118.835,115.476,98.966,0.0017345,1.56013,18.8416,882.742,1.38199,0.0,0.0
908,226.75,119.352,141.034,118.245,115.483,99.108,0.00182341,1.55999,18.841,882.442,1.36966,0.0,0.0
912,227.75,119.725,141.063,114.036,115.471,98.2442,0.00186474,1.56124,18.8407,882.241,1.4472,0.0,0.0
916,228.75,120.543,141.846,101.272,115.506,98.7639,0.00186611,1.56305,18.8404,881.941,1.4026,0.0,0.0
920,229.75,119.815,141.298,105.061,115.512,98.4129,0.00182948,1.56371,18.8412,881.821,1.43496,0.0,0.0
924,230.75,120.908,143.032,122.705,115.53,98.5628,0.00179892,1.56294,18.8424,881.591,1.42272,0.0,0.0
928,231.75,121.345,143.082,106.951,115.563,99.2129,0.00179486,1.56123,18.8431,881.341,1.36638,0.0,0.0
932,232.75,121.543,143.356,108.497,115.554,98.6858,0.00180313,1.56011,18.8437,881.18,1.41344,0.0,0.0
936,233.75,121.079,142.873,114.996,115.574,99.3674,0.00178499,1.56013,18.8442,880.88,1.35336,0.0,0.0
940,234.75,121.88,144.166,109.321,115.59,98.8782,0.00172227,1.56026,18.8461,880.71,1.39874,0.0,0.0
944,235.75,122.882,144.673,109.678,115.607,98.936,0.00165476,1.55795,18.8496,880.45,1.39485,0.0,0.0
948,236.75,122.745,145.072,116.282,115.613,99.1769,0.00156292,1.55293,18.859,880.22,1.3735,0.0,0.0
952,237.75,122.639,144.375,109.01,115.621,99.4862,0.00149371,1.54582,18.8679,880.059,1.34626,0.0,0.0
956,238.75,123.353,145.576,116.507,115.646,98.3362,0.00143876,1.53867,18.8768,879.869,1.45238,0.0,0.0
960,239.75,123.759,145.382,108.443,115.662,100.05,0.0013883,1.53249,18.8838,879.599,1.29879,0.0,0.0
964,240.75,124.003,146.21,110.703,115.678,97.864,0.00133402,1.52728,18.8889,879.389,1.49793,0.0,0.0
968,241.75,124.193,146.126,116.353,115.707,99.0007,0.00127936,1.52203,18.8947,879.159,1.39676,0.0,0.0
972,242.75,124.044,146.309,103.012,115.719,98.2821,0.00123966,1.516,18.9016,878.978,1.46292,0.0,0.0
976,243.75,124.529,146.705,119.414,115.75,98.6155,0.00119779,1.51061,18.907,878.758,1.43503,0.0,0.0
980,244.75,124.886,147.238,109.391,115.762,98.6788,0.00116244,1.5056,18.913,878.538,1.43015,0.0,0.0
984,245.75,125.016,146.908,115.927,115.774,99.8557,0.00110688,1.49769,18.9218,878.348,1.32494,0.0,0.0
988,246.75,125.167,147.097,114.386,115.793,98.4698,0.00101935,1.48945,18.9344,878.168,1.45158,0.0,0.0
992,247.75,124.887,146.437,102.352,115.815,98.5669,0.000915516,1.48157,18.9516,877.958,1.44443,0.0,0.0
996,248.75,125.152,147.493,104.177,115.829,98.8472,0.000784155,1.46706,18.9703,877.727,1.42005,0.0,0.0
1000,249.75,125.119,147.14,118.416,115.845,98.9799,0.000675597,1.45541,18.9835,877.507,1.40927,0.0,0.0
1004,250.75,124.983,147.236,117.364,115.852,99.4035,0.00056356,1.44649,18.992,877.317,1.3716,0.0,0.0
1008,251.75,125.622,147.157,100.632,115.877,98.9452,0.000443609,1.43653,19.0079,877.037,1.41492,0.0,0.0
1012,252.75,125.558,147.229,115.786,115.891,99.1699,0.000339217,1.4258,19.0232,876.947,1.39565,0.0,0.0
1016,253.75,125.48,147.44,110.085,115.911,98.4842,0.000252674,1.41456,19.0411,876.746,1.45937,0.0,0.0
1020,254.75,125.638,147.203,120.516,115.921,99.1598,0.000179451,1.40137,19.0617,876.506,1.3989,0.0,0.0
1024,255.75,125.586,147.379,108.758,115.93,98.4703,0.000102727,1.38736,19.0802,876.336,1.46209,0.0,0.0
1028,256.75,125.735,147.055,115.77,115.939,99.2879,3.73025e-05,1.37405,19.0961,876.186,1.38876,0.0,0.0
1032,257.75,124.931,146.553,113.127,115.931,100.559,-0.000100005,1.36324,19.1095,875.956,1.27422,0.0,0.0
1036,258.75,125.233,146.408,118.149,115.948,100.151,-0.000264252,1.35225,19.1228,875.796,1.31194,0.0,0.0
1040,259.75,124.714,145.346,116.888,115.944,99.8964,-0.000430443,1.3375,19.143,875.585,1.33442,0.0,0.0
1044,260.75,124.818,146.531,114.506,115.952,100.544,-0.000552964,1.31889,19.1687,875.405,1.27718,0.0,0.0
1048,261.75,124.044,145.008,115.068,115.929,99.0418,-0.000619867,1.30049,19.1893,875.235,1.41018,0.0,0.0
1052,262.75,125.253,145.655,115.308,115.935,97.7392,-0.000645784,1.28575,19.205,875.035,1.52921,0.0,0.0
1056,263.75,124.31,145.368,115.18,115.929,97.0086,-0.00065168,1.27718,19.217,874.865,1.59602,0.0,0.0
1060,264.75,123.868,144.968,118.453,115.902,98.1813,-0.000617998,1.27089,19.2248,874.665,1.48627,0.0,0.0
1064,265.75,123.406,144.496,119.493,115.893,98.4976,-0.000564518,1.26394,19.2362,874.545,1.45677,0.0,0.0
1068,266.75,123.603,144.217,117.509,115.89,98.1591,-0.00051136,1.25503,19.2454,874.254,1.48735,0.0,0.0
1072,267.75,123.275,144.095,120.205,115.879,99.1089,-0.000473467,1.23839,19.2633,874.154,1.4003,0.0,0.0
1076,268.75,123.07,143.425,117.259,115.849,96.0065,-0.00049355,1.22044,19.2911,873.944,1.68284,0.0,0.0
1080,269.75,122.317,142.849,130.333,115.817,95.7854,-0.000570477,1.19799,19.3193,873.804,1.70098,0.0,0.0
1084,270.75,122.078,142.632,118.51,115.792,99.0317,-0.000662929,1.17823,19.3432,873.674,1.40051,0.0,0.0
1088,271.75,121.625,141.382,121.641,115.756,98.0703,-0.000796566,1.14881,19.382,873.504,1.48509,0.0,0.0
1092,272.75,122.132,141.081,124.939,115.734,95.5283,-0.000932824,1.11932,19.4369,873.364,1.71864,0.0,0.0
1096,273.75,120.279,139.863,126.074,115.697,95.5852,-0.00106685,1.08038,19.4968,873.203,1.71047,0.0,0.0
1100,274.75,120.629,139.615,132.745,115.662,96.0911,-0.00126939,1.03864,19.5618,873.113,1.66049,0.0,0.0
1104,275.75,120.066,138.775,127.813,115.633,95.7198,-0.0015461,0.995546,19.6377,872.983,1.69287,0.0,0.0
1108,276.75,118.93,138.291,129.934,115.591,94.9299,-0.00186755,0.945653,19.721,872.863,1.76388,0.0,0.0
1112,277.75,118.278,136.741,131.562,115.563,96.8573,-0.00225142,0.887971,19.7936,872.753,1.58165,0.0,0.0
1116,278.75,117.397,135.651,136.676,115.514,96.8208,-0.00270849,0.830987,19.877,872.653,1.5812,0.0,0.0
1120,279.75,116.181,134.225,139.142,115.494,101.831,-0.00313613,0.776304,19.9648,872.603,1.12774,0.0,0.0
1124,280.75,114.563,132.591,140.986,115.462,101.999,-0.00358189,0.713427,20.0478,872.543,1.11053,0.0,0.0
1128,281.75,113.402,130.527,148.57,115.543,104.463,-0.00403023,0.643924,20.1444,872.473,0.903019,0.0,0.0
1132,282.75,112.202,129.232,149.043,115.67,105.037,-0.0045094,0.576402,20.2405,872.503,0.863756,0.0,0.0
1136,283.75,110.795,126.898,154.893,115.781,106.836,-0.00496403,0.514189,20.3338,872.453,0.720215,0.0,0.0
1140,284.75,108.657,125.58,156.515,115.876,109.371,-0.00550138,0.45355,20.4082,872.453,0.517545,0.0,0.0
1144,285.75,107.515,123.249,156.676,115.977,111.093,-0.00604612,0.396961,20.4773,872.443,0.38539,0.0,0.0
1148,286.75,105.424,121.137,157.498,116.058,112.053,-0.00660644,0.348432,20.5347,872.433,0.314533,0.0,0.0
1152,287.75,103.772,119.179,155.712,116.137,112.1,-0.00713025,0.31014,20.5872,872.443,0.3169,0.0,0.0
1156,288.75,102.118,116.922,155.325,116.176,112.792,-0.00760232,0.272077,20.6347,872.463,0.264806,0.0,0.0
1160,289.75,99.8778,115.344,160.325,116.229,113.241,-0.00801476,0.24057,20.6705,872.473,0.233281,0.0,0.0
1164,290.75,98.3015,112.853,159.519,116.231,112.027,-0.00832459,0.214865,20.6965,872.473,0.32996,0.0,0.0
1168,291.75,97.1898,110.681,157.763,116.244,113.402,-0.00860361,0.194456,20.7155,872.473,0.221758,0.0,0.0
1172,292.75,95.2446,108.892,161.278,116.23,113.331,-0.00885919,0.178094,20.728,872.463,0.226224,0.0,0.0
1176,293.75,93.6635,107.036,163.355,116.193,113.312,-0.009032,0.167359,20.7391,872.473,0.224856,0.0,0.0
1180,294.75,92.4049,104.93,155.844,116.145,112.805,-0.0091172,0.156939,20.7481,872.463,0.261419,0.0,0.0
1184,295.75,90.7447,102.997,160.158,116.069,112.949,-0.00915083,0.148849,20.7556,872.463,0.244015,0.0,0.0
1188,296.75,89.3261,101.583,163.407,115.98,113.011,-0.0091632,0.142261,20.7621,872.473,0.232235,0.0,0.0
1192,297.75,88.0766,100.021,159.644,115.863,113.024,-0.00919044,0.136886,20.7672,872.483,0.222225,0.0,0.0
1196,298.75,86.6106,98.2068,163.129,115.732,113.041,-0.00928248,0.132389,20.7712,872.493,0.210713,0.0,0.0
1200,299.75,84.1061,95.6402,159.005,115.559,111.818,-0.00936942,0.128725,20.7739,872.493,0.294746,0.0,0.0
1204,300.75,84.4042,94.8141,162.738,115.399,112.325,-0.00942864,0.125883,20.7757,872.503,0.241862,0.0,0.0
1208,301.75,83.1835,93.6332,158.853,115.44,112.435,-0.00944989,0.123677,20.7772,872.503,0.236268,0.0,0.0
1212,302.75,81.6831,91.8024,158.688,115.485,112.327,-0.00944909,0.121977,20.779,872.493,0.248325,0.0,0.0
1216,303.75,80.8972,90.6226,160.814,115.56,112.638,-0.0094443,0.120824,20.7802,872.503,0.229417,0.0,0.0
1220,304.75,79.4368,89.1672,159.237,115.616,112.728,-0.00944016,0.119837,20.7809,872.473,0.226589,0.0,0.0
1224,305.75,77.8769,87.9785,160.326,115.702,112.951,-0.00943969,0.118966,20.7822,872.493,0.215493,0.0,0.0
1228,306.75,76.415,86.2536,158.729,115.782,113.564,-0.00944388,0.118049,20.7831,872.483,0.173264,0.0,0.0
1232,307.75,76.2173,85.3309,162.205,115.883,113.828,-0.00943763,0.117143,20.7842,872.493,0.16025,0.0,0.0
1236,308.75,73.8384,83.1448,160.995,115.951,113.522,-0.00940882,0.116301,20.7852,872.503,0.189645,0.0,0.0
1240,309.75,74.0255,83.1286,160.456,116.015,113.218,-0.00937193,0.115226,20.7864,872.483,0.218592,0.0,0.0
1244,310.75,72.7372,81.3884,158.869,116.087,113.428,-0.00935672,0.114138,20.788,872.483,0.207556,0.0,0.0
1248,311.75,71.8496,79.5903,162.918,116.146,113.861,-0.00936654,0.113138,20.7893,872.473,0.178014,0.0,0.0
1252,312.75,70.7744,78.4988,158.601,116.192,113.363,-0.0093936,0.112234,20.7901,872.473,0.220837,0.0,0.0
1256,313.75,70.1069,78.3427,162.554,116.214,113.704,-0.00942251,0.111441,20.7909,872.473,0.195617,0.0,0.0
1260,314.75,69.2952,76.8312,158.797,116.222,113.126,-0.00942731,0.110635,20.7913,872.483,0.241849,0.0,0.0
1264,315.75,68.5733,75.4993,162.867,116.214,113.024,-0.00941779,0.109863,20.7912,872.483,0.249292,0.0,0.0
1268,316.75,67.1874,74.454,157.357,116.202,113.168,-0.00941537,0.109231,20.7912,872.483,0.236957,0.0,0.0
1272,317.75,66.8664,73.9088,160.812,116.145,112.327,-0.00943992,0.108671,20.7914,872.483,0.29943,0.0,0.0
1276,318.75,65.6939,72.4335,162.238,116.072,113.219,-0.00947313,0.108174,20.7921,872.473,0.222914,0.0,0.0
1280,319.75,64.86,71.3773,160.786,115.999,113.581,-0.00956907,0.107666,20.7926,872.483,0.188646,0.0,0.0
1284,320.75,63.5093,70.3769,159.369,115.888,113.465,-0.009641,0.107142,20.7929,872.483,0.189261,0.0,0.0
1288,321.75,63.1806,69.6452,160.152,115.761,112.973,-0.00964924,0.10676,20.7931,872.483,0.218359,0.0,0.0
1292,322.75,62.5161,68.455,161.871,115.622,113.353,-0.00960167,0.106439,20.7932,872.483,0.177522,0.0,0.0
1296,323.75,61.8367,67.2278,158.791,115.474,112.71,-0.00951475,0.106071,20.7937,872.473,0.217041,0.0,0.0
1300,324.75,60.9862,66.7201,158.94,115.318,113.008,-0.00940087,0.105749,20.7944,872.483,0.181313,0.0,0.0
1304,325.75,61.2969,65.7452,159.339,115.149,112.152,-0.00932615,0.105523,20.7949,872.473,0.236209,0.0,0.0
1308,326.75,59.8407,64.9939,164.953,114.973,112.047,-0.00929863,0.105293,20.7951,872.483,0.230931,0.0,0.0
1312,327.75,58.5981,63.7327,161.647,114.79,112.57,-0.00930773,0.104981,20.7953,872.493,0.174944,0.0,0.0
1316,328.75,58.5682,63.4957,161.554,114.599,112.411,-0.00934508,0.104648,20.7955,872.493,0.172688,0.0,0.0
1320,329.75,57.5137,62.3151,162.37,114.416,111.954,-0.00938393,0.104477,20.7956,872.493,0.194846,0.0,0.0
1324,330.75,57.3715,61.6828,157.411,114.249,111.816,-0.00942066,0.104318,20.7956,872.483,0.192752,0.0,0.0
1328,331.75,55.4062,60.373,159.184,114.096,110.769,-0.00943801,0.104199,20.7957,872.503,0.265089,0.0,0.0
1332,332.75,56.1426,60.4396,158.346,113.967,111.224,-0.00944809,0.104124,20.7957,872.493,0.218239,0.0,0.0
1336,333.75,55.2155,59.6199,159.088,113.849,111.474,-0.00946394,0.104115,20.7957,872.483,0.188824,0.0,0.0
1340,334.75,55.0401,58.7423,159.02,113.76,111.328,-0.00950053,0.104132,20.7957,872.483,0.193574,0.0,0.0
1344,335.75,53.6192,57.4356,158.361,113.712,112.082,-0.00955375,0.104091,20.7957,872.483,0.129277,0.0,0.0
1348,336.75,53.8144,57.6539,161.602,113.666,111.452,-0.00960174,0.104004,20.7958,872.493,0.176193,0.0,0.0
1352,337.75,53.0777,57.1143,161.87,113.651,111.187,-0.00965802,0.103931,20.7958,872.493,0.196328,0.0,0.0
1356,338.75,52.1969,56.1514,160.275,113.672,111.429,-0.00969453,0.103934,20.7958,872.503,0.178533,0.0,0.0
1360,339.75,52.096,55.7534,164.426,113.719,110.747,-0.00969697,0.103893,20.7958,872.503,0.237202,0.0,0.0
1364,340.75,52.0002,54.5017,161.696,113.795,111.109,-0.00963704,0.103825,20.7958,872.503,0.213931,0.0,0.0
1368,341.75,51.1963,54.0996,159.301,113.886,111.566,-0.00956425,0.103762,20.7958,872.513,0.184395,0.0,0.0
1372,342.75,50.7808,54.1711,164.407,114.011,111.498,-0.00950301,0.103592,20.7958,872.503,0.199658,0.0,0.0
1376,343.75,49.9992,53.6622,157.405,114.136,112.255,-0.00947856,0.103452,20.7958,872.493,0.148843,0.0,0.0
1380,344.75,49.5673,52.839,165.047,114.312,112.081,-0.009476,0.103337,20.7958,872.473,0.176531,0.0,0.0
1384,345.75,49.1108,52.3068,158.932,114.492,111.686,-0.00948141,0.103262,20.7958,872.463,0.222297,0.0,0.0
1388,346.75,48.8541,51.9768,159.86,114.674,112.071,-0.00948314,0.10322,20.7958,872.453,0.205659,0.0,0.0
1392,347.75,48.3666,51.3958,158.117,114.838,111.771,-0.00947145,0.103181,20.7958,872.473,0.242461,0.0,0.0
1396,348.75,47.9556,50.8542,165.033,115.017,113.3,-0.00943988,0.103083,20.7958,872.463,0.134715,0.0,0.0
1400,349.75,47.6543,50.1061,159.595,115.169,113.304,-0.00936298,0.102941,20.7966,872.503,0.146253,0.0,0.0
1404,350.75,47.5016,49.1767,164.366,115.321,113.377,-0.00924511,0.102951,20.7971,872.483,0.152295,0.0,0.0
1408,351.75,46.4749,48.8606,161.518,115.44,113.558,-0.00910261,0.1029,20.7974,872.483,0.147191,0.0,0.0
1412,352.75,46.2136,48.919,164.534,115.547,113.568,-0.00898215,0.102765,20.7976,872.473,0.154748,0.0,0.0
1416,353.75,46.053,47.7222,158.493,115.632,113.745,-0.00892509,0.102587,20.7978,872.473,0.147391,0.0,0.0
1420,354.75,45.6268,47.4031,162.301,115.734,113.566,-0.00889542,0.102394,20.7979,872.463,0.169404,0.0,0.0
1424,355.75,45.7532,47.0455,160.519,115.807,113.503,-0.00891836,0.102233,20.7979,872.483,0.180045,0.0,0.0
1428,356.75,45.4425,46.5738,161.68,115.866,113.744,-0.00898126,0.102149,20.798,872.503,0.165601,0.0,0.0
1432,357.75,44.7997,45.8145,162.528,115.888,113.703,-0.00905759,0.101991,20.798,872.503,0.170481,0.0,0.0
1436,358.75,44.6734,45.8127,163.963,115.9,113.719,-0.00913239,0.101851,20.798,872.513,0.170114,0.0,0.0
1440,359.75,43.6558,45.1916,159.902,115.897,113.976,-0.00917969,0.101748,20.798,872.493,0.149704,0.0,0.0
1444,360.75,43.4577,44.9033,162.95,115.873,113.788,-0.00921025,0.101695,20.7981,872.473,0.162651,0.0,0.0
1448,361.75,43.8806,44.3789,163.079,115.826,113.002,-0.00926218,0.101656,20.7982,872.483,0.221111,0.0,0.0
1452,362.75,42.0019,43.3949,163.425,115.767,114.064,-0.00933493,0.101595,20.7984,872.503,0.132757,0.0,0.0
1456,363.75,42.4441,43.8138,162.009,115.699,114.167,-0.00941732,0.101554,20.7985,872.483,0.119381,0.0,0.0
1460,364.75,42.3428,43.4143,159.015,115.632,113.433,-0.00948383,0.10152,20.7986,872.473,0.172005,0.0,0.0
1464,365.75,42.4164,43.3396,165.274,115.564,113.186,-0.00952005,0.10148,20.7986,872.493,0.186275,0.0,0.0
1468,366.75,41.0182,41.8142,165.659,115.51,112.908,-0.00952199,0.101428,20.7986,872.493,0.204063,0.0,0.0
1472,367.75,41.6363,41.9854,159.588,115.461,113.465,-0.00951574,0.101408,20.7987,872.493,0.15617,0.0,0.0
1476,368.75,40.9944,41.9484,162.928,115.575,112.492,-0.0094577,0.101425,20.7987,872.503,0.242212,0.0,0.0
1480,369.75,40.6601,41.7569,160.718,115.788,113.821,-0.00939128,0.101419,20.7987,872.503,0.153444,0.0,0.0
1484,370.75,39.8044,40.3932,167.875,115.955,114.412,-0.00933655,0.101454,20.7987,872.493,0.119971,0.0,0.0
1488,371.75,40.078,40.5078,164.779,116.098,114.757,-0.00932215,0.10148,20.7985,872.503,0.104086,0.0,0.0
1492,372.75,39.8977,40.3424,160.877,116.18,114.303,-0.00934813,0.101501,20.7978,872.513,0.145881,0.0,0.0
1496,373.75,39.8083,40.2412,160.225,116.24,113.784,-0.00940126,0.101563,20.7973,872.513,0.191312,0.0,0.0
1500,374.75,39.0959,39.4514,164.226,116.236,113.306,-0.00944653,0.10157,20.797,872.503,0.228669,0.0,0.0
1504,375.75,39.4333,39.8202,160.984,116.21,114.336,-0.00947897,0.10155,20.7972,872.503,0.14563,0.0,0.0
1508,376.75,38.949,39.4656,161.048,116.133,113.429,-0.00948424,0.101525,20.7973,872.493,0.210968,0.0,0.0
1512,377.75,38.9117,39.6694,157.721,116.002,114.167,-0.009483,0.10156,20.797,872.493,0.142779,0.0,0.0
1516,378.75,38.4106,39.0004,160.84,115.83,113.202,-0.00950191,0.101583,20.7968,872.493,0.205544,0.0,0.0
1520,379.75,38.6272,39.0129,158.324,115.607,113.93,-0.00954301,0.101577,20.7967,872.483,0.130941,0.0,0.0
1524,380.75,38.3847,38.3877,164.519,115.435,112.585,-0.00959245,0.101629,20.7966,872.473,0.223865,0.0,0.0
1528,381.75,38.2855,38.3138,161.682,115.501,113.379,-0.00960625,0.101781,20.7965,872.453,0.166101,0.0,0.0
1532,382.75,37.2217,37.4096,158.701,115.596,113.692,-0.00956493,0.10185,20.7965,872.463,0.148809,0.0,0.0
1536,383.75,37.721,37.563,162.83,115.687,113.677,-0.00951469,0.10185,20.7965,872.443,0.157047,0.0,0.0
1540,384.75,37.5249,37,160.983,115.809,113.341,-0.00943923,0.10185,20.7964,872.443,0.192972,0.0,0.0
1544,385.75,37.1155,37.372,163.945,115.923,113.553,-0.0093696,0.101773,20.7973,872.473,0.185019,0.0,0.0
1548,386.75,37.2625,36.8135,164.497,116.04,113.755,-0.00931563,0.101723,20.7979,872.483,0.178179,0.0,0.0
1552,387.75,37.4832,36.4645,167.784,116.12,113.898,-0.00927921,0.101705,20.7983,872.513,0.173108,0.0,0.0
1556,388.75,36.621,36.439,163.352,116.191,113.7,-0.00925532,0.101729,20.7985,872.513,0.194094,0.0,0.0
1560,389.75,36.6337,36.168,158.439,116.253,113.743,-0.00928234,0.101719,20.7987,872.513,0.195532,0.0,0.0
1564,390.75,35.9134,35.4116,161.944,116.258,113.928,-0.00935851,0.101687,20.7988,872.503,0.181339,0.0,0.0
1568,391.75,36.1607,35.5844,164.095,116.25,113.605,-0.00945608,0.101646,20.7989,872.503,0.206172,0.0,0.0
1572,392.75,35.8967,35.4054,162.026,116.199,113.604,-0.00954107,0.101642,20.7989,872.493,0.202292,0.0,0.0
1576,393.75,35.9417,35.1217,162.643,116.115,113.902,-0.00957714,0.101691,20.7989,872.503,0.172345,0.0,0.0
1580,394.75,35.6795,35.0343,161.777,115.977,113.22,-0.00955566,0.101745,20.799,872.503,0.215501,0.0,0.0
1584,395.75,35.617,35.2078,163.499,115.831,113.573,-0.00950495,0.101767,20.799,872.503,0.176356,0.0,0.0
1588,396.75,35.2916,35.1721,161.242,115.652,113.446,-0.00942849,0.101758,20.799,872.523,0.172514,0.0,0.0
1592,397.75,35.2431,34.2358,159.304,115.441,113.043,-0.00933312,0.101764,20.799,872.513,0.188064,0.0,0.0
1596,398.75,35.1961,34.4474,166.529,115.205,113.069,,0.101768,,872.513,0.167625,0.0,0.0
1600,399.75,34.0278,33.3821,162.761,114.96,112.695,,0.10179,,872.503,0.178226,0.0,0.0
1604,400.75,34.5185,33.9115,161.353,114.729,113.096,,0.101839,,872.503,0.128393,0.0,0.0
1608,401.75,34.0307,34.1129,161.022,114.497,112.725,,,,872.483,0.13968,0.0,0.0
1612,402.75,33.9981,33.6603,160.889,114.26,112.409,,,,872.473,0.146348,0.0,0.0
1616,403.75,33.8122,33.3784,160.378,114.07,111.824,,,,872.443,0.178126,0.0,0.0
1620,404.75,34.6777,33.4005,159.302,113.913,111.609,,,,872.483,0.182979,0.0,0.0
1624,405.75,34.1946,33.1653,160.704,113.795,111.296,,,,872.473,0.198883,0.0,0.0
1628,406.75,33.2158,32.381,166.015,113.723,111.979,,,,872.473,0.138449,0.0,0.0
1632,407.75,33.3557,32.9561,159.402,113.71,111.984,,,,872.483,0.137003,0.0,0.0
1636,408.75,33.463,32.3057,163.05,113.743,111.765,,,,872.503,0.157184,0.0,0.0
1637,409,33.7114,32.4345,157.967,113.756,111.149,,,,872.503,0.207686,0.0,0.0