File: 01_Data/PMMA/Cone/PMMA_Cone_HF25Scan_220225_R2.csv
Names,Time,Stack TC,Smoke TC,Exh Press,Smoke Comp,Smoke Meas,CO Meter,CO2 Meter,O2 Meter,Sample Mass,Ext Coeff,Start Test,Flame Verif
Chan Gain,,500,500,1,1,1,1,1,1,1,1,1.0,1.0
Offset,,0,0,0.136092,0,0,0,0,0,0,0,0.0,0.0
Gain,,1,1,25.011,15.4219,15.1528,1,1,1,1.00089,1.02113,1.0,1.0
Units,sec,C,C,Pa,%,%,%,%,%,g,/m,,
Baseline,,20.6247,20.6987,165.244,115.557,114.833,-0.00913272,0.109598,20.7725,0.00246051,0.0563425,,
4,0.75,18.0942,17.9849,162.519,114.249,113.671,-0.00939776,0.113724,20.7708,899.236,0.0454257,0.0,0.0
8,1.75,18.2642,18.2155,161.494,114.237,113.6,-0.00939051,0.113937,20.77,899.186,0.0500438,0.0,0.0
12,2.75,17.5314,18.0586,169.473,114.218,114.043,-0.00937125,0.114103,20.7694,899.216,0.0136679,0.0,0.0
16,3.75,17.9417,17.9432,167.813,114.196,113.557,-0.00934268,0.114232,20.7691,899.196,0.0502604,0.0,0.0
20,4.75,18.5617,18.4782,166.949,114.169,113.68,-0.00929921,0.114301,20.7681,899.206,0.0384952,0.0,0.0
24,5.75,18.7574,18.0618,167.611,114.167,113.813,-0.00925271,0.114342,20.7666,899.166,0.0278238,0.0,0.0
28,6.75,18.2126,18.1853,166.239,114.143,113.664,-0.00922397,0.114354,20.7657,899.196,0.0377031,0.0,0.0
32,7.75,18.7529,18.2002,170.154,114.123,113.678,-0.0092205,0.114336,20.765,899.186,0.0349849,0.0,0.0
36,8.75,18.5077,17.9442,164.671,114.083,113.644,-0.00923773,0.114261,20.7646,899.156,0.0345786,0.0,0.0
40,9.75,18.2666,18.6265,166.916,114.092,113.259,-0.0092439,0.114015,20.7643,899.186,0.0656201,0.0,0.0
44,10.75,18.4839,18.2485,160.205,114.07,112.947,-0.0092153,0.11369,20.7642,899.156,0.088603,0.0,0.0
48,11.75,18.3437,18.2753,164.065,114.042,113.885,-0.00916241,0.113424,20.764,899.136,0.0123575,0.0,0.0
52,12.75,17.9497,17.693,163.282,114.036,113.609,-0.00909104,0.113147,20.7644,899.146,0.033617,0.0,0.0
56,13.75,18.1083,18.3619,163.942,114,113.753,-0.00905533,0.112837,20.7653,899.136,0.0194382,0.0,0.0
60,14.75,18.2031,18.3854,169.866,113.988,113.81,-0.0090688,0.112531,20.7665,899.136,0.0139995,0.0,0.0
64,15.75,18.8887,18.3664,162.865,113.969,113.769,-0.00910154,0.112303,20.768,899.136,0.0157595,0.0,0.0
68,16.75,18.4798,18.3264,165.496,113.953,113.608,-0.00911322,0.111999,20.7691,899.146,0.0271447,0.0,0.0
72,17.75,18.0192,18.4992,164.24,113.933,113.279,-0.00910042,0.111577,20.7702,899.146,0.0515865,0.0,0.0
76,18.75,18.5272,18.3252,161.677,113.907,113.212,-0.00907972,0.111138,20.7713,899.146,0.0548186,0.0,0.0
80,19.75,18.3289,18.6098,163.918,113.898,113.935,-0.0090797,0.110765,20.7724,899.146,-0.00296146,0.0,0.0
84,20.75,18.0764,18.3574,168.892,113.88,113.554,-0.00912246,0.110466,20.7736,899.156,0.0256382,0.0,0.0
88,21.75,18.829,18.4023,167.302,113.868,113.433,-0.00919607,0.110082,20.7743,899.136,0.0343477,0.0,0.0
92,22.75,18.677,18.8379,162.842,113.849,113.199,-0.00928334,0.109666,20.7748,899.126,0.0512521,0.0,0.0
96,23.75,18.6688,18.7235,165.875,113.833,113.858,-0.00934233,0.109291,20.7751,899.136,-0.00199752,0.0,0.0
100,24.75,18.8223,18.2044,167.41,113.827,113.791,-0.0093436,0.109105,20.7761,899.136,0.00283346,0.0,0.0
104,25.75,18.4342,18.9824,166.249,113.82,113.309,-0.00928283,0.109,20.7767,899.136,0.040362,0.0,0.0
108,26.75,18.7442,18.3023,166.446,113.806,113.114,-0.00920151,0.10891,20.7772,899.126,0.0546541,0.0,0.0
112,27.75,18.8641,19.1419,167.883,113.79,113.323,-0.00915171,0.108803,20.7774,899.116,0.0368216,0.0,0.0
116,28.75,18.7069,19.1168,159.119,113.785,113.345,-0.00915474,0.108656,20.7776,899.116,0.0346605,0.0,0.0
120,29.75,18.4446,18.8136,167.661,113.766,113.417,-0.00921221,0.10851,20.778,899.136,0.0275524,0.0,0.0
124,30.75,18.8207,18.6294,164.521,113.765,113.245,-0.00926458,0.108363,20.7786,899.116,0.041037,0.0,0.0
128,31.75,18.6465,18.9865,164.606,113.751,113.607,-0.00931653,0.108229,20.7792,899.116,0.0112954,0.0,0.0
132,32.75,18.2592,18.8742,167.029,113.75,113.37,-0.00933149,0.108193,20.7796,899.136,0.0299813,0.0,0.0
136,33.75,19.0627,18.6148,168.665,113.746,113.338,-0.00926491,0.108215,20.7798,899.126,0.032169,0.0,0.0
140,34.75,18.3059,19.0363,167.06,113.745,113.142,-0.00915392,0.108195,20.78,899.126,0.0476044,0.0,0.0
144,35.75,18.7369,18.7293,164.889,113.741,113.567,-0.00905061,0.1081,20.7801,899.106,0.0136903,0.0,0.0
148,36.75,18.7556,19.1063,162.8,113.753,113.422,-0.00897949,0.107973,20.7802,899.126,0.0261131,0.0,0.0
152,37.75,18.4396,19.0303,167.613,113.747,113.271,-0.00896204,0.107871,20.7806,899.106,0.0375808,0.0,0.0
156,38.75,19.1591,18.5427,164.727,113.744,113.53,-0.0089843,0.107958,20.7809,899.116,0.0168296,0.0,0.0
160,39.75,18.3466,18.5759,166.168,113.76,113.188,-0.00903936,0.108186,20.7812,899.096,0.0451665,0.0,0.0
164,40.75,18.8912,18.9975,163.84,113.751,113.418,-0.00909673,0.108517,20.7813,899.096,0.0262568,0.0,0.0
168,41.75,18.8142,19.0435,163.288,113.779,113.109,-0.00914663,0.108782,20.7814,899.096,0.0529092,0.0,0.0
172,42.75,18.5034,19.0347,165.622,113.775,113.52,-0.00919203,0.108975,20.7815,899.106,0.0201158,0.0,0.0
176,43.75,18.2953,19.1607,165.18,113.774,113.621,-0.00921385,0.10912,20.7815,899.096,0.0120547,0.0,0.0
180,44.75,18.7377,18.9669,166.105,113.79,113.389,-0.00919446,0.109164,20.7822,899.086,0.0316328,0.0,0.0
184,45.75,19.1174,18.9869,166.932,113.805,113.279,-0.00915861,0.10901,20.7828,899.096,0.0414791,0.0,0.0
188,46.75,19.0751,18.2871,166.556,113.84,113.342,-0.00912958,0.108832,20.7832,899.116,0.0392501,0.0,0.0
192,47.75,18.8475,19.1556,164.25,113.845,113.634,-0.00910703,0.108578,20.784,899.096,0.0166633,0.0,0.0
196,48.75,18.4118,18.8489,164.611,113.869,113.376,-0.00905607,0.10822,20.7848,899.096,0.038878,0.0,0.0
200,49.75,18.6079,19.1028,161.174,113.892,113.752,-0.00901205,0.107762,20.7853,899.076,0.0110757,0.0,0.0
204,50.75,18.8771,18.9469,162.013,113.925,113.535,-0.00899606,0.107488,20.7856,899.086,0.0306868,0.0,0.0
208,51.75,19.0277,18.97,162.583,113.94,113.659,-0.00901377,0.107196,20.7856,899.086,0.0220994,0.0,0.0
212,52.75,18.6852,18.8566,169.82,113.973,113.651,-0.00904344,0.10695,20.785,899.086,0.0253443,0.0,0.0
216,53.75,18.6892,19.5224,167.207,113.993,113.376,-0.00906816,0.106737,20.7846,899.086,0.048573,0.0,0.0
220,54.75,19.2167,19.3002,162.817,114.051,113.582,-0.00908539,0.106623,20.7844,899.096,0.0369141,0.0,0.0
224,55.75,19.3522,19.0972,159.636,114.07,113.263,-0.00911243,0.106625,20.7842,899.086,0.0636282,0.0,0.0
228,56.75,18.6596,18.7962,164.581,114.096,113.382,-0.00915263,0.106647,20.7841,899.106,0.05623,0.0,0.0
232,57.75,18.8366,19.1007,169.596,114.131,113.653,-0.00919699,0.106768,20.784,899.086,0.0375808,0.0,0.0
236,58.75,18.9484,19.4159,163.415,114.18,113.709,-0.00923059,0.106846,20.784,899.066,0.0370502,0.0,0.0
240,59.75,19.3045,19.6565,165.894,114.229,113.804,-0.00925068,0.10686,20.784,899.076,0.0334244,0.0,0.0
244,60.75,19.2483,19.5382,166.735,114.273,113.549,-0.0092643,0.106815,20.7844,899.076,0.0569696,0.0,0.0
248,61.75,19.0129,19.3377,165.206,114.314,113.931,-0.00928599,0.106751,20.7855,899.076,0.0300973,0.0,0.0
252,62.75,18.1488,19.2553,165.519,114.357,114.033,-0.00933617,0.10673,20.7862,899.086,0.0254583,0.0,0.0
256,63.75,18.8211,19.1687,165.64,114.415,113.769,-0.0093736,0.106721,20.7866,899.096,0.0507562,0.0,0.0
260,64.75,19.4559,18.9945,162.599,114.485,114.161,-0.00936804,0.106729,20.7869,899.076,0.0253507,0.0,0.0
264,65.75,18.9168,19.2446,164.138,114.517,114.105,-0.00931734,0.106746,20.7871,899.076,0.0322456,0.0,0.0
268,66.75,19.2089,19.4547,167.797,114.569,114.413,-0.00924526,0.106735,20.7873,899.066,0.0121869,0.0,0.0
272,67.75,19.336,19.6243,162.628,114.618,114.027,-0.00919035,0.106651,20.7874,899.076,0.0462936,0.0,0.0
276,68.75,19.2118,19.4106,165.546,114.669,114.423,-0.00915693,0.10654,20.7874,899.066,0.0192614,0.0,0.0
280,69.75,18.9475,19.7882,163.299,114.708,114.307,-0.00914858,0.106442,20.7875,899.056,0.0314029,0.0,0.0
284,70.75,19.5931,19.5597,167.499,114.759,114.339,-0.00916062,0.106404,20.7875,899.066,0.0327989,0.0,0.0
288,71.75,18.7691,19.6433,165.329,114.803,114.27,-0.00921808,0.106379,20.7877,899.056,0.0416492,0.0,0.0
292,72.75,19.0363,19.7101,161.448,114.856,114.266,-0.00930297,0.106334,20.788,899.056,0.0460875,0.0,0.0
296,73.75,19.0841,19.6941,163.812,114.906,114.318,-0.00939462,0.106311,20.7881,899.076,0.0459548,0.0,0.0
300,74.75,19.3516,19.4957,162.051,114.974,114.738,-0.00945194,0.106394,20.7877,899.066,0.018361,0.0,0.0
304,75.75,18.9905,19.3548,162.125,115.024,114.814,-0.00950381,0.106495,20.7872,899.056,0.0163286,0.0,0.0
308,76.75,19.5055,19.3386,165.021,115.077,114.662,-0.00950687,0.106573,20.7868,899.056,0.0323829,0.0,0.0
312,77.75,19.0461,20.099,164.688,115.128,114.665,-0.00945523,0.106671,20.7857,899.066,0.0360846,0.0,0.0
316,78.75,19.1259,19.4901,167.125,115.183,114.898,-0.00937991,0.106787,20.7851,899.056,0.0221441,0.0,0.0
320,79.75,19.3097,19.4493,162.236,115.222,115.089,-0.0092833,0.106904,20.7846,899.046,0.0103771,0.0,0.0
324,80.75,19.3285,19.5971,162.076,115.28,115.11,-0.00919969,0.107011,20.7843,899.046,0.0131849,0.0,0.0
328,81.75,19.0815,19.6248,164.439,115.324,114.689,-0.00913348,0.107108,20.7841,899.046,0.0494258,0.0,0.0
332,82.75,19.2655,19.6297,161.54,115.378,114.873,-0.00909005,0.107233,20.7832,899.036,0.0392671,0.0,0.0
336,83.75,19.0351,19.8074,165.934,115.423,114.585,-0.00904207,0.107405,20.7827,899.046,0.0653382,0.0,0.0
340,84.75,18.9271,19.5402,163.373,115.469,114.95,-0.00900535,0.107551,20.7824,899.026,0.0403322,0.0,0.0
344,85.75,19.0382,19.8864,165.148,115.517,115.221,-0.00899119,0.107789,20.7818,899.026,0.0230005,0.0,0.0
348,86.75,19.1429,19.4373,160.918,115.551,115.392,-0.0090036,0.108119,20.7802,899.036,0.0123372,0.0,0.0
352,87.75,18.9539,18.9615,163.647,115.587,114.939,-0.00903398,0.108481,20.7787,899.036,0.0503198,0.0,0.0
356,88.75,19.7746,19.676,168.643,115.638,115.265,-0.00906296,0.108822,20.7772,899.016,0.0289606,0.0,0.0
360,89.75,19.7425,19.8806,172.143,115.678,115.297,-0.00908198,0.109071,20.7756,898.996,0.0295428,0.0,0.0
364,90.75,18.9412,19.5998,159.504,115.723,115.199,-0.00906075,0.109389,20.7746,898.996,0.0406596,0.0,0.0
368,91.75,19.0588,19.4957,167.287,115.758,115.214,-0.00901536,0.110526,20.7721,898.956,0.042205,0.0,0.0
372,92.75,19.5048,19.7111,164.067,115.791,114.537,-0.00896078,0.114307,20.7652,898.956,0.0975051,0.0,0.0
376,93.75,19.6532,19.8019,159.265,115.825,114.782,-0.00889351,0.12158,20.7508,898.926,0.0810879,0.0,1.0
380,94.75,19.2855,20.0214,159.168,115.879,114.166,-0.00881438,0.132259,20.7281,898.916,0.133361,0.0,1.0
384,95.75,19.7942,19.7866,160.913,115.905,113.834,-0.00871014,0.148574,20.7026,898.856,0.161486,0.0,1.0
388,96.75,19.7379,20.2642,156.963,115.937,113.304,-0.00856568,0.169232,20.6757,898.846,0.205792,0.0,1.0
392,97.75,20.1935,20.5983,154.288,115.969,113.172,-0.0083397,0.190688,20.6397,898.726,0.218689,0.0,1.0
396,98.75,20.3132,20.5633,149.167,116.004,110.857,-0.0080772,0.217944,20.597,898.766,0.406461,0.0,1.0
400,99.75,20.0624,20.5805,152.592,116.039,109.19,-0.00779972,0.250198,20.5475,898.686,0.54498,0.0,0.0
404,100.75,20.7644,21.2006,148.428,116.058,108.242,-0.00757224,0.28318,20.5043,898.606,0.624501,0.0,0.0
408,101.75,21.9389,22.3747,145.02,116.093,106.582,-0.00729941,0.317386,20.4485,898.476,0.765668,0.0,0.0
412,102.75,22.4901,22.8803,142.32,116.113,106.228,-0.00701703,0.350872,20.3999,898.406,0.796934,0.0,0.0
416,103.75,23.1825,23.571,142.508,116.137,107.11,-0.00677093,0.377808,20.3609,898.256,0.724735,0.0,0.0
420,104.75,23.8168,24.4225,145.474,116.162,106.742,-0.00652666,0.41111,20.3257,898.276,0.757533,0.0,0.0
424,105.75,24.2838,25.6844,135.928,116.182,105.696,-0.00633924,0.441195,20.2925,898.105,0.847227,0.0,0.0
428,106.75,24.6468,26.6484,136.224,116.196,107.224,-0.00613127,0.470588,20.2614,897.985,0.719838,0.0,0.0
432,107.75,26.5694,27.1012,136.633,116.218,105.788,-0.00594717,0.502128,20.225,897.875,0.842225,0.0,0.0
436,108.75,26.3379,28.2941,140.04,116.227,106.499,-0.00581439,0.527268,20.1833,897.795,0.782936,0.0,0.0
440,109.75,27.9989,29.982,135.109,116.233,104.915,-0.00571346,0.557595,20.1392,897.685,0.917652,0.0,0.0
444,110.75,28.3272,30.5229,126.691,116.246,105.469,-0.00561162,0.58663,20.1005,897.585,0.871422,0.0,0.0
448,111.75,30.073,32.1316,132.037,116.258,105.217,-0.00547892,0.611944,20.0676,897.455,0.893834,0.0,0.0
452,112.75,30.757,33.2007,136.444,116.263,105.86,-0.00533027,0.632811,20.0415,897.355,0.83964,0.0,0.0
456,113.75,32.0362,34.2152,136.572,116.264,104.727,-0.00514077,0.654171,20.0148,897.175,0.936128,0.0,0.0
460,114.75,32.887,35.7218,133.555,116.276,105.633,-0.00495069,0.674669,19.9837,897.075,0.859851,0.0,0.0
464,115.75,33.8831,37.3644,132.396,116.273,105.532,-0.00477176,0.695532,19.953,896.894,0.868183,0.0,0.0
468,116.75,34.7373,38.1638,134.511,116.281,104.637,-0.0046193,0.716914,19.9253,896.804,0.945109,0.0,0.0
472,117.75,36.631,39.5085,129.284,116.267,103.613,-0.00447323,0.736966,19.9024,896.724,1.0321,0.0,0.0
476,118.75,37.6071,41.0874,136.086,116.272,104.695,-0.00434638,0.754034,19.883,896.584,0.939399,0.0,0.0
480,119.75,37.7726,41.7802,127.925,116.266,104.124,-0.00423069,0.770827,19.8625,896.374,0.987996,0.0,0.0
484,120.75,39.6129,43.3265,126.832,116.252,102.935,-0.00411712,0.784582,19.8374,896.224,1.08974,0.0,0.0
488,121.75,40.6148,44.9555,130.654,116.285,103.67,-0.00397922,0.801273,19.8132,896.084,1.0286,0.0,0.0
492,122.75,41.4957,45.6528,128.006,116.258,102.453,-0.00382549,0.818109,19.7864,895.953,1.13227,0.0,0.0
496,123.75,42.0316,46.9399,126.241,116.237,103.226,-0.00368663,0.835671,19.7646,895.803,1.06326,0.0,0.0
500,124.75,43.5534,48.9537,126.084,116.224,103.001,-0.00352544,0.854193,19.7427,895.673,1.08192,0.0,0.0
504,125.75,44.7124,49.9829,129.734,116.226,102.157,-0.0033926,0.872371,19.7192,895.553,1.15568,0.0,0.0
508,126.75,44.9038,50.5657,120.078,116.221,102.874,-0.00327847,0.888683,19.7013,895.303,1.09262,0.0,0.0
512,127.75,46.9323,52.7776,116.251,116.203,103.265,-0.00318561,0.903027,19.6896,895.183,1.05736,0.0,0.0
516,128.75,48.0686,54.0261,127.44,116.188,102.683,-0.00312469,0.918542,19.67,895.053,1.1068,0.0,0.0
520,129.75,49.3476,55.068,122.927,116.181,102.598,-0.00307949,0.934433,19.6517,894.843,1.11364,0.0,0.0
524,130.75,49.5189,55.761,117.544,116.163,102.492,-0.00303708,0.947416,19.6325,894.682,1.12155,0.0,0.0
528,131.75,51.0666,57.8308,121.98,116.149,102.304,-0.00291937,0.964497,19.6086,894.512,1.13692,0.0,0.0
532,132.75,52.5044,59.6914,121.537,116.142,101.606,-0.00277472,0.982865,19.585,894.352,1.19761,0.0,0.0
536,133.75,53.736,60.6634,121.623,116.112,102.671,-0.00265326,0.998644,19.5639,894.202,1.10204,0.0,0.0
540,134.75,54.0368,61.483,123.454,116.112,102.257,-0.00256394,1.0126,19.5451,894.012,1.13818,0.0,0.0
544,135.75,55.5908,63.4938,131.258,116.08,100.807,-0.00248467,1.02785,19.5151,893.862,1.26365,0.0,0.0
548,136.75,56.6186,64.5597,128.45,116.06,101.849,-0.00244281,1.04431,19.4981,893.641,1.16991,0.0,0.0
552,137.75,58.1246,65.67,118.964,116.054,102.762,-0.00238564,1.05862,19.4799,893.511,1.08956,0.0,0.0
556,138.75,59.1951,67.2223,117.901,116.032,101.497,-0.00226845,1.07826,19.4614,893.321,1.19881,0.0,0.0
560,139.75,60.3204,68.5329,117.391,116.005,100.51,-0.00212939,1.09219,19.4373,893.171,1.28426,0.0,0.0
564,140.75,61.0958,69.8788,116.611,115.991,101.228,-0.00199533,1.10866,19.4135,892.971,1.21936,0.0,0.0
568,141.75,62.2578,71.3321,119.187,115.966,101.56,-0.00189171,1.1237,19.3926,892.751,1.1881,0.0,0.0
572,142.75,63.3255,72.4774,123.316,115.944,99.9935,-0.00181933,1.1368,19.3738,892.571,1.32568,0.0,0.0
576,143.75,64.2965,73.6758,117.759,115.929,101.765,-0.00175991,1.14868,19.3553,892.44,1.16722,0.0,0.0
580,144.75,65.3492,75.2334,114.845,115.91,100.734,-0.00171287,1.16113,19.34,892.25,1.25695,0.0,0.0
584,145.75,66.6274,76.4301,120.899,115.89,101.801,-0.00162358,1.17387,19.3236,892.04,1.16106,0.0,0.0
588,146.75,67.3406,77.5448,125.085,115.884,101.373,-0.00152455,1.18811,19.3053,891.86,1.1983,0.0,0.0
592,147.75,68.9137,78.9476,108.314,115.861,100.77,-0.00142587,1.20428,19.2824,891.65,1.25,0.0,0.0
596,148.75,69.536,80.3667,114.029,115.848,100.663,-0.00134341,1.22166,19.2585,891.44,1.25848,0.0,0.0
600,149.75,71.2738,81.6081,123.32,115.819,101.536,-0.0012509,1.24097,19.2313,891.269,1.17895,0.0,0.0
604,150.75,72.1155,82.7557,114.275,115.799,101.513,-0.0011422,1.25934,19.2084,891.059,1.17946,0.0,0.0
608,151.75,73.3057,84.9841,108.898,115.787,100.413,-0.0010604,1.27756,19.1852,890.859,1.27604,0.0,0.0
612,152.75,74.3415,86.2346,115.697,115.773,101.157,-0.00092975,1.297,19.1662,890.729,1.20886,0.0,0.0
616,153.75,75.543,87.0742,118.826,115.748,100.046,-0.000746917,1.31469,19.148,890.419,1.30579,0.0,0.0
620,154.75,76.8128,88.9746,116.765,115.712,100.884,-0.00058142,1.3285,19.13,890.208,1.22831,0.0,0.0
624,155.75,77.3908,90.1396,109.611,115.708,100.06,-0.000432873,1.34291,19.1083,889.988,1.30153,0.0,0.0
628,156.75,78.9279,91.6802,112.307,115.672,100.059,-0.000368353,1.35622,19.0965,889.778,1.2988,0.0,0.0
632,157.75,80.0185,93.4064,113.645,115.661,100.715,-0.000290899,1.36605,19.0848,889.578,1.23938,0.0,0.0
636,158.75,81.1669,94.6669,115.863,115.645,98.8828,-0.000220955,1.37771,19.0707,889.348,1.40258,0.0,0.0
640,159.75,82.125,95.9448,109.571,115.628,98.0814,-0.000148502,1.38801,19.0544,889.218,1.47416,0.0,0.0
644,160.75,83.0702,97.2367,114.632,115.626,98.9244,-8.49639e-05,1.40381,19.0323,888.897,1.39739,0.0,0.0
648,161.75,83.8397,98.0599,116.74,115.592,99.7138,-3.73522e-05,1.42046,19.0083,888.747,1.32354,0.0,0.0
652,162.75,84.7009,99.0116,103.891,115.569,99.9348,1.25552e-05,1.43717,18.9842,888.517,1.30196,0.0,0.0
656,163.75,86.4502,100.431,113.568,115.551,99.6749,7.66522e-05,1.45315,18.9649,888.287,1.32389,0.0,0.0
660,164.75,87.0556,102.018,113.28,115.542,100.336,0.000129587,1.46641,18.9522,888.127,1.26394,0.0,0.0
664,165.75,88.4063,103.499,103.468,115.519,100.339,0.000167339,1.47571,18.9438,887.856,1.26194,0.0,0.0
668,166.75,89.1518,104.763,113.699,115.504,100.706,0.00016961,1.48083,18.9377,887.626,1.22805,0.0,0.0
672,167.75,90.0599,106.02,111.062,115.489,99.4298,0.000164353,1.4837,18.9336,887.396,1.34109,0.0,0.0
676,168.75,91.3753,107.394,106.449,115.472,99.5704,0.000159132,1.4864,18.9302,887.216,1.32712,0.0,0.0
680,169.75,92.1915,108.14,116.308,115.464,97.6763,0.000151686,1.49069,18.9261,886.945,1.49857,0.0,0.0
684,170.75,93.3299,109.263,115.315,115.452,99.5648,0.000145848,1.49557,18.921,886.755,1.32609,0.0,0.0
688,171.75,94.2538,111.003,107.58,115.445,100.025,0.000149105,1.49915,18.917,886.575,1.28424,0.0,0.0
692,172.75,94.9527,111.839,103.602,115.429,98.184,0.000152292,1.50107,18.915,886.305,1.44939,0.0,0.0
696,173.75,95.6837,112.512,120.448,115.44,99.4284,0.00019778,1.50244,18.913,886.075,1.33742,0.0,0.0
700,174.75,96.767,114.251,118.518,115.423,100.62,0.000243586,1.50597,18.9102,885.855,1.22942,0.0,0.0
704,175.75,97.8103,114.969,105.571,115.456,99.6083,0.000297278,1.51039,18.9043,885.664,1.32247,0.0,0.0
708,176.75,98.4837,116.111,113.786,115.51,100.135,0.000368688,1.51558,18.8987,885.474,1.27951,0.0,0.0
712,177.75,99.6558,117.316,109.895,115.543,99.9921,0.00047546,1.51987,18.895,885.234,1.29478,0.0,0.0
716,178.75,100.291,118.024,107.978,115.592,98.6414,0.000603431,1.5228,18.8926,885.024,1.42039,0.0,0.0
720,179.75,101.064,119.26,111.634,115.641,96.5859,0.000719412,1.52281,18.8934,884.734,1.61281,0.0,0.0
724,180.75,101.112,119.645,115.838,115.686,95.8331,0.00083467,1.52169,18.8944,884.523,1.68643,0.0,0.0
728,181.75,102.346,120.261,103.14,115.724,97.2953,0.000920826,1.52032,18.8954,884.323,1.55368,0.0,0.0
732,182.75,102.984,121.442,115.464,115.763,99.8372,0.000957768,1.51948,18.8956,884.123,1.32572,0.0,0.0
736,183.75,103.504,122.072,110.886,115.794,99.028,0.000941146,1.51997,18.8941,883.853,1.40103,0.0,0.0
740,184.75,104.177,122.449,109.298,115.842,99.0964,0.000874436,1.5224,18.8915,883.633,1.39851,0.0,0.0
744,185.75,104.941,123.576,110.18,115.871,100.326,0.000803986,1.52379,18.89,883.472,1.29027,0.0,0.0
748,186.75,105.255,124.506,114.25,115.906,99.951,0.000724661,1.52488,18.8885,883.272,1.32655,0.0,0.0
752,187.75,106.176,125.086,110.398,115.941,99.0234,0.000668107,1.5263,18.8875,883.002,1.41279,0.0,0.0
756,188.75,106.625,125.809,121.018,115.98,100.233,0.000689625,1.52734,18.8856,882.802,1.30701,0.0,0.0
760,189.75,107.029,125.905,114.799,115.992,99.7133,0.00076919,1.52992,18.8841,882.552,1.35453,0.0,0.0
764,190.75,107.875,127.256,113.78,116.013,98.5655,0.000853011,1.53179,18.883,882.362,1.45986,0.0,0.0
768,191.75,108.55,128.149,110.228,116.039,100.016,0.000891987,1.53184,18.8819,882.121,1.33104,0.0,0.0
772,192.75,109.308,128.642,110.11,116.063,100.399,0.000877672,1.53067,18.8808,881.931,1.29859,0.0,0.0
776,193.75,108.616,128.574,105.734,116.078,100.223,0.000841654,1.53083,18.8801,881.731,1.31548,0.0,0.0
780,194.75,110.481,130.027,107.654,116.097,100.319,0.000769215,1.53303,18.8756,881.491,1.30842,0.0,0.0
784,195.75,110.966,131.232,113.053,116.116,99.3808,0.000704101,1.53597,18.8695,881.26,1.39403,0.0,0.0
788,196.75,111.668,131.407,111.984,116.146,99.9061,0.000674123,1.53962,18.8647,881.01,1.3491,0.0,0.0
792,197.75,112.079,132.386,105.59,116.148,99.5949,0.00068004,1.543,18.8611,880.79,1.37719,0.0,0.0
796,198.75,112.372,132.347,108.079,116.152,99.1843,0.000713837,1.54629,18.8577,880.56,1.41456,0.0,0.0
800,199.75,113.469,133.748,110.217,116.16,99.9607,0.000766479,1.5488,18.8558,880.37,1.3453,0.0,0.0
804,200.75,112.727,133.151,107.921,116.185,99.2971,0.000807381,1.55054,18.8545,880.12,1.40688,0.0,0.0
808,201.75,113.904,134.769,113.613,116.178,100.111,0.000837419,1.55278,18.8518,879.889,1.33318,0.0,0.0
812,202.75,114.654,135.709,110.446,116.195,100.193,0.00085487,1.55521,18.8489,879.629,1.32716,0.0,0.0
816,203.75,115.362,136.085,108.356,116.192,99.9149,0.000873092,1.55813,18.8455,879.439,1.3519,0.0,0.0
820,204.75,115.565,136.486,108.72,116.196,99.9376,0.000894079,1.56214,18.8361,879.209,1.35016,0.0,0.0
824,205.75,116.303,137.191,105.166,116.209,99.9871,0.000909628,1.56986,18.828,878.978,1.34671,0.0,0.0
828,206.75,116.974,137.195,103.793,116.197,99.9163,0.000920308,1.57646,18.8227,878.758,1.35214,0.0,0.0
832,207.75,117.168,137.745,111.75,116.197,99.8608,0.000937168,1.57993,18.8193,878.508,1.35708,0.0,0.0
836,208.75,117.626,138.662,112.891,116.195,100.176,0.000972258,1.58116,18.817,878.328,1.32873,0.0,0.0
840,209.75,117.906,139.214,112.765,116.197,100.909,0.00104726,1.58146,18.8155,878.088,1.26354,0.0,0.0
844,210.75,118.728,140.048,120.667,116.195,99.0636,0.00111457,1.58279,18.8139,877.888,1.42877,0.0,0.0
848,211.75,119.351,140.14,105.403,116.186,100.045,0.00116777,1.58516,18.8109,877.687,1.33979,0.0,0.0
852,212.75,119.43,140.945,111.021,116.189,98.135,0.00121159,1.58786,18.8066,877.457,1.51265,0.0,0.0
856,213.75,120.151,141.791,103.613,116.177,99.0543,0.00126057,1.58991,18.8018,877.177,1.42819,0.0,0.0
860,214.75,120.294,141.989,106.726,116.167,98.1965,0.00130342,1.59316,18.7976,876.987,1.50537,0.0,0.0
864,215.75,121.078,142.732,100.363,116.165,100.384,0.00133696,1.59799,18.7903,876.737,1.30783,0.0,0.0
868,216.75,121.245,142.706,106.247,116.17,99.3392,0.00134536,1.604,18.7824,876.486,1.40196,0.0,0.0
872,217.75,121.694,143.77,107.431,116.147,98.4153,0.00131467,1.60893,18.7756,876.276,1.48388,0.0,0.0
876,218.75,122.47,144.385,104.679,116.134,98.8754,0.00126288,1.61245,18.7684,876.086,1.44105,0.0,0.0
880,219.75,122.704,144.896,106.749,116.123,99.8423,0.00119273,1.61797,18.7631,875.866,1.35304,0.0,0.0
884,220.75,123.022,145.044,117.326,116.125,98.8869,0.0011038,1.6217,18.7594,875.565,1.43931,0.0,0.0
888,221.75,123.657,145.54,113.109,116.11,99.471,0.00104544,1.62349,18.7554,875.365,1.38544,0.0,0.0
892,222.75,123.955,146.071,111.977,116.1,99.1579,0.000955581,1.62473,18.7535,875.055,1.41288,0.0,0.0
896,223.75,124.453,146.849,107.486,116.089,99.102,0.000920092,1.6264,18.7538,874.895,1.4171,0.0,0.0
900,224.75,124.713,147.288,103.397,116.078,100.406,0.000976277,1.62762,18.7547,874.585,1.29913,0.0,0.0
904,225.75,124.729,146.689,99.5155,116.077,100.351,0.00109241,1.62852,18.7566,874.444,1.304,0.0,0.0
908,226.75,125.801,148.365,113.834,116.061,99.1695,0.0012188,1.62605,18.7608,874.314,1.40882,0.0,0.0
912,227.75,126.557,148.345,102.38,116.036,99.6375,0.00132334,1.62136,18.7681,874.024,1.36476,0.0,0.0
916,228.75,125.882,148.063,104.565,116.036,97.7581,0.00139857,1.61607,18.7729,873.804,1.53528,0.0,0.0
920,229.75,126.812,149.602,111.184,116.028,98.4846,0.00145597,1.61299,18.776,873.564,1.46838,0.0,0.0
924,230.75,127.23,149.231,110.205,115.999,99.7249,0.0014823,1.61205,18.7781,873.313,1.35404,0.0,0.0
928,231.75,127.633,149.625,108.751,115.996,99.0354,0.00148599,1.61288,18.7794,873.083,1.41593,0.0,0.0
932,232.75,127.008,149.94,107.625,115.994,98.498,0.00147935,1.61249,18.7807,872.853,1.46451,0.0,0.0
936,233.75,127.829,150.973,108.605,115.967,99.6194,0.00146073,1.60987,18.785,872.603,1.36104,0.0,0.0
940,234.75,128.383,150.996,106.009,115.962,98.2451,0.00141613,1.60549,18.7926,872.453,1.48511,0.0,0.0
944,235.75,128.62,151.377,109.65,115.952,98.7482,0.00136145,1.59952,18.7993,872.172,1.43855,0.0,0.0
948,236.75,128.45,151.137,104.103,115.931,99.2402,0.00127372,1.5935,18.8053,872.062,1.39244,0.0,0.0
952,237.75,128.918,151.363,111.291,115.927,98.6344,0.00118613,1.58872,18.8101,871.732,1.44692,0.0,0.0
956,238.75,129.236,151.997,104.122,115.892,98.0943,0.00109508,1.58597,18.814,871.542,1.49345,0.0,0.0
960,239.75,129.386,151.997,107.721,115.878,98.7117,0.00102655,1.5828,18.8172,871.312,1.43612,0.0,0.0
964,240.75,129.581,152.485,108.991,115.876,100.149,0.000918036,1.57664,18.826,871.102,1.30654,0.0,0.0
968,241.75,129.712,152.509,106.567,115.842,100.159,0.00081663,1.56616,18.8421,870.921,1.30301,0.0,0.0
972,242.75,129.879,152.752,109.641,115.827,100.362,0.00073935,1.55491,18.8573,870.711,1.28375,0.0,0.0
976,243.75,129.902,152.7,106.364,115.798,100.409,0.000679632,1.53922,18.8801,870.471,1.27728,0.0,0.0
980,244.75,130.316,152.686,107.108,115.791,97.938,0.000634056,1.52218,18.898,870.271,1.49994,0.0,0.0
984,245.75,130.449,153.288,122.142,115.769,100.009,0.000534557,1.50481,18.9187,870.061,1.31077,0.0,0.0
988,246.75,130.513,152.983,114.36,115.74,99.3494,0.000430566,1.49068,18.9377,869.86,1.36778,0.0,0.0
992,247.75,130.363,152.811,114.872,115.726,98.5891,0.000269857,1.47918,18.9554,869.62,1.43556,0.0,0.0
996,248.75,129.656,152.175,103.935,115.7,99.4474,0.000101428,1.46612,18.9751,869.39,1.35588,0.0,0.0
1000,249.75,130.066,152.352,114.415,115.69,98.6812,-3.32128e-05,1.44979,19.001,869.25,1.42436,0.0,0.0
1004,250.75,130.594,152.558,112.996,115.663,98.1068,-0.000135035,1.43074,19.0284,869.05,1.47457,0.0,0.0
1008,251.75,129.788,152.136,114.49,115.647,97.2227,-0.00017712,1.41181,19.0499,868.85,1.55442,0.0,0.0
1012,252.75,129.761,151.856,112.516,115.623,95.0409,-0.000187024,1.39412,19.0708,868.739,1.7559,0.0,0.0
1016,253.75,129.721,151.52,118.417,115.584,98.1642,-0.000185217,1.37567,19.092,868.459,1.46325,0.0,0.0
1020,254.75,129.489,151.812,124.623,115.562,96.0939,-0.000197977,1.35519,19.1227,868.359,1.65246,0.0,0.0
1024,255.75,129.157,150.866,118.352,115.534,94.461,-0.000249456,1.32835,19.1642,868.139,1.80382,0.0,0.0
1028,256.75,128.929,150.745,116.73,115.512,95.6051,-0.000308373,1.30184,19.2033,867.979,1.69427,0.0,0.0
1032,257.75,128.186,149.981,119.668,115.498,98.295,-0.000470627,1.26518,19.2585,867.779,1.44464,0.0,0.0
1036,258.75,127.805,148.742,118.516,115.459,97.7813,-0.00069169,1.22337,19.3173,867.648,1.48855,0.0,0.0
1040,259.75,127.848,148.69,125.91,115.424,98.5873,-0.000962574,1.17741,19.3827,867.508,1.41228,0.0,0.0
1044,260.75,126.602,147.964,123.949,115.406,98.9646,-0.00124367,1.12992,19.4557,867.378,1.37664,0.0,0.0
1048,261.75,125.96,146.464,123.325,115.371,97.9903,-0.0015135,1.07928,19.5235,867.208,1.46259,0.0,0.0
1052,262.75,125.286,145.852,125.502,115.337,99.8627,-0.00178716,1.0293,19.591,867.108,1.29039,0.0,0.0
1056,263.75,123.945,144.148,129.185,115.342,98.9711,-0.00203003,0.981956,19.6501,866.958,1.37108,0.0,0.0
1060,264.75,123.894,143.797,131.923,115.348,99.428,-0.00226615,0.940336,19.7008,866.888,1.3303,0.0,0.0
1064,265.75,122.918,142.306,128.297,115.347,100.456,-0.00250022,0.896694,19.7614,866.748,1.2381,0.0,0.0
1068,266.75,122.27,141.386,131.717,115.351,98.6553,-0.00272627,0.856367,19.8153,866.678,1.40044,0.0,0.0
1072,267.75,119.794,138.951,136.189,115.344,100.17,-0.00289972,0.814266,19.8652,866.557,1.26339,0.0,0.0
1076,268.75,119.973,138.72,133.333,115.358,99.2624,-0.00308967,0.770585,19.9227,866.497,1.34603,0.0,0.0
1080,269.75,118.421,137.376,137.226,115.373,98.9692,-0.00330738,0.726939,19.982,866.387,1.37366,0.0,0.0
1084,270.75,117.415,135.674,141.712,115.364,101.906,-0.00357529,0.688504,20.0366,866.327,1.11107,0.0,0.0
1088,271.75,115.994,133.403,142.005,115.363,102.031,-0.00389731,0.642921,20.0888,866.277,1.10002,0.0,0.0
1092,272.75,114.528,132.469,141.14,115.372,100.397,-0.00431432,0.602739,20.1509,866.197,1.24535,0.0,0.0
1096,273.75,113.547,130.992,144.765,115.377,101.073,-0.00478045,0.560843,20.21,866.137,1.18556,0.0,0.0
1100,274.75,112.648,129.184,143.642,115.375,101.44,-0.0052667,0.521223,20.2711,866.087,1.15293,0.0,0.0
1104,275.75,110.723,127.483,145.702,115.394,104.347,-0.00574816,0.484523,20.3312,866.037,0.901364,0.0,0.0
1108,276.75,109.011,125.273,146.769,115.38,106.025,-0.00614532,0.446182,20.3813,866.047,0.757439,0.0,0.0
1112,277.75,107.961,123.693,145.167,115.401,104.886,-0.00651039,0.410908,20.4245,865.977,0.855826,0.0,0.0
1116,278.75,106.551,121.986,150.337,115.387,107.344,-0.00682395,0.379276,20.4633,865.957,0.647177,0.0,0.0
1120,279.75,104.926,120.353,151.143,115.39,109.079,-0.0071091,0.349968,20.5035,865.967,0.503778,0.0,0.0
1124,280.75,103.638,118.227,155.006,115.39,109.367,-0.00736514,0.322448,20.5438,865.947,0.48015,0.0,0.0
1128,281.75,102.086,116.191,155.702,115.4,111.894,-0.00757893,0.293618,20.5811,865.917,0.276371,0.0,0.0
1132,282.75,100.946,114.773,156.013,115.398,110.821,-0.00779491,0.268009,20.6159,865.947,0.362483,0.0,0.0
1136,283.75,99.1585,113.231,153.684,115.407,110.825,-0.0080163,0.243617,20.6475,865.907,0.36284,0.0,0.0
1140,284.75,97.9111,111.483,155.336,115.409,111.41,-0.00825718,0.221537,20.6717,865.927,0.315869,0.0,0.0
1144,285.75,96.2371,109.483,158.153,115.398,111.351,-0.00848067,0.203061,20.6921,865.927,0.319715,0.0,0.0
1148,286.75,94.7418,107.497,156.876,115.415,111.313,-0.00868928,0.18642,20.7117,865.927,0.324117,0.0,0.0
1152,287.75,93.0778,105.543,158.549,115.425,111.965,-0.00886623,0.172724,20.7285,865.917,0.272606,0.0,0.0
1156,288.75,91.6468,103.425,162.481,115.424,112.332,-0.00897953,0.161452,20.7417,865.927,0.243246,0.0,0.0
1160,289.75,90.0162,101.683,155.789,115.425,111.794,-0.00904133,0.151864,20.7508,865.947,0.286343,0.0,0.0
1164,290.75,88.914,99.9503,156.967,115.438,111.31,-0.00907902,0.144115,20.7583,865.937,0.326204,0.0,0.0
1168,291.75,87.3303,98.5409,161.448,115.43,111.883,-0.00908073,0.137862,20.7633,865.917,0.279523,0.0,0.0
1172,292.75,86.1671,97.405,160.161,115.426,111.611,-0.00906149,0.132878,20.7665,865.927,0.301025,0.0,0.0
1176,293.75,85.0665,95.8823,156.035,115.435,111.249,-0.00903519,0.129035,20.769,865.937,0.330861,0.0,0.0
1180,294.75,83.822,94.1732,159.541,115.435,111.616,-0.00900993,0.125907,20.7716,865.917,0.301347,0.0,0.0
1184,295.75,82.5533,92.9518,159.778,115.431,111.708,-0.00899833,0.123507,20.7741,865.927,0.293674,0.0,0.0
1188,296.75,81.0575,91.1186,154.761,115.446,112.52,-0.00899736,0.121416,20.7764,865.937,0.22993,0.0,0.0
1192,297.75,80.4391,89.6112,153.92,115.444,111.758,-0.0090031,0.119657,20.7778,865.927,0.290693,0.0,0.0
1196,298.75,78.5382,88.8291,153.997,115.444,112.362,-0.00902708,0.118245,20.7788,865.957,0.242347,0.0,0.0
1200,299.75,77.3633,86.5315,160.49,115.441,112.689,-0.00908327,0.117013,20.7794,865.957,0.216102,0.0,0.0
1204,300.75,77.2891,85.7857,159.884,115.454,112.471,-0.00915609,0.115966,20.7798,865.937,0.234454,0.0,0.0
1208,301.75,76.3316,84.8825,158.854,115.451,112.399,-0.00922635,0.115092,20.7807,865.937,0.239982,0.0,0.0
1212,302.75,75.2023,83.5901,155.826,115.463,111.12,-0.00929266,0.11435,20.7815,865.957,0.343447,0.0,0.0
1216,303.75,74.2657,82.5937,155.483,115.456,112.817,-0.00934806,0.11377,20.7814,865.947,0.207132,0.0,0.0
1220,304.75,73.4918,81.0162,155.327,115.467,112.962,-0.00942245,0.113276,20.7811,865.937,0.196486,0.0,0.0
1224,305.75,72.2898,80.0042,156.323,115.478,112.228,-0.00950379,0.112855,20.7807,865.957,0.255634,0.0,0.0
1228,306.75,71.0904,78.8028,152.987,115.469,112.362,-0.00956671,0.112609,20.7803,865.967,0.244318,0.0,0.0
1232,307.75,70.6141,77.5886,160.326,115.467,112.689,-0.00961699,0.112279,20.7801,865.967,0.218074,0.0,0.0
1236,308.75,69.6752,77.4607,158.326,115.474,112.234,-0.00963424,0.11195,20.7806,865.957,0.254862,0.0,0.0
1240,309.75,68.5862,75.653,159.555,115.471,111.958,-0.0096186,0.111536,20.7811,865.937,0.276777,0.0,0.0
1244,310.75,68.3748,74.7847,157.427,115.476,112.543,-0.00959709,0.111147,20.7822,865.937,0.230427,0.0,0.0
1248,311.75,67.081,73.8361,156.194,115.471,112.984,-0.00957181,0.110866,20.783,865.937,0.195092,0.0,0.0
1252,312.75,66.5831,72.8515,158.289,115.475,112.88,-0.00954086,0.110613,20.7835,865.937,0.203563,0.0,0.0
1256,313.75,65.6179,71.6582,154.683,115.475,112.863,-0.00951913,0.110356,20.7838,865.957,0.204958,0.0,0.0
1260,314.75,64.7203,71.1353,160.19,115.486,112.549,-0.00951903,0.110078,20.7835,865.937,0.230752,0.0,0.0
1264,315.75,64.0342,69.8515,156.842,115.481,112.933,-0.00952278,0.109792,20.7829,865.937,0.199819,0.0,0.0
1268,316.75,63.7401,69.3905,159.679,115.486,112.565,-0.00951993,0.109477,20.7827,865.937,0.229426,0.0,0.0
1272,317.75,62.9194,67.717,158.801,115.482,113.077,-0.00949801,0.109159,20.7832,865.937,0.188493,0.0,0.0
1276,318.75,62.6538,67.1831,155.85,115.488,112.289,-0.00944763,0.108924,20.7835,865.957,0.251678,0.0,0.0
1280,319.75,61.4259,66.4803,159.378,115.491,112.239,-0.009359,0.108752,20.7837,865.957,0.255844,0.0,0.0
1284,320.75,60.8027,65.651,156.225,115.496,112.618,-0.00928969,0.108511,20.7838,865.957,0.226073,0.0,0.0
1288,321.75,60.2496,64.9886,155.932,115.488,112.988,-0.00926669,0.108373,20.7839,865.947,0.196003,0.0,0.0
1292,322.75,59.813,64.1166,159.136,115.501,112.472,-0.00928024,0.108273,20.784,865.947,0.238068,0.0,0.0
1296,323.75,58.7568,63.4627,155.169,115.502,112.84,-0.00929869,0.108182,20.784,865.947,0.208873,0.0,0.0
1300,324.75,58.3555,62.6052,159.202,115.494,112.486,-0.00929956,0.108125,20.7834,865.937,0.236415,0.0,0.0
1304,325.75,57.8526,61.6052,158.756,115.502,112.722,-0.00929269,0.108128,20.7829,865.937,0.218202,0.0,0.0
1308,326.75,57.4342,60.8686,157.83,115.498,113.115,-0.00928214,0.108096,20.7827,865.947,0.186767,0.0,0.0
1312,327.75,56.0501,61.0529,159.33,115.506,111.989,-0.00927588,0.108029,20.7832,865.957,0.276963,0.0,0.0
1316,328.75,56.5631,60.006,155.083,115.51,112.745,-0.00927336,0.107753,20.7835,865.957,0.216949,0.0,0.0
1320,329.75,55.8424,59.1849,156.115,115.526,112.872,-0.00927105,0.107532,20.7837,865.947,0.208166,0.0,0.0
1324,330.75,55.6739,58.1917,157.819,115.516,112.8,-0.00926468,0.107396,20.7846,865.947,0.213126,0.0,0.0
1328,331.75,54.3493,58.0161,154.721,115.515,112.847,-0.00925253,0.107284,20.7852,865.957,0.209345,0.0,0.0
1332,332.75,53.4037,57.1472,160.185,115.508,113.588,-0.00923924,0.107159,20.7856,865.957,0.150151,0.0,0.0
1336,333.75,53.5456,56.1498,156.919,115.511,113.076,-0.00923087,0.107054,20.7859,865.957,0.190829,0.0,0.0
1340,334.75,53.0196,56.2134,154.713,115.516,112.445,-0.00923648,0.106957,20.7861,865.957,0.241335,0.0,0.0
1344,335.75,53.0085,55.4514,156.244,115.513,112.827,-0.00926294,0.10684,20.7862,865.947,0.210777,0.0,0.0
1348,336.75,52.2926,55.1534,160.06,115.501,113.414,-0.00929645,0.10669,20.7869,865.937,0.163289,0.0,0.0
1352,337.75,51.1796,53.6845,155.113,115.516,112.211,-0.00934765,0.106541,20.7879,865.947,0.259957,0.0,0.0
1356,338.75,51.1744,54.2786,160.366,115.509,112.923,-0.00935999,0.106494,20.7886,865.937,0.202852,0.0,0.0
1360,339.75,50.9011,53.1774,160.116,115.509,112.157,-0.00933754,0.10645,20.7891,865.947,0.263803,0.0,0.0
1364,340.75,50.604,52.6152,160.226,115.519,113.338,-0.00930021,0.106411,20.7894,865.947,0.170704,0.0,0.0
1368,341.75,49.9002,52.2575,160.37,115.513,113.481,-0.00928488,0.106385,20.7896,865.947,0.15898,0.0,0.0
1372,342.75,49.5456,51.6997,156.139,115.507,113.599,-0.00929237,0.106317,20.7895,865.957,0.149239,0.0,0.0
1376,343.75,49.2529,50.6709,159.029,115.519,112.794,-0.00933539,0.106292,20.7889,865.967,0.213823,0.0,0.0
1380,344.75,48.9893,51.0364,158.834,115.511,112.646,-0.0093988,0.106281,20.7885,865.957,0.224997,0.0,0.0
1384,345.75,48.4091,50.2945,157.492,115.517,112.423,-0.0094575,0.106214,20.7882,865.937,0.24314,0.0,0.0
1388,346.75,48.5049,49.6222,157.935,115.518,113.017,-0.00955444,0.106173,20.788,865.947,0.195993,0.0,0.0
1392,347.75,47.643,49.4674,158.367,115.526,113.016,-0.00963377,0.106152,20.7879,865.957,0.19676,0.0,0.0
1396,348.75,47.3424,49.4553,159.551,115.527,113.381,-0.00968582,0.106097,20.7883,865.937,0.167925,0.0,0.0
1400,349.75,47.4293,48.3523,159.212,115.519,113.12,-0.00971466,0.106058,20.7889,865.957,0.18797,0.0,0.0
1404,350.75,46.8391,47.8467,155.753,115.527,112.751,-0.00972346,0.106066,20.7893,865.937,0.217932,0.0,0.0
1408,351.75,46.2599,47.5061,156.739,115.514,113.662,-0.00970449,0.106107,20.7895,865.957,0.144756,0.0,0.0
1412,352.75,46.2434,47.4097,158.476,115.531,113.863,-0.00968074,0.106032,20.7897,865.947,0.130268,0.0,0.0
1416,353.75,45.7842,46.7925,157.816,115.53,113.049,-0.00964922,0.106008,20.7898,865.947,0.194487,0.0,0.0
1420,354.75,45.8244,46.692,159.452,115.541,113.352,-0.00963508,0.105941,20.7899,865.967,0.171322,0.0,0.0
1424,355.75,45.3135,46.371,158.304,115.54,113.61,-0.00964032,0.105856,20.7899,865.967,0.150882,0.0,0.0
1428,356.75,45.0821,45.6436,160.449,115.55,113.515,-0.00967519,0.105769,20.7895,865.967,0.159125,0.0,0.0
1432,357.75,44.582,45.4297,161.896,115.556,113.102,-0.00970791,0.105721,20.7887,865.957,0.192244,0.0,0.0
1436,358.75,44.197,44.5188,158.851,115.545,113.218,-0.00972277,0.105762,20.7881,865.947,0.182218,0.0,0.0
1440,359.75,44.2232,44.7955,160.556,115.561,113.588,-0.00973061,0.10586,20.7877,865.947,0.154238,0.0,0.0
1444,360.75,43.8662,44.2815,161.722,115.56,113.844,-0.00970034,0.106011,20.7874,865.947,0.134058,0.0,0.0
1448,361.75,43.4695,43.9858,159.055,115.566,113.286,-0.00964616,0.106147,20.7869,865.947,0.178483,0.0,0.0
1452,362.75,42.5755,42.9716,158.821,115.568,112.911,-0.00958623,0.106288,20.7861,865.957,0.208367,0.0,0.0
1456,363.75,42.98,42.839,158.683,115.573,112.685,-0.00953861,0.106508,20.7852,865.957,0.226651,0.0,0.0
1460,364.75,42.9085,43.1549,156.125,115.575,113.576,-0.00951262,0.106678,20.7843,865.957,0.15628,0.0,0.0
1464,365.75,41.9222,41.9119,161.234,115.57,113.704,-0.00950556,0.10679,20.7836,865.937,0.145855,0.0,0.0
1468,366.75,41.944,42.1267,154.383,115.574,112.941,-0.00950496,0.106966,20.7832,865.957,0.206421,0.0,0.0
1472,367.75,41.8118,41.9188,161.075,115.575,113.623,-0.00950681,0.107185,20.7829,865.977,0.152634,0.0,0.0
1476,368.75,41.9927,41.3002,160.337,115.582,113.309,-0.00950802,0.107354,20.7821,865.957,0.177932,0.0,0.0
1480,369.75,40.6329,40.4828,159.038,115.581,113.123,-0.00953892,0.107424,20.7814,865.957,0.19253,0.0,0.0
1484,370.75,41.4544,41.0011,161.775,115.583,113.276,-0.00959208,0.107452,20.781,865.957,0.180637,0.0,0.0
1488,371.75,40.986,40.9191,158.487,115.596,113.735,-0.00961501,0.107474,20.7807,865.967,0.145384,0.0,0.0
1492,372.75,40.8001,40.8864,157.374,115.59,113.765,-0.00957524,0.107544,20.7805,865.947,0.142508,0.0,0.0
1496,373.75,39.4319,39.7933,160.757,115.587,113.413,-0.00951696,0.107641,20.7804,865.947,0.170075,0.0,0.0
1500,374.75,40.6842,40.0743,160.07,115.59,112.75,-0.00943378,0.107756,20.7803,865.957,0.222893,0.0,0.0
1504,375.75,39.6319,39.1885,159.214,115.595,113.387,-0.00940393,0.107754,20.7802,865.947,0.172777,0.0,0.0
1508,376.75,40.0005,39.9083,160.152,115.584,113.029,-0.00942254,0.107571,20.7808,865.947,0.200258,0.0,0.0
1512,377.75,39.6151,39.1863,161.165,115.581,113.27,-0.00944715,0.107302,20.7818,865.947,0.180893,0.0,0.0
1516,378.75,39.5316,39.1445,161.932,115.58,113.635,-0.00947194,0.107067,20.7828,865.947,0.152014,0.0,0.0
1520,379.75,39.1949,39.2262,157.323,115.599,113.391,-0.00949957,0.106968,20.7835,865.947,0.172776,0.0,0.0
1524,380.75,39.2925,38.4495,164.004,115.584,113.974,-0.00952117,0.106918,20.7839,865.947,0.1257,0.0,0.0
1528,381.75,39.0021,38.4212,159.408,115.572,113.758,-0.009517,0.106921,20.7842,865.957,0.141705,0.0,0.0
1532,382.75,39.3072,38.5104,159.25,115.59,113.853,-0.00949673,0.106898,20.7844,865.957,0.135593,0.0,0.0
1536,383.75,39.2404,37.7341,158.373,115.581,113.157,-0.00947598,0.106883,20.7845,865.957,0.189857,0.0,0.0
1540,384.75,38.2196,37.7725,159.075,115.591,114.055,-0.00945261,0.106887,20.7844,865.977,0.119818,0.0,0.0
1544,385.75,38.3542,37.9459,156.096,115.594,113.921,-0.00943301,0.106901,20.7837,865.967,0.130574,0.0,0.0
1548,386.75,37.6934,37.4116,163.479,115.579,113.92,-0.00942288,0.106833,20.7833,865.947,0.129516,0.0,0.0
1552,387.75,37.6669,37.4224,157.418,115.587,113.832,-0.00941925,0.106917,20.783,865.957,0.13701,0.0,0.0
1556,388.75,38.1847,37.3543,159.936,115.584,113.68,-0.00944158,0.107024,20.7828,865.977,0.148808,0.0,0.0
1560,389.75,37.4287,36.3978,163.914,115.581,113.588,-0.00945174,0.107094,20.7827,865.957,0.155733,0.0,0.0
1564,390.75,37.5817,36.8032,160.412,115.59,113.706,-0.0094407,0.10716,20.7821,865.927,0.147169,0.0,0.0
1568,391.75,37.3115,36.6253,160.478,115.59,113.856,-0.00941275,0.107194,20.7814,865.957,0.13541,0.0,0.0
1572,392.75,37.1653,36.1939,157.98,115.584,113.827,-0.00939013,0.10718,20.7814,865.927,0.137192,0.0,0.0
1576,393.75,37.0175,35.7443,160.312,115.586,114.08,-0.00938768,0.107148,20.7818,865.927,0.117418,0.0,0.0
1580,394.75,36.9843,35.8395,160.686,115.596,113.678,-0.00939399,0.107058,20.782,865.947,0.149902,0.0,0.0
1584,395.75,36.5639,34.9136,153.343,115.589,113.684,,0.106962,,865.947,0.14888,0.0,0.0
1588,396.75,36.2345,35.1637,160.174,115.588,113.916,,0.106924,,865.957,0.1305,0.0,0.0
1592,397.75,36.6066,35.0206,162.245,115.584,114.069,,0.1069,,865.957,0.118181,0.0,0.0
1596,398.75,36.1588,35.4464,159.765,115.579,113.799,,,,865.947,0.139047,0.0,0.0
1600,399.75,36.4112,35.1059,158.572,115.59,113.772,,,,865.967,0.141924,0.0,0.0
1604,400.75,35.2118,34.0913,158.942,115.592,114.145,,,,865.957,0.112884,0.0,0.0
1608,401.75,36.1189,34.5651,161.42,115.598,113.876,,,,865.947,0.134466,0.0,0.0
1612,402.75,35.7455,34.4544,160.619,115.604,113.454,,,,865.937,0.168139,0.0,0.0
1616,403.75,35.5332,34.3076,157.333,115.595,113.785,,,,865.967,0.14138,0.0,0.0
1620,404.75,34.6067,33.3181,165.201,115.601,113.9,,,,865.987,0.132831,0.0,0.0
1624,405.75,35.6002,34.3746,157.655,115.597,113.394,,,,865.967,0.172339,0.0,0.0