File: 01_Data/PMMA/Cone/PMMA_Cone_HF25Scan_220225_R3.csv
Names,Time,Stack TC,Smoke TC,Exh Press,Smoke Comp,Smoke Meas,CO Meter,CO2 Meter,O2 Meter,Sample Mass,Ext Coeff,Start Test,Flame Verif
Chan Gain,,500,500,1,1,1,1,1,1,1,1,1.0,1.0
Offset,,0,0,0.136092,0,0,0,0,0,0,0,0.0,0.0
Gain,,1,1,25.011,15.4219,15.1528,1,1,1,1.00089,1.02113,1.0,1.0
Units,sec,C,C,Pa,%,%,%,%,%,g,/m,,
Baseline,,21.6997,21.4434,163.198,115.453,115.433,-0.00916287,0.107833,20.7783,-0.00162644,0.00158484,,
4,0.75,19.3445,19.0303,160.451,115.723,115.818,-0.00922999,0.113456,20.7693,900.407,-0.00732,0.0,0.0
8,1.75,19.7279,19.6339,162.836,115.719,115.503,-0.00921749,0.114502,20.768,900.337,0.0167411,0.0,0.0
12,2.75,19.2552,19.6239,162.992,115.716,115.777,-0.00919355,0.115356,20.7672,900.377,-0.00475505,0.0,0.0
16,3.75,19.5783,19.0563,167.01,115.711,115.835,-0.00917321,0.115887,20.7667,900.367,-0.00955377,0.0,0.0
20,4.75,19.6467,19.4434,159.679,115.719,115.428,-0.00915667,0.116047,20.7663,900.347,0.0226245,0.0,0.0
24,5.75,19.3447,19.7817,168.043,115.71,115.781,-0.00915695,0.116005,20.7659,900.347,-0.00547835,0.0,0.0
28,6.75,19.158,19.5874,160.342,115.725,115.627,-0.00917061,0.115642,20.7655,900.347,0.00757274,0.0,0.0
32,7.75,19.566,19.3036,166.57,115.729,115.655,-0.00917058,0.115189,20.7659,900.337,0.0057151,0.0,0.0
36,8.75,19.2859,19.383,163.989,115.725,115.497,-0.00914585,0.114561,20.7667,900.317,0.0176449,0.0,0.0
40,9.75,19.9857,19.5488,159.456,115.731,115.705,-0.00908889,0.113932,20.7681,900.347,0.00206593,0.0,0.0
44,10.75,19.6679,19.6209,161.375,115.718,115.818,-0.00901573,0.113143,20.7694,900.337,-0.00779236,0.0,0.0
48,11.75,19.5501,19.9157,160.077,115.726,115.728,-0.00895631,0.112401,20.7704,900.337,-0.000161237,0.0,0.0
52,12.75,19.7276,19.1101,161.477,115.726,115.945,-0.00894004,0.111677,20.7717,900.337,-0.0168586,0.0,0.0
56,13.75,19.5842,19.5964,165.217,115.725,115.639,-0.00898331,0.110945,20.7725,900.337,0.00660503,0.0,0.0
60,14.75,19.9413,19.5606,158.819,115.726,115.651,-0.00906497,0.110281,20.7738,900.337,0.00578233,0.0,0.0
64,15.75,19.9333,19.7619,160.812,115.73,115.897,-0.00915586,0.109655,20.7747,900.317,-0.0129231,0.0,0.0
68,16.75,20.0097,19.6077,167.907,115.732,116.039,-0.00921709,0.109084,20.7761,900.307,-0.0237427,0.0,0.0
72,17.75,19.8933,19.37,166.043,115.722,115.66,-0.00923778,0.108578,20.7774,900.307,0.00477494,0.0,0.0
76,18.75,19.9231,19.7305,166.242,115.735,116.057,-0.00922664,0.108023,20.7791,900.317,-0.0248803,0.0,0.0
80,19.75,19.5298,19.6785,167.01,115.728,115.504,-0.00920912,0.107458,20.7806,900.307,0.0173614,0.0,0.0
84,20.75,20.1568,19.8019,162.285,115.721,115.872,-0.0091936,0.106952,20.7815,900.307,-0.0116849,0.0,0.0
88,21.75,19.7698,19.5317,166.661,115.737,115.858,-0.00916769,0.106455,20.7832,900.317,-0.00933785,0.0,0.0
92,22.75,19.7138,19.5211,165.541,115.732,116.218,-0.00913271,0.105975,20.7852,900.307,-0.0375826,0.0,0.0
96,23.75,19.5793,18.9952,161.029,115.734,115.797,-0.00909404,0.105578,20.7867,900.317,-0.00483571,0.0,0.0
100,24.75,19.73,19.8468,160.019,115.732,115.832,-0.00906617,0.10511,20.7876,900.317,-0.00770098,0.0,0.0
104,25.75,19.9204,19.5821,160.868,115.734,115.892,-0.00904837,0.104785,20.7885,900.347,-0.0122014,0.0,0.0
108,26.75,20.0671,19.7288,163.201,115.722,115.963,-0.00904654,0.104541,20.7896,900.337,-0.0186512,0.0,0.0
112,27.75,19.7609,19.8003,166.02,115.736,115.942,-0.0090723,0.104309,20.7904,900.337,-0.0159156,0.0,0.0
116,28.75,19.9822,19.9094,163.417,115.734,115.711,-0.00911617,0.104116,20.7909,900.347,0.00171043,0.0,0.0
120,29.75,19.8611,19.7519,157.993,115.718,115.668,-0.00916408,0.103978,20.7912,900.327,0.00387416,0.0,0.0
124,30.75,20.2482,20.1557,161.231,115.719,116.005,-0.00922473,0.103908,20.7914,900.337,-0.0220834,0.0,0.0
128,31.75,19.7325,19.9448,163.365,115.725,115.93,-0.00928687,0.103896,20.7913,900.327,-0.0158616,0.0,0.0
132,32.75,20.2494,19.9385,166.072,115.719,116.006,-0.00935692,0.103933,20.7904,900.327,-0.022191,0.0,0.0
136,33.75,19.998,20.1937,162.424,115.711,116.046,-0.00941068,0.104035,20.7893,900.347,-0.0258815,0.0,0.0
140,34.75,19.8205,19.5368,162.653,115.706,115.745,-0.00943378,0.104156,20.7886,900.337,-0.00297909,0.0,0.0
144,35.75,19.9461,19.6912,165.491,115.705,115.889,-0.00943859,0.104339,20.7882,900.327,-0.0142829,0.0,0.0
148,36.75,20.1496,19.9615,161.799,115.699,115.588,-0.00942052,0.104458,20.7878,900.317,0.00857769,0.0,0.0
152,37.75,19.7814,20.2758,159.938,115.694,115.585,-0.00939759,0.104557,20.7879,900.337,0.00839207,0.0,0.0
156,38.75,20.4283,19.9658,171.709,115.68,115.389,-0.00935598,0.104653,20.7879,900.317,0.0225425,0.0,0.0
160,39.75,20.0301,20.0816,161.391,115.676,115.633,-0.00931091,0.104742,20.788,900.317,0.00328071,0.0,0.0
164,40.75,20.6776,20.0742,161.951,115.667,115.743,-0.00928345,0.104832,20.7877,900.327,-0.00586086,0.0,0.0
168,41.75,19.9106,20.129,162.911,115.661,115.577,-0.00927318,0.104956,20.787,900.327,0.00645031,0.0,0.0
172,42.75,19.8552,20.2055,158.675,115.656,115.916,-0.00927194,0.105019,20.7866,900.307,-0.0201092,0.0,0.0
176,43.75,20.217,20.3778,163.86,115.663,115.784,-0.00927663,0.105164,20.7862,900.307,-0.00933625,0.0,0.0
180,44.75,20.0758,19.5692,159.36,115.632,115.175,-0.00928516,0.10531,20.7858,900.307,0.0354241,0.0,0.0
184,45.75,20.1451,20.083,165.814,115.64,115.693,-0.00929056,0.105483,20.7855,900.307,-0.00410818,0.0,0.0
188,46.75,19.8425,19.9016,160.93,115.626,115.829,-0.00929079,0.105719,20.7853,900.297,-0.0157209,0.0,0.0
192,47.75,20.245,19.9872,160.31,115.606,115.527,-0.00929113,0.105868,20.7848,900.287,0.00612913,0.0,0.0
196,48.75,20.1291,20.7112,161.742,115.624,115.674,-0.00930104,0.106055,20.7837,900.287,-0.00388064,0.0,0.0
200,49.75,19.9085,20.274,163.244,115.593,115.877,-0.00932452,0.106317,20.783,900.307,-0.0219929,0.0,0.0
204,50.75,19.6241,19.3556,160.4,115.581,115.792,-0.00934144,0.106605,20.7818,900.307,-0.0163617,0.0,0.0
208,51.75,20.2013,20.3894,161.411,115.578,115.318,-0.0093366,0.106854,20.7801,900.317,0.0201606,0.0,0.0
212,52.75,20.4558,20.1511,160.745,115.554,115.824,-0.00928915,0.106932,20.7791,900.297,-0.0209087,0.0,0.0
216,53.75,20.2273,20.2228,161.832,115.556,115.58,-0.00921601,0.106999,20.7784,900.277,-0.00186028,0.0,0.0
220,54.75,19.6939,19.7197,162.395,115.537,115.379,-0.00914751,0.107108,20.7779,900.287,0.0122114,0.0,0.0
224,55.75,20.1803,20.203,161.295,115.541,115.713,-0.00910612,0.107267,20.7777,900.287,-0.0133797,0.0,0.0
228,56.75,20.2493,20.0446,162.901,115.531,115.483,-0.00908451,0.10743,20.7774,900.247,0.00373434,0.0,0.0
232,57.75,20.4759,20.491,161.604,115.511,115.775,-0.00911368,0.107592,20.7765,900.247,-0.0204378,0.0,0.0
236,58.75,19.6831,19.856,158.977,115.501,115.674,-0.00916469,0.107757,20.7759,900.267,-0.013437,0.0,0.0
240,59.75,20.3127,20.2338,162.673,115.473,115.606,-0.00925434,0.108051,20.7749,900.207,-0.0102903,0.0,0.0
244,60.75,21.0265,20.0609,164.276,115.467,115.826,-0.0093415,0.108363,20.774,900.257,-0.0278034,0.0,0.0
248,61.75,19.5823,19.8098,156.503,115.458,115.533,-0.00941996,0.10859,20.7735,900.277,-0.00583201,0.0,0.0
252,62.75,20.538,20.2029,166.269,115.438,115.735,-0.00948498,0.108739,20.7731,900.267,-0.0230185,0.0,0.0
256,63.75,20.0903,19.9038,160.543,115.421,115.63,-0.00952593,0.108837,20.7731,900.267,-0.0162424,0.0,0.0
260,64.75,20.0838,20.1975,165.874,115.403,115.471,-0.0095473,0.108901,20.7736,900.277,-0.00529832,0.0,0.0
264,65.75,20.7463,20.2854,163.331,115.382,115.061,-0.0095593,0.10884,20.774,900.277,0.0250036,0.0,0.0
268,66.75,19.7797,20.6744,164.375,115.376,115.47,-0.00952449,0.108774,20.774,900.267,-0.00727351,0.0,0.0
272,67.75,20.4397,20.1289,162.363,115.357,115.691,-0.00945074,0.108782,20.7735,900.287,-0.025866,0.0,0.0
276,68.75,20.6901,20.487,159.701,115.328,115.649,-0.00935132,0.108889,20.7734,900.267,-0.0248369,0.0,0.0
280,69.75,20.1243,20.0833,165.12,115.334,115.331,-0.00925473,0.108987,20.7734,900.257,0.000205013,0.0,0.0
284,70.75,19.7693,20.0605,162.144,115.293,115.117,-0.00918408,0.108948,20.7733,900.277,0.013669,0.0,0.0
288,71.75,20.4693,20.4389,162.914,115.285,115.113,-0.00913738,0.109024,20.7725,900.267,0.0133342,0.0,0.0
292,72.75,20.3435,20.3495,161.91,115.258,115.239,-0.00910833,0.109182,20.772,900.267,0.00143179,0.0,0.0
296,73.75,20.5222,20.0718,161.444,115.242,115.243,-0.00911175,0.109328,20.7716,900.267,-6.24657e-05,0.0,0.0
300,74.75,20.369,20.7237,162.328,115.221,115.12,-0.00912815,0.10951,20.7714,900.257,0.0078576,0.0,0.0
304,75.75,20.319,20.5995,164.457,115.202,115.501,-0.0091569,0.109708,20.7708,900.247,-0.0232058,0.0,0.0
308,76.75,20.1197,20.6306,163.627,115.181,114.909,-0.00919196,0.109914,20.77,900.247,0.0212408,0.0,0.0
312,77.75,20.3943,20.4868,164.352,115.163,115.163,-0.0092183,0.11016,20.7687,900.237,-6.29996e-05,0.0,0.0
316,78.75,20.2094,20.1775,163.076,115.167,114.893,-0.00922565,0.110443,20.7671,900.227,0.0213687,0.0,0.0
320,79.75,20.0777,20.7463,165.472,115.136,115.242,-0.00922243,0.110701,20.766,900.247,-0.00818886,0.0,0.0
324,80.75,20.511,20.6262,159.578,115.111,115.32,-0.00918436,0.110948,20.7647,900.227,-0.0162745,0.0,0.0
328,81.75,20.6503,20.3683,162.195,115.085,115.004,-0.00910545,0.111265,20.7636,900.237,0.00631266,0.0,0.0
332,82.75,20.2604,20.9077,161.623,115.069,115.198,-0.00902003,0.111513,20.763,900.227,-0.010084,0.0,0.0
336,83.75,20.4773,20.7092,160.723,115.032,115.43,-0.00894962,0.111744,20.7625,900.227,-0.0309011,0.0,0.0
340,84.75,20.6727,20.6166,161.531,115.021,115.017,-0.00890908,0.111912,20.7622,900.237,0.000321398,0.0,0.0
344,85.75,20.1914,19.9443,162.936,114.99,115.086,-0.00889678,0.111926,20.7625,900.217,-0.00746159,0.0,0.0
348,86.75,20.5767,20.6646,159.139,114.967,114.99,-0.00891067,0.111828,20.7635,900.227,-0.00173318,0.0,0.0
352,87.75,20.3746,20.6536,162.955,114.973,114.834,-0.00895473,0.111599,20.7652,900.217,0.0108539,0.0,0.0
356,88.75,20.4326,20.5494,166.328,114.935,115.129,-0.00901999,0.111357,20.7664,900.207,-0.0150989,0.0,0.0
360,89.75,19.8299,20.3317,157.94,114.916,114.978,-0.00911221,0.111018,20.7672,900.187,-0.00490248,0.0,0.0
364,90.75,20.7194,20.9331,156.282,114.899,114.963,-0.00920997,0.110754,20.7683,900.187,-0.0049981,0.0,0.0
368,91.75,20.3355,20.4143,161.473,114.87,114.506,-0.00930676,0.110449,20.7697,900.177,0.0283954,0.0,0.0
372,92.75,20.6076,20.8562,162.751,114.838,114.898,-0.00934496,0.110216,20.7706,900.167,-0.00468721,0.0,0.0
376,93.75,20.0901,20.0174,161.458,114.813,114.967,-0.0093479,0.110089,20.7711,900.167,-0.0120757,0.0,0.0
380,94.75,20.4816,21.0939,163.557,114.776,114.853,-0.00928915,0.110907,20.7699,900.107,-0.0060003,0.0,0.0
384,95.75,20.57,20.7716,160.736,114.754,114.442,-0.00920565,0.114521,20.764,900.107,0.0243913,0.0,0.0
388,96.75,20.7604,20.2904,163.107,114.733,113.77,-0.00907672,0.123781,20.7475,900.087,0.0754832,0.0,1.0
392,97.75,20.4718,20.9415,157.883,114.703,113.925,-0.00894943,0.137069,20.7219,900.047,0.0609433,0.0,1.0
396,98.75,20.9459,20.9823,154.565,114.691,113.027,-0.00881423,0.15034,20.6898,900.017,0.130875,0.0,1.0
400,99.75,21.0667,21.1894,150.315,114.652,112.287,-0.0086323,0.171921,20.6471,899.937,0.186688,0.0,1.0
404,100.75,21.3652,21.8075,153.522,114.62,110.927,-0.00852217,0.197592,20.6257,899.927,0.293338,0.0,1.0
408,101.75,21.1442,21.444,144.553,114.598,110.389,-0.00832577,0.228448,20.5863,899.877,0.335215,0.0,0.0
412,102.75,21.4924,22.2794,149.779,114.566,107.875,-0.008122,0.266042,20.5374,899.797,0.539047,0.0,0.0
416,103.75,22.0412,22.8203,144.205,114.531,109.039,-0.00786471,0.296491,20.4851,899.667,0.440159,0.0,0.0
420,104.75,22.8661,23.2138,139.75,114.508,108.265,-0.00761499,0.338995,20.4229,899.577,0.502246,0.0,0.0
424,105.75,23.3648,24.5975,140.12,114.487,106.578,-0.0073725,0.37571,20.3602,899.507,0.64118,0.0,0.0
428,106.75,24.3529,25.0684,139.747,114.453,105.588,-0.00712576,0.418533,20.2998,899.397,0.722127,0.0,0.0
432,107.75,24.9423,26.1821,142.525,114.423,107.888,-0.00689931,0.458345,20.2473,899.327,0.526776,0.0,0.0
436,108.75,26.2867,26.8743,135.88,114.388,105.039,-0.00671292,0.495936,20.2015,899.236,0.763728,0.0,0.0
440,109.75,27.2094,28.254,135.805,114.364,104.225,-0.00644159,0.529636,20.1699,899.106,0.831524,0.0,0.0
444,110.75,28.0826,29.7034,135.768,114.374,104.023,-0.00614101,0.561316,20.1254,898.936,0.849716,0.0,0.0
448,111.75,29.1966,30.9087,135.537,114.313,103.56,-0.00584826,0.587673,20.0777,898.886,0.884834,0.0,0.0
452,112.75,29.9389,31.9707,134.782,114.29,103.52,-0.005602,0.620006,20.0384,898.756,0.886504,0.0,0.0
456,113.75,30.9736,33.8135,127.084,114.264,103.83,-0.00538084,0.651295,20.0035,898.596,0.85771,0.0,0.0
460,114.75,32.415,34.6291,130.413,114.25,102.63,-0.00518746,0.68071,19.974,898.456,0.960729,0.0,0.0
464,115.75,33.3098,36.2869,129.2,114.219,101.849,-0.00497743,0.701826,19.9452,898.296,1.02672,0.0,0.0
468,116.75,34.9168,37.5063,128.657,114.223,103.409,-0.00476548,0.727848,19.9143,898.185,0.890877,0.0,0.0
472,117.75,35.8734,38.4666,124.812,114.171,102.736,-0.004559,0.752917,19.8796,898.055,0.945327,0.0,0.0
476,118.75,36.7066,39.9932,134.048,114.152,102.645,-0.00437184,0.77601,19.8454,897.885,0.951719,0.0,0.0
480,119.75,37.8455,41.5853,129.289,114.134,102.687,-0.00422433,0.799084,19.8101,897.745,0.946721,0.0,0.0
484,120.75,38.94,43.2614,124.127,114.103,101.749,-0.00411515,0.822212,19.7788,897.645,1.02638,0.0,0.0
488,121.75,40.5561,43.979,129.287,114.083,101.646,-0.00401539,0.843163,19.7513,897.425,1.03396,0.0,0.0
492,122.75,41.4952,45.5099,122.559,114.06,101.886,-0.00388144,0.864115,19.7266,897.315,1.01098,0.0,0.0
496,123.75,42.9282,47.0748,120.404,114.042,101.11,-0.00378128,0.882843,19.7057,897.175,1.07805,0.0,0.0
500,124.75,43.6411,47.9051,117.458,114.021,100.331,-0.00353468,0.905799,19.677,896.964,1.14576,0.0,0.0
504,125.75,44.722,50.4652,127.59,113.992,101.075,-0.00328539,0.927127,19.6467,896.824,1.07729,0.0,0.0
508,126.75,46.0211,51.8005,123.384,113.971,100.031,-0.00306516,0.942934,19.6158,896.654,1.1686,0.0,0.0
512,127.75,47.483,53.4442,123.706,113.972,100.338,-0.00289517,0.96396,19.5859,896.514,1.14118,0.0,0.0
516,128.75,49.1533,54.5472,123.288,113.936,100.295,-0.00276238,0.985896,19.5588,896.294,1.14221,0.0,0.0
520,129.75,49.106,56.3221,122.321,113.914,100.127,-0.00266069,1.00825,19.5268,896.184,1.15552,0.0,0.0
524,130.75,51.3129,57.8953,123.665,113.903,100.074,-0.00258274,1.03176,19.4979,896.014,1.15934,0.0,0.0
528,131.75,52.4518,59.1525,119.884,113.879,100.617,-0.0025079,1.05438,19.4654,895.833,1.10903,0.0,0.0
532,132.75,53.8731,60.8516,115.521,113.854,99.2638,-0.00242474,1.07815,19.4351,895.633,1.22835,0.0,0.0
536,133.75,54.9229,62.455,119.459,113.847,99.3281,-0.00232005,1.09836,19.4104,895.473,1.22203,0.0,0.0
540,134.75,56.0666,64.2339,113.278,113.835,99.6199,-0.00223994,1.11751,19.3903,895.223,1.19475,0.0,0.0
544,135.75,57.6951,65.582,121.091,113.81,99.0821,-0.0020413,1.13859,19.3739,895.093,1.24132,0.0,0.0
548,136.75,58.8776,67.2503,118.493,113.799,99.483,-0.00176747,1.15479,19.3539,894.823,1.20429,0.0,0.0
552,137.75,58.8183,68.5994,119.232,113.797,98.6576,-0.00159426,1.17622,19.3356,894.642,1.27877,0.0,0.0
556,138.75,61.3916,70.3677,120.074,113.768,99.0007,-0.00141371,1.19628,19.3028,894.472,1.24538,0.0,0.0
560,139.75,62.5718,71.8128,114.162,113.762,98.1165,-0.00128649,1.22084,19.2693,894.202,1.32525,0.0,0.0
564,140.75,63.8513,73.5641,114.724,113.762,96.6636,-0.00118636,1.23893,19.2329,894.022,1.45885,0.0,0.0
568,141.75,65.1849,75.4681,111.571,113.755,97.5648,-0.00110959,1.26248,19.2042,893.742,1.37524,0.0,0.0
572,142.75,66.2672,76.535,109.824,113.736,98.0541,-0.000989625,1.28583,19.1749,893.651,1.32888,0.0,0.0
576,143.75,67.6927,78.1799,112.704,113.725,97.4187,-0.000868216,1.30726,19.1438,893.361,1.38626,0.0,0.0
580,144.75,69.2481,79.794,115.968,113.726,97.3924,-0.000763839,1.33101,19.1156,893.171,1.38879,0.0,0.0
584,145.75,70.3066,81.4678,105.435,113.709,97.3494,-0.000654907,1.35229,19.0881,892.961,1.39137,0.0,0.0
588,146.75,71.9443,83.0188,114.635,113.713,96.3468,-0.000516018,1.37335,19.0591,892.721,1.4844,0.0,0.0
592,147.75,73.0702,84.3781,108.211,113.71,96.985,-0.00034399,1.39631,19.0299,892.54,1.42508,0.0,0.0
596,148.75,74.2787,86.3509,103.817,113.702,97.704,-0.000161535,1.41919,18.9972,892.33,1.35824,0.0,0.0
600,149.75,75.6156,87.9524,106.753,113.706,96.6548,5.18759e-05,1.44309,18.9676,892.12,1.45525,0.0,0.0
604,150.75,76.8422,89.6732,105.294,113.719,97.9565,0.000260753,1.46429,18.9396,891.83,1.33646,0.0,0.0
608,151.75,78.2125,91.2081,108.153,113.693,97.471,0.000470232,1.48337,18.9146,891.61,1.37897,0.0,0.0
612,152.75,79.6105,93.0424,109.309,113.693,96.5956,0.000669279,1.5018,18.8924,891.43,1.45978,0.0,0.0
616,153.75,80.8236,94.2604,112.616,113.695,96.3399,0.00088923,1.5195,18.8684,891.199,1.48367,0.0,0.0
620,154.75,82.1919,95.8143,106.843,113.698,97.9371,0.00108329,1.53827,18.8448,890.869,1.33661,0.0,0.0
624,155.75,83.5309,97.7218,102.724,113.688,96.6331,0.00126595,1.55708,18.822,890.689,1.45589,0.0,0.0
628,156.75,84.8826,99.3243,113.696,113.682,96.9221,0.00142573,1.57611,18.7991,890.449,1.42866,0.0,0.0
632,157.75,86.2196,100.697,107.625,113.699,97.4039,0.00155962,1.59283,18.779,890.188,1.38558,0.0,0.0
636,158.75,87.381,102.538,108.26,113.681,97.3489,0.00165458,1.60616,18.7626,889.988,1.38919,0.0,0.0
640,159.75,88.6228,104.038,110.565,113.683,95.9071,0.00170079,1.61944,18.7461,889.728,1.52307,0.0,0.0
644,160.75,89.6475,105.735,108.584,113.684,95.0529,0.00171785,1.63143,18.7314,889.468,1.60327,0.0,0.0
648,161.75,90.3888,106.445,111.667,113.682,95.1875,0.00172664,1.64173,18.7195,889.268,1.59042,0.0,0.0
652,162.75,92.0907,108.718,101.92,113.685,93.871,0.00173241,1.65195,18.7085,889.077,1.71539,0.0,0.0
656,163.75,93.4098,109.461,105.437,113.692,96.659,0.0017747,1.6645,18.6919,888.757,1.45379,0.0,0.0
660,164.75,94.2292,111.121,106.079,113.691,97.0839,0.00182288,1.67725,18.6742,888.477,1.41442,0.0,0.0
664,165.75,95.7807,112.837,99.5765,113.684,97.9431,0.0018681,1.69066,18.6552,888.247,1.33498,0.0,0.0
668,166.75,96.658,114.129,97.8294,113.682,95.0178,0.00189777,1.70235,18.6406,888.047,1.6064,0.0,0.0
672,167.75,97.7961,115.392,108.8,113.682,96.7061,0.00191008,1.71208,18.6307,887.806,1.44864,0.0,0.0
676,168.75,99.1741,116.912,103.865,113.683,96.5711,0.00190372,1.71792,18.6246,887.546,1.4612,0.0,0.0
680,169.75,100.305,118.123,101.037,113.715,96.2234,0.00188958,1.72182,18.621,887.306,1.49607,0.0,0.0
684,170.75,101.372,120.107,99.1842,113.686,96.5766,0.00186224,1.72283,18.621,887.096,1.46094,0.0,0.0
688,171.75,102.213,120.924,106.743,113.679,95.5172,0.00183815,1.72135,18.6258,886.845,1.55922,0.0,0.0
692,172.75,103.891,122.093,105.297,113.687,96.0264,0.00181913,1.71585,18.6321,886.565,1.5122,0.0,0.0
696,173.75,104.412,122.084,114.602,113.684,96.5452,0.00180212,1.71085,18.6382,886.335,1.46371,0.0,0.0
700,174.75,104.485,124.465,109.945,113.689,97.507,0.00178869,1.70813,18.6427,886.165,1.37532,0.0,0.0
704,175.75,106.029,125.32,98.643,113.695,96.917,0.00177307,1.70649,18.6456,885.925,1.43013,0.0,0.0
708,176.75,106.938,126.641,107.094,113.702,97.2375,0.00175821,1.70501,18.6475,885.694,1.40116,0.0,0.0
712,177.75,107.832,127.568,107.609,113.701,98.7607,0.00173853,1.70427,18.648,885.384,1.26182,0.0,0.0
716,178.75,108.653,128.595,106.722,113.703,97.2911,0.00173344,1.70423,18.6483,885.154,1.39629,0.0,0.0
720,179.75,109.66,129.271,105.074,113.739,98.2049,0.00175059,1.7052,18.6477,884.934,1.31534,0.0,0.0
724,180.75,110.28,130.339,102.629,113.712,97.0784,0.00178767,1.70696,18.6473,884.684,1.4166,0.0,0.0
728,181.75,111.099,131.56,102.14,113.725,97.6005,0.00182003,1.70794,18.647,884.483,1.36956,0.0,0.0
732,182.75,111.662,132.2,105.255,113.723,95.4779,0.00183124,1.70694,18.648,884.213,1.56636,0.0,0.0
736,183.75,112.3,133.346,100.028,113.723,97.6222,0.00183048,1.70313,18.6512,883.993,1.36742,0.0,0.0
740,184.75,113.285,134.248,105.029,113.731,96.9743,0.00180276,1.69909,18.6571,883.763,1.42765,0.0,0.0
744,185.75,113.94,135.011,103.637,113.738,97.3165,0.00178684,1.69264,18.662,883.533,1.39669,0.0,0.0
748,186.75,114.285,135.749,105.042,113.742,97.4053,0.00177639,1.68924,18.6652,883.212,1.38886,0.0,0.0
752,187.75,114.835,136.046,110.652,113.745,97.1223,0.00175346,1.68897,18.6615,882.972,1.41514,0.0,0.0
756,188.75,116.032,137.005,110.706,113.754,96.2807,0.00171781,1.69437,18.6514,882.832,1.49381,0.0,0.0
760,189.75,116.717,138.236,103.516,113.763,97.1186,0.00167248,1.70121,18.6414,882.542,1.41686,0.0,0.0
764,190.75,116.688,139.066,118.142,113.775,97.7595,0.00163563,1.70912,18.6325,882.372,1.3589,0.0,0.0
768,191.75,117.743,138.83,101.872,113.777,97.4742,0.00166585,1.7175,18.6227,882.061,1.38527,0.0,0.0
772,192.75,118.636,140.395,102.807,113.778,96.7223,0.001756,1.72431,18.6156,881.841,1.45467,0.0,0.0
776,193.75,119.438,141.327,98.2652,113.781,97.1431,0.00188781,1.72826,18.6102,881.531,1.41608,0.0,0.0
780,194.75,120.179,141.709,104.478,113.783,96.5572,0.00201907,1.73173,18.6039,881.32,1.47041,0.0,0.0
784,195.75,120.202,141.755,110.68,113.796,95.8243,0.00212977,1.73691,18.5956,881.1,1.53967,0.0,0.0
788,196.75,121.04,143.48,106.524,113.792,96.387,0.00219862,1.74331,18.5838,880.82,1.48692,0.0,0.0
792,197.75,121.944,144.088,104.48,113.798,96.4583,0.00224582,1.75153,18.5732,880.58,1.48078,0.0,0.0
796,198.75,121.726,144.446,99.9979,113.809,94.8934,0.00229706,1.75914,18.5646,880.35,1.62814,0.0,0.0
800,199.75,123.33,145.618,99.6063,113.813,97.6106,0.00235649,1.76478,18.559,880.129,1.37559,0.0,0.0
804,200.75,123.57,146.509,110.99,113.81,97.0733,0.00244677,1.76974,18.5553,879.909,1.42478,0.0,0.0
808,201.75,124.353,146.746,105.942,113.811,96.554,0.00253669,1.77332,18.5529,879.629,1.4729,0.0,0.0
812,202.75,125.08,147.45,101.196,113.814,96.4449,0.00265724,1.77512,18.5489,879.359,1.48325,0.0,0.0
816,203.75,125.091,148.387,110.91,113.839,96.5059,0.00277739,1.77482,18.5457,879.169,1.47955,0.0,0.0
820,204.75,125.973,149.118,110.303,113.834,95.7124,0.00286505,1.77541,18.5434,878.888,1.5531,0.0,0.0
824,205.75,126.045,149.794,110.984,113.841,95.0973,0.00292971,1.77872,18.5405,878.698,1.61143,0.0,0.0
828,206.75,126.368,150.258,103.855,113.835,97.015,0.00300272,1.78398,18.5363,878.398,1.43216,0.0,0.0
832,207.75,127.256,150.859,103.777,113.861,96.2183,0.00306065,1.79146,18.5285,878.098,1.50802,0.0,0.0
836,208.75,127.385,151.212,98.1759,113.849,96.166,0.00307896,1.79973,18.5173,877.908,1.51197,0.0,0.0
840,209.75,128.526,152.257,107.271,113.846,96.5156,0.00304765,1.81334,18.5032,877.597,1.4792,0.0,0.0
844,210.75,128.429,152.311,100.57,113.862,96.2076,0.00300367,1.82313,18.494,877.407,1.50913,0.0,0.0
848,211.75,129.128,153.145,100.007,113.867,96.5309,0.00297312,1.82758,18.4879,877.127,1.47941,0.0,0.0
852,212.75,130.164,154.131,92.8551,113.88,96.972,0.00295888,1.82812,18.4879,876.927,1.43965,0.0,0.0
856,213.75,130.503,154.594,104.301,113.891,96.6062,0.00293334,1.82707,18.4887,876.716,1.47431,0.0,0.0
860,214.75,130.844,154.932,96.873,113.883,96.4569,0.0028598,1.82589,18.4892,876.376,1.48754,0.0,0.0
864,215.75,131.239,155.329,97.1478,113.891,96.0606,0.00275985,1.82276,18.4946,876.196,1.52512,0.0,0.0
868,216.75,132.075,155.693,100.612,113.896,96.5595,0.00258738,1.81886,18.5014,875.926,1.47909,0.0,0.0
872,217.75,132.418,156.48,105.411,113.896,94.6344,0.00241288,1.81408,18.5061,875.595,1.65943,0.0,0.0
876,218.75,133.155,156.796,98.3728,113.907,96.9471,0.0022931,1.80962,18.5092,875.385,1.44406,0.0,0.0
880,219.75,133.277,157.692,102.067,113.908,96.0444,0.00220559,1.80682,18.5112,875.175,1.52796,0.0,0.0
884,220.75,132.963,157.942,104.833,113.912,96.1188,0.00216312,1.80867,18.5117,874.945,1.52132,0.0,0.0
888,221.75,133.699,158.191,98.1309,113.927,96.0296,0.00215872,1.81343,18.512,874.665,1.53079,0.0,0.0
892,222.75,133.838,158.654,102.573,113.931,96.9933,0.00219748,1.81424,18.5122,874.474,1.44172,0.0,0.0
896,223.75,135.096,159.055,104.974,113.936,96.8962,0.00227618,1.81019,18.5203,874.184,1.45102,0.0,0.0
900,224.75,134.691,159.745,107.029,113.947,96.7094,0.00236332,1.80374,18.5281,873.924,1.46916,0.0,0.0
904,225.75,135.409,160.218,104.751,113.948,95.8016,0.00243843,1.79791,18.5345,873.734,1.55378,0.0,0.0
908,226.75,135.026,159.702,106.695,113.952,96.5734,0.00249126,1.79091,18.5414,873.474,1.4822,0.0,0.0
912,227.75,135.849,160.918,101.879,113.978,96.5373,0.0025274,1.78404,18.5498,873.183,1.48755,0.0,0.0
916,228.75,136.309,160.851,107.046,113.978,96.234,0.00255315,1.77557,18.5607,872.973,1.51577,0.0,0.0
920,229.75,136.101,161.887,98.6705,113.984,97.4816,0.00256286,1.76342,18.5746,872.763,1.40088,0.0,0.0
924,230.75,136.34,160.675,98.2072,113.999,97.6162,0.00252605,1.74881,18.5938,872.543,1.3897,0.0,0.0
928,231.75,136.943,162.076,99.6765,114.033,96.2539,0.0024263,1.7352,18.6195,872.263,1.51825,0.0,0.0
932,232.75,136.971,161.596,118.424,114.032,97.0418,0.00229796,1.71645,18.6431,872.082,1.44515,0.0,0.0
936,233.75,137.37,162.267,108.572,114.029,96.9184,0.00205986,1.68612,18.6849,871.862,1.45629,0.0,0.0
940,234.75,136.811,162.148,107.092,114.044,97.1561,0.00176309,1.65706,18.7291,871.682,1.43557,0.0,0.0
944,235.75,137.135,161.412,103.311,114.044,97.5588,0.00146119,1.62724,18.7669,871.392,1.39848,0.0,0.0
948,236.75,137.134,161.023,98.9117,114.057,97.7114,0.00121668,1.59884,18.8093,871.242,1.38551,0.0,0.0
952,237.75,137.038,161.835,109.819,114.074,96.0985,0.00104503,1.57192,18.8433,871.001,1.5359,0.0,0.0
956,238.75,136.894,161.984,102.818,114.074,97.5265,0.000950464,1.54745,18.8767,870.851,1.40382,0.0,0.0
960,239.75,136.708,160.902,107.932,114.075,96.892,0.000907976,1.52488,18.9061,870.681,1.46235,0.0,0.0
964,240.75,137.237,161.04,115.002,114.085,95.5538,0.000882867,1.50124,18.9347,870.441,1.58774,0.0,0.0
968,241.75,136.344,160.84,108.418,114.082,97.6675,0.000841936,1.47924,18.9639,870.211,1.39146,0.0,0.0
972,242.75,136.316,160.324,108.086,114.091,95.8266,0.000757054,1.45823,18.9947,870.01,1.56265,0.0,0.0
976,243.75,135.832,159.563,116.856,114.091,97.1991,0.000619323,1.43162,19.0318,869.84,1.4353,0.0,0.0
980,244.75,135.552,159.429,108.872,114.106,97.1722,0.00044393,1.40498,19.0681,869.71,1.43888,0.0,0.0
984,245.75,135.389,159.034,112.048,114.109,95.7692,0.000292627,1.38009,19.0976,869.52,1.56941,0.0,0.0
988,246.75,134.803,158.27,114.497,114.117,97.4423,0.000110211,1.35617,19.1281,869.32,1.41491,0.0,0.0
992,247.75,134.719,157.471,114.537,114.123,98.0439,-8.13855e-05,1.32884,19.1639,869.1,1.36022,0.0,0.0
996,248.75,134.338,157.711,118.864,114.14,98.061,-0.000290239,1.29696,19.2079,869,1.36006,0.0,0.0
1000,249.75,133.887,156.36,116.137,114.151,97.1232,-0.00055536,1.26494,19.2544,868.799,1.44695,0.0,0.0
1004,250.75,132.572,156.178,115.281,114.134,97.809,-0.000864139,1.23152,19.2885,868.639,1.38263,0.0,0.0
1008,251.75,132.99,154.655,120.4,114.137,97.9279,-0.00106673,1.19691,19.3292,868.439,1.37198,0.0,0.0
1012,252.75,131.817,154.245,121.342,114.154,97.6763,-0.00142887,1.15988,19.3733,868.309,1.39631,0.0,0.0
1016,253.75,131.28,153.61,116.144,114.151,98.966,-0.00179928,1.12886,19.4141,868.209,1.27863,0.0,0.0
1020,254.75,130.405,152.43,121.183,114.143,97.9209,-0.00214756,1.09268,19.4598,868.059,1.37309,0.0,0.0
1024,255.75,129.896,151.168,128.921,114.14,97.1686,-0.00249074,1.051,19.5191,867.929,1.44192,0.0,0.0
1028,256.75,129.158,150.22,127.07,114.136,98.216,-0.00280786,1.01115,19.5824,867.799,1.34555,0.0,0.0
1032,257.75,127.817,149.325,130.216,114.131,98.7006,-0.00306849,0.967953,19.6431,867.668,1.30113,0.0,0.0
1036,258.75,127.365,147.484,125.326,114.116,98.1531,-0.00328788,0.924457,19.7069,867.598,1.34974,0.0,0.0
1040,259.75,126.237,146.741,135.542,114.105,98.7477,-0.00345255,0.880886,19.769,867.498,1.29475,0.0,0.0
1044,260.75,124.552,144.931,130.445,114.094,98.9225,-0.00363319,0.837126,19.8208,867.418,1.27809,0.0,0.0
1048,261.75,124.438,144.179,131.712,114.081,99.7383,-0.00383829,0.793892,19.8706,867.318,1.20346,0.0,0.0
1052,262.75,123.104,142.677,133.859,114.061,98.942,-0.00409544,0.753095,19.9259,867.218,1.27375,0.0,0.0
1056,263.75,121.891,141.561,133.203,114.038,100.357,-0.00438777,0.714491,19.9838,867.178,1.1447,0.0,0.0
1060,264.75,120.968,139.702,140.703,114.019,99.8862,-0.00469198,0.677134,20.0486,867.048,1.1853,0.0,0.0
1064,265.75,119.891,138.292,140.844,114.004,101.461,-0.00498006,0.635558,20.1137,867.008,1.04406,0.0,0.0
1068,266.75,118.071,136.843,150.121,113.987,101.4,-0.00520325,0.594071,20.17,866.928,1.04816,0.0,0.0
1072,267.75,117.01,135.224,138.463,113.961,100.956,-0.0054733,0.555464,20.2226,866.898,1.08531,0.0,0.0
1076,268.75,115.948,133.317,144.685,113.947,101.606,-0.00576381,0.513204,20.2719,866.838,1.02681,0.0,0.0
1080,269.75,114.813,131.465,144.906,113.933,104.292,-0.00610178,0.47286,20.3235,866.828,0.791972,0.0,0.0
1084,270.75,113.14,130.083,147.05,113.921,104.656,-0.0064559,0.438569,20.3782,866.768,0.759805,0.0,0.0
1088,271.75,111.188,127.892,148.448,113.915,105.013,-0.00683675,0.401643,20.4329,866.768,0.728822,0.0,0.0
1092,272.75,110.127,126.751,148.115,113.902,106.23,-0.00717871,0.365749,20.4826,866.728,0.624568,0.0,0.0
1096,273.75,108.278,123.618,154.047,113.89,107.552,-0.00745398,0.332909,20.5205,866.718,0.512853,0.0,0.0
1100,274.75,107.367,121.98,151.527,113.874,107.489,-0.00769834,0.305467,20.5511,866.718,0.516834,0.0,0.0
1104,275.75,105.339,120.551,150.293,113.867,108.343,-0.00791887,0.278752,20.5799,866.708,0.4455,0.0,0.0
1108,276.75,103.808,118.829,153.156,113.841,108.689,-0.00812049,0.252732,20.6072,866.698,0.414836,0.0,0.0
1112,277.75,102.449,116.906,150.149,113.833,109.571,-0.00826565,0.233125,20.6275,866.698,0.341751,0.0,0.0
1116,278.75,100.69,114.862,156.303,113.815,110.618,-0.00845589,0.212997,20.6542,866.678,0.255202,0.0,0.0
1120,279.75,99.7242,113.414,153.069,113.801,110.323,-0.00864043,0.197148,20.6769,866.678,0.278012,0.0,0.0
1124,280.75,98.4811,111.288,150.627,113.803,109.754,-0.00878465,0.186513,20.6935,866.688,0.324535,0.0,0.0
1128,281.75,96.5865,109.115,153.948,113.787,110.178,-0.00887692,0.174744,20.7038,866.678,0.288697,0.0,0.0
1132,282.75,94.9574,107.76,152.742,113.755,109.927,-0.00894811,0.164744,20.7151,866.688,0.306578,0.0,0.0
1136,283.75,93.7643,106.169,156.394,113.73,110.592,-0.00898852,0.156082,20.7246,866.688,0.250592,0.0,0.0
1140,284.75,92.009,104.362,153.873,113.725,110.41,-0.00901799,0.150651,20.7319,866.678,0.265028,0.0,0.0
1144,285.75,90.1881,102.261,155.446,113.713,110.818,-0.00905375,0.14431,20.7397,866.678,0.230961,0.0,0.0
1148,286.75,88.8679,100.566,151.044,113.702,110.951,-0.00909048,0.138538,20.7463,866.678,0.219425,0.0,0.0
1152,287.75,87.7792,98.5519,159.552,113.694,110.597,-0.00912262,0.133764,20.7518,866.678,0.247363,0.0,0.0
1156,288.75,86.8402,97.4319,153.25,113.687,110.188,-0.00914595,0.129932,20.756,866.698,0.279976,0.0,0.0
1160,289.75,85.1788,95.4968,150.897,113.683,111.36,-0.00916658,0.126848,20.759,866.688,0.18489,0.0,0.0
1164,290.75,84.359,94.2762,151.71,113.697,110.282,-0.00919039,0.124437,20.7609,866.688,0.273126,0.0,0.0
1168,291.75,82.7842,93.0952,157.879,113.679,111.331,-0.00921514,0.122579,20.7622,866.698,0.186937,0.0,0.0
1172,292.75,81.4387,91.4745,153.137,113.671,109.989,-0.00922429,0.121146,20.763,866.688,0.294893,0.0,0.0
1176,293.75,80.9426,90.2132,153.042,113.672,110.802,-0.00920891,0.119978,20.7636,866.698,0.229081,0.0,0.0
1180,294.75,79.6085,88.7581,157.633,113.683,110.499,-0.00918117,0.119108,20.7637,866.698,0.254453,0.0,0.0
1184,295.75,78.6631,87.9577,156.566,113.696,111.278,-0.00912745,0.118557,20.7632,866.708,0.192552,0.0,0.0
1188,296.75,77.7925,86.4342,155.762,113.707,111.459,-0.00908534,0.118246,20.7629,866.718,0.178824,0.0,0.0
1192,297.75,76.6414,85.5411,153.958,113.742,111.726,-0.00907206,0.117913,20.7627,866.698,0.160188,0.0,0.0
1196,298.75,74.5648,83.2186,157.726,113.755,110.351,-0.00911292,0.117593,20.7621,866.698,0.272166,0.0,0.0
1200,299.75,75.0259,83.117,158.211,113.775,111.039,-0.00917667,0.117315,20.7616,866.728,0.21808,0.0,0.0
1204,300.75,73.9445,81.126,158.185,113.803,110.948,-0.00925492,0.117121,20.7618,866.718,0.227542,0.0,0.0
1208,301.75,72.8238,80.6956,157.073,113.846,110.64,-0.00932551,0.116736,20.7616,866.728,0.255849,0.0,0.0
1212,302.75,71.9826,79.2626,154.55,113.865,110.841,-0.00938458,0.116199,20.7624,866.718,0.241096,0.0,0.0
1216,303.75,70.8269,78.5128,154.413,113.891,110.904,-0.0094076,0.115535,20.7635,866.718,0.23809,0.0,0.0
1220,304.75,69.8255,77.2076,154.847,113.942,111.312,-0.00941562,0.114896,20.7648,866.708,0.209168,0.0,0.0
1224,305.75,69.3753,76.3365,157.395,113.969,110.087,-0.00942252,0.114252,20.7665,866.718,0.310396,0.0,0.0
1228,306.75,68.527,75.2962,155.756,114.001,111.128,-0.0094235,0.113645,20.7679,866.718,0.228613,0.0,0.0
1232,307.75,68.065,74.4911,158.037,114.051,111.488,-0.0094187,0.113107,20.7691,866.718,0.203544,0.0,0.0
1236,308.75,66.778,73.3968,153.848,114.105,111.759,-0.00941426,0.112666,20.7705,866.718,0.186049,0.0,0.0
1240,309.75,66.5675,72.2699,159.479,114.146,111.503,-0.00940808,0.112311,20.7714,866.738,0.209782,0.0,0.0
1244,310.75,65.7253,71.8153,158.13,114.19,111.633,-0.00939605,0.112069,20.7719,866.748,0.20282,0.0,0.0
1248,311.75,65.1281,70.2874,155.416,114.26,112.138,-0.00937704,0.111768,20.7725,866.748,0.167966,0.0,0.0
1252,312.75,64.6743,69.4776,153.452,114.315,111.742,-0.00935782,0.11147,20.773,866.718,0.203882,0.0,0.0
1256,313.75,64.0995,68.3957,153.79,114.375,111.235,-0.00935196,0.111233,20.7733,866.708,0.249358,0.0,0.0
1260,314.75,62.5988,68.2752,152.717,114.443,112.563,-0.00937957,0.11101,20.7735,866.718,0.148315,0.0,0.0
1264,315.75,62.2115,67.0141,155.958,114.526,111.926,-0.0094188,0.110832,20.7736,866.708,0.205647,0.0,0.0
1268,316.75,61.3251,66.1976,158.593,114.596,112.266,-0.0094666,0.110764,20.7735,866.698,0.184045,0.0,0.0
1272,317.75,61.0223,65.5298,157.288,114.655,112.283,-0.00949949,0.110834,20.7728,866.688,0.18724,0.0,0.0
1276,318.75,60.3231,65.4126,158.706,114.729,111.544,-0.00951286,0.110934,20.7724,866.708,0.252192,0.0,0.0
1280,319.75,60.0707,64.4605,156.971,114.801,112.453,-0.00951138,0.110979,20.7721,866.728,0.185139,0.0,0.0
1284,320.75,59.0796,63.4193,154.071,114.892,112.295,-0.00949765,0.111065,20.7719,866.718,0.20472,0.0,0.0
1288,321.75,58.4804,62.8313,157.265,114.969,111.702,-0.00947617,0.111137,20.7722,866.728,0.258184,0.0,0.0
1292,322.75,58.3313,62.2256,153.319,115.045,112.388,-0.00944673,0.111083,20.7728,866.728,0.209262,0.0,0.0
1296,323.75,57.6297,61.8526,159.897,115.124,112.264,-0.00941467,0.11102,20.7729,866.728,0.225335,0.0,0.0
1300,324.75,56.1876,60.1867,158.545,115.188,112.992,-0.00938015,0.111003,20.7729,866.718,0.172354,0.0,0.0
1304,325.75,56.7542,60.4715,161.184,115.258,112.832,-0.00935219,0.111032,20.773,866.708,0.190535,0.0,0.0
1308,326.75,55.886,59.7178,156.238,115.31,112.388,-0.00932533,0.111062,20.7726,866.688,0.229905,0.0,0.0
1312,327.75,55.5391,58.9393,154.955,115.37,111.784,-0.00929518,0.111104,20.7719,866.708,0.282846,0.0,0.0
1316,328.75,54.1433,57.7135,158.356,115.421,112.758,-0.009269,0.111217,20.7711,866.698,0.209093,0.0,0.0
1320,329.75,55.174,57.145,159.456,115.477,113.038,-0.00925348,0.111386,20.7701,866.688,0.191169,0.0,0.0
1324,330.75,53.9768,57.0071,156.174,115.503,112.169,-0.00924968,0.111552,20.7687,866.698,0.262368,0.0,0.0
1328,331.75,53.7985,56.9586,155.953,115.537,113.572,-0.00925179,0.111739,20.7672,866.698,0.153617,0.0,0.0
1332,332.75,52.3823,55.1561,156.815,115.576,112.857,-0.00926188,0.111901,20.7662,866.718,0.213281,0.0,0.0
1336,333.75,52.5927,55.3571,160.846,115.609,112.467,-0.0092772,0.111958,20.7657,866.698,0.246827,0.0,0.0
1340,334.75,52.4622,55.0545,157.608,115.649,113.075,-0.00929681,0.111937,20.7659,866.698,0.201589,0.0,0.0
1344,335.75,52.0269,54.7097,156.738,115.698,113.255,-0.00933215,0.111847,20.7663,866.698,0.191142,0.0,0.0
1348,336.75,51.0578,52.9378,153.757,115.715,113.383,-0.00936031,0.111682,20.7665,866.718,0.1824,0.0,0.0
1352,337.75,51.2231,53.3529,155.023,115.749,112.777,-0.00937039,0.111502,20.7669,866.738,0.232972,0.0,0.0
1356,338.75,51.058,53.5904,155.936,115.734,113.004,-0.00934211,0.111343,20.7677,866.718,0.213754,0.0,0.0
1360,339.75,50.6251,52.148,157.456,115.737,112.939,-0.00931034,0.111165,20.7681,866.708,0.219216,0.0,0.0
1364,340.75,50.0095,52.3901,159.14,115.742,113.836,-0.00928529,0.110919,20.7685,866.708,0.148674,0.0,0.0
1368,341.75,49.8443,51.4107,153.523,115.72,113.484,-0.00928639,0.110655,20.7688,866.718,0.174731,0.0,0.0
1372,342.75,49.2249,50.9056,158.929,115.703,113.667,-0.00929386,0.110519,20.7696,866.718,0.159051,0.0,0.0
1376,343.75,48.7716,50.1279,158.347,115.672,112.99,-0.00928282,0.110352,20.7702,866.708,0.210154,0.0,0.0
1380,344.75,48.7382,50.1462,156.665,115.654,113.243,-0.00927129,0.110288,20.7707,866.688,0.18863,0.0,0.0
1384,345.75,47.8025,49.8215,154.069,115.613,112.585,-0.009239,0.110315,20.7712,866.698,0.237695,0.0,0.0
1388,346.75,48.3203,49.1628,156.911,115.573,112.644,-0.00920658,0.110388,20.7717,866.698,0.22996,0.0,0.0
1392,347.75,47.1393,48.744,157.984,115.536,113.877,-0.00918306,0.110407,20.772,866.718,0.129542,0.0,0.0
1396,348.75,47.1604,48.5256,157.434,115.52,113.016,-0.00917437,0.110368,20.7728,866.718,0.196249,0.0,0.0
1400,349.75,47.6908,47.8934,157.633,115.464,112.328,-0.0091934,0.110248,20.7735,866.718,0.246644,0.0,0.0
1404,350.75,46.9919,47.7612,156.94,115.424,112.117,-0.00923195,0.109998,20.7739,866.718,0.260334,0.0,0.0
1408,351.75,46.1355,46.886,155.586,115.385,113.099,-0.00929574,0.109671,20.7742,866.698,0.179285,0.0,0.0
1412,352.75,46.1704,47.0866,158.493,115.365,112.316,-0.00935913,0.109398,20.7744,866.708,0.239933,0.0,0.0
1416,353.75,45.9953,46.3299,156.544,115.335,113.005,-0.00941048,0.10922,20.7746,866.688,0.182776,0.0,0.0
1420,354.75,45.0859,45.7851,160.139,115.378,113.226,-0.00945711,0.109154,20.7749,866.688,0.168671,0.0,0.0
1424,355.75,44.5306,45.9205,159.116,115.532,112.983,-0.0095049,0.10905,20.7757,866.688,0.1998,0.0,0.0
1428,356.75,44.7277,45.7486,156.557,115.666,113.274,-0.00955858,0.108945,20.7762,866.718,0.1872,0.0,0.0
1432,357.75,44.5644,45.2506,157.953,115.782,113.01,-0.00961327,0.10883,20.7765,866.718,0.217066,0.0,0.0
1436,358.75,44.3067,44.7233,149.922,115.887,113.114,-0.00964541,0.108667,20.7767,866.698,0.216902,0.0,0.0
1440,359.75,44.3886,44.6955,159.097,115.983,113.908,-0.00964524,0.108545,20.7773,866.708,0.161702,0.0,0.0
1444,360.75,43.1215,43.5872,158.488,116.057,113.526,-0.00961285,0.108447,20.778,866.718,0.197492,0.0,0.0
1448,361.75,43.0071,43.7163,151.888,116.12,113.695,-0.00955524,0.108341,20.7792,866.708,0.189052,0.0,0.0
1452,362.75,43.4222,43.8198,156.747,116.167,113.603,-0.00949787,0.10821,20.7801,866.708,0.19997,0.0,0.0
1456,363.75,42.6241,42.1715,160.922,116.181,114.1,-0.00944843,0.108113,20.7806,866.708,0.161876,0.0,0.0
1460,364.75,42.4754,42.995,153.429,116.174,114.116,-0.00939025,0.108082,20.7807,866.718,0.160098,0.0,0.0
1464,365.75,43.1391,42.6047,156.832,116.166,113.637,-0.00932817,0.108099,20.7792,866.718,0.197091,0.0,0.0
1468,366.75,42.558,42.4125,157.818,116.103,113.649,-0.00922452,0.108237,20.7782,866.698,0.191388,0.0,0.0
1472,367.75,41.5869,41.3419,160.899,116.032,113.124,-0.00914214,0.108398,20.7778,866.698,0.227366,0.0,0.0
1476,368.75,41.974,41.7497,156.144,115.957,113.836,-0.00905956,0.108618,20.778,866.688,0.165304,0.0,0.0
1480,369.75,41.6321,41.4018,158.946,115.869,113.351,-0.00903504,0.108809,20.7773,866.688,0.196754,0.0,0.0
1484,370.75,41.8083,41.6672,160.172,115.725,113.36,-0.00905242,0.109056,20.7761,866.688,0.184956,0.0,0.0
1488,371.75,40.3601,40.1,156.163,115.573,112.748,-0.0090957,0.10925,20.7753,866.688,0.221617,0.0,0.0
1492,372.75,41.0692,40.8849,157.806,115.431,113.018,-0.00912382,0.109419,20.7744,866.698,0.189276,0.0,0.0
1496,373.75,40.8206,40.8519,157.985,115.412,113.204,-0.00913865,0.109562,20.7734,866.698,0.173021,0.0,0.0
1500,374.75,40.5326,39.8071,154.913,115.456,113.221,-0.00915854,0.109727,20.7727,866.698,0.175064,0.0,0.0
1504,375.75,40.3238,39.8373,159.23,115.515,113.311,-0.00920012,0.109871,20.7723,866.698,0.172568,0.0,0.0
1508,376.75,40.438,39.6762,160.144,115.575,112.285,-0.00924134,0.109991,20.772,866.688,0.258687,0.0,0.0
1512,377.75,40.1763,40.3162,161.47,115.657,113.58,-0.00927542,0.110019,20.7718,866.678,0.162332,0.0,0.0
1516,378.75,40.2617,39.4075,157.837,115.738,113.929,-0.00929658,0.110037,20.7717,866.688,0.141072,0.0,0.0
1520,379.75,39.5392,39.5422,157.199,115.815,113.446,-0.00932678,0.110023,20.7721,866.688,0.185154,0.0,0.0
1524,380.75,39.6908,38.8109,158.872,115.895,114.106,-0.00937417,0.109811,20.7727,866.718,0.139352,0.0,0.0
1528,381.75,39.3061,38.8773,156.624,115.979,113.868,-0.00942325,0.109621,20.7731,866.718,0.164538,0.0,0.0
1532,382.75,39.884,38.3309,161.193,116.036,113.528,-0.00947117,0.109341,20.7733,866.718,0.195712,0.0,0.0
1536,383.75,39.595,38.6048,157.083,116.098,114.081,-0.00952033,0.109096,20.7739,866.698,0.157012,0.0,0.0
1540,384.75,39.2056,38.163,158.733,116.158,113.759,-0.00956453,0.108879,20.7747,866.698,0.186929,0.0,0.0
1544,385.75,39.1702,37.6624,158.656,116.198,114.483,-0.00961564,0.1086,20.7752,866.708,0.133175,0.0,0.0
1548,386.75,38.2244,37.9084,160.569,116.236,114.026,-0.00966032,0.108308,20.7771,866.708,0.17193,0.0,0.0
1552,387.75,38.5514,37.5499,157.321,116.251,114.682,-0.00971211,0.107934,20.7783,866.718,0.121729,0.0,0.0
1556,388.75,38.3107,37.3269,157.406,116.266,114.79,-0.00977531,0.107619,20.7792,866.728,0.114442,0.0,0.0
1560,389.75,37.7994,36.8166,161.05,116.24,114.605,-0.0098325,0.107387,20.7799,866.728,0.126893,0.0,0.0
1564,390.75,37.6767,37.0578,158.937,116.213,114.744,-0.00986133,0.107116,20.7811,866.728,0.113952,0.0,0.0
1568,391.75,37.7693,36.9029,160.829,116.174,114.961,-0.00987321,0.106803,20.782,866.728,0.0939914,0.0,0.0
1572,392.75,37.5688,36.7082,159.834,116.111,113.773,-0.00983381,0.106563,20.7826,866.728,0.182207,0.0,0.0
1576,393.75,37.7275,36.5597,156.476,116.013,113.939,,0.106406,,866.708,0.161592,0.0,0.0
1580,394.75,37.4742,36.336,156.121,115.941,113.128,,0.106303,,866.708,0.219986,0.0,0.0
1584,395.75,37.3628,36.0901,159.161,115.831,114.206,,0.106264,,866.708,0.126602,0.0,0.0
1588,396.75,36.8676,35.8512,157.84,115.695,113.538,,,,866.698,0.168641,0.0,0.0
1592,397.75,37.0654,35.4399,159.365,115.572,113.239,,,,866.708,0.182615,0.0,0.0
1596,398.75,36.9695,35.635,159.955,115.421,113.057,,,,866.698,0.185394,0.0,0.0
1600,399.75,36.1034,34.5298,160.476,115.264,112.505,,,,866.688,0.217039,0.0,0.0
1604,400.75,36.7785,35.3796,159.785,115.109,112.898,,,,866.688,0.173722,0.0,0.0
1608,401.75,36.6284,35.1875,155.983,114.942,112.245,,,,866.708,0.212666,0.0,0.0
1612,402.75,36.3687,35.2158,157.221,114.788,112.556,,,,866.688,0.175901,0.0,0.0
1616,403.75,36.1488,34.2886,158.967,114.629,112.635,,,,866.698,0.157189,0.0,0.0
1619,404.5,35.9461,34.7823,157.163,114.514,112.86,,,,866.708,0.130356,0.0,0.0