File: 01_Data/PMMA/Cone/PMMA_Cone_HF75Scan_220225_R1.csv
Names,Time,Stack TC,Smoke TC,Exh Press,Smoke Comp,Smoke Meas,CO Meter,CO2 Meter,O2 Meter,Sample Mass,Ext Coeff,Start Test,Flame Verif
Chan Gain,,500,500,1,1,1,1,1,1,1,1,1.0,1.0
Offset,,0,0,0.136092,0,0,0,0,0,0,0,0.0,0.0
Gain,,1,1,25.011,15.4219,15.1528,1,1,1,1.00089,1.02113,1.0,1.0
Units,sec,C,C,Pa,%,%,%,%,%,g,/m,,
Baseline,,37.3956,39.4709,152.748,115.897,113.631,-0.00931337,0.108344,20.7756,-0.161059,0.176951,,
2,0.25,35.3863,37.002,153.646,115.653,113.666,-0.00945667,0.109677,20.7721,898.876,0.155189,0.0,0.0
4,0.75,34.8871,36.2624,151.836,115.631,113.597,-0.00944086,0.109737,20.7715,898.936,0.159015,0.0,0.0
6,1.25,35.232,37.2523,153.341,115.614,113.204,-0.00944046,0.109831,20.7711,898.926,0.188677,0.0,0.0
8,1.75,35.0281,36.6738,152.21,115.609,113.097,-0.00944014,0.109948,20.7709,898.916,0.196769,0.0,0.0
10,2.25,34.8067,36.5897,154.077,115.586,113.721,-0.00945603,0.110065,20.7707,898.956,0.145748,0.0,0.0
12,2.75,34.7609,36.1932,150.973,115.566,113.154,-0.00946889,0.11018,20.7703,898.916,0.188945,0.0,0.0
14,3.25,34.3862,36.4217,155.916,115.559,113.239,-0.00947931,0.110273,20.7698,898.926,0.181702,0.0,0.0
16,3.75,34.322,36.5891,149.811,115.536,113.926,-0.00950017,0.110407,20.7694,898.936,0.12576,0.0,0.0
18,4.25,34.963,36.728,150.84,115.528,113.82,-0.00951707,0.110515,20.7691,898.906,0.13347,0.0,0.0
20,4.75,34.9114,36.451,151.201,115.514,112.973,-0.00953075,0.110625,20.7689,898.926,0.19922,0.0,0.0
22,5.25,34.9,36.4649,152.978,115.504,113.598,-0.00951825,0.110734,20.7686,898.926,0.149057,0.0,0.0
24,5.75,35.0516,36.4773,155.23,115.47,113.469,-0.00950812,0.110823,20.7685,898.896,0.156535,0.0,0.0
26,6.25,35.1735,36.6351,153.969,115.467,113.042,-0.00947135,0.110932,20.7683,898.896,0.190109,0.0,0.0
28,6.75,34.5374,36.7123,151.493,115.43,113.306,-0.00944158,0.111054,20.7682,898.906,0.166362,0.0,0.0
30,7.25,34.9039,36.3144,154.242,115.427,112.736,-0.00940177,0.111153,20.7681,898.896,0.211332,0.0,0.0
32,7.75,35.2339,35.8959,152.167,115.401,113.263,-0.00935542,0.111276,20.7681,898.916,0.167498,0.0,0.0
34,8.25,35.1824,36.856,148.367,115.393,113.004,-0.00931003,0.111375,20.768,898.906,0.18738,0.0,0.0
36,8.75,35.2959,36.7991,150.089,115.372,112.929,-0.00926621,0.111471,20.768,898.906,0.19164,0.0,0.0
38,9.25,35.2167,37.1186,149.654,115.387,112.81,-0.00923006,0.111562,20.7679,898.906,0.202313,0.0,0.0
40,9.75,34.9113,37.1915,152.02,115.385,113.35,-0.00920019,0.111636,20.7679,898.906,0.159347,0.0,0.0
42,10.25,35.3683,36.97,153.188,115.392,112.441,-0.00917599,0.111681,20.7679,898.886,0.232063,0.0,0.0
44,10.75,35.5271,37.1195,152.075,115.398,112.999,-0.00916757,0.111703,20.7679,898.886,0.188149,0.0,0.0
46,11.25,35.2799,37.0056,154.914,115.398,113.451,-0.00916075,0.111707,20.7678,898.886,0.152407,0.0,0.0
48,11.75,35.5724,37.0005,154.215,115.392,113.079,-0.00915522,0.11171,20.7678,898.886,0.181407,0.0,0.0
50,12.25,35.5923,37.5876,155.823,115.399,112.923,-0.00914578,0.111713,20.7669,898.886,0.194272,0.0,0.0
52,12.75,35.4521,36.9252,149.973,115.386,113.578,-0.00913813,0.111925,20.7662,898.896,0.141495,0.0,0.0
54,13.25,35.2315,37.1543,150.169,115.409,112.867,-0.00910214,0.112286,20.7654,898.896,0.199515,0.0,0.0
56,13.75,35.4359,37.43,154.404,115.406,112.947,-0.00907298,0.112578,20.7645,898.876,0.192913,0.0,0.0
58,14.25,35.433,36.9629,149.072,115.406,113.294,-0.00898232,0.115367,20.7599,898.776,0.165449,0.0,0.0
60,14.75,35.3214,37.5262,157.758,115.396,113.225,-0.00890889,0.119923,20.7526,898.846,0.170169,0.0,0.0
62,15.25,35.6986,37.3177,150.777,115.406,112.692,-0.00875132,0.123613,20.7351,898.816,0.213215,0.0,0.0
64,15.75,35.6017,37.4791,146.812,115.409,111.858,-0.00862369,0.137921,20.7104,898.786,0.279915,0.0,0.0
66,16.25,35.9275,37.1209,147.296,115.409,110.919,-0.00840856,0.14951,20.678,898.736,0.355478,0.0,1.0
68,16.75,35.9526,37.7564,145.81,115.414,109.004,-0.00823431,0.173646,20.6404,898.716,0.511867,0.0,1.0
70,17.25,35.3611,37.1211,139.039,115.419,107.078,-0.00801279,0.193197,20.61,898.696,0.671877,0.0,1.0
72,17.75,35.9242,37.8398,137.225,115.424,106.235,-0.00776102,0.226979,20.5576,898.716,0.743039,0.0,1.0
74,18.25,36.1601,38.0679,141.238,115.428,106.757,-0.00755709,0.254342,20.5151,898.616,0.699495,0.0,1.0
76,18.75,36.2581,38.4073,129.752,115.416,105.567,-0.00728082,0.295779,20.4661,898.616,0.798973,0.0,1.0
78,19.25,37.0629,38.8856,125.513,115.421,102.851,-0.00695705,0.329343,20.4133,898.566,1.03279,0.0,1.0
80,19.75,37.9413,39.3917,130.338,115.43,102.401,-0.00662292,0.377102,20.3705,898.326,1.07275,0.0,1.0
82,20.25,38.1566,39.9449,121.873,115.439,101.964,-0.00628758,0.415786,20.3086,898.306,1.11175,0.0,0.0
84,20.75,38.5796,40.6544,119.126,115.445,100.163,-0.00601596,0.44712,20.2584,898.246,1.27187,0.0,1.0
86,21.25,39.0407,41.665,124.987,115.461,100.404,-0.00562833,0.50258,20.1992,898.155,1.25156,0.0,1.0
88,21.75,39.737,42.0819,123.194,115.446,99.6435,-0.00531435,0.547502,20.1345,898.075,1.31851,0.0,1.0
90,22.25,40.5603,43.1679,122.201,115.454,100.521,-0.00494704,0.59575,20.0629,897.985,1.24061,0.0,1.0
92,22.75,41.1585,44.0112,116.357,115.451,99.8955,-0.00464952,0.645505,19.9876,897.895,1.29628,0.0,1.0
94,23.25,42.2265,44.6794,113.994,115.473,99.108,-0.00429431,0.696044,19.9131,897.855,1.36893,0.0,1.0
96,23.75,43.0413,45.8513,110.418,115.466,98.7649,-0.00400658,0.746195,19.8407,897.745,1.39945,0.0,1.0
98,24.25,43.7798,46.9274,115.94,115.467,99.2879,-0.00366426,0.786816,19.7674,897.625,1.35221,0.0,1.0
100,24.75,44.4936,47.9459,114.45,115.468,99.2837,-0.00338699,0.840516,19.6949,897.545,1.35262,0.0,1.0
102,25.25,45.5888,49.3563,111.619,115.47,97.1815,-0.00316239,0.884013,19.6362,897.435,1.54454,0.0,1.0
104,25.75,45.7326,49.6272,118.18,115.468,97.1866,-0.00281906,0.927559,19.5886,897.315,1.54385,0.0,0.0
106,26.25,47.506,51.2247,111.503,115.473,97.1667,-0.00254097,0.970312,19.5399,897.245,1.54612,0.0,0.0
108,26.75,47.8721,52.6404,109.114,115.478,96.966,-0.00212101,1.01244,19.4913,897.135,1.56504,0.0,0.0
110,27.25,49.435,53.7817,121.788,115.491,97.4525,-0.00194577,1.0533,19.4519,897.055,1.52116,0.0,0.0
112,27.75,50.5734,54.3927,112.003,115.495,97.6758,-0.00164612,1.09427,19.4059,896.914,1.50102,0.0,0.0
114,28.25,51.3987,56.4694,111.664,115.502,96.5378,-0.00130857,1.13453,19.3686,896.794,1.60655,0.0,0.0
116,28.75,52.173,57.786,111.265,115.5,95.7984,-0.00094979,1.16714,19.3217,896.684,1.6752,0.0,0.0
118,29.25,53.5593,59.0774,105.854,115.495,96.0814,-0.000578398,1.19355,19.2837,896.564,1.64841,0.0,0.0
120,29.75,54.8329,60.2434,104.123,115.507,95.7138,-0.000204865,1.24841,19.2238,896.484,1.6837,0.0,0.0
122,30.25,55.2373,61.5697,105.479,115.508,96.024,0.000163621,1.267,19.1752,896.344,1.65474,0.0,0.0
124,30.75,56.5091,62.9058,106.538,115.535,96.0065,0.000521426,1.29878,19.1104,896.224,1.65854,0.0,0.0
126,31.25,57.3111,64.0173,102.578,115.513,95.8756,0.000811248,1.34007,19.0578,896.124,1.669,0.0,0.0
128,31.75,58.9447,65.6078,107.043,115.525,95.5963,0.00114777,1.37352,19.0076,895.964,1.69608,0.0,0.0
130,32.25,59.2371,66.6234,112.395,115.512,91.7323,0.00142035,1.41262,18.96,895.853,2.06464,0.0,0.0
132,32.75,60.5925,68.1992,99.4666,115.528,94.0763,0.00164114,1.44429,18.9215,895.733,1.83991,0.0,0.0
134,33.25,62.4525,70.4091,99.1834,115.53,96.0402,0.0019662,1.48131,18.8824,895.633,1.65495,0.0,0.0
136,33.75,63.2289,71.6887,100.805,115.542,94.966,0.00222949,1.5113,18.8436,895.463,1.75661,0.0,0.0
138,34.25,64.3921,72.8857,95.6617,115.53,94.3302,0.0025794,1.54681,18.8043,895.353,1.81591,0.0,0.0
140,34.75,65.9501,74.8045,97.2959,115.551,94.6534,0.00286283,1.57557,18.7653,895.243,1.78691,0.0,0.0
142,35.25,66.5273,75.466,103.964,115.551,94.3399,0.0032588,1.60881,18.7222,895.133,1.8166,0.0,0.0
144,35.75,67.3887,76.9959,99.2811,115.564,92.5873,0.00357954,1.64469,18.6768,894.953,1.98559,0.0,0.0
146,36.25,69.5923,79.041,91.0561,115.547,93.0358,0.0039924,1.67375,18.6256,894.792,1.94095,0.0,0.0
148,36.75,70.7315,80.3903,102.806,115.566,92.0458,0.00432681,1.71612,18.5712,894.692,2.03831,0.0,0.0
150,37.25,71.7847,82.0121,104.993,115.553,94.3283,0.00472826,1.75044,18.5172,894.442,1.81784,0.0,0.0
152,37.75,72.9176,83.6792,102.479,115.585,93.9385,0.00505343,1.79206,18.4645,894.362,1.85745,0.0,0.0
154,38.25,73.9867,85.1622,89.7921,115.55,95.0594,0.00538916,1.82578,18.4217,894.192,1.7485,0.0,0.0
156,38.75,75.7503,86.5631,88.3808,115.581,92.197,0.00572621,1.86072,18.3677,894.062,2.02474,0.0,0.0
158,39.25,76.165,88.0162,104.358,115.576,94.2044,0.00599922,1.89588,18.324,893.922,1.83144,0.0,0.0
160,39.75,77.4917,89.4067,99.7483,115.587,93.9607,0.00631675,1.93997,18.2885,893.802,1.85548,0.0,0.0
162,40.25,79.4624,91.8673,96.7898,115.582,93.5588,0.00666071,1.97567,18.2386,893.621,1.89347,0.0,0.0
164,40.75,80.991,93.5442,93.1322,115.592,94.0504,0.0070143,2.01464,18.1982,893.431,1.84733,0.0,0.0
166,41.25,82.305,94.6688,99.5292,115.587,92.3894,0.00736819,2.05524,18.1417,893.371,2.00654,0.0,0.0
168,41.75,83.5349,96.844,96.9051,115.592,93.6837,0.00765484,2.08813,18.0959,893.131,1.88229,0.0,0.0
170,42.25,84.8008,98.6701,88.0633,115.596,94.4134,0.0080782,2.12841,18.0435,893.001,1.81308,0.0,0.0
172,42.75,85.9168,100.305,88.6144,115.621,92.8689,0.00842113,2.17333,17.9873,892.871,1.96276,0.0,0.0
174,43.25,87.2417,101.777,92.591,115.614,91.2421,0.00885827,2.20971,17.9285,892.641,2.12051,0.0,0.0
176,43.75,88.3704,104.064,85.4903,115.618,91.895,0.00921234,2.25912,17.8689,892.47,2.057,0.0,0.0
178,44.25,89.9745,105.986,87.0229,115.607,91.501,0.00968149,2.29913,17.8075,892.27,2.09465,0.0,0.0
180,44.75,91.9796,107.978,91.7354,115.632,91.4372,0.0100615,2.34804,17.7458,892.15,2.10283,0.0,0.0
182,45.25,92.8772,109.789,88.4174,115.63,90.6825,0.0104713,2.38765,17.6819,891.98,2.17692,0.0,0.0
184,45.75,94.7753,111.555,93.7497,115.622,89.7979,0.0108949,2.44188,17.6176,891.79,2.26411,0.0,0.0
186,46.25,95.8301,113.46,88.8998,115.62,91.6338,0.0112381,2.48582,17.5656,891.6,2.08261,0.0,0.0
188,46.75,97.1681,115.407,90.6493,115.646,91.2541,0.0117426,2.53093,17.5104,891.399,2.12184,0.0,0.0
190,47.25,98.844,117.674,100.075,115.621,89.9542,0.0121513,2.57605,17.454,891.199,2.24839,0.0,0.0
192,47.75,100.36,119.151,81.8243,115.65,89.3392,0.01263,2.62314,17.3965,891.059,2.3121,0.0,0.0
194,48.25,101.705,121.319,92.2277,115.642,90.9059,0.0130177,2.67077,17.3393,890.869,2.1558,0.0,0.0
196,48.75,103.137,123.178,83.892,115.65,90.849,0.0134147,2.72223,17.2929,890.669,2.16199,0.0,0.0
198,49.25,104.661,125.656,86.6535,115.646,90.2608,0.013811,2.77552,17.2553,890.509,2.21988,0.0,0.0
200,49.75,105.946,127.144,80.4061,115.658,90.511,0.0141319,2.81869,17.1945,890.248,2.196,0.0,0.0
202,50.25,107.578,128.568,75.8768,115.653,90.8435,0.014524,2.88234,17.1452,890.098,2.16275,0.0,0.0
204,50.75,109.414,129.991,84.5545,115.658,90.1605,0.0149605,2.93389,17.07,889.918,2.23075,0.0,0.0
206,51.25,110.555,132.387,84.3026,115.659,91.5334,0.015314,2.99638,17.0092,889.718,2.09549,0.0,0.0
208,51.75,111.856,134.632,73.3412,115.678,91.6005,0.0158028,3.04699,16.9334,889.438,2.09043,0.0,0.0
210,52.25,113.615,136.651,78.933,115.679,90.4079,0.0161987,3.08798,16.872,889.278,2.20788,0.0,0.0
212,52.75,115.118,138.945,83.273,115.669,90.8028,0.0167473,3.13982,16.8029,889.128,2.16804,0.0,0.0
214,53.25,116.732,141.296,74.938,115.67,90.56,0.0171916,3.19859,16.7297,888.847,2.19206,0.0,0.0
216,53.75,118.033,143.109,78.7475,115.68,89.2818,0.0175515,3.24618,16.6704,888.707,2.32018,0.0,0.0
218,54.25,119.882,145.027,79.3345,115.678,90.1161,0.0180858,3.30663,16.6046,888.427,2.23673,0.0,0.0
220,54.75,121.7,147.003,78.4781,115.688,89.4127,0.0185186,3.35559,16.5355,888.267,2.30768,0.0,0.0
222,55.25,123.089,149.777,78.8002,115.686,90.4217,0.0190309,3.41267,16.4681,888.026,2.20702,0.0,0.0
224,55.75,124.286,151.718,84.1278,115.699,92.4444,0.0194458,3.45889,16.4033,887.826,2.00988,0.0,0.0
226,56.25,125.835,153.854,77.7072,115.691,89.1833,0.0199208,3.51016,16.3213,887.586,2.33091,0.0,0.0
228,56.75,127.704,155.861,74.7693,115.696,88.4809,0.0203055,3.56413,16.2548,887.366,2.40214,0.0,0.0
230,57.25,129.359,158.102,76.4501,115.691,87.7614,0.0207427,3.60784,16.1639,887.156,2.47488,0.0,0.0
232,57.75,130.526,160.368,75.3723,115.699,88.4055,0.0210968,3.67097,16.0902,886.976,2.40999,0.0,0.0
234,58.25,131.678,161.856,71.7796,115.705,90.0689,0.0215428,3.7221,16.0173,886.685,2.24353,0.0,0.0
236,58.75,132.911,164.116,66.974,115.7,89.7535,0.021904,3.78279,15.9463,886.445,2.27452,0.0,0.0
238,59.25,135.503,166.634,73.0146,115.692,89.2259,0.0223027,3.83196,15.8738,886.115,2.32675,0.0,0.0
240,59.75,137.444,168.304,74.6312,115.706,88.1022,0.0227211,3.89227,15.8014,886.025,2.44132,0.0,0.0
242,60.25,139.076,171.77,75.7494,115.712,86.419,0.0230599,3.94113,15.7427,885.815,2.61462,0.0,0.0
244,60.75,140.699,173.164,66.7252,115.699,88.4388,0.0235425,4.00689,15.6792,885.564,2.40665,0.0,0.0
246,61.25,142.004,175.389,75.6929,115.713,87.6962,0.0239333,4.06016,15.6133,885.344,2.48325,0.0,0.0
248,61.75,143.583,177.213,71.1583,115.719,87.8899,0.0244069,4.12278,15.56,884.924,2.46399,0.0,0.0
250,62.25,144.508,179.107,80.8625,115.712,87.6139,0.0247906,4.1735,15.4947,884.934,2.49158,0.0,0.0
252,62.75,146.039,181.788,77.6163,115.711,87.7942,0.0251013,4.21458,15.4418,884.593,2.47313,0.0,0.0
254,63.25,148.241,184.258,77.1378,115.72,87.4784,0.0257226,4.27113,15.3765,884.373,2.5061,0.0,0.0
256,63.75,149.763,186.468,70.3958,115.717,88.3977,0.0269073,4.31693,15.3235,884.113,2.41217,0.0,0.0
258,64.25,150.851,188.755,63.6621,115.716,87.4192,0.0284802,4.37355,15.2512,883.713,2.51184,0.0,0.0
260,64.75,152.649,190.944,77.05,115.717,88.1669,0.0297543,4.43698,15.166,883.603,2.43558,0.0,0.0
262,65.25,153.736,192.13,83.5371,115.733,89.5126,0.033805,4.50972,15.0689,883.352,2.30114,0.0,0.0
264,65.75,155.905,194.864,65.1376,115.725,90.2603,0.037086,4.58788,14.9649,883.032,2.22605,0.0,0.0
266,66.25,157.368,196.918,76.2554,115.729,88.6303,0.0447825,4.65119,14.8498,882.742,2.38958,0.0,0.0
268,66.75,159.156,199.681,65.2635,115.714,89.249,0.0510166,4.74904,14.7288,882.552,2.3261,0.0,0.0
270,67.25,160.83,202.076,67.6663,115.734,87.403,0.0560662,4.8283,14.6307,882.261,2.51484,0.0,0.0
272,67.75,162.34,204.428,67.5312,115.715,88.5702,0.0650944,4.91868,14.5318,882.061,2.3946,0.0,0.0
274,68.25,164.552,207.114,67.606,115.732,90.2146,0.0724072,4.99188,14.4341,881.751,2.2311,0.0,0.0
276,68.75,165.973,209.901,67.7548,115.718,88.3773,0.0786759,5.06458,14.3489,881.441,2.41438,0.0,0.0
278,69.25,167.833,212.115,66.9824,115.729,87.8719,0.0837536,5.12346,14.2745,881.331,2.46655,0.0,0.0
280,69.75,169.559,214.849,83.2203,115.724,87.0594,0.0866293,5.1746,14.2142,880.96,2.54936,0.0,0.0
282,70.25,170.775,216.627,81.4075,115.74,86.9489,0.0878453,5.21912,14.1641,880.7,2.56197,0.0,0.0
284,70.75,172.204,218.783,71.8078,115.725,86.8601,0.0872685,5.25518,14.1234,880.39,2.56996,0.0,0.0
286,71.25,174.215,221.72,77.6904,115.741,85.4516,0.0853957,5.29525,14.0817,880.19,2.71764,0.0,0.0
288,71.75,175.688,223.945,69.9454,115.728,86.0934,0.0823715,5.3277,14.0479,879.829,2.64967,0.0,0.0
290,72.25,176.889,225.728,72.9741,115.74,85.2518,0.0785654,5.35536,14.0205,879.599,2.73854,0.0,0.0
292,72.75,178.622,228.247,73.3756,115.726,88.5105,0.0754825,5.379,13.9957,879.349,2.40151,0.0,0.0
294,73.25,180.032,230.135,70.3706,115.748,87.2615,0.0729853,5.40299,13.9756,879.069,2.53049,0.0,0.0
296,73.75,181.649,232.591,70.5545,115.737,89.0696,0.06787,5.42678,13.956,878.778,2.34591,0.0,0.0
298,74.25,183.087,234.577,73.0092,115.735,87.4664,0.0637267,5.44604,13.9371,878.588,2.5085,0.0,0.0
300,74.75,184.391,235.755,72.9001,115.727,88.5045,0.0603706,5.47055,13.9218,878.228,2.40219,0.0,0.0
302,75.25,185.548,238.302,73.429,115.754,85.9408,0.0563589,5.4904,13.9095,877.988,2.66756,0.0,0.0
304,75.75,186.839,239.377,65.094,115.733,89.046,0.0531095,5.50648,13.8994,877.797,2.34795,0.0,0.0
306,76.25,188.746,242.364,67.5007,115.743,89.5182,0.0500112,5.5138,13.8913,877.517,2.30143,0.0,0.0
308,76.75,190.413,244.022,73.8961,115.737,88.0268,0.0475016,5.51973,13.8847,877.247,2.4514,0.0,0.0
310,77.25,191.432,246.475,80.1451,115.753,86.3884,0.0452316,5.52454,13.8794,877.027,2.62096,0.0,0.0
312,77.75,192.772,248.588,69.9691,115.728,87.2818,0.043393,5.52048,13.8751,876.727,2.52683,0.0,0.0
314,78.25,193.869,249.944,56.7354,115.746,90.6201,0.0417739,5.5172,13.8716,876.486,2.19202,0.0,0.0
316,78.75,195.316,251.737,67.59,115.724,87.2287,0.0404624,5.51562,13.8688,876.186,2.532,0.0,0.0
318,79.25,196.223,253.649,68.5334,115.751,88.2886,0.0393611,5.51531,13.8656,875.956,2.42589,0.0,0.0
320,79.75,197.788,255.204,71.3842,115.752,87.7101,0.0384339,5.51812,13.8621,875.676,2.48485,0.0,0.0
322,80.25,199.595,256.712,69.2707,115.758,87.9635,0.0376469,5.52316,13.8593,875.435,2.45952,0.0,0.0
324,80.75,199.972,258.357,73.8709,115.738,87.9815,0.0369771,5.52923,13.8544,875.235,2.45612,0.0,0.0
326,81.25,201.751,260.463,65.9443,115.749,87.9917,0.0364345,5.53593,13.8504,874.845,2.45592,0.0,0.0
328,81.75,202.698,262.639,70.1973,115.742,86.8245,0.0359531,5.544,13.8472,874.575,2.57494,0.0,0.0
330,82.25,203.905,264.033,67.8823,115.752,87.9977,0.0355254,5.5529,13.8362,874.294,2.45556,0.0,0.0
332,82.75,205.26,265.925,78.5269,115.744,89.4932,0.035134,5.56215,13.8273,874.164,2.304,0.0,0.0
334,83.25,206.431,266.892,72.3284,115.75,90.018,0.0347764,5.57148,13.8201,873.794,2.25205,0.0,0.0
336,83.75,207.358,269.074,59.9656,115.744,88.2788,0.0344192,5.57903,13.8142,873.594,2.42633,0.0,0.0
338,84.25,208.742,270.362,65.4681,115.748,87.3887,0.034069,5.58549,13.8095,873.333,2.51744,0.0,0.0
340,84.75,209.879,272.106,66.4969,115.742,89.9135,0.0337239,5.59103,13.8057,872.973,2.26184,0.0,0.0
342,85.25,210.913,273.935,71.217,115.749,88.5082,0.0333891,5.59258,13.8114,872.783,2.40345,0.0,0.0
344,85.75,211.847,275.334,84.4843,115.737,87.9394,0.0330552,5.59117,13.816,872.523,2.46033,0.0,0.0
346,86.25,213.184,277.248,63.1042,115.748,89.3854,0.0327283,5.58595,13.8242,872.283,2.31504,0.0,0.0
348,86.75,214.35,277.777,71.5132,115.752,87.4266,0.0324635,5.57803,13.8348,872.002,2.51388,0.0,0.0
350,87.25,215.258,279.53,78.8994,115.753,87.1833,0.0321329,5.57161,13.8552,871.832,2.53887,0.0,0.0
352,87.75,216.384,281.259,64.7987,115.736,89.2199,0.0318652,5.55261,13.8825,871.442,2.33077,0.0,0.0
354,88.25,217.504,282.669,63.1179,115.743,88.3612,0.0316483,5.53722,13.9045,871.192,2.41795,0.0,0.0
356,88.75,218.227,283.749,68.0334,115.742,89.4372,0.0313455,5.50201,13.9559,871.001,2.30942,0.0,0.0
358,89.25,219.037,285.462,76.7485,115.738,88.2617,0.0311002,5.47348,13.9976,870.711,2.42763,0.0,0.0
360,89.75,219.679,286.511,64.3926,115.743,88.4504,0.0307861,5.42638,14.0441,870.611,2.40891,0.0,0.0
362,90.25,220.852,287.569,75.1349,115.758,85.9371,0.0305317,5.38824,14.0933,870.131,2.66828,0.0,0.0
364,90.75,221.89,288.906,68.641,115.746,87.2916,0.030227,5.34586,14.1436,870.111,2.52722,0.0,0.0
366,91.25,222.586,289.639,74.6205,115.744,85.5709,0.0298914,5.3012,14.1938,869.76,2.7054,0.0,0.0
368,91.75,223.387,290.169,69.5905,115.745,86.1887,0.0294953,5.26502,14.2649,869.55,2.64107,0.0,0.0
370,92.25,224.043,291.081,72.8352,115.731,89.0252,0.0290627,5.21655,14.3498,869.41,2.3499,0.0,0.0
372,92.75,224.274,291.945,75.2494,115.748,88.3075,0.0285556,5.16002,14.4187,869.11,2.42372,0.0,0.0
374,93.25,224.824,292.282,79.6413,115.741,87.2971,0.0280037,5.07001,14.5407,868.96,2.52625,0.0,0.0
376,93.75,225.744,293.496,69.4707,115.744,87.9593,0.0273718,4.99711,14.6395,868.639,2.45881,0.0,0.0
378,94.25,225.406,293.641,81.9212,115.739,85.8483,0.0266935,4.90949,14.7551,868.499,2.67604,0.0,0.0
380,94.75,226.215,293.923,79.6123,115.753,85.5117,0.0261441,4.81282,14.8808,868.379,2.71233,0.0,0.0
382,95.25,226.808,294.811,84.3896,115.739,86.812,0.0256991,4.70906,14.9826,868.139,2.57601,0.0,0.0
384,95.75,227.635,294.818,85.1239,115.738,89.3628,0.0248155,4.6021,15.065,867.969,2.31655,0.0,0.0
386,96.25,227.149,295.165,83.5638,115.727,89.4973,0.0240998,4.51546,15.1609,867.759,2.30227,0.0,0.0
388,96.75,227.441,295.387,74.4388,115.74,89.5329,0.0235201,4.39409,15.2646,867.538,2.29965,0.0,0.0
390,97.25,227.221,294.734,78.7513,115.721,88.2909,0.0225553,4.29578,15.3834,867.438,2.42336,0.0,0.0
392,97.75,227.153,294.007,86.5283,115.738,89.1292,0.0217739,4.17525,15.5108,867.318,2.33999,0.0,0.0
394,98.25,227.663,295.097,87.6794,115.725,89.9944,0.020767,4.0408,15.6565,867.078,2.25247,0.0,0.0
396,98.75,227.487,294.844,86.6566,115.725,91.0738,0.0199514,3.9319,15.8128,866.998,2.14569,0.0,0.0
398,99.25,227.604,293.835,77.0569,115.72,90.1013,0.0188855,3.84369,15.9989,866.698,2.24145,0.0,0.0
400,99.75,226.856,293.387,88.6724,115.728,90.6775,0.0180221,3.6761,16.2031,866.567,2.18497,0.0,0.0
402,100.25,226.751,292.742,87.571,115.717,90.4578,0.0168779,3.54035,16.4201,866.507,2.20585,0.0,0.0
404,100.75,226.64,292.008,91.1171,115.731,90.0809,0.0159511,3.40233,16.6423,866.467,2.24431,0.0,0.0
406,101.25,225.752,290.781,99.9719,115.718,91.3498,0.0149099,3.26526,16.8222,866.207,2.11807,0.0,0.0
408,101.75,225.027,290.226,90.1508,115.73,91.0923,0.0138052,3.09615,17.0435,866.207,2.14423,0.0,0.0
410,102.25,224.628,289.465,96.1578,115.715,92.9249,0.0129104,2.95917,17.2227,866.077,1.96469,0.0,0.0
412,102.75,224.258,288.081,95.8708,115.725,90.6432,0.0118465,2.81465,17.3679,865.967,2.18813,0.0,0.0
414,103.25,222.891,286.69,103.789,115.703,93.3729,0.0106797,2.66738,17.5702,865.967,1.92065,0.0,0.0
416,103.75,222.88,285.583,103.584,115.735,93.3124,0.00950057,2.51406,17.7341,865.837,1.92894,0.0,0.0
418,104.25,221.175,283.735,110.588,115.717,93.9339,0.00833486,2.35924,17.9489,865.797,1.86806,0.0,0.0
420,104.75,220.187,282.486,114.754,115.718,93.6948,0.00739064,2.23383,18.1229,865.767,1.89103,0.0,0.0
422,105.25,218.995,280.803,116.572,115.702,95.9598,0.00611899,2.0866,18.314,865.707,1.67576,0.0,0.0
424,105.75,218.238,278.598,120.895,115.712,98.2876,0.00508895,1.92625,18.514,865.697,1.46187,0.0,0.0
426,106.25,216.967,277.318,122.802,115.702,99.4534,0.00387942,1.79637,18.7257,865.647,1.35553,0.0,0.0
428,106.75,215.414,275.048,130.598,115.712,102.358,0.00289971,1.62848,18.9419,865.637,1.09841,0.0,0.0
430,107.25,213.947,272.646,132.015,115.701,103.281,0.0017945,1.49248,19.1426,865.607,1.01716,0.0,0.0
432,107.75,211.991,269.989,139.335,115.708,104.847,0.000764008,1.34329,19.3281,865.607,0.882929,0.0,0.0
434,108.25,210.435,268.14,135.695,115.684,106.445,-0.000192427,1.22244,19.5164,865.587,0.74553,0.0,0.0
436,108.75,208.886,265.2,136.767,115.704,106.461,-0.00096714,1.09229,19.6689,865.617,0.745737,0.0,0.0
438,109.25,206.383,262.79,138.943,115.688,106.756,-0.00173973,0.986872,19.7924,865.587,0.719749,0.0,0.0
440,109.75,204.201,260.171,137.471,115.703,107.668,-0.00249609,0.881104,19.9145,865.617,0.644651,0.0,0.0
442,110.25,203.112,257.575,141.92,115.688,107.09,-0.00317408,0.795432,20.0134,865.597,0.69174,0.0,0.0
444,110.75,201.006,255.069,142.887,115.703,107.881,-0.00378207,0.71193,20.1103,865.607,0.627045,0.0,0.0
446,111.25,199.172,252.329,142.308,115.686,107.471,-0.00427455,0.644294,20.1888,865.597,0.659781,0.0,0.0
448,111.75,196.536,249.444,140.019,115.686,107.808,-0.00477526,0.583646,20.2575,865.597,0.631803,0.0,0.0
450,112.25,195.017,247.249,140.261,115.689,107.377,-0.00518083,0.529245,20.3177,865.597,0.667902,0.0,0.0
452,112.75,193.027,244.444,141.589,115.714,107.834,-0.00558012,0.48518,20.3721,865.607,0.631764,0.0,0.0
454,113.25,191.062,241.545,141.155,115.685,107.959,-0.00590355,0.441736,20.4211,865.607,0.619102,0.0,0.0
456,113.75,189.881,239.689,141.789,115.688,107.631,-0.0062276,0.406547,20.4636,865.617,0.646599,0.0,0.0
458,114.25,188.02,237.128,141.106,115.68,107.504,-0.00636575,0.373527,20.4831,865.617,0.656568,0.0,0.0
460,114.75,186.513,235.051,139.523,115.71,107.757,-0.00662812,0.34678,20.5163,865.627,0.637852,0.0,0.0
462,115.25,184.036,232.413,140.432,115.672,107.284,-0.00686417,0.321446,20.5468,865.627,0.674309,0.0,0.0
464,115.75,183.009,229.707,142.332,115.688,107.856,-0.00705536,0.300926,20.5715,865.617,0.627914,0.0,0.0
466,116.25,181.379,228.623,143.374,115.664,107.517,-0.00725013,0.283096,20.5926,865.617,0.654289,0.0,0.0
468,116.75,179.995,225.503,138.023,115.682,108.39,-0.00744379,0.267566,20.6108,865.627,0.583194,0.0,0.0
470,117.25,178.419,223.795,138.614,115.676,108.681,-0.00761961,0.260945,20.6255,865.617,0.558679,0.0,0.0
472,117.75,176.586,221.364,144.243,115.682,107.732,-0.00777908,0.247714,20.6398,865.607,0.637741,0.0,0.0
474,118.25,175.254,219.136,150.035,115.675,107.843,-0.00785425,0.236997,20.6459,865.607,0.627972,0.0,0.0
476,118.75,173.375,218.015,144.88,115.665,107.985,-0.00798279,0.226345,20.6563,865.607,0.615459,0.0,0.0
478,119.25,172.27,215.453,138.217,115.657,108.031,-0.00808691,0.217716,20.6665,865.617,0.611044,0.0,0.0
480,119.75,170.741,213.483,146.474,115.675,107.476,-0.00816667,0.209983,20.6748,865.607,0.658481,0.0,0.0
482,120.25,169.157,211.229,141.915,115.645,107.548,-0.00822717,0.203049,20.6815,865.617,0.650213,0.0,0.0
484,120.75,167.912,209.638,145.942,115.666,107.191,-0.00826767,0.196922,20.6869,865.627,0.681597,0.0,0.0
486,121.25,166.286,207.639,145.689,115.658,107.548,-0.00829283,0.194068,20.6931,865.617,0.65116,0.0,0.0
488,121.75,165.36,205.804,144.263,115.659,107.071,-0.00831321,0.189188,20.6981,865.627,0.691103,0.0,0.0
490,122.25,164.187,204.005,143.034,115.653,108.512,-0.00831606,0.185235,20.7026,865.627,0.57089,0.0,0.0
492,122.75,162.585,201.998,144.232,115.659,107.706,-0.00831837,0.180672,20.7067,865.627,0.638107,0.0,0.0
494,123.25,161.634,200.341,144.513,115.636,107.603,-0.00832024,0.176975,20.7106,865.637,0.644939,0.0,0.0
496,123.75,160.187,198.34,144.449,115.638,107.365,-0.00831849,0.173193,20.7145,865.627,0.664895,0.0,0.0
498,124.25,158.482,196.897,143.208,115.64,107.364,-0.00831413,0.170129,20.7181,865.617,0.665191,0.0,0.0
500,124.75,157.691,195.002,143.02,115.636,108.134,-0.00831909,0.166977,20.7214,865.607,0.600821,0.0,0.0
502,125.25,156.489,193.122,141.77,115.636,107.575,-0.00833076,0.164425,20.7246,865.637,0.647251,0.0,0.0
504,125.75,154.506,191.801,141.617,115.648,108.089,-0.00834936,0.162357,20.7276,865.627,0.605446,0.0,0.0
506,126.25,153.737,189.721,145.335,115.617,108.266,-0.00837266,0.159999,20.73,865.607,0.588449,0.0,0.0
508,126.75,152.705,188.274,145.31,115.626,108.423,-0.00839153,0.158088,20.7324,865.597,0.576107,0.0,0.0
510,127.25,151.88,186.683,145.148,115.625,108.396,-0.0084291,0.155946,20.7343,865.597,0.57825,0.0,0.0
512,127.75,150.568,185.307,142.785,115.625,107.949,-0.00845954,0.154211,20.7363,865.607,0.615316,0.0,0.0
514,128.25,149.268,183.375,142.535,115.618,107.673,-0.00850157,0.152577,20.7382,865.617,0.637704,0.0,0.0
516,128.75,147.866,181.996,140.097,115.627,107.908,-0.00853562,0.151047,20.74,865.617,0.618876,0.0,0.0
518,129.25,147.13,180.364,140.89,115.606,108.222,-0.00858182,0.149519,20.7416,865.617,0.59121,0.0,0.0
520,129.75,146.151,178.952,142.292,115.604,108.221,-0.00861924,0.14802,20.7434,865.617,0.59114,0.0,0.0
522,130.25,144.845,177.833,144.963,115.6,107.462,-0.00864956,0.146807,20.7453,865.627,0.653841,0.0,0.0
524,130.75,144.077,176.123,140.853,115.608,107.942,-0.00870018,0.145302,20.7468,865.637,0.614615,0.0,0.0
526,131.25,142.964,174.179,143.554,115.601,107.247,-0.00876782,0.144084,20.7492,865.617,0.671856,0.0,0.0
528,131.75,141.516,173.451,144.86,115.6,108.038,-0.00879179,0.142692,20.7499,865.617,0.606018,0.0,0.0
530,132.25,140.706,172.063,146.464,115.6,108.796,-0.00883278,0.141566,20.7514,865.607,0.543363,0.0,0.0
532,132.75,139.43,169.981,144.199,115.594,108.177,-0.00887578,0.140463,20.7531,865.627,0.594013,0.0,0.0
534,133.25,139.137,169.257,146.189,115.578,107.659,-0.00891943,0.1394,20.7545,865.627,0.635761,0.0,0.0
536,133.75,138.436,167.58,143.752,115.598,107.969,-0.00896224,0.138334,20.7556,865.617,0.611548,0.0,0.0
538,134.25,137.024,166.873,146.292,115.575,108.817,-0.00899691,0.136839,20.7567,865.637,0.539717,0.0,0.0
540,134.75,135.682,165.419,142.501,115.573,107.705,-0.0090163,0.136437,20.7578,865.627,0.631588,0.0,0.0
542,135.25,134.85,163.564,142.459,115.588,108.731,-0.00903201,0.135419,20.7592,865.597,0.547746,0.0,0.0
544,135.75,134.264,163.062,144.571,115.563,107.796,-0.00901866,0.134594,20.7607,865.597,0.62321,0.0,0.0
546,136.25,132.781,160.605,139.378,115.567,107.489,-0.00900785,0.133552,20.762,865.607,0.649053,0.0,0.0
548,136.75,131.924,159.872,141.035,115.565,107.897,-0.00899909,0.132709,20.763,865.607,0.614945,0.0,0.0
550,137.25,131.964,159.329,145.76,115.556,107.645,-0.00895972,0.131709,20.7643,865.597,0.635198,0.0,0.0
552,137.75,130.737,157.867,148.526,115.56,108.319,-0.00892782,0.1309,20.7657,865.607,0.579637,0.0,0.0
554,138.25,129.717,156.937,141.925,115.555,107.915,-0.00889454,0.130015,20.7669,865.627,0.612645,0.0,0.0
556,138.75,128.372,155.654,143.462,115.547,106.956,-0.00886758,0.129298,20.7678,865.627,0.692063,0.0,0.0
558,139.25,128.06,154.588,145.22,115.55,108.011,-0.00884947,0.128459,20.7688,865.617,0.604303,0.0,0.0
560,139.75,127.566,153.263,146.132,115.545,108.224,-0.0088348,0.127779,20.7699,865.617,0.586351,0.0,0.0
562,140.25,126.121,151.718,144.697,115.551,107.64,-0.00883409,0.127229,20.7707,865.637,0.635296,0.0,0.0
564,140.75,124.995,150.529,143.697,115.53,108.647,-0.00883351,0.126572,20.7716,865.647,0.550232,0.0,0.0
566,141.25,125.098,149.945,143.098,115.554,107.755,-0.00883305,0.12585,20.7725,865.637,0.625938,0.0,0.0
568,141.75,124.515,148.924,140.95,115.518,107.298,-0.00884509,0.125137,20.7725,865.617,0.661187,0.0,0.0
570,142.25,123.545,148.06,142.94,115.542,107.212,-0.00885484,0.124444,20.7718,865.617,0.670231,0.0,0.0
572,142.75,122.926,146.535,143.556,115.521,107.846,-0.0088647,0.12377,20.7712,865.607,0.615817,0.0,0.0
574,143.25,122.096,145.775,147.611,115.528,108.107,-0.00887445,0.123122,20.7707,865.637,0.594652,0.0,0.0
576,143.75,121.194,145.409,144.506,115.509,107.481,-0.00888235,0.122598,20.7703,865.637,0.645223,0.0,0.0
578,144.25,120.698,143.809,143.736,115.513,107.61,-0.00888129,0.122007,20.7703,865.667,0.634803,0.0,0.0
580,144.75,119.947,143.202,144.908,115.516,107.759,-0.00888044,0.12138,20.7704,865.717,0.622675,0.0,0.0
582,145.25,119.262,141.385,143.338,115.506,108.503,-0.00886858,0.120767,20.771,865.687,0.560273,0.0,0.0
584,145.75,118.377,141.192,143.899,115.495,108.726,-0.00885897,0.120175,20.7719,865.637,0.541014,0.0,0.0
586,146.25,118.325,140.248,145.646,115.507,108.923,-0.00884334,0.119696,20.7726,865.617,0.525714,0.0,0.0
588,146.75,117.203,139.073,143.095,115.499,107.975,-0.00882363,0.119094,20.7732,865.617,0.603389,0.0,0.0
590,147.25,116.022,138.436,144.731,115.506,107.64,-0.00880308,0.118606,20.7736,865.647,0.631757,0.0,0.0
592,147.75,115.779,137.023,145.111,115.493,107.91,-0.00878233,0.118114,20.7745,865.667,0.608251,0.0,0.0
594,148.25,115.394,136.345,138.334,115.495,108.403,-0.00876551,0.117627,20.7751,865.697,0.567608,0.0,0.0
596,148.75,114.447,134.977,147.919,115.479,107.737,-0.00875438,0.117172,20.7757,865.667,0.62156,0.0,0.0
598,149.25,113.619,134.169,144.829,115.494,108.341,-0.00874536,0.11675,20.7761,865.647,0.572659,0.0,0.0
600,149.75,112.866,133.097,144.585,115.473,107.028,-0.00875419,0.116348,20.7765,865.607,0.680293,0.0,0.0
602,150.25,112.47,132.845,146.006,115.466,107.797,-0.00876135,0.115968,20.7767,865.617,0.615541,0.0,0.0
604,150.75,112.167,131.502,142.72,115.468,108.189,-0.0087644,0.115661,20.7769,865.627,0.583201,0.0,0.0
606,151.25,110.932,130.96,142.962,115.477,108.218,-0.00878452,0.115269,20.7771,865.607,0.581483,0.0,0.0
608,151.75,110.566,130.627,147.577,115.454,108.442,-0.00880081,0.114952,20.7772,865.617,0.561187,0.0,0.0
610,152.25,110.176,129.826,142.896,115.466,108.857,-0.00881401,0.114595,20.7778,865.587,0.527977,0.0,0.0
612,152.75,109.024,128.729,144.622,115.458,108.201,-0.0088247,0.114306,20.7783,865.627,0.581477,0.0,0.0
614,153.25,108.372,128.29,143.123,115.461,108.74,-0.00882963,0.114049,20.7787,865.647,0.53717,0.0,0.0
616,153.75,108.319,127.216,147.4,115.438,107.803,-0.00883363,0.113929,20.779,865.647,0.613,0.0,0.0
618,154.25,107.933,126.258,147.89,115.456,107.587,-0.00884183,0.113724,20.7792,865.647,0.632349,0.0,0.0
620,154.75,106.793,125.416,143.988,115.438,108.554,-0.00884848,0.113458,20.7794,865.647,0.550782,0.0,0.0
622,155.25,106.218,124.464,143.066,115.446,108.642,-0.00887249,0.113243,20.7798,865.647,0.544118,0.0,0.0
624,155.75,105.719,124.179,146.579,115.432,108.769,-0.00889193,0.112983,20.7804,865.647,0.532505,0.0,0.0
626,156.25,105.355,123.223,146.632,115.44,108.505,-0.00891748,0.112772,20.7808,865.667,0.554896,0.0,0.0
628,156.75,104.681,122.62,142.334,115.415,108.074,-0.008947,0.112579,20.7811,865.637,0.588723,0.0,0.0
630,157.25,104.529,122.102,142.546,115.43,107.842,-0.00897091,0.112403,20.7814,865.637,0.609077,0.0,0.0
632,157.75,103.523,121.06,144.611,115.414,109.412,-0.00900766,0.112237,20.7816,865.637,0.478414,0.0,0.0
634,158.25,103.461,119.41,143.004,115.431,107.902,-0.00903743,0.112083,20.7818,865.607,0.604157,0.0,0.0
636,158.75,102.523,119.789,148.702,115.42,108.043,-0.00906416,0.11195,20.782,865.607,0.591582,0.0,0.0
638,159.25,102.072,118.966,146.919,115.432,109.192,-0.00908816,0.111836,20.7821,865.597,0.497767,0.0,0.0
640,159.75,101.923,118.567,144.635,115.413,108.307,-0.0091076,0.111744,20.7822,865.607,0.569208,0.0,0.0
642,160.25,101.418,117.628,148.064,115.416,108.662,-0.00912955,0.111612,20.7823,865.607,0.54014,0.0,0.0
644,160.75,100.802,116.395,141.291,115.403,107.668,-0.00914733,0.111505,20.7823,865.577,0.621451,0.0,0.0
646,161.25,100.37,115.659,147.783,115.426,108.824,-0.0091754,0.111441,20.7824,865.587,0.527577,0.0,0.0
648,161.75,100.298,115.949,145.816,115.409,109.124,-0.00919813,0.11141,20.7824,865.597,0.501629,0.0,0.0
650,162.25,99.1154,114.835,142.318,115.407,107.798,-0.00924013,0.111384,20.7822,865.597,0.610936,0.0,0.0
652,162.75,98.4057,114.094,145.174,115.39,107.896,-0.00930172,0.111406,20.7817,865.587,0.601517,0.0,0.0
654,163.25,98.7897,113.533,143.713,115.397,107.999,-0.00932654,0.111424,20.7816,865.587,0.593436,0.0,0.0
656,163.75,97.6125,112.704,144.062,115.394,107.391,-0.00936897,0.111538,20.7813,865.587,0.643831,0.0,0.0
658,164.25,97.3195,111.968,145.771,115.424,108.22,-0.00940335,0.11163,20.7811,865.587,0.577315,0.0,0.0
660,164.75,97.1927,111.702,143.569,115.393,108.918,-0.00943119,0.111748,20.781,865.587,0.517294,0.0,0.0
662,165.25,96.9395,111.207,142.766,115.406,109.006,-0.00948974,0.111843,20.7804,865.577,0.511095,0.0,0.0
664,165.75,95.9881,110.276,144.979,115.388,108.419,-0.00953718,0.111974,20.7797,865.577,0.55802,0.0,0.0
666,166.25,95.8463,109.56,147.79,115.404,107.682,-0.00955325,0.112009,20.7788,865.557,0.620329,0.0,0.0
668,166.75,95.1844,109.196,142.114,115.396,109.327,-0.00956627,0.112069,20.7779,865.577,0.48392,0.0,0.0
670,167.25,94.768,108.376,141.066,115.436,108.637,-0.00953584,0.112117,20.7772,865.587,0.543734,0.0,0.0
672,167.75,94.7246,107.859,141.78,115.445,108.578,-0.00951119,0.112114,20.7766,865.597,0.549309,0.0,0.0
674,168.25,93.8594,107.321,144.743,115.462,108.079,-0.00946019,0.112111,20.7761,865.597,0.591842,0.0,0.0
676,168.75,94.0072,106.941,138.573,115.478,108.036,-0.00941887,0.112131,20.7757,865.597,0.596687,0.0,0.0
678,169.25,93.4572,106.523,146.594,115.486,108.612,-0.00937757,0.112168,20.7754,865.597,0.549698,0.0,0.0
680,169.75,92.6209,105.627,143.985,115.509,108.775,-0.00933705,0.112212,20.7752,865.617,0.537961,0.0,0.0
682,170.25,91.7693,104.967,145.842,115.523,108.792,-0.00930228,0.112248,20.775,865.607,0.537722,0.0,0.0
684,170.75,91.3304,103.841,140.577,115.55,108.948,-0.00927234,0.112234,20.7748,865.607,0.527017,0.0,0.0
686,171.25,91.8992,103.969,145.372,115.571,108.645,-0.0092481,0.112222,20.7746,865.587,0.553558,0.0,0.0
688,171.75,91.5107,104.011,142.84,115.57,107.716,-0.00922454,0.112176,20.7745,865.587,0.630408,0.0,0.0
690,172.25,90.5182,102.909,145.951,115.594,108.655,-0.00920192,0.112104,20.7745,865.597,0.554471,0.0,0.0
692,172.75,89.7847,101.706,145.707,115.618,108.584,-0.00918165,0.112001,20.7744,865.617,0.562278,0.0,0.0
694,173.25,90.4968,101.853,144.416,115.639,108.165,-0.00916346,0.111878,20.7748,865.597,0.598471,0.0,0.0
696,173.75,90.3705,101.806,147.936,115.643,109.342,-0.00914873,0.111777,20.7751,865.597,0.501793,0.0,0.0
698,174.25,89.0587,101.577,141.671,115.655,109.015,-0.00914424,0.111582,20.7756,865.587,0.529638,0.0,0.0
700,174.75,89.0709,100.434,142.547,115.665,108.988,-0.00914061,0.111424,20.7762,865.567,0.532645,0.0,0.0
702,175.25,89.3729,100.468,142.313,115.704,108.327,-0.00915257,0.111251,20.7766,865.577,0.590105,0.0,0.0
704,175.75,88.7956,99.6284,143.046,115.722,108.984,-0.00916225,0.111071,20.777,865.587,0.537321,0.0,0.0
706,176.25,87.6004,98.6286,142.212,115.71,109.46,-0.00918376,0.110925,20.7774,865.577,0.497386,0.0,0.0
708,176.75,86.9835,98.1907,145.719,115.729,108.716,-0.00920117,0.110806,20.7776,865.587,0.5599,0.0,0.0
710,177.25,87.5211,98.1207,146.354,115.738,109.483,-0.00921776,0.11071,20.7781,865.577,0.497682,0.0,0.0
712,177.75,87.2551,98.165,142.998,115.756,108.2,-0.0092312,0.110576,20.7786,865.577,0.604636,0.0,0.0
714,178.25,87.0518,97.1261,144.98,115.762,109.092,-0.00924209,0.110467,20.7791,865.587,0.531528,0.0,0.0
716,178.75,86.232,96.6483,145.403,115.798,108.698,-0.00925091,0.110341,20.7794,865.597,0.566815,0.0,0.0
718,179.25,85.9698,96.535,148.905,115.803,108.912,-0.00925805,0.110205,20.7797,865.597,0.549514,0.0,0.0
720,179.75,86.1347,96.4557,147.681,115.818,108.351,-0.00926448,0.110058,20.78,865.597,0.59697,0.0,0.0
722,180.25,85.4631,94.9629,144.313,115.821,108.658,-0.00927029,0.109905,20.7802,865.577,0.571839,0.0,0.0
724,180.75,85.3972,94.5649,141.884,115.87,108.929,-0.00927825,0.109751,20.7803,865.597,0.553313,0.0,0.0
726,181.25,85.1752,94.9176,143.034,115.838,110.115,-0.00928765,0.1096,20.7805,865.597,0.453794,0.0,0.0
728,181.75,84.5826,94.6265,146.268,115.867,109.262,-0.00930114,0.109477,20.7806,865.587,0.525758,0.0,0.0
730,182.25,84.3327,94.0826,141.007,115.873,109.583,-0.00931736,0.109392,20.7807,865.567,0.499924,0.0,0.0
732,182.75,83.9924,93.5084,141.823,115.895,109.218,-0.00933573,0.109338,20.7807,865.587,0.531507,0.0,0.0
734,183.25,84.0345,92.873,142.515,115.898,109.721,-0.00935531,0.109293,20.7808,865.597,0.490595,0.0,0.0
736,183.75,83.3182,92.6156,143.977,115.911,108.925,-0.00937183,0.109257,20.7808,865.597,0.556784,0.0,0.0
738,184.25,83.6365,92.231,145.268,115.913,109.298,-0.00938579,0.109228,20.7813,865.597,0.526368,0.0,0.0
740,184.75,83.1354,91.9125,140.075,115.938,108.783,-0.0093971,0.109204,20.7817,865.607,0.570573,0.0,0.0
742,185.25,82.7579,91.3456,143.292,115.93,109.871,-0.0093932,0.109163,20.782,865.607,0.480882,0.0,0.0
744,185.75,82.2036,91.5154,144.522,115.956,109.274,-0.00937827,0.109109,20.7823,865.607,0.531684,0.0,0.0
746,186.25,81.9511,90.7721,146.898,115.945,108.785,-0.00936226,0.10905,20.7825,865.607,0.570966,0.0,0.0
748,186.75,81.5004,90.4321,145.552,115.992,108.251,-0.00934576,0.108989,20.7826,865.597,0.618725,0.0,0.0
750,187.25,82.2124,90.0497,146.015,115.991,109.106,-0.0093324,0.10894,20.7828,865.597,0.54807,0.0,0.0
752,187.75,81.3512,89.8485,144.053,115.986,108.306,-0.00933333,0.10887,20.7829,865.577,0.613626,0.0,0.0
754,188.25,81.0295,89.482,147.476,115.991,109.434,-0.00934468,0.108786,20.7817,865.587,0.521268,0.0,0.0
756,188.75,80.715,89.3402,142.008,116.01,107.924,-0.00935387,0.108703,20.7808,865.587,0.647199,0.0,0.0
758,189.25,80.8961,88.5365,147.048,116.007,110.011,-0.00937125,0.108623,20.78,865.577,0.475355,0.0,0.0
760,189.75,80.3388,88.5338,143.055,116.042,109.766,-0.00938532,0.108558,20.7794,865.577,0.498057,0.0,0.0
762,190.25,80.4755,87.8784,146.268,116.039,109.858,-0.00939672,0.108505,20.7789,865.567,0.490297,0.0,0.0
764,190.75,80.1623,87.9351,141.88,116.041,109.507,-0.00940596,0.108406,20.7785,865.577,0.51914,0.0,0.0
766,191.25,79.4997,87.0185,140.988,116.04,109.98,-0.00941148,0.108325,20.7784,865.597,0.480457,0.0,0.0
768,191.75,79.6224,87.1237,147.104,116.061,109.156,-0.00941418,0.108203,20.7785,865.607,0.549421,0.0,0.0
770,192.25,79.1242,86.9715,146.287,116.052,108.648,-0.00941638,0.108104,20.7786,865.597,0.590495,0.0,0.0
772,192.75,79.0982,86.3621,148.472,116.085,110.522,-0.00940449,0.108016,20.7787,865.607,0.439838,0.0,0.0
774,193.25,78.6029,86.0688,143.12,116.072,110.102,-0.00939487,0.107938,20.7788,865.607,0.472989,0.0,0.0
776,193.75,78.2996,85.6548,142.563,116.09,110.377,-0.0093759,0.107875,20.7788,865.607,0.452014,0.0,0.0
778,194.25,78.6045,85.5943,146.873,116.099,108.734,-0.00936053,0.107824,20.7789,865.587,0.587075,0.0,0.0
780,194.75,78.0172,84.7272,148.728,116.11,108.753,-0.00934351,0.107761,20.7789,865.597,0.586311,0.0,0.0
782,195.25,77.9487,84.9259,143.984,116.096,110.244,-0.00932561,0.107689,20.779,865.597,0.4633,0.0,0.0
784,195.75,77.6961,84.3733,148.012,116.116,110.934,-0.00930653,0.107631,20.779,865.607,0.408905,0.0,0.0
786,196.25,76.8667,84.4079,143.602,116.112,109.448,-0.00928697,0.107583,20.7794,865.587,0.52943,0.0,0.0
788,196.75,77.5551,83.8371,141.248,116.122,109.269,-0.00926393,0.107545,20.7798,865.577,0.544849,0.0,0.0
790,197.25,76.8933,83.6548,145.1,116.121,109.067,-0.0092388,0.107529,20.7801,865.567,0.561359,0.0,0.0
792,197.75,76.8274,83.1469,145.142,116.144,109.385,-0.00920994,0.10753,20.7804,865.567,0.537011,0.0,0.0
794,198.25,76.8055,83.2071,147.87,116.137,108.709,-0.00917893,0.107523,20.7806,865.557,0.591998,0.0,0.0
796,198.75,76.6009,82.9598,149.533,116.154,108.905,-0.00915381,0.10751,20.7807,865.557,0.577277,0.0,0.0
798,199.25,76.1096,82.33,144.624,116.14,109.744,-0.00912366,0.107515,20.7808,865.567,0.507421,0.0,0.0
800,199.75,75.75,81.9437,142.533,116.159,110.005,-0.00909041,0.107533,20.781,865.577,0.487646,0.0,0.0
802,200.25,75.4735,81.4879,146.91,116.159,109.912,-0.00906349,0.107547,20.781,865.587,0.495146,0.0,0.0
804,200.75,75.4643,81.4391,142.724,116.178,110.142,-0.00903795,0.107587,20.7809,865.577,0.47796,0.0,0.0
806,201.25,75.2218,81.2052,144.793,116.172,109.344,-0.00901727,0.107619,20.7805,865.567,0.54256,0.0,0.0
808,201.75,74.7316,80.9699,145.763,116.172,108.712,-0.00900051,0.107652,20.7803,865.557,0.594493,0.0,0.0
810,202.25,74.9427,80.9875,143.587,116.183,108.75,-0.00898694,0.107686,20.78,865.557,0.59224,0.0,0.0
812,202.75,74.5695,80.4556,145.602,116.195,108.64,-0.00897843,0.107729,20.7796,865.567,0.602178,0.0,0.0
814,203.25,74.7543,80.3324,144.246,116.199,109.519,-0.00897154,0.107777,20.7791,865.577,0.530357,0.0,0.0
816,203.75,74.4067,79.744,144.037,116.205,109.613,-0.00897217,0.107816,20.7786,865.567,0.52308,0.0,0.0
818,204.25,74.5498,79.4367,145.447,116.202,110.796,-0.00897267,0.10789,20.7783,865.567,0.426754,0.0,0.0
820,204.75,74.4455,79.4117,145.403,116.213,108.732,-0.00898301,0.10795,20.778,865.597,0.595936,0.0,0.0
822,205.25,73.8927,79.2796,143.324,116.206,110.281,-0.00899139,0.108041,20.7778,865.577,0.468752,0.0,0.0
824,205.75,73.7153,79.752,141.923,116.211,110.039,-0.00899818,0.108115,20.7776,865.577,0.488852,0.0,0.0
826,206.25,72.9831,78.0984,144.182,116.214,109.117,-0.00903223,0.10826,20.7774,865.577,0.564408,0.0,0.0
828,206.75,72.5064,77.8079,144.171,116.229,109.353,-0.00905981,0.108377,20.7773,865.577,0.546192,0.0,0.0
830,207.25,73.1787,78.291,144.861,116.232,109.406,-0.00910575,0.108459,20.7772,865.567,0.542165,0.0,0.0
832,207.75,73.1266,78.164,148.224,116.233,110.263,-0.00914295,0.108524,20.7771,865.587,0.472283,0.0,0.0
834,208.25,72.9237,78.2017,148.193,116.233,109.821,-0.00919916,0.108577,20.777,865.597,0.508342,0.0,0.0
836,208.75,73.0701,77.4006,145.197,116.226,110.818,-0.00924469,0.10862,20.777,865.577,0.42681,0.0,0.0
838,209.25,72.645,77.697,147.144,116.24,109.007,-0.00930143,0.108655,20.7769,865.577,0.57544,0.0,0.0
840,209.75,72.3473,77.3082,144.637,116.247,108.451,-0.0093474,0.108683,20.7769,865.567,0.621849,0.0,0.0
842,210.25,71.8598,76.985,148.45,116.25,109.481,-0.00938463,0.108706,20.7769,865.577,0.537412,0.0,0.0
844,210.75,72.1999,76.4203,145.178,116.251,109.406,-0.00942067,0.10871,20.7769,865.587,0.543577,0.0,0.0
846,211.25,72.2303,76.4902,149.181,116.259,110.467,-0.00945515,0.108699,20.7769,865.577,0.457763,0.0,0.0
848,211.75,71.8914,76.1997,144.758,116.249,109.225,-0.00947655,0.108691,20.777,865.577,0.558286,0.0,0.0
850,212.25,71.6577,76.1918,144.585,116.26,110.223,-0.009488,0.108684,20.777,865.567,0.477619,0.0,0.0
852,212.75,71.4957,76.068,144.665,116.26,110.628,-0.00949727,0.108678,20.777,865.577,0.444758,0.0,0.0
854,213.25,71.469,75.6555,144.379,116.256,110.756,-0.00948257,0.108674,20.777,865.567,0.434141,0.0,0.0
856,213.75,71.284,75.4237,143.827,116.252,110.078,-0.00945066,0.10867,20.7771,865.567,0.488809,0.0,0.0
858,214.25,70.9054,75.4571,142.894,116.262,109.559,-0.00941305,0.108667,20.7771,865.557,0.531889,0.0,0.0
860,214.75,70.9224,74.7394,144.634,116.257,109.258,-0.009372,0.108665,20.7771,865.577,0.556137,0.0,0.0
862,215.25,70.8736,75.4018,146.197,116.255,109.65,-0.00933875,0.108663,20.7771,865.577,0.523938,0.0,0.0
864,215.75,70.3441,74.4324,145.766,116.251,111.107,-0.00931117,0.108661,20.7771,865.567,0.405402,0.0,0.0
866,216.25,70.3439,74.7856,149.524,116.264,110.499,-0.00928824,0.10866,20.7771,865.557,0.455537,0.0,0.0
868,216.75,69.8601,74.3107,144.269,116.263,109.598,-0.00927946,0.108659,20.7771,865.547,0.528824,0.0,0.0
870,217.25,70.3598,74.1504,149.359,116.266,110.491,-0.00928118,0.108658,20.7767,865.567,0.456394,0.0,0.0
872,217.75,69.994,74.0252,147.726,116.246,110.283,-0.00929041,0.108657,20.7763,865.547,0.471683,0.0,0.0
874,218.25,70.0697,73.8032,144.755,116.259,109.532,-0.00930495,0.108671,20.776,865.577,0.533865,0.0,0.0
876,218.75,69.767,73.571,145.115,116.252,110.102,-0.00931672,0.108682,20.7758,865.567,0.486852,0.0,0.0
878,219.25,69.4736,73.2057,144.951,116.257,110.123,-0.00933122,0.108698,20.7756,865.557,0.485595,0.0,0.0
880,219.75,69.2881,73.1904,144.807,116.237,110.371,,0.108718,,865.547,0.463861,0.0,0.0
882,220.25,69.1121,73.0877,144.854,116.244,110.713,,0.108735,,865.547,0.436714,0.0,0.0
884,220.75,69.685,73.2236,146.955,116.239,109.823,,0.108762,,865.557,0.508552,0.0,0.0
886,221.25,69.2187,72.5608,143.504,116.248,111.119,,0.108784,,865.557,0.404179,0.0,0.0
888,221.75,69.3744,72.2502,143.303,116.227,109.649,,0.108816,,865.577,0.521837,0.0,0.0
890,222.25,69.0119,72.401,146.76,116.236,109.941,,0.108842,,865.557,0.498759,0.0,0.0
892,222.75,68.3465,71.8985,144.931,116.22,109.645,,,,865.557,0.52167,0.0,0.0
894,223.25,68.7356,71.9033,148.57,116.227,110.025,,,,865.557,0.491141,0.0,0.0
896,223.75,68.7061,71.4677,151.344,116.217,109.776,,,,865.537,0.510732,0.0,0.0
898,224.25,68.4341,71.1429,145.804,116.222,110.477,,,,865.567,0.454036,0.0,0.0
900,224.75,68.0857,71.2726,145.884,116.21,110.308,,,,865.557,0.466862,0.0,0.0
902,225.25,68.2082,71.2162,146.548,116.214,110.93,,,,865.577,0.416752,0.0,0.0
904,225.75,68.0048,71.139,146.513,116.19,110.629,,,,865.577,0.43928,0.0,0.0
906,226.25,68.2312,70.8007,147.282,116.206,110.069,,,,865.587,0.48597,0.0,0.0
908,226.75,67.7311,70.0852,148.365,116.187,109.773,,,,865.587,0.508635,0.0,0.0
910,227.25,67.8089,70.7159,146.232,116.183,110.019,,,,865.567,0.488294,0.0,0.0
912,227.75,67.3769,70.0669,147.94,116.18,110.642,,,,865.577,0.43747,0.0,0.0
914,228.25,67.4012,69.9768,145.914,116.181,109.626,,,,865.577,0.520171,0.0,0.0
916,228.75,67.0139,69.4518,145.789,116.163,110.646,,,,865.567,0.435863,0.0,0.0
918,229.25,67.4297,69.9598,142.46,116.17,109.348,,,,865.577,0.54211,0.0,0.0
920,229.75,66.7542,69.619,143.906,116.145,110.039,,,,865.597,0.483772,0.0,0.0
922,230.25,66.5795,69.5544,145.563,116.156,109.838,,,,865.607,0.500922,0.0,0.0
923,230.5,67.0565,69.6953,142.424,116.142,110.067,,,,865.587,0.481186,0.0,0.0