File: 01_Data/PMMA/Cone/PMMA_Cone_HF75Scan_220225_R3.csv
Names,Time,Stack TC,Smoke TC,Exh Press,Smoke Comp,Smoke Meas,CO Meter,CO2 Meter,O2 Meter,Sample Mass,Ext Coeff,Start Test,Flame Verif
Chan Gain,,500,500,1,1,1,1,1,1,1,1,1.0,1.0
Offset,,0,0,0.136092,0,0,0,0,0,0,0,0.0,0.0
Gain,,1,1,25.011,15.4219,15.1528,1,1,1,1.00089,1.02113,1.0,1.0
Units,sec,C,C,Pa,%,%,%,%,%,g,/m,,
Baseline,,46.1187,47.0268,150.616,115.968,111.438,-0.00907406,0.114241,20.7598,-0.218485,0.357036,,
2,0.25,42.1601,42.7178,150.717,115.509,111.242,-0.00922147,0.112787,20.7657,510.482,0.337153,0.0,0.0
4,0.75,40.9942,42.0133,149.465,115.499,110.746,-0.00921849,0.112734,20.7655,510.472,0.376428,0.0,0.0
6,1.25,42.1623,42.5742,149.814,115.516,110.746,-0.00921199,0.112685,20.7653,510.462,0.377705,0.0,0.0
8,1.75,41.9866,42.1889,150.588,115.505,111.122,-0.00920215,0.112645,20.7652,510.472,0.34651,0.0,0.0
10,2.25,41.7912,42.5035,150.37,115.51,110.689,-0.00919006,0.11268,20.7651,510.452,0.381869,0.0,0.0
12,2.75,41.615,42.366,148.642,115.502,111.751,-0.00917896,0.112689,20.7651,510.482,0.295777,0.0,0.0
14,3.25,41.7709,42.0371,149.205,115.525,112.133,-0.0091688,0.112791,20.7652,510.492,0.266927,0.0,0.0
16,3.75,41.9581,42.5989,152.205,115.505,111.217,-0.00915991,0.112873,20.7653,510.482,0.338908,0.0,0.0
18,4.25,41.5849,42.272,149.253,115.525,111.581,-0.00915212,0.112933,20.7653,510.482,0.311141,0.0,0.0
20,4.75,41.3425,41.9286,149.54,115.512,110.852,-0.00914581,0.112975,20.7649,510.482,0.368815,0.0,0.0
22,5.25,41.4223,42.0156,150.817,115.519,111.958,-0.00914443,0.113047,20.7646,510.482,0.280427,0.0,0.0
24,5.75,41.7786,41.9124,148.173,115.505,110.118,-0.00914331,0.113139,20.7643,510.472,0.427801,0.0,0.0
26,6.25,41.7922,42.4836,152.485,115.536,110.665,-0.00914855,0.113228,20.7641,510.472,0.385858,0.0,0.0
28,6.75,41.6015,42.6008,150.138,115.521,111.424,-0.00915408,0.113314,20.7639,510.462,0.32348,0.0,0.0
30,7.25,41.8816,41.8146,149.099,115.534,110.896,-0.00916354,0.113376,20.7638,510.462,0.366945,0.0,0.0
32,7.75,42.0853,42.2117,154.519,115.529,110.473,-0.00917317,0.113419,20.7636,510.462,0.400859,0.0,0.0
34,8.25,41.9719,42.4938,150.797,115.53,111.567,-0.00918273,0.113455,20.7635,510.452,0.312657,0.0,0.0
36,8.75,42.1149,42.7318,150.505,115.528,111.149,-0.0091855,0.113426,20.7635,510.452,0.346136,0.0,0.0
38,9.25,41.6941,42.1744,154.954,115.54,111.334,-0.00918775,0.113403,20.7638,510.462,0.332191,0.0,0.0
40,9.75,41.8667,42.2755,150.366,115.54,111.573,-0.0091784,0.113384,20.7642,510.472,0.312941,0.0,0.0
42,10.25,41.8771,43.1585,147.682,115.543,111.055,-0.00917082,0.113362,20.7644,510.482,0.354835,0.0,0.0
44,10.75,41.9989,42.7883,150.931,115.532,111.183,-0.00915227,0.113337,20.7646,510.452,0.343671,0.0,0.0
46,11.25,42.5758,42.6056,152.484,115.542,111.275,-0.00913725,0.113301,20.7648,510.442,0.337063,0.0,0.0
48,11.75,41.7637,43.02,151.037,115.547,111.027,-0.00910678,0.113259,20.7649,510.432,0.357475,0.0,0.0
50,12.25,42.1811,42.9005,150.792,115.546,110.949,-0.00906563,0.11321,20.7646,510.442,0.363599,0.0,0.0
52,12.75,42.162,42.7998,148.421,115.538,111.538,-0.0090323,0.113157,20.7643,510.422,0.315579,0.0,0.0
54,13.25,42.3832,42.9703,153.924,115.554,111.885,-0.00896413,0.113534,20.7641,510.392,0.289048,0.0,0.0
56,13.75,42.0561,42.8084,153.018,115.547,111.807,-0.00887186,0.114218,20.7626,510.372,0.294686,0.0,0.0
58,14.25,42.6082,42.8133,152.391,115.554,112.01,-0.00875531,0.117298,20.7614,510.392,0.278984,0.0,0.0
60,14.75,42.2673,43.168,152.309,115.56,110.814,-0.00862325,0.122066,20.7548,510.402,0.375602,0.0,0.0
62,15.25,42.2592,42.9474,146.286,115.559,109.902,-0.00851629,0.125928,20.7445,510.352,0.44958,0.0,0.0
64,15.75,42.3678,43.1347,147.08,115.557,110.108,-0.00833529,0.136171,20.7264,510.332,0.432642,0.0,1.0
66,16.25,42.4242,43.2549,142.839,115.562,109.205,-0.00818867,0.150869,20.703,510.312,0.506853,0.0,1.0
68,16.75,42.1024,43.2246,144.576,115.557,108.166,-0.00794327,0.162776,20.684,510.272,0.592012,0.0,1.0
70,17.25,42.7968,43.3199,140.229,115.559,105.949,-0.0077445,0.194335,20.6501,510.362,0.777757,0.0,1.0
72,17.75,43.1627,43.5222,133.73,115.558,105.134,-0.00758349,0.219899,20.6059,510.162,0.8468,0.0,1.0
74,18.25,43.1639,43.7135,133.052,115.572,103.476,-0.00724945,0.261742,20.5556,510.192,0.990261,0.0,1.0
76,18.75,43.4766,44.3393,131.121,115.559,102.652,-0.00710705,0.295636,20.5274,510.052,1.06094,0.0,1.0
78,19.25,43.7208,44.9054,132.452,115.569,102.856,-0.0067825,0.341006,20.479,509.982,1.04381,0.0,1.0
80,19.75,44.5058,45.2565,127.752,115.561,100.9,-0.00630353,0.377756,20.3873,509.952,1.21521,0.0,1.0
82,20.25,44.8448,45.7318,129.413,115.574,101.609,-0.00617468,0.407523,20.3626,509.822,1.15352,0.0,1.0
84,20.75,44.7321,45.9924,127.929,115.575,100.324,-0.00586418,0.446521,20.3204,509.792,1.26756,0.0,1.0
86,21.25,45.5883,46.8611,123.329,115.572,100.353,-0.0055315,0.491508,20.2558,509.721,1.26478,0.0,0.0
88,21.75,46.0443,47.5477,121.363,115.573,99.7753,-0.00526204,0.510686,20.2035,509.631,1.31652,0.0,0.0
90,22.25,47.0114,48.2931,127.9,115.582,100.664,-0.00490596,0.559814,20.1456,509.601,1.23778,0.0,0.0
92,22.75,46.889,48.7906,117.747,115.584,100.991,-0.00461753,0.616571,20.0846,509.481,1.20895,0.0,0.0
94,23.25,48.2496,49.9203,120.409,115.574,99.1265,-0.00427091,0.642065,20.0237,509.451,1.37507,0.0,0.0
96,23.75,48.7667,50.7412,116.001,115.58,99.3813,-0.00399016,0.685659,19.9639,509.341,1.35255,0.0,0.0
98,24.25,49.2925,51.9956,120.986,115.584,98.7172,-0.00365224,0.720971,19.9012,509.231,1.41293,0.0,0.0
100,24.75,50.209,52.5358,121.518,115.592,98.5091,-0.00337853,0.767778,19.8378,509.171,1.43241,0.0,0.0
102,25.25,51.0182,53.4294,112.677,115.593,98.5193,-0.00304011,0.805691,19.7755,509.091,1.43156,0.0,0.0
104,25.75,51.8122,54.5141,119.28,115.589,99.5704,-0.00276599,0.844087,19.7152,508.981,1.33621,0.0,0.0
106,26.25,52.1033,56.0599,113.196,115.595,97.8844,-0.00240986,0.882105,19.6573,508.881,1.48962,0.0,0.0
108,26.75,54.0148,56.5148,113.507,115.599,96.7838,-0.00212139,0.925156,19.6023,508.791,1.59126,0.0,0.0
110,27.25,54.2174,57.8813,114.426,115.616,96.5961,-0.00188773,0.960027,19.5577,508.681,1.60997,0.0,0.0
112,27.75,55.5623,58.4416,113.306,115.599,96.3232,-0.00158933,1.00077,19.5216,508.57,1.63399,0.0,0.0
114,28.25,56.2891,59.9731,108.599,115.601,95.9288,-0.0012494,1.03378,19.476,508.48,1.67089,0.0,0.0
116,28.75,57.1549,61.5371,115.971,115.605,94.8842,-0.000909179,1.07572,19.4391,508.36,1.76922,0.0,0.0
118,29.25,58.1542,62.4818,109.665,115.604,94.7177,-0.000575221,1.10968,19.3894,508.26,1.78492,0.0,0.0
120,29.75,59.1514,63.8754,111.147,115.607,95.4312,-0.000249505,1.14584,19.3491,508.15,1.71791,0.0,0.0
122,30.25,59.7342,64.7509,111.078,115.611,95.1935,6.40136e-05,1.1829,19.2979,508.04,1.74054,0.0,0.0
124,30.75,60.953,65.8314,112.766,115.61,94.8629,0.000363432,1.21292,19.2565,507.94,1.77163,0.0,0.0
126,31.25,62.0863,67.2831,107.617,115.614,94.7981,0.000646882,1.24567,19.2,507.85,1.77804,0.0,0.0
128,31.75,63.5218,68.2945,107.341,115.619,93.656,0.000920727,1.27978,19.1542,507.7,1.88706,0.0,0.0
130,32.25,64.4753,69.7707,105.3,115.622,93.4927,0.00118237,1.3074,19.1104,507.62,1.90286,0.0,0.0
132,32.75,64.8604,71.2583,101.238,115.629,95.8127,0.0013943,1.33959,19.0689,507.489,1.68385,0.0,0.0
134,33.25,66.4732,72.4547,95.8334,115.622,93.5602,0.00168173,1.36566,19.0294,507.359,1.8964,0.0,0.0
136,33.75,67.2132,73.7398,106.101,115.631,93.7387,0.00191455,1.39562,18.9923,507.229,1.88005,0.0,0.0
138,34.25,68.515,75.0849,107.032,115.624,94.8194,0.00218821,1.41989,18.9621,507.099,1.77687,0.0,0.0
140,34.75,69.7129,76.5993,98.8835,115.643,94.9845,0.00248644,1.44973,18.9226,506.959,1.76275,0.0,0.0
142,35.25,70.5295,77.8573,105.963,115.626,95.4516,0.00280475,1.47389,18.8906,506.869,1.7175,0.0,0.0
144,35.75,71.4476,79.4738,112,115.637,94.7191,0.00313164,1.50866,18.8535,506.709,1.78734,0.0,0.0
146,36.25,72.4442,79.7316,105.115,115.631,94.2418,0.00339643,1.53683,18.8134,506.599,1.83211,0.0,0.0
148,36.75,73.1654,81.1516,105.382,115.641,94.1438,0.00379044,1.56813,18.7719,506.459,1.8422,0.0,0.0
150,37.25,74.7492,83.3426,101.943,115.636,94.0962,0.00410958,1.60113,18.7302,506.338,1.84636,0.0,0.0
152,37.75,75.982,84.5152,95.0129,115.647,93.8335,0.00451898,1.62785,18.6868,506.158,1.87228,0.0,0.0
154,38.25,77.101,86.0294,96.1181,115.626,93.027,0.00485059,1.66337,18.6431,506.078,1.94792,0.0,0.0
156,38.75,78.3699,87.7048,94.9595,115.652,93.9302,0.00525781,1.69213,18.5985,505.968,1.86342,0.0,0.0
158,39.25,79.4542,89.3206,87.974,115.636,93.0932,0.00558766,1.72733,18.5539,505.808,1.94232,0.0,0.0
160,39.75,80.6568,90.326,101.921,115.665,93.4247,0.00594881,1.75583,18.5179,505.638,1.91277,0.0,0.0
162,40.25,81.1618,90.9999,93.8489,115.649,92.8749,0.00624134,1.792,18.4794,505.528,1.96437,0.0,0.0
164,40.75,82.1264,93.0052,98.3553,115.653,91.6296,0.00647829,1.82129,18.4398,505.428,2.08557,0.0,0.0
166,41.25,83.9428,94.9708,99.6193,115.65,91.9894,0.00667022,1.8539,18.4078,505.217,2.05029,0.0,0.0
168,41.75,85.1862,96.2204,96.3303,115.667,93.0377,0.00698323,1.88831,18.371,505.047,1.95007,0.0,0.0
170,42.25,86.917,98.1769,88.4777,115.647,91.403,0.00723678,1.93313,18.3315,504.927,2.10731,0.0,0.0
172,42.75,87.4248,99.1094,93.1269,115.65,91.7202,0.00751856,1.96944,18.2996,504.787,2.0765,0.0,0.0
174,43.25,88.6562,101.025,91.8064,115.646,93.2518,0.00781558,1.99884,18.2525,504.707,1.92784,0.0,0.0
176,43.75,90.1775,102.635,91.3522,115.663,92.0407,0.00813492,2.03888,18.2143,504.507,2.04628,0.0,0.0
178,44.25,90.7407,103.732,88.1892,115.65,92.3459,0.00846446,2.08591,18.1556,504.367,2.01564,0.0,0.0
180,44.75,91.9821,105.688,84.092,115.668,91.5861,0.0088132,2.124,18.108,504.177,2.09103,0.0,0.0
182,45.25,94.1646,107.584,89.7662,115.654,91.7831,0.0091693,2.17418,18.036,504.036,2.07065,0.0,0.0
184,45.75,94.7304,109.783,96.5417,115.664,91.0932,0.00952327,2.21483,17.9776,503.846,2.13904,0.0,0.0
186,46.25,96.5145,111.032,83.3249,115.655,91.4585,0.00986896,2.25677,17.9074,503.666,2.10253,0.0,0.0
188,46.75,98.0208,112.965,92.4674,115.678,91.391,0.0102078,2.29885,17.8505,503.496,2.11093,0.0,0.0
190,47.25,99.1856,114.542,100.578,115.655,91.1783,0.0105352,2.34083,17.7854,503.326,2.13002,0.0,0.0
192,47.75,100.045,116.704,87.2512,115.67,90.9045,0.0108003,2.38194,17.7327,503.166,2.15808,0.0,0.0
194,48.25,101.082,117.213,90.247,115.658,91.932,0.0111311,2.42264,17.6812,502.995,2.0565,0.0,0.0
196,48.75,102.899,119.056,94.3573,115.675,92.1017,0.011399,2.46227,17.6315,502.785,2.04129,0.0,0.0
198,49.25,104.277,121.507,81.8762,115.67,91.8904,0.0116564,2.5026,17.5913,502.635,2.06146,0.0,0.0
200,49.75,105.598,123.384,83.6859,115.676,90.2368,0.0119012,2.54269,17.5366,502.465,2.22456,0.0,0.0
202,50.25,107.176,125.183,91.0095,115.66,91.7202,0.0121363,2.57516,17.4923,502.335,2.0773,0.0,0.0
204,50.75,108.337,126.932,80.2466,115.675,92.3205,0.0123601,2.62392,17.4335,502.065,2.02,0.0,0.0
206,51.25,109.812,128.17,91.6995,115.653,91.3161,0.0125846,2.66342,17.3859,501.995,2.11627,0.0,0.0
208,51.75,111.265,130.149,88.1938,115.686,91.4164,0.0128053,2.70428,17.327,501.764,2.10899,0.0,0.0
210,52.25,112.237,132.313,80.2733,115.678,91.1736,0.0130422,2.74536,17.2793,501.544,2.13226,0.0,0.0
212,52.75,114.125,133.827,82.7501,115.684,92.0005,0.0132864,2.78481,17.2208,501.394,2.0518,0.0,0.0
214,53.25,115.632,135.4,82.2639,115.667,91.4918,0.0134842,2.82232,17.1734,501.184,2.10015,0.0,0.0
216,53.75,116.773,138.087,92.7918,115.675,89.92,0.013807,2.86195,17.1215,501.024,2.25599,0.0,0.0
218,54.25,118.236,139.766,81.2572,115.679,90.8092,0.0140686,2.90236,17.0674,500.804,2.16817,0.0,0.0
220,54.75,119.185,141.625,83.073,115.696,89.329,0.0142804,2.93509,17.0235,500.613,2.31669,0.0,0.0
222,55.25,120.621,142.893,81.6373,115.684,89.4617,0.0146932,2.98485,16.9734,500.433,2.30244,0.0,0.0
224,55.75,122.196,145.122,80.2046,115.683,89.9329,0.0150276,3.02515,16.9196,500.263,2.25535,0.0,0.0
226,56.25,123.786,146.264,84.7247,115.678,90.8111,0.0155248,3.07978,16.8632,500.033,2.16795,0.0,0.0
228,56.75,125.044,148.29,87.9007,115.688,91.0705,0.0159276,3.12403,16.8061,499.823,2.14316,0.0,0.0
230,57.25,126.787,150.008,85.3834,115.692,90.6798,0.0164937,3.1692,16.7505,499.492,2.18197,0.0,0.0
232,57.75,127.714,152.585,76.2943,115.688,89.8696,0.0169522,3.21418,16.6971,499.392,2.26207,0.0,0.0
234,58.25,129.318,154.295,74.0518,115.696,88.5817,0.017543,3.25061,16.6365,499.162,2.39197,0.0,0.0
236,58.75,130.561,156.425,76.347,115.698,90.0744,0.0180215,3.2916,16.5716,499.012,2.24244,0.0,0.0
238,59.25,131.767,158.372,77.5316,115.702,88.8398,0.0185136,3.33513,16.5191,498.862,2.36639,0.0,0.0
240,59.75,133.536,159.989,76.5088,115.692,88.2053,0.0190062,3.39119,16.4506,498.552,2.42979,0.0,0.0
242,60.25,135.085,161.929,75.0365,115.702,89.4067,0.0194566,3.43659,16.395,498.331,2.30934,0.0,0.0
244,60.75,136.177,163.951,75.8707,115.71,88.2687,0.0198676,3.49334,16.3244,498.031,2.42471,0.0,0.0
246,61.25,137.775,165.694,84.108,115.706,89.8918,0.0202005,3.5393,16.2672,497.921,2.26124,0.0,0.0
248,61.75,138.872,167.777,70.3377,115.706,89.465,0.0205042,3.58642,16.2209,497.681,2.30387,0.0,0.0
250,62.25,140.397,169.594,76.5134,115.716,88.3149,0.0207809,3.63348,16.1631,497.471,2.42049,0.0,0.0
252,62.75,141.838,171.779,84.8072,115.697,87.6985,0.0210499,3.67161,16.1163,497.28,2.48181,0.0,0.0
254,63.25,143.483,173.427,81.8212,115.714,89.8354,0.0213084,3.72086,16.0783,497,2.26748,0.0,0.0
256,63.75,144.95,175.557,78.7704,115.715,88.6973,0.0215177,3.76075,16.0251,496.8,2.38171,0.0,0.0
258,64.25,146.256,177.83,78.5391,115.721,89.7535,0.0216873,3.81691,15.982,496.62,2.27616,0.0,0.0
260,64.75,147.679,179.543,73.2214,115.721,89.661,0.0220475,3.8624,15.9345,496.37,2.28543,0.0,0.0
262,65.25,148.861,181.701,82.3479,115.729,88.8745,0.0223392,3.89925,15.8848,496.069,2.36494,0.0,0.0
264,65.75,150.438,183.375,83.1043,115.72,88.24,0.0226936,3.96272,15.8214,495.909,2.42845,0.0,0.0
266,66.25,152.071,185.53,70.4103,115.717,87.8104,0.0229807,4.01413,15.7491,495.719,2.47188,0.0,0.0
268,66.75,153.466,187.73,87.1718,115.73,87.5098,0.0233107,4.05577,15.6762,495.439,2.50361,0.0,0.0
270,67.25,155.064,189.555,77.8232,115.734,86.2044,0.0235781,4.11994,15.6042,495.199,2.63857,0.0,0.0
272,67.75,156.436,191.605,76.8531,115.734,89.7378,0.0238671,4.17192,15.5295,494.978,2.27874,0.0,0.0
274,68.25,157.938,193.949,83.8492,115.742,87.5066,0.0241013,4.23067,15.4544,494.758,2.50493,0.0,0.0
276,68.75,159.046,196.439,72.9749,115.726,85.9251,0.024291,4.27825,15.3936,494.478,2.66705,0.0,0.0
278,69.25,160.624,198.275,73.5626,115.748,88.3015,0.0245159,4.32635,15.3324,494.298,2.42436,0.0,0.0
280,69.75,162.117,200.358,68.5975,115.739,88.0208,0.0246981,4.37391,15.2722,493.917,2.45219,0.0,0.0
282,70.25,164.146,201.863,70.495,115.749,87.3003,0.0248744,4.41938,15.2235,493.757,2.52657,0.0,0.0
284,70.75,164.887,204.141,73.8717,115.75,88.3588,0.025043,4.46247,15.1703,493.497,2.41866,0.0,0.0
286,71.25,166.893,205.888,80.2191,115.761,86.215,0.0252158,4.50062,15.1272,493.277,2.63954,0.0,0.0
288,71.75,168.159,207.909,65.652,115.761,88.5471,0.0253883,4.53443,15.0888,493.017,2.40051,0.0,0.0
290,72.25,169.161,210.151,70.2591,115.747,85.9635,0.025573,4.56182,15.0576,492.786,2.66462,0.0,0.0
292,72.75,170.829,212.059,65.9863,115.756,87.0053,0.0257633,4.58654,15.0324,492.616,2.55744,0.0,0.0
294,73.25,172.028,213.856,76.2982,115.763,86.9882,0.025964,4.60885,15.012,492.336,2.55975,0.0,0.0
296,73.75,173.348,215.654,76.086,115.756,87.84,0.0261686,4.62639,14.9955,492.056,2.47192,0.0,0.0
298,74.25,173.811,217.506,79.5398,115.765,87.6273,0.0263344,4.64012,14.9821,491.846,2.49429,0.0,0.0
300,74.75,175.577,219.011,82.0548,115.758,87.114,0.0265631,4.64776,14.9682,491.655,2.54641,0.0,0.0
302,75.25,177.228,221.184,79.2955,115.765,86.7699,0.0267483,4.65081,14.9542,491.355,2.58236,0.0,0.0
304,75.75,178.561,222.719,76.1715,115.748,88.0319,0.0269586,4.65224,14.9429,491.115,2.45172,0.0,0.0
306,76.25,179.122,225.069,70.4072,115.771,86.4532,0.0271832,4.65245,14.9337,490.875,2.61559,0.0,0.0
308,76.75,180.521,226.573,73.3657,115.771,87.8284,0.0274038,4.65739,14.9263,490.615,2.47423,0.0,0.0
310,77.25,181.691,227.929,79.739,115.777,86.0749,0.0276174,4.66567,14.9159,490.504,2.65534,0.0,0.0
312,77.75,183.06,229.625,82.5418,115.763,85.754,0.0278091,4.67237,14.9035,490.114,2.68771,0.0,0.0
314,78.25,184.44,230.545,71.4216,115.774,86.843,0.0279812,4.68393,14.8846,490.004,2.57559,0.0,0.0
316,78.75,185.489,232.363,69.2768,115.758,86.1202,0.0281183,4.69881,14.8693,489.704,2.64921,0.0,0.0
318,79.25,186.277,234.205,84.1591,115.772,87.6966,0.0282274,4.71086,14.848,489.464,2.48779,0.0,0.0
320,79.75,187.97,235.819,77.6515,115.768,86.2409,0.0283157,4.72607,14.8308,489.153,2.63743,0.0,0.0
322,80.25,188.816,237.416,79.1261,115.776,86.7343,0.0283461,4.73839,14.8167,488.973,2.58691,0.0,0.0
324,80.75,189.851,238.577,77.3851,115.758,87.1501,0.0283708,4.75474,14.805,488.743,2.5427,0.0,0.0
326,81.25,190.963,240.686,83.1608,115.777,86.9096,0.0283709,4.76799,14.793,488.453,2.56894,0.0,0.0
328,81.75,191.801,241.595,75.7043,115.774,87.8127,0.028371,4.77712,14.7809,488.242,2.47609,0.0,0.0
330,82.25,193.331,242.879,83.0478,115.785,85.7433,0.0283711,4.78451,14.7712,487.982,2.69053,0.0,0.0
332,82.75,193.904,245.013,70.5385,115.763,85.2472,0.0284095,4.79114,14.7621,487.752,2.74084,0.0,0.0
334,83.25,195.077,246.191,69.4233,115.786,85.7295,0.0284405,4.79651,14.7537,487.532,2.69206,0.0,0.0
336,83.75,196.11,247.877,68.8684,115.768,88.3057,0.0285755,4.80727,14.7383,487.252,2.42547,0.0,0.0
338,84.25,197.186,248.923,69.0577,115.782,85.3762,0.0286119,4.82176,14.7181,487.011,2.72879,0.0,0.0
340,84.75,197.606,250.577,66.1428,115.782,86.3926,0.0287398,4.84114,14.7017,486.751,2.62275,0.0,0.0
342,85.25,199.359,251.424,69.8096,115.788,87.5551,0.0289026,4.86372,14.6734,486.501,2.50349,0.0,0.0
344,85.75,199.978,253.088,74.8205,115.765,85.6023,0.0290346,4.88201,14.6505,486.241,2.70371,0.0,0.0
346,86.25,200.885,254.551,63.6507,115.784,88.542,0.0292498,4.90251,14.632,486.03,2.40277,0.0,0.0
348,86.75,202.185,255.938,63.6805,115.769,87.7609,0.0294241,4.93349,14.6106,485.72,2.481,0.0,0.0
350,87.25,203.339,257.186,77.8011,115.781,87.0691,0.0295653,4.94743,14.5876,485.53,2.55277,0.0,0.0
352,87.75,204.025,258.773,62.2073,115.776,86.5979,0.0297396,4.97126,14.5609,485.26,2.60101,0.0,0.0
354,88.25,205.432,260.473,70.3072,115.783,87.8479,0.0298808,4.99056,14.5322,484.96,2.47323,0.0,0.0
356,88.75,205.868,261.439,69.8134,115.774,87.3716,0.0299552,5.01809,14.5033,484.789,2.52116,0.0,0.0
358,89.25,207.425,262.938,73.9656,115.805,88.9281,0.0300155,5.04038,14.4749,484.609,2.36543,0.0,0.0
360,89.75,208.221,263.902,68.1471,115.771,88.1433,0.0300643,5.05844,14.4519,484.279,2.4422,0.0,0.0
362,90.25,209.459,265.583,59.3145,115.787,88.954,0.0299897,5.08188,14.4332,484.089,2.36144,0.0,0.0
364,90.75,210.785,266.684,77.8789,115.766,87.852,0.0299293,5.10086,14.4181,483.819,2.47146,0.0,0.0
366,91.25,211.399,268.356,68.4715,115.771,89.7452,0.0298064,5.11079,14.4059,483.478,2.28085,0.0,0.0
368,91.75,212.589,269.715,66.7832,115.779,89.8446,0.0297069,5.11883,14.396,483.258,2.27158,0.0,0.0
370,92.25,213.007,271.405,75.5463,115.784,88.4083,0.0296049,5.11604,14.3985,483.068,2.41634,0.0,0.0
372,92.75,214.213,272.418,92.4872,115.786,86.3066,0.0295223,5.1054,14.4099,482.868,2.632,0.0,0.0
374,93.25,215.124,273.776,68.1868,115.773,86.5697,0.0294696,5.09679,14.4265,482.467,2.60367,0.0,0.0
376,93.75,215.816,274.851,75.6181,115.777,87.0136,0.0294269,5.07605,14.4468,482.357,2.55818,0.0,0.0
378,94.25,216.744,275.731,66.5214,115.789,86.7778,0.0293923,5.05925,14.4638,482.057,2.58341,0.0,0.0
380,94.75,217.38,276.965,82.2861,115.788,85.4765,0.0293643,5.04453,14.4783,481.867,2.7187,0.0,0.0
382,95.25,218.131,277.694,91.9049,115.79,85.6962,0.0293095,5.0326,14.49,481.577,2.69586,0.0,0.0
384,95.75,218.773,278.588,73.3061,115.775,88.2469,0.0292363,5.01837,14.5083,481.456,2.43201,0.0,0.0
386,96.25,219.358,279.952,64.5201,115.782,87.7646,0.0291769,5.00684,14.5231,481.146,2.48161,0.0,0.0
388,96.75,220.401,280.198,77.7957,115.782,87.717,0.02898,4.98909,14.5476,480.916,2.48647,0.0,0.0
390,97.25,221.108,281.362,70.8324,115.78,85.9108,0.0288205,4.96713,14.5785,480.716,2.67266,0.0,0.0
392,97.75,221.558,282.312,62.4753,115.78,87.6855,0.028614,4.93444,14.6036,480.466,2.4895,0.0,0.0
394,98.25,222.03,283.599,74.3388,115.776,88.0157,0.0283771,4.89456,14.6624,480.235,2.45555,0.0,0.0
396,98.75,223.138,283.567,80.4084,115.791,89.1935,0.0280786,4.86226,14.71,480.005,2.33764,0.0,0.0
398,99.25,222.917,284.296,83.7951,115.793,90.2918,0.0277408,4.78617,14.8055,479.905,2.22817,0.0,0.0
400,99.75,223.416,285.071,77.1027,115.8,89.6282,0.0273361,4.72453,14.8829,479.625,2.29479,0.0,0.0
402,100.25,224.366,286.372,82.6547,115.8,88.2761,0.0268902,4.64782,15.0173,479.485,2.43098,0.0,0.0
404,100.75,224.865,287.013,86.4284,115.79,87.1931,0.0262105,4.56158,15.126,479.244,2.54072,0.0,0.0
406,101.25,225.585,286.882,71.749,115.796,87.3101,0.02566,4.46712,15.2747,479.064,2.52922,0.0,0.0
408,101.75,225.661,287.312,83.1852,115.79,87.809,0.0249184,4.36844,15.3952,478.874,2.47766,0.0,0.0
410,102.25,226.314,286.924,79.3162,115.783,85.5898,0.0240517,4.26014,15.5661,478.704,2.70648,0.0,0.0
412,102.75,226.017,287.534,81.7808,115.786,85.7581,0.0233497,4.1469,15.7045,478.564,2.6891,0.0,0.0
414,103.25,225.612,287.565,90.8996,115.778,89.3318,0.0223871,4.02573,15.8167,478.424,2.32275,0.0,0.0
416,103.75,225.688,287.768,88.0152,115.79,88.9679,0.021253,3.90109,15.9796,478.214,2.36023,0.0,0.0
418,104.25,225.916,287.222,82.3654,115.784,91.6818,0.020049,3.80013,16.1115,478.083,2.09063,0.0,0.0
420,104.75,225.886,286.716,92.0087,115.804,89.9232,0.0188171,3.64599,16.3108,477.943,2.26564,0.0,0.0
422,105.25,225.721,286.212,93.0887,115.786,88.9526,0.0178192,3.52113,16.4721,477.803,2.36151,0.0,0.0
424,105.75,225.77,285.331,89.4585,115.798,89.6203,0.0164459,3.33812,16.6517,477.683,2.29546,0.0,0.0
426,106.25,225.016,285.274,92.975,115.784,89.8095,0.0153334,3.18988,16.8412,477.633,2.27549,0.0,0.0
428,106.75,224.375,283.658,100.89,115.796,93.6689,0.0138042,3.02099,17.0688,477.513,1.89952,0.0,0.0
430,107.25,223.688,282.644,104.652,115.783,92.234,0.0125656,2.84025,17.32,477.453,2.03681,0.0,0.0
432,107.75,222.601,281.813,109.704,115.801,92.5249,0.0110252,2.69384,17.5235,477.393,2.00999,0.0,0.0
434,108.25,221.732,280.468,109.186,115.782,93.3114,0.00977753,2.49629,17.788,477.343,1.93271,0.0,0.0
436,108.75,221.109,278.987,120.038,115.801,92.6761,0.00825353,2.33628,18.0023,477.323,1.99537,0.0,0.0
438,109.25,219.735,277.018,121.956,115.783,94.4948,0.00701909,2.12645,18.1759,477.293,1.8199,0.0,0.0
440,109.75,218.499,275.388,130.007,115.813,99.2846,0.00601919,1.9565,18.4212,477.273,1.37926,0.0,0.0
442,110.25,217.657,273.337,127.093,115.795,102.662,0.00520927,1.78772,18.6199,477.273,1.07823,0.0,0.0
444,110.75,215.589,271.26,130.146,115.806,103.699,0.00349234,1.62301,18.8826,477.273,0.98906,0.0,0.0
446,111.25,213.663,268.344,129.666,115.801,103.436,0.00290759,1.46901,18.974,477.253,1.01145,0.0,0.0
448,111.75,212.139,265.844,133.88,115.807,104.154,0.00173841,1.32575,19.1304,477.223,0.949954,0.0,0.0
450,112.25,210.619,264.231,133.168,115.798,103.487,0.000639052,1.20971,19.282,477.213,1.00676,0.0,0.0
452,112.75,208.962,261.25,131.108,115.804,104.224,-0.000251429,1.11572,19.4271,477.213,0.943696,0.0,0.0
454,113.25,206.601,259.175,137.174,115.798,104.843,-0.00116268,0.999225,19.5637,477.213,0.890165,0.0,0.0
456,113.75,205.216,256.907,136.361,115.816,105.155,-0.00196222,0.864633,19.6915,477.213,0.864957,0.0,0.0
458,114.25,203.202,254.09,138.71,115.797,105.821,-0.00266513,0.819045,19.8295,477.193,0.806961,0.0,0.0
460,114.75,201.507,251.534,135.036,115.813,105.017,-0.00327566,0.741091,19.9412,477.173,0.876523,0.0,0.0
462,115.25,199.891,249.425,137.572,115.802,105.474,-0.00380724,0.677947,20.0399,477.163,0.836803,0.0,0.0
464,115.75,197.964,246.967,137.295,115.812,105.68,-0.00426983,0.615481,20.1271,477.153,0.820072,0.0,0.0
466,116.25,196.37,244.803,137.984,115.793,106.147,-0.00467335,0.564883,20.1977,477.143,0.779114,0.0,0.0
468,116.75,194.673,242.757,137.104,115.814,105.778,-0.00500021,0.517245,20.2596,477.143,0.811912,0.0,0.0
470,117.25,192.791,240.222,141.814,115.798,106.517,-0.00531204,0.478658,20.3139,477.143,0.748351,0.0,0.0
472,117.75,191.522,237.816,143.184,115.812,106.817,-0.00560699,0.442097,20.3579,477.133,0.724168,0.0,0.0
474,118.25,189.724,235.598,138.353,115.798,106.488,-0.0058459,0.40889,20.4003,477.133,0.750762,0.0,0.0
476,118.75,188.105,233.377,141.057,115.82,106.64,-0.00609902,0.381993,20.4347,477.133,0.739726,0.0,0.0
478,119.25,186.286,231.344,140.744,115.821,107.083,-0.00630404,0.360206,20.4709,477.133,0.702629,0.0,0.0
480,119.75,185.143,229.458,139.674,115.836,107.251,-0.00653095,0.336845,20.5002,477.133,0.689723,0.0,0.0
482,120.25,183.346,227.181,140.744,115.797,107.472,-0.00671474,0.317923,20.5306,477.143,0.668262,0.0,0.0
484,120.75,181.845,224.808,139.387,115.814,107.203,-0.00692073,0.300185,20.5552,477.153,0.69203,0.0,0.0
486,121.25,180.171,223.027,140.777,115.806,106.703,-0.00708758,0.283645,20.5796,477.143,0.733278,0.0,0.0
488,121.75,179.055,221.108,142.141,115.814,106.923,-0.00726619,0.268482,20.5993,477.163,0.715438,0.0,0.0
490,122.25,176.899,218.118,140.919,115.806,107.362,-0.00741086,0.25461,20.6171,477.163,0.678168,0.0,0.0
492,122.75,175.649,216.076,141.512,115.822,106.974,-0.00755092,0.242169,20.6332,477.163,0.711758,0.0,0.0
494,123.25,174.137,214.391,143.808,115.807,107.387,-0.00768494,0.231009,20.6463,477.143,0.676155,0.0,0.0
496,123.75,172.728,212.184,143.169,115.814,107.02,-0.00779351,0.221083,20.6595,477.133,0.707418,0.0,0.0
498,124.25,171.474,210.523,142.308,115.801,107.223,-0.00793235,0.212246,20.6702,477.133,0.689388,0.0,0.0
500,124.75,169.566,208.894,143.601,115.807,106.513,-0.00804481,0.205088,20.6802,477.133,0.749354,0.0,0.0
502,125.25,168.461,206.903,141.838,115.808,106.853,-0.0081744,0.197997,20.6883,477.143,0.720929,0.0,0.0
504,125.75,166.818,205.494,141.313,115.806,107.603,-0.00827936,0.192253,20.6967,477.163,0.658089,0.0,0.0
506,126.25,165.963,203.067,142.477,115.806,107.254,-0.00839666,0.187601,20.7034,477.163,0.687237,0.0,0.0
508,126.75,164.717,201.641,140.233,115.815,107.384,-0.00849168,0.182383,20.7096,477.173,0.677083,0.0,0.0
510,127.25,162.96,199.813,146.509,115.821,107.137,-0.00857779,0.178157,20.7152,477.173,0.698105,0.0,0.0
512,127.75,162.304,198.314,143.951,115.813,107.241,-0.00865577,0.173742,20.7197,477.183,0.68879,0.0,0.0
514,128.25,160.942,196.078,144.908,115.827,106.729,-0.00871371,0.170166,20.7247,477.173,0.732742,0.0,0.0
516,128.75,159.624,194.41,144.603,115.822,107.431,-0.00875594,0.166513,20.7288,477.173,0.673584,0.0,0.0
518,129.25,158.517,192.739,142.679,115.798,106.693,-0.00878491,0.163554,20.7325,477.173,0.733511,0.0,0.0
520,129.75,157.133,191.309,143.369,115.814,107.128,-0.00880368,0.160417,20.7355,477.173,0.69833,0.0,0.0
522,130.25,156.159,189.262,143.098,115.803,106.76,-0.00881888,0.157876,20.7385,477.153,0.728248,0.0,0.0
524,130.75,154.897,188.357,141.863,115.809,106.763,-0.00882988,0.155195,20.7412,477.143,0.728524,0.0,0.0
526,131.25,153.446,187.094,142.589,115.812,107.166,-0.00883762,0.153023,20.7435,477.143,0.694939,0.0,0.0
528,131.75,152.104,184.469,144.945,115.808,106.968,-0.00884323,0.15099,20.7466,477.143,0.711243,0.0,0.0
530,132.25,151.077,183.936,141.459,115.8,107.093,-0.00884719,0.149096,20.7492,477.153,0.700175,0.0,0.0
532,132.75,150.418,181.734,141.158,115.813,107.211,-0.0088504,0.147562,20.7512,477.133,0.691303,0.0,0.0
534,133.25,149.296,180.639,144.773,115.807,107.677,-0.00885169,0.145771,20.7529,477.123,0.651967,0.0,0.0
536,133.75,148.238,179.092,146.727,115.806,107.546,-0.00885156,0.14432,20.7543,477.133,0.662862,0.0,0.0
538,134.25,147.522,177.532,144.37,115.82,108.476,-0.00884818,0.142932,20.7542,477.153,0.586761,0.0,0.0
540,134.75,145.489,175.683,140.863,115.797,107.457,-0.00884251,0.141617,20.7541,477.153,0.669496,0.0,0.0
542,135.25,145.027,174.765,141.654,115.806,107.516,-0.00883138,0.14022,20.7545,477.163,0.665293,0.0,0.0
544,135.75,144.084,173.306,141.025,115.805,107.376,-0.00881648,0.139089,20.7548,477.143,0.676902,0.0,0.0
546,136.25,143.157,172.155,144.069,115.808,107.041,-0.008792,0.138172,20.7553,477.133,0.705127,0.0,0.0
548,136.75,141.333,170.955,146.668,115.802,107.069,-0.00877217,0.137157,20.7559,477.123,0.702334,0.0,0.0
550,137.25,140.821,169.081,142.367,115.811,107.184,-0.00875611,0.13609,20.7564,477.133,0.693396,0.0,0.0
552,137.75,140.003,168.352,143.666,115.799,107.755,-0.00873395,0.135081,20.7568,477.143,0.64485,0.0,0.0
554,138.25,138.701,166.117,141.548,115.811,107.29,-0.00870776,0.134135,20.7571,477.153,0.684514,0.0,0.0
556,138.75,137.834,165.112,141.354,115.81,107.445,-0.00868263,0.133209,20.7573,477.153,0.671557,0.0,0.0
558,139.25,137.294,164.393,145.046,115.798,108.027,-0.00865875,0.132317,20.7584,477.163,0.622166,0.0,0.0
560,139.75,135.96,163.112,141.312,115.806,107.353,-0.00864333,0.131594,20.7593,477.173,0.678938,0.0,0.0
562,140.25,135.816,161.916,143.071,115.808,107.721,-0.00863436,0.130607,20.7605,477.153,0.648387,0.0,0.0
564,140.75,134.4,160.352,141.66,115.805,107.532,-0.00863494,0.129807,20.7614,477.143,0.66387,0.0,0.0
566,141.25,134.084,159.769,140.841,115.806,107.44,-0.00864247,0.129001,20.7626,477.123,0.671648,0.0,0.0
568,141.75,133.234,158.838,139.73,115.815,107.449,-0.00865772,0.128205,20.7636,477.113,0.671571,0.0,0.0
570,142.25,131.97,156.676,143.477,115.807,106.726,-0.0086783,0.127455,20.7644,477.103,0.731484,0.0,0.0
572,142.75,130.921,155.778,142.669,115.794,106.962,-0.00869497,0.126752,20.765,477.103,0.710654,0.0,0.0
574,143.25,130.677,154.863,141.273,115.806,107.157,-0.00872462,0.126048,20.7655,477.123,0.695312,0.0,0.0
576,143.75,129.768,153.633,137.372,115.807,106.989,-0.00874863,0.125355,20.766,477.123,0.709465,0.0,0.0
578,144.25,128.863,152.599,144.211,115.809,106.797,-0.00877461,0.124703,20.7663,477.123,0.725653,0.0,0.0
580,144.75,127.87,151.824,142.532,115.798,106.628,-0.00880154,0.124094,20.7666,477.103,0.738989,0.0,0.0
582,145.25,127.743,150.851,142.814,115.817,106.919,-0.00882858,0.12354,20.7668,477.123,0.716003,0.0,0.0
584,145.75,126.88,149.831,140.255,115.804,107.236,-0.00885519,0.123037,20.7674,477.123,0.688561,0.0,0.0
586,146.25,125.36,148.142,143.713,115.816,107.63,-0.00887936,0.12263,20.7679,477.123,0.656622,0.0,0.0
588,146.75,124.897,147.393,142.444,115.793,107.179,-0.00890129,0.122187,20.7688,477.103,0.692476,0.0,0.0
590,147.25,124.602,146.756,147.51,115.815,106.452,-0.00891774,0.121727,20.7695,477.113,0.755107,0.0,0.0
592,147.75,123.986,145.56,143.226,115.804,107.997,-0.00892989,0.121249,20.77,477.123,0.625171,0.0,0.0
594,148.25,123.261,143.996,142.547,115.812,106.901,-0.00893973,0.120767,20.7705,477.123,0.717114,0.0,0.0
596,148.75,122.147,143.584,144.765,115.811,106.806,-0.00893895,0.120377,20.7708,477.133,0.724988,0.0,0.0
598,149.25,121.699,142.739,142.935,115.813,106.785,-0.00893832,0.119975,20.7711,477.123,0.726953,0.0,0.0
600,149.75,120.73,141.869,141.98,115.798,107.072,-0.00893532,0.119649,20.7713,477.113,0.701769,0.0,0.0
602,150.25,119.889,140.469,145.287,115.81,108.096,-0.0089329,0.119257,20.7713,477.103,0.617476,0.0,0.0
604,150.75,119.512,139.797,140.59,115.807,107.86,-0.00893093,0.118939,20.7714,477.093,0.636786,0.0,0.0
606,151.25,118.539,139.183,145.726,115.801,106.491,-0.00895914,0.118581,20.7714,477.103,0.750786,0.0,0.0
608,151.75,117.985,138.384,142.402,115.796,107.483,-0.00898198,0.11829,20.7714,477.123,0.667339,0.0,0.0
610,152.25,117.486,136.974,141.893,115.801,107.549,-0.00904146,0.118018,20.7714,477.143,0.662231,0.0,0.0
612,152.75,116.437,136.042,146.851,115.798,107.259,-0.00908964,0.117763,20.7715,477.133,0.686118,0.0,0.0
614,153.25,116.267,135.16,140.39,115.809,107.442,-0.00915742,0.117557,20.7715,477.143,0.671676,0.0,0.0
616,153.75,115.708,134.378,141.785,115.797,107.805,-0.00923819,0.117332,20.7715,477.133,0.640592,0.0,0.0
618,154.25,114.969,133.906,146.584,115.814,107.725,-0.0093193,0.117151,20.7715,477.133,0.648513,0.0,0.0
620,154.75,113.991,132.948,140.771,115.796,107.189,-0.00939912,0.116974,20.7715,477.133,0.691769,0.0,0.0
622,155.25,113.711,131.918,139.732,115.81,107.932,-0.009469,0.116803,20.7715,477.123,0.631051,0.0,0.0
624,155.75,112.323,130.984,144.711,115.794,107.531,-0.0095303,0.116642,20.7715,477.133,0.663148,0.0,0.0
626,156.25,112.133,130.486,143.4,115.799,108.423,-0.00957996,0.116492,20.7715,477.113,0.589514,0.0,0.0
628,156.75,111.616,129.183,143.03,115.789,107.091,-0.00962019,0.11637,20.7715,477.113,0.699494,0.0,0.0
630,157.25,111.154,128.908,141.92,115.811,107.635,-0.0096478,0.116243,20.7701,477.113,0.65576,0.0,0.0
632,157.75,110.317,128.122,141.702,115.787,107.773,-0.00967017,0.11611,20.769,477.113,0.642479,0.0,0.0
634,158.25,110.258,127.579,144.246,115.801,106.935,-0.00968044,0.115975,20.7681,477.113,0.713487,0.0,0.0
636,158.75,109.564,126.155,147.325,115.789,107.932,-0.00968171,0.115866,20.7674,477.093,0.629375,0.0,0.0
638,159.25,108.872,125.601,144.39,115.791,107.548,-0.00968274,0.115777,20.7668,477.113,0.661506,0.0,0.0
640,159.75,108.266,125.007,141.08,115.786,107.607,-0.00966252,0.115677,20.7661,477.123,0.65614,0.0,0.0
642,160.25,107.796,123.964,143.134,115.789,107.655,-0.00964615,0.115596,20.7653,477.123,0.652433,0.0,0.0
644,160.75,107.238,123.388,147.893,115.784,107.511,-0.00960309,0.11553,20.7649,477.123,0.664004,0.0,0.0
646,161.25,107.292,122.789,143.032,115.793,108.004,-0.00956822,0.115477,20.765,477.133,0.623757,0.0,0.0
648,161.75,106.061,122.083,146.079,115.786,107.614,-0.00951637,0.115434,20.7648,477.123,0.655599,0.0,0.0
650,162.25,105.477,121.051,144.066,115.798,107.213,-0.00947438,0.115343,20.7644,477.113,0.689978,0.0,0.0
652,162.75,105.398,120.533,137.733,115.776,107.059,-0.00942919,0.115269,20.7641,477.113,0.701105,0.0,0.0
654,163.25,104.712,119.824,144.717,115.792,106.609,-0.00939259,0.115195,20.7638,477.093,0.740182,0.0,0.0
656,163.75,104.198,119.221,145.073,115.773,108.123,-0.00935837,0.115136,20.7636,477.103,0.612265,0.0,0.0
658,164.25,103.594,118.72,143.566,115.789,107.011,-0.00932653,0.115102,20.7635,477.093,0.706152,0.0,0.0
660,164.75,103.362,118.138,144.618,115.773,107.206,-0.00930074,0.115089,20.7633,477.093,0.688555,0.0,0.0
662,165.25,102.184,117.167,141.002,115.801,107.413,-0.00927986,0.115078,20.7632,477.093,0.673486,0.0,0.0
664,165.75,102.058,116.349,143.047,115.791,107.61,-0.00926294,0.115069,20.7631,477.093,0.656346,0.0,0.0
666,166.25,101.63,115.875,144.108,115.78,107.415,-0.00925544,0.115046,20.7631,477.103,0.671768,0.0,0.0
668,166.75,101.285,115.325,142.955,115.782,107.341,-0.00924937,0.115015,20.763,477.103,0.678009,0.0,0.0
670,167.25,100.632,114.542,143.91,115.782,107.573,-0.00924641,0.114989,20.763,477.103,0.658735,0.0,0.0
672,167.75,100.546,114.104,142.118,115.774,107.458,-0.00924578,0.114883,20.7629,477.103,0.667672,0.0,0.0
674,168.25,100.071,113.28,138.046,115.787,107.591,-0.00924278,0.114797,20.7627,477.083,0.657635,0.0,0.0
676,168.75,99.5976,112.452,143.085,115.777,107.666,-0.00924036,0.114727,20.7622,477.093,0.650561,0.0,0.0
678,169.25,98.9673,112.129,143.777,115.773,107.686,-0.00923186,0.114671,20.7619,477.113,0.648577,0.0,0.0
680,169.75,98.9232,111.047,146.288,115.76,106.874,-0.00921909,0.114618,20.7616,477.113,0.715431,0.0,0.0
682,170.25,98.1094,111.012,142.145,115.771,107.36,-0.00920349,0.114568,20.7614,477.123,0.67563,0.0,0.0
684,170.75,97.5323,110.091,146.893,115.772,107.17,-0.00918612,0.114512,20.7615,477.113,0.691534,0.0,0.0
686,171.25,97.3387,109.751,145.128,115.767,107.408,-0.00917205,0.114454,20.7616,477.113,0.671327,0.0,0.0
688,171.75,96.9658,109.101,144.757,115.757,107.342,-0.00916196,0.114377,20.7616,477.113,0.67604,0.0,0.0
690,172.25,96.5658,108.682,141.609,115.76,108.836,-0.00915496,0.114287,20.7621,477.113,0.552516,0.0,0.0
692,172.75,96.0598,107.74,147.156,115.769,107.543,-0.00915321,0.114154,20.7625,477.123,0.660181,0.0,0.0
694,173.25,95.1283,107.318,144.917,115.753,107.403,-0.00915532,0.113991,20.7628,477.123,0.670659,0.0,0.0
696,173.75,94.9434,106.105,147.699,115.759,108.382,-0.00915622,0.11386,20.763,477.133,0.589818,0.0,0.0
698,174.25,94.5268,106.313,144.25,115.756,107.131,-0.00916646,0.113654,20.7632,477.143,0.693619,0.0,0.0
700,174.75,94.552,105.541,145.423,115.758,107.793,-0.00917474,0.113487,20.7634,477.143,0.638494,0.0,0.0
702,175.25,94.4567,105.597,144.679,115.767,107.559,-0.00918518,0.113306,20.7638,477.133,0.658724,0.0,0.0
704,175.75,93.5247,104.768,140.994,115.756,106.937,-0.00919789,0.11312,20.7645,477.113,0.709799,0.0,0.0
706,176.25,93.4564,104.492,143.773,115.733,107.676,-0.00920173,0.112954,20.7647,477.113,0.646367,0.0,0.0
708,176.75,92.6736,103.741,143.402,115.753,108.419,-0.00920828,0.112876,20.7651,477.103,0.586289,0.0,0.0
710,177.25,92.4786,102.788,143.757,115.742,107.799,-0.00922228,0.112742,20.7654,477.113,0.636794,0.0,0.0
712,177.75,91.761,102.276,149.302,115.764,107.533,-0.00923362,0.112592,20.7656,477.123,0.660665,0.0,0.0
714,178.25,91.8674,102.603,140.545,115.755,108.097,-0.0092428,0.11247,20.7658,477.123,0.613065,0.0,0.0
716,178.75,91.7282,101.838,143.903,115.758,107.25,-0.00926017,0.112248,20.7659,477.123,0.683759,0.0,0.0
718,179.25,91.4183,101.06,144.933,115.736,107.704,-0.00927425,0.112188,20.7663,477.103,0.644313,0.0,0.0
720,179.75,90.9774,101.666,142.772,115.744,108.151,-0.00928564,0.112,20.7668,477.123,0.607781,0.0,0.0
722,180.25,90.033,100.325,144.151,115.734,107.903,-0.0092837,0.111848,20.767,477.113,0.627496,0.0,0.0
724,180.75,90.2383,99.9822,145.269,115.73,108.13,-0.00928213,0.11171,20.767,477.123,0.608376,0.0,0.0
726,181.25,89.5218,98.9742,144.056,115.726,107.911,-0.00927216,0.111585,20.7669,477.113,0.626335,0.0,0.0
728,181.75,89.3382,98.5358,143.863,115.738,108.153,-0.00926409,0.111483,20.7669,477.113,0.607155,0.0,0.0
730,182.25,89.5809,98.9205,146.877,115.724,107.58,-0.00925886,0.111401,20.7669,477.123,0.653604,0.0,0.0
732,182.75,89.4952,98.1363,148.374,115.728,107.837,-0.0092558,0.111263,20.7674,477.123,0.63255,0.0,0.0
734,183.25,88.2081,97.5047,145.449,115.718,108.126,-0.00926051,0.111152,20.7677,477.123,0.607885,0.0,0.0
736,183.75,88.2467,97.397,143.46,115.715,108.033,-0.00927079,0.111054,20.768,477.103,0.615294,0.0,0.0
738,184.25,87.9199,96.7477,145.75,115.713,108.533,-0.00928892,0.110968,20.7682,477.093,0.573837,0.0,0.0
740,184.75,87.7279,96.7449,144.902,115.721,107.963,-0.00931243,0.110875,20.7687,477.093,0.62156,0.0,0.0
742,185.25,86.8552,95.8814,140.558,115.705,108.086,-0.00933148,0.110781,20.7692,477.083,0.610162,0.0,0.0
744,185.75,86.6242,95.2147,146.831,115.704,108.356,-0.00937304,0.110696,20.7697,477.103,0.587774,0.0,0.0
746,186.25,86.4724,95.5838,144.901,115.698,108.176,-0.00943023,0.110621,20.77,477.103,0.602143,0.0,0.0
748,186.75,86.5857,95.0078,145.118,115.702,107.629,-0.00947655,0.110575,20.7703,477.123,0.647848,0.0,0.0
750,187.25,86.0818,94.5201,146.576,115.688,107.326,-0.00954263,0.110552,20.7705,477.133,0.672073,0.0,0.0
752,187.75,86.2313,94.1056,143.768,115.702,108.129,-0.00959616,0.110533,20.7707,477.113,0.606267,0.0,0.0
754,188.25,85.5391,93.8314,146.534,115.685,107.992,-0.00965193,0.110502,20.7709,477.123,0.616414,0.0,0.0
756,188.75,85.5534,93.2566,147.036,115.687,108.074,-0.0096971,0.110464,20.771,477.103,0.609734,0.0,0.0
758,189.25,85.2214,92.8486,144.021,115.679,108.169,-0.009725,0.110433,20.7711,477.103,0.601261,0.0,0.0
760,189.75,84.7439,92.6835,150.3,115.678,107.877,-0.0097476,0.110436,20.7712,477.083,0.625387,0.0,0.0
762,190.25,85.0035,92.3549,144.872,115.674,107.389,-0.009751,0.110439,20.7713,477.113,0.665657,0.0,0.0
764,190.75,84.817,91.5776,144.985,115.675,106.826,-0.00975376,0.110471,20.7713,477.113,0.712832,0.0,0.0
766,191.25,84.1654,91.4294,142.902,115.652,107.339,-0.00975142,0.110524,20.7714,477.103,0.668147,0.0,0.0
768,191.75,83.6421,91.1874,143.278,115.673,107.333,-0.00974541,0.110567,20.7714,477.073,0.670291,0.0,0.0
770,192.25,83.4622,90.6188,146.91,115.651,107.769,-0.00974054,0.110602,20.7714,477.103,0.632258,0.0,0.0
772,192.75,83.4085,90.3619,148.941,115.661,109.228,-0.00972915,0.110616,20.7715,477.093,0.512613,0.0,0.0
774,193.25,83.0363,90.1993,144.444,115.648,108.641,-0.00971992,0.110628,20.7715,477.093,0.559844,0.0,0.0
776,193.75,82.6815,89.6408,144.504,115.65,108.542,-0.00969506,0.110637,20.7715,477.073,0.568154,0.0,0.0
778,194.25,82.0195,89.2495,147.34,115.647,108.221,-0.00967493,0.110644,20.7715,477.093,0.594533,0.0,0.0
780,194.75,82.0919,88.7692,146.551,115.644,107.901,-0.00963503,0.11065,20.7715,477.073,0.620803,0.0,0.0
782,195.25,81.6596,88.8081,143.624,115.635,108.63,-0.00960271,0.110612,20.7715,477.073,0.55974,0.0,0.0
784,195.75,81.6851,88.3132,144.231,115.62,107.762,-0.00956477,0.110582,20.7715,477.103,0.63043,0.0,0.0
786,196.25,81.4574,87.6501,141.337,115.615,107.267,-0.00952345,0.1105,20.772,477.113,0.671325,0.0,0.0
788,196.75,81.0165,87.6714,145.836,115.632,108.087,-0.0094841,0.110434,20.7723,477.103,0.60436,0.0,0.0
790,197.25,80.6559,87.1706,147.171,115.606,107.81,-0.00944694,0.110352,20.7731,477.103,0.625338,0.0,0.0
792,197.75,80.8823,86.9565,142.655,115.627,107.563,-0.00941487,0.110285,20.7737,477.103,0.647558,0.0,0.0
794,198.25,80.7735,86.5964,149.61,115.631,107.145,-0.00938714,0.110186,20.7741,477.103,0.682767,0.0,0.0
796,198.75,80.3509,86.0924,142.299,115.62,107.473,-0.00936467,0.110066,20.7745,477.103,0.654485,0.0,0.0
798,199.25,80.1682,86.0431,143.159,115.586,108.243,-0.00935765,0.109968,20.7749,477.093,0.587956,0.0,0.0
800,199.75,79.8064,85.797,149.501,115.61,107.155,-0.00935196,0.109889,20.7751,477.103,0.680237,0.0,0.0
802,200.25,78.9854,85.7327,143.956,115.598,107.754,-0.00935976,0.109788,20.7753,477.113,0.629482,0.0,0.0
804,200.75,79.0797,84.99,144.338,115.587,107.62,-0.00936609,0.109672,20.7759,477.113,0.639684,0.0,0.0
806,201.25,79.0499,84.7062,145.187,115.586,108.362,-0.00937121,0.109578,20.7764,477.113,0.578053,0.0,0.0
808,201.75,78.8577,84.4139,142.806,115.594,107.334,-0.00938287,0.10946,20.7768,477.113,0.664126,0.0,0.0
810,202.25,78.914,84.3689,148.59,115.576,108.049,-0.00939232,0.109363,20.7771,477.103,0.603163,0.0,0.0
812,202.75,78.7694,83.5385,144.668,115.575,107.889,-0.00939997,0.109256,20.7774,477.113,0.616403,0.0,0.0
814,203.25,78.6514,83.3778,144.58,115.566,107.035,-0.00939003,0.109141,20.7775,477.113,0.6869,0.0,0.0
816,203.75,77.2655,83.2766,143.544,115.566,107.711,-0.00938198,0.109019,20.7774,477.113,0.630466,0.0,0.0
818,204.25,78.0137,82.9305,145.61,115.562,107.635,-0.00936676,0.108893,20.7776,477.083,0.636521,0.0,0.0
820,204.75,77.1555,82.6865,142.579,115.568,107.71,-0.00935444,0.108791,20.778,477.093,0.6308,0.0,0.0
822,205.25,77.6624,82.9282,143.05,115.553,107.185,-0.00933825,0.108708,20.7783,477.083,0.673387,0.0,0.0
824,205.75,76.9361,82.0384,142.554,115.552,108.202,-0.00932513,0.108571,20.7785,477.083,0.588697,0.0,0.0
826,206.25,76.8932,81.8076,144.513,115.548,108.346,-0.00931451,0.10846,20.7787,477.093,0.576472,0.0,0.0
828,206.75,76.5946,81.7054,147.223,115.537,108.268,-0.00930329,0.108385,20.7789,477.093,0.582059,0.0,0.0
830,207.25,76.4381,81.3698,141.608,115.531,107.426,-0.00929185,0.108338,20.779,477.083,0.651486,0.0,0.0
832,207.75,76.2782,81.4226,148.366,115.527,107.976,-0.00928324,0.108344,20.7791,477.083,0.605502,0.0,0.0
834,208.25,76.4271,80.6295,145.555,115.53,107.87,-0.00927685,0.10839,20.7792,477.103,0.614475,0.0,0.0
836,208.75,76.0771,80.8149,145.699,115.508,107.649,-0.00926972,0.108427,20.7793,477.113,0.631132,0.0,0.0
838,209.25,75.3341,80.5175,147.236,115.504,108.074,-0.00926217,0.108471,20.7793,477.123,0.595588,0.0,0.0
840,209.75,75.2663,80.1138,141.904,115.512,107.811,-0.0092541,0.108507,20.7794,477.133,0.61804,0.0,0.0
842,210.25,75.6479,79.8104,141.165,115.505,108.355,-0.0092458,0.108566,20.7794,477.113,0.572425,0.0,0.0
844,210.75,75.6999,80.1778,144.553,115.488,107.486,-0.00923125,0.108641,20.7794,477.123,0.643154,0.0,0.0
846,211.25,74.8015,78.7834,144.755,115.486,109.035,-0.00922655,0.108716,20.7794,477.113,0.514872,0.0,0.0
848,211.75,74.7911,78.6101,145.165,115.488,107.892,-0.00921852,0.108791,20.7795,477.093,0.60942,0.0,0.0
850,212.25,75.287,78.82,145.214,115.479,107.698,-0.00920704,0.108844,20.7795,477.113,0.624829,0.0,0.0
852,212.75,75.1807,78.5948,142.988,115.475,108.633,-0.00919775,0.10888,20.7795,477.103,0.547068,0.0,0.0
854,213.25,74.6217,78.4317,146.552,115.475,107.606,-0.00918434,0.108909,20.7795,477.123,0.632155,0.0,0.0
856,213.75,74.722,78.3341,142.426,115.465,108.694,-0.00916819,0.108963,20.7795,477.123,0.541272,0.0,0.0
858,214.25,74.272,78.1377,140.68,115.455,108.283,-0.00915118,0.108978,20.7795,477.103,0.574408,0.0,0.0
860,214.75,74.3323,77.9457,144.585,115.448,107.625,-0.00913388,0.109031,20.7795,477.093,0.628497,0.0,0.0
862,215.25,74.0873,77.8694,144.442,115.447,108.016,-0.00912248,0.109074,20.7795,477.093,0.59596,0.0,0.0
864,215.75,73.9556,77.0689,146.029,115.437,109.016,-0.00911559,0.109087,20.7795,477.093,0.512633,0.0,0.0
866,216.25,73.8171,77.0154,145.816,115.439,108.279,-0.00911002,0.109077,20.7795,477.083,0.573549,0.0,0.0
868,216.75,73.7234,76.9686,144.815,115.433,107.15,-0.00911668,0.109069,20.7795,477.093,0.666942,0.0,0.0
870,217.25,73.2039,76.7174,145.442,115.43,108.08,-0.00912207,0.109062,20.7795,477.083,0.589244,0.0,0.0
872,217.75,73.5016,76.7967,146.139,115.418,107.955,-0.00913265,0.109057,20.7795,477.093,0.598723,0.0,0.0
874,218.25,72.2935,76.6384,150.64,115.405,107.297,-0.00914121,0.109138,20.7795,477.083,0.652504,0.0,0.0
876,218.75,73.1646,75.9654,141.257,115.397,107.586,-0.00914691,0.109203,20.7795,477.083,0.627825,0.0,0.0
878,219.25,72.3378,75.8718,145.024,115.397,108.126,-0.00915153,0.109328,20.7795,477.073,0.582932,0.0,0.0
880,219.75,72.8167,75.5823,145.186,115.387,107.12,-0.00915527,0.109428,20.7795,477.083,0.665875,0.0,0.0
882,220.25,72.1209,75.6358,145.578,115.379,107.524,-0.0091285,0.109525,20.7795,477.073,0.631559,0.0,0.0
884,220.75,72.2614,75.2073,145.285,115.377,107.732,-0.00910681,0.109617,20.7795,477.073,0.614094,0.0,0.0
886,221.25,71.8395,75.4248,144.176,115.366,108.118,-0.00906566,0.109691,20.7795,477.083,0.58117,0.0,0.0
888,221.75,72.2433,75.0998,144.774,115.351,108.83,-0.00903232,0.109751,20.7795,477.083,0.52127,0.0,0.0
890,222.25,72.5088,74.7523,148.116,115.362,106.939,-0.00899679,0.109785,20.7795,477.083,0.679145,0.0,0.0
892,222.75,71.3507,74.521,142.409,115.334,107.668,-0.00896034,0.109798,20.7795,477.103,0.61608,0.0,0.0
894,223.25,71.7011,74.4373,146.45,115.337,108.367,-0.00893016,0.10981,20.7795,477.113,0.558356,0.0,0.0
896,223.75,71.7353,74.3455,142.239,115.311,108.571,-0.00890512,0.109776,20.7794,477.123,0.539541,0.0,0.0
898,224.25,71.2825,74.0848,147.876,115.33,107.678,-0.00889203,0.109749,20.7792,477.113,0.614977,0.0,0.0
900,224.75,71.2009,73.7906,144.811,115.308,107.411,-0.0088879,0.109697,20.7791,477.103,0.635446,0.0,0.0
902,225.25,71.1425,73.7381,143.836,115.303,108,-0.00888455,0.109628,20.779,477.103,0.586122,0.0,0.0
904,225.75,70.5074,73.3068,145.6,115.282,108.891,-0.00888184,0.109534,20.779,477.113,0.510912,0.0,0.0
906,226.25,70.8924,73.4645,146.394,115.29,108.084,-0.00891068,0.109424,20.7791,477.103,0.578085,0.0,0.0
908,226.75,70.5929,73.3557,145.632,115.276,108.539,-0.00893404,0.109357,20.7793,477.093,0.539395,0.0,0.0
910,227.25,70.6271,72.6464,146.667,115.277,108.425,-0.00895297,0.109323,20.7795,477.093,0.548935,0.0,0.0
912,227.75,70.4312,72.6514,149.457,115.254,108.83,-0.0089894,0.109295,20.7796,477.083,0.513702,0.0,0.0
914,228.25,69.8483,72.4543,141.796,115.256,107.745,-0.00900493,0.109273,20.7797,477.083,0.603622,0.0,0.0
916,228.75,70.087,72.558,143.566,115.229,107.648,-0.00903999,0.109198,20.7798,477.103,0.609652,0.0,0.0
918,229.25,70.2147,72.1768,144.501,115.24,107.59,-0.00907603,0.109137,20.7798,477.103,0.615268,0.0,0.0
920,229.75,70.1399,71.7824,144.185,115.213,107.938,-0.00911241,0.109036,20.7799,477.103,0.584279,0.0,0.0
922,230.25,69.7231,71.895,146.827,115.205,108.37,-0.00914835,0.108907,20.78,477.113,0.547774,0.0,0.0
924,230.75,69.6262,72.0533,147.706,115.185,108.369,-0.00918008,0.108802,20.78,477.113,0.546349,0.0,0.0
926,231.25,69.2234,71.3573,142.965,115.208,108.133,,0.10872,,477.113,0.567658,0.0,0.0
928,231.75,69.5849,71.5032,146.415,115.17,108.457,,0.108579,,477.113,0.537921,0.0,0.0
930,232.25,69.0398,71.0916,143.564,115.177,107.47,,0.108458,,477.113,0.620381,0.0,0.0
932,232.75,69.3749,70.9589,151.386,115.153,107.287,,0.108353,,477.113,0.633751,0.0,0.0
934,233.25,68.5619,71.3015,144.851,115.153,108.032,,0.108268,,477.113,0.571806,0.0,0.0
936,233.75,68.9792,70.8095,144.067,115.118,109.036,,0.108199,,477.113,0.486241,0.0,0.0
938,234.25,68.3521,70.3879,145.154,115.136,107.495,,,,477.103,0.615113,0.0,0.0
940,234.75,68.7418,69.9665,145.736,115.099,108.462,,,,477.103,0.532008,0.0,0.0
942,235.25,68.4999,70.3641,147.364,115.103,107.71,,,,477.103,0.594652,0.0,0.0
944,235.75,68.3812,69.9022,147.313,115.096,107.054,,,,477.093,0.648799,0.0,0.0
946,236.25,68.4403,69.8631,143.957,115.084,108.063,,,,477.093,0.563779,0.0,0.0
948,236.75,68.1946,69.8213,147.991,115.069,108.006,,,,477.083,0.567323,0.0,0.0
950,237.25,68.0633,69.9188,141.246,115.068,107.458,,,,477.093,0.612887,0.0,0.0
952,237.75,67.6611,69.1339,144.272,115.051,108.246,,,,477.073,0.546125,0.0,0.0
954,238.25,68.3273,69.4728,140.197,115.05,107.041,,,,477.093,0.646329,0.0,0.0
956,238.75,68.0397,69.2044,145.194,115.032,107.477,,,,477.083,0.608482,0.0,0.0
958,239.25,67.4887,69.1404,142.293,115.022,106.87,,,,477.073,0.658496,0.0,0.0
960,239.75,67.7188,68.841,145.085,115.006,108.334,,,,477.073,0.5353,0.0,0.0
962,240.25,67.6046,68.7063,145.751,115.01,107.935,,,,477.073,0.568687,0.0,0.0
964,240.75,67.5667,68.7784,142.274,114.984,107.094,,,,477.083,0.636788,0.0,0.0
966,241.25,67.664,68.4591,147.778,114.987,107.167,,,,477.093,0.630862,0.0,0.0
968,241.75,67.8109,68.4974,147.433,114.978,107.636,,,,477.073,0.591096,0.0,0.0