File: 01_Data/PMMA/Cone/PMMA_Cone_HF15-noSparkScan_210827_R3.csv
Names,Time,Stack TC,Smoke TC,Exh Press,Smoke Comp,Smoke Meas,CO Meter,CO2 Meter,O2 Meter,Sample Mass,Ext Coeff,Start Test,Flame Verif
Chan Gain,,500,500,1,1,1,1,1,1,1,1,1.0,1.0
Offset,,0,0,0.145697,0,0,0,0,0,0,0,0.0,0.0
Gain,,1,1,25.011,13.1742,16.6938,1,1,1,1.00099,1.02845,1.0,1.0
Units,sec,C,C,Pa,%,%,%,%,%,g,/m,,
Baseline,,27.4558,28.1946,194.217,101.23,108.703,0.000865632,0.0672597,20.9432,-507.626,-0.642499,,
12,2.75,25.8571,25.7334,190.163,101.664,109.335,0.00101357,0.0666716,20.9451,34.9545,-0.656255,0.0,0.0
24,5.75,25.5416,26.0637,192.691,101.697,109.039,0.000951939,0.0666338,20.946,34.9545,-0.628909,0.0,0.0
36,8.75,25.2477,26.5389,194.649,101.725,108.793,0.000873156,0.0664365,20.9469,34.8544,-0.605989,0.0,0.0
48,11.75,25.7006,26.4927,197.053,101.743,108.722,0.000882317,0.0661153,20.9471,34.8444,-0.598469,0.0,0.0
60,14.75,25.7158,26.1752,191,101.763,109.074,0.000862174,0.0658665,20.9491,34.9145,-0.62585,0.0,0.0
72,17.75,25.8817,26.2618,190.821,101.768,108.915,0.000824719,0.0655545,20.9498,34.8744,-0.612301,0.0,0.0
84,20.75,25.6138,26.5448,195.007,101.793,109.206,0.000731391,0.0653185,20.9496,34.8444,-0.634162,0.0,0.0
96,23.75,26.0008,26.8066,185.806,101.81,109.089,0.00090277,0.0649366,20.949,34.9345,-0.623016,0.0,0.0
108,26.75,25.6142,26.6734,195.794,101.819,108.973,0.00131869,0.0648128,20.9488,34.9445,-0.612586,0.0,0.0
120,29.75,25.9355,26.4177,191.419,101.824,109.118,0.00137382,0.0648237,20.9487,34.9545,-0.624141,0.0,0.0
132,32.75,25.2567,26.96,193.705,101.818,108.927,0.00114991,0.0648156,20.9487,34.8945,-0.608825,0.0,0.0
144,35.75,25.6245,26.9157,191.719,101.821,108.794,0.00108701,0.0646604,20.9501,34.9045,-0.597556,0.0,0.0
156,38.75,25.7067,26.3813,193.669,101.814,109.191,0.00098168,0.0645069,20.9499,34.8945,-0.631124,0.0,0.0
168,41.75,25.5574,26.667,194.157,101.807,109.308,0.000871168,0.0642857,20.9504,34.9045,-0.641407,0.0,0.0
180,44.75,25.8052,26.2326,197.364,101.79,109.141,0.000784565,0.064245,20.9504,34.8945,-0.6291,0.0,0.0
192,47.75,25.6983,26.611,191.235,101.762,109.096,0.00094667,0.0644175,20.9504,34.8744,-0.627853,0.0,0.0
204,50.75,25.2564,26.9369,192.491,101.741,109.124,0.00103991,0.0647164,20.9503,34.8945,-0.631981,0.0,0.0
216,53.75,25.9962,26.9514,197.637,101.728,109.001,0.000879162,0.064751,20.9503,34.7944,-0.622923,0.0,0.0
228,56.75,25.8212,26.7446,192.621,101.7,108.885,0.000818199,0.0644692,20.9509,34.7944,-0.615843,0.0,0.0
240,59.75,25.9431,26.9777,190.926,101.671,109.093,0.000762661,0.0643905,20.9511,34.8844,-0.635658,0.0,0.0
252,62.75,25.7976,26.6599,190.763,101.624,108.551,0.000782791,0.0640052,20.9512,34.8244,-0.594854,0.0,0.0
264,65.75,25.9466,26.8974,190.35,101.57,108.838,0.000630044,0.0639272,20.9505,34.8744,-0.623444,0.0,0.0
276,68.75,25.8819,26.5961,194.089,101.506,109.096,0.000445506,0.0637257,20.9503,34.8344,-0.650586,0.0,0.0
288,71.75,25.9839,26.6615,194.9,101.45,108.912,0.000549381,0.0636517,20.9502,34.8744,-0.640326,0.0,0.0
300,74.75,25.9979,27.0661,191.2,101.395,108.776,0.000652954,0.0634328,20.9502,34.9045,-0.63388,0.0,0.0
312,77.75,25.9772,26.8654,200.826,101.333,108.953,0.000834601,0.0634547,20.9518,34.8444,-0.654111,0.0,0.0
324,80.75,26.0484,26.5932,197.916,101.27,108.343,0.00105503,0.0633234,20.9523,34.8844,-0.609139,0.0,0.0
336,83.75,26.4703,27.0455,189.779,101.207,108.174,0.00117638,0.0631721,20.9519,34.8644,-0.600634,0.0,0.0
348,86.75,26.264,26.737,198.448,101.156,108.233,0.00127829,0.0631941,20.9523,34.6342,-0.610071,0.0,0.0
360,89.75,25.915,26.6979,188.061,101.093,108.411,0.00127016,0.0631899,20.9524,34.8844,-0.630475,0.0,0.0
372,92.75,25.9499,26.7602,190.112,101.042,108.325,0.00130188,0.062922,20.9525,34.8644,-0.6279,0.0,0.0
384,95.75,25.9303,26.5332,190.183,100.995,107.586,0.0012781,0.0626526,20.9525,34.8244,-0.570377,0.0,0.0
396,98.75,25.8291,26.3572,196.033,100.959,108.065,0.00119293,0.0625206,20.9531,34.8244,-0.613633,0.0,0.0
408,101.75,25.9182,26.5989,195.351,100.962,108.059,0.000894722,0.0625332,20.9533,34.9045,-0.612871,0.0,0.0
420,104.75,25.5364,26.4019,189.289,101.042,108.233,0.000692234,0.0625457,20.9533,34.8644,-0.62026,0.0,0.0
432,107.75,25.9587,26.6455,192.58,101.124,108.199,0.000763088,0.0626088,20.9533,34.8544,-0.610022,0.0,0.0
444,110.75,26.5998,26.8973,190.665,101.187,107.877,0.000848669,0.0625287,20.953,34.7543,-0.577585,0.0,0.0
456,113.75,25.7146,26.3969,192.676,101.218,108.444,0.00096365,0.0622881,20.9522,34.8644,-0.622114,0.0,0.0
468,116.75,26.4325,26.788,194.555,101.247,108.696,0.000900028,0.0619994,20.9519,34.8744,-0.640489,0.0,0.0
480,119.75,26.311,26.8954,196.745,101.259,108.079,0.000900108,0.0618868,20.9519,34.8844,-0.588062,0.0,0.0
492,122.75,26.4539,26.7866,191.358,101.288,108.255,0.000987175,0.0620699,20.9518,34.8744,-0.60015,0.0,0.0
504,125.75,26.3809,26.6403,197.958,101.327,108.269,0.000903248,0.0619829,20.9532,34.7844,-0.597781,0.0,0.0
516,128.75,25.7713,26.7955,193.395,101.362,108.213,0.000767515,0.0618661,20.9539,34.8344,-0.589961,0.0,0.0
528,131.75,26.0007,26.5777,193.045,101.393,108.691,0.000819048,0.0616586,20.9541,34.8444,-0.627042,0.0,0.0
540,134.75,26.3952,26.7385,193.293,101.415,108.738,0.000878184,0.0615138,20.9546,34.8744,-0.628957,0.0,0.0
552,137.75,26.1593,26.698,199.167,101.429,108.376,0.000801737,0.0615298,20.955,34.8544,-0.597682,0.0,0.0
564,140.75,26.0404,27.5052,194.83,101.459,108.376,0.000597453,0.0614744,20.9551,34.8744,-0.594958,0.0,0.0
576,143.75,25.5689,27.0371,194.06,101.451,108.475,0.000580512,0.0612221,20.9551,34.7543,-0.603946,0.0,0.0
588,146.75,25.9287,26.9039,187.881,101.451,108.757,0.000617029,0.061323,20.9551,34.7844,-0.627339,0.0,0.0
600,149.75,26.0604,27.0813,193.106,101.41,108.599,0.000783266,0.0611417,20.9551,34.8044,-0.617919,0.0,0.0
612,152.75,26.0722,26.9313,190.421,101.385,108.23,0.000791656,0.0610716,20.9551,34.7944,-0.589437,0.0,0.0
624,155.75,26.1808,26.8644,198.051,101.313,108.159,0.000784435,0.0608101,20.9551,34.8244,-0.589903,0.0,0.0
636,158.75,26.4664,27.089,191.364,101.242,108.59,0.000759081,0.0607452,20.9572,34.7844,-0.632084,0.0,0.0
648,161.75,26.4083,26.7608,197.789,101.235,107.761,0.000621374,0.0605639,20.9572,34.7043,-0.563524,0.0,0.0
660,164.75,25.8252,27.0262,197.158,101.285,108.309,0.000542134,0.0603391,20.9571,34.8344,-0.604936,0.0,0.0
672,167.75,26.0884,26.9445,193.402,101.325,108.541,0.00081472,0.0603127,20.9571,34.8144,-0.620636,0.0,0.0
684,170.75,26.1744,27.148,192.667,101.385,108.284,0.000988494,0.0603935,20.9588,34.8144,-0.593902,0.0,0.0
696,173.75,26.0496,26.8355,197.32,101.436,108.485,0.00107331,0.0606896,20.9592,34.7743,-0.606067,0.0,0.0
708,176.75,26.3299,26.8487,191.739,101.508,108.849,0.0011877,0.0605597,20.9582,34.7043,-0.629951,0.0,0.0
720,179.75,26.5087,26.8535,190.513,101.574,109.135,0.00115537,0.0605208,20.9574,34.7743,-0.647672,0.0,0.0
732,182.75,26.2343,26.4953,188.894,101.628,109.127,0.00108241,0.0604655,20.9572,34.8044,-0.642293,0.0,0.0
744,185.75,26.0103,26.5322,192.812,101.691,108.791,0.000993473,0.0603385,20.9571,34.7944,-0.608929,0.0,0.0
756,188.75,26.0491,27.0593,193.427,101.742,108.589,0.000843257,0.0602222,20.9571,34.6342,-0.587535,0.0,0.0
768,191.75,26.2435,27.1133,192.484,101.781,108.855,0.000788837,0.0601841,20.9571,34.7443,-0.606223,0.0,0.0
780,194.75,26.2825,27.2987,188.622,101.813,108.842,0.000803778,0.0601312,20.9583,34.6742,-0.60228,0.0,0.0
792,197.75,26.1313,27.1049,193.808,101.851,109.042,0.000658405,0.0599562,20.9591,34.8044,-0.615477,0.0,0.0
804,200.75,26.1656,26.9927,196.939,101.874,108.783,0.000693157,0.0599442,20.9593,34.8244,-0.591967,0.0,0.0
816,203.75,25.8915,26.9766,193.471,101.908,109.163,0.00060144,0.0598642,20.957,34.7743,-0.620442,0.0,0.0
828,206.75,26.0568,27.3202,193.505,101.923,108.919,0.000629364,0.0598658,20.9557,34.7443,-0.598934,0.0,0.0
840,209.75,26.3104,27.1542,197.065,101.955,109.261,0.000814181,0.059645,20.9564,34.7343,-0.624322,0.0,0.0
852,212.75,26.1589,27.0882,197.619,101.957,108.793,0.000976503,0.0596949,20.9572,34.6843,-0.585517,0.0,0.0
864,215.75,25.9998,27.1871,198.956,101.969,108.492,0.000723659,0.0596185,20.9564,34.6642,-0.559448,0.0,0.0
876,218.75,26.1789,27.093,199.862,101.973,108.896,0.000553343,0.0592812,20.9569,34.7143,-0.592546,0.0,0.0
888,221.75,26.3673,27.0692,195.676,101.979,108.762,0.000694838,0.0591509,20.9573,34.5741,-0.580948,0.0,0.0
900,224.75,26.1208,27.3705,201.389,101.986,108.886,0.000806965,0.0592613,20.9574,34.6943,-0.590599,0.0,0.0
912,227.75,26.0075,27.451,190.116,101.997,109.269,0.000832791,0.0593952,20.9589,34.7443,-0.621296,0.0,0.0
924,230.75,26.8028,27.201,197.751,101.991,109.237,0.00083907,0.0593992,20.9593,34.6642,-0.619138,0.0,0.0
936,233.75,26.3234,27.3243,195.143,101.982,108.768,0.000643637,0.0595519,20.959,34.6342,-0.581164,0.0,0.0
948,236.75,25.7854,27.6958,198.762,101.982,109.22,0.000640898,0.059479,20.9587,34.6642,-0.618573,0.0,0.0
960,239.75,26.7646,27.2635,187.762,101.985,109.119,0.00079708,0.0594042,20.9586,34.7743,-0.610024,0.0,0.0
972,242.75,26.3308,27.4674,196.696,101.977,109.29,0.000905259,0.0594877,20.9586,34.7343,-0.624793,0.0,0.0
984,245.75,25.989,27.3425,190.305,101.98,109.541,0.000953454,0.0594416,20.9591,34.6742,-0.645182,0.0,0.0
996,248.75,26.2975,27.4647,200.847,101.974,108.93,0.000932997,0.0593742,20.9594,34.6843,-0.595345,0.0,0.0
1008,251.75,26.7646,27.4695,191.235,101.967,108.72,0.00095191,0.0593706,20.9599,34.6342,-0.578542,0.0,0.0
1020,254.75,26.4119,27.9435,188.826,101.962,108.976,0.000757546,0.0592924,20.96,34.6042,-0.600208,0.0,0.0
1032,257.75,26.3129,27.1308,190.233,101.949,108.788,0.000783999,0.0591762,20.9601,34.5842,-0.585735,0.0,0.0
1044,260.75,26.1761,27.3236,194.188,101.937,109.148,0.00105852,0.0590832,20.9601,34.5041,-0.616693,0.0,0.0
1056,263.75,25.8228,27.3351,195.48,101.93,109.057,0.00107374,0.0589206,20.9601,34.5241,-0.609716,0.0,0.0
1068,266.75,26.1402,27.1413,192.684,101.918,108.661,0.000919337,0.058752,20.9601,34.3639,-0.577978,0.0,0.0
1080,269.75,26.0517,27.3457,193.763,101.914,109.053,0.000971438,0.0585148,20.9601,34.424,-0.610731,0.0,0.0
1092,272.75,26.0185,27.3095,191.47,101.902,108.668,0.000993252,0.0585221,20.9589,34.5341,-0.579951,0.0,0.0
1104,275.75,25.845,27.0918,196.167,101.875,108.876,0.000946167,0.0586932,20.9576,34.5641,-0.599625,0.0,0.0
1116,278.75,26.5449,27.6097,198.339,101.83,108.821,0.000887943,0.0588673,20.9572,34.404,-0.599053,0.0,0.0
1128,281.75,26.8559,27.521,196.184,101.795,108.824,0.00078667,0.0588418,20.9571,34.404,-0.602364,0.0,0.0
1140,284.75,27.0398,27.4272,197.668,101.755,108.582,0.000652142,0.0586865,20.9584,34.444,-0.585809,0.0,0.0
1152,287.75,26.8014,27.8143,191.906,101.693,108.878,0.000825545,0.0584873,20.9586,34.3539,-0.6159,0.0,0.0
1164,290.75,26.637,27.923,197.996,101.64,108.677,0.00106311,0.0582798,20.9586,34.3739,-0.603914,0.0,0.0
1176,293.75,25.9873,27.0114,194.808,101.574,108.664,0.000932687,0.0582775,20.957,34.3539,-0.608718,0.0,0.0
1188,296.75,26.5701,27.6365,194.402,101.485,108.261,0.000775445,0.0583752,20.9586,34.3739,-0.583095,0.0,0.0
1200,299.75,26.506,27.5496,195.749,101.425,108.384,0.000857742,0.0583247,20.9598,34.3739,-0.59864,0.0,0.0
1212,302.75,26.8713,27.512,193.162,101.318,108.228,0.000955738,0.0582404,20.9601,34.3039,-0.59525,0.0,0.0
1224,305.75,26.1133,27.758,186.927,101.237,107.943,0.000976247,0.0583847,20.9602,34.2238,-0.578636,0.0,0.0
1236,308.75,26.5339,27.3838,192.128,101.158,108.056,0.000917681,0.0582253,20.9612,34.1838,-0.595144,0.0,0.0
1248,311.75,26.6058,27.4663,192.176,101.05,107.56,0.00089988,0.0578125,20.9616,34.2338,-0.563235,0.0,0.0
1260,314.75,26.1537,27.832,188.401,100.982,107.899,0.00113035,0.0578617,20.9617,34.1337,-0.597675,0.0,0.0
1272,317.75,26.2582,27.2348,187.317,100.901,107.688,0.00108016,0.0579383,20.9617,34.1637,-0.587245,0.0,0.0
1284,320.75,26.724,27.0185,193.273,100.833,107.657,0.000885744,0.0577766,20.9622,34.1537,-0.590718,0.0,0.0
1296,323.75,25.7839,26.9484,196.978,100.755,107.631,0.000836604,0.0574856,20.9623,34.1237,-0.595558,0.0,0.0
1308,326.75,26.5912,27.9961,187.769,100.685,107.731,0.000946448,0.0573583,20.9624,34.1137,-0.610189,0.0,0.0
1320,329.75,26.7111,27.8658,193.305,100.64,107.398,0.000763598,0.0574338,20.9628,34.1237,-0.586366,0.0,0.0
1332,332.75,26.937,27.2009,193.563,100.61,107.146,0.000505878,0.0574424,20.9631,34.0837,-0.567782,0.0,0.0
1344,335.75,26.227,27.835,193.656,100.589,107.49,0.000405961,0.057451,20.9632,33.9836,-0.598644,0.0,0.0
1356,338.75,26.156,27.3218,195.415,100.603,107.399,0.000701261,0.0574452,20.9632,34.0136,-0.589725,0.0,0.0
1368,341.75,26.8519,27.4286,190.261,100.626,107.451,0.00102363,0.0572913,20.963,33.9035,-0.591998,0.0,0.0
1380,344.75,26.3668,27.2243,186.202,100.686,107.37,0.00104531,0.0572459,20.9623,33.9635,-0.579904,0.0,0.0
1392,347.75,26.5299,27.4148,189.349,100.745,107.55,0.000966532,0.057185,20.9621,33.9735,-0.589745,0.0,0.0
1404,350.75,26.5479,27.837,190.807,100.841,107.471,0.000752217,0.0570106,20.9621,33.9335,-0.574517,0.0,0.0
1416,353.75,26.6185,27.7199,192.391,100.948,107.513,0.000546137,0.0570955,20.962,33.8034,-0.568425,0.0,0.0
1428,356.75,26.401,27.5453,193.44,101.056,107.818,0.000547816,0.0568775,20.962,33.8234,-0.584335,0.0,0.0
1440,359.75,26.6064,27.7567,195.409,101.164,107.269,0.000599311,0.0568584,20.962,33.8134,-0.528609,0.0,0.0
1452,362.75,26.7935,27.8048,193.33,101.267,107.767,0.000707679,0.0567919,20.962,33.7934,-0.561206,0.0,0.0
1464,365.75,26.5372,27.7394,199.09,101.377,108.349,0.000779134,0.056827,20.9622,33.8434,-0.600012,0.0,0.0
1476,368.75,26.5587,27.7518,192.215,101.477,108.526,0.000717456,0.0567859,20.9623,33.8334,-0.605887,0.0,0.0
1488,371.75,26.5352,27.3164,192.144,101.578,108.205,0.000650741,0.0569276,20.9619,33.6733,-0.570201,0.0,0.0
1500,374.75,27.1015,27.6445,197.1,101.663,108.396,0.000674426,0.0569342,20.9616,33.6532,-0.578547,0.0,0.0
1512,377.75,26.7513,27.6483,200.646,101.744,108.201,0.000618134,0.0569409,20.9616,33.5832,-0.555168,0.0,0.0
1524,380.75,26.5467,27.9014,194.262,101.8,108.302,0.000562309,0.056764,20.9617,33.453,-0.558507,0.0,0.0
1536,383.75,26.5526,27.8752,195.884,101.841,108.298,0.000681814,0.0565197,20.9622,33.463,-0.554611,0.0,0.0
1548,386.75,27.3471,26.926,189.338,101.867,108.602,0.000670323,0.0562835,20.962,33.4931,-0.577562,0.0,0.0
1560,389.75,26.4723,28.1487,197.661,101.887,108.526,0.000732535,0.0562511,20.9624,33.4831,-0.569503,0.0,0.0
1572,392.75,26.3543,27.8525,189.967,101.897,108.075,0.0010498,0.0564123,20.9626,33.403,-0.531055,0.0,0.0
1584,395.75,26.7958,27.7767,189.416,101.859,108.065,0.00122391,0.0562223,20.9627,33.433,-0.533515,0.0,0.0
1596,398.75,26.5841,27.6597,196.186,101.817,108.025,0.00131762,0.056295,20.9638,33.403,-0.533973,0.0,0.0
1608,401.75,26.6594,27.5946,197.779,101.771,108.362,0.00128542,0.0561362,20.9647,33.4831,-0.566121,0.0,0.0
1620,404.75,26.5928,27.9123,190.309,101.705,107.924,0.00127726,0.0561095,20.9633,33.3629,-0.535447,0.0,0.0
1632,407.75,26.7498,27.7383,193.34,101.62,108.124,0.001106,0.0562199,20.9629,33.3429,-0.559696,0.0,0.0
1644,410.75,27.0605,27.7804,195.926,101.551,107.483,0.000855802,0.056187,20.9627,33.2628,-0.512203,0.0,0.0
1656,413.75,26.672,27.5035,192.812,101.477,107.812,0.000634563,0.0560599,20.961,33.2428,-0.546316,0.0,0.0
1668,416.75,26.8583,27.6714,194.268,101.353,107.872,0.000412584,0.0559731,20.9603,33.2128,-0.562403,0.0,0.0
1680,419.75,26.9794,27.9921,191.789,101.254,107.465,0.000619787,0.0559819,20.9602,33.1427,-0.537097,0.0,0.0
1692,422.75,26.9663,27.6772,194.125,101.147,107.073,0.000926694,0.0557596,20.9601,33.1027,-0.513725,0.0,0.0
1704,425.75,26.5158,27.7165,191.93,101.048,107.585,0.00112209,0.0557823,20.9601,33.1227,-0.565544,0.0,0.0
1716,428.75,26.5125,27.5637,193.74,101.007,107.263,0.00101179,0.0558152,20.9609,32.8424,-0.542174,0.0,0.0
1728,431.75,26.0774,27.3638,198.925,101.17,107.43,0.000762164,0.0556704,20.962,32.9025,-0.541643,0.0,0.0
1740,434.75,26.8487,27.3568,198.388,101.258,107.671,0.000734893,0.0555363,20.9625,32.9726,-0.554044,0.0,0.0
1752,437.75,26.2708,27.5555,193.731,101.328,107.524,0.000896464,0.0552223,20.9614,32.9425,-0.53544,0.0,0.0
1764,440.75,26.3607,27.8482,189.311,101.35,107.339,0.000916187,0.0551333,20.9626,32.8925,-0.517977,0.0,0.0
1776,443.75,26.8073,27.779,197.629,101.366,107.514,0.000697232,0.0551661,20.9627,32.9025,-0.531185,0.0,0.0
1788,446.75,26.7533,27.8852,194.046,101.401,107.627,0.000754038,0.0553474,20.9613,32.8625,-0.537515,0.0,0.0
1800,449.75,26.9979,27.6783,194.763,101.426,107.298,0.00086213,0.0552886,20.9609,32.8324,-0.507668,0.0,0.0
1812,452.75,26.7584,27.4449,192.276,101.419,107.381,0.000748833,0.0553405,20.9608,32.7824,-0.515334,0.0,0.0
1824,455.75,26.7759,28.0282,194.034,101.437,107.373,0.000742974,0.0555268,20.9607,32.6522,-0.513083,0.0,0.0
1836,458.75,26.8622,27.7058,201.952,101.456,107.493,0.000828099,0.0554883,20.9611,32.5622,-0.521449,0.0,0.0
1848,461.75,27.2603,27.4373,191.962,101.461,107.537,0.000724832,0.0553437,20.9618,32.5321,-0.524703,0.0,0.0
1860,464.75,26.3435,27.886,193.356,101.467,107.82,0.000525029,0.0550296,20.962,32.5021,-0.547863,0.0,0.0
1872,467.75,26.69,27.6603,192.067,101.473,107.605,0.000548631,0.055109,20.962,32.5421,-0.529356,0.0,0.0
1884,470.75,26.7511,27.9135,190.881,101.463,107.393,0.000674228,0.0550427,20.962,32.4821,-0.512429,0.0,0.0
1896,473.75,26.5046,27.6854,195.848,101.45,107.607,0.000858824,0.054923,20.962,32.392,-0.5316,0.0,0.0
1908,476.75,26.2348,27.3716,192.777,101.431,107.391,0.00105075,0.054814,20.9614,32.402,-0.515117,0.0,0.0
1920,479.75,26.7407,27.0535,194.192,101.389,107.507,0.00103873,0.0547905,20.9613,32.3519,-0.528661,0.0,0.0
1932,482.75,26.0971,27.6275,192.131,101.382,107.109,0.000890946,0.054737,20.9627,32.3119,-0.495697,0.0,0.0
1944,485.75,26.5429,27.2539,192.621,101.356,107.422,0.000883229,0.0548279,20.9659,32.2719,-0.524338,0.0,0.0
1956,488.75,26.8851,28.1678,193.627,101.314,107.226,0.000678366,0.0548866,20.9671,32.2118,-0.511645,0.0,0.0
1968,491.75,27.0246,28.0755,194.492,101.282,107.047,0.000779615,0.0547159,20.9674,32.1117,-0.499416,0.0,0.0
1980,494.75,26.2088,27.5897,199.96,101.254,107.902,0.00105558,0.0545463,20.9675,32.0016,-0.573725,0.0,0.0
1992,497.75,26.4388,27.3223,191.714,101.228,106.921,0.00103589,0.0546613,20.967,31.9816,-0.493562,0.0,0.0
2004,500.75,25.9803,27.7641,194.737,101.236,107.299,0.00091543,0.0547553,20.9668,32.0416,-0.524727,0.0,0.0
2016,503.75,27.2137,27.9122,197.042,101.248,107.25,0.000890925,0.0546302,20.9667,32.0416,-0.519532,0.0,0.0
2028,506.75,26.464,27.7166,193.478,101.274,106.779,0.000790702,0.0545678,20.9656,31.9315,-0.477564,0.0,0.0
2040,509.75,26.6277,27.1312,193.124,101.269,106.984,0.000758048,0.0545618,20.9658,31.9015,-0.495273,0.0,0.0
2052,512.75,26.6706,27.9353,191.168,101.279,106.984,0.000902827,0.0544759,20.9658,31.8414,-0.49442,0.0,0.0
2064,515.75,26.826,28.0844,195.387,101.301,106.851,0.000909186,0.0544971,20.9659,31.7413,-0.481267,0.0,0.0
2076,518.75,26.8531,27.7501,193.74,101.311,106.931,0.000815725,0.0545181,20.9659,31.7413,-0.487087,0.0,0.0
2088,521.75,26.2841,27.7168,195.584,101.311,107.313,0.000770612,0.0544633,20.9659,31.6913,-0.519266,0.0,0.0
2100,524.75,26.4245,27.9562,195.968,101.325,107.31,0.000781564,0.0543563,20.9659,31.6412,-0.517719,0.0,0.0
2112,527.75,26.9477,27.6631,197.338,101.348,107.161,0.000755953,0.0544188,20.9659,31.5111,-0.503157,0.0,0.0
2124,530.75,27.0404,27.7711,192.928,101.344,107.554,0.000672462,0.0543995,20.9674,31.4911,-0.53653,0.0,0.0
2136,533.75,26.2779,28.1391,195.944,101.381,106.944,0.000725783,0.054115,20.9678,31.4911,-0.481898,0.0,0.0
2148,536.75,26.7791,27.8241,193.711,101.41,107.168,0.00073265,0.0539532,20.9679,31.5111,-0.49817,0.0,0.0
2160,539.75,26.6746,27.7227,196.718,101.405,107.277,0.00069333,0.054016,20.9691,31.371,-0.507808,0.0,0.0
2172,542.75,26.3488,27.4321,192.924,101.43,107.193,0.00073245,0.0540492,20.9696,31.3109,-0.498561,0.0,0.0
2184,545.75,26.7861,27.5856,197.887,101.439,107.162,0.000738473,0.0539235,20.9691,31.2809,-0.495116,0.0,0.0
2196,548.75,26.6125,27.5996,195.387,101.442,106.894,0.000880241,0.0540483,20.9691,31.2909,-0.472242,0.0,0.0
2208,551.75,26.5821,27.6013,200.012,101.45,106.989,0.000838754,0.0540122,20.9675,31.1408,-0.479599,0.0,0.0
2220,554.75,26.712,27.8485,193.45,101.469,107.232,0.000706161,0.053953,20.9658,31.0907,-0.498387,0.0,0.0
2232,557.75,26.8032,27.8375,189.533,101.48,107.343,0.000728945,0.0538675,20.9664,31.0707,-0.506725,0.0,0.0
2244,560.75,26.6324,27.2564,197.055,101.48,107.007,0.000707016,0.0538169,20.9661,31.0507,-0.478428,0.0,0.0
2256,563.75,27.0529,27.1048,193.857,101.471,107.163,0.000682525,0.0537429,20.9659,31.0106,-0.492419,0.0,0.0
2268,566.75,26.7805,27.3618,190.007,101.492,107.12,0.000634296,0.0536936,20.9658,30.9906,-0.486958,0.0,0.0
2280,569.75,26.7385,28.3766,192.25,101.497,107.06,0.00072778,0.0536398,20.9658,30.9506,-0.481386,0.0,0.0
2292,572.75,26.9265,27.523,190.806,101.486,107.031,0.000773155,0.0535756,20.9658,30.9005,-0.479868,0.0,0.0
2304,575.75,26.5152,28.5012,194.547,101.47,106.796,0.000786138,0.0536584,20.9651,30.9506,-0.461517,0.0,0.0
2316,578.75,26.8548,27.7106,197.152,101.477,107.449,0.000683166,0.0536253,20.9646,30.7704,-0.515955,0.0,0.0
2328,581.75,26.5352,27.7435,192.61,101.463,106.823,0.000736731,0.0535364,20.9644,30.7704,-0.464369,0.0,0.0
2340,584.75,26.7618,27.8358,192.556,101.442,106.912,0.000928977,0.0536,20.9641,30.5802,-0.473797,0.0,0.0
2352,587.75,26.683,27.6655,199.695,101.408,107.02,0.00088262,0.0536243,20.9641,30.5602,-0.485981,0.0,0.0
2364,590.75,26.5146,27.7717,193.715,101.396,106.865,0.000780562,0.0533904,20.9629,30.5101,-0.473947,0.0,0.0
2376,593.75,26.6569,27.6974,198.421,101.366,107.225,0.00085436,0.0532108,20.9623,30.4501,-0.506985,0.0,0.0
2388,596.75,26.5908,27.9774,195.528,101.317,107.13,0.000999505,0.0531802,20.9634,30.4701,-0.503332,0.0,0.0
2400,599.75,26.8533,28.1803,197.145,101.293,107.124,0.000914997,0.053095,20.9641,30.33,-0.504937,0.0,0.0
2412,602.75,26.7068,28.4258,192.173,101.287,106.685,0.000781097,0.053182,20.9643,30.35,-0.468409,0.0,0.0
2424,605.75,26.7171,28,193.058,101.268,106.744,0.000697455,0.0533666,20.9643,30.1998,-0.475094,0.0,0.0
2436,608.75,26.5134,28.2646,193.579,101.284,106.67,0.000645505,0.0531254,20.9643,30.2599,-0.467445,0.0,0.0
2448,611.75,27.2538,27.9006,197.793,101.301,107.124,0.000567323,0.0530517,20.9643,30.1298,-0.504214,0.0,0.0
2460,614.75,26.5521,28.0684,194.247,101.307,106.787,0.000537237,0.0528953,20.9643,30.1698,-0.475237,0.0,0.0
2472,617.75,27.2894,27.7287,191.451,101.321,106.938,0.000652869,0.0529032,20.9643,30.0997,-0.486758,0.0,0.0
2484,620.75,26.8819,28.372,196.697,101.344,106.42,0.000807941,0.0527827,20.9643,30.0897,-0.440973,0.0,0.0
2496,623.75,26.7756,27.5521,190.498,101.385,106.805,0.000730872,0.0527669,20.9655,29.9796,-0.469914,0.0,0.0
2508,626.75,27.1503,27.8687,198.106,101.442,106.846,0.000550783,0.0528586,20.9659,29.9796,-0.468242,0.0,0.0
2520,629.75,26.7255,27.3496,188.655,101.49,107.497,0.000599251,0.052773,20.966,29.8595,-0.51876,0.0,0.0
2532,632.75,27.275,28.4949,194.256,101.554,107.145,0.000696312,0.0527231,20.966,29.7894,-0.48348,0.0,0.0
2544,635.75,26.3108,27.7389,191.935,101.626,107.107,0.00057414,0.05276,20.966,29.7694,-0.473835,0.0,0.0
2556,638.75,26.6045,27.2164,193.775,101.685,107.04,0.000484702,0.0528411,20.966,29.7894,-0.462967,0.0,0.0
2568,641.75,26.762,28.4336,188.588,101.747,107.308,0.00059409,0.0528566,20.9673,29.7294,-0.480111,0.0,0.0
2580,644.75,27.1612,28.0397,189.782,101.791,107.083,0.000682864,0.0528044,20.9661,29.5792,-0.457276,0.0,0.0
2592,647.75,26.9379,27.3178,190.684,101.824,107.148,0.000736268,0.0527809,20.9648,29.6092,-0.459803,0.0,0.0
2604,650.75,26.9763,27.6139,197.468,101.88,106.713,0.000705708,0.0526278,20.9645,29.5692,-0.418155,0.0,0.0
2616,653.75,26.7289,27.9524,192.359,101.92,107.305,0.000685814,0.0525391,20.9644,29.5091,-0.464539,0.0,0.0
2628,656.75,26.4282,27.4399,192.657,101.945,107.139,0.00070004,0.0527837,20.9653,29.399,-0.448245,0.0,0.0
2640,659.75,26.8549,27.6894,197.165,101.972,106.969,0.000755546,0.0526104,20.9657,29.4591,-0.431564,0.0,0.0
2652,662.75,26.9452,27.7948,194.961,102,107.521,0.000716279,0.0525562,20.9658,29.359,-0.475602,0.0,0.0
2664,665.75,26.5998,27.6891,193.395,102.004,107.291,0.000597305,0.0526101,20.9647,29.2889,-0.455905,0.0,0.0
2676,668.75,27.4896,28.3039,198.964,101.988,107.357,0.000557767,0.0526394,20.9658,29.1788,-0.462859,0.0,0.0
2688,671.75,27.3286,28.2345,202.96,101.956,107.361,0.000620672,0.0525103,20.9669,29.1588,-0.466004,0.0,0.0
2700,674.75,26.6526,27.8441,194.625,101.92,107.173,0.000608918,0.0524949,20.9686,29.1288,-0.453403,0.0,0.0
2712,677.75,27.3643,27.6648,196.078,101.865,107.214,0.000562524,0.052359,20.9691,28.9686,-0.461745,0.0,0.0
2724,680.75,27.4501,27.6057,196.811,101.814,107.078,0.00061653,0.0523195,20.9678,29.0187,-0.45478,0.0,0.0
2736,683.75,27.0277,27.6028,195.252,101.761,107.151,0.000706969,0.0520246,20.9687,28.8285,-0.465627,0.0,0.0
2748,686.75,26.8432,27.5527,191.428,101.687,106.936,0.000916238,0.0520022,20.9694,28.9186,-0.454069,0.0,0.0
2760,689.75,27.3519,28.6206,191.52,101.588,106.802,0.000878675,0.0520752,20.9696,28.8785,-0.451608,0.0,0.0
2772,692.75,26.8272,28.4408,191.253,101.477,107.165,0.000765738,0.0519364,20.9692,28.7984,-0.492013,0.0,0.0
2784,695.75,27.4862,28.3386,195.407,101.358,106.602,0.00085274,0.0518529,20.969,28.6383,-0.455055,0.0,0.0
2796,698.75,26.7519,27.3484,189.605,101.222,106.226,0.000991526,0.0519687,20.9695,28.6683,-0.435312,0.0,0.0
2808,701.75,26.2165,27.8125,193.019,101.078,106.091,0.00102446,0.0517884,20.9698,28.5682,-0.43664,0.0,0.0
2820,704.75,26.9558,27.8131,192.697,100.962,106.097,0.000852148,0.0515693,20.9698,28.5782,-0.447615,0.0,0.0
2832,707.75,27.0969,27.7391,189.327,100.845,105.568,0.000726263,0.0516914,20.9709,28.6183,-0.412919,0.0,0.0
2844,710.75,27.0293,27.7829,197.098,100.743,106.295,0.000782328,0.0516375,20.9712,28.4881,-0.483973,0.0,0.0
2856,713.75,26.6321,27.7992,192.459,100.675,106.12,0.000955611,0.0518747,20.9696,28.5582,-0.475172,0.0,0.0
2868,716.75,27.1333,27.9829,194.839,100.641,105.594,0.00109174,0.0518037,20.9692,28.4381,-0.433428,0.0,0.0
2880,719.75,26.9975,27.6763,188.984,100.632,105.809,0.00104755,0.051691,20.969,28.4181,-0.452606,0.0,0.0
2892,722.75,26.9948,28.1494,195.383,100.649,106.039,0.000789217,0.0517196,20.969,28.348,-0.470669,0.0,0.0
2904,725.75,27.0008,28.3841,188.864,100.687,105.878,0.000561081,0.0517765,20.969,28.1278,-0.453575,0.0,0.0
2916,728.75,26.7826,27.5348,201.479,100.763,105.939,0.000660853,0.0517102,20.969,28.0977,-0.451905,0.0,0.0
2928,731.75,26.6792,27.2209,191.764,100.821,105.997,0.000849082,0.0516213,20.969,28.0877,-0.451703,0.0,0.0
2940,734.75,26.0547,27.6706,195.372,100.923,106.652,0.0010127,0.0515367,20.969,28.0377,-0.498117,0.0,0.0
2952,737.75,26.7737,28.148,195.497,101.029,106.194,0.00107649,0.0514513,20.969,28.1078,-0.449809,0.0,0.0
2964,740.75,26.3327,27.5016,197.991,101.145,106.251,0.000933589,0.051396,20.969,27.8875,-0.444242,0.0,0.0
2976,743.75,27.3267,28.4064,192.486,101.262,106.346,0.000775748,0.0512998,20.969,27.8775,-0.441941,0.0,0.0
2988,746.75,27.0609,27.7077,192.586,101.367,106.41,0.000678864,0.0511144,20.969,27.8275,-0.438034,0.0,0.0
3000,749.75,26.5132,28.4062,196.03,101.464,106.525,0.00060814,0.0511191,20.969,27.8275,-0.439135,0.0,0.0
3012,752.75,26.518,27.8408,191.459,101.533,106.611,0.000604971,0.0512107,20.969,27.7374,-0.440277,0.0,0.0
3024,755.75,26.6653,27.8477,193.076,101.619,106.736,0.000655856,0.0513138,20.969,27.6673,-0.443192,0.0,0.0
3036,758.75,26.8154,27.8146,197.925,101.691,106.903,0.000690857,0.0510703,20.969,27.6773,-0.450989,0.0,0.0
3048,761.75,26.8465,27.7405,191.937,101.752,106.714,0.000698725,0.0510459,20.9695,27.6373,-0.429534,0.0,0.0
3060,764.75,26.7994,27.6247,194.544,101.799,106.926,0.000740996,0.0511798,20.9701,27.5672,-0.443263,0.0,0.0
3072,767.75,26.4592,27.9543,198.459,101.856,106.998,0.00060038,0.0512418,20.9702,27.5472,-0.444335,0.0,0.0
3084,770.75,26.6264,27.5617,194.266,101.892,106.903,0.000613426,0.0511894,20.9703,27.5272,-0.43313,0.0,0.0
3096,773.75,27.126,28.1296,199.093,101.905,106.998,0.000796542,0.0511656,20.9703,27.4071,-0.439992,0.0,0.0
3108,776.75,26.7598,27.8338,194.343,101.926,107.304,0.000821017,0.0511108,20.9703,27.367,-0.463876,0.0,0.0
3120,779.75,27.0662,27.533,191.781,101.931,107.25,0.000688509,0.0510428,20.9703,27.4071,-0.458908,0.0,0.0
3132,782.75,26.929,28.381,195.914,101.955,106.511,0.000705294,0.051113,20.9703,27.347,-0.394464,0.0,0.0
3144,785.75,26.8088,27.8141,193.558,101.951,106.922,0.000509527,0.0512342,20.9685,27.2169,-0.429453,0.0,0.0
3156,788.75,26.9572,27.9411,188.556,101.929,106.92,0.00032535,0.0512444,20.9676,27.2369,-0.431246,0.0,0.0
3168,791.75,26.4284,28.0578,195.957,101.922,106.941,0.000360658,0.0512688,20.9675,27.1468,-0.433692,0.0,0.0
3180,794.75,26.8749,28.0266,190.742,101.888,107.288,0.000415392,0.0513273,20.968,27.1068,-0.465937,0.0,0.0
3192,797.75,26.7861,27.6359,198.277,101.849,106.984,0.000546879,0.0512171,20.9681,26.9066,-0.443745,0.0,0.0
3204,800.75,26.9476,27.8568,193.486,101.807,106.609,0.000612121,0.0510385,20.969,26.8765,-0.415847,0.0,0.0
3216,803.75,26.6462,27.618,197.011,101.746,106.655,0.000484113,0.0509559,20.9696,26.9366,-0.425099,0.0,0.0
3228,806.75,26.1965,27.7194,196.484,101.684,107.193,0.000446545,0.0510856,20.9696,26.7664,-0.476025,0.0,0.0
3240,809.75,27.1593,27.739,198.644,101.631,106.476,0.000551085,0.0508001,20.9701,26.7664,-0.420134,0.0,0.0
3252,812.75,27.131,27.6909,189.065,101.531,106.585,0.000526541,0.0507777,20.9698,26.8065,-0.438328,0.0,0.0
3264,815.75,27.1866,27.9051,198.057,101.449,106.53,0.000718179,0.050746,20.9697,26.7464,-0.440882,0.0,0.0
3276,818.75,26.9273,28.2482,194.236,101.374,106.204,0.000784534,0.0508229,20.9696,26.6263,-0.419916,0.0,0.0
3288,821.75,26.748,27.8205,197.363,101.295,106.235,0.000775329,0.0509057,20.9696,26.5762,-0.42965,0.0,0.0
3300,824.75,26.226,28.3069,195.581,101.217,106.651,0.000663082,0.0507346,20.9696,26.4962,-0.471791,0.0,0.0
3312,827.75,26.9115,27.8695,197.777,101.153,106.228,0.000638674,0.0505471,20.9696,26.4261,-0.441578,0.0,0.0
3324,830.75,26.562,28.0494,197.439,101.073,105.717,0.000623578,0.0504314,20.9696,26.4661,-0.405295,0.0,0.0
3336,833.75,26.8721,28.1626,195.752,101.092,106.088,0.000570595,0.0505427,20.9696,26.4862,-0.435168,0.0,0.0
3348,836.75,26.3829,27.8292,191.692,101.215,105.849,0.000577598,0.0506301,20.9696,26.4161,-0.403854,0.0,0.0
3360,839.75,25.9079,27.7664,195.646,101.323,106.312,0.000618773,0.0504257,20.9708,26.366,-0.433603,0.0,0.0
3372,842.75,26.9612,28.3705,194.572,101.385,106.605,0.000694361,0.050437,20.97,26.326,-0.452952,0.0,0.0
3384,845.75,26.9296,27.4713,190.816,101.397,106.542,0.000856841,0.0505307,20.9698,26.2659,-0.446495,0.0,0.0
3396,848.75,27.3855,27.7272,193.429,101.394,106.287,0.000838226,0.0505105,20.9697,26.1158,-0.425186,0.0,0.0
3408,851.75,26.6227,27.4451,195.027,101.436,106.254,0.000929864,0.0505482,20.9696,26.0657,-0.418576,0.0,0.0
3420,854.75,26.6021,27.568,195.639,101.456,106.332,0.0010118,0.0504674,20.9697,25.8555,-0.423519,0.0,0.0
3432,857.75,26.9883,27.8898,198.764,101.442,106.185,0.000893731,0.0505219,20.9703,25.9656,-0.41227,0.0,0.0
3444,860.75,26.7659,27.7834,192.159,101.452,106.789,0.000890714,0.0503464,20.9704,25.9857,-0.46253,0.0,0.0
3456,863.75,26.3799,26.9919,192.67,101.468,106.36,0.000904365,0.0502782,20.9705,25.8856,-0.424824,0.0,0.0
3468,866.75,26.5184,26.9015,199.238,101.452,106.619,0.000836928,0.0503259,20.97,25.7755,-0.448222,0.0,0.0
3480,869.75,26.8994,27.5478,195.266,101.44,106.366,0.000700762,0.0503579,20.9697,25.8455,-0.427773,0.0,0.0
3492,872.75,26.991,28.4186,195.549,101.412,106.426,0.000704712,0.0503246,20.9697,25.7855,-0.43541,0.0,0.0
3504,875.75,25.9784,27.7758,193.437,101.377,106.416,0.000832887,0.0504121,20.9696,25.6353,-0.437658,0.0,0.0
3516,878.75,26.5742,27.8985,191.161,101.346,106.75,0.000752895,0.0502641,20.9692,25.6053,-0.468665,0.0,0.0
3528,881.75,26.7692,27.3993,194.959,101.319,106.829,0.000710921,0.0503732,20.9691,25.6954,-0.477728,0.0,0.0
3540,884.75,27.0569,28.0911,190.41,101.262,106.167,0.00083846,0.0502931,20.969,25.5652,-0.426788,0.0,0.0
3552,887.75,26.6021,27.9691,194.579,101.226,105.871,0.000769879,0.0501557,20.9698,25.5953,-0.40471,0.0,0.0
3564,890.75,26.7721,27.7592,200.264,101.258,106.201,0.00091528,0.050182,20.9696,25.4651,-0.429931,0.0,0.0
3576,893.75,26.7599,27.8095,195.778,101.288,106.126,0.000992713,0.0501735,20.9691,25.3951,-0.420881,0.0,0.0
3588,896.75,26.6641,27.7976,196.14,101.328,106.498,0.000843357,0.0502453,20.969,25.4251,-0.448939,0.0,0.0
3600,899.75,27.0882,27.6206,198.367,101.379,106.325,0.000767599,0.0500967,20.9705,25.3851,-0.42978,0.0,0.0
3612,902.75,26.9628,27.5593,192.664,101.423,106.17,0.000817672,0.050038,20.9699,25.285,-0.412659,0.0,0.0
3624,905.75,26.6936,28.0315,190.226,101.428,106.485,0.00103521,0.0500565,20.9697,25.295,-0.438944,0.0,0.0
3636,908.75,26.8721,28.0741,197.203,101.463,106.279,0.00125121,0.0500084,20.9697,25.2449,-0.418301,0.0,0.0
3648,911.75,26.9792,28.2635,194.579,101.481,106.42,0.00125513,0.050181,20.9696,25.1849,-0.428699,0.0,0.0
3660,914.75,26.5352,27.8915,193.469,101.52,106.351,0.00106705,0.0501215,20.9696,25.1048,-0.419364,0.0,0.0
3672,917.75,26.8896,28.0062,190.757,101.56,106.187,0.000923383,0.0500002,20.9696,25.0648,-0.40198,0.0,0.0
3684,920.75,26.3541,27.497,196.879,101.578,106.656,0.000746472,0.0500328,20.9703,25.0547,-0.440106,0.0,0.0
3696,923.75,26.871,27.5682,191.619,101.611,106.195,0.00068129,0.0498891,20.9692,24.9146,-0.398096,0.0,0.0
3708,926.75,26.7234,27.9789,190.366,101.653,106.379,0.00075661,0.049995,20.9683,24.8445,-0.409959,0.0,0.0
3720,929.75,26.845,27.6108,191.814,101.686,106.701,0.000966183,0.0499845,20.969,24.8445,-0.434297,0.0,0.0
3732,932.75,26.9168,27.8549,197.682,101.725,106.571,0.0010733,0.0498008,20.9699,24.8245,-0.419804,0.0,0.0
3744,935.75,26.7697,27.682,198.022,101.764,106.798,0.000965636,0.0498111,20.9708,24.7745,-0.435568,0.0,0.0
3756,938.75,26.7627,27.9632,194.675,101.795,106.985,0.000885132,0.0498589,20.9706,24.6043,-0.448561,0.0,0.0
3768,941.75,26.9272,28.0392,197.903,101.842,106.287,0.000644585,0.0499346,20.9697,24.6243,-0.38546,0.0,0.0
3780,944.75,26.729,27.9479,192.135,101.861,106.63,0.000507503,0.0496557,20.9695,24.5242,-0.412841,0.0,0.0
3792,947.75,26.8391,27.7072,190.284,101.891,107.298,0.000606089,0.0496456,20.9693,24.5342,-0.466466,0.0,0.0
3804,950.75,27.0778,27.9397,194.482,101.931,106.769,0.000882868,0.049541,20.9691,24.4942,-0.418293,0.0,0.0
3816,953.75,26.7583,27.8766,191.493,101.959,106.763,0.00106377,0.0495702,20.969,24.4441,-0.415329,0.0,0.0
3828,956.75,26.6483,27.9695,194.172,101.963,106.606,0.00111019,0.0495008,20.969,24.4642,-0.401739,0.0,0.0
3840,959.75,26.8543,27.759,195.762,101.974,106.974,0.00114046,0.0495931,20.9706,24.354,-0.431888,0.0,0.0
3852,962.75,26.6999,27.7084,200.95,101.984,106.419,0.00119925,0.0495019,20.9706,24.284,-0.384089,0.0,0.0
3864,965.75,26.4518,27.6099,193.041,101.988,106.836,0.0012286,0.0494462,20.9701,24.314,-0.418878,0.0,0.0
3876,968.75,27.2025,27.6358,191.399,101.994,106.511,0.00119534,0.0494532,20.9699,24.274,-0.390978,0.0,0.0
3888,971.75,26.7722,27.6952,192.616,101.963,106.634,0.00108332,0.0495379,20.9701,24.254,-0.404103,0.0,0.0
3900,974.75,27.1491,27.8142,192.189,101.92,106.547,0.00107434,0.0496665,20.9718,24.1639,-0.400501,0.0,0.0
3912,977.75,26.6262,28.1746,190.751,101.871,106.443,0.00101517,0.0496294,20.9719,24.0638,-0.396082,0.0,0.0
3924,980.75,27.2476,27.5253,196.132,101.816,106.61,0.000920222,0.04951,20.9708,23.9937,-0.415077,0.0,0.0
3936,983.75,26.8712,27.6508,192.538,101.773,106.684,0.000937352,0.0493242,20.9712,23.9036,-0.425096,0.0,0.0
3948,986.75,27.1183,27.6781,193.441,101.719,106.577,0.000914676,0.0492121,20.9714,23.8435,-0.420892,0.0,0.0
3960,989.75,26.8649,28.0944,190.251,101.67,106.204,0.000960193,0.0491731,20.9706,24.0137,-0.393621,0.0,0.0
3972,992.75,26.9385,27.6708,196.815,101.617,105.945,0.000821496,0.0493519,20.9713,23.7835,-0.376328,0.0,0.0
3984,995.75,26.957,27.7351,195.938,101.543,106.667,0.000513517,0.049479,20.9729,23.8035,-0.444082,0.0,0.0
3996,998.75,26.8081,27.8226,193.464,101.473,106.286,0.000566595,0.0494201,20.9727,23.7835,-0.418091,0.0,0.0
4008,1001.75,26.86,27.8348,192.791,101.404,106.263,0.000648479,0.0494597,20.9726,23.6133,-0.422295,0.0,0.0
4020,1004.75,26.8263,27.5937,193.37,101.37,106.078,0.000856352,0.0492117,20.9726,23.5833,-0.409585,0.0,0.0
4032,1007.75,26.7818,27.3632,189.32,101.319,106.093,0.000968394,0.0492526,20.9726,23.6534,-0.415388,0.0,0.0
4044,1010.75,26.5465,27.8616,193.751,101.294,106.099,0.000906722,0.0492035,20.9726,23.5032,-0.41812,0.0,0.0
4056,1013.75,26.6443,27.6864,193.839,101.252,106.174,0.000730032,0.0492775,20.9726,23.5332,-0.428174,0.0,0.0
4068,1016.75,27.2004,28.1872,194.398,101.231,106.324,0.00059476,0.0493475,20.9723,23.5533,-0.442791,0.0,0.0
4080,1019.75,26.9317,27.754,193.54,101.192,106.076,0.000505674,0.0494912,20.9723,23.323,-0.425198,0.0,0.0
4092,1022.75,26.6868,28.0262,192.876,101.167,105.993,0.000431603,0.0494545,20.9739,23.3431,-0.420427,0.0,0.0
4104,1025.75,26.6846,27.7815,192.928,101.147,105.985,0.000357002,0.0491519,20.9733,23.253,-0.421569,0.0,0.0
4116,1028.75,26.96,27.433,194.308,101.139,106.142,0.000331868,0.0490435,20.9729,23.2329,-0.435554,0.0,0.0
4128,1031.75,26.7366,27.8198,194.259,101.143,105.739,0.000554746,0.0491629,20.9728,23.2229,-0.400879,0.0,0.0
4140,1034.75,26.7627,27.8215,192.113,101.164,105.943,0.000580702,0.0491712,20.9723,23.1629,-0.416392,0.0,0.0
4152,1037.75,26.8933,27.8011,197.563,101.175,105.878,0.000520567,0.049125,20.972,23.1729,-0.409834,0.0,0.0
4164,1040.75,27.0314,28.2043,192.271,101.182,106.024,0.000352451,0.0492757,20.972,23.1128,-0.421745,0.0,0.0
4176,1043.75,27.1494,28.2049,195.117,101.173,105.769,0.000378065,0.0495494,20.9721,23.0928,-0.400762,0.0,0.0
4188,1046.75,26.7565,28.2789,192.87,101.158,106.239,0.00066567,0.0496404,20.9726,23.0428,-0.442143,0.0,0.0
4200,1049.75,26.7468,28.2798,195.143,101.149,106.138,0.000847604,0.0498665,20.9728,22.9527,-0.434276,0.0,0.0
4212,1052.75,26.7374,28.0372,196.031,101.144,105.668,0.000971055,0.0499269,20.9728,22.9727,-0.394771,0.0,0.0
4224,1055.75,26.6165,27.8981,201.097,101.141,105.514,0.000936627,0.0499041,20.9728,22.8325,-0.381913,0.0,0.0
4236,1058.75,26.9742,27.7996,190.274,101.136,106.272,0.000873034,0.0502892,20.9728,22.8426,-0.44692,0.0,0.0
4248,1061.75,26.3623,27.519,195.071,101.162,106.302,0.00072417,0.0506077,20.9727,22.4722,-0.44714,0.0,0.0
4260,1064.75,26.7117,27.5813,194.266,101.151,106.927,0.000652344,0.0506624,20.9717,22.7625,-0.501003,0.0,0.0
4272,1067.75,27.0301,27.6998,194.185,101.163,106.087,0.000543116,0.0509478,20.9705,22.7024,-0.428804,0.0,0.0
4284,1070.75,26.7556,27.8784,195.655,101.149,106.196,0.000599256,0.0512425,20.9694,22.6424,-0.43929,0.0,0.0
4296,1073.75,26.951,28.0615,192.062,101.136,105.648,0.000626732,0.0515085,20.9691,22.6023,-0.393792,0.0,0.0
4308,1076.75,26.4845,28.0177,187.546,101.143,105.857,0.000579708,0.0515784,20.9687,22.4822,-0.411001,0.0,0.0
4320,1079.75,26.9609,27.8716,193.411,101.134,106.412,0.000762777,0.051784,20.9683,22.5122,-0.458941,0.0,0.0
4332,1082.75,27.0625,27.9975,190.529,101.132,105.622,0.00100639,0.0520994,20.9682,22.3921,-0.391924,0.0,0.0
4344,1085.75,27.1814,27.7733,192.617,101.126,105.995,0.000893632,0.0524328,20.9682,22.3321,-0.424266,0.0,0.0
4356,1088.75,27.0203,27.4658,191.819,101.13,106.121,0.000754367,0.0525444,20.9686,22.312,-0.434611,0.0,0.0
4368,1091.75,26.9677,27.3675,201.616,101.119,105.722,0.000817214,0.052871,20.9674,22.3521,-0.40164,0.0,0.0
4380,1094.75,26.9844,27.4604,202.329,101.112,106.465,0.000913115,0.0529905,20.967,22.302,-0.465369,0.0,0.0
4392,1097.75,26.7115,28.4702,190.587,101.114,106.029,0.00091829,0.0531417,20.9669,22.232,-0.428203,0.0,0.0
4404,1100.75,27.2833,27.7486,196.948,101.123,105.829,0.000863949,0.0532863,20.9669,22.1419,-0.410406,0.0,0.0
4416,1103.75,26.6847,28.2956,191.532,101.137,106.039,0.000768343,0.0534105,20.9653,22.1319,-0.42699,0.0,0.0
4428,1106.75,27.2853,27.2701,199.555,101.138,105.613,0.000676933,0.0535901,20.9648,22.0117,-0.39061,0.0,0.0
4440,1109.75,26.7829,28.0064,199.053,101.157,106.06,0.000597883,0.0537585,20.9645,21.8316,-0.427002,0.0,0.0
4452,1112.75,26.7415,27.5166,196.523,101.181,105.939,0.000745906,0.0538958,20.9644,21.9817,-0.414539,0.0,0.0
4464,1115.75,26.7999,27.9304,191.985,101.197,106.177,0.00086991,0.0541365,20.9644,21.8716,-0.433343,0.0,0.0
4476,1118.75,27.1316,27.7159,194.956,101.189,106.019,0.000763462,0.0543622,20.9644,21.8316,-0.420667,0.0,0.0
4488,1121.75,26.769,27.9711,194.849,101.186,106.402,0.000715928,0.0545518,20.9644,21.8015,-0.453423,0.0,0.0
4500,1124.75,26.9282,27.9427,192.315,101.186,106.069,0.00070644,0.0546796,20.9628,21.8215,-0.425201,0.0,0.0
4512,1127.75,27.0841,27.9384,190.699,101.218,105.646,0.000717823,0.0547024,20.9623,21.7415,-0.386297,0.0,0.0
4524,1130.75,27.1881,27.568,193.996,101.223,105.616,0.00073638,0.0548602,20.9626,21.6414,-0.383272,0.0,0.0
4536,1133.75,26.7084,27.9365,196.795,101.211,105.993,0.000831163,0.0550166,20.9615,21.5313,-0.416484,0.0,0.0
4548,1136.75,27.0267,27.7162,199.857,101.234,106.103,0.000975536,0.0553256,20.9609,21.6113,-0.423811,0.0,0.0
4560,1139.75,27.1124,28.0978,199.683,101.246,106.139,0.0010889,0.055463,20.9604,21.5513,-0.425761,0.0,0.0
4572,1142.75,26.7335,27.8746,195.714,101.247,106.022,0.00112351,0.0556636,20.9592,21.4912,-0.415738,0.0,0.0
4584,1145.75,27.0765,27.9429,199.364,101.281,105.636,0.000894614,0.0559067,20.958,21.4912,-0.379803,0.0,0.0
4596,1148.75,26.9623,27.9187,191.987,101.322,106.364,0.000773474,0.0560262,20.9593,21.301,-0.438111,0.0,0.0
4608,1151.75,26.6477,27.76,203.855,101.35,106.293,0.000911128,0.0561751,20.9596,21.291,-0.429634,0.0,0.0
4620,1154.75,27.2535,27.9902,201.824,101.382,106.419,0.000849518,0.0563908,20.9589,21.1809,-0.437444,0.0,0.0
4632,1157.75,26.5277,27.8872,192.929,101.42,106.345,0.000627774,0.0565627,20.9595,21.1509,-0.427789,0.0,0.0
4644,1160.75,26.6339,27.9231,194.759,101.465,106.596,0.000756712,0.05648,20.9597,21.241,-0.445095,0.0,0.0
4656,1163.75,26.947,28.1581,193.587,101.496,106.392,0.00107494,0.0564739,20.9597,21.1209,-0.42508,0.0,0.0
4668,1166.75,26.7295,28.2641,195.11,101.522,106.273,0.00106641,0.0567365,20.9597,21.0107,-0.412528,0.0,0.0
4680,1169.75,26.1565,28.2803,195.498,101.559,106.442,0.00091589,0.0566728,20.9588,20.9307,-0.423661,0.0,0.0
4692,1172.75,26.6849,28.1402,193.476,101.609,106.549,0.000856716,0.0567474,20.9572,20.9407,-0.428225,0.0,0.0
4704,1175.75,26.9443,28.1402,193.174,101.652,106.661,0.000689472,0.0569979,20.9578,21.0208,-0.433926,0.0,0.0
4716,1178.75,27.0933,27.7645,186.988,101.678,106.564,0.000694811,0.0571339,20.9575,20.9207,-0.42346,0.0,0.0
4728,1181.75,27.2257,28.0235,202.533,101.718,106.823,0.000855126,0.0572543,20.9563,20.9006,-0.441776,0.0,0.0
4740,1184.75,26.9493,28.3298,194.653,101.765,107.009,0.00103354,0.0574352,20.9559,20.6804,-0.453253,0.0,0.0
4752,1187.75,27.2341,27.8137,190.932,101.808,107.223,0.00109708,0.0576322,20.9558,20.7305,-0.467532,0.0,0.0
4764,1190.75,26.8309,28.1413,195.02,101.85,107.047,0.000942019,0.0576186,20.9558,20.7805,-0.448992,0.0,0.0
4776,1193.75,27.4333,28.051,191.738,101.891,107.026,0.000871713,0.05767,20.9565,20.5903,-0.4436,0.0,0.0
4788,1196.75,26.8699,28.226,195.955,101.918,107.371,0.000991425,0.0576597,20.9574,20.6104,-0.470248,0.0,0.0
4800,1199.75,27.223,27.9796,190.945,101.947,106.618,0.00099798,0.0577891,20.9568,20.6104,-0.404162,0.0,0.0
4812,1202.75,25.0162,26.4092,195.392,101.96,106.983,0.000846117,0.0578491,20.9568,20.5002,-0.433828,0.0,0.0
4824,1205.75,25.2037,26.1496,193.215,101.978,106.86,0.000752028,0.0581139,20.9557,20.4802,-0.421911,0.0,0.0
4836,1208.75,25.3427,26.2169,193.293,101.985,106.876,0.000918203,0.0582053,20.9553,20.4302,-0.422561,0.0,0.0
4848,1211.75,25.8357,26.5159,196.395,101.98,107.164,0.00103318,0.0583975,20.9551,20.21,-0.447252,0.0,0.0
4860,1214.75,25.5143,26.4281,195.02,101.972,107.008,0.00105465,0.0585223,20.9557,20.25,-0.434901,0.0,0.0
4872,1217.75,25.2971,26.2872,190.26,101.968,107.1,0.00089229,0.0586186,20.9569,20.3401,-0.442999,0.0,0.0
4884,1220.75,25.4842,26.4193,194.078,101.954,106.691,0.000681313,0.0587088,20.9573,20.1999,-0.409712,0.0,0.0
4896,1223.75,25.4617,26.505,194.862,101.914,107.357,0.000646675,0.0589236,20.9577,20.1699,-0.46937,0.0,0.0
4908,1226.75,25.4694,26.5235,195.214,101.879,106.788,0.000642786,0.0590856,20.9574,20.1299,-0.424519,0.0,0.0
4920,1229.75,25.6988,26.4859,192.705,101.854,106.797,0.000674519,0.0591942,20.9553,20.1299,-0.427537,0.0,0.0
4932,1232.75,25.4669,26.6551,190.726,101.824,106.717,0.000731286,0.059181,20.9547,20.0198,-0.423449,0.0,0.0
4944,1235.75,25.5228,26.464,193.721,101.775,106.614,0.00108725,0.0593347,20.9545,20.0198,-0.419093,0.0,0.0
4956,1238.75,25.6197,26.7453,196.928,101.733,106.497,0.00127521,0.0593505,20.9545,19.9097,-0.412872,0.0,0.0
4968,1241.75,25.6488,26.5609,194.515,101.687,106.948,0.0012114,0.059375,20.9544,19.8696,-0.455092,0.0,0.0
4980,1244.75,25.6097,26.7033,191.064,101.649,106.571,0.0011585,0.0593854,20.9543,19.7795,-0.426546,0.0,0.0
4992,1247.75,25.3623,26.4622,195.63,101.588,106.649,0.0010521,0.0593964,20.9552,19.8296,-0.438645,0.0,0.0
5004,1250.75,25.6283,26.7676,196.922,101.54,106.511,0.000917306,0.0595515,20.9552,19.6894,-0.431217,0.0,0.0
5016,1253.75,25.2777,26.4661,195.572,101.486,106.482,0.000889811,0.0596155,20.9539,19.6394,-0.433537,0.0,0.0
5028,1256.75,25.6655,26.7163,191.811,101.429,106.612,0.000938636,0.0597653,20.9536,19.6894,-0.449614,0.0,0.0
5040,1259.75,25.667,26.9099,195.494,101.384,106.718,0.000998236,0.0598605,20.9535,19.6494,-0.462582,0.0,0.0
5052,1262.75,25.3959,26.3006,196.72,101.308,106.434,0.00101762,0.0599915,20.9521,19.5994,-0.44529,0.0,0.0
5064,1265.75,25.6171,26.9409,194.109,101.26,106.203,0.000947866,0.0601381,20.9525,19.4692,-0.43004,0.0,0.0
5076,1268.75,25.6743,26.8883,196.728,101.219,106.094,0.000914593,0.0602711,20.9532,19.3691,-0.424357,0.0,0.0
5088,1271.75,25.5673,26.76,192.465,101.274,106.413,0.000910856,0.060384,20.9536,19.3791,-0.446526,0.0,0.0
5100,1274.75,25.3954,26.7271,192.988,101.331,106.401,0.000895984,0.0602924,20.9543,19.3591,-0.440442,0.0,0.0
5112,1277.75,25.9453,26.7398,197.191,101.406,106.181,0.000687704,0.0605069,20.9537,19.3491,-0.415107,0.0,0.0
5124,1280.75,25.6618,26.455,192.724,101.429,106.211,0.000538166,0.0605924,20.9545,19.3191,-0.41563,0.0,0.0
5136,1283.75,25.7586,26.8414,192.056,101.437,106.43,0.000663106,0.0607315,20.9548,19.259,-0.433538,0.0,0.0
5148,1286.75,25.6015,26.7744,189.104,101.443,106.678,0.00088795,0.0607538,20.9538,19.1389,-0.453921,0.0,0.0
5160,1289.75,25.7377,26.6711,193.368,101.432,106.084,0.000867844,0.0607988,20.9535,19.219,-0.404554,0.0,0.0
5172,1292.75,25.1238,26.2955,191.541,101.432,106.858,0.000917488,0.0608262,20.9535,19.0288,-0.470132,0.0,0.0
5184,1295.75,25.6791,26.7513,194.021,101.414,106.292,0.00100113,0.0609326,20.9526,18.9687,-0.423787,0.0,0.0
5196,1298.75,25.2306,26.3474,193.344,101.383,107.043,0.000966803,0.0611847,20.9528,18.9988,-0.490095,0.0,0.0
5208,1301.75,25.8317,26.9435,197.516,101.377,106.826,0.00107097,0.061029,20.9516,18.8786,-0.472316,0.0,0.0
5220,1304.75,25.4146,26.4184,193.627,101.338,106.863,0.00105972,0.0609841,20.9513,18.7785,-0.478884,0.0,0.0
5232,1307.75,25.5536,26.7647,193.753,101.288,106.252,0.00109406,0.0610948,20.9529,18.8786,-0.431643,0.0,0.0
5244,1310.75,25.509,26.743,196.829,101.21,106.231,,0.0612532,,18.8286,-0.436791,0.0,0.0
5256,1313.75,25.4399,26.555,193.2,101.099,106.689,,,,18.6985,-0.485527,0.0,0.0
5268,1316.75,25.4169,26.436,192.451,101.012,105.996,,,,18.6284,-0.434466,0.0,0.0
5280,1319.75,25.6758,26.7083,195.043,101.076,106.086,,,,18.7585,-0.43643,0.0,0.0
5284,1320.75,25.6238,26.6747,189.999,101.095,106.489,,,,18.6584,-0.468984,0.0,0.0