File: 01_Data/PMMA/Cone/PMMA_Cone_HF75Scan_220225_R2.csv
Names,Time,Stack TC,Smoke TC,Exh Press,Smoke Comp,Smoke Meas,CO Meter,CO2 Meter,O2 Meter,Sample Mass,Ext Coeff,Start Test,Flame Verif
Chan Gain,,500,500,1,1,1,1,1,1,1,1,1.0,1.0
Offset,,0,0,0.136092,0,0,0,0,0,0,0,0.0,0.0
Gain,,1,1,25.011,15.4219,15.1528,1,1,1,1.00089,1.02113,1.0,1.0
Units,sec,C,C,Pa,%,%,%,%,%,g,/m,,
Baseline,,45.4028,46.3004,151.007,115.635,111.536,-0.00917167,0.102459,20.7975,-0.120398,0.323424,,
2,0.25,41.281,42.3428,153.329,115.389,111.696,-0.00906636,0.103568,20.8018,900.197,0.291314,0.0,0.0
4,0.75,40.3286,41.013,149.676,115.38,110.883,-0.00906014,0.103668,20.8018,900.177,0.356088,0.0,0.0
6,1.25,41.2649,42.1038,149.759,115.353,111.505,-0.00905837,0.103757,20.8017,900.157,0.303902,0.0,0.0
8,1.75,41.7887,41.5581,149.576,115.349,111.309,-0.00905988,0.103835,20.8017,900.107,0.319338,0.0,0.0
10,2.25,41.1814,42.0885,152.244,115.311,110.01,-0.00905849,0.103899,20.8016,900.107,0.421558,0.0,0.0
12,2.75,41.1231,41.6734,153.432,115.323,111.449,-0.00905501,0.103978,20.8012,900.107,0.306059,0.0,0.0
14,3.25,40.4729,40.6901,153.165,115.302,110.99,-0.00904696,0.104043,20.8008,900.107,0.341433,0.0,0.0
16,3.75,40.8548,41.3842,153.297,115.373,110.888,-0.00903574,0.104163,20.8005,900.087,0.355167,0.0,0.0
18,4.25,40.6072,41.7022,151.108,115.47,111.505,-0.00902077,0.10432,20.8003,900.087,0.312997,0.0,0.0
20,4.75,41.2253,41.8484,152.093,115.58,111.361,-0.00900335,0.104447,20.7998,900.127,0.333023,0.0,0.0
22,5.25,41.1723,41.8475,147.43,115.662,110.215,-0.00898924,0.104622,20.7993,900.127,0.432163,0.0,0.0
24,5.75,41.0068,41.8917,154.033,115.761,110.4,-0.00897781,0.104763,20.7988,900.147,0.424719,0.0,0.0
26,6.25,41.3333,42.0768,153.627,115.829,111.129,-0.00895365,0.104891,20.7985,900.157,0.371062,0.0,0.0
28,6.75,41.5241,42.2958,152.078,115.911,111.639,-0.00893409,0.104995,20.7982,900.157,0.336339,0.0,0.0
30,7.25,40.7348,41.1498,148.856,115.97,112.051,-0.00891824,0.105108,20.7979,900.127,0.307885,0.0,0.0
32,7.75,40.8483,41.4343,152.894,116.026,111.216,-0.00892651,0.105199,20.7977,900.117,0.379258,0.0,0.0
34,8.25,41.1715,42.2243,150.617,116.07,111.764,-0.0089332,0.105273,20.7978,900.137,0.338648,0.0,0.0
36,8.75,41.2194,42.0492,150.45,116.12,111.016,-0.00894974,0.105248,20.7979,900.147,0.402588,0.0,0.0
38,9.25,41.1243,41.6121,154.499,116.146,112.167,-0.00897313,0.105227,20.7979,900.147,0.312233,0.0,0.0
40,9.75,41.1904,41.9904,152.044,116.195,111.584,-0.00899208,0.105211,20.798,900.157,0.362658,0.0,0.0
42,10.25,41.0596,42.2909,152.868,116.203,112.662,-0.00900742,0.105041,20.798,900.127,0.277163,0.0,0.0
44,10.75,41.3504,42.2961,150.892,116.231,112.642,-0.00901463,0.104904,20.7981,900.147,0.280993,0.0,0.0
46,11.25,40.9872,41.6579,152.054,116.242,110.81,-0.00901576,0.104733,20.7981,900.137,0.428716,0.0,0.0
48,11.75,41.2404,41.8768,149.839,116.258,112.791,-0.00901278,0.104541,20.7981,900.127,0.27119,0.0,0.0
50,12.25,41.6054,42.3695,153.605,116.252,111.311,-0.00900688,0.104348,20.7983,900.127,0.389085,0.0,0.0
52,12.75,41.7411,42.425,152.484,116.257,111.957,-0.00900209,0.104158,20.7984,900.097,0.337575,0.0,0.0
54,13.25,41.4498,42.4207,154.09,116.236,111.284,-0.00898449,0.104146,20.7985,900.097,0.389975,0.0,0.0
56,13.75,41.8939,42.5316,150.618,116.23,111.01,-0.00895789,0.104264,20.7982,900.107,0.411601,0.0,0.0
58,14.25,41.9028,42.5331,149.004,116.201,111.86,-0.0089102,0.104359,20.7979,900.137,0.34107,0.0,0.0
60,14.75,41.698,42.3388,152.275,116.178,111.994,-0.00884804,0.108389,20.7935,900.127,0.328487,0.0,0.0
62,15.25,41.6466,42.3379,154.754,116.145,110.807,-0.0087977,0.111653,20.7862,900.027,0.42143,0.0,0.0
64,15.75,41.8064,42.7948,144.662,116.119,109.376,-0.00864518,0.120231,20.7719,899.997,0.535879,0.0,0.0
66,16.25,41.1825,42.2993,145.033,116.059,110.218,-0.00852163,0.13252,20.7528,900.057,0.462535,0.0,1.0
68,16.75,41.8909,42.7798,144.027,116.033,108.349,-0.00829616,0.142474,20.7205,899.827,0.61374,0.0,1.0
70,17.25,41.5012,42.6102,138.797,115.993,108.129,-0.00811352,0.169128,20.679,899.887,0.628829,0.0,1.0
72,17.75,42.2919,43.4448,141.422,115.929,105.194,-0.00780915,0.190718,20.6285,899.957,0.870417,0.0,1.0
74,18.25,42.1898,43.2329,131.151,115.86,104.03,-0.0075626,0.229453,20.5723,899.677,0.964734,0.0,1.0
76,18.75,42.5886,43.6002,135.67,115.816,102.93,-0.00718783,0.260828,20.5268,899.797,1.0565,0.0,1.0
78,19.25,43.201,43.9642,127.799,115.756,100.566,-0.00688427,0.311844,20.453,899.717,1.26003,0.0,1.0
80,19.75,43.4592,44.3752,129.955,115.665,101.239,-0.00663838,0.353167,20.3932,899.557,1.19327,0.0,1.0
82,20.25,43.91,45.008,129.01,115.582,100.038,-0.00617848,0.399067,20.3273,899.617,1.29374,0.0,1.0
84,20.75,44.1636,45.4304,125.045,115.573,97.637,-0.00580596,0.447432,20.2583,899.487,1.51061,0.0,1.0
86,21.25,44.1636,46.0761,126.268,115.575,98.689,-0.00539051,0.49765,20.2025,899.336,1.41476,0.0,0.0
88,21.75,45.1678,46.0793,121.316,115.604,98.9077,-0.00495166,0.548266,20.1308,899.336,1.39715,0.0,0.0
90,22.25,46.0589,46.9534,121.922,115.611,97.3503,-0.00449684,0.600503,20.0727,899.226,1.5399,0.0,0.0
92,22.75,46.3079,48.6377,116.721,115.646,97.5047,-0.00403903,0.652929,20.0004,899.146,1.52836,0.0,0.0
94,23.25,47.0885,49.4229,120.356,115.656,94.966,-0.00359239,0.695395,19.9418,899.076,1.76551,0.0,0.0
96,23.75,48.1832,50.2692,120.98,115.699,95.582,-0.0031624,0.741036,19.8626,898.916,1.71092,0.0,0.0
98,24.25,48.9035,51.7075,114.463,115.717,96.0153,-0.00275137,0.788126,19.7985,898.856,1.67179,0.0,0.0
100,24.75,50.0234,52.7355,118.907,115.765,93.6347,-0.00236198,0.835842,19.7223,898.726,1.90039,0.0,0.0
102,25.25,51.0238,53.5161,121.82,115.776,93.2009,-0.0019609,0.883109,19.6506,898.596,1.94285,0.0,0.0
104,25.75,51.8628,55.0185,114.237,115.823,92.3977,-0.00163603,0.92902,19.5836,898.556,2.02399,0.0,0.0
106,26.25,52.8461,55.7703,109.911,115.838,93.618,-0.00137288,0.973069,19.5293,898.406,1.90762,0.0,0.0
108,26.75,53.866,56.565,113.846,115.895,96.6446,-0.00110613,1.0154,19.4772,898.316,1.62699,0.0,0.0
110,27.25,54.5634,58.4281,105.078,115.924,96.0042,-0.00084181,1.05568,19.4277,898.236,1.68884,0.0,0.0
112,27.75,55.4598,59.5156,112.887,115.97,96.6455,-0.000577914,1.09459,19.3876,898.175,1.63272,0.0,0.0
114,28.25,56.1663,61.038,108.254,115.976,96.3861,-0.000319337,1.13178,19.3393,897.975,1.65727,0.0,0.0
116,28.75,57.7422,62.1996,115.037,116.022,95.2116,-4.68024e-05,1.1619,19.3001,897.885,1.77066,0.0,0.0
118,29.25,58.9816,63.1536,112.46,116.046,94.5933,0.00023073,1.204,19.2684,897.795,1.83083,0.0,0.0
120,29.75,59.7383,64.8239,106.572,116.094,94.6557,0.000455531,1.2381,19.2251,897.655,1.82866,0.0,0.0
122,30.25,60.3365,66.5262,111.113,116.108,94.2858,0.000751161,1.27636,19.19,897.555,1.86482,0.0,0.0
124,30.75,62.1193,67.4994,100.134,116.143,92.7972,0.00109281,1.31693,19.1319,897.385,2.01009,0.0,0.0
126,31.25,62.9668,68.8959,108.766,116.168,93.7563,0.00136954,1.3577,19.0849,897.345,1.91991,0.0,0.0
128,31.75,64.3707,70.2836,100.599,116.205,93.0562,0.00175126,1.39786,19.0363,897.135,1.98988,0.0,0.0
130,32.25,64.8991,71.9758,96.8936,116.22,93.6365,0.00206044,1.43038,18.9876,897.055,1.93535,0.0,0.0
132,32.75,66.941,72.8723,103.227,116.259,92.9794,0.0024374,1.46785,18.9386,896.934,2.00141,0.0,0.0
134,33.25,67.8214,74.3741,107.324,116.273,94.5355,0.00274274,1.50823,18.8904,896.794,1.85383,0.0,0.0
136,33.75,69.0724,75.8944,101.592,116.313,92.7783,0.00299006,1.54742,18.8513,896.664,2.02501,0.0,0.0
138,34.25,70.3214,77.7167,107.32,116.332,93.9625,0.00334913,1.58501,18.8069,896.494,1.91282,0.0,0.0
140,34.75,71.0796,79.116,91.5507,116.347,93.6125,0.00363998,1.61546,18.7594,896.374,1.94741,0.0,0.0
142,35.25,72.2687,80.9761,96.5379,116.366,92.5466,0.00399282,1.65775,18.7098,896.284,2.05143,0.0,0.0
144,35.75,73.4175,82.4749,104.004,116.386,92.541,0.00427862,1.69201,18.6596,896.174,2.05353,0.0,0.0
146,36.25,73.8548,83.4989,96.0204,116.41,94.0564,0.00457943,1.71975,18.6189,895.974,1.90992,0.0,0.0
148,36.75,75.4404,84.9914,95.9876,116.41,94.1891,0.00488546,1.76222,18.5639,895.823,1.89725,0.0,0.0
150,37.25,77.432,86.79,86.6886,116.422,94.2072,0.00519681,1.79661,18.5194,895.703,1.89644,0.0,0.0
152,37.75,78.4944,88.5542,95.1289,116.438,93.231,0.00550612,1.84338,18.455,895.523,1.99098,0.0,0.0
154,38.25,78.7696,90.115,94.0932,116.44,93.0978,0.00575666,1.88126,18.403,895.363,2.00396,0.0,0.0
156,38.75,80.305,91.6905,90.115,116.461,90.0203,0.00607797,1.92628,18.3418,895.193,2.30665,0.0,0.0
158,39.25,81.9451,93.5156,99.2537,116.464,90.8888,0.00633823,1.96274,18.2922,895.043,2.22094,0.0,0.0
160,39.75,84.0617,95.1331,101.985,116.464,91.7475,0.00667681,1.99228,18.2373,894.943,2.13668,0.0,0.0
162,40.25,84.8542,97.557,91.827,116.477,91.501,0.00695107,2.03667,18.1793,894.772,2.16175,0.0,0.0
164,40.75,86.4491,99.0089,87.7992,116.462,93.2458,0.0072892,2.07263,18.1324,894.602,1.99144,0.0,0.0
166,41.25,87.6936,100.447,86.1261,116.47,94.0421,0.00766748,2.12155,18.0697,894.442,1.91585,0.0,0.0
168,41.75,89.0625,101.949,91.2996,116.466,92.3343,0.00797389,2.16118,18.0189,894.252,2.07975,0.0,0.0
170,42.25,89.6725,103.364,97.144,116.474,91.9103,0.00841101,2.21123,17.9664,894.082,2.12156,0.0,0.0
172,42.75,91.1565,105.444,91.8087,116.471,92.5697,0.00876508,2.25177,17.9137,893.942,2.05727,0.0,0.0
174,43.25,92.7818,107.442,83.4951,116.444,90.7561,0.00922334,2.29563,17.8581,893.762,2.23244,0.0,0.0
176,43.75,94.4434,109.506,90.9714,116.435,89.4261,0.00959453,2.34108,17.8017,893.661,2.36402,0.0,0.0
178,44.25,95.945,111.718,86.2833,116.428,90.4578,0.0100345,2.37789,17.739,893.461,2.26073,0.0,0.0
180,44.75,97.3135,113.346,90.9645,116.402,90.9364,0.0103908,2.43105,17.673,893.251,2.21147,0.0,0.0
182,45.25,98.8496,115.112,80.4015,116.399,90.6775,0.0108205,2.47411,17.6056,893.061,2.23676,0.0,0.0
184,45.75,100.562,117.045,93.7421,116.365,91.0719,0.0111686,2.5199,17.5384,892.911,2.19527,0.0,0.0
186,46.25,101.166,118.117,79.652,116.358,90.4939,0.0115855,2.56681,17.484,892.751,2.25176,0.0,0.0
188,46.75,102.822,120.664,100.351,116.336,90.142,0.0119231,2.62305,17.4171,892.54,2.28496,0.0,0.0
190,47.25,104.651,123.111,84.1156,116.311,90.8069,0.0121967,2.6686,17.3628,892.35,2.21724,0.0,0.0
192,47.75,105.83,125.331,88.4487,116.274,90.3672,0.0125266,2.71467,17.3075,892.18,2.25786,0.0,0.0
194,48.25,107.465,126.802,86.0383,116.261,90.3787,0.0128913,2.76023,17.2524,891.9,2.2557,0.0,0.0
196,48.75,108.685,128.962,89.6547,116.222,91.1824,0.0133322,2.80703,17.196,891.77,2.17335,0.0,0.0
198,49.25,110.301,130.503,78.7658,116.215,90.4143,0.0136893,2.85384,17.1396,891.59,2.24862,0.0,0.0
200,49.75,112.132,132.417,87.2618,116.181,91.4363,0.0140751,2.89175,17.094,891.369,2.14533,0.0,0.0
202,50.25,113.105,134.698,94.5091,116.146,89.0738,0.0144746,2.94879,17.0279,891.189,2.37713,0.0,0.0
204,50.75,115.082,136.241,78.8551,116.103,89.4025,0.0149029,2.99499,16.9483,890.919,2.34075,0.0,0.0
206,51.25,116.692,138.773,87.2229,116.091,90.1332,0.0153442,3.0495,16.8605,890.849,2.26693,0.0,0.0
208,51.75,117.787,140.433,88.6319,116.026,88.8102,0.0157955,3.10904,16.7894,890.629,2.39437,0.0,0.0
210,52.25,119.39,142.38,74.6098,116.004,90.099,0.0162456,3.16838,16.7317,890.439,2.26365,0.0,0.0
212,52.75,121.446,144.443,72.236,115.957,90.1286,0.0166102,3.22645,16.6617,890.138,2.25704,0.0,0.0
214,53.25,121.981,146.676,71.2506,115.92,90.0439,0.0170327,3.28144,16.6049,889.928,2.26265,0.0,0.0
216,53.75,124.069,148.735,75.9425,115.873,90.9045,0.0174895,3.33313,16.5469,889.748,2.17378,0.0,0.0
218,54.25,125.878,151.141,86.9321,115.855,89.8049,0.0178595,3.38082,16.4998,889.518,2.28141,0.0,0.0
220,54.75,127.414,152.908,81.6571,115.793,90.049,0.0181592,3.42466,16.4618,889.338,2.25229,0.0,0.0
222,55.25,128.926,155.177,84.4843,115.759,88.0606,0.0185726,3.46018,16.4172,888.917,2.44971,0.0,0.0
224,55.75,130.426,157.422,79.7879,115.721,89.2615,0.0189074,3.48895,16.3811,888.867,2.32539,0.0,0.0
226,56.25,132.062,159.191,80.2191,115.718,89.9686,0.0192841,3.54764,16.3356,888.527,2.25447,0.0,0.0
228,56.75,133.59,161.207,74.4846,115.627,88.3986,0.0195892,3.59518,16.2842,888.467,2.40512,0.0,0.0
230,57.25,134.958,163.217,75.986,115.598,88.6229,0.0199021,3.66601,16.2141,888.147,2.38019,0.0,0.0
232,57.75,136.322,165.281,83.4607,115.538,90.3977,0.0201557,3.72339,16.1318,888.026,2.19795,0.0,0.0
234,58.25,137.935,167.495,64.0697,115.515,90.8587,0.0202782,3.76986,16.0968,887.706,2.15056,0.0,0.0
236,58.75,139.561,169.605,88.7197,115.457,89.4673,0.0204877,3.83372,16.0055,887.586,2.28431,0.0,0.0
238,59.25,140.878,171.983,78.1957,115.423,89.8802,0.0206676,3.88544,15.9315,887.276,2.24047,0.0,0.0
240,59.75,142.74,174.371,81.6151,115.353,89.8872,0.0208224,3.94247,15.8535,887.156,2.23433,0.0,0.0
242,60.25,144.651,176.041,72.1108,115.334,88.6798,0.0209694,3.98867,15.7903,886.755,2.35397,0.0,0.0
244,60.75,145.91,178.943,64.6475,115.269,88.9628,0.0211081,4.03724,15.7117,886.605,2.32042,0.0,0.0
246,61.25,147.354,181.227,75.5616,115.244,89.9496,0.0212205,4.06322,15.6481,886.415,2.21959,0.0,0.0
248,61.75,148.743,183.212,77.553,115.189,89.459,0.0213738,4.1212,15.5773,886.075,2.2643,0.0,0.0
250,62.25,150.634,185.367,63.8209,115.155,89.348,0.0215542,4.18034,15.5025,885.815,2.27279,0.0,0.0
252,62.75,151.688,187.667,72.7375,115.099,88.5212,0.0217766,4.24181,15.442,885.724,2.35174,0.0,0.0
254,63.25,153.441,189.504,68.7166,115.063,89.5001,0.0220256,4.3038,15.3665,885.364,2.25041,0.0,0.0
256,63.75,154.787,191.493,78.5987,115.014,90.4351,0.0222272,4.35401,15.3053,885.154,2.15354,0.0,0.0
258,64.25,156.306,194.116,84.2897,114.968,89.0798,0.0225556,4.41565,15.2328,885.014,2.28521,0.0,0.0
260,64.75,158.332,196.141,73.9015,114.933,88.6076,0.0228933,4.46557,15.1741,884.613,2.3301,0.0,0.0
262,65.25,160.05,198.433,72.7581,114.891,87.6675,0.0232315,4.51647,15.0995,884.403,2.42234,0.0,0.0
264,65.75,161.374,201.149,75.2097,114.843,87.6116,0.0235929,4.56712,15.0392,884.233,2.42431,0.0,0.0
266,66.25,163.382,202.562,72.0444,114.803,87.3577,0.0239644,4.60815,14.9744,883.903,2.44715,0.0,0.0
268,66.75,164.86,205.184,71.6949,114.774,87.1815,0.0243568,4.65779,14.9219,883.723,2.46299,0.0,0.0
270,67.25,166.08,207.64,60.4114,114.732,87.3887,0.024757,4.69801,14.8655,883.492,2.43843,0.0,0.0
272,67.75,167.298,209.727,74.4075,114.711,86.6899,0.0250811,4.74702,14.8072,883.112,2.50872,0.0,0.0
274,68.25,169.081,211.816,95.3991,114.663,86.5803,0.0254764,4.78673,14.76,882.962,2.51633,0.0,0.0
276,68.75,170.506,213.784,68.6097,114.617,87.9232,0.0259161,4.84019,14.6935,882.642,2.37487,0.0,0.0
278,69.25,171.643,216.042,66.9862,114.58,85.9177,0.0262722,4.88349,14.6397,882.462,2.57868,0.0,0.0
280,69.75,173.218,217.966,75.3799,114.547,85.7757,0.0267163,4.9428,14.5807,882.101,2.59088,0.0,0.0
282,70.25,174.61,220.055,71.3857,114.513,85.3202,0.0270761,4.99084,14.5192,881.901,2.63592,0.0,0.0
284,70.75,176.474,222.35,63.5744,114.489,88.7427,0.0272967,5.03673,14.4627,881.551,2.28173,0.0,0.0
286,71.25,177.748,224.273,66.9435,114.456,87.1232,0.027674,5.08018,14.4386,881.351,2.44412,0.0,0.0
288,71.75,179.294,226.372,70.5354,114.423,85.1135,0.0280864,5.11537,14.39,881.09,2.65058,0.0,0.0
290,72.25,180.531,228.735,72.7489,114.38,85.1422,0.0284204,5.15106,14.3439,880.81,2.64425,0.0,0.0
292,72.75,181.987,230.73,63.5667,114.377,84.4264,0.0287965,5.17998,14.3031,880.44,2.71958,0.0,0.0
294,73.25,183.879,232.15,74.6426,114.327,86.7884,0.0291012,5.21077,14.2669,880.25,2.46851,0.0,0.0
296,73.75,185.048,233.733,63.3316,114.316,87.2328,0.029409,5.2239,14.2376,879.959,2.42195,0.0,0.0
298,74.25,185.312,235.63,72.2467,114.298,85.7512,0.0297132,5.25091,14.2015,879.779,2.57395,0.0,0.0
300,74.75,186.838,237.58,71.3552,114.266,84.1295,0.0299596,5.27689,14.1723,879.439,2.74246,0.0,0.0
302,75.25,188.668,239.9,70.5812,114.236,88.3108,0.0302136,5.30087,14.1486,879.199,2.3056,0.0,0.0
304,75.75,189.847,242.071,60.9762,114.225,87.8294,0.0304682,5.32293,14.1294,878.998,2.35375,0.0,0.0
306,76.25,191.679,243.289,71.1247,114.194,86.3797,0.0306744,5.34143,14.1099,878.698,2.50035,0.0,0.0
308,76.75,193.104,245.22,64.8063,114.186,87.028,0.0308323,5.35697,14.0941,878.368,2.43275,0.0,0.0
310,77.25,194.156,247.146,81.4892,114.157,85.76,0.0309521,5.36957,14.0812,878.148,2.562,0.0,0.0
312,77.75,195.537,248.802,69.8172,114.155,86.8745,0.0310492,5.38292,14.0709,877.777,2.44616,0.0,0.0
314,78.25,196.566,250.877,81.7556,114.125,84.3639,0.0310575,5.39373,14.0608,877.617,2.70646,0.0,0.0
316,78.75,197.762,253.005,63.6797,114.127,87.0775,0.0310643,5.40249,14.0512,877.257,2.42308,0.0,0.0
318,79.25,199.241,254.303,66.8977,114.105,85.3725,0.0310296,5.41928,14.0316,877.147,2.59846,0.0,0.0
320,79.75,200.575,255.884,60.9655,114.125,87.7064,0.0310016,5.4416,14.005,876.756,2.35843,0.0,0.0
322,80.25,201.471,257.254,63.2286,114.096,85.5547,0.0309702,5.45969,13.9746,876.576,2.57863,0.0,0.0
324,80.75,202.601,258.849,66.2351,114.105,87.3101,0.0309449,5.48798,13.9421,876.226,2.39741,0.0,0.0
326,81.25,203.865,260.559,66.2542,114.074,85.9366,0.0309296,5.5109,13.9157,875.976,2.53699,0.0,0.0
328,81.75,204.47,262.219,74.8258,114.089,84.9831,0.030922,5.5331,13.8944,875.786,2.63812,0.0,0.0
330,82.25,205.706,263.965,70.2584,114.083,85.5741,0.0309187,5.55435,13.8853,875.505,2.57556,0.0,0.0
332,82.75,207.435,265.731,69.0738,114.091,87.0173,0.0309245,5.56949,13.8697,875.225,2.42642,0.0,0.0
334,83.25,208.549,267.192,68.7814,114.083,85.7905,0.0309393,5.57986,13.8571,874.985,2.55301,0.0,0.0
336,83.75,209.785,268.511,71.0102,114.094,84.7431,0.0309513,5.58051,13.8469,874.695,2.66389,0.0,0.0
338,84.25,210.78,270.709,63.3523,114.085,86.7861,0.0309811,5.57405,13.8489,874.444,2.44981,0.0,0.0
340,84.75,212.16,272.057,75.9906,114.097,87.6425,0.0310052,5.56055,13.8596,874.174,2.36277,0.0,0.0
342,85.25,212.76,273.928,64.8292,114.092,87.4238,0.0310463,5.55088,13.8761,873.834,2.38475,0.0,0.0
344,85.75,214.034,275.302,69.4501,114.107,85.8946,0.0310795,5.53434,13.8963,873.584,2.544,0.0,0.0
346,86.25,215.236,276.227,61.0121,114.113,85.9163,0.0311251,5.52095,13.9224,873.474,2.54218,0.0,0.0
348,86.75,215.89,277.878,71.2422,114.135,85.4146,0.031162,5.49653,13.9524,873.203,2.59641,0.0,0.0
350,87.25,216.467,279.105,77.4606,114.145,87.5519,0.0311819,5.47674,13.989,872.883,2.37581,0.0,0.0
352,87.75,217.392,280.293,74.7525,114.182,85.5445,0.0311686,5.44956,14.0187,872.703,2.58649,0.0,0.0
354,88.25,218.385,281.776,63.8201,114.166,86.3894,0.0311313,5.42755,14.0515,872.463,2.49721,0.0,0.0
356,88.75,219.218,282.57,72.9489,114.187,85.9209,0.0311011,5.39872,14.0861,872.212,2.54753,0.0,0.0
358,89.25,220.362,283.792,70.7942,114.197,83.8576,0.0310766,5.37537,14.1141,871.882,2.76607,0.0,0.0
360,89.75,220.696,285.051,65.2253,114.221,86.6391,0.0308282,5.33495,14.1533,871.622,2.47563,0.0,0.0
362,90.25,221.796,285.381,70.8362,114.231,86.6724,0.0306271,5.30222,14.1999,871.422,2.473,0.0,0.0
364,90.75,222.569,286.398,71.7994,114.266,86.2317,0.0302835,5.24776,14.2579,871.282,2.52136,0.0,0.0
366,91.25,222.783,287.862,72.494,114.268,87.1593,0.0300052,5.20365,14.3231,870.921,2.42566,0.0,0.0
368,91.75,223.819,288.557,82.3334,114.315,86.5003,0.0295646,5.14124,14.4047,870.821,2.49737,0.0,0.0
370,92.25,224.062,289.443,68.2296,114.311,87.6943,0.0292077,5.06666,14.4968,870.461,2.37428,0.0,0.0
372,92.75,224.962,290.14,73.513,114.355,84.8005,0.0286666,5.00626,14.6083,870.341,2.67824,0.0,0.0
374,93.25,225.668,290.259,69.044,114.358,86.0347,0.0282282,4.90808,14.732,870.141,2.54911,0.0,0.0
376,93.75,226.074,291.143,77.1843,114.403,85.7452,0.0276463,4.82856,14.8596,869.94,2.5828,0.0,0.0
378,94.25,226.611,291.448,76.805,114.411,86.3047,0.0271749,4.7232,14.9876,869.81,2.52513,0.0,0.0
380,94.75,226.894,291.636,75.4502,114.455,87.4987,0.0266656,4.63786,15.1204,869.64,2.40556,0.0,0.0
382,95.25,227.018,292.082,78.4765,114.464,84.9383,0.0261382,4.54421,15.2541,869.36,2.67225,0.0,0.0
384,95.75,227.126,292.29,84.1347,114.51,86.8726,0.025711,4.4463,15.3624,869.14,2.47416,0.0,0.0
386,96.25,227.449,292.163,86.9649,114.517,85.7119,0.0250715,4.34485,15.4767,868.97,2.59519,0.0,0.0
388,96.75,227.406,291.988,88.0549,114.553,87.0021,0.0245535,4.24275,15.5932,868.839,2.4642,0.0,0.0
390,97.25,227.264,292.245,80.3916,114.586,86.259,0.0238478,4.14267,15.709,868.689,2.54358,0.0,0.0
392,97.75,226.868,291.372,84.3171,114.638,87.8816,0.0232762,4.04598,15.822,868.499,2.38073,0.0,0.0
394,98.25,226.974,291.966,82.3914,114.641,86.5184,0.022457,3.94172,15.9136,868.319,2.52102,0.0,0.0
396,98.75,227.532,291.087,81.9388,114.69,88.1771,0.0217934,3.83393,16.0173,868.209,2.35474,0.0,0.0
398,99.25,227.183,291.158,83.9088,114.697,86.4643,0.0212559,3.74663,16.1278,867.979,2.531,0.0,0.0
400,99.75,227.18,290.923,86.3299,114.763,86.5586,0.0204509,3.61981,16.2174,867.809,2.52634,0.0,0.0
402,100.25,226.119,290.027,83.7851,114.748,87.9843,0.0194662,3.51709,16.3656,867.708,2.37883,0.0,0.0
404,100.75,226.255,289.208,91.2408,114.8,88.9406,0.0186685,3.40951,16.4857,867.518,2.28608,0.0,0.0
406,101.25,226.654,289.23,86.5802,114.825,87.4714,0.0175361,3.30043,16.6164,867.428,2.43722,0.0,0.0
408,101.75,225.96,288.332,90.7928,114.875,89.0608,0.0166188,3.21207,16.7523,867.388,2.27985,0.0,0.0
410,102.25,225.768,287.353,96.0349,114.885,89.3679,0.0154421,3.09614,16.9357,867.138,2.24976,0.0,0.0
412,102.75,224.841,286.732,93.5001,114.927,89.7896,0.014489,2.96231,17.0843,867.038,2.21092,0.0,0.0
414,103.25,224.152,285.823,98.2065,114.942,89.5274,0.0134165,2.8539,17.2047,867.018,2.23826,0.0,0.0
416,103.75,223.664,284.87,101.746,114.981,91.8566,0.0122773,2.70811,17.4138,866.898,2.01128,0.0,0.0
418,104.25,222.547,283.037,101.009,115.005,93.1112,0.011136,2.59002,17.5832,866.808,1.89164,0.0,0.0
420,104.75,221.654,281.532,99.8734,115.034,93.1491,0.0100148,2.43955,17.792,866.698,1.89022,0.0,0.0
422,105.25,221.088,280.45,105.186,115.061,90.5988,0.0084655,2.31766,17.961,866.668,2.14101,0.0,0.0
424,105.75,220.056,279.12,112.076,115.102,91.8714,0.00788845,2.18724,18.1342,866.638,2.01925,0.0,0.0
426,106.25,218.88,277.552,118.291,115.117,94.4217,0.0069017,2.05307,18.3071,866.547,1.77513,0.0,0.0
428,106.75,216.655,276.077,118.142,115.155,96.3686,0.00571049,1.90997,18.4973,866.477,1.59529,0.0,0.0
430,107.25,216.578,273.912,123.128,115.166,97.391,0.00457364,1.7631,18.6964,866.497,1.50163,0.0,0.0
432,107.75,215.591,272.389,125.004,115.201,99.5598,0.00349803,1.62003,18.9186,866.487,1.30706,0.0,0.0
434,108.25,213.692,269.405,131.915,115.218,101.703,0.00247387,1.48244,19.0986,866.447,1.11759,0.0,0.0
436,108.75,211.948,267.133,133.783,115.255,102.482,0.00150668,1.371,19.296,866.417,1.05216,0.0,0.0
438,109.25,210.608,265.423,137.662,115.273,103.774,0.000723259,1.23683,19.456,866.407,0.941288,0.0,0.0
440,109.75,209.055,263.064,136.737,115.299,104.289,-0.000121729,1.12815,19.5855,866.407,0.899024,0.0,0.0
442,110.25,207.061,261.095,136.855,115.318,104.963,-0.000995544,1.01323,19.7235,866.387,0.842729,0.0,0.0
444,110.75,205.771,258.893,137.927,115.363,105.173,-0.00180658,0.920134,19.8353,866.387,0.8283,0.0,0.0
446,111.25,203.671,255.837,140.455,115.371,105.981,-0.00255645,0.826161,19.9384,866.387,0.760342,0.0,0.0
448,111.75,202.02,253.352,139.74,115.389,106.071,-0.00316384,0.750043,20.0332,866.407,0.754188,0.0,0.0
450,112.25,200.576,251.136,142.691,115.423,106.886,-0.00379985,0.67227,20.1184,866.407,0.68835,0.0,0.0
452,112.75,198.716,248.978,138.703,115.434,106.232,-0.00431501,0.609273,20.1949,866.407,0.744079,0.0,0.0
454,113.25,196.775,246.817,141.28,115.454,106.959,-0.00482542,0.558246,20.275,866.427,0.684528,0.0,0.0
456,113.75,194.544,244.005,143.3,115.476,106.716,-0.00523885,0.503767,20.3398,866.437,0.706673,0.0,0.0
458,114.25,193.01,241.146,139.59,115.503,106.411,-0.00564325,0.45964,20.3963,866.407,0.734369,0.0,0.0
460,114.75,191.542,238.992,142.676,115.527,106.403,-0.00597082,0.417922,20.4456,866.377,0.736928,0.0,0.0
462,115.25,189.834,236.618,139.788,115.548,106.5,-0.00628333,0.384131,20.4879,866.367,0.730401,0.0,0.0
464,115.75,187.935,234.098,141.108,115.544,106.619,-0.00653647,0.352758,20.5242,866.407,0.720081,0.0,0.0
466,116.25,186.467,232.274,143.311,115.574,107.196,-0.00674151,0.327345,20.5555,866.397,0.67399,0.0,0.0
468,116.75,185.047,230.337,141.518,115.584,106.704,-0.00694091,0.303901,20.5825,866.387,0.716036,0.0,0.0
470,117.25,183.002,227.628,141.334,115.599,106.428,-0.00713243,0.284912,20.6044,866.387,0.740447,0.0,0.0
472,117.75,182.08,225.918,141.766,115.607,106.931,-0.0073052,0.267365,20.6243,866.407,0.698747,0.0,0.0
474,118.25,180.343,224.303,139.874,115.63,106.889,-0.00746102,0.253153,20.6404,866.397,0.704023,0.0,0.0
476,118.75,178.507,221.892,140.136,115.642,106.623,-0.00758724,0.24164,20.6557,866.397,0.727317,0.0,0.0
478,119.25,177.277,219.419,140.266,115.656,106.674,-0.00771431,0.229796,20.6681,866.357,0.724177,0.0,0.0
480,119.75,175.72,217.428,139.027,115.657,106.892,-0.00782442,0.220201,20.6799,866.377,0.705942,0.0,0.0
482,120.25,174.172,215.917,143.548,115.678,106.584,-0.00792008,0.211577,20.6894,866.417,0.73339,0.0,0.0
484,120.75,173.19,213.541,142.154,115.672,106.799,-0.00799756,0.203824,20.6972,866.417,0.714902,0.0,0.0
486,121.25,171.542,211.606,143.714,115.691,107.284,-0.00806033,0.196989,20.7043,866.397,0.675729,0.0,0.0
488,121.75,169.934,209.926,141.894,115.684,106.744,-0.00812234,0.190951,20.7101,866.377,0.720391,0.0,0.0
490,122.25,169.266,208.349,142.147,115.709,106.915,-0.00817257,0.185592,20.7136,866.367,0.708012,0.0,0.0
492,122.75,167.388,205.989,138.957,115.695,106.853,-0.00823436,0.180828,20.7164,866.367,0.712149,0.0,0.0
494,123.25,166.248,204.358,139.937,115.727,107.029,-0.00826071,0.176969,20.7176,866.397,0.699869,0.0,0.0
496,123.75,164.881,202.973,142.715,115.721,106.848,-0.00830576,0.172982,20.721,866.377,0.714618,0.0,0.0
498,124.25,163.589,200.997,138.8,115.733,106.527,-0.00838073,0.169753,20.7237,866.367,0.742434,0.0,0.0
500,124.75,162.387,198.983,141.335,115.735,107.224,-0.00844146,0.167138,20.7268,866.377,0.68421,0.0,0.0
502,125.25,160.98,197.317,143.586,115.736,107.063,-0.00851673,0.164117,20.7293,866.397,0.697775,0.0,0.0
504,125.75,160.34,195.489,144.485,115.725,106.942,-0.0085777,0.16167,20.7322,866.397,0.706965,0.0,0.0
506,126.25,159.047,194.223,143.476,115.747,107.654,-0.0086457,0.160321,20.7346,866.407,0.649267,0.0,0.0
508,126.75,157.68,192.649,144.692,115.729,106.053,-0.00870079,0.158015,20.7365,866.387,0.782125,0.0,0.0
510,127.25,156.464,190.77,144.133,115.74,107.028,-0.00875067,0.155811,20.7389,866.387,0.70093,0.0,0.0
512,127.75,155.191,189.701,139.793,115.734,107.118,-0.0087958,0.153723,20.7409,866.397,0.692989,0.0,0.0
514,128.25,153.885,187.435,142.457,115.743,106.796,-0.00883367,0.152033,20.7435,866.387,0.720634,0.0,0.0
516,128.75,152.798,185.565,137.43,115.726,106.611,-0.00886552,0.150099,20.7457,866.397,0.73485,0.0,0.0
518,129.25,151.41,184.803,143.677,115.74,106.729,-0.00889132,0.148532,20.7483,866.387,0.726043,0.0,0.0
520,129.75,150.849,183.234,138.36,115.723,106.964,-0.00891966,0.146629,20.7504,866.387,0.705001,0.0,0.0
522,130.25,149.655,181.651,137.855,115.739,107.024,-0.00894262,0.145087,20.7521,866.367,0.701244,0.0,0.0
524,130.75,148.27,179.886,138.504,115.7,106.922,-0.00896122,0.143573,20.7539,866.397,0.706778,0.0,0.0
526,131.25,147.322,178.314,142.312,115.726,106.557,-0.00898282,0.142107,20.7554,866.397,0.739324,0.0,0.0
528,131.75,146.96,177.462,143.182,115.702,107.802,-0.0090062,0.140919,20.7575,866.407,0.633541,0.0,0.0
530,132.25,145.741,176.091,145.993,115.718,106.466,-0.00902579,0.139497,20.7592,866.407,0.746477,0.0,0.0
532,132.75,144.411,174.623,140.769,115.705,107.355,-0.00904224,0.138344,20.761,866.377,0.670917,0.0,0.0
534,133.25,143.744,172.961,142.544,115.732,106.98,-0.00906014,0.137161,20.7627,866.377,0.704336,0.0,0.0
536,133.75,142.534,171.689,142.811,115.698,106.992,-0.00907876,0.135978,20.7643,866.397,0.700707,0.0,0.0
538,134.25,141.808,170.4,144.087,115.708,107.197,-0.00909842,0.135019,20.7656,866.397,0.684377,0.0,0.0
540,134.75,140.842,169.108,144.084,115.698,106.798,-0.00911845,0.133986,20.767,866.387,0.716982,0.0,0.0
542,135.25,139.615,168.105,146.747,115.706,106.575,-0.00913534,0.132917,20.7682,866.377,0.736353,0.0,0.0
544,135.75,138.646,167.006,144.131,115.702,107.239,-0.0091496,0.13187,20.7692,866.377,0.680425,0.0,0.0
546,136.25,137.399,165.034,142.188,115.704,106.679,-0.00915789,0.130859,20.77,866.387,0.727431,0.0,0.0
548,136.75,136.542,163.882,145.721,115.693,107.035,-0.00916166,0.129882,20.7711,866.367,0.69667,0.0,0.0
550,137.25,136.298,163.202,142.157,115.701,107.192,-0.00916471,0.128947,20.7719,866.357,0.684256,0.0,0.0
552,137.75,135.322,161.838,141.699,115.686,106.721,-0.00916719,0.128032,20.7735,866.347,0.722475,0.0,0.0
554,138.25,134.805,160.68,142.361,115.694,106.626,-0.00912822,0.127148,20.7748,866.347,0.731131,0.0,0.0
556,138.75,133.679,159.517,142.056,115.68,106.252,-0.00909666,0.126274,20.7759,866.337,0.761521,0.0,0.0
558,139.25,133.321,158.653,143.53,115.688,106.598,-0.00904253,0.125424,20.7767,866.337,0.732986,0.0,0.0
560,139.75,132.558,157.769,141.447,115.675,107.089,-0.00899869,0.124735,20.7774,866.347,0.690759,0.0,0.0
562,140.25,130.187,156.071,143.808,115.68,106.673,-0.008952,0.123988,20.7779,866.337,0.726038,0.0,0.0
564,140.75,130.297,154.623,143.913,115.676,107.236,-0.00891419,0.123215,20.7784,866.347,0.678654,0.0,0.0
566,141.25,129.857,153.519,144.302,115.67,107.033,-0.00889473,0.122588,20.7788,866.367,0.695114,0.0,0.0
568,141.75,128.813,152.84,144.35,115.655,107.061,-0.00887897,0.121794,20.7793,866.347,0.691662,0.0,0.0
570,142.25,128.029,151.933,141.122,115.661,106.497,-0.00887536,0.121152,20.7799,866.357,0.739426,0.0,0.0
572,142.75,126.931,150.918,143.131,115.655,106.819,-0.00888066,0.120417,20.7804,866.347,0.711884,0.0,0.0
574,143.25,126.323,150.037,141.617,115.65,107.299,-0.00888496,0.119821,20.7809,866.347,0.67136,0.0,0.0
576,143.75,125.95,148.56,140.604,115.631,107.049,-0.0088989,0.119154,20.7812,866.367,0.690773,0.0,0.0
578,144.25,124.633,146.961,138.652,115.637,106.351,-0.00891959,0.118613,20.7815,866.387,0.749826,0.0,0.0
580,144.75,123.685,146.346,141.002,115.621,106.504,-0.00893636,0.117989,20.7809,866.367,0.735668,0.0,0.0
582,145.25,123.366,145.645,146.13,115.634,107.269,-0.00895582,0.117484,20.7797,866.367,0.67263,0.0,0.0
584,145.75,123.008,144.468,144.582,115.61,106.578,-0.00897688,0.116961,20.7787,866.357,0.728645,0.0,0.0
586,146.25,122.195,143.799,142.591,115.597,107.097,-0.00900112,0.116537,20.778,866.367,0.684088,0.0,0.0
588,146.75,121.318,142.563,139.604,115.586,106.796,-0.00902723,0.116194,20.7773,866.367,0.708461,0.0,0.0
590,147.25,121.029,141.929,141.156,115.579,106.957,-0.00904838,0.115916,20.777,866.377,0.694427,0.0,0.0
592,147.75,120.318,141.483,141.275,115.58,106.701,-0.00908779,0.115477,20.777,866.387,0.715979,0.0,0.0
594,148.25,119.139,139.774,141.414,115.557,107.026,-0.00911972,0.115121,20.7774,866.387,0.686946,0.0,0.0
596,148.75,118.45,138.743,146.301,115.559,106.975,-0.0091493,0.114743,20.7778,866.397,0.691423,0.0,0.0
598,149.25,118.539,138.555,144.675,115.554,106.511,-0.00917326,0.114356,20.778,866.387,0.729945,0.0,0.0
600,149.75,117.474,137.609,140.672,115.542,106.046,-0.00917529,0.113967,20.7781,866.387,0.768201,0.0,0.0
602,150.25,116.458,136.912,141.501,115.539,106.346,-0.00917693,0.113585,20.7781,866.367,0.742594,0.0,0.0
604,150.75,115.702,135.819,144.585,115.528,106.749,-0.00914474,0.113275,20.7782,866.347,0.707931,0.0,0.0
606,151.25,115.877,135.22,143.04,115.525,106.465,-0.00911867,0.112909,20.7785,866.347,0.731495,0.0,0.0
608,151.75,115.095,134.113,141.426,115.51,106.7,-0.00909755,0.112613,20.7789,866.337,0.710621,0.0,0.0
610,152.25,114.849,133.55,140.749,115.51,106.793,-0.00902084,0.112316,20.7792,866.347,0.702897,0.0,0.0
612,152.75,113.949,132.865,144.587,115.508,106.633,-0.00895871,0.112076,20.7798,866.367,0.716106,0.0,0.0
614,153.25,113.411,131.676,142.432,115.521,107.408,-0.00889335,0.111781,20.7804,866.377,0.652224,0.0,0.0
616,153.75,113.139,130.66,143.765,115.486,106.484,-0.00882689,0.111543,20.7809,866.387,0.72691,0.0,0.0
618,154.25,112.878,129.89,143.953,115.48,107.02,-0.0087724,0.11129,20.7813,866.387,0.6815,0.0,0.0
620,154.75,111.894,129.403,140.187,115.469,106.867,-0.00872768,0.111031,20.7816,866.377,0.693444,0.0,0.0
622,155.25,111.139,128.374,143.06,115.455,106.456,-0.00869994,0.110821,20.7819,866.367,0.726831,0.0,0.0
624,155.75,110.961,127.998,140.136,115.469,107.05,-0.00868513,0.110537,20.7821,866.367,0.678107,0.0,0.0
626,156.25,110.018,127.622,143.931,115.447,106.198,-0.00869142,0.110307,20.7823,866.357,0.747985,0.0,0.0
628,156.75,109.47,126.455,141.048,115.448,107.315,-0.00871299,0.110091,20.7824,866.367,0.654395,0.0,0.0
630,157.25,108.915,125.923,148.159,115.432,106.752,-0.00875006,0.109889,20.783,866.367,0.700176,0.0,0.0
632,157.75,108.162,124.973,147.126,115.44,106.856,-0.00879773,0.109696,20.7834,866.367,0.69207,0.0,0.0
634,158.25,107.821,124.094,143.374,115.424,106.453,-0.00883635,0.109512,20.7838,866.357,0.724769,0.0,0.0
636,158.75,107.729,123.46,141.029,115.424,107.708,-0.00886762,0.109334,20.7841,866.367,0.619711,0.0,0.0
638,159.25,106.718,122.531,141.451,115.417,106.075,-0.00893393,0.109162,20.7843,866.357,0.755993,0.0,0.0
640,159.75,106.29,122.105,141.333,115.44,106.843,-0.00898764,0.109015,20.7845,866.377,0.693194,0.0,0.0
642,160.25,105.723,121.471,140.925,115.408,106.881,-0.00903239,0.10889,20.7847,866.357,0.687533,0.0,0.0
644,160.75,105.527,120.766,143.753,115.402,106.915,-0.00906863,0.108788,20.7848,866.347,0.684229,0.0,0.0
646,161.25,105.259,119.739,142.01,115.397,106.907,-0.00908557,0.108676,20.7849,866.347,0.684447,0.0,0.0
648,161.75,104.504,119.135,143.704,115.39,106.905,-0.0090993,0.108558,20.785,866.367,0.684093,0.0,0.0
650,162.25,103.88,118.821,140.412,115.39,107.773,-0.00909675,0.108463,20.7851,866.367,0.611659,0.0,0.0
652,162.75,103.29,117.367,143.765,115.395,106.124,-0.00909469,0.108348,20.7851,866.357,0.750137,0.0,0.0
654,163.25,102.979,117.423,143.139,115.384,106.873,-0.00909433,0.108221,20.7852,866.367,0.686365,0.0,0.0
656,163.75,102.353,117.021,143.969,115.396,106.809,-0.00909522,0.10809,20.7857,866.367,0.692591,0.0,0.0
658,164.25,102.061,116.11,143.214,115.406,106.627,-0.00910639,0.107984,20.786,866.377,0.70865,0.0,0.0
660,164.75,101.803,115.141,144.235,115.453,106.414,-0.00912485,0.107906,20.7864,866.377,0.730266,0.0,0.0
662,165.25,101.758,114.96,144.095,115.476,106.705,-0.0091398,0.107849,20.7866,866.367,0.707606,0.0,0.0
664,165.75,99.925,114.247,140.558,115.524,106.554,-0.00916433,0.107789,20.7868,866.387,0.723991,0.0,0.0
666,166.25,100.2,114.298,143.041,115.558,106.167,-0.00919537,0.10774,20.787,866.367,0.759251,0.0,0.0
668,166.75,99.9161,112.995,141.432,115.608,107.382,-0.00922051,0.107701,20.7871,866.357,0.661171,0.0,0.0
670,167.25,99.362,112.871,143.895,115.628,106.455,-0.00924676,0.107669,20.7872,866.357,0.7403,0.0,0.0
672,167.75,98.8354,112.006,146.296,115.669,107.384,-0.00927331,0.107643,20.7872,866.347,0.665756,0.0,0.0
674,168.25,98.5552,111.378,143.846,115.694,107.341,-0.00929482,0.107579,20.7872,866.357,0.671236,0.0,0.0
676,168.75,98.0616,110.931,141.916,115.718,106.849,-0.00932714,0.107527,20.7872,866.347,0.714171,0.0,0.0
678,169.25,97.7107,109.742,141.526,115.748,107.475,-0.00935332,0.107486,20.7872,866.347,0.664245,0.0,0.0
680,169.75,97.3392,109.558,145,115.79,107.175,-0.00938446,0.107452,20.7872,866.357,0.692533,0.0,0.0
682,170.25,97.1895,109.441,138.549,115.808,107.158,-0.00940968,0.107353,20.7872,866.357,0.695345,0.0,0.0
684,170.75,96.4597,108.842,139.895,115.853,107.816,-0.0094288,0.107274,20.787,866.357,0.643963,0.0,0.0
686,171.25,95.8932,107.849,144.329,115.862,107.52,-0.00944312,0.107223,20.7866,866.367,0.669275,0.0,0.0
688,171.75,96.1519,106.837,145.339,115.914,107.307,-0.00944556,0.107183,20.7863,866.357,0.69109,0.0,0.0
690,172.25,95.4435,107.142,140.95,115.909,107.905,-0.00943931,0.107164,20.786,866.377,0.640921,0.0,0.0
692,172.75,95.3032,106.612,145.217,115.945,107.064,-0.00943425,0.107148,20.7858,866.377,0.713856,0.0,0.0
694,173.25,93.8079,105.306,141.712,115.968,107.804,-0.00940531,0.107114,20.7857,866.367,0.653911,0.0,0.0
696,173.75,94.0319,104.444,140.908,116.011,106.911,-0.00938187,0.107065,20.7855,866.377,0.731682,0.0,0.0
698,174.25,94.1163,105.326,148.255,116,106.913,-0.00935374,0.107026,20.7854,866.377,0.730691,0.0,0.0
700,174.75,94.1548,104.712,145.082,116.037,107.892,-0.00932272,0.106994,20.7853,866.377,0.651845,0.0,0.0
702,175.25,92.9608,103.171,139.903,116.049,107.649,-0.00929694,0.106946,20.7852,866.357,0.67308,0.0,0.0
704,175.75,92.0263,103.088,143.643,116.078,107.336,-0.00927547,0.106887,20.7852,866.357,0.70127,0.0,0.0
706,176.25,92.7368,103.074,145.173,116.089,107.578,-0.00926396,0.106839,20.7851,866.367,0.682018,0.0,0.0
708,176.75,92.1986,102.434,145.382,116.122,107.643,-0.00925993,0.10677,20.7855,866.337,0.679173,0.0,0.0
710,177.25,92.0241,102.305,144.317,116.116,107.077,-0.00926451,0.106688,20.7859,866.347,0.725922,0.0,0.0
712,177.75,91.2773,101.59,141.604,116.142,107.546,-0.00927527,0.106643,20.7861,866.347,0.68878,0.0,0.0
714,178.25,91.1998,101.181,143.734,116.159,107.794,-0.00928726,0.106627,20.7863,866.357,0.669466,0.0,0.0
716,178.75,90.8038,100.801,142.221,116.179,107.539,-0.00929991,0.106615,20.7865,866.347,0.692225,0.0,0.0
718,179.25,90.1694,99.5322,142.105,116.184,107.618,-0.00931016,0.106604,20.7867,866.317,0.686002,0.0,0.0
720,179.75,89.7329,99.2578,143.364,116.191,107.154,-0.00931846,0.106596,20.7868,866.347,0.725273,0.0,0.0
722,180.25,90.1211,99.5683,144.246,116.208,107.73,-0.00931152,0.106589,20.7869,866.327,0.678581,0.0,0.0
724,180.75,89.9098,98.8659,143.463,116.224,107.895,-0.00930591,0.106591,20.7869,866.327,0.666059,0.0,0.0
726,181.25,89.4327,98.9307,142.162,116.226,108.271,-0.00928397,0.106599,20.787,866.327,0.635089,0.0,0.0
728,181.75,89.1454,98.2523,142.597,116.246,107.751,-0.00926621,0.106606,20.787,866.327,0.679716,0.0,0.0
730,182.25,88.8894,97.976,141.94,116.255,107.813,-0.00924685,0.106582,20.7873,866.327,0.67529,0.0,0.0
732,182.75,88.5653,97.4353,143.647,116.276,107.867,-0.0092271,0.106535,20.7879,866.317,0.672429,0.0,0.0
734,183.25,87.9037,96.2042,143.413,116.277,107.223,-0.00922344,0.106497,20.7881,866.327,0.726117,0.0,0.0
736,183.75,87.1823,96.4242,143.063,116.28,107.53,-0.00921451,0.106438,20.7885,866.317,0.700718,0.0,0.0
738,184.25,87.5745,96.071,146.304,116.286,107.644,-0.0092108,0.10639,20.7886,866.317,0.691679,0.0,0.0
740,184.75,87.0683,95.4617,144.575,116.303,108.046,-0.00920445,0.106309,20.7888,866.357,0.65961,0.0,0.0
742,185.25,86.369,94.9562,144.453,116.315,107.716,-0.00919343,0.106243,20.7889,866.347,0.687929,0.0,0.0
744,185.75,86.3883,95.2496,143.853,116.326,108.108,-0.00917921,0.106187,20.7891,866.337,0.656212,0.0,0.0
746,186.25,86.6865,94.7335,144.59,116.334,108.003,-0.00916769,0.106172,20.7892,866.337,0.665569,0.0,0.0
748,186.75,86.4053,94.145,144.834,116.328,107.039,-0.00915379,0.106135,20.7892,866.347,0.745492,0.0,0.0
750,187.25,85.4405,93.3073,144.894,116.327,107.781,-0.00913841,0.106126,20.7893,866.347,0.683487,0.0,0.0
752,187.75,85.0768,92.6377,144.626,116.333,107.907,-0.00912661,0.106101,20.7893,866.337,0.673438,0.0,0.0
754,188.25,85.1013,93.3662,143.006,116.351,107.234,-0.00911764,0.106075,20.7889,866.337,0.730952,0.0,0.0
756,188.75,85.3425,92.7082,144.981,116.345,108.574,-0.00911037,0.106053,20.7886,866.357,0.619235,0.0,0.0
758,189.25,84.7495,92.5289,143.909,116.352,107.971,-0.00910448,0.105993,20.7884,866.357,0.669629,0.0,0.0
760,189.75,84.7353,92.1348,143.47,116.346,107.501,-0.00909971,0.105945,20.7882,866.337,0.708294,0.0,0.0
762,190.25,84.4002,92.0875,143.43,116.369,107.641,-0.00909454,0.105928,20.788,866.337,0.698328,0.0,0.0
764,190.75,84.4779,91.6207,143.531,116.354,107.921,-0.00908918,0.105934,20.788,866.347,0.673954,0.0,0.0
766,191.25,83.7787,90.8434,150.825,116.355,107.839,-0.00908876,0.105947,20.7881,866.347,0.680786,0.0,0.0
768,191.75,83.3643,91.0756,143.328,116.36,107.966,-0.00909194,0.105964,20.7881,866.357,0.670664,0.0,0.0
770,192.25,83.9505,90.4447,146.411,116.363,107.371,-0.0091004,0.105978,20.7881,866.347,0.720394,0.0,0.0
772,192.75,83.2788,89.963,144.708,116.357,107.799,-0.00911255,0.105989,20.7882,866.337,0.684309,0.0,0.0
774,193.25,82.4306,89.9382,144.014,116.365,107.887,-0.00912239,0.106041,20.7882,866.317,0.677589,0.0,0.0
776,193.75,83.1243,89.364,141.873,116.347,108.868,-0.00913624,0.10609,20.7882,866.337,0.595113,0.0,0.0
778,194.25,82.3292,88.8484,142.578,116.351,108.192,-0.00915275,0.106137,20.7882,866.317,0.651237,0.0,0.0
780,194.75,82.4382,88.7767,145.846,116.343,107.461,-0.00917332,0.10616,20.7882,866.307,0.71128,0.0,0.0
782,195.25,82.2363,88.0894,144.715,116.353,107.587,-0.00919644,0.106165,20.7882,866.327,0.701599,0.0,0.0
784,195.75,82.0665,88.0648,144.362,116.343,107.603,-0.00921517,0.106169,20.7882,866.337,0.699529,0.0,0.0
786,196.25,81.9077,87.9338,144.159,116.339,108.228,-0.00925145,0.106172,20.7882,866.337,0.647271,0.0,0.0
788,196.75,81.3197,87.3301,147.435,116.327,108.21,-0.00928084,0.106175,20.7882,866.367,0.647894,0.0,0.0
790,197.25,81.7053,87.0065,140.934,116.319,107.919,-0.0093183,0.106214,20.7883,866.357,0.671465,0.0,0.0
792,197.75,81.0302,86.7052,144.544,116.317,108.133,-0.00934864,0.10628,20.7883,866.317,0.65353,0.0,0.0
794,198.25,80.6592,86.7892,144.613,116.327,108.01,-0.00937074,0.106333,20.7883,866.347,0.664411,0.0,0.0
796,198.75,80.44,86.0922,143.972,116.309,107.003,-0.00938863,0.10639,20.7883,866.327,0.74695,0.0,0.0
798,199.25,80.401,85.6859,143.325,116.312,107.961,-0.00938947,0.106437,20.7883,866.337,0.667429,0.0,0.0
800,199.75,79.8454,85.8406,144.669,116.293,107.601,-0.00939015,0.106418,20.7883,866.347,0.695803,0.0,0.0
802,200.25,79.6086,85.8782,140.362,116.286,108.128,-0.0093907,0.106402,20.7883,866.327,0.651559,0.0,0.0
804,200.75,79.7651,84.9875,142.922,116.269,107.369,-0.0093701,0.106375,20.7883,866.337,0.7133,0.0,0.0
806,201.25,79.6328,85.1019,143.866,116.273,107.317,-0.00935342,0.106354,20.7883,866.337,0.717911,0.0,0.0
808,201.75,79.0827,84.742,143.907,116.257,108.406,-0.00932625,0.106336,20.7883,866.337,0.626354,0.0,0.0
810,202.25,79.0838,84.1983,144.436,116.254,108.179,-0.00930424,0.106322,20.7885,866.337,0.644807,0.0,0.0
812,202.75,78.6949,84.2437,140.567,116.239,108.009,-0.00928269,0.10631,20.7886,866.347,0.657709,0.0,0.0
814,203.25,78.1844,84.0249,147.717,116.237,108.021,-0.00926523,0.106301,20.7887,866.337,0.656642,0.0,0.0
816,203.75,78.1742,83.5404,144.439,116.224,107.794,-0.00924737,0.106293,20.7888,866.317,0.674474,0.0,0.0
818,204.25,78.3772,83.1989,145.417,116.223,107.989,-0.0092329,0.106273,20.7889,866.337,0.658163,0.0,0.0
820,204.75,78.2435,83.3426,143.289,116.192,107.745,-0.00921373,0.106243,20.7889,866.327,0.676042,0.0,0.0
822,205.25,78.2981,82.9099,144.691,116.199,107.515,-0.0091982,0.106191,20.789,866.347,0.695676,0.0,0.0
824,205.75,77.4352,82.5658,141.273,116.173,107.643,-0.00917778,0.106148,20.789,866.347,0.683129,0.0,0.0
826,206.25,77.2367,82.5669,142.413,116.165,108.193,-0.00915418,0.106086,20.789,866.337,0.6368,0.0,0.0
828,206.75,77.6634,81.9782,146.036,116.157,108.644,-0.00914412,0.106035,20.789,866.357,0.598933,0.0,0.0
830,207.25,77.5291,81.4271,146.943,116.156,108.032,-0.00911973,0.105994,20.789,866.357,0.649445,0.0,0.0
832,207.75,76.921,82.0219,143.226,116.136,107.647,-0.0090935,0.10596,20.7891,866.337,0.679915,0.0,0.0
834,208.25,76.9441,81.5769,146.326,116.136,108.383,-0.00907226,0.105941,20.7891,866.357,0.618829,0.0,0.0
836,208.75,76.5418,81.2198,147.694,116.103,107.943,-0.00905505,0.105932,20.7891,866.337,0.652781,0.0,0.0
838,209.25,76.5108,80.7955,145.434,116.107,107.204,-0.00904046,0.105924,20.7891,866.347,0.71464,0.0,0.0
840,209.75,76.4971,80.4561,142.879,116.084,107.384,-0.00902805,0.105921,20.7891,866.327,0.697804,0.0,0.0
842,210.25,76.1866,80.3024,146.772,116.077,108.106,-0.009018,0.105916,20.7891,866.347,0.637212,0.0,0.0
844,210.75,76.1055,80.5851,146.802,116.064,107.772,-0.00901235,0.105934,20.7891,866.327,0.663977,0.0,0.0
846,211.25,75.2046,79.7912,146.024,116.062,107.651,-0.00900776,0.105969,20.7891,866.317,0.673793,0.0,0.0
848,211.75,75.4097,79.1851,144.111,116.031,108.01,-0.00901392,0.106012,20.7891,866.317,0.641698,0.0,0.0
850,212.25,75.4817,79.496,143.228,116.037,107.497,-0.00901891,0.10606,20.789,866.317,0.684727,0.0,0.0
852,212.75,75.3391,79.7186,145.004,116.007,107.234,-0.00902295,0.106099,20.7889,866.327,0.704355,0.0,0.0
854,213.25,74.7853,78.7362,144.27,115.994,107.713,-0.00905106,0.106103,20.7882,866.327,0.663444,0.0,0.0
856,213.75,74.778,78.7818,141.54,115.979,107.768,-0.00907382,0.106105,20.7871,866.337,0.657744,0.0,0.0
858,214.25,74.9235,78.8848,144.431,115.975,107.353,-0.00909226,0.10605,20.7862,866.337,0.692035,0.0,0.0
860,214.75,74.7016,78.9048,144.798,115.953,107.707,-0.00912334,0.106005,20.7854,866.337,0.660781,0.0,0.0
862,215.25,75.0221,78.1678,143.898,115.959,107.734,-0.00914851,0.105968,20.7848,866.347,0.658952,0.0,0.0
864,215.75,73.8822,77.9884,144.061,115.919,107.403,-0.00917759,0.105961,20.7844,866.337,0.683465,0.0,0.0
866,216.25,74.3026,77.4394,142.323,115.916,107.784,-0.00920114,0.105975,20.784,866.337,0.651527,0.0,0.0
868,216.75,74.1619,77.9102,142.086,115.911,107.951,-0.00922284,0.106002,20.7837,866.327,0.63719,0.0,0.0
870,217.25,73.9846,77.4279,145.991,115.887,108.137,-0.00924276,0.106037,20.7839,866.337,0.61996,0.0,0.0
872,217.75,73.76,76.9246,141.527,115.86,107.87,-0.00925433,0.106065,20.784,866.337,0.640092,0.0,0.0
874,218.25,73.9871,77.1298,140.588,115.851,106.971,-0.00925958,0.106088,20.7841,866.327,0.714361,0.0,0.0
876,218.75,74.0034,76.9656,145.201,115.837,107.372,-0.00924945,0.106107,20.7842,866.327,0.679685,0.0,0.0
878,219.25,73.8226,76.8361,143.493,115.825,107.161,-0.00922831,0.1061,20.7843,866.337,0.696419,0.0,0.0
880,219.75,73.6724,76.8971,146.899,115.794,107.35,-0.00919878,0.106073,20.7844,866.327,0.678224,0.0,0.0
882,220.25,72.9299,76.6091,145.854,115.79,108.105,-0.00916368,0.106037,20.7844,866.327,0.615182,0.0,0.0
884,220.75,73.0127,76.3576,143.108,115.774,107.33,-0.00913524,0.105995,20.7845,866.327,0.67828,0.0,0.0
886,221.25,72.9575,75.7466,145.044,115.773,107.928,-0.00910241,0.105938,20.7845,866.327,0.628446,0.0,0.0
888,221.75,73.2837,75.8557,143.356,115.749,107.748,,0.105871,,866.327,0.641644,0.0,0.0
890,222.25,72.365,75.808,143.005,115.733,107.573,,0.105818,,866.317,0.654873,0.0,0.0
892,222.75,73.3093,75.4429,142.68,115.722,106.946,,0.105774,,866.317,0.706439,0.0,0.0
894,223.25,72.7597,75.2056,144.325,115.708,107.293,,0.105739,,866.317,0.676307,0.0,0.0
896,223.75,71.9817,75.5156,142.956,115.679,107.105,,0.105696,,866.307,0.689808,0.0,0.0
898,224.25,72.1127,75.5001,142.417,115.676,107.907,,0.105661,,866.327,0.622744,0.0,0.0
900,224.75,72.4505,74.7248,144.049,115.673,107.286,,,,866.317,0.674226,0.0,0.0
902,225.25,72.2544,74.4701,144.582,115.677,108.005,,,,866.347,0.614684,0.0,0.0
904,225.75,72.2208,74.3895,143.231,115.682,106.789,,,,866.317,0.716482,0.0,0.0
906,226.25,71.8402,73.9562,145.481,115.678,107.739,,,,866.327,0.636797,0.0,0.0
908,226.75,71.46,73.7812,144.474,115.683,107.211,,,,866.337,0.681287,0.0,0.0
910,227.25,71.3266,74.5292,146.526,115.688,107.743,,,,866.327,0.637329,0.0,0.0
912,227.75,71.4844,74.1811,140.161,115.697,106.989,,,,866.327,0.700944,0.0,0.0
914,228.25,71.3505,73.5119,143.44,115.69,107.121,,,,866.297,0.689293,0.0,0.0
916,228.75,71.4669,73.4949,141.147,115.702,107.394,,,,866.297,0.667419,0.0,0.0
918,229.25,71.0621,73.4362,144.55,115.702,107.994,,,,866.297,0.61761,0.0,0.0
920,229.75,71.1884,73.1666,145.899,115.716,107.463,,,,866.297,0.662769,0.0,0.0
922,230.25,70.8859,73.3671,142.536,115.709,108.201,,,,866.287,0.600878,0.0,0.0
924,230.75,70.6706,72.9538,140.816,115.72,108.357,,,,866.287,0.58886,0.0,0.0
926,231.25,70.5049,73.1694,146.807,115.715,107.675,,,,866.277,0.645019,0.0,0.0
928,231.75,70.7697,72.2464,141.232,115.723,107.376,,,,866.287,0.670526,0.0,0.0
930,232.25,70.5783,72.2384,148.675,115.729,107.637,,,,866.297,0.649307,0.0,0.0
931,232.5,70.622,72.4609,144.844,115.73,107.13,,,,866.317,0.691654,0.0,0.0