File: 01_Data/FDNY_LDF/STA/N2/10K_min/FDNY_LDF_STA_N2_10KData_22254_R2.csv
##Temp./Â°C,Time/min,DSC(subtr.)/(mW/mg),Mass loss(subtr.)/mg,Sensit./(uV/mW)
49.843,10.00917,0.008134211,0.01481,1.06049
50.543,10.76566,0.04387251,0.01680622,1.06034
51.243,10.9719,0.07081274,0.01614538,1.0602
51.943,11.12462,0.09379147,0.01681925,1.06005
52.643,11.2533,0.11278,0.01673252,1.05991
53.343,11.36779,0.12996,0.01501262,1.05976
54.043,11.47378,0.14544,0.01672708,1.05961
54.743,11.5731,0.15541,0.01781308,1.05946
55.443,11.66763,0.1676,0.01771366,1.05931
56.143,11.75843,0.1791,0.01986213,1.05916
56.843,11.846,0.18471,0.01965298,1.05901
57.543,11.9317,0.19318,0.01644978,1.05885
58.243,12.01564,0.19919,0.01668141,1.0587
58.943,12.09796,0.20523,0.01723382,1.05855
59.643,12.17907,0.21026,0.01711472,1.05839
60.343,12.2591,0.2161,0.01611355,1.05823
61.043,12.33836,0.21996,0.0168375,1.05808
61.743,12.4167,0.22591,0.01721175,1.05792
62.443,12.49488,0.23089,0.01677623,1.05776
63.143,12.57253,0.23712,0.01673508,1.0576
63.843,12.64981,0.23829,0.01677742,1.05744
64.543,12.7264,0.24181,0.01676434,1.05727
65.243,12.80264,0.24438,0.0167887,1.05711
65.943,12.87887,0.24787,0.01678065,1.05695
66.643,12.95457,0.25304,0.01599031,1.05678
67.343,13.02988,0.25725,0.01639627,1.05661
68.043,13.10467,0.25941,0.01646849,1.05645
68.743,13.17973,0.26317,0.01546482,1.05628
69.443,13.25508,0.2678,0.01645828,1.05611
70.143,13.32993,0.26833,0.01680467,1.05594
70.843,13.40431,0.27258,0.01546952,1.05577
71.543,13.47869,0.27411,0.01614845,1.0556
72.243,13.5527,0.2787,0.01550392,1.05543
72.943,13.6265,0.28154,0.01546613,1.05526
73.643,13.7001,0.28556,0.01546998,1.05508
74.343,13.7737,0.28851,0.01423155,1.05491
75.043,13.84707,0.29088,0.01411965,1.05473
75.743,13.92024,0.29541,0.01416,1.05455
76.443,13.99289,0.29961,0.01412403,1.05438
77.143,14.06598,0.29901,0.01279757,1.0542
77.843,14.13875,0.30188,0.01282999,1.05402
78.543,14.2115,0.30287,0.01283,1.05384
79.243,14.28426,0.3039,0.01283038,1.05366
79.943,14.35645,0.30723,0.01253924,1.05348
80.643,14.42871,0.30804,0.01251012,1.05329
81.343,14.50024,0.31103,0.01119097,1.05311
82.043,14.57196,0.31014,0.01126916,1.05293
82.743,14.64321,0.3154,0.01258739,1.05274
83.443,14.7146,0.31345,0.01154652,1.05255
84.143,14.7859,0.31678,0.01151394,1.05237
84.843,14.857,0.31592,0.01019486,1.05218
85.543,14.92779,0.31617,0.01020883,1.05199
86.243,14.9986,0.31819,0.00889048,1.0518
86.943,15.06944,0.31898,0.01020058,1.05161
87.643,15.14,0.3184,0.01019718,1.05142
88.343,15.21025,0.31918,0.01030002,1.05122
89.043,15.28046,0.32053,0.0108459,1.05103
89.743,15.3509,0.31905,0.01021012,1.05084
90.443,15.42116,0.31936,0.008847596,1.05064
91.143,15.4912,0.31919,0.008890214,1.05045
91.843,15.5611,0.32005,0.007564624,1.05025
92.543,15.63088,0.31744,0.007569989,1.05005
93.243,15.7005,0.31848,0.00766253,1.04985
93.943,15.76955,0.31784,0.007570385,1.04965
94.643,15.8391,0.31547,0.007570006,1.04945
95.343,15.90841,0.31557,0.007614396,1.04925
96.043,15.97838,0.31316,0.007569995,1.04905
96.743,16.04768,0.31198,0.00757,1.04885
97.443,16.1169,0.31215,0.007574302,1.04864
98.143,16.18583,0.31143,0.007724184,1.04844
98.843,16.25471,0.30917,0.00757999,1.04823
99.543,16.32378,0.31006,0.0075569,1.04803
100.243,16.39266,0.30693,0.006260138,1.04782
100.943,16.46121,0.30584,0.00626,1.04761
101.643,16.52985,0.30455,0.00626,1.0474
102.343,16.59879,0.30385,0.006260008,1.04719
103.043,16.66785,0.30098,0.00491629,1.04698
103.743,16.73656,0.30102,0.004933391,1.04677
104.443,16.80527,0.29858,0.006248349,1.04656
105.143,16.8739,0.30046,0.00526273,1.04634
105.843,16.9418,0.29679,0.004907514,1.04613
106.543,17.0102,0.29521,0.006247036,1.04591
107.243,17.0788,0.29115,0.006259649,1.0457
107.943,17.1479,0.29218,0.00494043,1.04548
108.643,17.21635,0.29291,0.00630487,1.04526
109.343,17.28491,0.29047,0.004897275,1.04505
110.043,17.3535,0.28915,0.004940118,1.04483
110.743,17.42173,0.29059,0.006100173,1.04461
111.443,17.4901,0.28861,0.006260005,1.04438
112.143,17.55861,0.28809,0.006275855,1.04416
112.843,17.62758,0.28723,0.006255644,1.04394
113.543,17.6961,0.28638,0.005317258,1.04372
114.243,17.76456,0.28657,0.00527002,1.04349
114.943,17.83278,0.28531,0.005855964,1.04327
115.643,17.90084,0.28557,0.006250016,1.04304
116.343,17.96894,0.28656,0.00625,1.04281
117.043,18.03706,0.28633,0.006240079,1.04259
117.743,18.1055,0.28528,0.006247565,1.04236
118.443,18.17343,0.28541,0.004941859,1.04213
119.143,18.24159,0.28676,0.00493976,1.0419
119.843,18.30967,0.28497,0.00626248,1.04167
120.543,18.37806,0.28615,0.004940422,1.04144
121.243,18.44645,0.28593,0.004938911,1.0412
121.943,18.51459,0.28473,0.005934177,1.04097
122.643,18.58266,0.28619,0.004559157,1.04073
123.343,18.65079,0.28428,0.004652621,1.0405
124.043,18.71867,0.28784,0.004913922,1.04026
124.743,18.78647,0.28922,0.00625002,1.04003
125.443,18.85407,0.28801,0.00624991,1.03979
126.143,18.92158,0.28813,0.00553843,1.03955
126.843,18.98924,0.29086,0.0056,1.03931
127.543,19.05711,0.29189,0.005600029,1.03907
128.243,19.12519,0.28743,0.00616228,1.03883
128.943,19.19311,0.28711,0.00626001,1.03859
129.643,19.26093,0.29177,0.00625858,1.03834
130.343,19.32893,0.29177,0.006249951,1.0381
131.043,19.39661,0.29258,0.006900433,1.03786
131.743,19.4644,0.29133,0.00691304,1.03761
132.443,19.53184,0.29284,0.006550281,1.03736
133.143,19.59955,0.294,0.006580003,1.03712
133.843,19.66714,0.29556,0.00665774,1.03687
134.543,19.73479,0.29723,0.00526924,1.03662
135.243,19.80242,0.2978,0.00654319,1.03637
135.943,19.87002,0.29605,0.00658,1.03612
136.643,19.93734,0.29934,0.00638877,1.03587
137.343,20.00466,0.29735,0.005283581,1.03562
138.043,20.07197,0.29837,0.00636725,1.03537
138.743,20.1389,0.29927,0.00527,1.03511
139.443,20.20649,0.30076,0.00518099,1.03486
140.143,20.27396,0.29914,0.006580054,1.0346
140.843,20.3418,0.30132,0.006463255,1.03435
141.543,20.40916,0.30234,0.0055996,1.03409
142.243,20.47641,0.3013,0.007902018,1.03383
142.943,20.54331,0.30356,0.007942139,1.03358
143.643,20.6107,0.30169,0.00941438,1.03332
144.343,20.67819,0.30305,0.00638053,1.03306
145.043,20.74605,0.30586,0.006369997,1.0328
145.743,20.81345,0.30512,0.00636915,1.03253
146.443,20.88087,0.30665,0.005060115,1.03227
147.143,20.94815,0.3082,0.006302429,1.03201
147.843,21.01555,0.30642,0.007749857,1.03175
148.543,21.08256,0.31112,0.00767999,1.03148
149.243,21.1497,0.30826,0.00768,1.03122
149.943,21.2168,0.30984,0.007680235,1.03095
150.643,21.28404,0.30971,0.006343817,1.03068
151.343,21.35139,0.31098,0.006030029,1.03041
152.043,21.41873,0.31402,0.00600551,1.03015
152.743,21.48617,0.31211,0.008978709,1.02988
153.443,21.55327,0.31483,0.007459904,1.02961
154.143,21.62049,0.31496,0.00746,1.02933
154.843,21.68761,0.31368,0.00746,1.02906
155.543,21.7548,0.31879,0.007458193,1.02879
156.243,21.82183,0.31925,0.006151829,1.02852
156.943,21.88907,0.31934,0.00615,1.02824
157.643,21.95617,0.31915,0.00722427,1.02797
158.343,22.02336,0.3214,0.007469214,1.02769
159.043,22.0903,0.32065,0.006157581,1.02741
159.743,22.15745,0.32212,0.006150002,1.02714
160.443,22.22431,0.32294,0.006146508,1.02686
161.143,22.29128,0.32243,0.007463123,1.02658
161.843,22.3584,0.32553,0.007460191,1.0263
162.543,22.42543,0.32511,0.00613502,1.02602
163.243,22.49248,0.32448,0.006140001,1.02574
163.943,22.55949,0.32306,0.006140073,1.02546
164.643,22.62698,0.32686,0.00679191,1.02517
165.343,22.69442,0.32723,0.006800004,1.02489
166.043,22.76127,0.32809,0.006792198,1.02461
166.743,22.82836,0.32943,0.006150194,1.02432
167.443,22.89524,0.32951,0.006144885,1.02403
168.143,22.96271,0.32943,0.006808656,1.02375
168.843,23.02967,0.33088,0.00681,1.02346
169.543,23.09674,0.33346,0.00680991,1.02317
170.243,23.1636,0.33317,0.006081097,1.02288
170.943,23.23087,0.33336,0.006144013,1.02259
171.643,23.2972,0.33395,0.005816949,1.0223
172.343,23.36458,0.33533,0.00582,1.02201
173.043,23.43145,0.33679,0.005808079,1.02172
173.743,23.49916,0.33781,0.004499999,1.02143
174.443,23.566,0.33744,0.004500837,1.02113
175.143,23.63296,0.33681,0.004522098,1.02084
175.843,23.69913,0.33979,0.00451,1.02054
176.543,23.7656,0.33981,0.005129412,1.02025
177.243,23.83223,0.33988,0.005819905,1.01995
177.943,23.89967,0.34276,0.004517061,1.01965
178.643,23.96657,0.34582,0.004510005,1.01935
179.343,24.03301,0.34651,0.00451,1.01905
180.043,24.0998,0.34543,0.00451,1.01875
180.743,24.16675,0.34512,0.00451,1.01845
181.443,24.23399,0.3482,0.00451,1.01815
182.143,24.30075,0.34907,0.004511006,1.01785
182.843,24.3674,0.34885,0.004495915,1.01755
183.543,24.43423,0.35032,0.004500252,1.01724
184.243,24.501,0.35055,0.003140374,1.01694
184.943,24.56778,0.35022,0.003140317,1.01664
185.643,24.63431,0.35336,0.00287256,1.01633
186.343,24.70095,0.35606,0.002893241,1.01602
187.043,24.7678,0.35715,0.00154014,1.01572
187.743,24.83451,0.35557,0.00230169,1.01541
188.443,24.90136,0.35478,0.001540031,1.0151
189.143,24.96783,0.35921,0.001826969,1.01479
189.843,25.03438,0.35828,0.00224661,1.01448
190.543,25.10126,0.36016,0.004171352,1.01417
191.243,25.1681,0.36242,0.001951236,1.01386
191.943,25.23511,0.3622,0.001841588,1.01354
192.643,25.30159,0.36432,0.000879185,1.01323
193.343,25.36822,0.36322,0.0005516058,1.01292
194.043,25.43487,0.36632,0.0006361403,1.0126
194.743,25.50173,0.36797,0.0005515764,1.01229
195.443,25.5684,0.36953,0.0002912556,1.01197
196.143,25.63501,0.36669,-0.0007603903,1.01165
196.843,25.70157,0.37143,0.0005553098,1.01134
197.543,25.7682,0.37265,0.00055,1.01102
198.243,25.83464,0.37318,0.0005490496,1.0107
198.943,25.90101,0.3728,-0.0007494182,1.01038
199.643,25.9675,0.37548,-0.000759972,1.01006
200.343,26.03418,0.37759,-0.00122383,1.00974
201.043,26.10115,0.37439,-0.002079801,1.00941
201.743,26.16808,0.37855,-0.003385154,1.00909
202.443,26.2348,0.3807,-0.003383621,1.00877
203.143,26.30128,0.37781,-0.00471042,1.00844
203.843,26.368,0.38228,-0.00471,1.00812
204.543,26.43478,0.38458,-0.00471,1.00779
205.243,26.5016,0.3862,-0.004709999,1.00747
205.943,26.56833,0.38747,-0.00470671,1.00714
206.643,26.63492,0.38628,-0.005698204,1.00681
207.343,26.70157,0.38837,-0.00569987,1.00648
208.043,26.768,0.3901,-0.006977835,1.00615
208.743,26.83465,0.38828,-0.007019549,1.00582
209.443,26.90107,0.39066,-0.00834541,1.00549
210.143,26.9677,0.39232,-0.008341302,1.00516
210.843,27.03428,0.39438,-0.008238782,1.00483
211.543,27.10112,0.39576,-0.008339884,1.0045
212.243,27.16798,0.39579,-0.009650116,1.00416
212.943,27.2347,0.395,-0.009570298,1.00383
213.643,27.3016,0.39907,-0.008326749,1.00349
214.343,27.3683,0.39858,-0.009650535,1.00316
215.043,27.43494,0.39886,-0.01096844,1.00282
215.743,27.50139,0.40033,-0.01096835,1.00248
216.443,27.56793,0.40168,-0.012287,1.00215
217.143,27.6348,0.40335,-0.01354704,1.00181
217.843,27.7016,0.40386,-0.01491627,1.00147
218.543,27.76848,0.40424,-0.01491003,1.00113
219.243,27.83533,0.40644,-0.01604351,1.00079
219.943,27.902,0.40576,-0.01622711,1.00045
220.643,27.96862,0.41065,-0.01886049,1.0001
221.343,28.03521,0.41049,-0.018279,0.99976
222.043,28.1019,0.41103,-0.01886666,0.99942
222.743,28.1686,0.41339,-0.0198269,0.99907
223.443,28.23514,0.41395,-0.02152821,0.99873
224.143,28.30175,0.41476,-0.02289671,0.99838
224.843,28.3683,0.41461,-0.02276817,0.99804
225.543,28.43498,0.41709,-0.02414972,0.99769
226.243,28.5014,0.4177,-0.02609841,0.99734
226.943,28.56822,0.41634,-0.02611046,0.99699
227.643,28.63482,0.41647,-0.02740822,0.99665
228.343,28.7016,0.41817,-0.02741657,0.9963
229.043,28.7684,0.4214,-0.02873957,0.99595
229.743,28.8354,0.41935,-0.03005579,0.99559
230.443,28.9023,0.41914,-0.03030653,0.99524
231.143,28.9692,0.41773,-0.03269,0.99489
231.843,29.03596,0.41451,-0.03337633,0.99454
232.543,29.1028,0.4186,-0.0343183,0.99418
233.243,29.16945,0.4178,-0.03521508,0.99383
233.943,29.23625,0.42094,-0.03698371,0.99347
234.643,29.3029,0.41866,-0.03816371,0.99312
235.343,29.36975,0.42246,-0.03959,0.99276
236.043,29.43655,0.42027,-0.04099492,0.9924
236.743,29.50325,0.42299,-0.04297121,0.99205
237.443,29.5698,0.42429,-0.04420016,0.99169
238.143,29.6365,0.42225,-0.04423051,0.99133
238.843,29.7033,0.42405,-0.04440198,0.99097
239.543,29.77004,0.42618,-0.04685269,0.99061
240.243,29.8367,0.42734,-0.04940708,0.99025
240.943,29.9033,0.42633,-0.04946157,0.98988
241.643,29.96947,0.43135,-0.05113769,0.98952
242.343,30.036,0.43138,-0.05419907,0.98916
243.043,30.1029,0.43078,-0.05634435,0.98879
243.743,30.16998,0.43089,-0.05883008,0.98843
244.443,30.2367,0.43167,-0.06000417,0.98806
245.143,30.3034,0.43178,-0.06142403,0.9877
245.843,30.3701,0.43331,-0.06273286,0.98733
246.543,30.43683,0.43433,-0.06407147,0.98696
247.243,30.50351,0.43486,-0.0663798,0.9866
247.943,30.5702,0.43577,-0.06868269,0.98623
248.643,30.6369,0.43926,-0.06992239,0.98586
249.343,30.70342,0.43911,-0.0726184,0.98549
250.043,30.77008,0.44037,-0.0746703,0.98512
250.743,30.83695,0.43893,-0.07698537,0.98475
251.443,30.9039,0.43985,-0.07918985,0.98438
252.143,30.9709,0.44249,-0.0810137,0.984
252.843,31.0377,0.44389,-0.08413915,0.98363
253.543,31.1043,0.44335,-0.08562057,0.98326
254.243,31.17097,0.44485,-0.08882961,0.98288
254.943,31.2377,0.4463,-0.09178414,0.98251
255.643,31.30469,0.44637,-0.09363216,0.98213
256.343,31.37166,0.44425,-0.09688619,0.98175
257.043,31.43852,0.44875,-0.10053,0.98138
257.743,31.5054,0.44847,-0.1025,0.981
258.443,31.57217,0.45087,-0.10463,0.98062
259.143,31.6386,0.45111,-0.10798,0.98024
259.843,31.70512,0.45259,-0.11087,0.97986
260.543,31.772,0.45124,-0.11339,0.97948
261.243,31.8388,0.45229,-0.11699,0.9791
261.943,31.90496,0.45306,-0.12071,0.97872
262.643,31.97131,0.4549,-0.12317,0.97834
263.343,32.03798,0.45453,-0.12685,0.97795
264.043,32.10546,0.457,-0.13005,0.97757
264.743,32.17273,0.45732,-0.13346,0.97719
265.443,32.24004,0.45734,-0.13921,0.9768
266.143,32.30699,0.46002,-0.14231,0.97642
266.843,32.37386,0.45975,-0.14636,0.97603
267.543,32.4407,0.45887,-0.15007,0.97564
268.243,32.50731,0.45683,-0.15322,0.97526
268.943,32.57437,0.45994,-0.15785,0.97487
269.643,32.6412,0.46025,-0.16132,0.97448
270.343,32.7082,0.4601,-0.16551,0.97409
271.043,32.77512,0.46127,-0.16978,0.9737
271.743,32.84197,0.46481,-0.17474,0.97331
272.443,32.90891,0.46343,-0.17886,0.97292
273.143,32.97596,0.46483,-0.18319,0.97253
273.843,33.04316,0.4658,-0.18864,0.97214
274.543,33.11031,0.46632,-0.19446,0.97174
275.243,33.17733,0.46698,-0.19956,0.97135
275.943,33.2443,0.46679,-0.20332,0.97095
276.643,33.31132,0.46814,-0.20881,0.97056
277.343,33.37833,0.46858,-0.21601,0.97016
278.043,33.44525,0.46779,-0.22104,0.96977
278.743,33.51209,0.4706,-0.22585,0.96937
279.443,33.5789,0.47042,-0.23229,0.96897
280.143,33.64593,0.47076,-0.23867,0.96858
280.843,33.713,0.4756,-0.24433,0.96818
281.543,33.78,0.47514,-0.2494,0.96778
282.243,33.84677,0.4749,-0.25628,0.96738
282.943,33.9135,0.47494,-0.26178,0.96698
283.643,33.98044,0.47786,-0.26891,0.96658
284.343,34.0476,0.47878,-0.27513,0.96618
285.043,34.11438,0.47948,-0.28231,0.96577
285.743,34.18119,0.48008,-0.28963,0.96537
286.443,34.248,0.48421,-0.29573,0.96497
287.143,34.3149,0.48395,-0.30164,0.96456
287.843,34.38175,0.48674,-0.30891,0.96416
288.543,34.44833,0.4891,-0.31657,0.96375
289.243,34.51505,0.48971,-0.32397,0.96335
289.943,34.58188,0.49182,-0.33131,0.96294
290.643,34.64877,0.49291,-0.33802,0.96254
291.343,34.7157,0.49342,-0.34717,0.96213
292.043,34.7821,0.49434,-0.35422,0.96172
292.743,34.84892,0.49752,-0.36314,0.96131
293.443,34.9157,0.49768,-0.37207,0.9609
294.143,34.9829,0.49677,-0.38029,0.96049
294.843,35.04971,0.50106,-0.38937,0.96008
295.543,35.11681,0.50101,-0.39766,0.95967
296.243,35.18388,0.5031,-0.40604,0.95926
296.943,35.25096,0.50781,-0.41524,0.95885
297.643,35.31776,0.5061,-0.42543,0.95843
298.343,35.38443,0.51041,-0.43341,0.95802
299.043,35.45126,0.5124,-0.44439,0.95761
299.743,35.51825,0.51661,-0.4537,0.95719
300.443,35.58546,0.51735,-0.46337,0.95678
301.143,35.6526,0.5195,-0.4746,0.95636
301.843,35.7194,0.52338,-0.48397,0.95594
302.543,35.7864,0.52708,-0.49439,0.95553
303.243,35.8534,0.52843,-0.50609,0.95511
303.943,35.92037,0.53168,-0.51688,0.95469
304.643,35.9873,0.5348,-0.52817,0.95427
305.343,36.05434,0.53774,-0.5386,0.95385
306.043,36.12138,0.53931,-0.54997,0.95343
306.743,36.1886,0.54671,-0.56123,0.95301
307.443,36.25549,0.54598,-0.57407,0.95259
308.143,36.32242,0.54939,-0.58573,0.95217
308.843,36.38908,0.55146,-0.59831,0.95175
309.543,36.4561,0.55282,-0.61085,0.95132
310.243,36.5233,0.55693,-0.62316,0.9509
310.943,36.59059,0.55997,-0.63498,0.95048
311.643,36.65794,0.56169,-0.64948,0.95005
312.343,36.72531,0.56703,-0.66341,0.94963
313.043,36.7924,0.56951,-0.67728,0.9492
313.743,36.85942,0.57327,-0.69141,0.94878
314.443,36.9264,0.57543,-0.70469,0.94835
315.143,36.99385,0.57835,-0.71932,0.94792
315.843,37.06127,0.58168,-0.73353,0.94749
316.543,37.12847,0.58661,-0.74815,0.94707
317.243,37.19553,0.58858,-0.76342,0.94664
317.943,37.2626,0.59054,-0.77816,0.94621
318.643,37.3298,0.59394,-0.79326,0.94578
319.343,37.3971,0.59645,-0.80819,0.94535
320.043,37.46448,0.59614,-0.82471,0.94492
320.743,37.53163,0.59907,-0.8398,0.94448
321.443,37.59897,0.60268,-0.85562,0.94405
322.143,37.66617,0.60489,-0.87239,0.94362
322.843,37.73366,0.60597,-0.88858,0.94319
323.543,37.80106,0.60915,-0.90375,0.94275
324.243,37.86845,0.61152,-0.92016,0.94232
324.943,37.9358,0.61203,-0.93619,0.94188
325.643,38.00306,0.61595,-0.95348,0.94145
326.343,38.0704,0.61602,-0.96975,0.94101
327.043,38.13779,0.61779,-0.98623,0.94057
327.743,38.20533,0.61787,-1.00423,0.94014
328.443,38.27274,0.62008,-1.02282,0.9397
329.143,38.34017,0.6231,-1.03895,0.93926
329.843,38.40756,0.62201,-1.05548,0.93882
330.543,38.47502,0.62375,-1.07383,0.93838
331.243,38.5426,0.6267,-1.08999,0.93794
331.943,38.60989,0.62758,-1.10819,0.9375
332.643,38.67713,0.62879,-1.12579,0.93706
333.343,38.7446,0.6312,-1.1417,0.93662
334.043,38.81185,0.6332,-1.16026,0.93618
334.743,38.87942,0.63586,-1.17776,0.93574
335.443,38.94684,0.63668,-1.19475,0.93529
336.143,39.01437,0.63935,-1.21245,0.93485
336.843,39.08168,0.63836,-1.23186,0.93441
337.543,39.14895,0.64348,-1.25013,0.93396
338.243,39.2162,0.64634,-1.26786,0.93352
338.943,39.2836,0.64562,-1.28698,0.93307
339.643,39.3508,0.65078,-1.30479,0.93262
340.343,39.4182,0.65397,-1.32201,0.93218
341.043,39.48563,0.6587,-1.33958,0.93173
341.743,39.5533,0.65892,-1.3596,0.93128
342.443,39.6209,0.66309,-1.3782,0.93083
343.143,39.68844,0.66927,-1.39747,0.93038
343.843,39.75588,0.67067,-1.41647,0.92993
344.543,39.82322,0.6799,-1.43434,0.92948
345.243,39.8907,0.68057,-1.45483,0.92903
345.943,39.95821,0.68732,-1.47434,0.92858
346.643,40.0259,0.6936,-1.49355,0.92813
347.343,40.0937,0.70156,-1.51192,0.92768
348.043,40.16152,0.70472,-1.53235,0.92723
348.743,40.229,0.71253,-1.55364,0.92677
349.443,40.29593,0.72211,-1.57392,0.92632
350.143,40.3634,0.7302,-1.59328,0.92587
350.843,40.43101,0.73408,-1.61349,0.92541
351.543,40.49908,0.74709,-1.63529,0.92496
352.243,40.567,0.75761,-1.6576,0.9245
352.943,40.63477,0.76553,-1.67927,0.92405
353.643,40.70255,0.77506,-1.69988,0.92359
354.343,40.7703,0.78108,-1.72193,0.92313
355.043,40.83814,0.79163,-1.74528,0.92267
355.743,40.90603,0.79972,-1.76653,0.92222
356.443,40.97382,0.80668,-1.78978,0.92176
357.143,41.04173,0.81689,-1.81434,0.9213
357.843,41.1096,0.82363,-1.83765,0.92084
358.543,41.1774,0.83214,-1.86001,0.92038
359.243,41.24521,0.83826,-1.88619,0.91992
359.943,41.31304,0.84602,-1.91059,0.91946
360.643,41.38084,0.85509,-1.93428,0.919
361.343,41.4489,0.86023,-1.95968,0.91853
362.043,41.51699,0.86641,-1.98471,0.91807
362.743,41.58532,0.8684,-2.00957,0.91761
363.443,41.6535,0.87233,-2.03506,0.91715
364.143,41.72105,0.87656,-2.05932,0.91668
364.843,41.78902,0.87706,-2.08451,0.91622
365.543,41.85709,0.88013,-2.11008,0.91575
366.243,41.9257,0.88134,-2.13863,0.91529
366.943,41.99377,0.87579,-2.16258,0.91482
367.643,42.0617,0.87138,-2.18737,0.91435
368.343,42.12959,0.86702,-2.21282,0.91389
369.043,42.19769,0.86106,-2.23822,0.91342
369.743,42.26593,0.85166,-2.26417,0.91295
370.443,42.33402,0.84128,-2.2877,0.91248
371.143,42.40211,0.82589,-2.31248,0.91201
371.843,42.46997,0.81385,-2.33677,0.91154
372.543,42.5381,0.79697,-2.35801,0.91108
373.243,42.60602,0.77714,-2.38119,0.9106
373.943,42.674,0.7576,-2.40435,0.91013
374.643,42.74207,0.73804,-2.42532,0.90966
375.343,42.8101,0.70992,-2.447,0.90919
376.043,42.87806,0.68519,-2.46837,0.90872
376.743,42.94596,0.66219,-2.48717,0.90825
377.443,43.01383,0.63165,-2.50587,0.90777
378.143,43.08183,0.60147,-2.52404,0.9073
378.843,43.14978,0.57511,-2.54084,0.90683
379.543,43.21758,0.54405,-2.55686,0.90635
380.243,43.28516,0.51256,-2.57249,0.90588
380.943,43.35303,0.47971,-2.58643,0.9054
381.643,43.42072,0.44554,-2.59821,0.90492
382.343,43.4887,0.41752,-2.61167,0.90445
383.043,43.55637,0.38343,-2.62185,0.90397
383.743,43.62426,0.35218,-2.63235,0.90349
384.443,43.6918,0.32414,-2.64114,0.90302
385.143,43.75979,0.29602,-2.65101,0.90254
385.843,43.8274,0.26909,-2.65901,0.90206
386.543,43.89525,0.24434,-2.666,0.90158
387.243,43.96305,0.22305,-2.67215,0.9011
387.943,44.03107,0.20184,-2.67762,0.90062
388.643,44.09912,0.18295,-2.68303,0.90014
389.343,44.16675,0.16286,-2.68669,0.89966
390.043,44.23446,0.1469,-2.69329,0.89918
390.743,44.30235,0.13486,-2.6968,0.8987
391.443,44.37025,0.1218,-2.70097,0.89821
392.143,44.4383,0.11397,-2.70376,0.89773
392.843,44.50642,0.10747,-2.70723,0.89725
393.543,44.57448,0.10061,-2.7098,0.89676
394.243,44.64222,0.09831455,-2.71281,0.89628
394.943,44.70991,0.09273088,-2.71441,0.8958
395.643,44.77771,0.08868396,-2.71851,0.89531
396.343,44.8459,0.08582295,-2.72136,0.89483
397.043,44.91437,0.08360528,-2.72394,0.89434
397.743,44.98264,0.08277369,-2.72538,0.89385
398.443,45.05086,0.08213202,-2.72683,0.89337
399.143,45.11918,0.07814872,-2.72964,0.89288
399.843,45.18764,0.07500998,-2.73111,0.89239
400.543,45.25607,0.07152962,-2.73499,0.8919
401.243,45.3247,0.07202112,-2.73648,0.89141
401.943,45.39315,0.06705875,-2.73799,0.89093
402.643,45.4618,0.06709759,-2.74084,0.89044
403.343,45.53013,0.06460952,-2.74257,0.88995
404.043,45.59857,0.06274881,-2.7449,0.88946
404.743,45.66689,0.05940673,-2.74645,0.88897
405.443,45.7352,0.06121214,-2.74908,0.88848
406.143,45.80381,0.05839542,-2.75073,0.88798
406.843,45.87225,0.05584561,-2.75359,0.88749
407.543,45.94086,0.05572839,-2.75516,0.887
408.243,46.00908,0.0527486,-2.75772,0.88651
408.943,46.0774,0.05364615,-2.76049,0.88601
409.643,46.14573,0.05259612,-2.76216,0.88552
410.343,46.2142,0.05052567,-2.76434,0.88503
411.043,46.2827,0.04876126,-2.76736,0.88453
411.743,46.35073,0.04565747,-2.76732,0.88404
412.443,46.4192,0.04556062,-2.77001,0.88354
413.143,46.48741,0.04437343,-2.77294,0.88305
413.843,46.55627,0.04250731,-2.77582,0.88255
414.543,46.62443,0.04244305,-2.77742,0.88205
415.243,46.69274,0.03960024,-2.77981,0.88156
415.943,46.76106,0.03968505,-2.78256,0.88106
416.643,46.82949,0.03652543,-2.78319,0.88056
417.343,46.8979,0.03740665,-2.78593,0.88006
418.043,46.9662,0.03400748,-2.78793,0.87956
418.743,47.0345,0.03324296,-2.7905,0.87906
419.443,47.10267,0.03244206,-2.79224,0.87856
420.143,47.17088,0.02872455,-2.7947,0.87806
420.843,47.23925,0.02882076,-2.7971,0.87756
421.543,47.3078,0.02708765,-2.79983,0.87706
422.243,47.37637,0.02747372,-2.80118,0.87656
422.943,47.44471,0.02590301,-2.80392,0.87606
423.643,47.51317,0.02353605,-2.80541,0.87556
424.343,47.5816,0.02128266,-2.80782,0.87506
425.043,47.6502,0.01947602,-2.81062,0.87455
425.743,47.71852,0.01864247,-2.81126,0.87405
426.443,47.78707,0.01725128,-2.81404,0.87355
427.143,47.85556,0.01714135,-2.81521,0.87304
427.843,47.92425,0.01284879,-2.81772,0.87254
428.543,47.99264,0.01744696,-2.81976,0.87204
429.243,48.061,0.01445729,-2.82184,0.87153
429.943,48.12937,0.01540575,-2.8251,0.87102
430.643,48.19815,0.01504398,-2.82732,0.87052
431.343,48.2667,0.01296228,-2.83002,0.87001
432.043,48.33547,0.01427963,-2.83028,0.86951
432.743,48.4039,0.01263102,-2.83303,0.869
433.443,48.4726,0.01160604,-2.8353,0.86849
434.143,48.54112,0.0101086,-2.83818,0.86798
434.843,48.60975,0.01238686,-2.83971,0.86748
435.543,48.67817,0.01382553,-2.8413,0.86697
436.243,48.74684,0.01276877,-2.8436,0.86646
436.943,48.81528,0.01435355,-2.84529,0.86595
437.643,48.8838,0.01620005,-2.84715,0.86544
438.343,48.95216,0.01644309,-2.84951,0.86493
439.043,49.0208,0.01663164,-2.85166,0.86442
439.743,49.0895,0.01824167,-2.85359,0.86391
440.443,49.15821,0.01824537,-2.85459,0.8634
441.143,49.2268,0.0223736,-2.85664,0.86288
441.843,49.29514,0.02085121,-2.85862,0.86237
442.543,49.3636,0.02406919,-2.86039,0.86186
443.243,49.43208,0.02565166,-2.86294,0.86135
443.943,49.5008,0.02811328,-2.86556,0.86083
444.643,49.56935,0.02783865,-2.86687,0.86032
445.343,49.63812,0.02741474,-2.86817,0.85981
446.043,49.707,0.03045947,-2.86942,0.85929
446.743,49.77592,0.03320315,-2.87239,0.85878
447.443,49.84466,0.03539002,-2.87517,0.85826
448.143,49.9133,0.03642357,-2.87632,0.85775
448.843,49.98191,0.03760204,-2.87785,0.85723
449.543,50.0505,0.03947741,-2.88011,0.85672
450.243,50.11911,0.04210607,-2.88276,0.8562
450.943,50.18788,0.04081931,-2.88405,0.85568
451.643,50.25679,0.04554884,-2.88669,0.85517
452.343,50.3258,0.04573882,-2.88784,0.85465
453.043,50.39459,0.04812236,-2.88987,0.85413
453.743,50.4632,0.05050991,-2.89116,0.85361
454.443,50.532,0.05011388,-2.8924,0.85309
455.143,50.6008,0.05465875,-2.89506,0.85257
455.843,50.66979,0.05528558,-2.89543,0.85205
456.543,50.7387,0.05791435,-2.89769,0.85153
457.243,50.80772,0.06008881,-2.89771,0.85101
457.943,50.87678,0.06267052,-2.90013,0.85049
458.643,50.94536,0.06619404,-2.90165,0.84997
459.343,51.01404,0.06520736,-2.90288,0.84945
460.043,51.08287,0.06816329,-2.90432,0.84893
460.743,51.1518,0.06935983,-2.9071,0.84841
461.443,51.22065,0.07109155,-2.90755,0.84789
462.143,51.28947,0.0764466,-2.90832,0.84736
462.843,51.35835,0.07637631,-2.90891,0.84684
463.543,51.4274,0.07695075,-2.90987,0.84632
464.243,51.49602,0.07990114,-2.91194,0.84579
464.943,51.56495,0.0806465,-2.91453,0.84527
465.643,51.63367,0.08312565,-2.91586,0.84475
466.343,51.7027,0.08427298,-2.91762,0.84422
467.043,51.7717,0.08806297,-2.91917,0.8437
467.743,51.8408,0.08902733,-2.91963,0.84317
468.443,51.90971,0.09204789,-2.92094,0.84265
469.143,51.97853,0.09247859,-2.92193,0.84212
469.843,52.04724,0.09405104,-2.92324,0.84159
470.543,52.11625,0.09558048,-2.92467,0.84107
471.243,52.18499,0.09557172,-2.92588,0.84054
471.943,52.25401,0.10008,-2.92609,0.84001
472.643,52.32292,0.09832284,-2.92758,0.83949
473.343,52.39212,0.10163,-2.93024,0.83896
474.043,52.46145,0.10218,-2.92884,0.83843
474.743,52.5305,0.10281,-2.93015,0.8379
475.443,52.59964,0.10576,-2.93146,0.83737
476.143,52.66825,0.10636,-2.93278,0.83684
476.843,52.7373,0.10766,-2.9341,0.83631
477.543,52.8062,0.10807,-2.93544,0.83578
478.243,52.87546,0.10721,-2.93672,0.83525
478.943,52.9445,0.11148,-2.93804,0.83472
479.643,53.01347,0.11369,-2.93946,0.83419
480.343,53.08251,0.11381,-2.94065,0.83366
481.043,53.15172,0.11207,-2.942,0.83313
481.743,53.2208,0.11322,-2.9433,0.8326
482.443,53.2899,0.11812,-2.94331,0.83206
483.143,53.359,0.12081,-2.94265,0.83153
483.843,53.4282,0.1178,-2.94332,0.831
484.543,53.49719,0.11759,-2.94463,0.83047
485.243,53.56613,0.11908,-2.94461,0.82993
485.943,53.6353,0.12017,-2.94562,0.8294
486.643,53.7043,0.12184,-2.94698,0.82886
487.343,53.7733,0.12129,-2.94705,0.82833
488.043,53.8424,0.12446,-2.94917,0.8278
488.743,53.91171,0.12247,-2.95055,0.82726
489.443,53.9809,0.12496,-2.95135,0.82672
490.143,54.04991,0.12403,-2.95318,0.82619
490.843,54.119,0.12465,-2.95559,0.82565
491.543,54.18841,0.12598,-2.95593,0.82512
492.243,54.2577,0.12469,-2.95593,0.82458
492.943,54.32702,0.12818,-2.95724,0.82404
493.643,54.3961,0.12742,-2.95724,0.82351
494.343,54.4653,0.12726,-2.95724,0.82297
495.043,54.5341,0.1295,-2.95857,0.82243
495.743,54.60325,0.12879,-2.9592,0.82189
496.443,54.6723,0.1295,-2.9598,0.82135
497.143,54.7417,0.1323,-2.96107,0.82082
497.843,54.8109,0.13135,-2.96295,0.82028
498.543,54.8802,0.13045,-2.96416,0.81974
499.243,54.9496,0.13038,-2.96481,0.8192
499.943,55.01911,0.13253,-2.96613,0.81866
500.643,55.0882,0.13448,-2.96542,0.81812
501.343,55.15753,0.13758,-2.96678,0.81758
502.043,55.2268,0.13375,-2.96897,0.81704
502.743,55.2963,0.13463,-2.9698,0.8165
503.443,55.3657,0.13359,-2.97005,0.81595
504.143,55.4351,0.13049,-2.9704,0.81541
504.843,55.50445,0.13155,-2.9694,0.81487
505.543,55.57375,0.13123,-2.97041,0.81433
506.243,55.64309,0.13355,-2.97173,0.81379
506.943,55.7125,0.13523,-2.97302,0.81324
507.643,55.78176,0.13907,-2.97348,0.8127
508.343,55.851,0.13588,-2.97483,0.81216
509.043,55.9201,0.13804,-2.97668,0.81161
509.743,55.98935,0.13638,-2.97698,0.81107
510.443,56.05885,0.13882,-2.977,0.81053
511.143,56.1282,0.13772,-2.97831,0.80998
511.843,56.19752,0.13929,-2.97948,0.80944
512.543,56.26653,0.14008,-2.98022,0.80889
513.243,56.33576,0.1443,-2.98159,0.80835
513.943,56.40506,0.14216,-2.98258,0.8078
514.643,56.47441,0.14627,-2.98147,0.80725
515.343,56.54379,0.14754,-2.983,0.80671
516.043,56.61315,0.1511,-2.98311,0.80616
516.743,56.68249,0.15282,-2.98516,0.80561
517.443,56.7519,0.15363,-2.98683,0.80507
518.143,56.8213,0.15207,-2.98554,0.80452
518.843,56.8908,0.15386,-2.98554,0.80397
519.543,56.9601,0.15608,-2.98686,0.80343
520.243,57.0295,0.15789,-2.98685,0.80288
520.943,57.09881,0.16584,-2.98719,0.80233
521.643,57.1682,0.16319,-2.9885,0.80178
522.343,57.2376,0.16492,-2.99119,0.80123
523.043,57.3066,0.16985,-2.99246,0.80068
523.743,57.37576,0.17416,-2.9924,0.80013
524.443,57.4449,0.17472,-2.99309,0.79958
525.143,57.51452,0.17643,-2.99376,0.79903
525.843,57.58396,0.18044,-2.99377,0.79848
526.543,57.65342,0.18014,-2.99454,0.79793
527.243,57.7227,0.1827,-2.99504,0.79738
527.943,57.79214,0.18031,-2.9964,0.79683
528.643,57.8616,0.18658,-2.9964,0.79628
529.343,57.93104,0.18561,-2.99641,0.79573
530.043,58.0007,0.18765,-2.99637,0.79518
530.743,58.0701,0.18559,-2.99771,0.79463
531.443,58.1399,0.18888,-2.9981,0.79407
532.143,58.20926,0.18867,-2.99903,0.79352
532.843,58.27874,0.19119,-3.00045,0.79297
533.543,58.34815,0.19444,-3.00177,0.79242
534.243,58.41715,0.18858,-3.00173,0.79186
534.943,58.4862,0.19471,-3.00309,0.79131
535.643,58.55516,0.19012,-3.00306,0.79075
536.343,58.62506,0.18969,-3.00375,0.7902
537.043,58.69483,0.19253,-3.00507,0.78965
537.743,58.76478,0.19403,-3.00643,0.78909
538.443,58.8343,0.19487,-3.00638,0.78854
539.143,58.9039,0.19513,-3.00573,0.78798
539.843,58.9736,0.19324,-3.00806,0.78743
540.543,59.0431,0.19333,-3.00694,0.78687
541.243,59.11294,0.19669,-3.00836,0.78632
541.943,59.18235,0.19438,-3.00804,0.78576
542.643,59.252,0.19773,-3.00935,0.7852
543.343,59.3214,0.19556,-3.0093,0.78465
544.043,59.39114,0.19637,-3.01001,0.78409
544.743,59.46088,0.19856,-3.00997,0.78353
545.443,59.53066,0.19666,-3.01132,0.78298
546.143,59.60035,0.19586,-3.01263,0.78242
546.843,59.6697,0.19567,-3.01263,0.78186
547.543,59.73908,0.19899,-3.01395,0.78131
548.243,59.8085,0.19549,-3.01395,0.78075
548.943,59.87834,0.19409,-3.01527,0.78019
549.643,59.9481,0.19378,-3.01527,0.77963
550.343,60.01805,0.19605,-3.01625,0.77907
551.043,60.0879,0.1951,-3.01628,0.77851
551.743,60.15772,0.19426,-3.01498,0.77795
552.443,60.2274,0.19219,-3.01724,0.77739
553.143,60.2971,0.19389,-3.0182,0.77683
553.843,60.36681,0.1961,-3.01902,0.77628
554.543,60.43654,0.19405,-3.01987,0.77572
555.243,60.5061,0.19544,-3.02117,0.77515
555.943,60.5757,0.1973,-3.02119,0.77459
556.643,60.6453,0.19563,-3.0225,0.77403
557.343,60.7151,0.19632,-3.02316,0.77347
558.043,60.78495,0.19474,-3.02388,0.77291
558.743,60.8547,0.19095,-3.02383,0.77235
559.443,60.92416,0.19175,-3.0241,0.77179
560.143,60.99341,0.18871,-3.02416,0.77123
560.843,61.0625,0.18877,-3.02562,0.77067
561.543,61.1322,0.18885,-3.02593,0.7701
562.243,61.20219,0.18754,-3.02736,0.76954
562.943,61.2722,0.19031,-3.02849,0.76898
563.643,61.3421,0.18739,-3.02745,0.76842
564.343,61.4117,0.18468,-3.02803,0.76785
565.043,61.4814,0.18582,-3.02876,0.76729
565.743,61.551,0.18508,-3.02876,0.76673
566.443,61.62069,0.18358,-3.02876,0.76616
567.143,61.6903,0.18717,-3.03008,0.7656
567.843,61.7602,0.18443,-3.0314,0.76503
568.543,61.83016,0.18588,-3.03073,0.76447
569.243,61.90042,0.18605,-3.03073,0.76391
569.943,61.9704,0.18409,-3.03238,0.76334
570.643,62.0403,0.18268,-3.03237,0.76278
571.343,62.1101,0.18317,-3.03369,0.76221
572.043,62.1798,0.18311,-3.03369,0.76165
572.743,62.24975,0.18031,-3.03369,0.76108
573.443,62.31951,0.18286,-3.0337,0.76051
574.143,62.3893,0.18368,-3.03501,0.75995
574.843,62.4594,0.18193,-3.03501,0.75938
575.543,62.52969,0.18214,-3.0367,0.75882
576.243,62.6001,0.18352,-3.03764,0.75825
576.943,62.67015,0.17838,-3.03896,0.75768
577.643,62.74009,0.18143,-3.03896,0.75712
578.343,62.81012,0.18296,-3.03896,0.75655
579.043,62.88035,0.17998,-3.04027,0.75598
579.743,62.95075,0.18121,-3.04027,0.75542
580.443,63.0209,0.18051,-3.04126,0.75485
581.143,63.09091,0.17857,-3.04258,0.75428
581.843,63.16085,0.18258,-3.04278,0.75371
582.543,63.23098,0.18049,-3.04257,0.75314
583.243,63.3013,0.18059,-3.04389,0.75258
583.943,63.37151,0.17785,-3.04352,0.75201
584.643,63.4417,0.17837,-3.04395,0.75144
585.343,63.5116,0.17918,-3.04258,0.75087
586.043,63.5817,0.1779,-3.04405,0.7503
586.743,63.6517,0.17716,-3.04639,0.74973
587.443,63.72186,0.17958,-3.04653,0.74916
588.143,63.7919,0.17855,-3.04653,0.74859
588.843,63.8619,0.17804,-3.04653,0.74802
589.543,63.9321,0.18025,-3.04785,0.74745
590.243,64.0021,0.17805,-3.04785,0.74688
590.943,64.07229,0.17698,-3.04866,0.74631
591.643,64.14238,0.17597,-3.04883,0.74574
592.343,64.21257,0.17585,-3.0492,0.74517
593.043,64.28267,0.176,-3.05036,0.7446
593.743,64.35282,0.17726,-3.04953,0.74403
594.443,64.423,0.17457,-3.05037,0.74346
595.143,64.4932,0.17499,-3.05047,0.74289
595.843,64.56318,0.17559,-3.05083,0.74232
596.543,64.6331,0.17287,-3.05048,0.74174
597.243,64.70323,0.17581,-3.05044,0.74117
597.943,64.77329,0.176,-3.05171,0.7406
598.643,64.84354,0.17531,-3.05311,0.74003
599.343,64.9135,0.17396,-3.0531,0.73946
600.043,64.9838,0.17303,-3.05343,0.73888
600.743,65.05404,0.17556,-3.05388,0.73831
601.443,65.12446,0.17379,-3.05475,0.73774
602.143,65.1948,0.17128,-3.05475,0.73717
602.843,65.26495,0.16873,-3.05606,0.73659
603.543,65.33507,0.16807,-3.05575,0.73602
604.243,65.4051,0.16901,-3.05704,0.73545
604.943,65.4752,0.17022,-3.05575,0.73487
605.643,65.54554,0.16776,-3.05639,0.7343
606.343,65.61588,0.16817,-3.05805,0.73372
607.043,65.68619,0.16947,-3.05934,0.73315
607.743,65.75635,0.16705,-3.05936,0.73258
608.443,65.8263,0.16781,-3.06068,0.732
609.143,65.89622,0.16943,-3.05937,0.73143
609.843,65.96595,0.16935,-3.06067,0.73085
610.543,66.03618,0.16701,-3.06002,0.73028
611.243,66.1064,0.16869,-3.06002,0.7297
611.943,66.177,0.17066,-3.06133,0.72913
612.643,66.24722,0.1689,-3.06269,0.72855
613.343,66.31755,0.16833,-3.06265,0.72798
614.043,66.38763,0.16459,-3.06265,0.7274
614.743,66.45784,0.16652,-3.06265,0.72683
615.443,66.52806,0.1639,-3.06265,0.72625
616.143,66.5983,0.1638,-3.06269,0.72567
616.843,66.66861,0.16609,-3.06331,0.7251
617.543,66.7388,0.16481,-3.06331,0.72452
618.243,66.80911,0.16204,-3.06462,0.72395
618.943,66.87945,0.1621,-3.06462,0.72337
619.643,66.9498,0.15935,-3.06693,0.72279
620.343,67.01997,0.16057,-3.06797,0.72222
621.043,67.09026,0.16139,-3.06687,0.72164
621.743,67.16056,0.16174,-3.0683,0.72106
622.443,67.2308,0.15794,-3.06824,0.72049
623.143,67.30109,0.15731,-3.06824,0.71991
623.843,67.37134,0.15544,-3.06824,0.71933
624.543,67.4417,0.1554,-3.06844,0.71875
625.243,67.5119,0.15079,-3.06958,0.71818
625.943,67.58207,0.14881,-3.07087,0.7176
626.643,67.6523,0.15199,-3.07087,0.71702
627.343,67.7225,0.15188,-3.07087,0.71644
628.043,67.7927,0.15294,-3.07079,0.71586
628.743,67.8629,0.15195,-3.07088,0.71528
629.443,67.93315,0.14962,-3.07088,0.71471
630.143,68.00324,0.14968,-3.0708,0.71413
630.843,68.07335,0.14856,-3.0722,0.71355
631.543,68.1433,0.15069,-3.0722,0.71297
632.243,68.2136,0.14993,-3.0722,0.71239
632.943,68.28366,0.14822,-3.0722,0.71181
633.643,68.35367,0.14767,-3.07351,0.71123
634.343,68.4237,0.14727,-3.07374,0.71065
635.043,68.49387,0.14652,-3.07379,0.71007
635.743,68.56438,0.14609,-3.07351,0.7095
636.443,68.63472,0.14656,-3.07351,0.70892
637.143,68.70536,0.14577,-3.07351,0.70834
637.843,68.77588,0.14538,-3.07488,0.70776
638.543,68.84635,0.14464,-3.07482,0.70718
639.243,68.91677,0.14175,-3.07614,0.7066
639.943,68.98722,0.14456,-3.07484,0.70602
640.643,69.05785,0.14158,-3.07579,0.70544
641.343,69.12841,0.1397,-3.07615,0.70485
642.043,69.19877,0.14315,-3.07615,0.70427
642.743,69.2689,0.13808,-3.07615,0.70369
643.443,69.33931,0.14097,-3.07746,0.70311
644.143,69.40986,0.13971,-3.07746,0.70253
644.843,69.48045,0.13515,-3.07746,0.70195
645.543,69.55091,0.13865,-3.07746,0.70137
646.243,69.62106,0.1355,-3.07746,0.70079
646.943,69.69155,0.13998,-3.07878,0.70021
647.643,69.7619,0.13483,-3.07745,0.69963
648.343,69.83277,0.13745,-3.07878,0.69904
649.043,69.90341,0.13455,-3.07877,0.69846
649.743,69.97403,0.1368,-3.08009,0.69788
650.443,70.04456,0.13193,-3.08077,0.6973
651.143,70.115,0.13617,-3.0807,0.69672
651.843,70.18554,0.13348,-3.08207,0.69614
652.543,70.256,0.12997,-3.08207,0.69555
653.243,70.3265,0.13662,-3.0828,0.69497
653.943,70.39715,0.13382,-3.08206,0.69439
654.643,70.46771,0.13375,-3.08206,0.69381
655.343,70.53833,0.13283,-3.08305,0.69322
656.043,70.60891,0.13342,-3.08305,0.69264
656.743,70.67964,0.13477,-3.08207,0.69206
657.443,70.7501,0.13327,-3.08207,0.69148
658.143,70.82033,0.13386,-3.08211,0.69089
658.843,70.89062,0.13458,-3.08339,0.69031
659.543,70.96109,0.13322,-3.08209,0.68973
660.243,71.03151,0.13355,-3.08483,0.68915
660.943,71.10181,0.13372,-3.0847,0.68856
661.643,71.1722,0.1342,-3.08379,0.68798
662.343,71.24276,0.1308,-3.08408,0.6874
663.043,71.3134,0.12984,-3.08548,0.68681
663.743,71.38409,0.13081,-3.08602,0.68623
664.443,71.45465,0.13437,-3.08602,0.68564
665.143,71.5252,0.1333,-3.0847,0.68506
665.843,71.5959,0.13316,-3.08601,0.68448
666.543,71.6665,0.13176,-3.08721,0.68389
667.243,71.7368,0.1338,-3.08733,0.68331
667.943,71.80748,0.13127,-3.08733,0.68273
668.643,71.87816,0.13415,-3.08735,0.68214
669.343,71.94923,0.13219,-3.08667,0.68156
670.043,72.01958,0.13445,-3.08667,0.68097
670.743,72.09,0.13225,-3.08801,0.68039
671.443,72.1605,0.13222,-3.08799,0.67981
672.143,72.2311,0.13579,-3.08859,0.67922
672.843,72.3016,0.13525,-3.08864,0.67864
673.543,72.3719,0.13241,-3.08842,0.67805
674.243,72.44236,0.13271,-3.08748,0.67747
674.943,72.51289,0.13165,-3.08874,0.67688
675.643,72.58333,0.13121,-3.08931,0.6763
676.343,72.65394,0.13257,-3.08931,0.67571
677.043,72.72453,0.13373,-3.08928,0.67513
677.743,72.79522,0.13205,-3.08931,0.67454
678.443,72.8657,0.13451,-3.08921,0.67396
679.143,72.9362,0.13708,-3.09063,0.67337
679.843,73.0068,0.13602,-3.09194,0.67279
680.543,73.0774,0.13539,-3.09174,0.6722
681.243,73.148,0.13377,-3.09194,0.67162
681.943,73.21859,0.13722,-3.09194,0.67103
682.643,73.28914,0.13439,-3.09194,0.67045
683.343,73.35979,0.13204,-3.09194,0.66986
684.043,73.4304,0.13292,-3.09186,0.66928
684.743,73.5011,0.13317,-3.09193,0.66869
685.443,73.5718,0.13402,-3.09193,0.66811
686.143,73.6425,0.13577,-3.09193,0.66752
686.843,73.71336,0.1327,-3.09324,0.66693
687.543,73.78416,0.13276,-3.09325,0.66635
688.243,73.85498,0.13471,-3.09323,0.66576
688.943,73.9257,0.1347,-3.09262,0.66518
689.643,73.9966,0.13439,-3.09391,0.66459
690.343,74.0675,0.1357,-3.09458,0.664
691.043,74.1383,0.13249,-3.09522,0.66342
691.743,74.209,0.13597,-3.09522,0.66283
692.443,74.27937,0.13982,-3.09522,0.66225
693.143,74.35021,0.13453,-3.09458,0.66166
693.843,74.42106,0.13773,-3.09457,0.66107
694.543,74.49226,0.14127,-3.09576,0.66049
695.243,74.5633,0.14048,-3.09588,0.6599
695.943,74.63428,0.13956,-3.09721,0.65932
696.643,74.70523,0.14106,-3.09721,0.65873
697.343,74.77605,0.14169,-3.09719,0.65814
698.043,74.84694,0.13933,-3.09655,0.65756
698.743,74.91766,0.13788,-3.09655,0.65697
699.443,74.98829,0.13798,-3.09786,0.65638
700.143,75.05892,0.14268,-3.09786,0.6558
700.843,75.12987,0.14093,-3.09852,0.65521
701.543,75.20066,0.1477,-3.09852,0.65462
702.243,75.27117,0.14755,-3.09852,0.65404
702.943,75.34174,0.14564,-3.09852,0.65345
703.643,75.41258,0.14721,-3.09819,0.65286
704.343,75.48387,0.14597,-3.0981,0.65228
705.043,75.5549,0.14411,-3.09859,0.65169
705.743,75.62591,0.15044,-3.09983,0.6511
706.443,75.69673,0.14582,-3.10003,0.65052
707.143,75.76771,0.14658,-3.10082,0.64993
707.843,75.8383,0.15136,-3.10082,0.64934
708.543,75.90897,0.14974,-3.10004,0.64876
709.243,75.9795,0.14757,-3.10072,0.64817
709.943,76.05038,0.14547,-3.10006,0.64758
710.643,76.1213,0.14668,-3.09975,0.64699
711.343,76.19227,0.15083,-3.10104,0.64641
712.043,76.26325,0.14813,-3.10104,0.64582
712.743,76.3343,0.14938,-3.09973,0.64523
713.443,76.40533,0.1561,-3.10104,0.64465
714.143,76.47649,0.15349,-3.10157,0.64406
714.843,76.54737,0.15261,-3.1017,0.64347
715.543,76.61837,0.15566,-3.10203,0.64288
716.243,76.6892,0.15518,-3.10203,0.6423
716.943,76.7603,0.16004,-3.10334,0.64171
717.643,76.83113,0.15678,-3.10239,0.64112
718.343,76.90214,0.15726,-3.10367,0.64054
719.043,76.97295,0.15642,-3.10367,0.63995
719.743,77.04383,0.15611,-3.10367,0.63936
720.443,77.11466,0.15422,-3.10367,0.63877
721.143,77.18548,0.16055,-3.10414,0.63819
721.843,77.25633,0.15764,-3.10631,0.6376
722.543,77.32706,0.15812,-3.105,0.63701
723.243,77.39798,0.16571,-3.10368,0.63643
723.943,77.46892,0.16624,-3.10498,0.63584
724.643,77.5398,0.16375,-3.10499,0.63525
725.343,77.61049,0.16604,-3.10499,0.63466
726.043,77.6814,0.16255,-3.105,0.63408
726.743,77.75215,0.16317,-3.10499,0.63349
727.443,77.8232,0.16337,-3.10499,0.6329
728.143,77.8942,0.16089,-3.10499,0.63231
728.843,77.9653,0.16439,-3.10498,0.63173
729.543,78.0364,0.16267,-3.10631,0.63114
730.243,78.10713,0.16296,-3.10631,0.63055
730.943,78.17811,0.16251,-3.10499,0.62996
731.643,78.2491,0.16234,-3.10597,0.62938
732.343,78.3201,0.16385,-3.10597,0.62879
733.043,78.39109,0.16116,-3.10597,0.6282
733.743,78.46206,0.16209,-3.10597,0.62761
734.443,78.53288,0.1657,-3.10629,0.62703
735.143,78.60386,0.16466,-3.10731,0.62644
735.843,78.6747,0.16471,-3.10729,0.62585
736.543,78.7458,0.16627,-3.10764,0.62527
737.243,78.81674,0.16746,-3.10894,0.62468
737.943,78.88792,0.16527,-3.10834,0.62409
738.643,78.95902,0.16542,-3.10763,0.6235
739.343,79.03015,0.16346,-3.10763,0.62292
740.043,79.10114,0.16309,-3.10763,0.62233
740.743,79.17231,0.16494,-3.10881,0.62174
741.443,79.24332,0.16346,-3.10894,0.62115
742.143,79.3139,0.16384,-3.10985,0.62057
742.843,79.38481,0.1599,-3.10894,0.61998
743.543,79.4558,0.16031,-3.10927,0.61939
744.243,79.52717,0.1578,-3.10927,0.61881
744.943,79.59792,0.16368,-3.10951,0.61822
745.643,79.6687,0.16354,-3.1096,0.61763
746.343,79.73966,0.16219,-3.1096,0.61704
747.043,79.81066,0.16406,-3.11092,0.61646
747.743,79.88163,0.16081,-3.11058,0.61587
748.443,79.95244,0.1629,-3.11058,0.61528
749.143,80.02342,0.1655,-3.1105,0.61469
749.843,80.09437,0.1671,-3.1119,0.61411
750.543,80.16535,0.16645,-3.11158,0.61352
751.243,80.2362,0.16949,-3.1126,0.61293
751.943,80.3071,0.17187,-3.11256,0.61235
752.643,80.37805,0.17036,-3.1132,0.61176
753.343,80.449,0.17501,-3.11321,0.61117
754.043,80.52019,0.17157,-3.11453,0.61059
754.743,80.59141,0.16643,-3.1132,0.61
755.443,80.66266,0.16622,-3.11337,0.60941
756.143,80.73376,0.16324,-3.11322,0.60883
756.843,80.80463,0.16359,-3.11322,0.60824
757.543,80.87576,0.16597,-3.11322,0.60765
758.243,80.9467,0.16396,-3.11322,0.60706
758.943,81.01769,0.16482,-3.11357,0.60648
759.643,81.0885,0.16316,-3.11354,0.60589
760.343,81.15948,0.16238,-3.11354,0.6053
761.043,81.23047,0.15986,-3.11355,0.60472
761.743,81.30152,0.16434,-3.11486,0.60413
762.443,81.37253,0.16543,-3.11486,0.60354
763.143,81.44341,0.16556,-3.11486,0.60296
763.843,81.51426,0.165,-3.11486,0.60237
764.543,81.5852,0.16199,-3.11614,0.60179
765.243,81.65616,0.16482,-3.11618,0.6012
765.943,81.72702,0.16521,-3.11566,0.60061
766.643,81.7976,0.16785,-3.11553,0.60003
767.343,81.86797,0.17008,-3.11685,0.59944
768.043,81.93876,0.16914,-3.11716,0.59885
768.743,82.00967,0.16187,-3.11849,0.59827
769.443,82.08089,0.16189,-3.11797,0.59768
770.143,82.15171,0.16123,-3.11849,0.5971
770.843,82.22281,0.16313,-3.11849,0.59651
771.543,82.2938,0.16377,-3.11981,0.59592
772.243,82.36474,0.16114,-3.1198,0.59534
772.943,82.43559,0.15992,-3.11878,0.59475
773.643,82.50665,0.16362,-3.11848,0.59417
774.343,82.57774,0.16274,-3.11848,0.59358
775.043,82.64882,0.16024,-3.1198,0.59299
775.743,82.71986,0.16155,-3.1198,0.59241
776.443,82.791,0.16129,-3.1198,0.59182
777.143,82.86206,0.16322,-3.11847,0.59124
777.843,82.93311,0.16298,-3.1185,0.59065
778.543,83.00418,0.15924,-3.11979,0.59007
779.243,83.07517,0.16165,-3.11982,0.58948
779.943,83.14599,0.16465,-3.12111,0.58889
780.643,83.2168,0.16444,-3.1211,0.58831
781.343,83.2877,0.16893,-3.12243,0.58772
782.043,83.35876,0.17185,-3.12243,0.58714
782.743,83.4297,0.17434,-3.12243,0.58655
783.443,83.50065,0.17592,-3.12112,0.58597
784.143,83.57167,0.1716,-3.12184,0.58538
784.843,83.64288,0.17502,-3.12178,0.5848
785.543,83.71399,0.17641,-3.12178,0.58421
786.243,83.78501,0.17685,-3.12233,0.58363
786.943,83.8559,0.18046,-3.1231,0.58304
787.643,83.92685,0.17911,-3.12177,0.58246
788.343,83.99791,0.18093,-3.12311,0.58187
789.043,84.06907,0.18138,-3.12309,0.58129
789.743,84.14019,0.18269,-3.12309,0.5807
790.443,84.21075,0.18095,-3.1231,0.58012
791.143,84.28163,0.18076,-3.12341,0.57954
791.843,84.35303,0.18042,-3.12309,0.57895
792.543,84.42481,0.18087,-3.12309,0.57837
793.243,84.49625,0.18315,-3.1244,0.57778
793.943,84.5672,0.18541,-3.1244,0.5772
794.643,84.6382,0.18554,-3.1244,0.57661
795.343,84.70912,0.1897,-3.1244,0.57603
796.043,84.78022,0.18597,-3.12506,0.57545
796.743,84.85119,0.18664,-3.12578,0.57486
797.443,84.92231,0.19021,-3.12474,0.57428
798.143,84.9932,0.1935,-3.12441,0.57369