File: 01_Data/FDNY_LDF/STA/N2/10K_min/LDF_STA_N2_10KData_22224_R1.csv
##Temp./Â°C,Time/min,DSC(subtr.)/(mW/mg),Mass loss(subtr.)/mg,Sensit./(uV/mW)
49.718,10.01,0.007835105,0.00592,1.06051
50.418,10.77069,0.04117695,0.004326675,1.06037
51.118,10.97476,0.06733823,0.005325075,1.06023
51.818,11.12676,0.08582958,0.006627525,1.06008
52.518,11.25693,0.10167,0.004900629,1.05993
53.218,11.37318,0.11698,0.004888465,1.05979
53.918,11.4791,0.12843,0.006817356,1.05964
54.618,11.57817,0.13619,0.00772665,1.05949
55.318,11.67248,0.14482,0.008318539,1.05934
56.018,11.7631,0.15241,0.00771847,1.05919
56.718,11.85217,0.15747,0.00839349,1.05903
57.418,11.93885,0.16324,0.00658918,1.05888
58.118,12.02307,0.1718,0.00696594,1.05873
58.818,12.10603,0.17646,0.006010535,1.05857
59.518,12.18758,0.18029,0.00759846,1.05842
60.218,12.26795,0.18429,0.00662784,1.05826
60.918,12.3475,0.19007,0.007421456,1.0581
61.618,12.4261,0.195,0.007515458,1.05794
62.318,12.50463,0.19769,0.006421575,1.05779
63.018,12.5823,0.20034,0.007013192,1.05763
63.718,12.65923,0.20502,0.007190289,1.05746
64.418,12.73558,0.20712,0.00654905,1.0573
65.118,12.8119,0.20804,0.00607818,1.05714
65.818,12.8881,0.21129,0.007448823,1.05698
66.518,12.96417,0.21496,0.006187201,1.05681
67.218,13.03955,0.21852,0.006149454,1.05664
67.918,13.1148,0.22008,0.006138501,1.05648
68.618,13.1898,0.22455,0.006140926,1.05631
69.318,13.2649,0.2261,0.0061503,1.05614
70.018,13.33939,0.22838,0.0058025,1.05597
70.718,13.4139,0.23153,0.006243,1.0558
71.418,13.48806,0.23357,0.006139965,1.05563
72.118,13.56206,0.23477,0.004850834,1.05546
72.818,13.63618,0.23629,0.00483194,1.05529
73.518,13.7103,0.24073,0.004821575,1.05511
74.218,13.7844,0.24383,0.00350627,1.05494
74.918,13.85803,0.24729,0.003519627,1.05476
75.618,13.9312,0.24922,0.00351985,1.05459
76.318,14.00421,0.24991,0.003541499,1.05441
77.018,14.07712,0.25132,0.00384942,1.05423
77.718,14.15003,0.25477,0.00383947,1.05405
78.418,14.22279,0.25811,0.005161449,1.05387
79.118,14.29509,0.25906,0.003909634,1.05369
79.818,14.36725,0.25953,0.002978125,1.05351
80.518,14.4397,0.26371,0.003399923,1.05333
81.218,14.51185,0.2627,0.002567601,1.05314
81.918,14.58354,0.26598,0.003400203,1.05296
82.618,14.65484,0.26775,0.00235783,1.05277
83.318,14.72608,0.26757,0.000429143,1.05259
84.018,14.79747,0.27203,0.0008064012,1.0524
84.718,14.86861,0.27086,-0.0005497668,1.05221
85.418,14.9397,0.27128,0.000774175,1.05202
86.118,15.0106,0.27303,0.000773872,1.05183
86.818,15.0814,0.27438,-0.0008535844,1.05164
87.518,15.152,0.27233,-0.0008700022,1.05145
88.218,15.2225,0.27305,-0.000868129,1.05126
88.918,15.293,0.2732,-0.00219246,1.05107
89.618,15.36309,0.27414,-0.000890571,1.05087
90.318,15.4331,0.27333,-0.002189048,1.05068
91.018,15.5031,0.27222,-0.002191159,1.05048
91.718,15.57327,0.27317,-0.003508195,1.05028
92.418,15.64315,0.27031,-0.004917564,1.05009
93.118,15.7128,0.26991,-0.003510935,1.04989
93.818,15.7821,0.26965,-0.003499377,1.04969
94.518,15.85149,0.267,-0.002190091,1.04949
95.218,15.9208,0.26608,-0.002189962,1.04929
95.918,15.9902,0.26608,-0.003505357,1.04909
96.618,16.05973,0.26484,-0.005787591,1.04888
97.318,16.12924,0.26247,-0.00610159,1.04868
98.018,16.1985,0.26292,-0.00614727,1.04847
98.718,16.26735,0.26179,-0.006135847,1.04827
99.418,16.3362,0.2578,-0.005163486,1.04806
100.118,16.40511,0.25749,-0.004830372,1.04786
100.818,16.47403,0.25515,-0.00619134,1.04765
101.518,16.54293,0.25504,-0.007412529,1.04744
102.218,16.61168,0.25613,-0.00694016,1.04723
102.918,16.68042,0.25324,-0.006436432,1.04702
103.618,16.74909,0.25337,-0.004678319,1.04681
104.318,16.81788,0.25024,-0.004316937,1.04659
105.018,16.88642,0.24692,-0.005604248,1.04638
105.718,16.95479,0.24604,-0.007020048,1.04617
106.418,17.02338,0.24627,-0.006917699,1.04595
107.118,17.09189,0.24661,-0.007988877,1.04574
107.818,17.1604,0.246,-0.007997763,1.04552
108.518,17.2286,0.2442,-0.007888559,1.0453
109.218,17.297,0.24324,-0.006910195,1.04508
109.918,17.3655,0.24338,-0.006909999,1.04487
110.618,17.434,0.24275,-0.00692106,1.04465
111.318,17.5028,0.24291,-0.008219075,1.04442
112.018,17.5713,0.23976,-0.008220042,1.0442
112.718,17.6396,0.23982,-0.007885779,1.04398
113.418,17.7077,0.23957,-0.00753052,1.04376
114.118,17.77559,0.23863,-0.006563701,1.04353
114.818,17.84375,0.23662,-0.006198097,1.04331
115.518,17.9117,0.23693,-0.006250004,1.04308
116.218,17.97994,0.23742,-0.00625,1.04285
116.918,18.0482,0.23633,-0.006250524,1.04263
117.618,18.11684,0.23586,-0.00648617,1.0424
118.318,18.18524,0.23351,-0.00786624,1.04217
119.018,18.25333,0.23428,-0.007138555,1.04194
119.718,18.32122,0.2371,-0.007903214,1.04171
120.418,18.3895,0.23756,-0.006580089,1.04148
121.118,18.45785,0.2357,-0.006580007,1.04124
121.818,18.5261,0.23535,-0.00756686,1.04101
122.518,18.59413,0.23638,-0.00690888,1.04078
123.218,18.6621,0.23747,-0.00691,1.04054
123.918,18.73028,0.23582,-0.00690997,1.0403
124.618,18.79836,0.2367,-0.006583709,1.04007
125.318,18.86639,0.23666,-0.007778053,1.03983
126.018,18.93429,0.23691,-0.00657497,1.03959
126.718,19.00209,0.2365,-0.00787984,1.03935
127.418,19.0698,0.23499,-0.006579983,1.03911
128.118,19.13767,0.23537,-0.00658,1.03887
128.818,19.20577,0.23601,-0.0065805,1.03863
129.518,19.27378,0.23877,-0.00525335,1.03839
130.218,19.34159,0.24021,-0.005260055,1.03814
130.918,19.4095,0.23806,-0.006906751,1.0379
131.618,19.47741,0.2381,-0.006910004,1.03765
132.318,19.54533,0.23818,-0.006836224,1.03741
133.018,19.61338,0.23795,-0.006897037,1.03716
133.718,19.68121,0.23987,-0.00756107,1.03691
134.418,19.74889,0.24211,-0.008127546,1.03667
135.118,19.81662,0.24236,-0.008879952,1.03642
135.818,19.8843,0.24377,-0.008868183,1.03617
136.518,19.9522,0.24406,-0.007561018,1.03592
137.218,20.01977,0.24365,-0.00690731,1.03566
137.918,20.08719,0.24458,-0.00693416,1.03541
138.618,20.1546,0.24583,-0.008229872,1.03516
139.318,20.22235,0.24528,-0.00823,1.0349
140.018,20.2901,0.2442,-0.008230004,1.03465
140.718,20.3578,0.24654,-0.00813984,1.03439
141.418,20.42549,0.24658,-0.008220015,1.03414
142.118,20.49311,0.24819,-0.00821999,1.03388
142.818,20.56084,0.24845,-0.008240068,1.03362
143.518,20.6282,0.2485,-0.008549948,1.03336
144.218,20.69581,0.24784,-0.00923693,1.0331
144.918,20.7632,0.24633,-0.008220005,1.03284
145.618,20.83061,0.24936,-0.00822,1.03258
146.318,20.89759,0.24998,-0.00822,1.03232
147.018,20.9646,0.25136,-0.00822,1.03206
147.718,21.032,0.25181,-0.008220738,1.03179
148.418,21.09957,0.25259,-0.009540114,1.03153
149.118,21.16739,0.25335,-0.00823105,1.03126
149.818,21.23463,0.25277,-0.008228336,1.031
150.518,21.30198,0.25375,-0.008891482,1.03073
151.218,21.3693,0.25307,-0.008890097,1.03046
151.918,21.43668,0.25382,-0.00753045,1.03019
152.618,21.50398,0.25712,-0.008389709,1.02992
153.318,21.5713,0.2562,-0.00722944,1.02965
154.018,21.63859,0.25578,-0.007560678,1.02938
154.718,21.70576,0.25829,-0.007560083,1.02911
155.418,21.7729,0.25842,-0.008373129,1.02884
156.118,21.84,0.25851,-0.008548844,1.02857
156.818,21.9072,0.2585,-0.00734119,1.02829
157.518,21.97469,0.25752,-0.006249898,1.02802
158.218,22.04205,0.26016,-0.00761211,1.02774
158.918,22.10949,0.25929,-0.007569866,1.02746
159.618,22.1767,0.2613,-0.008890596,1.02719
160.318,22.24363,0.25797,-0.007559496,1.02691
161.018,22.31069,0.26108,-0.00755946,1.02663
161.718,22.37806,0.25846,-0.00656831,1.02635
162.418,22.44559,0.26015,-0.007104465,1.02607
163.118,22.51294,0.25916,-0.00855358,1.02579
163.818,22.5797,0.26108,-0.007230095,1.02551
164.518,22.6463,0.26067,-0.008509228,1.02522
165.218,22.71335,0.26177,-0.009208735,1.02494
165.918,22.78068,0.2602,-0.0105208,1.02466
166.618,22.84863,0.26276,-0.01056248,1.02437
167.318,22.91587,0.26319,-0.009208326,1.02409
168.018,22.9829,0.26335,-0.007901791,1.0238
168.718,23.04992,0.26218,-0.0079,1.02351
169.418,23.11659,0.2651,-0.00789973,1.02322
170.118,23.18365,0.26612,-0.009255484,1.02293
170.818,23.25084,0.26827,-0.01052021,1.02264
171.518,23.31781,0.2698,-0.009374953,1.02235
172.218,23.38437,0.26662,-0.009209966,1.02206
172.918,23.4513,0.27043,-0.009205331,1.02177
173.618,23.5183,0.26994,-0.008522356,1.02148
174.318,23.58565,0.27179,-0.00987223,1.02118
175.018,23.65254,0.27272,-0.01117832,1.02089
175.718,23.71944,0.27238,-0.0111798,1.02059
176.418,23.78645,0.27305,-0.01083876,1.0203
177.118,23.8534,0.27619,-0.01006274,1.02
177.818,23.92006,0.27373,-0.01020247,1.01971
178.518,23.98682,0.27539,-0.01052998,1.01941
179.218,24.05377,0.27424,-0.01053,1.01911
179.918,24.12048,0.27883,-0.01053,1.01881
180.618,24.18702,0.27776,-0.01053003,1.01851
181.318,24.2537,0.27726,-0.01101145,1.01821
182.018,24.32062,0.27954,-0.01222824,1.0179
182.718,24.38768,0.28076,-0.01381909,1.0176
183.418,24.45469,0.2784,-0.01382,1.0173
184.118,24.5218,0.27941,-0.01382889,1.01699
184.818,24.5884,0.28093,-0.01514016,1.01669
185.518,24.65511,0.28061,-0.015091,1.01638
186.218,24.72194,0.28231,-0.01649054,1.01608
186.918,24.7888,0.28226,-0.01544513,1.01577
187.618,24.8555,0.28442,-0.01415011,1.01546
188.318,24.92211,0.28511,-0.01461482,1.01515
189.018,24.98873,0.2857,-0.0150992,1.01484
189.718,25.05569,0.28543,-0.01777584,1.01453
190.418,25.12286,0.28784,-0.01777,1.01422
191.118,25.18959,0.2887,-0.01777008,1.01391
191.818,25.25626,0.28734,-0.01712415,1.0136
192.518,25.32299,0.28975,-0.01711,1.01329
193.218,25.39,0.28971,-0.01710985,1.01297
193.918,25.45682,0.2908,-0.01849874,1.01266
194.618,25.52337,0.29259,-0.01777009,1.01234
195.318,25.5902,0.29505,-0.01777092,1.01203
196.018,25.65717,0.29378,-0.01866311,1.01171
196.718,25.7242,0.29437,-0.01805964,1.01139
197.418,25.79085,0.29585,-0.01820842,1.01107
198.118,25.85745,0.29765,-0.02082179,1.01075
198.818,25.92416,0.29657,-0.02220629,1.01044
199.518,25.9908,0.29806,-0.02115112,1.01011
200.218,26.05761,0.30034,-0.02085719,1.00979
200.918,26.1242,0.3022,-0.0209595,1.00947
201.618,26.19104,0.30333,-0.0235832,1.00915
202.318,26.2574,0.30428,-0.02357417,1.00883
203.018,26.32375,0.30446,-0.02497258,1.0085
203.718,26.3902,0.30683,-0.02358017,1.00818
204.418,26.45715,0.3074,-0.02457246,1.00785
205.118,26.52429,0.30927,-0.02465265,1.00752
205.818,26.59106,0.31213,-0.02148546,1.0072
206.518,26.6577,0.3088,-0.02178196,1.00687
207.218,26.7241,0.31311,-0.02305484,1.00654
207.918,26.7906,0.31258,-0.0237633,1.00621
208.618,26.857,0.31354,-0.02314002,1.00588
209.318,26.9236,0.31583,-0.02455694,1.00555
210.018,26.9901,0.31564,-0.02446198,1.00522
210.718,27.05653,0.31656,-0.02708978,1.00489
211.418,27.1231,0.31696,-0.02986561,1.00456
212.118,27.18967,0.31674,-0.02972,1.00422
212.818,27.2564,0.31901,-0.02975284,1.00389
213.518,27.32305,0.31826,-0.02968733,1.00355
214.218,27.38983,0.31977,-0.03235277,1.00322
214.918,27.45635,0.32355,-0.03366863,1.00288
215.618,27.52287,0.32345,-0.03369338,1.00254
216.318,27.5892,0.324,-0.03498007,1.00221
217.018,27.6557,0.32212,-0.03498144,1.00187
217.718,27.72237,0.32274,-0.03641453,1.00153
218.418,27.7892,0.32532,-0.03762078,1.00119
219.118,27.85598,0.32577,-0.03762001,1.00085
219.818,27.9227,0.32499,-0.03756733,1.00051
220.518,27.98945,0.32612,-0.03893999,1.00017
221.218,28.05542,0.32679,-0.03894,0.99982
221.918,28.12167,0.32721,-0.03894,0.99948
222.618,28.1881,0.32868,-0.03894001,0.99914
223.318,28.2553,0.33005,-0.03884537,0.99879
224.018,28.3221,0.3297,-0.04079372,0.99845
224.718,28.38888,0.32876,-0.04157439,0.9981
225.418,28.4554,0.33119,-0.04157039,0.99775
226.118,28.5223,0.32926,-0.04420206,0.9974
226.818,28.58902,0.33352,-0.0467602,0.99706
227.518,28.656,0.33289,-0.04748967,0.99671
228.218,28.72295,0.33427,-0.04884856,0.99636
228.918,28.7896,0.3356,-0.04909282,0.99601
229.618,28.85633,0.33329,-0.05089004,0.99566
230.318,28.923,0.33137,-0.05209958,0.99531
231.018,28.9897,0.32878,-0.05340882,0.99495
231.718,29.056,0.33199,-0.05350738,0.9946
232.418,29.12258,0.33033,-0.05608738,0.99425
233.118,29.1892,0.33296,-0.05736175,0.99389
233.818,29.25637,0.33176,-0.05867673,0.99354
234.518,29.3231,0.33184,-0.05751287,0.99318
235.218,29.38997,0.3342,-0.05867917,0.99282
235.918,29.45703,0.33351,-0.06069173,0.99247
236.618,29.52417,0.33635,-0.06202063,0.99211
237.318,29.59106,0.33499,-0.06338551,0.99175
238.018,29.65782,0.33454,-0.06385866,0.99139
238.718,29.72448,0.33695,-0.06778364,0.99103
239.418,29.79123,0.33731,-0.06921031,0.99067
240.118,29.85805,0.3385,-0.0697362,0.99031
240.818,29.925,0.3382,-0.07019953,0.98995
241.518,29.9918,0.33769,-0.07152485,0.98959
242.218,30.05831,0.33929,-0.0734598,0.98922
242.918,30.1247,0.34079,-0.07426649,0.98886
243.618,30.1914,0.34169,-0.07491256,0.9885
244.318,30.2582,0.3408,-0.08094727,0.98813
245.018,30.3252,0.34306,-0.08397547,0.98776
245.718,30.39221,0.34306,-0.08671233,0.9874
246.418,30.45904,0.34343,-0.08954606,0.98703
247.118,30.5259,0.34424,-0.0901751,0.98666
247.818,30.5924,0.34646,-0.09177878,0.98629
248.518,30.6591,0.34597,-0.094366,0.98593
249.218,30.7255,0.34726,-0.09559693,0.98556
249.918,30.79232,0.34731,-0.09909713,0.98518
250.618,30.8589,0.35064,-0.10036,0.98481
251.318,30.9259,0.34944,-0.10322,0.98444
252.018,30.99268,0.34975,-0.10321,0.98407
252.718,31.05922,0.35043,-0.10321,0.9837
253.418,31.1256,0.35342,-0.10832,0.98332
254.118,31.19221,0.35355,-0.11185,0.98295
254.818,31.25825,0.35291,-0.11579,0.98257
255.518,31.3251,0.35204,-0.11731,0.9822
256.218,31.3919,0.35599,-0.1202,0.98182
256.918,31.4593,0.35559,-0.12336,0.98144
257.618,31.52627,0.35512,-0.12635,0.98107
258.318,31.593,0.35779,-0.12939,0.98069
259.018,31.6595,0.35855,-0.13281,0.98031
259.718,31.72621,0.35826,-0.13535,0.97993
260.418,31.7931,0.36068,-0.13835,0.97955
261.118,31.86,0.35911,-0.1416,0.97917
261.818,31.927,0.36122,-0.14499,0.97879
262.518,31.9937,0.36011,-0.14828,0.97841
263.218,32.06044,0.36114,-0.15201,0.97802
263.918,32.12712,0.36066,-0.15557,0.97764
264.618,32.1937,0.36245,-0.15707,0.97726
265.318,32.26055,0.36321,-0.16152,0.97687
266.018,32.3273,0.36408,-0.1663,0.97649
266.718,32.39399,0.36481,-0.17275,0.9761
267.418,32.4608,0.36416,-0.17753,0.97571
268.118,32.52756,0.36579,-0.18047,0.97533
268.818,32.59454,0.36525,-0.18607,0.97494
269.518,32.6613,0.36903,-0.18977,0.97455
270.218,32.7282,0.36869,-0.19257,0.97416
270.918,32.79522,0.36724,-0.19759,0.97377
271.618,32.86222,0.369,-0.20174,0.97338
272.318,32.92928,0.36784,-0.20591,0.97299
273.018,32.99621,0.37022,-0.2121,0.9726
273.718,33.06303,0.37123,-0.21796,0.97221
274.418,33.13003,0.36863,-0.22299,0.97181
275.118,33.19679,0.37185,-0.22865,0.97142
275.818,33.26384,0.37181,-0.23469,0.97102
276.518,33.3307,0.37142,-0.23992,0.97063
277.218,33.39768,0.37045,-0.24478,0.97023
277.918,33.46432,0.37415,-0.24964,0.96984
278.618,33.53151,0.37331,-0.25309,0.96944
279.318,33.5986,0.37371,-0.26019,0.96905
280.018,33.6659,0.37722,-0.26566,0.96865
280.718,33.73258,0.37874,-0.27349,0.96825
281.418,33.7995,0.37771,-0.28062,0.96785
282.118,33.8667,0.37837,-0.28715,0.96745
282.818,33.93396,0.38206,-0.29294,0.96705
283.518,34.00096,0.37941,-0.29953,0.96665
284.218,34.06793,0.38051,-0.30643,0.96625
284.918,34.13507,0.38546,-0.31241,0.96585
285.618,34.2022,0.38692,-0.31991,0.96544
286.318,34.26891,0.38646,-0.32854,0.96504
287.018,34.33576,0.38904,-0.33729,0.96464
287.718,34.40271,0.38867,-0.34383,0.96423
288.418,34.46989,0.3907,-0.35164,0.96383
289.118,34.53678,0.39126,-0.35815,0.96342
289.818,34.6036,0.39412,-0.3661,0.96301
290.518,34.67068,0.39384,-0.37476,0.96261
291.218,34.73775,0.39653,-0.38186,0.9622
291.918,34.805,0.39946,-0.38879,0.96179
292.618,34.87193,0.39856,-0.39787,0.96138
293.318,34.93907,0.40139,-0.40714,0.96097
294.018,35.00622,0.40325,-0.41576,0.96056
294.718,35.07331,0.40319,-0.42699,0.96015
295.418,35.1399,0.40317,-0.4362,0.95974
296.118,35.207,0.40636,-0.44627,0.95933
296.818,35.27413,0.41301,-0.45645,0.95892
297.518,35.34189,0.41154,-0.46591,0.95851
298.218,35.40913,0.41487,-0.47597,0.95809
298.918,35.47639,0.41602,-0.48587,0.95768
299.618,35.5435,0.41837,-0.49416,0.95726
300.318,35.6108,0.42133,-0.50524,0.95685
301.018,35.67805,0.42478,-0.51571,0.95643
301.718,35.74522,0.42427,-0.52683,0.95602
302.418,35.81214,0.42689,-0.53862,0.9556
303.118,35.87917,0.42985,-0.55023,0.95518
303.818,35.94642,0.43345,-0.56068,0.95477
304.518,36.01365,0.43541,-0.57342,0.95435
305.218,36.08088,0.43879,-0.58396,0.95393
305.918,36.14813,0.4413,-0.5976,0.95351
306.618,36.2153,0.44146,-0.6102,0.95309
307.318,36.2826,0.44493,-0.62084,0.95267
308.018,36.34955,0.44959,-0.63487,0.95225
308.718,36.417,0.45169,-0.64557,0.95182
309.418,36.4842,0.45685,-0.6633,0.9514
310.118,36.55155,0.46196,-0.67667,0.95098
310.818,36.61869,0.46256,-0.68817,0.95055
311.518,36.68588,0.46481,-0.7026,0.95013
312.218,36.753,0.46827,-0.71731,0.9497
312.918,36.8204,0.47163,-0.72964,0.94928
313.618,36.88749,0.4759,-0.74708,0.94885
314.318,36.9548,0.47967,-0.76353,0.94843
315.018,37.02197,0.48079,-0.77844,0.948
315.718,37.0894,0.48414,-0.79357,0.94757
316.418,37.15657,0.48909,-0.80813,0.94714
317.118,37.2237,0.49099,-0.82242,0.94671
317.818,37.29087,0.49206,-0.83816,0.94628
318.518,37.35818,0.49577,-0.85435,0.94585
319.218,37.42546,0.49742,-0.86772,0.94542
319.918,37.49266,0.49868,-0.88423,0.94499
320.618,37.55993,0.49983,-0.89863,0.94456
321.318,37.62713,0.50212,-0.91497,0.94413
322.018,37.69457,0.50632,-0.93286,0.9437
322.718,37.76192,0.50916,-0.95085,0.94326
323.418,37.8293,0.51122,-0.96786,0.94283
324.118,37.8966,0.51114,-0.98571,0.9424
324.818,37.96374,0.51389,-1.00292,0.94196
325.518,38.03109,0.51284,-1.01865,0.94153
326.218,38.0984,0.51452,-1.03486,0.94109
326.918,38.16594,0.51743,-1.05165,0.94065
327.618,38.23288,0.51732,-1.06906,0.94022
328.318,38.30048,0.51753,-1.08755,0.93978
329.018,38.36781,0.51974,-1.10657,0.93934
329.718,38.4357,0.52059,-1.12496,0.9389
330.418,38.50318,0.52154,-1.14267,0.93846
331.118,38.57063,0.52187,-1.16065,0.93802
331.818,38.638,0.52239,-1.18019,0.93758
332.518,38.70551,0.52409,-1.19638,0.93714
333.218,38.77292,0.52624,-1.21483,0.9367
333.918,38.84047,0.526,-1.23211,0.93626
334.618,38.90784,0.52727,-1.2503,0.93582
335.318,38.97504,0.52872,-1.26803,0.93537
336.018,39.04233,0.52953,-1.28593,0.93493
336.718,39.1098,0.53088,-1.30607,0.93448
337.418,39.1776,0.53113,-1.32214,0.93404
338.118,39.24518,0.53551,-1.34316,0.93359
338.818,39.31256,0.53862,-1.36167,0.93315
339.518,39.37982,0.54019,-1.38112,0.9327
340.218,39.4473,0.54254,-1.39696,0.93226
340.918,39.51487,0.54893,-1.41899,0.93181
341.618,39.58252,0.55139,-1.44141,0.93136
342.318,39.64989,0.5544,-1.45835,0.93091
343.018,39.7173,0.56022,-1.47666,0.93046
343.718,39.78497,0.5647,-1.49391,0.93002
344.418,39.8526,0.57097,-1.51856,0.92957
345.118,39.9202,0.57521,-1.53895,0.92911
345.818,39.98753,0.58256,-1.55782,0.92866
346.518,40.05516,0.59033,-1.57918,0.92821
347.218,40.12276,0.59512,-1.59733,0.92776
347.918,40.1904,0.60065,-1.61724,0.92731
348.618,40.25821,0.61073,-1.63785,0.92686
349.318,40.32587,0.61766,-1.65976,0.9264
350.018,40.3936,0.62438,-1.68139,0.92595
350.718,40.4611,0.63344,-1.70289,0.92549
351.418,40.52877,0.63813,-1.72474,0.92504
352.118,40.5965,0.64929,-1.74836,0.92458
352.818,40.66408,0.65856,-1.76743,0.92413
353.518,40.73183,0.67008,-1.79372,0.92367
354.218,40.79971,0.67662,-1.81641,0.92321
354.918,40.86722,0.68727,-1.83812,0.92276
355.618,40.9348,0.69558,-1.86077,0.9223
356.318,41.00251,0.70578,-1.88449,0.92184
357.018,41.07077,0.71673,-1.90962,0.92138
357.718,41.13884,0.72362,-1.93412,0.92092
358.418,41.2067,0.73155,-1.95909,0.92046
359.118,41.27458,0.74151,-1.984,0.92
359.818,41.34198,0.7508,-2.01027,0.91954
360.518,41.40977,0.75511,-2.03548,0.91908
361.218,41.47728,0.7632,-2.06134,0.91862
361.918,41.5456,0.76929,-2.08658,0.91815
362.618,41.61377,0.77398,-2.11367,0.91769
363.318,41.682,0.7783,-2.14023,0.91723
364.018,41.74974,0.77848,-2.16563,0.91676
364.718,41.81762,0.78335,-2.19264,0.9163
365.418,41.8855,0.78372,-2.21857,0.91583
366.118,41.95349,0.7843,-2.24622,0.91537
366.818,42.02134,0.7787,-2.27272,0.9149
367.518,42.08907,0.77711,-2.29928,0.91444
368.218,42.15675,0.76984,-2.32565,0.91397
368.918,42.22439,0.76217,-2.35102,0.9135
369.618,42.29226,0.7518,-2.37773,0.91304
370.318,42.36006,0.74019,-2.40422,0.91257
371.018,42.428,0.72524,-2.42812,0.9121
371.718,42.4959,0.70915,-2.45358,0.91163
372.418,42.5638,0.69138,-2.47756,0.91116
373.118,42.63159,0.67124,-2.50081,0.91069
373.818,42.69918,0.65037,-2.52326,0.91022
374.518,42.7669,0.62582,-2.54533,0.90975
375.218,42.8346,0.60095,-2.56661,0.90928
375.918,42.90253,0.57224,-2.58723,0.9088
376.618,42.97033,0.54418,-2.60798,0.90833
377.318,43.0382,0.51337,-2.62752,0.90786
378.018,43.106,0.47986,-2.64524,0.90738
378.718,43.1736,0.44884,-2.66249,0.90691
379.418,43.24095,0.41418,-2.6795,0.90644
380.118,43.30839,0.3805,-2.69371,0.90596
380.818,43.3761,0.3436,-2.70508,0.90549
381.518,43.44377,0.3098,-2.72083,0.90501
382.218,43.51149,0.27675,-2.73421,0.90453
382.918,43.57922,0.24213,-2.74828,0.90406
383.618,43.64695,0.21058,-2.75973,0.90358
384.318,43.71478,0.17895,-2.76889,0.9031
385.018,43.78228,0.15055,-2.77894,0.90262
385.718,43.84981,0.11942,-2.78634,0.90215
386.418,43.91748,0.09088608,-2.79247,0.90167
387.118,43.98511,0.06976526,-2.79768,0.90119
387.818,44.05288,0.04924974,-2.80316,0.90071
388.518,44.12036,0.02715561,-2.80789,0.90023
389.218,44.18793,0.009894242,-2.81364,0.89975
389.918,44.25568,-0.004684864,-2.81716,0.89926
390.618,44.3235,-0.01677302,-2.81947,0.89878
391.318,44.3914,-0.03034794,-2.82301,0.8983
392.018,44.45908,-0.03795516,-2.82921,0.89782
392.718,44.5267,-0.04541198,-2.83226,0.89733
393.418,44.5946,-0.05026901,-2.83757,0.89685
394.118,44.6627,-0.05476212,-2.83994,0.89637
394.818,44.73067,-0.05958106,-2.84142,0.89588
395.518,44.79861,-0.06348242,-2.84274,0.8954
396.218,44.8665,-0.06374292,-2.84293,0.89491
396.918,44.9345,-0.06895129,-2.84573,0.89443
397.618,45.00238,-0.07038192,-2.84572,0.89394
398.318,45.07027,-0.07230041,-2.84899,0.89345
399.018,45.1383,-0.07472077,-2.85243,0.89297
399.718,45.20645,-0.0757717,-2.85618,0.89248
400.418,45.27463,-0.07707351,-2.85813,0.89199
401.118,45.3427,-0.08140338,-2.86088,0.8915
401.818,45.4109,-0.08379919,-2.86267,0.89101
402.518,45.479,-0.083055,-2.865,0.89052
403.218,45.54724,-0.08418178,-2.86745,0.89003
403.918,45.61549,-0.0857253,-2.87046,0.88954
404.618,45.68363,-0.09097548,-2.87274,0.88905
405.318,45.7517,-0.08979715,-2.87791,0.88856
406.018,45.8196,-0.09162206,-2.88025,0.88807
406.718,45.88772,-0.09420133,-2.87868,0.88758
407.418,45.95585,-0.09605144,-2.8794,0.88709
408.118,46.02407,-0.09829553,-2.88193,0.88659
408.818,46.0918,-0.09811122,-2.88739,0.8861
409.518,46.15956,-0.10291,-2.88573,0.88561
410.218,46.22764,-0.10414,-2.88737,0.88511
410.918,46.2961,-0.10538,-2.88877,0.88462
411.618,46.3645,-0.10738,-2.89168,0.88412
412.318,46.43266,-0.10732,-2.89517,0.88363
413.018,46.50088,-0.10791,-2.89692,0.88313
413.718,46.56907,-0.11162,-2.89824,0.88264
414.418,46.6372,-0.1148,-2.89822,0.88214
415.118,46.70528,-0.11714,-2.90043,0.88164
415.818,46.77336,-0.11751,-2.90271,0.88115
416.518,46.84128,-0.11971,-2.90739,0.88065
417.218,46.90932,-0.11801,-2.91013,0.88015
417.918,46.97764,-0.12275,-2.91223,0.87965
418.618,47.04635,-0.123,-2.91395,0.87915
419.318,47.11497,-0.12721,-2.91611,0.87865
420.018,47.18316,-0.12953,-2.9191,0.87815
420.718,47.25145,-0.12811,-2.92078,0.87765
421.418,47.31992,-0.13348,-2.9227,0.87715
422.118,47.38875,-0.13421,-2.92488,0.87665
422.818,47.4572,-0.13163,-2.92668,0.87615
423.518,47.52564,-0.13178,-2.92969,0.87565
424.218,47.59414,-0.13465,-2.93246,0.87515
424.918,47.6627,-0.13573,-2.93493,0.87464
425.618,47.73121,-0.13754,-2.93653,0.87414
426.318,47.7997,-0.13856,-2.93924,0.87364
427.018,47.8684,-0.13894,-2.94163,0.87313
427.718,47.937,-0.14283,-2.94344,0.87263
428.418,48.00573,-0.14405,-2.9455,0.87213
429.118,48.07447,-0.14504,-2.94771,0.87162
429.818,48.1431,-0.14511,-2.9497,0.87111
430.518,48.21168,-0.14579,-2.94962,0.87061
431.218,48.2803,-0.14775,-2.9517,0.8701
431.918,48.34912,-0.14897,-2.95362,0.8696
432.618,48.41785,-0.15025,-2.95499,0.86909
433.318,48.4863,-0.14874,-2.95802,0.86858
434.018,48.55477,-0.14993,-2.96034,0.86807
434.718,48.62352,-0.15117,-2.96071,0.86757
435.418,48.69234,-0.15038,-2.96118,0.86706
436.118,48.76092,-0.15141,-2.96296,0.86655
436.818,48.82966,-0.15117,-2.96601,0.86604
437.518,48.89852,-0.1502,-2.97127,0.86553
438.218,48.96751,-0.14859,-2.97448,0.86502
438.918,49.0362,-0.14965,-2.97577,0.86451
439.618,49.10503,-0.14698,-2.97573,0.864
440.318,49.17366,-0.148,-2.97709,0.86349
441.018,49.24227,-0.14693,-2.97842,0.86298
441.718,49.311,-0.14581,-2.98084,0.86246
442.418,49.37965,-0.14614,-2.98202,0.86195
443.118,49.44843,-0.14713,-2.98496,0.86144
443.818,49.5171,-0.14457,-2.9866,0.86093
444.518,49.58572,-0.14376,-2.98913,0.86041
445.218,49.65422,-0.14093,-2.99102,0.8599
445.918,49.72251,-0.14237,-2.99355,0.85938
446.618,49.79095,-0.14145,-2.99213,0.85887
447.318,49.8596,-0.139,-2.99213,0.85835
448.018,49.92843,-0.13522,-2.99472,0.85784
448.718,49.99732,-0.13756,-2.99889,0.85732
449.418,50.0664,-0.13496,-3.00123,0.85681
450.118,50.13536,-0.13065,-3.00413,0.85629
450.818,50.20432,-0.13076,-3.00409,0.85577
451.518,50.27313,-0.13181,-3.0049,0.85526
452.218,50.34214,-0.12636,-3.00761,0.85474
452.918,50.41105,-0.12438,-3.00767,0.85422
453.618,50.47983,-0.12569,-3.01022,0.8537
454.318,50.5485,-0.12372,-3.01022,0.85319
455.018,50.6174,-0.12096,-3.01154,0.85267
455.718,50.68635,-0.12269,-3.01284,0.85215
456.418,50.755,-0.11995,-3.01463,0.85163
457.118,50.8237,-0.11646,-3.01702,0.85111
457.818,50.8926,-0.11746,-3.01982,0.85059
458.518,50.9619,-0.11342,-3.01988,0.85007
459.218,51.0309,-0.11235,-3.02162,0.84955
459.918,51.09975,-0.10877,-3.02382,0.84902
460.618,51.16856,-0.10395,-3.02515,0.8485
461.318,51.2373,-0.10545,-3.02421,0.84798
462.018,51.30614,-0.10435,-3.02641,0.84746
462.718,51.3749,-0.10315,-3.02777,0.84693
463.418,51.44376,-0.0993125,-3.02882,0.84641
464.118,51.51228,-0.09869414,-3.03125,0.84589
464.818,51.58101,-0.09973839,-3.03174,0.84536
465.518,51.64974,-0.09722181,-3.03312,0.84484
466.218,51.71894,-0.09752922,-3.03589,0.84432
466.918,51.78784,-0.09622856,-3.03699,0.84379
467.618,51.85673,-0.09476077,-3.03732,0.84327
468.318,51.92548,-0.09156929,-3.03732,0.84274
469.018,51.99423,-0.08864095,-3.03831,0.84221
469.718,52.06315,-0.08863071,-3.03967,0.84169
470.418,52.13196,-0.08719578,-3.04094,0.84116
471.118,52.20069,-0.08566767,-3.04367,0.84063
471.818,52.26956,-0.0867468,-3.04463,0.84011
472.518,52.3386,-0.08550215,-3.04598,0.83958
473.218,52.40789,-0.08424228,-3.04605,0.83905
473.918,52.47679,-0.08411509,-3.04629,0.83852
474.618,52.54577,-0.08427099,-3.04625,0.83799
475.318,52.61473,-0.08303797,-3.04734,0.83747
476.018,52.6836,-0.08299766,-3.0489,0.83694
476.718,52.7524,-0.0838693,-3.04962,0.83641
477.418,52.82144,-0.08224123,-3.05058,0.83588
478.118,52.89068,-0.07913675,-3.05322,0.83535
478.818,52.95998,-0.07917293,-3.05454,0.83482
479.518,53.02901,-0.07808478,-3.05519,0.83429
480.218,53.09806,-0.07800335,-3.057,0.83375
480.918,53.1671,-0.07460864,-3.05928,0.83322
481.618,53.2362,-0.07579816,-3.05958,0.83269
482.318,53.30519,-0.07735327,-3.05958,0.83216
483.018,53.3743,-0.07658578,-3.06056,0.83163
483.718,53.44335,-0.07605982,-3.06149,0.83109
484.418,53.5124,-0.07291704,-3.06193,0.83056
485.118,53.58144,-0.0749474,-3.06255,0.83003
485.818,53.65056,-0.07637016,-3.06386,0.82949
486.518,53.7196,-0.07649375,-3.0632,0.82896
487.218,53.7886,-0.07681088,-3.06451,0.82843
487.918,53.85761,-0.07634758,-3.06528,0.82789
488.618,53.92675,-0.07909977,-3.06622,0.82736
489.318,53.99578,-0.07849491,-3.06912,0.82682
490.018,54.0649,-0.07726852,-3.07011,0.82628
490.718,54.13403,-0.07880255,-3.07011,0.82575
491.418,54.20318,-0.0798091,-3.07005,0.82521
492.118,54.27215,-0.08059855,-3.07143,0.82468
492.818,54.34135,-0.07638892,-3.07144,0.82414
493.518,54.41055,-0.07728289,-3.07307,0.8236
494.218,54.47994,-0.07639868,-3.0734,0.82306
494.918,54.54899,-0.07660802,-3.07538,0.82253
495.618,54.6181,-0.07639156,-3.07538,0.82199
496.318,54.68702,-0.07383155,-3.07591,0.82145
497.018,54.75595,-0.07696634,-3.0757,0.82091
497.718,54.8247,-0.07611654,-3.07565,0.82037
498.418,54.8941,-0.07280978,-3.07703,0.81983
499.118,54.9635,-0.07371506,-3.07967,0.81929
499.818,55.033,-0.07408731,-3.08096,0.81875
500.518,55.10215,-0.07199943,-3.08019,0.81821
501.218,55.1711,-0.07119543,-3.08097,0.81767
501.918,55.24032,-0.06819218,-3.08173,0.81713
502.618,55.30936,-0.06916346,-3.08305,0.81659
503.318,55.37862,-0.06685996,-3.08437,0.81605
504.018,55.44795,-0.06520345,-3.08436,0.81551
504.718,55.51732,-0.06490905,-3.08568,0.81497
505.418,55.58611,-0.06332806,-3.08699,0.81443
506.118,55.6553,-0.06293275,-3.08837,0.81388
506.818,55.7246,-0.06156841,-3.08832,0.81334
507.518,55.79435,-0.05712415,-3.08832,0.8128
508.218,55.8637,-0.05619999,-3.08837,0.81225
508.918,55.93261,-0.05421867,-3.08903,0.81171
509.618,56.00159,-0.05114045,-3.0903,0.81117
510.318,56.0708,-0.05282983,-3.0903,0.81062
511.018,56.14001,-0.04709131,-3.09249,0.81008
511.718,56.2092,-0.04681786,-3.09321,0.80953
512.418,56.27834,-0.04569749,-3.09307,0.80899
513.118,56.3478,-0.04142887,-3.09578,0.80844
513.818,56.4171,-0.04369098,-3.09559,0.8079
514.518,56.48644,-0.03929085,-3.09677,0.80735
515.218,56.55554,-0.0403234,-3.09569,0.80681
515.918,56.62509,-0.03880936,-3.09625,0.80626
516.618,56.6943,-0.04071743,-3.09709,0.80571
517.318,56.76355,-0.03864233,-3.09612,0.80517
518.018,56.8327,-0.04003806,-3.09743,0.80462
518.718,56.9019,-0.03909636,-3.09792,0.80407
519.418,56.97125,-0.03755331,-3.10092,0.80352
520.118,57.04055,-0.03984244,-3.10017,0.80298
520.818,57.10994,-0.03765682,-3.10279,0.80243
521.518,57.17915,-0.03903367,-3.10412,0.80188
522.218,57.2485,-0.03761393,-3.10313,0.80133
522.918,57.318,-0.04020903,-3.10313,0.80078
523.618,57.38756,-0.03740619,-3.10359,0.80023
524.318,57.45725,-0.03820404,-3.10445,0.79968
525.018,57.5266,-0.03899425,-3.10574,0.79913
525.718,57.59605,-0.04024166,-3.10576,0.79858
526.418,57.6655,-0.03942065,-3.10713,0.79803
527.118,57.73457,-0.03957955,-3.10708,0.79748
527.818,57.8042,-0.04168472,-3.10707,0.79693
528.518,57.87359,-0.0424202,-3.1084,0.79638
529.218,57.94347,-0.04340651,-3.10959,0.79583
529.918,58.0131,-0.041453,-3.11061,0.79528
530.618,58.0828,-0.03980266,-3.11295,0.79472
531.318,58.15266,-0.0464114,-3.11306,0.79417
532.018,58.2224,-0.04276279,-3.11234,0.79362
532.718,58.29206,-0.04597661,-3.11364,0.79307
533.418,58.3621,-0.04934205,-3.11553,0.79251
534.118,58.4319,-0.04855581,-3.11498,0.79196
534.818,58.50169,-0.04399933,-3.11497,0.79141
535.518,58.5714,-0.04607989,-3.11497,0.79085
536.218,58.641,-0.05091161,-3.11628,0.7903
536.918,58.71077,-0.0492391,-3.1156,0.78975
537.618,58.78009,-0.04881327,-3.11695,0.78919
538.318,58.84956,-0.05132543,-3.11826,0.78864
539.018,58.9192,-0.05037017,-3.11959,0.78808
539.718,58.989,-0.04959252,-3.12016,0.78753
540.418,59.05856,-0.05138667,-3.12089,0.78697
541.118,59.12809,-0.05022101,-3.1202,0.78642
541.818,59.1974,-0.05342812,-3.12023,0.78586
542.518,59.26705,-0.0539537,-3.12022,0.7853
543.218,59.3365,-0.05806091,-3.12155,0.78475
543.918,59.4059,-0.05872289,-3.1242,0.78419
544.618,59.47511,-0.06179256,-3.12418,0.78363
545.318,59.5445,-0.0676786,-3.12551,0.78308
546.018,59.61415,-0.0648301,-3.12691,0.78252
546.718,59.6841,-0.06681466,-3.12583,0.78196
547.418,59.7539,-0.06919178,-3.12584,0.7814
548.118,59.82363,-0.0703862,-3.12697,0.78085
548.818,59.89309,-0.07170214,-3.12682,0.78029
549.518,59.9626,-0.07711166,-3.12769,0.77973
550.218,60.03224,-0.07813884,-3.13009,0.77917
550.918,60.10191,-0.07747339,-3.13012,0.77861
551.618,60.1714,-0.07923221,-3.13143,0.77805
552.318,60.24131,-0.08110116,-3.13274,0.77749
553.018,60.3112,-0.07953021,-3.13144,0.77693
553.718,60.38135,-0.08357119,-3.13143,0.77638
554.418,60.45103,-0.08370166,-3.13143,0.77582
555.118,60.52097,-0.08555041,-3.13582,0.77525
555.818,60.59092,-0.08472918,-3.13558,0.77469
556.518,60.66104,-0.08760546,-3.13385,0.77413
557.218,60.7309,-0.08825924,-3.13428,0.77357
557.918,60.80013,-0.08647987,-3.13604,0.77301
558.618,60.87005,-0.08997368,-3.13702,0.77245
559.318,60.9396,-0.08789346,-3.13603,0.77189
560.018,61.0101,-0.09207457,-3.13604,0.77133
560.718,61.08,-0.08991932,-3.13735,0.77077
561.418,61.1503,-0.0924799,-3.13996,0.7702
562.118,61.22014,-0.09447055,-3.13866,0.76964
562.818,61.29,-0.09453651,-3.13965,0.76908
563.518,61.36,-0.0950964,-3.13998,0.76852
564.218,61.4301,-0.09320713,-3.1413,0.76795
564.918,61.5,-0.09253374,-3.1435,0.76739
565.618,61.56966,-0.09690639,-3.14253,0.76683
566.318,61.6395,-0.09393972,-3.14207,0.76626
567.018,61.7095,-0.09594917,-3.14207,0.7657
567.718,61.7798,-0.09990897,-3.14338,0.76513
568.418,61.8498,-0.09733197,-3.14338,0.76457
569.118,61.91975,-0.09942803,-3.14338,0.76401
569.818,61.98952,-0.09678447,-3.14462,0.76344
570.518,62.05934,-0.09942226,-3.14602,0.76288
571.218,62.12914,-0.09915535,-3.1447,0.76231
571.918,62.19891,-0.1037,-3.14601,0.76175
572.618,62.2685,-0.10073,-3.147,0.76118
573.318,62.3383,-0.10139,-3.14835,0.76062
574.018,62.4082,-0.10216,-3.14832,0.76005
574.718,62.4782,-0.104,-3.14927,0.75948
575.418,62.54824,-0.1022,-3.14832,0.75892
576.118,62.6181,-0.10041,-3.14832,0.75835
576.818,62.68805,-0.10305,-3.14955,0.75778
577.518,62.75767,-0.10275,-3.14963,0.75722
578.218,62.8276,-0.10158,-3.14963,0.75665
578.918,62.89735,-0.10306,-3.15087,0.75608
579.618,62.96736,-0.10789,-3.15216,0.75552
580.318,63.03716,-0.10503,-3.15232,0.75495
581.018,63.10702,-0.10693,-3.15086,0.75438
581.718,63.1769,-0.10816,-3.15358,0.75381
582.418,63.24666,-0.10808,-3.15368,0.75325
583.118,63.3164,-0.10917,-3.15229,0.75268
583.818,63.3862,-0.11007,-3.15161,0.75211
584.518,63.4563,-0.10855,-3.15289,0.75154
585.218,63.52624,-0.11108,-3.15293,0.75097
585.918,63.59615,-0.10733,-3.15295,0.7504
586.618,63.6661,-0.11039,-3.15713,0.74983
587.318,63.7359,-0.11175,-3.1562,0.74926
588.018,63.80602,-0.11371,-3.15677,0.74869
588.718,63.876,-0.11216,-3.15775,0.74812
589.418,63.94621,-0.11424,-3.15808,0.74755
590.118,64.01603,-0.11438,-3.15742,0.74698
590.818,64.08589,-0.11565,-3.15875,0.74641
591.518,64.15598,-0.1161,-3.15995,0.74584
592.218,64.2263,-0.11576,-3.16137,0.74527
592.918,64.29653,-0.1146,-3.16137,0.7447
593.618,64.3666,-0.12049,-3.16137,0.74413
594.318,64.4363,-0.11883,-3.16137,0.74356
595.018,64.50647,-0.11898,-3.16251,0.74299
595.718,64.57651,-0.11895,-3.16268,0.74242
596.418,64.64672,-0.11766,-3.164,0.74185
597.118,64.7167,-0.12049,-3.1654,0.74127
597.818,64.7867,-0.1204,-3.164,0.7407
598.518,64.8567,-0.1213,-3.164,0.74013
599.218,64.9267,-0.12271,-3.1653,0.73956
599.918,64.99673,-0.12231,-3.16532,0.73899
600.618,65.06696,-0.12167,-3.16732,0.73841
601.318,65.13722,-0.12319,-3.16729,0.73784
602.018,65.2076,-0.1217,-3.16599,0.73727
602.718,65.27771,-0.12338,-3.16667,0.73669
603.418,65.34788,-0.12341,-3.16613,0.73612
604.118,65.4181,-0.12318,-3.16779,0.73555
604.818,65.48821,-0.121,-3.16861,0.73497
605.518,65.5586,-0.12477,-3.16988,0.7344
606.218,65.6289,-0.12543,-3.17123,0.73383
606.918,65.6998,-0.12307,-3.17124,0.73325
607.618,65.77016,-0.12656,-3.17124,0.73268
608.318,65.84062,-0.12464,-3.17256,0.7321
609.018,65.91082,-0.12623,-3.17387,0.73153
609.718,65.98106,-0.12902,-3.17384,0.73096
610.418,66.0513,-0.12654,-3.1719,0.73038
611.118,66.1216,-0.12788,-3.1719,0.72981
611.818,66.19199,-0.12651,-3.17321,0.72923
612.518,66.26236,-0.1261,-3.17321,0.72866
613.218,66.33242,-0.12843,-3.17332,0.72808
613.918,66.4024,-0.12628,-3.17585,0.7275
614.618,66.47238,-0.1267,-3.17451,0.72693
615.318,66.54241,-0.1278,-3.17734,0.72635
616.018,66.61264,-0.12735,-3.17712,0.72578
616.718,66.68274,-0.12603,-3.17649,0.7252
617.418,66.7531,-0.12795,-3.17634,0.72463
618.118,66.8231,-0.12717,-3.17681,0.72405
618.818,66.89346,-0.1263,-3.17699,0.72347
619.518,66.96385,-0.1306,-3.17878,0.7229
620.218,67.0343,-0.12696,-3.17914,0.72232
620.918,67.1045,-0.12695,-3.17914,0.72174
621.618,67.1745,-0.13079,-3.17914,0.72117
622.318,67.2447,-0.13192,-3.17914,0.72059
623.018,67.31445,-0.12939,-3.17947,0.72001
623.718,67.3848,-0.13212,-3.18083,0.71943
624.418,67.45519,-0.13035,-3.18085,0.71886
625.118,67.5262,-0.13127,-3.1821,0.71828
625.818,67.59657,-0.12851,-3.1821,0.7177
626.518,67.66696,-0.12935,-3.1821,0.71712
627.218,67.73732,-0.13446,-3.18209,0.71654
627.918,67.80749,-0.1329,-3.18334,0.71597
628.618,67.87732,-0.12907,-3.18366,0.71539
629.318,67.94747,-0.13219,-3.18351,0.71481
630.018,68.01772,-0.13148,-3.18341,0.71423
630.718,68.0884,-0.13187,-3.18474,0.71365
631.418,68.15879,-0.13148,-3.18474,0.71307
632.118,68.22881,-0.13278,-3.18477,0.71249
632.818,68.29913,-0.12916,-3.18471,0.71192
633.518,68.3695,-0.13116,-3.18688,0.71134
634.218,68.44037,-0.13091,-3.18912,0.71076
634.918,68.51071,-0.13058,-3.19012,0.71018
635.618,68.58102,-0.13163,-3.191,0.7096
636.318,68.65133,-0.13107,-3.1901,0.70902
637.018,68.72175,-0.13137,-3.18879,0.70844
637.718,68.79219,-0.13109,-3.19017,0.70786
638.418,68.86264,-0.13391,-3.19036,0.70728
639.118,68.93304,-0.13614,-3.18758,0.7067
639.818,69.00326,-0.13954,-3.18618,0.70612
640.518,69.0737,-0.13918,-3.18337,0.70554
641.218,69.14416,-0.13929,-3.18832,0.70496
641.918,69.21471,-0.14036,-3.19051,0.70438
642.618,69.285,-0.14338,-3.19109,0.7038
643.318,69.3554,-0.14499,-3.19109,0.70322
644.018,69.4258,-0.14188,-3.19109,0.70264
644.718,69.49631,-0.14667,-3.18716,0.70205
645.418,69.5668,-0.14726,-3.18628,0.70147
646.118,69.63722,-0.14481,-3.1887,0.70089
646.818,69.7076,-0.14708,-3.19,0.70031
647.518,69.77792,-0.14816,-3.19,0.69973
648.218,69.8485,-0.14902,-3.19001,0.69915
648.918,69.91893,-0.14584,-3.19131,0.69857
649.618,69.98982,-0.15015,-3.19263,0.69799
650.318,70.06023,-0.14871,-3.19395,0.6974
651.018,70.131,-0.14916,-3.19395,0.69682
651.718,70.20142,-0.15265,-3.19415,0.69624
652.418,70.2722,-0.1481,-3.19394,0.69566
653.118,70.34257,-0.15275,-3.19264,0.69508
653.818,70.41301,-0.15674,-3.19395,0.69449
654.518,70.48304,-0.15515,-3.19395,0.69391
655.218,70.55338,-0.15321,-3.19527,0.69333
655.918,70.6238,-0.15397,-3.19461,0.69275
656.618,70.69439,-0.15527,-3.19461,0.69216
657.318,70.76478,-0.1585,-3.19461,0.69158
658.018,70.83496,-0.1593,-3.19448,0.691
658.718,70.9053,-0.15864,-3.19532,0.69042
659.418,70.97576,-0.15771,-3.19666,0.68983
660.118,71.04593,-0.15367,-3.19658,0.68925
660.818,71.1161,-0.15787,-3.19659,0.68867
661.518,71.18629,-0.1561,-3.19395,0.68808
662.218,71.25705,-0.15594,-3.19325,0.6875
662.918,71.32755,-0.15437,-3.19525,0.68692
663.618,71.39792,-0.15569,-3.19823,0.68633
664.318,71.4683,-0.15313,-3.19955,0.68575
665.018,71.53859,-0.15153,-3.19955,0.68517
665.718,71.6095,-0.15546,-3.19823,0.68458
666.418,71.68035,-0.15718,-3.19823,0.684
667.118,71.7513,-0.15482,-3.19689,0.68341
667.818,71.822,-0.15586,-3.19832,0.68283
668.518,71.89272,-0.15631,-3.19965,0.68225
669.218,71.96343,-0.1524,-3.19965,0.68166
669.918,72.03407,-0.15802,-3.20098,0.68108
670.618,72.1044,-0.15675,-3.19998,0.68049
671.318,72.17498,-0.15586,-3.20083,0.67991
672.018,72.24543,-0.15609,-3.20003,0.67933
672.718,72.3162,-0.15873,-3.2013,0.67874
673.418,72.38675,-0.15836,-3.2013,0.67816
674.118,72.45753,-0.1582,-3.2013,0.67757
674.818,72.52801,-0.15793,-3.20261,0.67699
675.518,72.59866,-0.15906,-3.19998,0.6764
676.218,72.6691,-0.15979,-3.19996,0.67582
676.918,72.73965,-0.16103,-3.20129,0.67523
677.618,72.81019,-0.1581,-3.20129,0.67465
678.318,72.8807,-0.15669,-3.20129,0.67406
679.018,72.95132,-0.15892,-3.20261,0.67348
679.718,73.02171,-0.15961,-3.20261,0.67289
680.418,73.09231,-0.15698,-3.20261,0.67231
681.118,73.16298,-0.15882,-3.20393,0.67172
681.818,73.2337,-0.16146,-3.20392,0.67114
682.518,73.3044,-0.16169,-3.20385,0.67055
683.218,73.375,-0.15942,-3.20489,0.66997
683.918,73.44565,-0.16707,-3.2046,0.66938
684.618,73.5161,-0.16261,-3.2036,0.6688
685.318,73.58668,-0.16392,-3.20228,0.66821
686.018,73.65737,-0.16142,-3.2036,0.66762
686.718,73.72799,-0.16195,-3.20472,0.66704
687.418,73.7983,-0.16056,-3.2073,0.66645
688.118,73.86877,-0.16064,-3.20677,0.66587
688.818,73.93948,-0.16186,-3.2081,0.66528
689.518,74.01015,-0.16367,-3.2081,0.6647
690.218,74.081,-0.16304,-3.2081,0.66411
690.918,74.1516,-0.16412,-3.2081,0.66352
691.618,74.2224,-0.16659,-3.20678,0.66294
692.318,74.29301,-0.1675,-3.20678,0.66235
693.018,74.36346,-0.1638,-3.20358,0.66176
693.718,74.4345,-0.1657,-3.20367,0.66118
694.418,74.50516,-0.16285,-3.20629,0.66059
695.118,74.57608,-0.16261,-3.20513,0.66001
695.818,74.64647,-0.16633,-3.20593,0.65942
696.518,74.717,-0.16194,-3.20603,0.65883
697.218,74.78758,-0.16657,-3.20745,0.65825
697.918,74.85817,-0.16503,-3.20613,0.65766
698.618,74.92879,-0.168,-3.20745,0.65707
699.318,74.99938,-0.16483,-3.20936,0.65649
700.018,75.07021,-0.16435,-3.21007,0.6559
700.718,75.1411,-0.1628,-3.21139,0.65531
701.418,75.21189,-0.1618,-3.21139,0.65473
702.118,75.28267,-0.16009,-3.2127,0.65414
702.818,75.35337,-0.16342,-3.21338,0.65355
703.518,75.42413,-0.15976,-3.2127,0.65297
704.218,75.49462,-0.15998,-3.2127,0.65238
704.918,75.5656,-0.15879,-3.2127,0.65179
705.618,75.63661,-0.15988,-3.2127,0.65121
706.318,75.7078,-0.15823,-3.2127,0.65062
707.018,75.77881,-0.16064,-3.2127,0.65003
707.718,75.84955,-0.15764,-3.21139,0.64945
708.418,75.92033,-0.15836,-3.21005,0.64886
709.118,75.99099,-0.15681,-3.21011,0.64827
709.818,76.06186,-0.1579,-3.21138,0.64769
710.518,76.1327,-0.16036,-3.2103,0.6471
711.218,76.2037,-0.15833,-3.21171,0.64651
711.918,76.27461,-0.15743,-3.21236,0.64593
712.618,76.34544,-0.16127,-3.21238,0.64534
713.318,76.41624,-0.15865,-3.21303,0.64475
714.018,76.48711,-0.15841,-3.21303,0.64416
714.718,76.5582,-0.15888,-3.21306,0.64358
715.418,76.62917,-0.15688,-3.2127,0.64299
716.118,76.70002,-0.15698,-3.21138,0.6424
716.818,76.77082,-0.16466,-3.21137,0.64182
717.518,76.84167,-0.16163,-3.2127,0.64123
718.218,76.91261,-0.16481,-3.21132,0.64064
718.918,76.98347,-0.16249,-3.21364,0.64005
719.618,77.05448,-0.16146,-3.21362,0.63947
720.318,77.12507,-0.16213,-3.2127,0.63888
721.018,77.19584,-0.15986,-3.2127,0.63829
721.718,77.2666,-0.15939,-3.21282,0.6377
722.418,77.3377,-0.15907,-3.21425,0.63712
723.118,77.4085,-0.16338,-3.21369,0.63653
723.818,77.47928,-0.16102,-3.21501,0.63594
724.518,77.55,-0.15753,-3.21501,0.63536
725.218,77.6207,-0.15914,-3.215,0.63477
725.918,77.69144,-0.15941,-3.215,0.63418
726.618,77.76214,-0.15932,-3.21446,0.63359
727.318,77.83273,-0.16252,-3.21239,0.63301
728.018,77.9034,-0.16315,-3.21238,0.63242
728.718,77.97431,-0.16446,-3.21238,0.63183
729.418,78.04524,-0.16342,-3.21238,0.63124
730.118,78.1161,-0.16576,-3.21397,0.63066
730.818,78.18681,-0.16245,-3.21441,0.63007
731.518,78.25769,-0.16171,-3.21531,0.62948
732.218,78.32856,-0.16602,-3.21446,0.62889
732.918,78.3993,-0.1637,-3.21377,0.62831
733.618,78.4703,-0.16369,-3.2138,0.62772
734.318,78.5411,-0.16269,-3.21443,0.62713
735.018,78.61216,-0.16221,-3.21587,0.62654
735.718,78.6827,-0.16485,-3.21705,0.62596
736.418,78.75389,-0.16175,-3.21841,0.62537
737.118,78.82508,-0.16458,-3.21841,0.62478
737.818,78.89664,-0.16289,-3.22006,0.6242
738.518,78.96765,-0.16445,-3.22267,0.62361
739.218,79.03875,-0.16215,-3.22269,0.62302
739.918,79.1099,-0.16204,-3.22269,0.62243
740.618,79.18134,-0.16197,-3.22266,0.62185
741.318,79.25261,-0.1591,-3.22051,0.62126
742.018,79.32389,-0.1587,-3.21807,0.62067
742.718,79.39514,-0.16105,-3.21808,0.62008
743.418,79.4663,-0.15944,-3.21808,0.6195
744.118,79.53739,-0.16083,-3.21808,0.61891
744.818,79.6085,-0.16353,-3.2194,0.61832
745.518,79.6795,-0.16171,-3.22071,0.61774
746.218,79.75023,-0.16401,-3.21938,0.61715
746.918,79.8211,-0.16321,-3.22071,0.61656
747.618,79.8921,-0.16336,-3.21939,0.61597
748.318,79.9632,-0.16196,-3.21939,0.61539
749.018,80.0341,-0.16181,-3.22062,0.6148
749.718,80.105,-0.16363,-3.22156,0.61421
750.418,80.1759,-0.16113,-3.22067,0.61363
751.118,80.24662,-0.16094,-3.22071,0.61304
751.818,80.3171,-0.16317,-3.22202,0.61245
752.518,80.38767,-0.1587,-3.22202,0.61186
753.218,80.4583,-0.16206,-3.22201,0.61128
753.918,80.52917,-0.16568,-3.22334,0.61069
754.618,80.5998,-0.16374,-3.22334,0.6101
755.318,80.6705,-0.16367,-3.22203,0.60952
756.018,80.741,-0.16409,-3.22203,0.60893
756.718,80.81179,-0.16421,-3.22253,0.60834
757.418,80.88248,-0.16509,-3.22334,0.60776
758.118,80.95286,-0.16762,-3.22334,0.60717
758.818,81.02371,-0.16561,-3.22334,0.60658
759.518,81.09472,-0.16747,-3.22334,0.606
760.218,81.16593,-0.16434,-3.22367,0.60541
760.918,81.23657,-0.16607,-3.22466,0.60482
761.618,81.30688,-0.16258,-3.226,0.60424
762.318,81.3775,-0.16259,-3.22548,0.60365
763.018,81.44826,-0.16227,-3.22598,0.60306
763.718,81.51947,-0.16757,-3.22598,0.60248
764.418,81.59053,-0.16242,-3.22667,0.60189
765.118,81.6614,-0.16164,-3.22729,0.6013
765.818,81.73219,-0.16369,-3.22712,0.60072
766.518,81.80309,-0.16288,-3.22595,0.60013
767.218,81.87425,-0.16165,-3.22727,0.59954
767.918,81.94546,-0.16402,-3.22663,0.59896
768.618,82.0167,-0.15936,-3.2254,0.59837
769.318,82.08774,-0.16117,-3.22452,0.59779
770.018,82.15894,-0.16196,-3.22593,0.5972
770.718,82.23007,-0.16366,-3.22597,0.59661
771.418,82.3015,-0.16334,-3.22597,0.59603
772.118,82.37266,-0.16121,-3.22597,0.59544
772.818,82.4439,-0.16011,-3.2276,0.59486
773.518,82.51509,-0.16164,-3.22998,0.59427
774.218,82.5862,-0.15963,-3.22861,0.59368
774.918,82.65732,-0.15745,-3.22861,0.5931
775.618,82.72832,-0.15766,-3.22731,0.59251
776.318,82.7996,-0.15539,-3.22861,0.59193
777.018,82.8707,-0.15632,-3.22861,0.59134
777.718,82.94166,-0.15784,-3.22926,0.59076
778.418,83.01262,-0.15423,-3.22861,0.59017
779.118,83.08324,-0.15622,-3.2276,0.58958
779.818,83.15428,-0.14934,-3.22866,0.589
780.518,83.2252,-0.15088,-3.22862,0.58841
781.218,83.29658,-0.15272,-3.23113,0.58783
781.918,83.3675,-0.15517,-3.22993,0.58724
782.618,83.4385,-0.15649,-3.22993,0.58666
783.318,83.5094,-0.15645,-3.22993,0.58607
784.018,83.58035,-0.15613,-3.22993,0.58549
784.718,83.6512,-0.15811,-3.22994,0.5849
785.418,83.72184,-0.15758,-3.22861,0.58432
786.118,83.79257,-0.16085,-3.22861,0.58373
786.818,83.86305,-0.15664,-3.22773,0.58315
787.518,83.93385,-0.15443,-3.22861,0.58256
788.218,84.00454,-0.15482,-3.22992,0.58198
788.918,84.07558,-0.15476,-3.2286,0.58139
789.618,84.14625,-0.15699,-3.22989,0.58081
790.318,84.21706,-0.16124,-3.22861,0.58022
791.018,84.28786,-0.15863,-3.22829,0.57964
791.718,84.35899,-0.15562,-3.22828,0.57906
792.418,84.4302,-0.15378,-3.23004,0.57847
793.118,84.505,-0.15053,-3.23272,0.57789
793.818,84.58,-0.15472,-3.2353,0.5773
794.518,84.6543,-0.15256,-3.23525,0.57672
795.218,84.72578,-0.15458,-3.2353,0.57613
795.918,84.7973,-0.1556,-3.23399,0.57555
796.618,84.86859,-0.16074,-3.23464,0.57497
797.318,84.93994,-0.16373,-3.23332,0.57438
797.818,84.99146,-0.16452,-3.23332,0.57397