File: 01_Data/FDNY_LDF/STA/N2/10K_min/LDF_STA_N2_10KData_22254_R3.csv
##Temp./Â°C,Time/min,DSC(subtr.)/(mW/mg),Mass loss(subtr.)/mg,Sensit./(uV/mW)
49.746,10.01,0.01937577,-0.05035,1.06051
50.446,10.775,0.05302581,-0.05414767,1.06036
51.146,10.97843,0.0792046,-0.05262068,1.06022
51.846,11.13069,0.101,-0.05362497,1.06007
52.546,11.25893,0.1148,-0.05360746,1.05993
53.246,11.37456,0.13077,-0.05414373,1.05978
53.946,11.48103,0.14253,-0.05498149,1.05963
54.646,11.5801,0.15195,-0.05528275,1.05948
55.346,11.6747,0.16161,-0.05565232,1.05933
56.046,11.76435,0.17176,-0.05513627,1.05918
56.746,11.8512,0.17729,-0.05599709,1.05903
57.446,11.93736,0.18517,-0.05653273,1.05888
58.146,12.02236,0.19106,-0.05581016,1.05872
58.846,12.1061,0.1965,-0.05951317,1.05857
59.546,12.18731,0.20493,-0.06081682,1.05841
60.246,12.26728,0.20993,-0.05705703,1.05825
60.946,12.34658,0.21275,-0.05973665,1.0581
61.646,12.4251,0.21705,-0.06132506,1.05794
62.346,12.50312,0.22132,-0.06107935,1.05778
63.046,12.5807,0.22487,-0.05999859,1.05762
63.746,12.65785,0.2284,-0.05983715,1.05746
64.446,12.7348,0.23194,-0.05989713,1.0573
65.146,12.81122,0.23406,-0.0604421,1.05713
65.846,12.88751,0.23618,-0.0599281,1.05697
66.546,12.9632,0.24314,-0.06266752,1.0568
67.246,13.0383,0.24141,-0.06263124,1.05664
67.946,13.1134,0.24363,-0.06326941,1.05647
68.646,13.1885,0.24743,-0.06256451,1.0563
69.346,13.26375,0.25136,-0.06377026,1.05614
70.046,13.3386,0.25549,-0.06394961,1.05597
70.746,13.4132,0.25562,-0.06524023,1.0558
71.446,13.4872,0.25769,-0.0643702,1.05562
72.146,13.56149,0.26135,-0.06395684,1.05545
72.846,13.63541,0.2663,-0.06526988,1.05528
73.546,13.70938,0.26586,-0.06526777,1.05511
74.246,13.783,0.27092,-0.06776044,1.05493
74.946,13.8563,0.27257,-0.06789636,1.05476
75.646,13.9292,0.27388,-0.06921345,1.05458
76.346,14.00254,0.27714,-0.06788986,1.0544
77.046,14.0758,0.2782,-0.06811351,1.05422
77.746,14.14896,0.2816,-0.06921964,1.05404
78.446,14.2217,0.28021,-0.07032344,1.05386
79.146,14.2942,0.28371,-0.07051521,1.05368
79.846,14.36636,0.28493,-0.07052644,1.0535
80.546,14.4384,0.28723,-0.07185015,1.05332
81.246,14.5106,0.2867,-0.07185,1.05314
81.946,14.5825,0.28815,-0.07180307,1.05295
82.646,14.6533,0.28952,-0.07309513,1.05277
83.346,14.7248,0.29085,-0.07447374,1.05258
84.046,14.7963,0.29275,-0.07446528,1.05239
84.746,14.86827,0.29255,-0.07439118,1.0522
85.446,14.93914,0.29145,-0.07577855,1.05202
86.146,15.0101,0.29395,-0.07644999,1.05183
86.846,15.08099,0.29072,-0.07649821,1.05164
87.546,15.1517,0.29281,-0.07711204,1.05144
88.246,15.22204,0.29163,-0.07711508,1.05125
88.946,15.2922,0.29147,-0.07744752,1.05106
89.646,15.36222,0.29059,-0.07875988,1.05086
90.346,15.43208,0.29007,-0.07876,1.05067
91.046,15.5016,0.29118,-0.07877509,1.05047
91.746,15.5709,0.28926,-0.07876518,1.05028
92.446,15.64008,0.28918,-0.08006995,1.05008
93.146,15.7099,0.28796,-0.07941944,1.04988
93.846,15.7799,0.28765,-0.08007007,1.04968
94.546,15.84989,0.28373,-0.08138994,1.04948
95.246,15.91961,0.2831,-0.08240139,1.04928
95.946,15.989,0.28262,-0.08138003,1.04908
96.646,16.05847,0.27995,-0.08131502,1.04887
97.346,16.12745,0.27741,-0.08269998,1.04867
98.046,16.1962,0.2763,-0.0840938,1.04847
98.746,16.26491,0.27554,-0.08402171,1.04826
99.446,16.33362,0.27521,-0.08532837,1.04805
100.146,16.40276,0.27189,-0.08400977,1.04785
100.846,16.47169,0.27326,-0.08401531,1.04764
101.546,16.54073,0.27259,-0.08401908,1.04743
102.246,16.6095,0.27051,-0.08533983,1.04722
102.946,16.67819,0.26907,-0.08534,1.04701
103.646,16.74681,0.26699,-0.08534012,1.0468
104.346,16.81515,0.26402,-0.08571008,1.04659
105.046,16.88366,0.26331,-0.08532991,1.04637
105.746,16.9521,0.26315,-0.08637079,1.04616
106.446,17.0208,0.26012,-0.08631963,1.04594
107.146,17.08946,0.25926,-0.08665024,1.04573
107.846,17.15814,0.26123,-0.08782438,1.04551
108.546,17.22689,0.261,-0.0879605,1.04529
109.246,17.29525,0.25763,-0.08664364,1.04508
109.946,17.36376,0.25622,-0.0866277,1.04486
110.646,17.43206,0.25414,-0.08665327,1.04464
111.346,17.50056,0.25629,-0.08735672,1.04442
112.046,17.56883,0.25517,-0.08797659,1.04419
112.746,17.63715,0.25565,-0.08797142,1.04397
113.446,17.7056,0.25303,-0.08926823,1.04375
114.146,17.7742,0.25286,-0.0905094,1.04352
114.846,17.84262,0.25224,-0.08956503,1.0433
115.546,17.91102,0.2518,-0.08961826,1.04307
116.246,17.97883,0.25218,-0.08927485,1.04285
116.946,18.04719,0.25013,-0.08920999,1.04262
117.646,18.11554,0.25291,-0.08928975,1.04239
118.346,18.18419,0.24997,-0.09065225,1.04216
119.046,18.25238,0.25263,-0.09059993,1.04193
119.746,18.32046,0.25068,-0.08957296,1.0417
120.446,18.38871,0.25317,-0.09059346,1.04147
121.146,18.45666,0.25026,-0.08929066,1.04123
121.846,18.5248,0.25109,-0.08929,1.041
122.546,18.59294,0.25239,-0.08931418,1.04077
123.246,18.66131,0.25094,-0.09059992,1.04053
123.946,18.72955,0.25345,-0.0906,1.0403
124.646,18.79748,0.25035,-0.09059542,1.04006
125.346,18.86553,0.25208,-0.09140967,1.03982
126.046,18.9331,0.25276,-0.0919204,1.03958
126.746,19.00134,0.25074,-0.0922544,1.03934
127.446,19.06924,0.25259,-0.09192084,1.0391
128.146,19.13745,0.25171,-0.09192165,1.03886
128.846,19.2052,0.25254,-0.09322816,1.03862
129.546,19.2732,0.25365,-0.09323,1.03838
130.246,19.34115,0.25207,-0.09323002,1.03813
130.946,19.40915,0.25234,-0.09381869,1.03789
131.646,19.47681,0.25393,-0.09415097,1.03764
132.346,19.5444,0.25437,-0.09317792,1.0374
133.046,19.6123,0.2524,-0.0922522,1.03715
133.746,19.68018,0.25266,-0.09190462,1.0369
134.446,19.74823,0.25448,-0.09190999,1.03666
135.146,19.81599,0.25354,-0.09191,1.03641
135.846,19.8836,0.25433,-0.09190997,1.03616
136.546,19.95099,0.25653,-0.09327746,1.03591
137.246,20.0184,0.25525,-0.09344406,1.03565
137.946,20.08594,0.255,-0.09454912,1.0354
138.646,20.1536,0.25647,-0.09453788,1.03515
139.346,20.22125,0.25778,-0.09455023,1.03489
140.046,20.28888,0.25871,-0.0958699,1.03464
140.746,20.35642,0.25958,-0.09455987,1.03438
141.446,20.42387,0.25815,-0.09455,1.03413
142.146,20.49127,0.26147,-0.09455,1.03387
142.846,20.55852,0.26108,-0.09454991,1.03361
143.546,20.62585,0.26234,-0.0932511,1.03335
144.246,20.6933,0.26216,-0.09428615,1.03309
144.946,20.7609,0.26186,-0.09455008,1.03283
145.646,20.82849,0.26069,-0.09455,1.03257
146.346,20.8959,0.26228,-0.09455001,1.03231
147.046,20.96315,0.26236,-0.09448858,1.03205
147.746,21.03015,0.26201,-0.09587001,1.03178
148.446,21.0974,0.26389,-0.09578106,1.03152
149.146,21.16454,0.26316,-0.09718004,1.03125
149.846,21.232,0.26699,-0.09718059,1.03099
150.546,21.29924,0.26733,-0.09720431,1.03072
151.246,21.36662,0.26791,-0.09685003,1.03045
151.946,21.43392,0.26936,-0.09685004,1.03018
152.646,21.50121,0.26966,-0.09719997,1.02991
153.346,21.5684,0.27157,-0.09777904,1.02964
154.046,21.63545,0.27203,-0.09718046,1.02937
154.746,21.70247,0.27371,-0.09718001,1.0291
155.446,21.76943,0.27284,-0.09718786,1.02883
156.146,21.83636,0.27352,-0.09849989,1.02855
156.846,21.90331,0.27435,-0.09865356,1.02828
157.546,21.9706,0.27343,-0.09981998,1.02801
158.246,22.03789,0.27607,-0.0998713,1.02773
158.946,22.1049,0.2775,-0.09882978,1.02745
159.646,22.1718,0.27541,-0.09775915,1.02718
160.346,22.2388,0.27622,-0.09783999,1.0269
161.046,22.3061,0.27759,-0.09784,1.02662
161.746,22.37336,0.27749,-0.09784011,1.02634
162.446,22.44039,0.2787,-0.09885052,1.02606
163.146,22.50723,0.27818,-0.09882867,1.02578
163.846,22.57405,0.28061,-0.09918096,1.0255
164.546,22.64099,0.27808,-0.10014,1.02521
165.246,22.70835,0.27732,-0.10014,1.02493
165.946,22.77553,0.2804,-0.10144,1.02464
166.646,22.84289,0.28198,-0.10123,1.02436
167.346,22.9099,0.28129,-0.10014,1.02407
168.046,22.9767,0.28054,-0.10014,1.02379
168.746,23.04364,0.28249,-0.10082,1.0235
169.446,23.11048,0.28372,-0.10211,1.02321
170.146,23.17769,0.28778,-0.10211,1.02292
170.846,23.24456,0.28477,-0.10277,1.02263
171.546,23.31167,0.28558,-0.1023,1.02234
172.246,23.37865,0.28652,-0.10179,1.02205
172.946,23.44566,0.2849,-0.10179,1.02176
173.646,23.51269,0.28522,-0.10179,1.02147
174.346,23.57959,0.28651,-0.10179,1.02117
175.046,23.6465,0.2853,-0.10179,1.02088
175.746,23.71347,0.28674,-0.10274,1.02058
176.446,23.78035,0.28837,-0.10278,1.02029
177.146,23.8473,0.28774,-0.1036,1.01999
177.846,23.9142,0.28646,-0.10312,1.01969
178.546,23.9809,0.28703,-0.10311,1.0194
179.246,24.04789,0.29059,-0.10311,1.0191
179.946,24.1151,0.29025,-0.10311,1.0188
180.646,24.18211,0.29069,-0.10442,1.0185
181.346,24.24917,0.29136,-0.10573,1.01819
182.046,24.31628,0.29032,-0.10573,1.01789
182.746,24.38338,0.29204,-0.10503,1.01759
183.446,24.45049,0.29499,-0.10607,1.01729
184.146,24.51728,0.29462,-0.10607,1.01698
184.846,24.5841,0.29513,-0.10705,1.01668
185.546,24.65089,0.2941,-0.10738,1.01637
186.246,24.71773,0.29387,-0.10738,1.01607
186.946,24.784,0.29409,-0.10738,1.01576
187.646,24.85063,0.29623,-0.10777,1.01545
188.346,24.91732,0.29895,-0.1087,1.01514
189.046,24.98455,0.29901,-0.10879,1.01483
189.746,25.05155,0.29783,-0.10738,1.01452
190.446,25.11846,0.29843,-0.1087,1.01421
191.146,25.1852,0.30102,-0.1087,1.0139
191.846,25.25214,0.3008,-0.11001,1.01359
192.546,25.31855,0.30068,-0.11001,1.01327
193.246,25.38543,0.30343,-0.10911,1.01296
193.946,25.45218,0.30216,-0.11002,1.01265
194.646,25.5192,0.30442,-0.11133,1.01233
195.346,25.5858,0.30662,-0.11265,1.01201
196.046,25.65265,0.3041,-0.11265,1.0117
196.746,25.71964,0.30539,-0.11397,1.01138
197.446,25.78654,0.30607,-0.11352,1.01106
198.146,25.85353,0.30739,-0.11331,1.01074
198.846,25.9205,0.30834,-0.11331,1.01042
199.546,25.98753,0.30949,-0.11462,1.0101
200.246,26.05424,0.30967,-0.11594,1.00978
200.946,26.12109,0.31156,-0.11716,1.00946
201.646,26.18794,0.31219,-0.11627,1.00914
202.346,26.25463,0.31191,-0.11575,1.00881
203.046,26.3213,0.31629,-0.11527,1.00849
203.746,26.3879,0.31538,-0.11659,1.00816
204.446,26.45478,0.31782,-0.11784,1.00784
205.146,26.52143,0.3182,-0.11792,1.00751
205.846,26.58806,0.32066,-0.12055,1.00718
206.546,26.6545,0.3176,-0.12055,1.00686
207.246,26.72118,0.32033,-0.12055,1.00653
207.946,26.78783,0.31984,-0.12055,1.0062
208.646,26.85456,0.32342,-0.12187,1.00587
209.346,26.92125,0.32237,-0.12052,1.00554
210.046,26.9878,0.32744,-0.12186,1.00521
210.746,27.05438,0.32638,-0.12317,1.00488
211.446,27.12085,0.32577,-0.12318,1.00454
212.146,27.1875,0.32519,-0.12449,1.00421
212.846,27.2542,0.32801,-0.12549,1.00387
213.546,27.321,0.32613,-0.12623,1.00354
214.246,27.38768,0.3311,-0.12712,1.0032
214.946,27.4542,0.33302,-0.12844,1.00287
215.646,27.5207,0.33476,-0.12844,1.00253
216.346,27.58748,0.33705,-0.12844,1.00219
217.046,27.65421,0.33588,-0.12986,1.00185
217.746,27.7208,0.3363,-0.13108,1.00152
218.446,27.78707,0.33838,-0.13239,1.00118
219.146,27.8536,0.33998,-0.13239,1.00084
219.846,27.9201,0.34116,-0.13239,1.00049
220.546,27.98678,0.34378,-0.13371,1.00015
221.246,28.0535,0.3433,-0.13371,0.99981
221.946,28.1202,0.34478,-0.13371,0.99947
222.646,28.18652,0.34513,-0.13635,0.99912
223.346,28.253,0.34618,-0.13581,0.99878
224.046,28.3197,0.34968,-0.1383,0.99843
224.746,28.3867,0.35115,-0.13936,0.99809
225.446,28.4537,0.35193,-0.14091,0.99774
226.146,28.5204,0.35356,-0.14096,0.99739
226.846,28.58707,0.35241,-0.14226,0.99704
227.546,28.6538,0.35393,-0.14326,0.99669
228.246,28.72035,0.3533,-0.14358,0.99634
228.946,28.78678,0.35473,-0.14495,0.99599
229.646,28.8534,0.35925,-0.14626,0.99564
230.346,28.92019,0.35707,-0.14752,0.99529
231.046,28.98695,0.35517,-0.14755,0.99494
231.746,29.0536,0.35264,-0.15026,0.99459
232.446,29.1204,0.3508,-0.15148,0.99423
233.146,29.1872,0.35123,-0.15267,0.99388
233.846,29.25398,0.35225,-0.15383,0.99352
234.546,29.3206,0.3496,-0.15345,0.99317
235.246,29.38712,0.35185,-0.15518,0.99281
235.946,29.4539,0.35351,-0.15604,0.99245
236.646,29.5207,0.35233,-0.15739,0.9921
237.346,29.5875,0.35348,-0.15969,0.99174
238.046,29.6543,0.35442,-0.16025,0.99138
238.746,29.721,0.35736,-0.1627,0.99102
239.446,29.7878,0.35507,-0.16529,0.99066
240.146,29.8544,0.35628,-0.16531,0.9903
240.846,29.92105,0.35523,-0.16661,0.98993
241.546,29.98756,0.3582,-0.16925,0.98957
242.246,30.05425,0.35717,-0.17048,0.98921
242.946,30.12085,0.35989,-0.17323,0.98885
243.646,30.18745,0.3576,-0.17393,0.98848
244.346,30.25419,0.36022,-0.17592,0.98812
245.046,30.32088,0.36073,-0.17799,0.98775
245.746,30.38764,0.36044,-0.1799,0.98738
246.446,30.45415,0.36011,-0.18163,0.98702
247.146,30.5205,0.36193,-0.18376,0.98665
247.846,30.587,0.3636,-0.18583,0.98628
248.546,30.6539,0.36371,-0.188,0.98591
249.246,30.72105,0.36283,-0.18936,0.98554
249.946,30.78807,0.36268,-0.19207,0.98517
250.646,30.8548,0.36607,-0.19457,0.9848
251.346,30.9215,0.3673,-0.19704,0.98443
252.046,30.98828,0.36707,-0.19909,0.98405
252.746,31.05466,0.36668,-0.20192,0.98368
253.446,31.12148,0.37047,-0.20504,0.98331
254.146,31.1882,0.36894,-0.20803,0.98293
254.846,31.25514,0.37114,-0.21026,0.98256
255.546,31.32143,0.37206,-0.2135,0.98218
256.246,31.3882,0.37126,-0.21518,0.98181
256.946,31.4552,0.3726,-0.21706,0.98143
257.646,31.52253,0.37522,-0.21935,0.98105
258.346,31.58932,0.3729,-0.22232,0.98067
259.046,31.6562,0.37622,-0.22677,0.98029
259.746,31.7229,0.37619,-0.23047,0.97991
260.446,31.7896,0.3743,-0.23306,0.97953
261.146,31.8563,0.37633,-0.23719,0.97915
261.846,31.9231,0.3784,-0.23936,0.97877
262.546,31.99005,0.37686,-0.24318,0.97839
263.246,32.05688,0.37665,-0.24702,0.97801
263.946,32.12383,0.37682,-0.25049,0.97762
264.646,32.19077,0.37994,-0.25372,0.97724
265.346,32.25785,0.38195,-0.25722,0.97686
266.046,32.32457,0.37978,-0.26181,0.97647
266.746,32.39137,0.37963,-0.26394,0.97608
267.446,32.45815,0.38058,-0.26947,0.9757
268.146,32.52525,0.38212,-0.27389,0.97531
268.846,32.5921,0.38501,-0.27666,0.97492
269.546,32.65905,0.38727,-0.28078,0.97453
270.246,32.726,0.38604,-0.28769,0.97414
270.946,32.79305,0.38717,-0.29355,0.97375
271.646,32.85989,0.38703,-0.29702,0.97336
272.346,32.9267,0.38707,-0.30207,0.97297
273.046,32.99349,0.39054,-0.30576,0.97258
273.746,33.06044,0.38689,-0.30964,0.97219
274.446,33.12741,0.39054,-0.31411,0.9718
275.146,33.1941,0.39254,-0.32159,0.9714
275.846,33.2609,0.3906,-0.32572,0.97101
276.546,33.3279,0.39598,-0.33122,0.97061
277.246,33.39499,0.39379,-0.33868,0.97022
277.946,33.4619,0.39551,-0.34435,0.96982
278.646,33.52868,0.39694,-0.34954,0.96943
279.346,33.59565,0.3986,-0.35615,0.96903
280.046,33.66271,0.40059,-0.36199,0.96863
280.746,33.7297,0.39865,-0.36851,0.96823
281.446,33.79672,0.39964,-0.37354,0.96783
282.146,33.86333,0.40112,-0.37956,0.96743
282.846,33.93031,0.40208,-0.38502,0.96703
283.546,33.9973,0.40375,-0.39173,0.96663
284.246,34.0646,0.40535,-0.39807,0.96623
284.946,34.13183,0.40624,-0.40553,0.96583
285.646,34.19905,0.40621,-0.41426,0.96543
286.346,34.266,0.40657,-0.41997,0.96502
287.046,34.33302,0.40692,-0.42679,0.96462
287.746,34.39996,0.41102,-0.43436,0.96422
288.446,34.46705,0.40976,-0.44206,0.96381
289.146,34.53392,0.41176,-0.45022,0.9634
289.846,34.6012,0.41242,-0.45993,0.963
290.546,34.66822,0.4125,-0.46718,0.96259
291.246,34.7356,0.41543,-0.4749,0.96218
291.946,34.80247,0.4211,-0.48271,0.96178
292.646,34.86953,0.42188,-0.49187,0.96137
293.346,34.9365,0.42176,-0.49919,0.96096
294.046,35.0037,0.42329,-0.5081,0.96055
294.746,35.0706,0.42504,-0.51722,0.96014
295.446,35.13745,0.42828,-0.52556,0.95973
296.146,35.20426,0.43163,-0.53671,0.95932
296.846,35.27128,0.43075,-0.54533,0.9589
297.546,35.33842,0.43712,-0.55541,0.95849
298.246,35.40572,0.43609,-0.56583,0.95808
298.946,35.47286,0.44013,-0.5727,0.95766
299.646,35.53979,0.44362,-0.58328,0.95725
300.346,35.60667,0.44516,-0.59374,0.95683
301.046,35.67348,0.44863,-0.60501,0.95642
301.746,35.7405,0.45172,-0.61523,0.956
302.446,35.8076,0.45376,-0.62651,0.95558
303.146,35.87475,0.45468,-0.63665,0.95517
303.846,35.94194,0.45799,-0.64772,0.95475
304.546,36.00909,0.46262,-0.66,0.95433
305.246,36.07613,0.4632,-0.67219,0.95391
305.946,36.14334,0.4657,-0.68462,0.95349
306.646,36.21056,0.46863,-0.69635,0.95307
307.346,36.27771,0.47388,-0.70856,0.95265
308.046,36.34479,0.47426,-0.72105,0.95223
308.746,36.41188,0.47694,-0.73287,0.95181
309.446,36.479,0.48081,-0.7456,0.95138
310.146,36.54632,0.48696,-0.75882,0.95096
310.846,36.61354,0.48817,-0.77094,0.95054
311.546,36.6804,0.49253,-0.78476,0.95011
312.246,36.74762,0.49435,-0.7991,0.94969
312.946,36.81478,0.49917,-0.8124,0.94926
313.646,36.88237,0.5005,-0.82663,0.94884
314.346,36.94975,0.50093,-0.84245,0.94841
315.046,37.01717,0.50401,-0.8557,0.94798
315.746,37.08453,0.50809,-0.86972,0.94755
316.446,37.15194,0.51074,-0.88721,0.94713
317.146,37.2192,0.51471,-0.90139,0.9467
317.846,37.28647,0.51664,-0.91526,0.94627
318.546,37.35374,0.51717,-0.93114,0.94584
319.246,37.4212,0.52214,-0.94638,0.94541
319.946,37.48888,0.52291,-0.96244,0.94498
320.646,37.5565,0.5249,-0.97817,0.94454
321.346,37.62399,0.52633,-0.99384,0.94411
322.046,37.69112,0.5319,-1.01168,0.94368
322.746,37.75845,0.53284,-1.02746,0.94325
323.446,37.82561,0.53339,-1.0443,0.94281
324.146,37.89282,0.53557,-1.06124,0.94238
324.846,37.95977,0.53523,-1.07773,0.94194
325.546,38.02726,0.53744,-1.09541,0.94151
326.246,38.09505,0.54101,-1.11254,0.94107
326.946,38.16263,0.54163,-1.12992,0.94064
327.646,38.22991,0.54474,-1.14609,0.9402
328.346,38.29714,0.54486,-1.16264,0.93976
329.046,38.36439,0.54539,-1.17904,0.93932
329.746,38.43188,0.54431,-1.19728,0.93888
330.446,38.49943,0.54685,-1.21439,0.93844
331.146,38.56667,0.54862,-1.23169,0.938
331.846,38.63397,0.55172,-1.25127,0.93756
332.546,38.70117,0.55274,-1.2668,0.93712
333.246,38.7687,0.55056,-1.28441,0.93668
333.946,38.8362,0.55281,-1.30412,0.93624
334.646,38.90352,0.5524,-1.32265,0.9358
335.346,38.97076,0.55217,-1.33912,0.93535
336.046,39.03795,0.55582,-1.35588,0.93491
336.746,39.10542,0.55402,-1.3742,0.93447
337.446,39.17293,0.55759,-1.39327,0.93402
338.146,39.24058,0.55988,-1.41136,0.93358
338.846,39.30827,0.56009,-1.43068,0.93313
339.546,39.376,0.56265,-1.44932,0.93269
340.246,39.44363,0.56683,-1.46735,0.93224
340.946,39.51095,0.57006,-1.48664,0.93179
341.646,39.57839,0.57264,-1.50515,0.93134
342.346,39.64588,0.57687,-1.52408,0.9309
343.046,39.71349,0.5794,-1.5435,0.93045
343.746,39.78133,0.5869,-1.56175,0.93
344.446,39.8493,0.59131,-1.5817,0.92955
345.146,39.91702,0.59625,-1.60067,0.9291
345.846,39.98475,0.59999,-1.6204,0.92865
346.546,40.05225,0.60479,-1.63982,0.92819
347.246,40.11999,0.61154,-1.65955,0.92774
347.946,40.1879,0.61806,-1.68054,0.92729
348.646,40.2557,0.62596,-1.69942,0.92684
349.346,40.32351,0.63264,-1.71953,0.92638
350.046,40.3915,0.64003,-1.7404,0.92593
350.746,40.45933,0.64912,-1.76121,0.92548
351.446,40.5271,0.65523,-1.78224,0.92502
352.146,40.59494,0.66534,-1.8042,0.92457
352.846,40.66264,0.67488,-1.82508,0.92411
353.546,40.73046,0.68433,-1.84551,0.92365
354.246,40.79776,0.69093,-1.86882,0.9232
354.946,40.86523,0.70088,-1.89116,0.92274
355.646,40.93267,0.70649,-1.91349,0.92228
356.346,41.00052,0.72053,-1.93787,0.92182
357.046,41.06878,0.72638,-1.96016,0.92136
357.746,41.13687,0.73799,-1.98289,0.9209
358.446,41.2052,0.74424,-2.00797,0.92044
359.146,41.27313,0.75237,-2.03257,0.91998
359.846,41.34128,0.76097,-2.05604,0.91952
360.546,41.40911,0.76681,-2.08041,0.91906
361.246,41.4769,0.77202,-2.1069,0.9186
361.946,41.54476,0.78164,-2.13262,0.91814
362.646,41.61261,0.78558,-2.15697,0.91767
363.346,41.68045,0.78968,-2.18211,0.91721
364.046,41.74823,0.79312,-2.20722,0.91675
364.746,41.81615,0.79592,-2.23223,0.91628
365.446,41.88404,0.79443,-2.2588,0.91582
366.146,41.952,0.79763,-2.28456,0.91535
366.846,42.0197,0.79922,-2.30943,0.91488
367.546,42.0876,0.79593,-2.33387,0.91442
368.246,42.15529,0.79061,-2.36046,0.91395
368.946,42.22306,0.78154,-2.38504,0.91348
369.646,42.29105,0.77677,-2.41148,0.91302
370.346,42.35879,0.76526,-2.43642,0.91255
371.046,42.42669,0.75365,-2.462,0.91208
371.746,42.49439,0.73766,-2.48567,0.91161
372.446,42.56215,0.72293,-2.50877,0.91114
373.146,42.62988,0.70472,-2.53283,0.91067
373.846,42.6975,0.68816,-2.5547,0.9102
374.546,42.76511,0.66356,-2.57726,0.90973
375.246,42.83275,0.64096,-2.59968,0.90926
375.946,42.90018,0.61835,-2.62058,0.90878
376.646,42.96792,0.59261,-2.64165,0.90831
377.346,43.0355,0.5623,-2.66191,0.90784
378.046,43.10301,0.53269,-2.67814,0.90737
378.746,43.1702,0.50302,-2.69503,0.90689
379.446,43.2376,0.47256,-2.71155,0.90642
380.146,43.30527,0.4394,-2.72823,0.90594
380.846,43.3728,0.40511,-2.74269,0.90547
381.546,43.4403,0.37215,-2.75689,0.90499
382.246,43.50789,0.33614,-2.77057,0.90451
382.946,43.5753,0.30406,-2.78269,0.90404
383.646,43.64287,0.26931,-2.79235,0.90356
384.346,43.71027,0.23858,-2.8024,0.90308
385.046,43.7778,0.20492,-2.81133,0.9026
385.746,43.84548,0.17405,-2.82012,0.90213
386.446,43.9131,0.14529,-2.8273,0.90165
387.146,43.98085,0.12004,-2.83424,0.90117
387.846,44.0484,0.0946126,-2.84124,0.90069
388.546,44.11615,0.07207293,-2.84705,0.90021
389.246,44.18395,0.0505432,-2.85144,0.89973
389.946,44.2519,0.03392903,-2.85609,0.89924
390.646,44.31985,0.01861815,-2.85928,0.89876
391.346,44.38749,0.007878849,-2.86376,0.89828
392.046,44.4552,-0.002053996,-2.86714,0.8978
392.746,44.52247,-0.01306042,-2.87057,0.89731
393.446,44.59043,-0.01783358,-2.87346,0.89683
394.146,44.65833,-0.02934317,-2.87579,0.89635
394.846,44.72664,-0.02966868,-2.87661,0.89586
395.546,44.79455,-0.03273563,-2.88013,0.89538
396.246,44.8626,-0.03597004,-2.88344,0.89489
396.946,44.9307,-0.04093931,-2.88633,0.89441
397.646,44.9989,-0.04327153,-2.88771,0.89392
398.346,45.0667,-0.04534423,-2.89056,0.89343
399.046,45.1348,-0.045426,-2.89306,0.89295
399.746,45.20297,-0.04870906,-2.89426,0.89246
400.446,45.2714,-0.0504927,-2.89566,0.89197
401.146,45.33972,-0.05054795,-2.89835,0.89148
401.846,45.40786,-0.05287375,-2.89958,0.89099
402.546,45.47603,-0.054559,-2.90238,0.8905
403.246,45.5441,-0.05594465,-2.90369,0.89001
403.946,45.61258,-0.05702022,-2.90662,0.88952
404.646,45.68077,-0.06252895,-2.90794,0.88903
405.346,45.74915,-0.06031057,-2.91095,0.88854
406.046,45.817,-0.06471145,-2.91353,0.88805
406.746,45.88487,-0.06567671,-2.91627,0.88756
407.446,45.95268,-0.07071749,-2.91793,0.88707
408.146,46.02094,-0.07076157,-2.92035,0.88657
408.846,46.0892,-0.07282778,-2.92274,0.88608
409.546,46.15737,-0.07351379,-2.92419,0.88559
410.246,46.22571,-0.07503675,-2.9261,0.88509
410.946,46.29412,-0.07641836,-2.92879,0.8846
411.646,46.3626,-0.08222964,-2.93026,0.8841
412.346,46.43087,-0.08367526,-2.93165,0.88361
413.046,46.4992,-0.08423716,-2.93318,0.88311
413.746,46.5678,-0.08611809,-2.93586,0.88262
414.446,46.63662,-0.08805213,-2.93715,0.88212
415.146,46.7051,-0.09144507,-2.94002,0.88162
415.846,46.77285,-0.09046333,-2.9427,0.88113
416.546,46.8407,-0.09346556,-2.94436,0.88063
417.246,46.90894,-0.09754187,-2.94535,0.88013
417.946,46.97783,-0.09905897,-2.94689,0.87963
418.646,47.04674,-0.09892602,-2.9494,0.87913
419.346,47.11572,-0.10152,-2.95204,0.87863
420.046,47.18439,-0.104,-2.9534,0.87813
420.746,47.253,-0.10405,-2.95545,0.87763
421.446,47.32123,-0.10533,-2.95823,0.87713
422.146,47.38964,-0.10589,-2.96053,0.87663
422.846,47.45792,-0.10824,-2.96204,0.87613
423.546,47.52558,-0.11091,-2.96452,0.87563
424.246,47.59365,-0.11172,-2.96715,0.87513
424.946,47.66179,-0.11355,-2.96868,0.87462
425.646,47.73052,-0.1132,-2.96986,0.87412
426.346,47.79922,-0.11558,-2.97274,0.87362
427.046,47.86784,-0.12013,-2.97503,0.87311
427.746,47.93676,-0.11799,-2.97818,0.87261
428.446,48.00561,-0.11842,-2.97814,0.87211
429.146,48.07435,-0.12131,-2.98204,0.8716
429.846,48.14295,-0.12093,-2.98351,0.87109
430.546,48.21127,-0.12349,-2.98479,0.87059
431.246,48.27987,-0.12376,-2.98742,0.87008
431.946,48.34854,-0.12411,-2.98981,0.86958
432.646,48.41703,-0.1272,-2.99072,0.86907
433.346,48.48547,-0.12616,-2.99321,0.86856
434.046,48.55377,-0.12335,-2.9949,0.86805
434.746,48.62226,-0.12311,-2.99831,0.86755
435.446,48.69078,-0.12545,-2.99985,0.86704
436.146,48.75939,-0.12341,-3.00112,0.86653
436.846,48.8281,-0.12257,-3.00396,0.86602
437.546,48.89675,-0.12267,-3.00669,0.86551
438.246,48.9655,-0.12213,-3.00607,0.865
438.946,49.0343,-0.12249,-3.00759,0.86449
439.646,49.103,-0.12377,-3.00964,0.86398
440.346,49.1718,-0.12025,-3.01375,0.86347
441.046,49.2406,-0.1201,-3.01477,0.86296
441.746,49.30939,-0.11854,-3.01638,0.86244
442.446,49.37802,-0.11854,-3.01768,0.86193
443.146,49.4467,-0.11822,-3.01912,0.86142
443.846,49.5154,-0.11753,-3.02172,0.86091
444.546,49.5843,-0.11442,-3.02166,0.86039
445.246,49.65311,-0.11405,-3.02295,0.85988
445.946,49.7215,-0.11159,-3.02425,0.85936
446.646,49.79,-0.11275,-3.02656,0.85885
447.346,49.85873,-0.10734,-3.02826,0.85833
448.046,49.92776,-0.10585,-3.02967,0.85782
448.746,49.99661,-0.10916,-3.03247,0.8573
449.446,50.06544,-0.10799,-3.03384,0.85679
450.146,50.13423,-0.1058,-3.03508,0.85627
450.846,50.20286,-0.1067,-3.03646,0.85575
451.546,50.2714,-0.10186,-3.03832,0.85524
452.246,50.34006,-0.10105,-3.04139,0.85472
452.946,50.40832,-0.09807598,-3.04203,0.8542
453.646,50.47705,-0.09829647,-3.04316,0.85368
454.346,50.54588,-0.09540854,-3.04425,0.85316
455.046,50.6152,-0.09330941,-3.04532,0.85265
455.746,50.68399,-0.09150702,-3.04965,0.85213
456.446,50.75255,-0.0890811,-3.05225,0.85161
457.146,50.82123,-0.08820966,-3.05355,0.85109
457.846,50.88998,-0.0874622,-3.05421,0.85057
458.546,50.95875,-0.08477103,-3.05483,0.85005
459.246,51.0275,-0.08204179,-3.0575,0.84952
459.946,51.09628,-0.07970568,-3.0575,0.849
460.646,51.16519,-0.08058097,-3.05912,0.84848
461.346,51.2339,-0.07719751,-3.06059,0.84796
462.046,51.30272,-0.07578988,-3.06166,0.84744
462.746,51.37165,-0.07301567,-3.06302,0.84691
463.446,51.44085,-0.0752835,-3.06404,0.84639
464.146,51.50996,-0.07107295,-3.06562,0.84587
464.846,51.57917,-0.07190081,-3.06631,0.84534
465.546,51.64819,-0.06739552,-3.06696,0.84482
466.246,51.71739,-0.06736011,-3.06953,0.84429
466.946,51.78627,-0.06586516,-3.0711,0.84377
467.646,51.85538,-0.06872651,-3.07243,0.84324
468.346,51.92407,-0.06339482,-3.07241,0.84272
469.046,51.9932,-0.06631756,-3.07503,0.84219
469.746,52.06195,-0.06600078,-3.07505,0.84167
470.446,52.13113,-0.06350421,-3.07508,0.84114
471.146,52.20021,-0.06154481,-3.07636,0.84061
471.846,52.26934,-0.06279005,-3.07768,0.84009
472.546,52.33862,-0.06023589,-3.07953,0.83956
473.246,52.40769,-0.06186719,-3.08121,0.83903
473.946,52.4767,-0.05697168,-3.08277,0.8385
474.646,52.54566,-0.05933172,-3.08172,0.83797
475.346,52.61447,-0.05759795,-3.08272,0.83744
476.046,52.68381,-0.06065209,-3.08405,0.83692
476.746,52.7531,-0.05851328,-3.08469,0.83639
477.446,52.8226,-0.05630631,-3.08652,0.83586
478.146,52.89181,-0.0552491,-3.08807,0.83533
478.846,52.9607,-0.05644793,-3.08934,0.8348
479.546,53.0296,-0.0538479,-3.08931,0.83426
480.246,53.0987,-0.05298973,-3.09118,0.83373
480.946,53.1681,-0.05595739,-3.09326,0.8332
481.646,53.2375,-0.05306725,-3.09327,0.83267
482.346,53.3067,-0.05413155,-3.09458,0.83214
483.046,53.37599,-0.05196951,-3.09458,0.83161
483.746,53.4452,-0.05249142,-3.0959,0.83107
484.446,53.5142,-0.05002181,-3.09689,0.83054
485.146,53.5832,-0.05074091,-3.09721,0.83001
485.846,53.652,-0.05295496,-3.09735,0.82947
486.546,53.72126,-0.05239126,-3.10047,0.82894
487.246,53.79035,-0.0498719,-3.10181,0.8284
487.946,53.8598,-0.04989898,-3.10181,0.82787
488.646,53.9286,-0.04841967,-3.10335,0.82733
489.346,53.99755,-0.04896428,-3.10313,0.8268
490.046,54.0663,-0.05054463,-3.10445,0.82626
490.746,54.13545,-0.04910228,-3.10445,0.82573
491.446,54.20437,-0.04869568,-3.10582,0.82519
492.146,54.2733,-0.05047471,-3.10672,0.82465
492.846,54.34211,-0.05021825,-3.10673,0.82412
493.546,54.41095,-0.04706146,-3.10973,0.82358
494.246,54.4798,-0.05090106,-3.10972,0.82304
494.946,54.54863,-0.04630236,-3.10972,0.82251
495.646,54.61776,-0.0453353,-3.11238,0.82197
496.346,54.6867,-0.04550824,-3.11234,0.82143
497.046,54.7556,-0.04650276,-3.11213,0.82089
497.746,54.82439,-0.04200321,-3.11235,0.82035
498.446,54.8936,-0.04536572,-3.11366,0.81981
499.146,54.963,-0.04386126,-3.1163,0.81927
499.846,55.0323,-0.04677291,-3.1162,0.81873
500.546,55.10142,-0.0433123,-3.1163,0.81819
501.246,55.1706,-0.03890556,-3.117,0.81765
501.946,55.23966,-0.0398814,-3.11858,0.81711
502.646,55.30881,-0.03886832,-3.11991,0.81657
503.346,55.37794,-0.03632012,-3.11857,0.81603
504.046,55.44729,-0.03536779,-3.12121,0.81549
504.746,55.51664,-0.0343864,-3.11991,0.81495
505.446,55.58614,-0.03310443,-3.12104,0.8144
506.146,55.6555,-0.03353347,-3.12263,0.81386
506.846,55.72492,-0.03005564,-3.12386,0.81332
507.546,55.79421,-0.03005188,-3.12517,0.81278
508.246,55.86368,-0.02655919,-3.12518,0.81223
508.946,55.93295,-0.02435284,-3.1265,0.81169
509.646,56.0022,-0.01719026,-3.12645,0.81114
510.346,56.07141,-0.01645813,-3.12784,0.8106
511.046,56.1408,-0.01220532,-3.12649,0.81006
511.746,56.2102,-0.01269581,-3.12781,0.80951
512.446,56.2798,-0.01195869,-3.12879,0.80897
513.146,56.34907,-0.01213464,-3.13012,0.80842
513.846,56.4183,-0.01095656,-3.13142,0.80788
514.546,56.4872,-0.009160806,-3.13138,0.80733
515.246,56.5563,-0.01150927,-3.13143,0.80678
515.946,56.62559,-0.01040799,-3.13279,0.80624
516.646,56.69485,-0.01009359,-3.13275,0.80569
517.346,56.7638,-0.009638216,-3.13406,0.80514
518.046,56.833,-0.01032101,-3.13406,0.8046
518.746,56.90249,-0.00999931,-3.13537,0.80405
519.446,56.9723,-0.0117243,-3.1357,0.8035
520.146,57.0418,-0.00827006,-3.13702,0.80295
520.846,57.1107,-0.008311149,-3.13702,0.8024
521.546,57.18011,-0.009924619,-3.13768,0.80186
522.246,57.24977,-0.01214697,-3.139,0.80131
522.946,57.31965,-0.01363599,-3.14031,0.80076
523.646,57.38915,-0.008949629,-3.14031,0.80021
524.346,57.45845,-0.01130871,-3.14031,0.79966
525.046,57.5279,-0.01304849,-3.14163,0.79911
525.746,57.59729,-0.01298285,-3.14295,0.79856
526.446,57.6665,-0.01312355,-3.14285,0.79801
527.146,57.73608,-0.01347665,-3.14426,0.79746
527.846,57.8054,-0.01567846,-3.14316,0.79691
528.546,57.87483,-0.01642527,-3.14459,0.79636
529.246,57.94389,-0.01744701,-3.14554,0.79581
529.946,58.01331,-0.01845569,-3.1459,0.79525
530.646,58.0829,-0.01537551,-3.14722,0.7947
531.346,58.15251,-0.01632533,-3.14859,0.79415
532.046,58.22191,-0.01798002,-3.14854,0.7936
532.746,58.2912,-0.02075825,-3.14985,0.79304
533.446,58.36051,-0.01846505,-3.14985,0.79249
534.146,58.43,-0.01729878,-3.15117,0.79194
534.846,58.49952,-0.02188898,-3.15116,0.79139
535.546,58.56898,-0.02101789,-3.15251,0.79083
536.246,58.63836,-0.0209986,-3.15346,0.79028
536.946,58.7079,-0.02279501,-3.15347,0.78972
537.646,58.7776,-0.02205677,-3.15484,0.78917
538.346,58.8472,-0.02301227,-3.15479,0.78861
539.046,58.9166,-0.02104003,-3.15547,0.78806
539.746,58.98613,-0.02293008,-3.15578,0.7875
540.446,59.0557,-0.02276767,-3.15572,0.78695
541.146,59.1252,-0.02307158,-3.15511,0.78639
541.846,59.19497,-0.02589351,-3.15644,0.78584
542.546,59.2649,-0.02674907,-3.1565,0.78528
543.246,59.3352,-0.02861963,-3.15776,0.78473
543.946,59.4052,-0.03271645,-3.15776,0.78417
544.646,59.475,-0.03636438,-3.15779,0.78361
545.346,59.5448,-0.04068596,-3.16087,0.78305
546.046,59.6146,-0.04169546,-3.16191,0.7825
546.746,59.68439,-0.04394862,-3.16083,0.78194
547.446,59.75411,-0.04479513,-3.16085,0.78138
548.146,59.82391,-0.04693713,-3.16217,0.78082
548.846,59.89385,-0.05215945,-3.16313,0.78027
549.546,59.9635,-0.05341589,-3.16313,0.77971
550.246,60.0331,-0.05339486,-3.16446,0.77915
550.946,60.1029,-0.05472304,-3.16495,0.77859
551.646,60.17278,-0.0582662,-3.1651,0.77803
552.346,60.24279,-0.0581721,-3.16613,0.77747
553.046,60.31261,-0.05936757,-3.16544,0.77691
553.746,60.3825,-0.0605542,-3.16577,0.77635
554.446,60.45239,-0.06103756,-3.16711,0.77579
555.146,60.52214,-0.06346771,-3.16834,0.77523
555.846,60.59189,-0.0625065,-3.16971,0.77467
556.546,60.66165,-0.06085674,-3.16968,0.77411
557.246,60.7316,-0.06353533,-3.16971,0.77355
557.946,60.80152,-0.06418583,-3.16968,0.77299
558.646,60.87157,-0.06526482,-3.1707,0.77243
559.346,60.9416,-0.06615995,-3.17036,0.77187
560.046,61.0117,-0.0696127,-3.17085,0.77131
560.746,61.0815,-0.06571701,-3.17168,0.77074
561.446,61.15146,-0.06829373,-3.173,0.77018
562.146,61.22129,-0.06773754,-3.1743,0.76962
562.846,61.29145,-0.06856616,-3.17431,0.76906
563.546,61.3613,-0.07090994,-3.17563,0.76849
564.246,61.43125,-0.07085911,-3.17495,0.76793
564.946,61.50124,-0.07246428,-3.17497,0.76737
565.646,61.5714,-0.07399127,-3.17573,0.7668
566.346,61.64144,-0.0718714,-3.17695,0.76624
567.046,61.71147,-0.07028256,-3.17695,0.76568
567.746,61.78144,-0.07198533,-3.17832,0.76511
568.446,61.85156,-0.07783732,-3.17826,0.76455
569.146,61.9215,-0.07743884,-3.17826,0.76398
569.846,61.9916,-0.07405279,-3.1782,0.76342
570.546,62.06165,-0.07703219,-3.17767,0.76285
571.246,62.1316,-0.07778963,-3.17861,0.76229
571.946,62.20135,-0.07889712,-3.17901,0.76172
572.646,62.27123,-0.07645833,-3.17956,0.76116
573.346,62.34111,-0.08018867,-3.1809,0.76059
574.046,62.4112,-0.0813169,-3.18055,0.76003
574.746,62.48111,-0.08302802,-3.18192,0.75946
575.446,62.5514,-0.08190279,-3.1832,0.75889
576.146,62.62137,-0.08239057,-3.1839,0.75833
576.846,62.6914,-0.08250038,-3.18452,0.75776
577.546,62.76118,-0.08665176,-3.18452,0.7572
578.246,62.83104,-0.08491433,-3.18453,0.75663
578.946,62.9008,-0.08684066,-3.18551,0.75606
579.646,62.9708,-0.08634154,-3.18518,0.75549
580.346,63.04062,-0.08909861,-3.18386,0.75493
581.046,63.1108,-0.08713045,-3.18419,0.75436
581.746,63.18076,-0.08689845,-3.18621,0.75379
582.446,63.2507,-0.08790802,-3.18781,0.75322
583.146,63.32048,-0.08616373,-3.18912,0.75265
583.846,63.39035,-0.09002081,-3.18912,0.75209
584.546,63.4602,-0.08886605,-3.18912,0.75152
585.246,63.53011,-0.08866688,-3.19044,0.75095
585.946,63.60006,-0.09152281,-3.19044,0.75038
586.646,63.67011,-0.09189793,-3.19144,0.74981
587.346,63.7401,-0.09246607,-3.19209,0.74924
588.046,63.8101,-0.09249014,-3.1934,0.74867
588.746,63.8801,-0.09412045,-3.19439,0.7481
589.446,63.9501,-0.09237976,-3.1934,0.74753
590.146,64.02024,-0.09426781,-3.19307,0.74696
590.846,64.0903,-0.09555931,-3.19341,0.74639
591.546,64.16029,-0.09948403,-3.19472,0.74582
592.246,64.2302,-0.09505082,-3.19472,0.74525
592.946,64.3002,-0.10043,-3.19603,0.74468
593.646,64.3704,-0.1004,-3.19669,0.74411
594.346,64.44054,-0.09943699,-3.19834,0.74354
595.046,64.51079,-0.10021,-3.19834,0.74297
595.746,64.58097,-0.10195,-3.19965,0.74239
596.446,64.6512,-0.10327,-3.19965,0.74182
597.146,64.72121,-0.10375,-3.19857,0.74125
597.846,64.7912,-0.10651,-3.19833,0.74068
598.546,64.86105,-0.10574,-3.19965,0.74011
599.246,64.93124,-0.1077,-3.19965,0.73954
599.946,65.00156,-0.10978,-3.19965,0.73896
600.646,65.07194,-0.11223,-3.20046,0.73839
601.346,65.14222,-0.10984,-3.19963,0.73782
602.046,65.2123,-0.10971,-3.19999,0.73724
602.746,65.2826,-0.11112,-3.20056,0.73667
603.446,65.3527,-0.1128,-3.2013,0.7361
604.146,65.42309,-0.11048,-3.20263,0.73552
604.846,65.49336,-0.11027,-3.20262,0.73495
605.546,65.5638,-0.10975,-3.20523,0.73438
606.246,65.63414,-0.11196,-3.20525,0.7338
606.946,65.70436,-0.11327,-3.20511,0.73323
607.646,65.77404,-0.11324,-3.20426,0.73266
608.346,65.8442,-0.11285,-3.20431,0.73208
609.046,65.9142,-0.11579,-3.20558,0.73151
609.746,65.98467,-0.11378,-3.2069,0.73093
610.446,66.05452,-0.11591,-3.2069,0.73036
611.146,66.12473,-0.11711,-3.20725,0.72978
611.846,66.19492,-0.11804,-3.20819,0.72921
612.546,66.2653,-0.11941,-3.20815,0.72863
613.246,66.3355,-0.11781,-3.21018,0.72806
613.946,66.4057,-0.12053,-3.21009,0.72748
614.646,66.476,-0.12301,-3.20921,0.72691
615.346,66.54635,-0.1253,-3.21051,0.72633
616.046,66.61668,-0.12453,-3.21183,0.72575
616.746,66.6873,-0.12301,-3.21183,0.72518
617.446,66.7579,-0.12743,-3.21183,0.7246
618.146,66.82821,-0.12617,-3.21182,0.72403
618.846,66.8983,-0.12227,-3.21315,0.72345
619.546,66.96855,-0.12343,-3.21229,0.72287
620.246,67.03899,-0.12325,-3.21313,0.7223
620.946,67.10928,-0.12547,-3.21446,0.72172
621.646,67.17939,-0.12402,-3.21482,0.72114
622.346,67.2497,-0.12091,-3.21446,0.72057
623.046,67.32004,-0.1242,-3.21347,0.71999
623.746,67.3904,-0.12406,-3.21347,0.71941
624.446,67.4607,-0.12396,-3.21347,0.71883
625.146,67.53093,-0.12754,-3.21479,0.71826
625.846,67.60124,-0.12548,-3.21483,0.71768
626.546,67.6714,-0.12747,-3.21742,0.7171
627.246,67.74159,-0.12788,-3.21612,0.71652
627.946,67.8118,-0.12945,-3.2161,0.71594
628.646,67.88205,-0.1273,-3.21608,0.71537
629.346,67.95233,-0.12675,-3.21709,0.71479
630.046,68.02234,-0.13136,-3.21874,0.71421
630.746,68.09236,-0.12788,-3.22005,0.71363
631.446,68.16203,-0.12558,-3.22103,0.71305
632.146,68.232,-0.12788,-3.21972,0.71247
632.846,68.30241,-0.12792,-3.21972,0.71189
633.546,68.37314,-0.13026,-3.21972,0.71131
634.246,68.44389,-0.12983,-3.21972,0.71073
634.946,68.51396,-0.12969,-3.21838,0.71015
635.646,68.58431,-0.12649,-3.22002,0.70958
636.346,68.65441,-0.1309,-3.22038,0.709
637.046,68.72466,-0.13011,-3.2204,0.70842
637.746,68.7945,-0.12624,-3.22324,0.70784
638.446,68.86457,-0.12713,-3.22433,0.70726
639.146,68.93476,-0.12837,-3.22364,0.70668
639.846,69.00499,-0.13063,-3.22367,0.7061
640.546,69.07542,-0.13073,-3.22498,0.70552
641.246,69.14571,-0.1317,-3.2237,0.70494
641.946,69.2162,-0.13539,-3.22368,0.70435
642.646,69.28668,-0.1365,-3.22499,0.70377
643.346,69.3571,-0.13656,-3.22499,0.70319
644.046,69.42746,-0.13857,-3.22499,0.70261
644.746,69.49773,-0.13998,-3.22499,0.70203
645.446,69.5682,-0.14203,-3.2263,0.70145
646.146,69.6386,-0.1444,-3.22631,0.70087
646.846,69.7085,-0.14292,-3.22499,0.70029
647.546,69.77882,-0.14193,-3.22624,0.69971
648.246,69.8493,-0.14327,-3.22763,0.69913
648.946,69.92,-0.1449,-3.22763,0.69854
649.646,69.99032,-0.14386,-3.22631,0.69796
650.346,70.0605,-0.14868,-3.22763,0.69738
651.046,70.1309,-0.14839,-3.22631,0.6968
651.746,70.20125,-0.14701,-3.22738,0.69622
652.446,70.27169,-0.15136,-3.22761,0.69563
653.146,70.34193,-0.15121,-3.22696,0.69505
653.846,70.41194,-0.14947,-3.22829,0.69447
654.546,70.48226,-0.14944,-3.22828,0.69389
655.246,70.55226,-0.15491,-3.22985,0.69331
655.946,70.62265,-0.15565,-3.22968,0.69272
656.646,70.69259,-0.15604,-3.22937,0.69214
657.346,70.76307,-0.1575,-3.22937,0.69156
658.046,70.83336,-0.15589,-3.22939,0.69097
658.746,70.9037,-0.15721,-3.23069,0.69039
659.446,70.97426,-0.15866,-3.23081,0.68981
660.146,71.04519,-0.16153,-3.23136,0.68923
660.846,71.11604,-0.15926,-3.23136,0.68864
661.546,71.18661,-0.16095,-3.23143,0.68806
662.246,71.25707,-0.15982,-3.2307,0.68748
662.946,71.32767,-0.15946,-3.2307,0.68689
663.646,71.39829,-0.16192,-3.23138,0.68631
664.346,71.46888,-0.16128,-3.23136,0.68573
665.046,71.53941,-0.16038,-3.23136,0.68514
665.746,71.60982,-0.16289,-3.232,0.68456
666.446,71.68024,-0.16211,-3.23431,0.68397
667.146,71.75075,-0.15871,-3.23432,0.68339
667.846,71.82134,-0.15939,-3.23497,0.68281
668.546,71.89156,-0.16316,-3.23359,0.68222
669.246,71.962,-0.16242,-3.23366,0.68164
669.946,72.0322,-0.16474,-3.23366,0.68105
670.646,72.1029,-0.16248,-3.23432,0.68047
671.346,72.1733,-0.16232,-3.23432,0.67989
672.046,72.24386,-0.16326,-3.23562,0.6793
672.746,72.31432,-0.16471,-3.2343,0.67872
673.446,72.38485,-0.16489,-3.23563,0.67813
674.146,72.45561,-0.1626,-3.23563,0.67755
674.846,72.52628,-0.16823,-3.23695,0.67696
675.546,72.59706,-0.16562,-3.23695,0.67638
676.246,72.6678,-0.16318,-3.23687,0.67579
676.946,72.7386,-0.16353,-3.23964,0.67521
677.646,72.8092,-0.16935,-3.23852,0.67462
678.346,72.87975,-0.16397,-3.23958,0.67404
679.046,72.95036,-0.16261,-3.23892,0.67345
679.746,73.0212,-0.15985,-3.23892,0.67287
680.446,73.09192,-0.16377,-3.23756,0.67228
681.146,73.16274,-0.16649,-3.23892,0.6717
681.846,73.23291,-0.1667,-3.23892,0.67111
682.546,73.30337,-0.16658,-3.23892,0.67053
683.246,73.3739,-0.1668,-3.239,0.66994
683.946,73.44455,-0.16889,-3.23894,0.66936
684.646,73.51473,-0.16722,-3.24024,0.66877
685.346,73.5849,-0.1644,-3.24153,0.66819
686.046,73.65544,-0.1679,-3.24155,0.6676
686.746,73.72609,-0.17043,-3.24155,0.66701
687.446,73.79683,-0.16587,-3.2405,0.66643
688.146,73.86742,-0.16701,-3.24024,0.66584
688.846,73.93804,-0.16691,-3.23923,0.66526
689.546,74.0086,-0.17071,-3.23925,0.66467
690.246,74.0792,-0.167,-3.23995,0.66409
690.946,74.14978,-0.17179,-3.24122,0.6635
691.646,74.22038,-0.17008,-3.24123,0.66291
692.346,74.29091,-0.16612,-3.24156,0.66233
693.046,74.3614,-0.16938,-3.24254,0.66174
693.746,74.43173,-0.16967,-3.24254,0.66116
694.446,74.50216,-0.17081,-3.24387,0.66057
695.146,74.57218,-0.16478,-3.24386,0.65998
695.846,74.64301,-0.16918,-3.24341,0.6594
696.546,74.71395,-0.16944,-3.2432,0.65881
697.246,74.78527,-0.16877,-3.24452,0.65822
697.946,74.85591,-0.17149,-3.24455,0.65764
698.646,74.92653,-0.16903,-3.24504,0.65705
699.346,74.99758,-0.17267,-3.2445,0.65646
700.046,75.0684,-0.16897,-3.24452,0.65588
700.746,75.13945,-0.16866,-3.2432,0.65529
701.446,75.2102,-0.16565,-3.2432,0.6547
702.146,75.28125,-0.17115,-3.24395,0.65412
702.846,75.3522,-0.16945,-3.24451,0.65353
703.546,75.42299,-0.17105,-3.24569,0.65294
704.246,75.494,-0.16816,-3.24447,0.65236
704.946,75.56464,-0.16759,-3.24451,0.65177
705.646,75.6357,-0.16824,-3.2455,0.65118
706.346,75.70654,-0.16964,-3.2455,0.6506
707.046,75.77778,-0.1691,-3.24558,0.65001
707.746,75.84872,-0.16995,-3.24421,0.64942
708.446,75.9194,-0.17607,-3.2455,0.64884
709.146,75.9901,-0.17198,-3.24683,0.64825
709.846,76.0609,-0.17151,-3.24682,0.64766
710.546,76.13209,-0.17193,-3.24682,0.64708
711.246,76.2034,-0.17502,-3.24585,0.64649
711.946,76.2748,-0.17389,-3.2472,0.6459
712.646,76.3459,-0.17397,-3.24679,0.64531
713.346,76.41682,-0.17322,-3.24685,0.64473
714.046,76.48736,-0.17247,-3.24814,0.64414
714.746,76.55827,-0.17501,-3.24812,0.64355
715.446,76.62926,-0.17106,-3.24813,0.64297
716.146,76.7007,-0.17346,-3.24813,0.64238
716.846,76.7718,-0.17047,-3.24846,0.64179
717.546,76.84286,-0.17115,-3.24932,0.6412
718.246,76.91386,-0.17224,-3.25052,0.64062
718.946,76.9849,-0.17715,-3.24912,0.64003
719.646,77.05587,-0.17304,-3.24912,0.63944
720.346,77.12675,-0.17703,-3.24905,0.63886
721.046,77.1977,-0.17478,-3.24978,0.63827
721.746,77.26868,-0.17303,-3.24978,0.63768
722.446,77.33955,-0.17518,-3.2498,0.63709
723.146,77.4104,-0.17887,-3.24913,0.63651
723.846,77.48133,-0.17654,-3.24916,0.63592
724.546,77.55227,-0.17527,-3.25044,0.63533
725.246,77.62302,-0.17835,-3.25044,0.63474
725.946,77.69382,-0.17912,-3.25044,0.63416
726.646,77.76477,-0.1793,-3.25143,0.63357
727.346,77.83578,-0.1816,-3.2514,0.63298
728.046,77.9066,-0.18253,-3.25307,0.6324
728.746,77.97742,-0.18254,-3.25307,0.63181
729.446,78.04817,-0.1856,-3.25307,0.63122
730.146,78.11904,-0.18579,-3.25241,0.63063
730.846,78.18992,-0.18574,-3.25241,0.63005
731.546,78.2608,-0.18208,-3.25241,0.62946
732.246,78.33168,-0.18632,-3.25307,0.62887
732.946,78.40255,-0.18786,-3.25307,0.62828
733.646,78.47341,-0.19093,-3.25441,0.6277
734.346,78.54429,-0.19032,-3.2557,0.62711
735.046,78.6148,-0.1873,-3.25565,0.62652
735.746,78.68584,-0.18857,-3.25702,0.62593
736.446,78.7569,-0.19233,-3.2557,0.62535
737.146,78.8282,-0.19328,-3.25705,0.62476
737.846,78.8991,-0.19565,-3.25669,0.62417
738.546,78.97,-0.19771,-3.25537,0.62358
739.246,79.04098,-0.19458,-3.25669,0.623
739.946,79.11216,-0.19518,-3.25827,0.62241
740.646,79.18332,-0.19839,-3.25537,0.62182
741.346,79.25448,-0.19746,-3.25406,0.62124
742.046,79.32539,-0.19854,-3.25409,0.62065
742.746,79.39646,-0.20031,-3.25871,0.62006
743.446,79.46738,-0.19824,-3.25551,0.61947
744.146,79.53846,-0.20314,-3.25559,0.61889
744.846,79.6096,-0.20313,-3.25559,0.6183
745.546,79.6808,-0.19773,-3.25763,0.61771
746.246,79.75185,-0.19995,-3.25822,0.61712
746.946,79.82267,-0.20129,-3.25692,0.61654
747.646,79.89369,-0.20026,-3.25823,0.61595
748.346,79.9645,-0.20032,-3.25691,0.61536
749.046,80.03536,-0.20238,-3.25803,0.61478
749.746,80.1062,-0.20026,-3.25691,0.61419
750.446,80.17715,-0.19966,-3.25823,0.6136
751.146,80.24815,-0.1968,-3.25738,0.61302
751.846,80.3193,-0.19725,-3.25822,0.61243
752.546,80.39031,-0.19838,-3.25891,0.61184
753.246,80.46099,-0.20285,-3.25954,0.61125
753.946,80.5316,-0.20238,-3.25954,0.61067
754.646,80.6022,-0.19738,-3.25954,0.61008
755.346,80.673,-0.19949,-3.25954,0.60949
756.046,80.74383,-0.19757,-3.26083,0.60891
756.746,80.81479,-0.19945,-3.26215,0.60832
757.446,80.88597,-0.20328,-3.26217,0.60773
758.146,80.9567,-0.20203,-3.26217,0.60715
758.846,81.0275,-0.20389,-3.26312,0.60656
759.546,81.09832,-0.20425,-3.26184,0.60597
760.246,81.16943,-0.20399,-3.26183,0.60539
760.946,81.24034,-0.20194,-3.26217,0.6048
761.646,81.31116,-0.20431,-3.26316,0.60421
762.346,81.3819,-0.20379,-3.26315,0.60363
763.046,81.45267,-0.20685,-3.26185,0.60304
763.746,81.52343,-0.20424,-3.26195,0.60245
764.446,81.59433,-0.21018,-3.26218,0.60187
765.146,81.66544,-0.21167,-3.26218,0.60128
765.846,81.7362,-0.21112,-3.26218,0.60069
766.546,81.8072,-0.21364,-3.26277,0.60011
767.246,81.87818,-0.21006,-3.26345,0.59952
767.946,81.94945,-0.21092,-3.26349,0.59893
768.646,82.02049,-0.21221,-3.2605,0.59835
769.346,82.0915,-0.21492,-3.26137,0.59776
770.046,82.16253,-0.21293,-3.26503,0.59718
770.746,82.23349,-0.21405,-3.26503,0.59659
771.446,82.30445,-0.21591,-3.26504,0.596
772.146,82.37552,-0.21752,-3.26371,0.59542
772.846,82.44589,-0.2139,-3.26371,0.59483
773.546,82.51671,-0.2174,-3.26384,0.59425
774.246,82.58754,-0.216,-3.26502,0.59366
774.946,82.65857,-0.21521,-3.26601,0.59307
775.646,82.72963,-0.21649,-3.26601,0.59249
776.346,82.8006,-0.2158,-3.26469,0.5919
777.046,82.87185,-0.21731,-3.26184,0.59132
777.746,82.94305,-0.21683,-3.26424,0.59073
778.446,83.0142,-0.21478,-3.26751,0.59015
779.146,83.0854,-0.21737,-3.26754,0.58956
779.846,83.15649,-0.21384,-3.26751,0.58898
780.546,83.22762,-0.21832,-3.26623,0.58839
781.246,83.29909,-0.21869,-3.26621,0.5878
781.946,83.37006,-0.21966,-3.26754,0.58722
782.646,83.44135,-0.2209,-3.26623,0.58663
783.346,83.5124,-0.21885,-3.26719,0.58605
784.046,83.58377,-0.22118,-3.26755,0.58546
784.746,83.6549,-0.21969,-3.26887,0.58488
785.446,83.7261,-0.21615,-3.26887,0.58429
786.146,83.7971,-0.22009,-3.26887,0.58371
786.846,83.8682,-0.22259,-3.2697,0.58312
787.546,83.93892,-0.2202,-3.26886,0.58254
788.246,84.00972,-0.21899,-3.26886,0.58195
788.946,84.08073,-0.21734,-3.26919,0.58137
789.646,84.1521,-0.22131,-3.26985,0.58079
790.346,84.2235,-0.22535,-3.26985,0.5802
791.046,84.29459,-0.22342,-3.26994,0.57962
791.746,84.36583,-0.22501,-3.26886,0.57903
792.446,84.43697,-0.22301,-3.26755,0.57845
793.146,84.5082,-0.22475,-3.26722,0.57786
793.846,84.57901,-0.22496,-3.26853,0.57728
794.546,84.6499,-0.2273,-3.26853,0.5767
795.246,84.7209,-0.22435,-3.26984,0.57611
795.946,84.79211,-0.22099,-3.27117,0.57553
796.646,84.8632,-0.22359,-3.27245,0.57494
797.346,84.93403,-0.22467,-3.27248,0.57436
797.946,84.99586,-0.22381,-3.27248,0.57386