File: 01_Data/Pressure_Treated_Deck/MCC/Pressure_Treated_Deck_30K_min_210608_R2.txt
Sample ID:	C:\MCC\MCC Cal\Test\Pressure_Treated_Deck\Pressure_Treated_Deck_30_2.txt
Sample Weight (mg):	4.01
Heating Rate (C/s):	0.5
Combustor Temp (C):	900
N2 Flow Rate (cc/min):	80
O2 Flow Rate (cc/min):	20
Calibration File:	C:\MCC\MCC Cal\Coeff1 JN10440_30_210304.txt.txt
T Correction Coefficients:	0	1.024463	0
Time Shift (s):	14
*
Time (s)	Temperature (C)	N2 flow rate (cc/min)	O2 flow rate (cc/min)	Flow Rate (cc/min)	Oxygen (%)	HRR (W/g)	Heating rate (C/s)
0.000	111.745	79.986	19.992	99.911	20.010	0.448	-0.004
2.000	111.679	79.987	19.993	99.921	20.008	0.601	-0.023
4.000	111.676	79.986	19.991	99.915	20.009	0.511	-0.009
6.000	111.650	79.987	19.993	99.909	20.002	1.077	-0.072
8.000	111.646	79.988	19.992	99.904	20.003	1.031	-0.006
10.000	111.672	79.989	19.991	99.905	20.005	0.849	0.016
12.000	111.615	79.987	19.991	99.914	20.006	0.753	-0.007
14.001	111.591	79.987	19.992	99.922	20.004	0.914	-0.009
16.000	111.561	79.988	19.991	99.921	20.001	1.155	-0.002
18.000	111.585	79.988	19.991	99.953	20.003	0.983	0.029
20.000	111.596	79.986	19.992	99.975	20.001	1.170	0.032
22.000	111.575	79.987	19.991	99.986	19.999	1.346	-0.007
24.000	111.614	79.985	19.992	99.985	19.993	1.783	0.017
26.000	111.696	79.985	19.992	99.990	19.995	1.632	0.015
28.000	111.726	79.985	19.991	99.992	19.997	1.492	0.020
30.000	111.876	79.985	19.992	100.008	19.992	1.844	0.072
32.000	112.004	79.985	19.992	100.023	19.992	1.819	0.069
34.000	112.112	79.984	19.992	100.038	19.989	2.107	0.079
36.000	112.230	79.986	19.992	100.055	19.985	2.388	0.035
38.000	112.438	79.987	19.991	100.062	19.987	2.235	0.086
40.000	112.662	79.985	19.991	100.072	19.983	2.579	0.100
42.000	112.857	79.987	19.991	100.069	19.978	2.947	0.090
44.000	113.116	79.986	19.992	100.090	19.978	2.978	0.131
46.000	113.400	79.987	19.992	100.096	19.976	3.085	0.121
48.000	113.689	79.988	19.992	100.087	19.971	3.471	0.169
50.000	113.994	79.986	19.991	100.100	19.976	3.075	0.162
52.000	114.395	79.987	19.993	100.101	19.974	3.255	0.213
54.000	114.713	79.986	19.993	100.102	19.972	3.422	0.154
56.000	115.096	79.986	19.992	100.094	19.970	3.575	0.197
58.001	115.529	79.984	19.993	100.099	19.973	3.351	0.225
60.000	115.941	79.986	19.992	100.108	19.968	3.733	0.204
62.000	116.361	79.987	19.992	100.098	19.971	3.458	0.202
64.001	116.840	79.986	19.992	100.122	19.970	3.605	0.238
66.001	117.330	79.987	19.992	100.132	19.964	4.020	0.227
68.001	117.843	79.987	19.991	100.130	19.963	4.138	0.259
70.000	118.354	79.987	19.991	100.134	19.966	3.899	0.281
72.000	118.853	79.989	19.993	100.136	19.960	4.363	0.254
74.001	119.436	79.988	19.993	100.136	19.958	4.518	0.286
76.001	120.019	79.987	19.992	100.135	19.961	4.304	0.285
78.000	120.606	79.985	19.992	100.137	19.959	4.430	0.294
80.000	121.175	79.986	19.993	100.138	19.956	4.674	0.283
82.000	121.789	79.987	19.993	100.139	19.958	4.534	0.314
84.000	122.424	79.986	19.993	100.140	19.956	4.687	0.306
86.000	123.071	79.987	19.994	100.140	19.958	4.486	0.308
88.000	123.748	79.986	19.992	100.143	19.956	4.662	0.330
90.000	124.449	79.987	19.993	100.147	19.952	4.952	0.356
92.000	125.104	79.986	19.991	100.156	19.957	4.616	0.360
94.000	125.786	79.987	19.992	100.151	19.949	5.222	0.368
96.001	126.563	79.987	19.990	100.166	19.951	5.021	0.375
98.000	127.273	79.987	19.991	100.167	19.953	4.908	0.362
100.000	128.044	79.988	19.991	100.162	19.955	4.736	0.367
102.000	128.755	79.987	19.991	100.166	19.948	5.248	0.358
104.000	129.563	79.985	19.990	100.160	19.953	4.908	0.383
106.001	130.349	79.986	19.992	100.157	19.953	4.870	0.404
108.000	131.118	79.985	19.993	100.164	19.951	5.040	0.424
110.000	131.908	79.985	19.991	100.166	19.950	5.139	0.386
112.000	132.751	79.986	19.992	100.169	19.947	5.330	0.427
114.001	133.579	79.986	19.993	100.165	19.946	5.408	0.439
116.000	134.384	79.985	19.992	100.163	19.949	5.238	0.395
118.000	135.267	79.985	19.992	100.161	19.948	5.301	0.429
120.001	136.146	79.986	19.992	100.167	19.946	5.479	0.453
122.001	136.975	79.986	19.992	100.175	19.949	5.183	0.410
124.001	137.853	79.984	19.991	100.169	19.946	5.433	0.425
126.000	138.668	79.986	19.992	100.172	19.943	5.645	0.410
128.000	139.582	79.986	19.991	100.174	19.943	5.710	0.419
130.000	140.490	79.985	19.992	100.172	19.943	5.658	0.430
132.000	141.391	79.986	19.991	100.167	19.942	5.727	0.443
134.000	142.309	79.986	19.992	100.173	19.943	5.690	0.481
136.000	143.210	79.987	19.992	100.171	19.941	5.845	0.418
138.000	144.201	79.985	19.993	100.166	19.944	5.614	0.491
140.000	145.090	79.985	19.991	100.166	19.942	5.733	0.447
142.000	146.024	79.985	19.992	100.175	19.941	5.803	0.463
144.000	146.961	79.984	19.993	100.170	19.942	5.786	0.470
146.000	147.907	79.988	19.992	100.176	19.944	5.633	0.508
148.000	148.868	79.986	19.993	100.171	19.945	5.534	0.511
150.000	149.811	79.986	19.994	100.169	19.944	5.580	0.458
152.000	150.814	79.987	19.992	100.168	19.943	5.664	0.487
154.000	151.752	79.987	19.992	100.171	19.941	5.850	0.479
156.000	152.742	79.985	19.992	100.174	19.941	5.796	0.504
158.000	153.689	79.986	19.993	100.166	19.938	6.075	0.474
160.000	154.646	79.986	19.993	100.165	19.936	6.216	0.498
162.000	155.634	79.986	19.991	100.169	19.938	6.100	0.498
164.000	156.612	79.986	19.992	100.164	19.945	5.539	0.491
166.000	157.588	79.986	19.993	100.156	19.942	5.775	0.503
168.000	158.568	79.986	19.992	100.155	19.938	6.062	0.494
170.000	159.521	79.986	19.993	100.157	19.941	5.812	0.459
172.000	160.536	79.987	19.993	100.160	19.939	6.013	0.500
174.000	161.528	79.988	19.992	100.148	19.939	6.007	0.502
176.000	162.531	79.988	19.992	100.145	19.938	6.081	0.513
178.000	163.547	79.986	19.992	100.159	19.936	6.233	0.503
180.000	164.574	79.988	19.992	100.155	19.938	6.057	0.522
182.000	165.559	79.987	19.990	100.142	19.937	6.121	0.500
184.000	166.572	79.989	19.992	100.138	19.939	5.960	0.485
186.000	167.546	79.986	19.992	100.146	19.939	6.017	0.492
188.000	168.541	79.986	19.992	100.138	19.936	6.192	0.512
190.000	169.561	79.985	19.993	100.139	19.938	6.049	0.513
192.000	170.565	79.986	19.991	100.147	19.936	6.204	0.495
194.000	171.524	79.985	19.992	100.144	19.942	5.757	0.510
196.000	172.554	79.984	19.991	100.136	19.934	6.402	0.502
198.000	173.544	79.987	19.992	100.149	19.938	6.042	0.496
200.000	174.565	79.987	19.991	100.143	19.937	6.162	0.512
202.001	175.569	79.985	19.991	100.139	19.937	6.162	0.518
204.000	176.546	79.985	19.992	100.141	19.933	6.420	0.503
206.000	177.548	79.984	19.991	100.139	19.935	6.282	0.468
208.000	178.559	79.985	19.993	100.142	19.933	6.431	0.514
210.000	179.585	79.986	19.992	100.140	19.936	6.242	0.544
212.000	180.553	79.986	19.992	100.139	19.940	5.925	0.488
214.000	181.580	79.987	19.992	100.140	19.935	6.328	0.468
216.000	182.553	79.985	19.991	100.140	19.936	6.257	0.511
218.000	183.531	79.986	19.992	100.139	19.935	6.273	0.508
220.000	184.522	79.985	19.991	100.140	19.941	5.868	0.496
222.000	185.554	79.986	19.992	100.140	19.935	6.261	0.499
224.000	186.606	79.985	19.992	100.141	19.937	6.170	0.516
226.000	187.600	79.986	19.991	100.141	19.937	6.114	0.499
228.000	188.557	79.986	19.992	100.141	19.937	6.126	0.482
230.000	189.608	79.985	19.992	100.141	19.933	6.485	0.522
232.000	190.583	79.987	19.993	100.142	19.937	6.143	0.492
234.000	191.572	79.987	19.993	100.135	19.938	6.036	0.478
236.000	192.577	79.987	19.993	100.136	19.940	5.912	0.521
238.000	193.567	79.987	19.992	100.136	19.936	6.183	0.522
240.000	194.542	79.987	19.993	100.131	19.936	6.223	0.465
242.000	195.563	79.987	19.993	100.133	19.935	6.336	0.499
244.000	196.511	79.986	19.992	100.136	19.933	6.432	0.456
246.000	197.492	79.987	19.991	100.130	19.933	6.468	0.505
248.000	198.535	79.987	19.992	100.130	19.932	6.497	0.539
250.000	199.533	79.987	19.991	100.134	19.933	6.422	0.508
252.000	200.513	79.987	19.992	100.136	19.938	6.042	0.517
254.000	201.462	79.987	19.992	100.133	19.932	6.544	0.458
256.000	202.436	79.988	19.992	100.133	19.931	6.589	0.484
258.000	203.453	79.989	19.992	100.127	19.935	6.300	0.505
260.000	204.416	79.986	19.992	100.133	19.932	6.556	0.460
262.000	205.417	79.987	19.993	100.131	19.932	6.493	0.512
264.001	206.385	79.985	19.993	100.135	19.929	6.731	0.473
266.000	207.425	79.986	19.993	100.130	19.935	6.315	0.481
268.000	208.417	79.985	19.992	100.126	19.927	6.891	0.511
270.000	209.391	79.985	19.992	100.132	19.931	6.617	0.493
272.000	210.353	79.985	19.992	100.133	19.923	7.206	0.459
274.000	211.351	79.986	19.991	100.137	19.920	7.432	0.498
276.000	212.297	79.985	19.992	100.138	19.923	7.237	0.476
278.000	213.334	79.986	19.991	100.131	19.921	7.350	0.481
280.000	214.315	79.986	19.993	100.137	19.925	7.042	0.471
282.000	215.290	79.987	19.992	100.139	19.923	7.227	0.476
284.000	216.299	79.988	19.993	100.141	19.922	7.310	0.510
286.000	217.260	79.987	19.992	100.141	19.923	7.209	0.485
288.000	218.245	79.986	19.991	100.139	19.918	7.652	0.494
290.000	219.273	79.984	19.990	100.139	19.918	7.651	0.501
292.000	220.244	79.986	19.991	100.142	19.915	7.852	0.504
294.000	221.217	79.984	19.991	100.142	19.914	7.913	0.497
296.000	222.250	79.983	19.990	100.133	19.911	8.186	0.518
298.000	223.196	79.985	19.992	100.136	19.909	8.331	0.470
300.000	224.220	79.985	19.991	100.136	19.913	8.030	0.536
302.000	225.188	79.985	19.992	100.138	19.903	8.769	0.471
304.000	226.160	79.986	19.992	100.140	19.907	8.450	0.491
306.000	227.138	79.985	19.991	100.138	19.904	8.687	0.472
308.000	228.184	79.987	19.991	100.138	19.907	8.505	0.544
310.000	229.181	79.987	19.991	100.138	19.895	9.389	0.480
312.000	230.198	79.986	19.990	100.137	19.899	9.086	0.503
314.000	231.178	79.988	19.991	100.136	19.905	8.645	0.494
316.000	232.187	79.989	19.991	100.134	19.896	9.303	0.514
318.000	233.170	79.987	19.991	100.138	19.895	9.439	0.488
320.000	234.196	79.986	19.991	100.127	19.887	10.012	0.491
322.000	235.186	79.988	19.992	100.065	19.889	9.874	0.499
324.000	236.134	79.986	19.992	100.192	19.889	9.920	0.494
326.000	237.153	79.986	19.992	100.139	19.881	10.499	0.506
328.000	238.166	79.987	19.994	100.143	19.884	10.243	0.465
330.000	239.181	79.987	19.992	100.133	19.882	10.440	0.492
332.001	240.192	79.987	19.993	100.137	19.881	10.541	0.523
334.000	241.171	79.988	19.991	100.136	19.878	10.762	0.496
336.000	242.145	79.989	19.992	100.135	19.871	11.270	0.491
338.000	243.210	79.988	19.991	100.136	19.866	11.679	0.498
340.000	244.156	79.988	19.992	100.137	19.868	11.480	0.501
342.000	245.196	79.988	19.992	100.134	19.865	11.731	0.525
344.000	246.190	79.988	19.991	100.126	19.863	11.910	0.499
346.000	247.179	79.987	19.992	100.128	19.864	11.815	0.494
348.000	248.161	79.984	19.992	100.135	19.861	12.066	0.506
350.000	249.211	79.984	19.990	100.137	19.863	11.937	0.513
352.000	250.218	79.985	19.992	100.136	19.856	12.441	0.536
354.000	251.201	79.984	19.993	100.134	19.850	12.938	0.484
356.000	252.183	79.986	19.993	100.134	19.850	12.951	0.501
358.000	253.227	79.984	19.992	100.131	19.848	13.046	0.562
360.000	254.196	79.984	19.994	100.136	19.850	12.909	0.535
362.000	255.187	79.986	19.993	100.137	19.845	13.312	0.523
364.000	256.179	79.986	19.991	100.132	19.844	13.388	0.511
366.000	257.173	79.986	19.993	100.135	19.838	13.829	0.469
368.000	258.152	79.985	19.991	100.136	19.834	14.175	0.490
370.000	259.230	79.985	19.991	100.134	19.828	14.631	0.535
372.000	260.174	79.986	19.991	100.135	19.827	14.733	0.483
374.000	261.190	79.985	19.990	100.136	19.828	14.659	0.480
376.000	262.194	79.983	19.992	100.136	19.818	15.452	0.508
378.000	263.180	79.987	19.992	100.137	19.821	15.184	0.448
380.000	264.173	79.985	19.991	100.135	19.812	15.867	0.495
382.000	265.207	79.986	19.990	100.142	19.811	15.937	0.499
384.000	266.148	79.985	19.992	100.146	19.803	16.558	0.466
386.000	267.146	79.986	19.992	100.137	19.802	16.638	0.460
388.000	268.135	79.987	19.993	100.139	19.796	17.159	0.479
390.000	269.155	79.987	19.992	100.138	19.785	17.978	0.506
392.000	270.176	79.987	19.992	100.135	19.785	17.972	0.511
394.000	271.121	79.989	19.992	100.136	19.784	18.026	0.481
396.000	272.187	79.989	19.992	100.160	19.780	18.406	0.518
398.000	273.197	79.988	19.991	100.152	19.772	18.970	0.489
400.000	274.194	79.985	19.990	100.157	19.765	19.568	0.517
402.000	275.189	79.986	19.991	100.158	19.762	19.767	0.483
404.000	276.173	79.988	19.990	100.145	19.754	20.395	0.539
406.000	277.174	79.988	19.991	100.157	19.747	20.928	0.525
408.000	278.205	79.988	19.993	100.158	19.740	21.509	0.514
410.000	279.146	79.987	19.992	100.174	19.736	21.828	0.495
412.000	280.163	79.987	19.992	100.167	19.731	22.213	0.487
414.000	281.151	79.987	19.992	100.164	19.726	22.591	0.487
416.000	282.155	79.986	19.991	100.174	19.716	23.395	0.523
418.000	283.137	79.988	19.991	100.175	19.713	23.594	0.473
420.000	284.104	79.986	19.992	100.178	19.707	24.065	0.500
422.000	285.122	79.989	19.991	100.178	19.699	24.705	0.512
424.000	286.115	79.988	19.992	100.177	19.696	24.949	0.510
426.000	287.129	79.988	19.991	100.178	19.683	25.923	0.481
428.000	288.134	79.989	19.992	100.177	19.679	26.216	0.484
430.000	289.138	79.986	19.991	100.175	19.671	26.881	0.485
432.000	290.201	79.983	19.991	100.175	19.665	27.355	0.529
434.000	291.223	79.986	19.991	100.175	19.666	27.270	0.516
436.000	292.230	79.986	19.992	100.175	19.657	28.003	0.515
438.000	293.197	79.987	19.992	100.176	19.649	28.611	0.496
440.000	294.226	79.986	19.992	100.177	19.642	29.146	0.489
442.000	295.190	79.985	19.992	100.184	19.635	29.715	0.503
444.000	296.234	79.986	19.994	100.183	19.626	30.389	0.508
446.000	297.259	79.985	19.993	100.178	19.618	31.010	0.540
448.000	298.265	79.986	19.993	100.185	19.615	31.241	0.520
450.000	299.285	79.985	19.992	100.177	19.608	31.778	0.500
452.000	300.301	79.986	19.993	100.184	19.603	32.212	0.523
454.000	301.311	79.987	19.991	100.192	19.593	32.979	0.540
456.000	302.297	79.986	19.991	100.206	19.591	33.130	0.479
458.000	303.317	79.987	19.993	100.206	19.580	33.951	0.479
460.000	304.305	79.985	19.991	100.208	19.573	34.536	0.494
462.000	305.348	79.985	19.991	100.205	19.569	34.855	0.530
464.000	306.330	79.986	19.991	100.214	19.560	35.565	0.496
466.001	307.355	79.985	19.991	100.212	19.556	35.822	0.484
468.000	308.344	79.987	19.992	100.206	19.549	36.381	0.515
470.000	309.327	79.986	19.992	100.214	19.535	37.507	0.462
472.000	310.367	79.987	19.991	100.216	19.533	37.680	0.524
474.000	311.327	79.985	19.991	100.214	19.524	38.336	0.503
476.000	312.414	79.988	19.991	100.215	19.516	38.950	0.515
478.000	313.474	79.988	19.991	100.216	19.508	39.581	0.539
480.000	314.446	79.987	19.991	100.218	19.503	40.017	0.499
482.000	315.423	79.988	19.991	100.217	19.497	40.469	0.471
484.000	316.404	79.988	19.991	100.220	19.490	41.016	0.507
486.000	317.453	79.989	19.992	100.219	19.481	41.732	0.502
488.000	318.473	79.984	19.991	100.227	19.474	42.284	0.522
490.000	319.422	79.988	19.991	100.225	19.467	42.837	0.500
492.000	320.439	79.989	19.991	100.218	19.458	43.543	0.535
494.000	321.446	79.988	19.991	100.222	19.452	43.995	0.506
496.000	322.477	79.988	19.992	100.232	19.447	44.352	0.487
498.000	323.490	79.990	19.992	100.231	19.439	44.970	0.551
500.000	324.507	79.989	19.992	100.228	19.429	45.803	0.501
502.000	325.477	79.988	19.992	100.241	19.423	46.273	0.505
504.000	326.523	79.989	19.992	100.234	19.418	46.651	0.507
506.000	327.524	79.989	19.993	100.237	19.403	47.818	0.511
508.000	328.494	79.989	19.992	100.245	19.393	48.560	0.511
510.000	329.524	79.986	19.992	100.237	19.390	48.854	0.519
512.001	330.539	79.986	19.992	100.246	19.378	49.766	0.594
514.000	331.493	79.987	19.993	100.252	19.372	50.234	0.547
516.000	332.443	79.988	19.993	100.251	19.363	50.938	0.483
518.000	333.476	79.986	19.993	100.247	19.357	51.397	0.527
520.000	334.278	79.986	19.992	100.252	19.350	51.964	0.274
522.000	335.541	79.987	19.992	100.254	19.345	52.297	0.371
524.000	336.294	79.985	19.992	100.254	19.334	53.195	0.432
526.000	337.580	79.986	19.993	100.256	19.324	53.952	0.474
528.000	338.536	79.986	19.993	100.255	19.318	54.439	0.538
530.000	339.504	79.987	19.992	100.260	19.307	55.269	0.524
532.000	340.508	79.986	19.991	100.259	19.297	56.063	0.500
534.000	341.537	79.985	19.992	100.257	19.295	56.252	0.548
536.000	342.552	79.986	19.992	100.265	19.283	57.175	0.482
538.000	343.575	79.985	19.992	100.259	19.274	57.875	0.552
540.000	344.526	79.986	19.993	100.261	19.272	58.025	0.506
542.000	345.540	79.986	19.994	100.276	19.260	59.010	0.496
544.000	346.524	79.986	19.992	100.277	19.247	60.034	0.476
546.000	347.522	79.987	19.991	100.272	19.243	60.319	0.482
548.000	348.521	79.987	19.992	100.278	19.239	60.635	0.529
550.000	349.536	79.987	19.992	100.295	19.228	61.450	0.489
552.000	350.526	79.986	19.992	100.296	19.222	61.967	0.484
554.000	351.539	79.988	19.991	100.296	19.214	62.600	0.511
556.000	352.583	79.988	19.992	100.293	19.209	62.965	0.538
558.000	353.525	79.989	19.993	100.292	19.204	63.319	0.533
560.000	354.562	79.987	19.991	100.284	19.197	63.854	0.489
562.000	355.525	79.988	19.992	100.285	19.189	64.470	0.490
564.000	356.526	79.988	19.992	100.286	19.190	64.415	0.488
566.000	357.519	79.986	19.992	100.285	19.187	64.658	0.497
568.000	358.500	79.987	19.991	100.281	19.182	65.034	0.486
570.000	359.485	79.987	19.992	100.267	19.187	64.651	0.480
572.000	360.499	79.987	19.991	100.272	19.191	64.350	0.455
574.000	361.501	79.988	19.992	100.258	19.196	63.949	0.499
576.000	362.457	79.989	19.991	100.253	19.204	63.328	0.479
578.000	363.491	79.989	19.993	100.250	19.203	63.366	0.526
580.000	364.450	79.990	19.991	100.251	19.217	62.257	0.491
582.000	365.473	79.989	19.990	100.226	19.225	61.603	0.497
584.000	366.466	79.988	19.990	100.213	19.240	60.458	0.525
586.000	367.459	79.988	19.991	100.210	19.260	58.864	0.515
588.000	368.498	79.989	19.991	100.201	19.274	57.782	0.514
590.000	369.465	79.989	19.992	100.182	19.298	55.951	0.484
592.000	370.439	79.987	19.992	100.176	19.320	54.230	0.491
594.001	371.468	79.985	19.993	100.176	19.348	51.984	0.488
596.000	372.484	79.985	19.993	100.152	19.373	50.097	0.520
598.000	373.519	79.986	19.992	100.142	19.403	47.739	0.502
600.000	374.524	79.985	19.992	100.125	19.430	45.603	0.524
602.000	375.511	79.986	19.992	100.110	19.464	42.961	0.494
604.000	376.529	79.986	19.993	100.103	19.495	40.534	0.509
606.000	377.500	79.987	19.992	100.095	19.526	38.118	0.462
608.000	378.541	79.986	19.991	100.085	19.558	35.613	0.504
610.000	379.564	79.986	19.992	100.080	19.586	33.490	0.494
612.000	380.590	79.985	19.991	100.071	19.614	31.288	0.494
614.000	381.592	79.985	19.992	100.068	19.642	29.107	0.489
616.000	382.632	79.986	19.992	100.064	19.667	27.151	0.514
618.000	383.647	79.986	19.992	100.061	19.687	25.613	0.521
620.000	384.674	79.985	19.991	100.060	19.708	23.991	0.506
622.000	385.675	79.985	19.993	100.058	19.724	22.690	0.527
624.000	386.672	79.985	19.994	100.057	19.741	21.369	0.501
626.000	387.698	79.984	19.993	100.059	19.757	20.126	0.500
628.000	388.713	79.986	19.994	100.059	19.773	18.938	0.503
630.000	389.723	79.985	19.993	100.058	19.779	18.416	0.512
632.000	390.714	79.987	19.992	100.058	19.788	17.772	0.519
634.000	391.716	79.986	19.993	100.051	19.794	17.235	0.502
636.000	392.711	79.988	19.993	100.057	19.802	16.667	0.487
638.000	393.766	79.987	19.991	100.056	19.804	16.503	0.488
640.000	394.802	79.988	19.991	100.053	19.805	16.406	0.516
642.000	395.822	79.986	19.990	100.056	19.809	16.096	0.511
644.000	396.821	79.988	19.991	100.057	19.815	15.613	0.510
646.000	397.825	79.988	19.991	100.055	19.823	14.980	0.500
648.000	398.822	79.988	19.991	100.057	19.823	14.984	0.484
650.000	399.836	79.987	19.992	100.053	19.825	14.874	0.493
652.000	400.864	79.986	19.992	100.050	19.828	14.612	0.509
654.000	401.850	79.988	19.992	100.052	19.829	14.566	0.510
656.000	402.863	79.989	19.993	100.053	19.830	14.496	0.482
658.000	403.869	79.988	19.993	100.059	19.831	14.372	0.480
660.000	404.935	79.989	19.991	100.052	19.829	14.506	0.499
662.000	405.934	79.987	19.992	100.053	19.837	13.899	0.520
664.000	406.910	79.990	19.990	100.048	19.834	14.130	0.489
666.000	407.940	79.990	19.991	100.057	19.832	14.289	0.517
668.000	408.916	79.990	19.992	100.059	19.837	13.912	0.485
670.000	409.948	79.990	19.991	100.059	19.842	13.502	0.524
672.000	410.937	79.987	19.991	100.057	19.842	13.543	0.502
674.000	411.952	79.987	19.992	100.049	19.840	13.715	0.503
676.000	412.983	79.986	19.991	100.061	19.842	13.508	0.502
678.000	413.960	79.987	19.992	100.057	19.845	13.295	0.488
680.000	414.957	79.986	19.991	100.059	19.849	13.005	0.507
682.000	416.027	79.987	19.992	100.058	19.850	12.943	0.534
684.000	417.028	79.985	19.992	100.057	19.852	12.727	0.511
686.000	418.078	79.986	19.992	100.056	19.850	12.913	0.510
688.000	419.036	79.986	19.993	100.054	19.852	12.753	0.507
690.000	420.094	79.988	19.993	100.045	19.854	12.595	0.529
692.000	421.119	79.986	19.992	100.052	19.853	12.664	0.514
694.000	422.158	79.988	19.993	100.054	19.856	12.460	0.488
696.000	423.149	79.987	19.992	100.056	19.857	12.387	0.515
698.000	424.177	79.986	19.992	100.048	19.859	12.223	0.520
700.000	425.196	79.986	19.993	100.046	19.855	12.519	0.517
702.000	426.198	79.986	19.992	100.047	19.856	12.441	0.495
704.000	427.219	79.987	19.993	100.054	19.856	12.405	0.504
706.000	428.234	79.986	19.993	100.044	19.859	12.195	0.488
708.000	429.255	79.985	19.993	100.043	19.857	12.391	0.490
710.000	430.273	79.986	19.992	100.053	19.861	12.067	0.525
712.000	431.275	79.986	19.993	100.052	19.864	11.847	0.512
714.000	432.281	79.985	19.994	100.045	19.862	11.988	0.505
716.000	433.330	79.986	19.993	100.047	19.865	11.739	0.533
718.000	434.374	79.986	19.993	100.041	19.869	11.416	0.531
720.000	435.372	79.987	19.993	100.034	19.867	11.597	0.524
722.000	436.346	79.987	19.993	100.035	19.872	11.235	0.488
724.000	437.381	79.987	19.993	100.023	19.871	11.281	0.474
726.000	438.425	79.988	19.992	100.046	19.869	11.393	0.513
728.000	439.405	79.989	19.992	100.048	19.871	11.311	0.487
730.000	440.430	79.988	19.992	100.044	19.875	10.938	0.507
732.001	441.455	79.988	19.991	100.044	19.872	11.181	0.492
734.000	442.452	79.987	19.992	100.040	19.874	11.055	0.513
736.000	443.461	79.987	19.993	100.036	19.874	11.058	0.496
738.000	444.470	79.986	19.990	100.036	19.877	10.781	0.498
740.000	445.445	79.986	19.991	100.039	19.879	10.648	0.469
742.000	446.471	79.987	19.991	100.039	19.880	10.535	0.511
744.000	447.494	79.988	19.991	100.032	19.881	10.475	0.532
746.000	448.467	79.990	19.992	100.036	19.881	10.508	0.500
748.000	449.506	79.988	19.992	100.034	19.882	10.449	0.497
750.000	450.493	79.988	19.991	100.040	19.880	10.557	0.509
752.000	451.531	79.988	19.992	100.031	19.884	10.267	0.539
754.000	452.517	79.988	19.992	100.032	19.884	10.257	0.500
756.000	453.535	79.987	19.992	100.024	19.884	10.263	0.504
758.000	454.584	79.987	19.992	100.027	19.883	10.305	0.528
760.000	455.579	79.988	19.993	100.039	19.884	10.297	0.513
762.000	456.568	79.987	19.993	100.031	19.883	10.307	0.507
764.000	457.615	79.986	19.992	100.038	19.882	10.441	0.536
766.000	458.659	79.986	19.991	100.025	19.884	10.241	0.527
768.000	459.656	79.987	19.992	100.023	19.883	10.356	0.494
770.000	460.642	79.986	19.993	100.027	19.879	10.639	0.518
772.000	461.607	79.987	19.992	100.023	19.886	10.098	0.492
774.000	462.658	79.987	19.994	100.031	19.885	10.168	0.509
776.000	463.653	79.987	19.992	100.043	19.885	10.165	0.507
778.000	464.661	79.986	19.992	100.032	19.887	10.044	0.494
780.000	465.708	79.986	19.992	100.030	19.886	10.117	0.524
782.000	466.701	79.986	19.992	100.026	19.891	9.746	0.527
784.000	467.749	79.986	19.993	100.036	19.889	9.889	0.522
786.000	468.725	79.986	19.992	100.036	19.892	9.655	0.489
788.000	469.712	79.986	19.992	100.028	19.894	9.466	0.492
790.000	470.808	79.987	19.992	100.035	19.896	9.339	0.549
792.000	471.809	79.986	19.992	100.033	19.893	9.592	0.494
794.000	472.872	79.986	19.992	100.040	19.894	9.494	0.511
796.000	473.932	79.987	19.992	100.029	19.894	9.478	0.541
798.000	474.961	79.986	19.992	100.026	19.896	9.347	0.518
800.000	475.983	79.987	19.993	100.024	19.898	9.169	0.512
802.000	477.037	79.988	19.993	100.031	19.900	9.006	0.519
804.000	478.056	79.986	19.993	100.026	19.903	8.809	0.520
806.000	479.094	79.987	19.994	100.038	19.898	9.143	0.507
808.000	480.109	79.987	19.993	100.033	19.899	9.126	0.520
810.000	481.129	79.986	19.992	100.023	19.902	8.854	0.511
812.000	482.184	79.988	19.992	100.029	19.900	9.047	0.541
814.000	483.215	79.988	19.992	100.029	19.902	8.829	0.527
816.000	484.237	79.989	19.992	100.027	19.899	9.129	0.512
818.000	485.266	79.988	19.991	100.021	19.901	8.929	0.493
820.000	486.268	79.989	19.994	100.018	19.901	8.954	0.500
822.000	487.300	79.989	19.992	100.023	19.898	9.149	0.532
824.000	488.373	79.989	19.992	100.022	19.906	8.541	0.545
826.000	489.374	79.989	19.992	100.026	19.904	8.740	0.516
828.000	490.413	79.990	19.992	100.028	19.900	8.995	0.484
830.000	491.408	79.990	19.992	100.018	19.900	9.052	0.472
832.000	492.419	79.988	19.991	100.018	19.901	8.932	0.510
834.000	493.476	79.989	19.992	100.020	19.904	8.714	0.515
836.000	494.547	79.988	19.991	100.018	19.902	8.869	0.527
838.000	495.553	79.988	19.993	100.019	19.902	8.821	0.501
840.000	496.574	79.987	19.992	100.034	19.904	8.718	0.492
842.000	497.583	79.987	19.992	100.030	19.903	8.813	0.503
844.000	498.623	79.988	19.992	100.035	19.905	8.635	0.542
846.000	499.606	79.988	19.992	100.023	19.901	8.941	0.543
848.000	500.623	79.986	19.991	100.029	19.907	8.454	0.509
850.000	501.677	79.989	19.992	100.032	19.906	8.533	0.492
852.000	502.699	79.987	19.991	100.033	19.905	8.638	0.518
854.000	503.681	79.988	19.992	100.032	19.907	8.483	0.481
856.000	504.715	79.988	19.992	100.037	19.904	8.670	0.514
858.000	505.737	79.989	19.992	100.032	19.906	8.523	0.509
860.000	506.758	79.987	19.991	100.025	19.906	8.512	0.487
862.000	507.787	79.986	19.992	100.030	19.902	8.862	0.495
864.000	508.808	79.986	19.992	100.023	19.905	8.639	0.546
866.000	509.790	79.985	19.992	100.026	19.904	8.694	0.505
868.000	510.828	79.985	19.993	100.031	19.904	8.670	0.508
870.000	511.801	79.985	19.992	100.024	19.905	8.590	0.507
872.000	512.796	79.986	19.991	100.025	19.905	8.619	0.480
874.000	513.824	79.987	19.992	100.029	19.903	8.785	0.510
876.000	514.845	79.989	19.992	100.035	19.903	8.768	0.484
878.000	515.883	79.988	19.992	100.039	19.907	8.453	0.531
880.000	516.872	79.988	19.992	100.026	19.904	8.698	0.500
882.000	517.892	79.988	19.992	100.031	19.907	8.478	0.533
884.000	518.929	79.989	19.993	100.020	19.904	8.733	0.515
886.000	519.962	79.988	19.992	100.029	19.905	8.591	0.537
888.000	520.974	79.988	19.993	100.023	19.906	8.525	0.501
890.000	521.983	79.987	19.993	100.018	19.907	8.443	0.513
892.000	522.997	79.986	19.992	100.022	19.908	8.431	0.507
894.000	524.038	79.987	19.993	100.024	19.907	8.453	0.510
896.000	525.072	79.987	19.993	100.040	19.908	8.388	0.544
898.000	526.096	79.987	19.992	100.028	19.908	8.430	0.521
900.000	527.096	79.987	19.992	100.029	19.911	8.135	0.518
902.000	528.149	79.989	19.993	100.025	19.906	8.546	0.503
904.000	529.190	79.990	19.992	100.028	19.907	8.491	0.499
906.000	530.223	79.989	19.991	100.017	19.908	8.413	0.528
908.000	531.253	79.988	19.992	100.017	19.909	8.318	0.520
910.000	532.228	79.989	19.991	100.025	19.909	8.290	0.484
912.000	533.294	79.989	19.992	100.026	19.908	8.380	0.524
914.000	534.291	79.989	19.992	100.027	19.907	8.501	0.499
916.000	535.312	79.987	19.992	100.022	19.912	8.086	0.492
918.000	536.344	79.987	19.992	100.027	19.910	8.212	0.499
920.000	537.405	79.987	19.992	100.035	19.909	8.322	0.528
922.000	538.379	79.987	19.992	100.024	19.910	8.265	0.486
924.000	539.404	79.987	19.991	100.020	19.910	8.258	0.528
926.000	540.422	79.987	19.992	100.023	19.906	8.537	0.490
928.000	541.441	79.986	19.992	100.024	19.909	8.346	0.487
930.000	542.469	79.986	19.992	100.027	19.910	8.254	0.514
932.000	543.444	79.987	19.991	100.027	19.906	8.577	0.482
934.000	544.490	79.987	19.992	100.024	19.909	8.298	0.496
936.000	545.532	79.988	19.992	100.024	19.905	8.654	0.514
938.000	546.503	79.989	19.992	100.024	19.905	8.604	0.487
940.000	547.474	79.989	19.993	100.027	19.908	8.415	0.478
942.000	548.495	79.989	19.991	100.025	19.906	8.514	0.484
944.000	549.498	79.988	19.992	100.023	19.911	8.191	0.522
946.000	550.488	79.987	19.992	100.021	19.905	8.617	0.504
948.000	551.503	79.986	19.992	100.023	19.902	8.866	0.502
950.000	552.476	79.985	19.992	100.022	19.908	8.411	0.487
952.000	553.525	79.987	19.992	100.021	19.908	8.430	0.523
954.000	554.585	79.986	19.992	100.020	19.905	8.621	0.571
956.000	555.615	79.986	19.992	100.020	19.901	8.909	0.502
958.000	556.571	79.988	19.993	100.019	19.906	8.569	0.482
960.000	557.589	79.987	19.992	100.019	19.904	8.698	0.478
962.000	558.574	79.988	19.992	100.021	19.902	8.854	0.485
964.000	559.650	79.989	19.992	100.018	19.907	8.472	0.524
966.000	560.645	79.988	19.992	100.025	19.907	8.451	0.509
968.000	561.684	79.987	19.992	100.027	19.910	8.237	0.526
970.000	562.698	79.987	19.992	100.019	19.905	8.654	0.514
972.000	563.712	79.989	19.992	100.021	19.907	8.433	0.516
974.000	564.702	79.988	19.992	100.024	19.906	8.552	0.500
976.000	565.719	79.987	19.991	100.021	19.906	8.510	0.494
978.000	566.778	79.987	19.993	100.022	19.906	8.545	0.523
980.000	567.784	79.987	19.992	100.022	19.905	8.646	0.486
982.001	568.833	79.987	19.992	100.024	19.908	8.356	0.501
984.000	569.795	79.988	19.993	100.028	19.906	8.571	0.514
986.000	570.845	79.988	19.992	100.023	19.907	8.487	0.516
988.000	571.814	79.989	19.992	100.019	19.905	8.659	0.502
990.000	572.877	79.989	19.992	100.024	19.905	8.624	0.535
992.000	573.919	79.990	19.992	100.020	19.904	8.714	0.540
994.000	574.985	79.987	19.991	100.023	19.906	8.546	0.531
996.000	575.968	79.987	19.991	100.032	19.902	8.837	0.529
998.000	576.973	79.986	19.992	100.022	19.901	8.900	0.509
1000.000	577.967	79.987	19.991	100.031	19.905	8.644	0.502
1002.000	578.976	79.988	19.991	100.028	19.904	8.703	0.477
1004.000	580.009	79.987	19.992	100.025	19.904	8.680	0.489
1006.000	580.991	79.988	19.992	100.023	19.908	8.420	0.492
1008.000	582.050	79.986	19.991	100.022	19.903	8.764	0.538
1010.001	583.040	79.987	19.991	100.022	19.903	8.811	0.519
1012.000	584.045	79.987	19.993	100.025	19.904	8.726	0.482
1014.000	585.067	79.989	19.992	100.023	19.903	8.812	0.510
1016.000	586.089	79.988	19.992	100.035	19.905	8.606	0.488
1018.001	587.115	79.988	19.991	100.029	19.908	8.389	0.503
1020.000	588.134	79.987	19.991	100.036	19.905	8.592	0.506
1022.000	589.127	79.987	19.991	100.035	19.906	8.556	0.498
1024.000	590.139	79.987	19.991	100.026	19.906	8.510	0.496
1026.001	591.194	79.987	19.992	100.021	19.906	8.544	0.535
1028.000	592.167	79.988	19.991	100.024	19.905	8.625	0.490
1030.000	593.217	79.986	19.991	100.024	19.906	8.550	0.513
1032.000	594.289	79.986	19.992	100.023	19.907	8.449	0.516
1034.000	595.290	79.987	19.992	100.026	19.907	8.506	0.495
1036.000	596.303	79.988	19.992	100.026	19.908	8.399	0.495
1038.000	597.321	79.986	19.991	100.020	19.905	8.587	0.510
1040.000	598.324	79.987	19.991	100.019	19.907	8.461	0.508
1042.001	599.359	79.987	19.993	100.021	19.903	8.755	0.543
1044.000	600.388	79.989	19.992	100.021	19.906	8.569	0.511
1046.001	601.364	79.988	19.992	100.025	19.904	8.693	0.482
1048.000	602.400	79.987	19.991	100.022	19.907	8.482	0.523
1050.001	603.405	79.987	19.992	100.020	19.908	8.403	0.516
1052.001	604.424	79.987	19.992	100.019	19.904	8.724	0.500
1054.000	605.478	79.988	19.991	100.021	19.907	8.435	0.534
1056.000	606.474	79.988	19.992	100.030	19.909	8.350	0.479
1058.001	607.517	79.985	19.991	100.024	19.908	8.415	0.519
1060.000	608.535	79.988	19.991	100.022	19.906	8.524	0.506
1062.001	609.604	79.987	19.991	100.022	19.907	8.474	0.534
1064.000	610.595	79.987	19.992	100.027	19.904	8.681	0.528
1066.001	611.617	79.989	19.991	100.021	19.907	8.499	0.521
1068.000	612.678	79.990	19.993	100.020	19.907	8.487	0.530
1070.000	613.679	79.988	19.992	100.018	19.909	8.295	0.528
1072.000	614.735	79.989	19.992	100.016	19.907	8.434	0.517
1074.001	615.787	79.988	19.993	100.015	19.908	8.361	0.523
1076.000	616.822	79.988	19.993	100.016	19.908	8.373	0.529
1078.000	617.784	79.987	19.993	100.023	19.908	8.401	0.511
1080.000	618.795	79.987	19.992	100.025	19.906	8.559	0.510
1082.000	619.861	79.987	19.993	100.017	19.905	8.589	0.516
1084.000	620.874	79.987	19.992	100.024	19.907	8.434	0.533
1086.000	621.897	79.987	19.991	100.027	19.910	8.258	0.512
1088.000	622.938	79.985	19.992	100.018	19.911	8.134	0.518
1090.001	623.964	79.987	19.992	100.027	19.906	8.535	0.525
1092.001	624.998	79.987	19.991	100.027	19.905	8.657	0.511
1094.001	626.007	79.986	19.992	100.019	19.907	8.489	0.526
1096.000	626.995	79.987	19.992	100.022	19.908	8.422	0.499
1098.000	628.054	79.988	19.993	100.019	19.904	8.675	0.527
1100.001	629.081	79.986	19.993	100.017	19.904	8.694	0.509
1102.000	630.084	79.986	19.992	100.022	19.906	8.571	0.512
1104.000	631.104	79.986	19.992	100.023	19.907	8.461	0.528
1106.001	632.082	79.985	19.992	100.023	19.902	8.842	0.498
1108.001	633.127	79.985	19.991	100.022	19.903	8.769	0.509
1110.000	634.143	79.986	19.993	100.023	19.905	8.620	0.509
1112.000	635.163	79.986	19.993	100.021	19.900	8.978	0.542
1114.001	636.190	79.985	19.992	100.023	19.903	8.779	0.496
1116.000	637.207	79.986	19.991	99.974	19.903	8.816	0.517
1118.000	638.196	79.988	19.992	100.045	19.905	8.634	0.479
1120.001	639.201	79.986	19.991	100.079	19.907	8.480	0.490
1122.000	640.238	79.987	19.991	100.025	19.907	8.478	0.499
1124.000	641.262	79.988	19.990	100.024	19.906	8.509	0.507
1126.000	642.271	79.989	19.991	100.030	19.906	8.528	0.499
1128.000	643.309	79.988	19.992	100.024	19.906	8.553	0.534
1130.000	644.310	79.988	19.993	100.023	19.905	8.602	0.534
1132.000	645.249	79.988	19.993	100.020	19.903	8.758	0.505
1134.001	646.299	79.987	19.992	100.016	19.903	8.776	0.530
1136.000	647.317	79.987	19.994	100.015	19.905	8.652	0.528
1138.000	648.336	79.987	19.993	99.978	19.906	8.585	0.508
1140.001	649.370	79.989	19.993	99.999	19.909	8.291	0.506
1142.000	650.359	79.988	19.993	100.080	19.911	8.148	0.515
1144.001	651.385	79.988	19.992	100.018	19.913	8.010	0.541
1146.000	652.377	79.988	19.992	100.016	19.911	8.189	0.493
1148.000	653.419	79.990	19.992	100.016	19.909	8.310	0.525
1150.000	654.440	79.989	19.992	100.018	19.907	8.440	0.514
1152.000	655.413	79.989	19.992	100.014	19.907	8.503	0.485
1154.000	656.463	79.991	19.993	100.014	19.904	8.696	0.490
1156.000	657.487	79.987	19.993	99.958	19.904	8.719	0.505
1158.001	658.514	79.987	19.993	99.984	19.902	8.883	0.528
1160.000	659.529	79.986	19.994	100.093	19.900	9.032	0.503
1162.001	660.527	79.986	19.993	100.032	19.903	8.774	0.512
1164.001	661.525	79.987	19.993	100.012	19.902	8.820	0.515
1166.000	662.570	79.987	19.993	100.018	19.905	8.650	0.517
1168.000	663.551	79.987	19.993	100.022	19.903	8.757	0.475
1170.001	664.569	79.987	19.991	100.021	19.905	8.654	0.479
1172.001	665.537	79.987	19.992	100.019	19.900	9.002	0.489
1174.000	666.583	79.989	19.992	100.021	19.902	8.860	0.509
1176.001	667.564	79.988	19.992	100.020	19.903	8.759	0.501
1178.000	668.600	79.988	19.992	100.020	19.900	9.007	0.523
1180.000	669.644	79.988	19.992	100.015	19.898	9.154	0.538
1182.000	670.648	79.986	19.992	99.952	19.897	9.263	0.537
1184.001	671.668	79.986	19.991	100.080	19.901	8.969	0.510
1186.000	672.684	79.987	19.991	100.040	19.901	8.902	0.505
1188.000	673.753	79.986	19.992	100.023	19.899	9.130	0.568
1190.000	674.753	79.986	19.993	100.024	19.901	8.965	0.483
1192.001	675.820	79.987	19.993	100.023	19.899	9.078	0.514
1194.000	676.798	79.986	19.991	100.020	19.899	9.103	0.502
1196.001	677.828	79.987	19.993	99.952	19.898	9.157	0.506
1198.000	678.891	79.987	19.993	100.074	19.901	8.900	0.508
1200.001	679.908	79.987	19.992	100.029	19.902	8.856	0.520
1202.001	680.892	79.988	19.993	100.018	19.902	8.877	0.520
1204.001	681.941	79.988	19.992	100.018	19.901	8.920	0.528
1206.000	682.978	79.989	19.993	100.019	19.902	8.860	0.488
1208.001	684.040	79.991	19.992	100.021	19.901	8.920	0.549
1210.000	685.003	79.989	19.993	100.023	19.901	8.956	0.488
1212.000	686.048	79.989	19.992	100.022	19.901	8.967	0.545
1214.000	687.060	79.989	19.993	100.019	19.898	9.151	0.524
1216.001	688.063	79.989	19.993	100.023	19.899	9.063	0.482
1218.001	689.133	79.989	19.992	100.023	19.901	8.929	0.550
1220.000	690.165	79.990	19.993	100.017	19.901	8.958	0.536
1222.000	691.217	79.986	19.994	100.019	19.901	8.918	0.524
1224.000	692.214	79.989	19.993	100.016	19.900	8.988	0.530
1226.000	693.258	79.989	19.993	100.022	19.902	8.847	0.489
1228.000	694.258	79.989	19.992	100.017	19.900	9.042	0.496
1230.001	695.304	79.990	19.992	100.016	19.899	9.065	0.515
1232.001	696.404	79.993	19.992	100.018	19.901	8.910	0.541
1234.000	697.420	79.987	19.992	100.019	19.898	9.158	0.509
1236.000	698.415	79.988	19.992	100.023	19.899	9.072	0.502
1238.001	699.456	79.986	19.992	100.019	19.898	9.181	0.512
1240.001	700.496	79.986	19.993	100.019	19.899	9.105	0.512
1242.001	701.493	79.985	19.993	100.018	19.900	9.003	0.514
1244.000	702.501	79.986	19.993	100.026	19.897	9.240	0.511
1246.000	703.519	79.985	19.992	100.020	19.897	9.252	0.504
1248.000	704.581	79.986	19.994	100.022	19.897	9.245	0.524
1250.001	705.544	79.987	19.993	100.019	19.896	9.338	0.502
1252.000	706.581	79.987	19.992	100.019	19.897	9.209	0.524
1254.000	707.620	79.989	19.993	100.022	19.896	9.350	0.536
1256.001	708.596	79.988	19.992	100.020	19.896	9.327	0.493
1258.000	709.581	79.985	19.993	100.014	19.897	9.273	0.492
1260.000	710.607	79.988	19.991	100.019	19.898	9.166	0.499
1262.001	711.607	79.988	19.992	100.012	19.896	9.315	0.499
1264.000	712.616	79.988	19.991	100.016	19.894	9.515	0.512
1266.000	713.572	79.989	19.992	100.010	19.895	9.409	0.471
1268.001	714.635	79.985	19.992	100.016	19.897	9.229	0.539
1270.001	715.652	79.985	19.992	100.018	19.897	9.243	0.505
1272.000	716.644	79.985	19.992	100.022	19.896	9.351	0.514
1274.000	717.631	79.987	19.992	100.011	19.897	9.258	0.512
1276.000	718.621	79.988	19.993	100.016	19.896	9.297	0.486
1278.001	719.626	79.987	19.992	100.017	19.896	9.363	0.499
1280.000	720.628	79.988	19.993	100.017	19.893	9.533	0.501
1282.000	721.604	79.988	19.992	99.970	19.892	9.673	0.499
1284.001	722.607	79.990	19.992	99.954	19.895	9.403	0.505
1286.000	723.639	79.992	19.991	100.086	19.896	9.328	0.509
1288.000	724.634	79.992	19.991	100.016	19.896	9.332	0.503
1290.000	725.657	79.988	19.991	100.018	19.895	9.368	0.503
1292.000	726.640	79.988	19.992	100.017	19.895	9.382	0.510
1294.001	727.616	79.988	19.991	100.023	19.897	9.286	0.477
1296.000	728.623	79.985	19.992	100.021	19.895	9.388	0.499
1298.000	729.615	79.986	19.992	100.025	19.897	9.231	0.475
1300.001	730.683	79.985	19.992	100.028	19.895	9.394	0.534
1302.001	731.667	79.987	19.992	100.022	19.895	9.365	0.517
1304.000	732.678	79.988	19.991	100.021	19.897	9.227	0.494
1306.000	733.681	79.990	19.992	100.020	19.894	9.512	0.510
1308.001	734.713	79.989	19.992	100.020	19.897	9.279	0.508
1310.000	735.716	79.989	19.992	100.016	19.894	9.455	0.513
1312.000	736.740	79.988	19.992	100.019	19.896	9.359	0.491
1314.001	737.759	79.990	19.992	100.018	19.900	9.011	0.504
1316.000	738.824	79.986	19.992	100.019	19.896	9.334	0.535
1318.001	739.834	79.988	19.991	100.024	19.896	9.330	0.508
1320.000	740.912	79.985	19.992	100.014	19.895	9.385	0.548
1322.001	741.930	79.987	19.992	100.021	19.893	9.533	0.515
1324.000	742.993	79.986	19.992	100.020	19.893	9.581	0.535
1325.001	743.528	79.987	19.992	100.018	19.892	9.673	0.524