File: 01_Data/Pressure_Treated_Deck/MCC/Pressure_Treated_Deck_30K_min_210608_R3.txt
Sample ID:	C:\MCC\MCC Cal\Test\Pressure_Treated_Deck\Pressure_Treated_Deck_30_3.txt
Sample Weight (mg):	4.05
Heating Rate (C/s):	0.5
Combustor Temp (C):	900
N2 Flow Rate (cc/min):	80
O2 Flow Rate (cc/min):	20
Calibration File:	C:\MCC\MCC Cal\Coeff1 JN10440_30_210304.txt.txt
T Correction Coefficients:	0	1.024463	0
Time Shift (s):	14
*
Time (s)	Temperature (C)	N2 flow rate (cc/min)	O2 flow rate (cc/min)	Flow Rate (cc/min)	Oxygen (%)	HRR (W/g)	Heating rate (C/s)
0.000	112.267	79.985	19.991	99.941	19.936	0.257	-0.044
2.000	112.278	79.987	19.992	99.937	19.935	0.282	0.032
4.000	112.216	79.986	19.992	99.940	19.939	0.019	-0.014
6.000	112.208	79.986	19.992	99.942	19.933	0.448	-0.011
8.000	112.216	79.986	19.993	99.942	19.939	0.010	-0.007
10.000	112.155	79.985	19.993	99.939	19.940	-0.035	-0.023
12.000	112.165	79.985	19.993	99.942	19.936	0.257	-0.017
14.000	112.138	79.986	19.992	99.942	19.935	0.291	-0.047
16.001	112.143	79.986	19.992	99.940	19.933	0.430	-0.040
18.000	112.144	79.986	19.993	99.942	19.932	0.558	-0.017
20.000	112.106	79.987	19.992	99.944	19.934	0.423	-0.018
22.000	112.127	79.988	19.992	99.947	19.935	0.288	0.010
24.000	112.082	79.987	19.992	99.964	19.932	0.515	-0.001
26.000	112.082	79.989	19.991	99.967	19.932	0.577	-0.029
28.000	112.088	79.988	19.991	99.979	19.929	0.752	0.032
30.000	112.110	79.989	19.993	99.989	19.924	1.169	-0.031
32.001	112.094	79.987	19.992	99.982	19.926	1.016	0.000
34.000	112.148	79.987	19.992	99.990	19.925	1.085	0.005
36.001	112.153	79.986	19.992	100.021	19.924	1.164	0.000
38.000	112.217	79.987	19.992	100.045	19.922	1.318	0.016
40.000	112.277	79.987	19.992	100.056	19.915	1.827	0.032
42.000	112.357	79.987	19.991	100.060	19.915	1.877	0.053
44.000	112.497	79.987	19.991	100.072	19.916	1.779	0.081
46.000	112.638	79.988	19.991	100.093	19.913	2.012	0.084
48.001	112.805	79.988	19.991	100.103	19.910	2.247	0.095
50.000	112.997	79.988	19.992	100.121	19.905	2.604	0.109
52.000	113.229	79.990	19.990	100.138	19.903	2.808	0.118
54.000	113.459	79.989	19.991	100.139	19.901	2.933	0.104
56.000	113.771	79.987	19.992	100.138	19.900	2.996	0.151
58.001	114.093	79.988	19.992	100.136	19.900	3.003	0.168
60.000	114.402	79.986	19.991	100.130	19.898	3.192	0.132
62.000	114.796	79.986	19.992	100.136	19.897	3.269	0.183
64.000	115.183	79.986	19.991	100.141	19.895	3.438	0.199
66.000	115.625	79.986	19.992	100.163	19.890	3.802	0.236
68.001	116.024	79.987	19.993	100.175	19.889	3.842	0.199
70.000	116.511	79.986	19.993	100.175	19.886	4.091	0.233
72.000	117.001	79.986	19.993	100.176	19.886	4.129	0.245
74.000	117.468	79.986	19.992	100.187	19.889	3.835	0.254
76.000	118.040	79.986	19.992	100.194	19.888	3.954	0.267
78.000	118.599	79.987	19.993	100.201	19.884	4.262	0.303
80.000	119.149	79.987	19.992	100.195	19.885	4.175	0.287
82.000	119.768	79.987	19.992	100.189	19.885	4.173	0.325
84.000	120.365	79.987	19.992	100.199	19.882	4.412	0.339
86.001	121.047	79.986	19.993	100.198	19.882	4.377	0.327
88.000	121.690	79.986	19.993	100.208	19.882	4.395	0.314
90.000	122.433	79.986	19.992	100.206	19.884	4.242	0.335
92.000	123.133	79.984	19.993	100.201	19.884	4.283	0.328
94.000	123.893	79.985	19.994	100.215	19.881	4.464	0.382
96.000	124.609	79.986	19.994	100.216	19.881	4.520	0.359
98.000	125.368	79.986	19.994	100.205	19.883	4.308	0.391
100.001	126.131	79.987	19.994	100.209	19.880	4.564	0.387
102.000	126.898	79.987	19.992	100.206	19.884	4.275	0.383
104.000	127.749	79.987	19.993	100.207	19.882	4.367	0.405
106.000	128.540	79.988	19.992	100.213	19.882	4.377	0.420
108.000	129.376	79.988	19.992	100.212	19.881	4.452	0.412
110.000	130.201	79.987	19.990	100.216	19.885	4.198	0.413
112.001	131.028	79.987	19.991	100.216	19.881	4.458	0.471
114.000	131.871	79.987	19.991	100.215	19.881	4.485	0.443
116.000	132.790	79.988	19.991	100.217	19.882	4.441	0.454
118.001	133.682	79.988	19.991	100.209	19.877	4.794	0.447
120.000	134.506	79.988	19.992	100.206	19.878	4.714	0.431
122.000	135.441	79.988	19.992	100.210	19.879	4.637	0.442
124.000	136.342	79.989	19.993	100.212	19.880	4.537	0.451
126.000	137.272	79.989	19.992	100.204	19.879	4.626	0.465
128.000	138.192	79.989	19.992	100.198	19.879	4.612	0.481
130.000	139.107	79.990	19.992	100.207	19.882	4.416	0.461
132.000	140.043	79.989	19.993	100.202	19.881	4.483	0.458
134.000	140.982	79.988	19.991	100.208	19.881	4.460	0.476
136.000	141.958	79.990	19.991	100.205	19.883	4.295	0.505
138.000	142.918	79.987	19.992	100.209	19.886	4.091	0.474
140.000	143.887	79.986	19.992	100.210	19.880	4.534	0.456
142.000	144.914	79.987	19.992	100.203	19.881	4.444	0.493
144.000	145.885	79.987	19.992	100.205	19.880	4.534	0.497
146.000	146.853	79.987	19.991	100.202	19.881	4.445	0.471
148.000	147.839	79.988	19.991	100.206	19.879	4.651	0.493
150.000	148.839	79.987	19.992	100.201	19.882	4.417	0.505
152.000	149.869	79.986	19.993	100.189	19.880	4.522	0.517
154.000	150.807	79.987	19.993	100.190	19.880	4.534	0.500
156.000	151.766	79.986	19.993	100.193	19.882	4.440	0.462
158.000	152.753	79.987	19.992	100.202	19.879	4.611	0.456
160.000	153.748	79.987	19.992	100.197	19.877	4.783	0.467
162.000	154.780	79.987	19.992	100.187	19.877	4.782	0.522
164.000	155.763	79.987	19.993	100.194	19.876	4.835	0.499
166.000	156.794	79.986	19.991	100.183	19.873	5.083	0.519
168.000	157.754	79.986	19.992	100.179	19.877	4.754	0.477
170.000	158.810	79.986	19.993	100.183	19.880	4.538	0.515
172.000	159.780	79.986	19.992	100.184	19.875	4.972	0.515
174.000	160.812	79.986	19.992	100.192	19.876	4.835	0.536
176.000	161.792	79.987	19.992	100.182	19.878	4.710	0.493
178.000	162.763	79.986	19.992	100.185	19.878	4.724	0.482
180.000	163.806	79.986	19.993	100.179	19.879	4.625	0.541
182.000	164.883	79.985	19.994	100.178	19.875	4.905	0.539
184.000	165.834	79.987	19.993	100.179	19.876	4.833	0.496
186.000	166.886	79.988	19.994	100.176	19.878	4.729	0.515
188.000	167.907	79.988	19.993	100.172	19.880	4.573	0.522
190.000	168.909	79.987	19.992	100.172	19.880	4.544	0.539
192.000	169.859	79.986	19.993	100.173	19.876	4.876	0.484
194.000	170.918	79.987	19.993	100.173	19.878	4.687	0.521
196.000	171.892	79.986	19.992	100.173	19.877	4.790	0.514
198.000	172.911	79.987	19.992	100.173	19.876	4.849	0.523
200.000	173.918	79.986	19.992	100.173	19.876	4.865	0.463
202.000	174.964	79.988	19.991	100.169	19.876	4.902	0.532
204.000	175.926	79.988	19.992	100.164	19.876	4.867	0.491
206.000	176.903	79.987	19.991	100.166	19.879	4.622	0.509
208.000	177.915	79.988	19.992	100.154	19.879	4.618	0.497
210.000	178.921	79.989	19.991	100.159	19.878	4.691	0.480
212.000	179.893	79.990	19.992	100.141	19.877	4.809	0.486
214.000	180.874	79.990	19.991	100.146	19.880	4.580	0.490
216.000	181.878	79.989	19.991	100.146	19.878	4.733	0.462
218.000	182.882	79.987	19.992	100.167	19.878	4.678	0.509
220.000	183.910	79.988	19.992	100.160	19.877	4.797	0.502
222.000	184.935	79.988	19.992	100.158	19.876	4.888	0.524
224.001	185.938	79.987	19.992	100.151	19.875	4.965	0.496
226.000	186.907	79.985	19.991	100.162	19.874	4.981	0.495
228.000	187.866	79.988	19.992	100.162	19.874	5.015	0.499
230.000	188.885	79.987	19.993	100.158	19.877	4.808	0.512
232.000	189.862	79.985	19.990	100.160	19.875	4.975	0.513
234.000	190.843	79.987	19.992	100.158	19.876	4.900	0.507
236.000	191.815	79.987	19.992	100.155	19.875	4.917	0.472
238.000	192.783	79.987	19.991	100.151	19.875	4.932	0.495
240.000	193.801	79.986	19.992	100.169	19.872	5.171	0.481
242.000	194.728	79.986	19.993	100.164	19.876	4.875	0.508
244.000	195.729	79.986	19.992	100.142	19.874	5.031	0.487
246.000	196.701	79.986	19.993	100.156	19.875	4.917	0.497
248.000	197.698	79.988	19.993	100.158	19.873	5.079	0.507
250.000	198.669	79.987	19.992	100.155	19.873	5.079	0.518
252.000	199.603	79.986	19.993	100.149	19.876	4.831	0.454
254.000	200.600	79.985	19.993	100.150	19.876	4.887	0.476
256.000	201.603	79.985	19.993	100.152	19.874	5.037	0.518
258.000	202.579	79.986	19.993	100.154	19.875	4.910	0.498
260.000	203.564	79.989	19.992	100.156	19.877	4.769	0.485
262.000	204.515	79.988	19.992	100.148	19.873	5.074	0.487
264.000	205.499	79.987	19.993	100.144	19.870	5.359	0.490
266.000	206.524	79.988	19.993	100.142	19.872	5.143	0.521
268.000	207.513	79.987	19.993	100.139	19.874	5.008	0.544
270.000	208.474	79.988	19.993	100.142	19.868	5.499	0.488
272.000	209.482	79.988	19.992	100.140	19.868	5.518	0.497
274.000	210.438	79.987	19.993	100.139	19.868	5.451	0.474
276.000	211.379	79.988	19.994	100.145	19.867	5.566	0.490
278.000	212.385	79.987	19.994	100.148	19.866	5.668	0.504
280.000	213.382	79.988	19.993	100.148	19.865	5.750	0.464
282.000	214.374	79.987	19.993	100.144	19.865	5.750	0.483
284.000	215.363	79.989	19.993	100.147	19.863	5.833	0.487
286.000	216.338	79.990	19.991	100.145	19.860	6.072	0.485
288.000	217.321	79.989	19.992	100.166	19.861	6.035	0.507
290.000	218.325	79.989	19.991	100.151	19.859	6.183	0.472
292.000	219.274	79.990	19.992	100.143	19.856	6.395	0.486
294.000	220.235	79.990	19.992	100.148	19.855	6.447	0.506
296.000	221.281	79.989	19.992	100.145	19.855	6.487	0.500
298.000	222.243	79.990	19.992	100.144	19.853	6.652	0.468
300.000	223.260	79.989	19.991	100.150	19.853	6.642	0.492
302.000	224.236	79.988	19.991	100.144	19.850	6.857	0.508
304.000	225.244	79.987	19.993	100.150	19.854	6.585	0.481
306.000	226.200	79.988	19.992	100.143	19.851	6.824	0.513
308.000	227.218	79.986	19.992	100.164	19.848	7.058	0.532
310.000	228.233	79.985	19.993	100.153	19.843	7.436	0.527
312.000	229.209	79.988	19.992	100.152	19.842	7.466	0.485
314.000	230.242	79.987	19.992	100.159	19.842	7.511	0.501
316.000	231.250	79.987	19.992	100.164	19.839	7.682	0.520
318.000	232.209	79.989	19.991	100.150	19.836	7.927	0.474
320.000	233.233	79.989	19.991	100.159	19.831	8.336	0.501
322.000	234.212	79.987	19.992	100.166	19.834	8.139	0.495
324.000	235.208	79.987	19.993	100.145	19.828	8.604	0.523
326.000	236.217	79.987	19.992	100.154	19.828	8.565	0.503
328.000	237.214	79.988	19.992	100.153	19.823	8.950	0.497
330.000	238.199	79.988	19.992	100.154	19.826	8.727	0.513
332.000	239.187	79.987	19.992	100.160	19.821	9.125	0.453
334.000	240.201	79.986	19.993	100.139	19.820	9.166	0.501
336.000	241.203	79.986	19.992	100.140	19.822	9.065	0.504
338.000	242.202	79.984	19.993	100.147	19.815	9.543	0.482
340.000	243.196	79.986	19.993	100.148	19.813	9.698	0.509
342.000	244.140	79.986	19.992	100.149	19.813	9.760	0.497
344.000	245.184	79.987	19.992	100.157	19.810	9.970	0.511
346.000	246.195	79.988	19.993	100.151	19.809	9.996	0.501
348.000	247.176	79.987	19.993	100.160	19.808	10.106	0.501
350.000	248.178	79.989	19.992	100.143	19.804	10.383	0.482
352.000	249.210	79.989	19.992	100.157	19.803	10.473	0.505
354.000	250.233	79.988	19.992	100.154	19.799	10.824	0.521
356.000	251.217	79.989	19.992	100.148	19.800	10.714	0.463
358.000	252.215	79.987	19.992	100.149	19.794	11.226	0.480
360.000	253.212	79.989	19.992	100.145	19.793	11.260	0.501
362.000	254.216	79.987	19.993	100.159	19.789	11.608	0.496
364.000	255.200	79.986	19.994	100.159	19.788	11.682	0.507
366.000	256.226	79.986	19.992	100.156	19.783	12.046	0.506
368.000	257.200	79.989	19.993	100.158	19.777	12.489	0.472
370.000	258.220	79.987	19.993	100.157	19.778	12.410	0.524
372.000	259.210	79.988	19.995	100.165	19.772	12.868	0.477
374.000	260.199	79.988	19.993	100.170	19.768	13.178	0.498
376.000	261.196	79.990	19.992	100.168	19.764	13.475	0.484
378.000	262.198	79.990	19.991	100.171	19.758	13.963	0.502
380.000	263.191	79.988	19.992	100.169	19.754	14.303	0.521
382.000	264.181	79.988	19.993	100.173	19.750	14.578	0.487
384.000	265.228	79.986	19.991	100.175	19.746	14.866	0.506
386.000	266.235	79.987	19.993	100.175	19.740	15.361	0.509
388.000	267.275	79.989	19.992	100.178	19.734	15.859	0.500
390.000	268.265	79.987	19.992	100.182	19.728	16.250	0.491
392.000	269.274	79.986	19.992	100.178	19.722	16.765	0.482
394.000	270.321	79.986	19.992	100.178	19.718	17.057	0.512
396.000	271.383	79.986	19.993	100.180	19.714	17.384	0.512
398.000	272.432	79.988	19.993	100.186	19.703	18.209	0.497
400.000	273.431	79.987	19.992	100.178	19.702	18.302	0.528
402.000	274.459	79.986	19.993	100.188	19.698	18.640	0.510
404.000	275.504	79.990	19.994	100.179	19.689	19.287	0.512
406.000	276.459	79.987	19.992	100.185	19.685	19.648	0.466
408.000	277.510	79.989	19.992	100.185	19.679	20.054	0.542
410.000	278.533	79.988	19.992	100.189	19.670	20.745	0.539
412.000	279.519	79.987	19.991	100.205	19.669	20.857	0.524
414.000	280.526	79.986	19.991	100.201	19.662	21.400	0.481
416.000	281.533	79.988	19.992	100.213	19.655	21.922	0.519
418.000	282.536	79.985	19.992	100.208	19.648	22.439	0.537
420.000	283.593	79.984	19.992	100.216	19.643	22.871	0.535
422.000	284.525	79.986	19.993	100.214	19.635	23.454	0.459
424.000	285.543	79.986	19.992	100.216	19.626	24.166	0.500
426.000	286.533	79.986	19.992	100.215	19.619	24.698	0.477
428.000	287.598	79.987	19.993	100.215	19.614	25.100	0.555
430.000	288.525	79.988	19.992	100.217	19.607	25.603	0.475
432.000	289.661	79.987	19.993	100.217	19.601	26.067	0.555
434.000	290.738	79.990	19.992	100.217	19.592	26.761	0.674
436.000	291.654	79.988	19.991	100.217	19.586	27.274	0.517
438.000	292.554	79.988	19.991	100.217	19.582	27.604	0.488
440.000	293.501	79.987	19.992	100.221	19.572	28.341	0.512
442.000	294.542	79.989	19.993	100.220	19.570	28.505	0.572
444.000	295.513	79.988	19.993	100.219	19.563	29.039	0.496
446.000	296.491	79.987	19.993	100.227	19.550	30.020	0.468
448.000	297.501	79.988	19.993	100.219	19.545	30.451	0.488
450.000	298.471	79.988	19.993	100.225	19.539	30.885	0.490
452.000	299.492	79.989	19.993	100.227	19.532	31.415	0.505
454.000	300.494	79.988	19.994	100.233	19.523	32.114	0.500
456.000	301.492	79.989	19.993	100.239	19.517	32.566	0.474
458.000	302.527	79.988	19.993	100.246	19.510	33.141	0.495
460.000	303.447	79.989	19.994	100.235	19.503	33.654	0.492
462.000	304.445	79.989	19.993	100.246	19.499	33.983	0.483
464.000	305.457	79.987	19.993	100.237	19.490	34.673	0.512
466.000	306.480	79.986	19.992	100.246	19.480	35.431	0.513
468.000	307.457	79.987	19.991	100.250	19.474	35.930	0.505
470.000	308.463	79.988	19.992	100.253	19.468	36.403	0.507
472.001	309.526	79.987	19.992	100.253	19.456	37.305	0.524
474.000	310.517	79.988	19.991	100.251	19.449	37.866	0.508
476.000	311.563	79.987	19.992	100.254	19.440	38.511	0.527
478.000	312.576	79.988	19.992	100.259	19.433	39.105	0.486
480.000	313.590	79.988	19.993	100.258	19.425	39.738	0.516
482.000	314.589	79.988	19.992	100.268	19.415	40.486	0.466
484.000	315.625	79.986	19.992	100.262	19.411	40.829	0.535
486.000	316.600	79.987	19.993	100.261	19.405	41.260	0.505
488.000	317.638	79.986	19.992	100.264	19.396	41.981	0.509
490.000	318.637	79.988	19.992	100.280	19.386	42.712	0.508
492.000	319.647	79.989	19.993	100.265	19.376	43.536	0.495
494.000	320.684	79.987	19.992	100.279	19.370	43.982	0.499
496.000	321.682	79.985	19.992	100.268	19.360	44.741	0.524
498.000	322.697	79.985	19.992	100.272	19.353	45.253	0.491
500.000	323.684	79.987	19.991	100.275	19.344	46.009	0.477
502.000	324.738	79.986	19.992	100.292	19.336	46.559	0.507
504.000	325.713	79.988	19.992	100.294	19.327	47.321	0.492
506.000	326.716	79.988	19.992	100.294	19.319	47.931	0.525
508.000	327.709	79.986	19.992	100.293	19.314	48.316	0.484
510.000	328.757	79.989	19.992	100.293	19.302	49.208	0.513
512.000	329.739	79.992	19.992	100.293	19.295	49.734	0.509
514.000	330.719	79.989	19.991	100.294	19.287	50.415	0.478
516.000	331.728	79.989	19.992	100.294	19.275	51.344	0.522
518.000	332.749	79.987	19.993	100.293	19.267	51.904	0.496
520.000	333.768	79.986	19.992	100.294	19.259	52.540	0.504
522.000	334.777	79.987	19.993	100.297	19.249	53.350	0.512
524.000	335.811	79.987	19.993	100.302	19.243	53.776	0.514
526.000	336.818	79.988	19.993	100.310	19.233	54.555	0.518
528.000	337.813	79.988	19.992	100.312	19.225	55.213	0.508
530.000	338.830	79.986	19.992	100.309	19.214	56.024	0.501
532.000	339.774	79.987	19.992	100.325	19.203	56.913	0.474
534.000	340.838	79.989	19.992	100.327	19.194	57.569	0.486
536.000	341.833	79.990	19.992	100.323	19.186	58.203	0.500
538.000	342.834	79.991	19.993	100.324	19.175	59.043	0.501
540.000	343.829	79.989	19.992	100.329	19.165	59.820	0.508
542.000	344.792	79.987	19.992	100.332	19.155	60.609	0.483
544.000	345.814	79.986	19.993	100.332	19.147	61.246	0.519
546.000	346.843	79.987	19.994	100.330	19.138	61.927	0.492
548.000	347.820	79.987	19.993	100.333	19.130	62.570	0.486
550.000	348.836	79.985	19.994	100.337	19.120	63.301	0.518
552.000	349.869	79.984	19.993	100.339	19.114	63.749	0.536
554.000	350.862	79.986	19.993	100.337	19.104	64.580	0.493
556.000	351.866	79.986	19.993	100.336	19.095	65.233	0.497
558.001	352.898	79.986	19.993	100.337	19.087	65.858	0.521
560.000	353.928	79.985	19.992	100.337	19.080	66.410	0.510
562.000	354.939	79.987	19.992	100.343	19.079	66.493	0.512
564.000	355.928	79.988	19.992	100.341	19.070	67.134	0.500
566.000	356.973	79.986	19.993	100.343	19.070	67.146	0.548
568.000	357.955	79.988	19.993	100.347	19.066	67.488	0.504
570.000	358.973	79.987	19.992	100.335	19.069	67.232	0.500
572.000	359.961	79.988	19.992	100.338	19.067	67.348	0.497
574.000	361.023	79.988	19.991	100.331	19.067	67.333	0.528
576.000	362.012	79.986	19.992	100.316	19.073	66.854	0.480
578.000	363.035	79.986	19.993	100.322	19.085	65.978	0.514
580.000	364.029	79.987	19.993	100.296	19.095	65.168	0.506
582.000	365.042	79.987	19.992	100.290	19.111	63.915	0.516
584.000	366.056	79.987	19.992	100.277	19.126	62.750	0.488
586.001	367.072	79.986	19.993	100.257	19.141	61.574	0.510
588.000	368.016	79.987	19.992	100.244	19.165	59.743	0.487
590.000	369.070	79.990	19.992	100.233	19.189	57.894	0.513
592.000	370.102	79.990	19.991	100.222	19.214	55.926	0.521
594.000	371.094	79.990	19.992	100.203	19.244	53.631	0.526
596.000	372.111	79.990	19.992	100.180	19.277	51.052	0.509
598.000	373.161	79.987	19.992	100.172	19.308	48.678	0.495
600.000	374.171	79.986	19.991	100.169	19.344	45.889	0.489
602.000	375.193	79.987	19.993	100.148	19.376	43.393	0.521
604.000	376.190	79.987	19.992	100.136	19.411	40.693	0.481
606.000	377.204	79.986	19.993	100.130	19.449	37.772	0.483
608.000	378.193	79.987	19.992	100.107	19.483	35.180	0.521
610.000	379.254	79.987	19.992	100.101	19.521	32.272	0.507
612.000	380.281	79.989	19.992	100.099	19.552	29.830	0.529
614.000	381.260	79.988	19.992	100.095	19.580	27.717	0.514
616.000	382.284	79.990	19.992	100.097	19.608	25.504	0.488
618.000	383.251	79.991	19.992	100.097	19.634	23.546	0.497
620.000	384.335	79.990	19.993	100.093	19.653	22.092	0.527
622.000	385.309	79.989	19.992	100.088	19.676	20.314	0.519
624.000	386.338	79.987	19.993	100.095	19.690	19.191	0.518
626.000	387.339	79.987	19.993	100.092	19.706	18.007	0.503
628.000	388.362	79.986	19.993	100.085	19.717	17.141	0.505
630.000	389.354	79.987	19.992	100.094	19.732	15.966	0.508
632.000	390.357	79.985	19.992	100.097	19.735	15.747	0.492
634.000	391.355	79.985	19.994	100.098	19.741	15.253	0.480
636.000	392.375	79.987	19.994	100.094	19.752	14.392	0.509
638.000	393.451	79.987	19.994	100.093	19.754	14.269	0.517
640.000	394.469	79.987	19.992	100.079	19.762	13.670	0.505
642.000	395.460	79.986	19.993	100.081	19.762	13.628	0.521
644.000	396.507	79.988	19.993	100.090	19.768	13.202	0.512
646.000	397.515	79.988	19.993	100.077	19.767	13.299	0.515
648.000	398.534	79.988	19.991	100.072	19.768	13.155	0.528
650.000	399.559	79.985	19.991	100.092	19.775	12.622	0.522
652.000	400.571	79.987	19.992	100.067	19.775	12.628	0.485
654.000	401.558	79.987	19.992	100.081	19.778	12.381	0.478
656.000	402.597	79.986	19.994	100.088	19.782	12.105	0.498
658.000	403.596	79.986	19.992	100.081	19.784	11.992	0.517
660.000	404.581	79.987	19.993	100.080	19.787	11.749	0.484
662.000	405.632	79.988	19.991	100.088	19.786	11.804	0.519
664.000	406.641	79.987	19.993	100.093	19.791	11.396	0.492
666.000	407.640	79.987	19.992	100.080	19.795	11.136	0.477
668.000	408.673	79.987	19.992	100.086	19.792	11.372	0.488
670.000	409.720	79.988	19.991	100.080	19.793	11.267	0.511
672.000	410.741	79.988	19.993	100.091	19.792	11.312	0.532
674.000	411.719	79.990	19.993	100.092	19.795	11.090	0.491
676.000	412.797	79.988	19.990	100.085	19.800	10.708	0.534
678.000	413.783	79.989	19.991	100.090	19.799	10.802	0.489
680.000	414.801	79.990	19.991	100.092	19.798	10.858	0.505
682.000	415.802	79.986	19.993	100.083	19.800	10.743	0.510
684.000	416.813	79.986	19.990	100.078	19.798	10.850	0.547
686.000	417.829	79.990	19.991	100.086	19.804	10.430	0.509
688.000	418.887	79.987	19.990	100.082	19.800	10.688	0.486
690.000	419.949	79.988	19.992	100.083	19.802	10.561	0.547
692.000	420.918	79.988	19.992	100.073	19.804	10.429	0.454
694.000	421.975	79.989	19.992	100.084	19.803	10.501	0.508
696.000	423.000	79.990	19.992	100.069	19.808	10.099	0.517
698.000	424.003	79.989	19.990	100.075	19.804	10.410	0.515
700.000	425.049	79.991	19.992	100.068	19.807	10.170	0.503
702.000	426.040	79.989	19.992	100.072	19.807	10.172	0.491
704.000	427.067	79.986	19.993	100.056	19.806	10.242	0.510
706.000	428.067	79.989	19.992	100.057	19.809	10.024	0.499
708.000	429.097	79.988	19.993	100.059	19.809	10.020	0.506
710.000	430.146	79.987	19.992	100.060	19.813	9.719	0.529
712.000	431.135	79.987	19.991	100.061	19.815	9.527	0.517
714.000	432.155	79.987	19.992	100.059	19.818	9.347	0.501
716.000	433.130	79.987	19.992	100.061	19.821	9.093	0.491
718.000	434.170	79.987	19.991	100.059	19.819	9.222	0.523
720.000	435.188	79.987	19.992	100.059	19.818	9.311	0.504
722.000	436.147	79.987	19.993	100.057	19.822	9.015	0.475
724.000	437.139	79.986	19.994	100.059	19.825	8.825	0.502
726.000	438.165	79.987	19.993	100.058	19.825	8.824	0.486
728.000	439.207	79.987	19.992	100.057	19.825	8.772	0.538
730.001	440.171	79.987	19.992	100.056	19.827	8.639	0.534
732.000	441.085	79.987	19.994	100.058	19.829	8.477	0.483
734.000	442.063	79.986	19.992	100.057	19.831	8.335	0.474
736.000	443.072	79.986	19.991	100.059	19.829	8.483	0.500
738.000	444.038	79.986	19.993	100.060	19.829	8.460	0.495
740.000	445.004	79.986	19.994	100.059	19.833	8.157	0.452
742.000	446.004	79.987	19.992	100.060	19.835	7.995	0.505
744.000	447.001	79.987	19.992	100.060	19.837	7.895	0.515
746.000	447.976	79.987	19.993	100.059	19.837	7.850	0.494
748.000	448.974	79.987	19.992	100.059	19.837	7.900	0.514
750.000	449.902	79.988	19.992	100.060	19.837	7.889	0.495
752.000	450.924	79.988	19.991	100.060	19.837	7.872	0.471
754.000	451.930	79.986	19.992	100.061	19.839	7.675	0.543
756.000	452.922	79.986	19.991	100.062	19.841	7.567	0.510
758.000	453.889	79.987	19.991	100.068	19.842	7.455	0.475
760.000	454.923	79.988	19.992	100.060	19.844	7.301	0.538
762.000	455.937	79.988	19.992	100.060	19.844	7.313	0.500
764.001	456.917	79.986	19.992	100.060	19.847	7.108	0.505
766.000	457.911	79.989	19.992	100.057	19.850	6.842	0.523
768.000	458.914	79.988	19.993	100.056	19.850	6.869	0.533
770.000	459.889	79.988	19.992	100.058	19.849	6.931	0.495
772.000	460.953	79.989	19.992	100.060	19.848	7.049	0.498
774.000	461.944	79.989	19.991	100.059	19.851	6.763	0.510
776.000	462.967	79.989	19.991	100.058	19.852	6.730	0.492
778.000	463.989	79.991	19.991	100.063	19.853	6.645	0.531
780.000	465.004	79.990	19.991	100.056	19.854	6.588	0.477
782.000	466.018	79.991	19.992	100.057	19.855	6.518	0.508
784.000	467.050	79.989	19.993	100.054	19.858	6.281	0.529
786.000	468.057	79.988	19.992	100.056	19.856	6.368	0.511
788.000	469.102	79.988	19.993	100.056	19.858	6.240	0.533
790.000	470.104	79.987	19.993	100.057	19.859	6.196	0.530
792.000	471.111	79.987	19.993	100.053	19.858	6.233	0.512
794.000	472.147	79.988	19.993	100.059	19.859	6.159	0.506
796.000	473.225	79.988	19.993	100.060	19.863	5.874	0.530
798.000	474.244	79.987	19.993	100.059	19.860	6.104	0.512
800.000	475.293	79.988	19.992	100.060	19.860	6.109	0.521
802.000	476.319	79.985	19.992	100.061	19.863	5.860	0.536
804.000	477.327	79.987	19.992	100.060	19.865	5.702	0.491
806.000	478.360	79.988	19.992	100.059	19.864	5.787	0.493
808.000	479.348	79.986	19.994	100.058	19.865	5.702	0.497
810.000	480.444	79.986	19.992	100.060	19.865	5.710	0.551
812.000	481.441	79.985	19.993	100.064	19.866	5.621	0.497
814.000	482.519	79.985	19.993	100.059	19.865	5.725	0.551
816.000	483.523	79.986	19.994	100.059	19.866	5.640	0.537
818.000	484.540	79.986	19.993	100.059	19.867	5.558	0.491
820.000	485.591	79.985	19.993	100.060	19.866	5.618	0.563
822.000	486.615	79.984	19.993	100.063	19.868	5.498	0.554
824.000	487.594	79.985	19.993	100.062	19.871	5.220	0.449
826.000	488.652	79.986	19.991	100.065	19.867	5.552	0.499
828.000	489.699	79.987	19.992	100.060	19.868	5.508	0.521
830.000	490.696	79.987	19.992	100.057	19.867	5.550	0.518
832.000	491.755	79.988	19.992	100.057	19.871	5.253	0.552
834.000	492.797	79.988	19.991	100.055	19.868	5.506	0.541
836.000	493.828	79.988	19.992	100.054	19.867	5.571	0.531
838.000	494.854	79.989	19.992	100.057	19.867	5.564	0.513
840.000	495.899	79.988	19.992	100.059	19.868	5.510	0.514
842.000	496.906	79.987	19.992	100.057	19.870	5.342	0.507
844.000	497.915	79.987	19.992	100.057	19.870	5.301	0.502
846.000	498.978	79.988	19.992	100.057	19.870	5.347	0.527
848.000	499.950	79.987	19.991	100.057	19.870	5.351	0.502
850.000	500.982	79.988	19.993	100.058	19.869	5.384	0.513
852.000	502.036	79.989	19.992	100.058	19.868	5.457	0.496
854.000	503.104	79.990	19.992	100.059	19.869	5.384	0.563
856.000	504.113	79.989	19.991	100.061	19.873	5.110	0.554
858.000	505.127	79.989	19.992	100.060	19.867	5.546	0.525
860.000	506.152	79.989	19.991	100.062	19.869	5.365	0.520
862.000	507.196	79.989	19.991	100.060	19.871	5.251	0.555
864.000	508.195	79.988	19.990	100.060	19.870	5.293	0.510
866.000	509.259	79.988	19.991	100.059	19.870	5.336	0.534
868.000	510.266	79.987	19.992	100.057	19.871	5.226	0.502
870.000	511.285	79.986	19.993	100.059	19.872	5.182	0.497
872.000	512.265	79.986	19.991	100.061	19.877	4.800	0.496
874.000	513.312	79.986	19.993	100.064	19.876	4.850	0.498
876.000	514.382	79.986	19.992	100.062	19.874	5.004	0.516
878.000	515.416	79.985	19.993	100.060	19.877	4.802	0.522
880.000	516.456	79.986	19.991	100.060	19.875	4.960	0.518
882.000	517.507	79.986	19.992	100.061	19.879	4.634	0.513
884.000	518.608	79.986	19.992	100.061	19.875	4.929	0.573
886.000	519.639	79.988	19.995	100.061	19.878	4.740	0.549
888.000	520.700	79.987	19.993	100.061	19.877	4.783	0.515
890.000	521.685	79.987	19.990	100.059	19.877	4.812	0.480
892.000	522.726	79.987	19.993	100.057	19.875	4.920	0.511
894.000	523.760	79.986	19.992	100.055	19.875	4.927	0.510
896.000	524.847	79.986	19.993	100.055	19.877	4.773	0.516
898.000	525.889	79.986	19.994	100.057	19.878	4.740	0.523
900.000	526.922	79.987	19.993	100.056	19.873	5.070	0.515
902.000	527.956	79.985	19.994	100.055	19.877	4.777	0.501
904.000	528.976	79.987	19.993	100.055	19.873	5.089	0.493
906.000	530.034	79.985	19.993	100.057	19.874	5.051	0.523
908.000	531.058	79.986	19.993	100.055	19.877	4.812	0.524
910.000	532.053	79.987	19.993	100.057	19.877	4.762	0.499
912.000	533.074	79.986	19.992	100.057	19.876	4.823	0.517
914.000	534.133	79.988	19.992	100.054	19.877	4.758	0.562
916.000	535.147	79.988	19.991	100.054	19.875	4.968	0.551
918.000	536.196	79.987	19.993	100.055	19.878	4.675	0.518
920.000	537.152	79.987	19.992	100.052	19.879	4.620	0.502
922.000	538.220	79.987	19.991	100.056	19.878	4.738	0.534
924.000	539.222	79.987	19.991	100.054	19.878	4.682	0.502
926.000	540.275	79.988	19.992	100.056	19.876	4.846	0.533
928.000	541.293	79.987	19.992	100.050	19.877	4.765	0.503
930.000	542.312	79.987	19.991	100.060	19.874	5.014	0.515
932.000	543.347	79.988	19.992	100.060	19.878	4.669	0.539
934.000	544.312	79.989	19.992	100.057	19.875	4.900	0.525
936.000	545.322	79.989	19.992	100.061	19.877	4.821	0.523
938.000	546.338	79.989	19.992	100.060	19.876	4.881	0.497
940.000	547.396	79.989	19.992	100.059	19.878	4.692	0.522
942.000	548.444	79.989	19.991	100.060	19.878	4.707	0.550
944.000	549.412	79.989	19.991	100.061	19.879	4.641	0.513
946.000	550.449	79.988	19.991	100.063	19.881	4.470	0.514
948.000	551.476	79.988	19.990	100.062	19.878	4.698	0.513
950.000	552.474	79.987	19.992	100.061	19.878	4.680	0.527
952.000	553.529	79.988	19.992	100.062	19.880	4.586	0.507
954.000	554.573	79.987	19.992	100.068	19.881	4.457	0.504
956.000	555.630	79.986	19.992	100.063	19.879	4.640	0.516
958.000	556.617	79.987	19.993	100.060	19.880	4.578	0.507
960.000	557.680	79.988	19.992	100.059	19.880	4.515	0.527
962.000	558.645	79.987	19.992	100.059	19.879	4.607	0.449
964.000	559.663	79.988	19.992	100.058	19.878	4.690	0.504
966.000	560.679	79.987	19.993	100.058	19.878	4.725	0.502
968.000	561.729	79.988	19.993	100.056	19.875	4.931	0.524
970.000	562.759	79.987	19.992	100.057	19.876	4.852	0.520
972.000	563.718	79.987	19.993	100.056	19.877	4.794	0.509
974.000	564.763	79.988	19.992	100.057	19.877	4.798	0.504
976.000	565.768	79.987	19.992	100.056	19.880	4.574	0.502
978.000	566.768	79.988	19.992	100.054	19.876	4.827	0.516
980.000	567.787	79.987	19.993	100.062	19.878	4.682	0.513
982.000	568.747	79.986	19.992	100.057	19.878	4.734	0.500
984.000	569.805	79.987	19.993	100.057	19.878	4.727	0.533
986.000	570.827	79.987	19.993	100.062	19.880	4.532	0.524
988.000	571.900	79.987	19.994	100.058	19.876	4.856	0.524
990.000	572.885	79.987	19.993	100.056	19.879	4.651	0.503
992.000	573.923	79.987	19.993	100.058	19.879	4.659	0.492
994.000	574.976	79.988	19.992	100.061	19.883	4.304	0.507
996.000	575.987	79.989	19.992	100.058	19.882	4.418	0.502
998.000	577.011	79.989	19.993	100.056	19.880	4.559	0.503
1000.000	578.037	79.990	19.992	100.057	19.877	4.813	0.516
1002.000	579.043	79.990	19.992	100.059	19.877	4.796	0.506
1004.000	580.064	79.988	19.991	100.060	19.879	4.667	0.516
1006.000	581.084	79.988	19.991	100.060	19.879	4.630	0.496
1008.000	582.149	79.988	19.991	100.061	19.883	4.354	0.534
1010.000	583.166	79.988	19.991	100.062	19.879	4.661	0.529
1012.000	584.164	79.989	19.991	100.061	19.881	4.499	0.542
1014.000	585.141	79.988	19.992	100.064	19.879	4.663	0.475
1016.000	586.154	79.990	19.991	100.062	19.878	4.710	0.503
1018.000	587.206	79.990	19.992	100.059	19.875	4.968	0.514
1020.000	588.215	79.991	19.991	100.056	19.875	4.947	0.494
1022.001	589.240	79.990	19.991	100.055	19.876	4.837	0.525
1024.001	590.282	79.990	19.992	100.055	19.875	4.925	0.523
1026.000	591.254	79.989	19.992	100.049	19.877	4.813	0.510
1028.000	592.275	79.990	19.992	100.055	19.874	5.031	0.513
1030.000	593.298	79.988	19.992	100.057	19.877	4.754	0.496
1032.001	594.333	79.988	19.991	100.055	19.876	4.893	0.533
1034.001	595.319	79.989	19.993	100.057	19.874	5.037	0.491
1036.000	596.339	79.988	19.992	100.057	19.875	4.929	0.499
1038.000	597.372	79.990	19.991	100.057	19.876	4.894	0.506
1040.000	598.401	79.989	19.992	100.056	19.873	5.101	0.542
1042.000	599.400	79.990	19.992	100.053	19.875	4.931	0.520
1044.000	600.436	79.988	19.992	100.057	19.877	4.796	0.481
1046.000	601.482	79.989	19.991	100.057	19.880	4.557	0.517
1048.000	602.493	79.988	19.992	100.057	19.878	4.736	0.485
1050.000	603.527	79.989	19.992	100.058	19.880	4.578	0.508
1052.001	604.570	79.988	19.992	100.059	19.878	4.684	0.512
1054.000	605.619	79.987	19.992	100.057	19.877	4.806	0.522
1056.000	606.673	79.986	19.992	100.060	19.876	4.881	0.529
1058.000	607.723	79.986	19.992	100.060	19.878	4.680	0.541
1060.000	608.765	79.986	19.992	100.057	19.878	4.732	0.547
1062.001	609.800	79.988	19.993	100.060	19.877	4.763	0.518
1064.000	610.819	79.987	19.993	100.059	19.878	4.688	0.530
1066.000	611.874	79.986	19.992	100.062	19.877	4.772	0.504
1068.001	612.936	79.987	19.992	100.060	19.876	4.823	0.561
1070.000	614.016	79.987	19.992	100.061	19.880	4.517	0.518
1072.000	615.058	79.986	19.993	100.060	19.878	4.713	0.532
1074.000	616.138	79.989	19.993	100.060	19.876	4.873	0.548
1076.001	617.134	79.989	19.992	100.045	19.877	4.818	0.505
1078.000	618.173	79.987	19.993	100.048	19.877	4.821	0.514
1080.000	619.208	79.987	19.993	100.055	19.876	4.866	0.503
1082.000	620.254	79.988	19.993	100.055	19.875	4.954	0.521
1084.000	621.256	79.987	19.993	100.055	19.875	4.931	0.502
1086.000	622.264	79.987	19.993	100.050	19.874	4.978	0.492
1088.000	623.288	79.988	19.993	100.056	19.878	4.738	0.505
1090.000	624.303	79.989	19.992	100.052	19.877	4.769	0.512
1092.000	625.340	79.989	19.992	100.056	19.879	4.600	0.513
1094.001	626.326	79.990	19.991	100.055	19.878	4.733	0.459
1096.000	627.362	79.991	19.991	100.049	19.877	4.750	0.486
1098.000	628.359	79.989	19.991	100.054	19.878	4.684	0.487
1100.000	629.373	79.990	19.991	100.056	19.879	4.594	0.480
1102.000	630.410	79.990	19.991	100.052	19.879	4.642	0.505
1104.001	631.430	79.990	19.991	100.045	19.881	4.505	0.507
1106.000	632.399	79.989	19.991	100.053	19.881	4.501	0.495
1108.000	633.399	79.989	19.992	100.054	19.882	4.418	0.526
1110.000	634.404	79.988	19.992	100.054	19.881	4.460	0.486
1112.001	635.440	79.988	19.992	100.055	19.884	4.212	0.514
1114.000	636.485	79.988	19.993	100.052	19.883	4.335	0.509
1116.001	637.464	79.988	19.992	100.058	19.881	4.468	0.528
1118.000	638.441	79.987	19.992	100.056	19.882	4.374	0.518
1120.000	639.478	79.987	19.992	100.059	19.881	4.468	0.511
1122.000	640.491	79.987	19.991	100.060	19.877	4.798	0.510
1124.000	641.527	79.988	19.992	100.060	19.878	4.732	0.516
1126.000	642.568	79.987	19.991	100.057	19.880	4.563	0.538
1128.001	643.532	79.988	19.991	100.061	19.877	4.780	0.501
1130.000	644.556	79.989	19.990	100.060	19.875	4.904	0.520
1132.000	645.576	79.986	19.991	100.059	19.878	4.673	0.518
1134.000	646.563	79.986	19.991	100.060	19.876	4.837	0.498
1136.000	647.591	79.988	19.992	100.061	19.878	4.721	0.509
1138.000	648.612	79.987	19.992	100.061	19.875	4.925	0.501
1140.000	649.634	79.987	19.992	100.062	19.878	4.721	0.502
1142.000	650.660	79.986	19.993	100.061	19.880	4.574	0.516
1144.000	651.686	79.986	19.993	100.058	19.882	4.389	0.527
1146.001	652.712	79.987	19.993	100.057	19.880	4.578	0.552
1148.000	653.714	79.987	19.993	100.057	19.882	4.364	0.494
1150.000	654.761	79.988	19.992	100.055	19.884	4.252	0.525
1152.000	655.787	79.989	19.991	100.057	19.880	4.517	0.493
1154.000	656.802	79.988	19.992	100.056	19.879	4.642	0.506
1156.000	657.872	79.991	19.992	100.057	19.876	4.844	0.513
1158.000	658.938	79.991	19.993	100.055	19.878	4.713	0.548
1160.000	659.938	79.988	19.992	100.056	19.880	4.574	0.538
1162.000	660.978	79.989	19.992	100.052	19.879	4.609	0.519
1164.000	661.973	79.988	19.992	100.053	19.881	4.442	0.496
1166.001	663.019	79.988	19.992	99.989	19.881	4.490	0.504
1168.000	664.024	79.986	19.993	100.110	19.881	4.464	0.486
1170.000	664.990	79.988	19.993	100.058	19.881	4.445	0.462
1172.001	666.028	79.988	19.993	100.054	19.877	4.758	0.489
1174.000	667.045	79.988	19.993	100.042	19.879	4.638	0.512
1176.001	668.081	79.988	19.992	100.047	19.878	4.678	0.470
1178.001	669.131	79.989	19.992	100.051	19.876	4.843	0.518
1180.000	670.155	79.989	19.991	100.058	19.879	4.667	0.512
1182.001	671.170	79.991	19.991	100.057	19.876	4.829	0.518
1184.000	672.184	79.989	19.990	100.058	19.883	4.335	0.495
1186.000	673.233	79.990	19.991	100.059	19.878	4.701	0.515
1188.001	674.255	79.987	19.992	100.057	19.883	4.320	0.509
1190.001	675.278	79.987	19.992	100.051	19.883	4.308	0.487
1192.000	676.340	79.987	19.992	100.059	19.883	4.331	0.536
1194.000	677.327	79.988	19.992	100.053	19.882	4.389	0.497
1196.000	678.364	79.987	19.993	100.057	19.882	4.397	0.490
1198.000	679.407	79.987	19.992	100.059	19.882	4.364	0.529
1200.000	680.402	79.986	19.991	100.053	19.885	4.147	0.491
1202.000	681.505	79.987	19.992	100.060	19.885	4.187	0.547
1204.000	682.475	79.987	19.991	100.062	19.884	4.222	0.492
1206.000	683.467	79.987	19.991	100.051	19.883	4.293	0.498
1208.001	684.536	79.987	19.993	100.053	19.885	4.173	0.529
1210.000	685.535	79.988	19.991	100.047	19.884	4.223	0.505
1212.001	686.570	79.989	19.991	100.043	19.882	4.406	0.513
1214.001	687.601	79.987	19.991	100.056	19.880	4.520	0.516
1216.000	688.604	79.988	19.992	100.044	19.884	4.251	0.522
1218.000	689.655	79.988	19.991	100.052	19.882	4.399	0.525
1220.000	690.634	79.987	19.991	100.041	19.878	4.727	0.498
1222.001	691.663	79.987	19.992	99.973	19.881	4.482	0.514
1224.000	692.630	79.988	19.992	100.015	19.879	4.594	0.506
1226.000	693.676	79.986	19.992	100.120	19.881	4.451	0.513
1228.000	694.655	79.988	19.992	100.055	19.878	4.682	0.518
1230.000	695.687	79.988	19.992	100.056	19.880	4.563	0.506
1232.000	696.677	79.988	19.993	100.056	19.881	4.459	0.484
1234.000	697.711	79.989	19.992	100.057	19.879	4.613	0.483
1236.000	698.726	79.989	19.993	100.056	19.882	4.405	0.529
1238.000	699.728	79.990	19.992	100.055	19.881	4.453	0.476
1240.001	700.735	79.990	19.992	100.057	19.881	4.486	0.510
1242.001	701.715	79.989	19.992	100.055	19.880	4.588	0.495
1244.001	702.723	79.988	19.992	100.055	19.877	4.760	0.506
1246.000	703.759	79.986	19.992	100.055	19.879	4.609	0.521
1248.000	704.745	79.987	19.991	100.044	19.881	4.480	0.516
1250.001	705.752	79.987	19.992	100.054	19.878	4.677	0.480
1252.000	706.723	79.987	19.992	100.056	19.881	4.457	0.491
1254.000	707.741	79.988	19.993	100.049	19.879	4.632	0.508
1256.000	708.710	79.988	19.993	100.055	19.875	4.900	0.487
1258.000	709.750	79.988	19.992	100.058	19.877	4.746	0.517
1260.000	710.760	79.988	19.993	100.055	19.878	4.704	0.490
1262.001	711.793	79.990	19.993	100.059	19.881	4.489	0.499
1264.000	712.777	79.988	19.991	100.059	19.880	4.565	0.485
1266.000	713.807	79.987	19.991	100.059	19.883	4.299	0.508
1268.001	714.828	79.988	19.992	100.061	19.880	4.588	0.511
1270.000	715.855	79.987	19.992	100.052	19.883	4.329	0.530
1272.000	716.872	79.987	19.991	100.058	19.879	4.598	0.513
1274.000	717.866	79.986	19.993	100.055	19.881	4.466	0.517
1276.000	718.897	79.988	19.992	100.054	19.882	4.385	0.520
1278.000	719.916	79.987	19.991	100.048	19.879	4.619	0.512
1280.000	720.913	79.987	19.992	100.053	19.879	4.636	0.514
1282.001	721.941	79.989	19.992	100.053	19.880	4.553	0.505
1284.000	722.956	79.987	19.992	100.050	19.878	4.690	0.488
1286.000	723.942	79.988	19.992	100.056	19.877	4.768	0.509
1288.000	725.021	79.987	19.992	100.057	19.880	4.559	0.527
1290.000	726.026	79.988	19.992	100.056	19.877	4.792	0.527
1292.000	726.989	79.987	19.992	100.058	19.881	4.476	0.496
1294.000	727.959	79.987	19.993	100.054	19.879	4.654	0.492
1296.000	729.055	79.988	19.993	100.046	19.884	4.266	0.531
1298.001	730.031	79.988	19.992	100.046	19.880	4.567	0.508
1300.000	731.088	79.989	19.991	100.055	19.881	4.439	0.542
1302.000	732.090	79.987	19.991	100.056	19.879	4.647	0.490
1304.001	733.134	79.987	19.991	100.057	19.879	4.653	0.540
1306.000	734.120	79.987	19.992	100.050	19.882	4.430	0.525
1308.000	735.128	79.989	19.992	100.058	19.879	4.650	0.476
1310.001	736.210	79.988	19.991	100.059	19.875	4.930	0.518
1312.000	737.198	79.988	19.992	100.062	19.879	4.601	0.530
1314.000	738.221	79.989	19.992	100.060	19.877	4.792	0.533
1316.000	739.256	79.988	19.992	100.057	19.879	4.655	0.520
1318.000	740.307	79.988	19.992	100.056	19.879	4.592	0.533
1320.000	741.306	79.988	19.992	100.048	19.881	4.464	0.524
1322.001	742.342	79.988	19.992	100.046	19.878	4.688	0.528
1324.001	743.336	79.986	19.992	100.058	19.880	4.567	0.480