File: 01_Data/Pressure_Treated_Deck/MCC/Pressure_Treated_Deck_30K_min_210608_R1.txt
Sample ID:	C:\MCC\MCC Cal\Test\Pressure_Treated_Deck\Pressure_Treated_Deck_30_1.txt
Sample Weight (mg):	3.21
Heating Rate (C/s):	0.5
Combustor Temp (C):	900
N2 Flow Rate (cc/min):	80
O2 Flow Rate (cc/min):	20
Calibration File:	C:\MCC\MCC Cal\Coeff1 JN10440_30_210304.txt.txt
T Correction Coefficients:	0	1.024463	0
Time Shift (s):	14
*
Time (s)	Temperature (C)	N2 flow rate (cc/min)	O2 flow rate (cc/min)	Flow Rate (cc/min)	Oxygen (%)	HRR (W/g)	Heating rate (C/s)
0.000	112.360	79.986	19.993	99.866	19.972	0.123	0.010
1.500	112.332	79.985	19.993	99.866	19.971	0.202	-0.026
3.000	112.321	79.984	19.992	99.867	19.970	0.298	-0.019
4.500	112.350	79.986	19.992	99.869	19.969	0.448	0.029
6.000	112.303	79.985	19.992	99.890	19.972	0.175	-0.032
7.500	112.315	79.986	19.992	99.905	19.967	0.574	-0.012
9.000	112.308	79.986	19.993	99.910	19.967	0.647	0.017
10.500	112.317	79.986	19.993	99.916	19.963	1.014	0.024
12.000	112.326	79.988	19.992	99.924	19.962	1.053	-0.001
13.500	112.352	79.987	19.993	99.939	19.965	0.838	-0.003
15.000	112.381	79.988	19.993	99.947	19.961	1.190	0.000
16.500	112.459	79.987	19.991	99.967	19.958	1.455	0.059
18.000	112.456	79.988	19.992	99.990	19.959	1.436	0.003
19.500	112.562	79.987	19.993	99.992	19.952	2.028	0.083
21.000	112.682	79.986	19.993	99.999	19.951	2.128	0.063
22.500	112.759	79.986	19.992	100.020	19.952	2.073	0.070
24.000	112.827	79.987	19.992	100.032	19.947	2.592	0.056
25.500	113.012	79.987	19.994	100.054	19.946	2.613	0.114
27.000	113.159	79.986	19.992	100.064	19.946	2.681	0.101
28.500	113.360	79.987	19.992	100.061	19.942	3.079	0.130
30.000	113.519	79.988	19.994	100.061	19.938	3.439	0.117
31.500	113.799	79.987	19.994	100.061	19.938	3.426	0.174
33.000	113.979	79.989	19.993	100.059	19.939	3.379	0.114
34.500	114.247	79.988	19.993	100.059	19.940	3.277	0.179
36.000	114.492	79.989	19.994	100.059	19.931	4.158	0.169
37.500	114.760	79.988	19.993	100.058	19.932	4.053	0.181
39.000	115.044	79.989	19.992	100.062	19.931	4.103	0.185
40.501	115.323	79.988	19.994	100.080	19.935	3.708	0.187
42.000	115.667	79.987	19.992	100.086	19.930	4.261	0.203
43.500	115.978	79.986	19.993	100.091	19.929	4.313	0.204
45.000	116.301	79.987	19.992	100.099	19.929	4.344	0.232
46.500	116.630	79.987	19.993	100.100	19.927	4.547	0.234
48.000	117.084	79.986	19.993	100.105	19.928	4.414	0.302
49.500	117.439	79.987	19.994	100.106	19.929	4.355	0.238
51.000	117.827	79.985	19.993	100.106	19.925	4.749	0.258
52.500	118.212	79.986	19.992	100.121	19.930	4.253	0.273
54.000	118.657	79.985	19.992	100.114	19.931	4.114	0.295
55.500	119.093	79.987	19.992	100.107	19.927	4.495	0.296
57.001	119.566	79.985	19.992	100.104	19.927	4.553	0.319
58.501	120.041	79.987	19.993	100.124	19.928	4.396	0.328
60.000	120.535	79.986	19.991	100.123	19.930	4.254	0.314
61.501	121.045	79.985	19.992	100.117	19.930	4.204	0.346
63.001	121.590	79.987	19.992	100.121	19.924	4.842	0.339
64.500	122.044	79.986	19.992	100.119	19.923	4.915	0.302
66.000	122.569	79.985	19.992	100.127	19.927	4.545	0.351
67.501	123.104	79.987	19.992	100.128	19.927	4.487	0.360
69.001	123.687	79.986	19.992	100.137	19.924	4.802	0.399
70.500	124.223	79.987	19.992	100.139	19.925	4.663	0.360
72.000	124.852	79.986	19.991	100.140	19.922	5.023	0.401
73.500	125.392	79.985	19.992	100.141	19.921	5.091	0.366
75.001	125.964	79.985	19.992	100.139	19.926	4.619	0.399
76.500	126.577	79.985	19.991	100.139	19.926	4.574	0.409
78.000	127.178	79.987	19.991	100.136	19.924	4.813	0.408
79.500	127.759	79.986	19.992	100.138	19.928	4.373	0.385
81.000	128.386	79.985	19.991	100.140	19.923	4.944	0.396
82.500	128.973	79.985	19.992	100.138	19.926	4.592	0.402
84.000	129.674	79.984	19.992	100.138	19.920	5.200	0.455
85.500	130.286	79.987	19.993	100.138	19.925	4.728	0.401
87.000	130.929	79.987	19.992	100.141	19.925	4.668	0.440
88.501	131.549	79.986	19.992	100.138	19.923	4.875	0.439
90.001	132.184	79.987	19.991	100.146	19.927	4.503	0.428
91.500	132.873	79.987	19.991	100.146	19.924	4.839	0.455
93.000	133.526	79.987	19.992	100.122	19.921	5.059	0.440
94.501	134.212	79.987	19.992	100.118	19.925	4.668	0.444
96.001	134.881	79.987	19.993	100.124	19.923	4.923	0.440
97.500	135.560	79.987	19.993	100.130	19.921	5.075	0.454
99.000	136.255	79.987	19.992	100.133	19.923	4.857	0.450
100.500	136.953	79.986	19.992	100.135	19.925	4.702	0.463
102.001	137.620	79.985	19.993	100.137	19.925	4.734	0.440
103.500	138.374	79.986	19.991	100.135	19.922	4.946	0.483
105.001	139.042	79.986	19.992	100.134	19.924	4.770	0.455
106.500	139.709	79.986	19.992	100.133	19.926	4.602	0.457
108.000	140.448	79.986	19.992	100.134	19.926	4.579	0.480
109.500	141.161	79.987	19.992	100.136	19.927	4.549	0.451
111.000	141.911	79.988	19.993	100.138	19.926	4.625	0.514
112.500	142.632	79.987	19.992	100.134	19.926	4.610	0.479
114.000	143.355	79.987	19.993	100.134	19.927	4.471	0.489
115.500	144.110	79.988	19.992	100.125	19.922	4.987	0.519
117.000	144.822	79.989	19.992	100.124	19.925	4.654	0.466
118.500	145.542	79.988	19.993	100.134	19.925	4.704	0.479
120.000	146.236	79.988	19.992	100.119	19.925	4.654	0.459
121.501	147.033	79.986	19.992	100.104	19.929	4.274	0.535
123.001	147.756	79.986	19.992	100.112	19.927	4.518	0.489
124.501	148.515	79.985	19.992	100.115	19.925	4.680	0.501
126.001	149.255	79.985	19.994	100.113	19.928	4.386	0.512
127.500	150.016	79.985	19.992	100.115	19.932	3.972	0.484
129.000	150.722	79.987	19.994	100.111	19.928	4.394	0.467
130.500	151.467	79.985	19.992	100.113	19.926	4.622	0.476
132.000	152.231	79.987	19.992	100.110	19.928	4.449	0.524
133.501	152.971	79.987	19.992	100.108	19.925	4.709	0.523
135.000	153.743	79.986	19.992	100.105	19.923	4.916	0.518
136.500	154.489	79.986	19.991	100.107	19.926	4.625	0.493
138.000	155.196	79.987	19.992	100.108	19.927	4.525	0.474
139.500	155.994	79.988	19.992	100.111	19.929	4.342	0.540
141.000	156.760	79.987	19.992	100.106	19.931	4.074	0.517
142.500	157.479	79.986	19.993	100.105	19.929	4.295	0.486
144.000	158.244	79.987	19.992	100.106	19.933	3.930	0.514
145.500	159.012	79.987	19.991	100.108	19.927	4.496	0.510
147.000	159.729	79.987	19.991	100.108	19.926	4.617	0.480
148.500	160.492	79.985	19.992	100.104	19.930	4.231	0.494
150.000	161.272	79.986	19.992	100.110	19.929	4.287	0.527
151.500	161.995	79.986	19.992	100.110	19.930	4.247	0.492
153.000	162.754	79.985	19.991	100.104	19.931	4.077	0.506
154.500	163.544	79.987	19.992	100.104	19.931	4.161	0.525
156.000	164.294	79.985	19.993	100.103	19.933	3.912	0.496
157.500	165.085	79.986	19.994	100.099	19.932	3.998	0.502
159.001	165.822	79.987	19.992	100.098	19.929	4.278	0.499
160.500	166.551	79.988	19.993	100.102	19.930	4.236	0.494
162.000	167.330	79.988	19.992	100.103	19.933	3.935	0.527
163.500	168.063	79.987	19.992	100.101	19.929	4.313	0.491
165.001	168.805	79.987	19.992	100.100	19.932	3.990	0.506
166.500	169.574	79.986	19.992	100.100	19.931	4.111	0.502
168.000	170.324	79.988	19.992	100.098	19.931	4.108	0.513
169.500	171.053	79.988	19.992	100.097	19.932	3.990	0.487
171.000	171.844	79.989	19.992	100.094	19.933	3.930	0.505
172.500	172.596	79.989	19.991	100.092	19.933	3.932	0.504
174.000	173.321	79.989	19.993	100.095	19.935	3.751	0.498
175.500	174.074	79.988	19.991	100.098	19.930	4.178	0.511
177.000	174.825	79.988	19.992	100.097	19.930	4.200	0.505
178.500	175.549	79.987	19.991	100.098	19.933	3.922	0.490
180.000	176.319	79.987	19.992	100.096	19.936	3.641	0.487
181.500	177.078	79.988	19.992	100.097	19.932	4.021	0.497
183.000	177.842	79.987	19.993	100.097	19.933	3.890	0.521
184.500	178.569	79.987	19.992	100.093	19.935	3.748	0.489
186.000	179.330	79.986	19.993	100.084	19.933	3.942	0.512
187.500	180.053	79.989	19.993	100.089	19.931	4.154	0.491
189.000	180.813	79.987	19.991	100.093	19.933	3.921	0.519
190.500	181.548	79.989	19.993	100.094	19.931	4.094	0.508
192.000	182.342	79.988	19.992	100.091	19.932	4.049	0.544
193.500	183.073	79.990	19.993	100.090	19.931	4.089	0.489
195.000	183.780	79.989	19.992	100.076	19.930	4.169	0.469
196.500	184.522	79.988	19.991	100.071	19.930	4.252	0.499
198.000	185.300	79.987	19.991	100.078	19.930	4.202	0.528
199.500	186.050	79.988	19.993	100.073	19.927	4.498	0.492
201.000	186.812	79.989	19.993	100.068	19.933	3.903	0.510
202.500	187.507	79.987	19.993	100.054	19.935	3.745	0.464
204.000	188.278	79.985	19.993	100.074	19.935	3.701	0.526
205.500	189.002	79.985	19.993	100.103	19.932	4.010	0.491
207.000	189.749	79.985	19.992	100.101	19.932	3.989	0.475
208.500	190.501	79.985	19.994	100.079	19.933	3.939	0.506
210.000	191.239	79.986	19.993	100.081	19.935	3.706	0.492
211.500	191.988	79.986	19.993	100.085	19.936	3.672	0.497
213.000	192.685	79.985	19.993	100.072	19.936	3.596	0.466
214.500	193.415	79.985	19.993	100.069	19.936	3.638	0.486
216.000	194.240	79.985	19.992	100.069	19.936	3.675	0.536
217.500	194.904	79.987	19.992	100.068	19.936	3.669	0.447
219.000	195.640	79.989	19.994	100.070	19.934	3.819	0.491
220.500	196.379	79.988	19.992	100.072	19.933	3.923	0.488
222.000	197.150	79.987	19.993	100.065	19.931	4.093	0.500
223.500	197.895	79.988	19.992	100.068	19.936	3.661	0.515
225.000	198.610	79.988	19.992	100.071	19.936	3.630	0.476
226.500	199.336	79.987	19.991	100.071	19.933	3.884	0.494
228.000	200.097	79.986	19.993	100.065	19.933	3.963	0.512
229.500	200.819	79.986	19.992	100.067	19.938	3.438	0.468
231.000	201.560	79.986	19.992	100.069	19.937	3.554	0.475
232.500	202.299	79.988	19.993	100.061	19.936	3.638	0.486
234.000	203.011	79.985	19.991	100.065	19.934	3.839	0.484
235.500	203.773	79.988	19.992	100.073	19.937	3.538	0.493
237.000	204.487	79.986	19.992	100.065	19.936	3.659	0.503
238.500	205.223	79.986	19.993	100.063	19.933	3.934	0.503
240.000	205.946	79.985	19.992	100.065	19.930	4.172	0.479
241.500	206.706	79.985	19.992	100.063	19.935	3.716	0.484
243.000	207.479	79.987	19.992	100.068	19.932	4.023	0.513
244.500	208.160	79.987	19.993	100.055	19.932	4.036	0.442
246.000	208.915	79.988	19.993	100.056	19.934	3.782	0.479
247.500	209.637	79.987	19.993	100.072	19.931	4.099	0.477
249.000	210.395	79.987	19.993	100.073	19.932	4.039	0.512
250.500	211.157	79.988	19.991	100.062	19.932	4.020	0.482
252.000	211.868	79.987	19.993	100.063	19.932	3.999	0.465
253.500	212.612	79.987	19.993	100.069	19.930	4.217	0.513
255.000	213.339	79.987	19.991	100.065	19.928	4.369	0.484
256.500	214.041	79.986	19.992	100.065	19.925	4.741	0.452
258.000	214.810	79.987	19.991	100.066	19.927	4.550	0.504
259.500	215.544	79.987	19.991	100.066	19.928	4.403	0.486
261.000	216.292	79.987	19.992	100.067	19.930	4.259	0.497
262.500	217.037	79.986	19.991	100.067	19.927	4.508	0.499
264.000	217.764	79.987	19.992	100.065	19.927	4.469	0.487
265.500	218.480	79.987	19.993	100.064	19.924	4.749	0.480
267.000	219.262	79.986	19.994	100.064	19.924	4.778	0.497
268.500	219.980	79.987	19.992	100.065	19.925	4.731	0.478
270.000	220.718	79.987	19.992	100.064	19.921	5.061	0.497
271.500	221.449	79.989	19.992	100.063	19.921	5.074	0.515
273.000	222.212	79.989	19.992	100.063	19.922	4.958	0.521
274.500	222.967	79.988	19.993	100.066	19.923	4.922	0.513
276.000	223.714	79.986	19.991	100.065	19.920	5.147	0.514
277.500	224.484	79.988	19.993	100.067	19.919	5.296	0.509
279.000	225.261	79.988	19.993	100.067	19.919	5.268	0.513
280.500	225.944	79.988	19.992	100.064	19.918	5.346	0.475
282.000	226.736	79.988	19.992	100.064	19.918	5.386	0.501
283.500	227.451	79.988	19.994	100.064	19.913	5.860	0.451
285.000	228.222	79.987	19.992	100.062	19.912	5.918	0.528
286.500	228.992	79.986	19.993	100.063	19.910	6.117	0.508
288.000	229.754	79.985	19.993	100.061	19.911	6.067	0.507
289.500	230.529	79.986	19.993	100.061	19.910	6.161	0.523
291.000	231.263	79.985	19.992	100.062	19.911	6.082	0.495
292.500	231.996	79.985	19.993	100.062	19.914	5.813	0.482
294.000	232.812	79.986	19.993	100.061	19.908	6.376	0.528
295.500	233.531	79.985	19.994	100.061	19.908	6.371	0.494
297.000	234.254	79.987	19.993	100.064	19.909	6.237	0.477
298.500	235.008	79.986	19.992	100.060	19.904	6.753	0.509
300.000	235.764	79.987	19.993	100.062	19.904	6.782	0.504
301.500	236.524	79.987	19.993	100.060	19.903	6.861	0.500
303.000	237.268	79.986	19.992	100.058	19.901	7.026	0.489
304.500	237.989	79.986	19.992	100.060	19.900	7.175	0.475
306.000	238.742	79.987	19.993	100.059	19.903	6.832	0.500
307.500	239.484	79.986	19.992	100.062	19.903	6.882	0.478
309.000	240.254	79.986	19.992	100.063	19.898	7.367	0.504
310.500	241.005	79.986	19.992	100.061	19.894	7.734	0.485
312.000	241.734	79.985	19.992	100.063	19.896	7.472	0.502
313.500	242.520	79.984	19.991	100.061	19.897	7.406	0.504
315.000	243.234	79.985	19.991	100.061	19.895	7.647	0.483
316.500	243.990	79.986	19.992	100.062	19.895	7.652	0.503
318.000	244.732	79.984	19.991	100.064	19.894	7.744	0.499
319.500	245.485	79.987	19.992	100.064	19.890	8.127	0.483
321.000	246.305	79.985	19.993	100.062	19.891	7.957	0.542
322.500	246.995	79.987	19.992	100.063	19.890	8.127	0.453
324.000	247.752	79.986	19.991	100.063	19.887	8.378	0.508
325.500	248.510	79.986	19.991	100.065	19.886	8.449	0.514
327.001	249.324	79.987	19.992	100.064	19.889	8.234	0.533
328.500	250.068	79.988	19.991	100.056	19.886	8.468	0.512
330.000	250.808	79.987	19.992	100.059	19.883	8.793	0.498
331.500	251.583	79.986	19.991	100.066	19.883	8.779	0.535
333.000	252.322	79.986	19.992	100.066	19.876	9.424	0.497
334.500	253.027	79.986	19.991	100.062	19.880	9.107	0.450
336.000	253.808	79.985	19.991	100.062	19.880	9.057	0.516
337.500	254.549	79.987	19.991	100.063	19.874	9.698	0.495
339.000	255.286	79.986	19.992	100.063	19.870	10.060	0.482
340.500	256.044	79.987	19.992	100.063	19.875	9.588	0.500
342.000	256.793	79.987	19.993	100.062	19.869	10.190	0.491
343.500	257.548	79.987	19.993	100.060	19.871	9.980	0.503
345.000	258.240	79.988	19.992	100.060	19.870	10.077	0.481
346.500	259.025	79.988	19.993	100.060	19.867	10.294	0.525
348.000	259.763	79.988	19.993	100.060	19.861	10.941	0.492
349.500	260.486	79.989	19.992	100.020	19.859	11.070	0.491
351.000	261.252	79.988	19.991	99.981	19.864	10.606	0.486
352.500	261.961	79.989	19.992	100.124	19.861	10.961	0.506
354.000	262.675	79.987	19.993	100.132	19.861	10.917	0.481
355.500	263.454	79.987	19.991	100.062	19.854	11.643	0.502
357.000	264.253	79.987	19.994	100.062	19.853	11.677	0.521
358.500	265.009	79.986	19.993	100.061	19.851	11.856	0.502
360.000	265.781	79.986	19.993	100.060	19.848	12.181	0.502
361.500	266.544	79.987	19.994	100.064	19.846	12.406	0.500
363.000	267.288	79.985	19.993	100.066	19.842	12.782	0.504
364.500	268.041	79.985	19.994	100.072	19.840	12.991	0.506
366.000	268.755	79.986	19.993	100.077	19.837	13.245	0.486
367.500	269.546	79.987	19.992	100.077	19.836	13.406	0.525
369.000	270.291	79.986	19.992	100.078	19.828	14.137	0.496
370.500	271.053	79.986	19.992	100.082	19.829	14.037	0.488
372.000	271.834	79.987	19.993	100.081	19.826	14.288	0.529
373.500	272.578	79.986	19.993	100.085	19.819	15.022	0.488
375.000	273.322	79.986	19.992	100.084	19.819	15.011	0.504
376.500	274.047	79.986	19.993	100.080	19.812	15.640	0.508
378.000	274.822	79.986	19.993	100.087	19.809	16.002	0.504
379.500	275.559	79.986	19.994	100.094	19.804	16.509	0.494
381.000	276.331	79.985	19.994	100.086	19.804	16.468	0.506
382.500	277.067	79.987	19.994	100.094	19.794	17.398	0.499
384.000	277.840	79.986	19.995	100.096	19.795	17.385	0.502
385.500	278.598	79.986	19.993	100.094	19.794	17.492	0.495
387.000	279.342	79.986	19.992	100.069	19.791	17.779	0.487
388.500	280.060	79.985	19.992	100.030	19.787	18.117	0.498
390.000	280.788	79.986	19.993	100.113	19.783	18.555	0.510
391.500	281.554	79.987	19.993	100.156	19.780	18.827	0.510
393.000	282.315	79.984	19.991	100.096	19.776	19.181	0.513
394.500	283.061	79.986	19.993	100.087	19.774	19.362	0.480
396.000	283.797	79.983	19.992	100.095	19.766	20.195	0.496
397.500	284.526	79.984	19.992	100.103	19.764	20.412	0.470
399.000	285.310	79.985	19.992	100.104	19.763	20.449	0.529
400.500	286.066	79.986	19.992	100.104	19.756	21.097	0.519
402.000	286.796	79.985	19.993	100.104	19.756	21.190	0.487
403.500	287.545	79.986	19.992	100.102	19.748	21.892	0.510
405.000	288.269	79.987	19.992	100.103	19.741	22.605	0.483
406.500	289.026	79.987	19.992	100.100	19.741	22.630	0.507
408.000	289.804	79.989	19.992	100.099	19.737	22.997	0.527
409.500	290.552	79.987	19.992	100.098	19.734	23.331	0.495
411.000	291.284	79.988	19.992	100.099	19.730	23.721	0.474
412.500	292.021	79.986	19.993	100.107	19.724	24.274	0.493
414.000	292.792	79.986	19.992	100.107	19.721	24.537	0.502
415.500	293.564	79.988	19.993	100.101	19.717	24.931	0.509
417.000	294.310	79.987	19.992	100.105	19.711	25.501	0.496
418.500	295.026	79.989	19.993	100.119	19.710	25.604	0.475
420.000	295.766	79.988	19.992	100.117	19.704	26.235	0.486
421.500	296.492	79.987	19.991	100.107	19.704	26.169	0.486
423.000	297.234	79.989	19.993	100.118	19.695	27.080	0.496
424.500	298.000	79.988	19.993	100.124	19.690	27.571	0.495
426.000	298.751	79.989	19.993	100.125	19.687	27.900	0.481
427.500	299.502	79.989	19.992	100.122	19.682	28.322	0.503
429.000	300.265	79.989	19.992	100.115	19.685	28.079	0.502
430.500	300.962	79.989	19.991	100.113	19.675	29.077	0.469
432.000	301.742	79.989	19.991	100.114	19.674	29.122	0.524
433.500	302.479	79.989	19.992	100.127	19.663	30.166	0.502
435.000	303.228	79.988	19.992	100.134	19.660	30.464	0.485
436.500	303.953	79.987	19.992	100.131	19.661	30.428	0.484
438.000	304.680	79.986	19.992	100.127	19.653	31.191	0.472
439.500	305.409	79.987	19.993	100.136	19.649	31.521	0.495
441.000	306.166	79.986	19.994	100.137	19.647	31.792	0.517
442.500	306.905	79.986	19.992	100.135	19.638	32.656	0.506
444.000	307.681	79.984	19.992	100.090	19.634	33.025	0.517
445.500	308.403	79.985	19.993	100.038	19.630	33.393	0.483
447.000	309.195	79.985	19.993	100.171	19.629	33.509	0.511
448.500	309.895	79.985	19.992	100.210	19.623	34.113	0.474
450.000	310.672	79.987	19.993	100.144	19.619	34.535	0.504
451.500	311.426	79.986	19.994	100.153	19.611	35.226	0.501
453.000	312.207	79.985	19.992	100.089	19.606	35.707	0.511
454.500	312.959	79.986	19.992	100.066	19.607	35.683	0.510
456.000	313.727	79.985	19.993	100.197	19.603	36.050	0.510
457.500	314.468	79.985	19.992	100.210	19.597	36.647	0.490
459.000	315.235	79.986	19.992	100.149	19.594	36.894	0.505
460.500	315.995	79.986	19.993	100.144	19.587	37.556	0.523
462.001	316.756	79.985	19.993	100.146	19.582	38.102	0.499
463.500	317.498	79.986	19.994	100.141	19.574	38.847	0.499
465.000	318.235	79.985	19.993	100.140	19.575	38.813	0.487
466.500	319.023	79.985	19.994	100.142	19.570	39.254	0.514
468.000	319.773	79.984	19.993	100.141	19.561	40.179	0.493
469.500	320.553	79.984	19.994	100.146	19.559	40.339	0.524
471.000	321.291	79.984	19.995	100.141	19.556	40.639	0.497
472.500	322.016	79.983	19.995	100.148	19.548	41.393	0.473
474.000	322.809	79.985	19.993	100.149	19.550	41.233	0.545
475.500	323.559	79.985	19.992	100.138	19.541	42.055	0.506
477.000	324.284	79.985	19.994	100.148	19.537	42.484	0.472
478.500	325.035	79.987	19.992	100.151	19.534	42.732	0.503
480.000	325.834	79.987	19.991	100.153	19.524	43.771	0.551
481.500	326.600	79.988	19.994	100.166	19.520	44.162	0.511
483.000	327.345	79.989	19.993	100.154	19.515	44.647	0.507
484.500	328.077	79.988	19.992	100.152	19.509	45.162	0.483
486.000	328.886	79.989	19.992	100.156	19.507	45.434	0.537
487.500	329.653	79.987	19.994	100.154	19.503	45.830	0.508
489.000	330.335	79.989	19.992	100.169	19.494	46.652	0.477
490.500	331.132	79.987	19.992	100.163	19.491	46.996	0.509
492.000	331.887	79.987	19.993	100.166	19.488	47.248	0.489
493.500	332.627	79.987	19.992	100.175	19.481	47.910	0.468
495.000	333.400	79.987	19.993	100.176	19.476	48.420	0.507
496.500	334.167	79.987	19.993	100.176	19.467	49.344	0.503
498.001	334.938	79.986	19.993	100.175	19.466	49.383	0.527
499.500	335.689	79.987	19.993	100.176	19.458	50.157	0.509
501.000	336.415	79.986	19.992	100.177	19.455	50.508	0.493
502.500	337.225	79.987	19.992	100.177	19.449	51.017	0.538
504.000	337.946	79.987	19.993	100.178	19.447	51.293	0.494
505.500	338.695	79.988	19.991	100.179	19.440	51.953	0.524
507.000	339.469	79.987	19.992	100.179	19.431	52.791	0.523
508.500	340.178	79.989	19.991	100.181	19.427	53.175	0.463
510.001	340.972	79.989	19.992	100.184	19.423	53.572	0.520
511.500	341.711	79.988	19.991	100.190	19.414	54.479	0.488
513.000	342.470	79.987	19.991	100.185	19.411	54.763	0.505
514.500	343.234	79.987	19.991	100.184	19.404	55.402	0.510
516.000	344.013	79.988	19.991	100.180	19.400	55.799	0.520
517.500	344.758	79.986	19.992	100.183	19.396	56.235	0.502
519.000	345.506	79.986	19.991	100.183	19.390	56.853	0.510
520.500	346.241	79.986	19.992	100.190	19.382	57.550	0.507
522.000	347.011	79.986	19.991	100.195	19.379	57.849	0.490
523.500	347.746	79.985	19.992	100.202	19.374	58.399	0.484
525.000	348.550	79.985	19.992	100.204	19.370	58.804	0.535
526.500	349.310	79.986	19.992	100.192	19.364	59.328	0.506
528.000	350.065	79.984	19.992	100.195	19.360	59.699	0.496
529.500	350.830	79.985	19.993	100.196	19.358	59.887	0.516
531.000	351.567	79.984	19.992	100.206	19.349	60.751	0.488
532.500	352.325	79.986	19.995	100.205	19.348	60.902	0.517
534.000	353.125	79.986	19.993	100.206	19.341	61.558	0.523
535.500	353.900	79.986	19.993	100.205	19.340	61.691	0.499
537.000	354.676	79.986	19.993	100.200	19.335	62.128	0.524
538.500	355.432	79.986	19.993	100.200	19.331	62.511	0.509
540.000	356.185	79.987	19.993	100.196	19.329	62.772	0.508
541.500	356.942	79.986	19.991	100.191	19.327	62.931	0.499
543.000	357.708	79.986	19.992	100.202	19.324	63.235	0.501
544.500	358.462	79.986	19.992	100.193	19.323	63.304	0.491
546.000	359.188	79.987	19.992	100.184	19.325	63.103	0.500
547.500	359.958	79.985	19.991	100.184	19.322	63.364	0.505
549.000	360.763	79.986	19.993	100.183	19.324	63.233	0.543
550.500	361.513	79.985	19.994	100.182	19.323	63.299	0.505
552.000	362.242	79.985	19.994	100.179	19.334	62.249	0.497
553.500	363.008	79.985	19.993	100.177	19.338	61.820	0.508
555.000	363.782	79.985	19.992	100.177	19.342	61.438	0.523
556.500	364.504	79.985	19.994	100.170	19.348	60.816	0.482
558.000	365.276	79.986	19.994	100.154	19.351	60.529	0.518
559.500	366.044	79.986	19.993	100.149	19.362	59.456	0.518
561.000	366.761	79.987	19.994	100.148	19.369	58.797	0.483
562.500	367.558	79.987	19.993	100.141	19.381	57.616	0.519
564.000	368.345	79.989	19.993	100.126	19.398	55.954	0.515
565.500	369.077	79.987	19.994	100.121	19.410	54.765	0.516
567.000	369.855	79.988	19.993	100.123	19.428	53.045	0.524
568.500	370.589	79.986	19.991	100.107	19.439	51.940	0.472
570.000	371.341	79.988	19.991	100.101	19.452	50.658	0.513
571.500	372.087	79.987	19.993	100.101	19.470	48.909	0.513
573.000	372.892	79.986	19.992	100.095	19.489	47.133	0.560
574.500	373.628	79.985	19.992	100.077	19.503	45.720	0.497
576.000	374.383	79.987	19.993	100.064	19.521	43.943	0.504
577.500	375.117	79.986	19.992	100.032	19.546	41.585	0.500
579.000	375.933	79.987	19.992	99.987	19.568	39.438	0.539
580.500	376.663	79.987	19.992	100.024	19.589	37.326	0.474
582.000	377.469	79.986	19.992	100.032	19.610	35.354	0.512
583.500	378.148	79.987	19.989	100.075	19.632	33.211	0.464
585.000	378.908	79.987	19.990	100.108	19.653	31.137	0.507
586.500	379.670	79.989	19.992	100.036	19.674	29.046	0.509
588.000	380.425	79.987	19.992	100.023	19.693	27.286	0.500
589.500	381.218	79.987	19.992	100.021	19.712	25.355	0.519
591.000	381.990	79.987	19.992	100.009	19.722	24.380	0.503
592.500	382.719	79.988	19.991	99.998	19.743	22.354	0.465
594.000	383.445	79.988	19.992	99.996	19.758	20.953	0.513
595.500	384.221	79.986	19.991	99.995	19.776	19.186	0.495
597.000	384.980	79.987	19.991	99.993	19.790	17.862	0.498
598.500	385.720	79.988	19.992	99.996	19.804	16.442	0.490
600.000	386.477	79.986	19.992	100.008	19.813	15.612	0.515
601.500	387.245	79.986	19.993	100.002	19.825	14.396	0.504
603.000	387.987	79.987	19.993	99.987	19.833	13.628	0.513
604.500	388.761	79.985	19.992	99.985	19.840	12.916	0.511
606.000	389.451	79.986	19.993	99.992	19.850	11.941	0.459
607.500	390.251	79.986	19.992	99.989	19.856	11.438	0.521
609.000	390.992	79.987	19.992	99.992	19.861	10.925	0.521
610.500	391.747	79.985	19.993	99.999	19.867	10.375	0.481
612.000	392.486	79.987	19.994	99.995	19.874	9.632	0.491
613.500	393.298	79.987	19.994	99.987	19.878	9.302	0.525
615.001	394.016	79.985	19.992	99.987	19.876	9.485	0.484
616.500	394.779	79.985	19.993	99.989	19.881	8.956	0.507
618.000	395.543	79.985	19.993	99.984	19.883	8.810	0.487
619.500	396.302	79.987	19.993	99.985	19.884	8.698	0.528
621.000	397.023	79.985	19.992	99.987	19.886	8.462	0.505
622.500	397.837	79.987	19.994	99.988	19.888	8.244	0.544
624.000	398.588	79.987	19.992	99.990	19.890	8.103	0.498
625.500	399.355	79.984	19.991	99.987	19.888	8.328	0.521
627.000	400.129	79.985	19.993	99.984	19.890	8.050	0.479
628.500	400.812	79.986	19.992	99.985	19.895	7.587	0.468
630.000	401.575	79.985	19.993	100.001	19.902	6.940	0.486
631.500	402.385	79.985	19.992	100.003	19.900	7.155	0.521
633.000	403.110	79.986	19.994	99.991	19.897	7.419	0.509
634.500	403.848	79.985	19.994	99.989	19.903	6.817	0.469
636.000	404.622	79.985	19.993	99.992	19.898	7.301	0.507
637.500	405.331	79.985	19.993	99.993	19.899	7.197	0.475
639.000	406.134	79.988	19.994	99.990	19.901	7.029	0.534
640.500	406.922	79.985	19.994	99.986	19.905	6.600	0.522
642.000	407.700	79.986	19.994	99.991	19.906	6.584	0.534
643.500	408.451	79.987	19.993	99.987	19.911	6.102	0.507
645.000	409.255	79.986	19.993	99.987	19.907	6.461	0.507
646.500	409.989	79.985	19.994	99.989	19.908	6.311	0.459
648.000	410.704	79.986	19.993	99.992	19.908	6.337	0.451
649.500	411.459	79.987	19.993	99.987	19.913	5.832	0.519
651.000	412.285	79.985	19.992	99.989	19.915	5.691	0.525
652.500	413.011	79.984	19.992	99.999	19.909	6.269	0.521
654.000	413.747	79.987	19.992	99.999	19.909	6.253	0.493
655.500	414.451	79.987	19.992	99.996	19.913	5.842	0.508
657.000	415.245	79.987	19.991	99.984	19.910	6.167	0.508
658.500	416.063	79.987	19.992	99.982	19.915	5.706	0.464
660.000	416.693	79.987	19.992	99.985	19.910	6.154	0.519
661.500	417.491	79.987	19.991	99.990	19.919	5.311	0.582
663.000	418.312	79.988	19.991	99.985	19.916	5.601	0.660
664.500	419.452	79.988	19.992	99.980	19.920	5.143	0.708
666.000	419.597	79.987	19.991	99.981	19.920	5.203	0.023
667.500	420.772	79.988	19.992	99.983	19.918	5.405	0.756
669.000	421.249	79.988	19.992	99.982	19.918	5.389	0.485
670.500	422.107	79.987	19.993	99.981	19.917	5.431	0.615
672.000	422.828	79.987	19.991	99.981	19.919	5.269	0.469
673.500	423.537	79.986	19.992	99.981	19.921	5.038	0.517
675.000	424.342	79.986	19.993	99.981	19.920	5.135	0.538
676.500	425.097	79.985	19.992	99.979	19.923	4.878	0.497
678.000	425.849	79.986	19.993	99.978	19.923	4.928	0.488
679.500	426.562	79.986	19.992	99.978	19.924	4.795	0.461
681.000	427.387	79.987	19.992	99.977	19.927	4.473	0.501
682.500	428.061	79.987	19.993	99.982	19.930	4.250	0.478
684.000	428.801	79.986	19.992	99.982	19.929	4.294	0.488
685.500	429.585	79.986	19.993	99.982	19.927	4.465	0.523
687.001	430.289	79.985	19.992	99.981	19.931	4.063	0.451
688.500	431.026	79.985	19.991	99.982	19.928	4.373	0.458
690.000	431.787	79.986	19.992	99.984	19.928	4.363	0.505
691.500	432.480	79.985	19.992	99.984	19.932	3.980	0.458
693.000	433.313	79.985	19.993	99.983	19.935	3.713	0.502
694.500	434.027	79.985	19.991	99.984	19.935	3.700	0.494
696.000	434.804	79.986	19.992	99.929	19.929	4.310	0.498
697.500	435.456	79.985	19.992	99.926	19.932	4.054	0.441
699.000	436.236	79.984	19.992	100.040	19.938	3.459	0.524
700.500	437.001	79.984	19.994	100.035	19.937	3.512	0.485
702.000	437.754	79.984	19.993	99.979	19.938	3.422	0.484
703.500	438.473	79.983	19.993	99.983	19.940	3.190	0.483
705.000	439.244	79.985	19.993	99.985	19.942	3.080	0.519
706.500	439.978	79.984	19.994	99.985	19.938	3.464	0.507
708.000	440.744	79.985	19.993	99.985	19.943	2.975	0.499
709.500	441.490	79.984	19.993	99.985	19.943	2.951	0.497
711.000	442.234	79.985	19.994	99.983	19.942	3.072	0.539
712.500	442.928	79.985	19.993	99.981	19.943	2.948	0.482
714.000	443.715	79.985	19.994	99.984	19.948	2.469	0.518
715.500	444.495	79.985	19.993	99.984	19.945	2.734	0.523
717.000	445.184	79.987	19.992	99.984	19.947	2.522	0.480
718.500	445.936	79.986	19.992	99.982	19.944	2.820	0.498
720.000	446.731	79.986	19.993	99.979	19.946	2.687	0.500
721.500	447.437	79.987	19.994	99.981	19.949	2.338	0.482
723.000	448.220	79.986	19.993	99.978	19.946	2.689	0.522
724.500	448.965	79.987	19.993	99.972	19.944	2.804	0.504
726.000	449.706	79.986	19.994	99.974	19.947	2.550	0.488
727.500	450.480	79.987	19.994	99.979	19.949	2.351	0.488
729.000	451.250	79.987	19.994	99.979	19.950	2.294	0.513
730.500	452.028	79.986	19.993	99.979	19.948	2.430	0.524
732.000	452.791	79.987	19.993	99.977	19.949	2.341	0.497
733.500	453.489	79.984	19.993	99.977	19.948	2.490	0.466
735.000	454.286	79.988	19.992	99.977	19.948	2.443	0.530
736.500	455.077	79.989	19.993	99.964	19.948	2.430	0.520
738.000	455.799	79.988	19.993	99.971	19.950	2.286	0.487
739.500	456.583	79.988	19.992	99.976	19.953	2.003	0.515
741.000	457.338	79.988	19.990	99.973	19.951	2.205	0.509
742.500	458.068	79.988	19.992	99.978	19.958	1.487	0.478
744.000	458.874	79.988	19.992	99.978	19.955	1.747	0.551
745.500	459.623	79.987	19.992	99.980	19.955	1.794	0.500
747.000	460.358	79.986	19.993	99.977	19.962	1.147	0.501
748.500	461.149	79.986	19.992	99.977	19.960	1.267	0.510
750.000	461.877	79.986	19.993	99.981	19.958	1.495	0.491
751.500	462.656	79.986	19.993	99.983	19.961	1.241	0.515
753.000	463.422	79.983	19.993	99.981	19.961	1.189	0.524
754.500	464.164	79.985	19.992	99.976	19.960	1.317	0.510
756.000	464.959	79.985	19.992	99.984	19.961	1.223	0.533
757.500	465.722	79.985	19.992	99.985	19.960	1.309	0.513
759.000	466.510	79.985	19.992	99.984	19.961	1.184	0.551
760.500	467.252	79.985	19.992	99.981	19.960	1.286	0.504
762.000	468.018	79.985	19.992	99.981	19.967	0.644	0.519
763.500	468.829	79.985	19.992	99.983	19.961	1.189	0.541
765.000	469.585	79.984	19.991	99.979	19.963	0.985	0.504
766.500	470.371	79.986	19.991	99.980	19.969	0.411	0.519
768.000	471.088	79.984	19.992	99.984	19.971	0.186	0.476
769.500	471.909	79.986	19.991	99.984	19.967	0.571	0.520
771.000	472.641	79.984	19.991	99.984	19.967	0.613	0.506
772.500	473.428	79.986	19.991	99.985	19.970	0.296	0.524
774.000	474.163	79.985	19.992	99.986	19.963	0.956	0.518
775.500	474.968	79.985	19.990	99.985	19.966	0.665	0.536
777.000	475.745	79.986	19.991	99.985	19.962	1.102	0.499
778.500	476.500	79.985	19.991	99.984	19.969	0.398	0.510
780.000	477.259	79.985	19.991	99.975	19.966	0.681	0.491
781.500	478.040	79.984	19.992	99.975	19.962	1.071	0.510
783.000	478.814	79.985	19.993	99.976	19.966	0.699	0.509
784.500	479.579	79.985	19.993	99.979	19.964	0.930	0.510
786.000	480.352	79.985	19.993	99.977	19.962	1.100	0.499
787.500	481.102	79.986	19.993	99.980	19.965	0.835	0.503
789.000	481.840	79.986	19.993	99.981	19.965	0.838	0.484
790.500	482.609	79.986	19.992	99.979	19.963	1.024	0.514
792.000	483.339	79.987	19.993	99.979	19.964	0.916	0.513
793.500	484.117	79.986	19.993	99.982	19.966	0.694	0.526
795.000	484.882	79.986	19.993	99.981	19.968	0.503	0.533
796.500	485.643	79.986	19.992	99.979	19.968	0.545	0.517
798.000	486.386	79.988	19.993	99.975	19.969	0.374	0.471
799.500	487.160	79.986	19.992	99.974	19.967	0.641	0.511
801.000	487.893	79.987	19.993	99.975	19.969	0.395	0.500
802.501	488.648	79.987	19.993	99.975	19.972	0.118	0.507
804.000	489.453	79.987	19.993	99.974	19.970	0.369	0.554
805.500	490.224	79.985	19.993	99.976	19.970	0.338	0.509
807.000	490.979	79.984	19.993	99.978	19.970	0.275	0.538
808.500	491.731	79.986	19.992	99.979	19.971	0.207	0.503
810.000	492.534	79.985	19.993	99.966	19.971	0.209	0.525
811.500	493.324	79.986	19.993	99.966	19.975	-0.139	0.514
813.000	494.140	79.986	19.993	99.972	19.973	0.068	0.517
814.500	494.862	79.985	19.993	99.962	19.977	-0.348	0.492
816.000	495.657	79.987	19.994	99.974	19.975	-0.136	0.540
817.500	496.461	79.987	19.992	99.976	19.976	-0.304	0.524
819.000	497.195	79.987	19.992	99.977	19.973	-0.008	0.477
820.500	497.991	79.987	19.992	99.979	19.973	0.050	0.513
822.000	498.790	79.988	19.992	99.980	19.972	0.128	0.539
823.500	499.539	79.988	19.992	99.978	19.975	-0.173	0.506
825.000	500.326	79.989	19.992	99.975	19.972	0.097	0.515
826.500	501.123	79.988	19.991	99.982	19.974	-0.029	0.528
828.000	501.900	79.988	19.991	99.982	19.968	0.508	0.530
829.500	502.675	79.986	19.991	99.982	19.972	0.152	0.514
831.000	503.437	79.985	19.993	99.981	19.970	0.322	0.502
832.500	504.161	79.987	19.991	99.981	19.971	0.183	0.512
834.000	504.939	79.986	19.991	99.980	19.969	0.385	0.514
835.500	505.736	79.987	19.992	99.982	19.972	0.100	0.518
837.000	506.468	79.983	19.992	99.985	19.970	0.280	0.496
838.500	507.236	79.986	19.991	99.983	19.971	0.257	0.525
840.000	507.980	79.986	19.992	99.975	19.975	-0.183	0.502
841.500	508.722	79.985	19.991	99.981	19.974	-0.113	0.502
843.000	509.516	79.985	19.993	99.981	19.974	-0.081	0.524
844.500	510.311	79.985	19.992	99.979	19.977	-0.364	0.525
846.000	511.053	79.985	19.993	99.982	19.976	-0.285	0.511
847.500	511.816	79.985	19.991	99.981	19.977	-0.354	0.506
849.000	512.594	79.985	19.991	99.979	19.976	-0.238	0.524
850.500	513.363	79.987	19.992	99.978	19.979	-0.568	0.530
852.000	514.145	79.985	19.992	99.980	19.975	-0.209	0.541
853.500	514.929	79.989	19.992	99.982	19.978	-0.416	0.524
855.000	515.715	79.985	19.991	99.982	19.979	-0.584	0.540
856.500	516.511	79.987	19.992	99.983	19.980	-0.623	0.552
858.000	517.261	79.986	19.991	99.981	19.980	-0.634	0.482
859.500	518.041	79.986	19.992	99.974	19.979	-0.532	0.509
861.000	518.820	79.985	19.993	99.975	19.979	-0.555	0.515
862.500	519.649	79.986	19.992	99.979	19.977	-0.369	0.557
864.000	520.399	79.985	19.993	99.971	19.978	-0.453	0.495
865.500	521.186	79.985	19.994	99.969	19.978	-0.422	0.526
867.000	521.982	79.988	19.993	99.970	19.976	-0.233	0.519
868.500	522.725	79.988	19.993	99.972	19.980	-0.657	0.485
870.000	523.498	79.985	19.993	99.979	19.981	-0.725	0.530
871.500	524.285	79.987	19.993	99.979	19.983	-0.906	0.519
873.000	525.047	79.987	19.993	99.980	19.980	-0.686	0.505
874.500	525.785	79.985	19.992	99.980	19.979	-0.534	0.487
876.000	526.559	79.986	19.991	99.979	19.981	-0.720	0.517
877.500	527.329	79.987	19.993	99.971	19.981	-0.699	0.518
879.000	528.139	79.988	19.992	99.970	19.976	-0.293	0.572
880.500	528.876	79.986	19.993	99.979	19.977	-0.395	0.500
882.000	529.682	79.986	19.993	99.982	19.974	-0.081	0.525
883.500	530.475	79.987	19.993	99.983	19.978	-0.424	0.532
885.000	531.257	79.985	19.992	99.984	19.978	-0.498	0.518
886.500	532.036	79.987	19.994	99.982	19.979	-0.542	0.517
888.000	532.783	79.987	19.993	99.976	19.978	-0.487	0.493
889.500	533.552	79.985	19.992	99.974	19.980	-0.647	0.532
891.000	534.333	79.987	19.993	99.979	19.981	-0.754	0.536
892.500	535.144	79.986	19.993	99.987	19.980	-0.691	0.522
894.000	535.855	79.984	19.992	99.989	19.981	-0.728	0.473
895.500	536.628	79.987	19.993	99.987	19.979	-0.584	0.508
897.000	537.377	79.987	19.993	99.987	19.977	-0.374	0.507
898.500	538.203	79.989	19.993	99.983	19.983	-0.933	0.559
900.000	538.964	79.989	19.993	99.980	19.981	-0.715	0.506
901.500	539.731	79.988	19.993	99.977	19.978	-0.461	0.498
903.000	540.519	79.987	19.993	99.980	19.979	-0.542	0.519
904.500	541.272	79.985	19.994	99.977	19.976	-0.272	0.512
906.000	542.041	79.986	19.993	99.978	19.974	-0.113	0.519
907.500	542.836	79.986	19.993	99.909	19.973	0.037	0.520
909.000	543.581	79.984	19.992	99.976	19.976	-0.254	0.503
910.500	544.299	79.986	19.992	100.042	19.980	-0.628	0.502
912.001	545.073	79.988	19.992	99.985	19.978	-0.440	0.501
913.500	545.837	79.985	19.992	99.981	19.977	-0.361	0.487
915.000	546.619	79.986	19.992	99.981	19.977	-0.377	0.509
916.500	547.387	79.986	19.993	99.979	19.977	-0.343	0.508
918.000	548.179	79.987	19.992	99.980	19.975	-0.128	0.536
919.500	548.933	79.985	19.991	99.979	19.975	-0.183	0.510
921.000	549.665	79.986	19.992	99.977	19.978	-0.482	0.496
922.500	550.466	79.987	19.993	99.974	19.978	-0.414	0.533
924.000	551.262	79.986	19.992	99.966	19.980	-0.610	0.529
925.500	551.974	79.988	19.993	99.969	19.981	-0.791	0.471
927.001	552.788	79.986	19.993	99.981	19.980	-0.634	0.540
928.500	553.523	79.986	19.992	99.980	19.980	-0.655	0.482
930.000	554.303	79.986	19.994	99.979	19.977	-0.333	0.533
931.500	555.126	79.986	19.993	99.982	19.978	-0.458	0.549
933.000	555.824	79.985	19.994	99.976	19.976	-0.283	0.475
934.500	556.609	79.987	19.992	99.975	19.978	-0.500	0.512
936.000	557.381	79.984	19.992	99.980	19.980	-0.691	0.515
937.500	558.153	79.985	19.992	99.981	19.979	-0.542	0.529
939.000	558.940	79.985	19.993	99.972	19.977	-0.390	0.523
940.500	559.695	79.985	19.992	99.971	19.978	-0.443	0.531
942.000	560.435	79.984	19.992	99.984	19.978	-0.448	0.508
943.500	561.177	79.985	19.992	99.983	19.978	-0.477	0.504
945.000	561.942	79.987	19.991	99.985	19.981	-0.780	0.510
946.500	562.703	79.985	19.993	99.983	19.979	-0.579	0.529
948.000	563.489	79.987	19.991	99.982	19.980	-0.683	0.521
949.500	564.247	79.985	19.991	99.981	19.982	-0.864	0.509
951.000	564.970	79.989	19.991	99.982	19.977	-0.359	0.486
952.500	565.750	79.988	19.991	99.981	19.982	-0.872	0.510
954.000	566.492	79.987	19.992	99.976	19.984	-1.063	0.487
955.500	567.252	79.986	19.992	99.979	19.980	-0.691	0.509
957.000	568.034	79.984	19.992	99.983	19.980	-0.634	0.501
958.500	568.802	79.986	19.991	99.984	19.985	-1.089	0.487
960.000	569.565	79.986	19.993	99.977	19.981	-0.754	0.498
961.500	570.286	79.986	19.990	99.981	19.980	-0.621	0.471
963.000	571.079	79.985	19.992	99.982	19.984	-1.021	0.529
964.500	571.860	79.986	19.992	99.984	19.978	-0.471	0.522
966.000	572.624	79.986	19.992	99.977	19.979	-0.545	0.504
967.500	573.398	79.986	19.992	99.975	19.983	-0.964	0.527
969.000	574.204	79.988	19.993	99.979	19.977	-0.390	0.556
970.500	574.989	79.988	19.993	99.978	19.981	-0.754	0.511
972.000	575.749	79.991	19.993	99.980	19.978	-0.432	0.512
973.500	576.511	79.987	19.992	99.978	19.975	-0.149	0.516
975.000	577.248	79.989	19.992	99.979	19.982	-0.812	0.500
976.500	578.054	79.989	19.993	99.978	19.981	-0.710	0.536
978.000	578.825	79.989	19.992	99.976	19.977	-0.369	0.483
979.500	579.554	79.988	19.993	99.978	19.982	-0.812	0.491
981.000	580.367	79.989	19.993	99.978	19.977	-0.393	0.535
982.500	581.091	79.986	19.992	99.978	19.978	-0.458	0.504
984.000	581.875	79.989	19.993	99.980	19.980	-0.602	0.511
985.500	582.637	79.985	19.993	99.978	19.977	-0.398	0.505
987.000	583.399	79.986	19.993	99.977	19.977	-0.330	0.518
988.500	584.122	79.985	19.993	99.975	19.974	-0.060	0.485
990.000	584.931	79.988	19.994	99.976	19.978	-0.422	0.534
991.500	585.693	79.988	19.993	99.979	19.976	-0.251	0.497
993.000	586.463	79.986	19.993	99.979	19.978	-0.474	0.539
994.500	587.221	79.986	19.993	99.978	19.976	-0.309	0.508
996.000	587.970	79.985	19.992	99.980	19.979	-0.516	0.513
997.500	588.752	79.986	19.992	99.980	19.976	-0.259	0.536
999.000	589.531	79.986	19.991	99.982	19.982	-0.809	0.523
1000.500	590.308	79.987	19.992	99.983	19.983	-0.927	0.516
1002.000	591.066	79.988	19.992	99.983	19.974	-0.045	0.497
1003.500	591.848	79.987	19.992	99.983	19.978	-0.411	0.528
1005.000	592.582	79.985	19.991	99.984	19.978	-0.495	0.507
1006.500	593.387	79.987	19.992	99.985	19.976	-0.238	0.542
1008.000	594.192	79.987	19.992	99.984	19.980	-0.605	0.525
1009.500	594.976	79.987	19.992	99.984	19.981	-0.699	0.542
1011.000	595.720	79.987	19.992	99.984	19.981	-0.744	0.495
1012.500	596.497	79.987	19.993	99.983	19.981	-0.699	0.508
1014.000	597.285	79.985	19.992	99.984	19.982	-0.851	0.543
1015.500	598.064	79.985	19.993	99.983	19.981	-0.707	0.525
1017.000	598.801	79.985	19.993	99.984	19.982	-0.848	0.494
1018.500	599.611	79.985	19.992	99.985	19.978	-0.463	0.535
1020.000	600.366	79.985	19.993	99.981	19.980	-0.647	0.513
1021.500	601.100	79.985	19.993	99.980	19.982	-0.867	0.499
1023.000	601.928	79.985	19.992	99.985	19.983	-0.901	0.556
1024.501	602.683	79.986	19.992	99.987	19.982	-0.864	0.511
1026.000	603.457	79.986	19.991	99.982	19.980	-0.660	0.519
1027.500	604.245	79.986	19.992	99.978	19.981	-0.728	0.529
1029.001	604.998	79.988	19.993	99.980	19.981	-0.699	0.480
1030.500	605.746	79.987	19.993	99.983	19.981	-0.715	0.512
1032.001	606.545	79.988	19.991	99.982	19.980	-0.691	0.532
1033.500	607.274	79.988	19.991	99.982	19.976	-0.262	0.475
1035.000	608.060	79.987	19.991	99.982	19.981	-0.715	0.500
1036.500	608.872	79.989	19.993	99.980	19.980	-0.691	0.538
1038.000	609.573	79.987	19.992	99.978	19.981	-0.788	0.468
1039.500	610.320	79.988	19.992	99.971	19.977	-0.377	0.508
1041.000	611.093	79.987	19.992	99.965	19.978	-0.424	0.531
1042.500	611.877	79.986	19.993	99.971	19.982	-0.809	0.541
1044.001	612.637	79.986	19.993	99.972	19.981	-0.764	0.521
1045.500	613.389	79.987	19.992	99.978	19.981	-0.720	0.497
1047.000	614.176	79.986	19.993	99.980	19.983	-0.903	0.554
1048.501	614.957	79.987	19.992	99.971	19.980	-0.657	0.527
1050.001	615.708	79.988	19.993	99.971	19.978	-0.497	0.473
1051.500	616.466	79.989	19.993	99.978	19.980	-0.602	0.510
1053.000	617.273	79.988	19.993	99.977	19.980	-0.610	0.535
1054.501	617.993	79.988	19.993	99.962	19.978	-0.453	0.487
1056.000	618.780	79.989	19.992	99.963	19.976	-0.244	0.540
1057.501	619.543	79.989	19.992	99.961	19.977	-0.387	0.494
1059.000	620.279	79.989	19.992	99.958	19.978	-0.422	0.482
1060.500	621.075	79.988	19.991	99.958	19.979	-0.552	0.511
1062.000	621.817	79.987	19.993	99.971	19.975	-0.212	0.503
1063.501	622.607	79.986	19.992	99.977	19.976	-0.277	0.525
1065.000	623.354	79.985	19.993	99.973	19.981	-0.770	0.479
1066.500	624.115	79.985	19.992	99.976	19.979	-0.532	0.503
1068.000	624.883	79.986	19.992	99.967	19.978	-0.471	0.481
1069.501	625.598	79.985	19.993	99.964	19.979	-0.576	0.495
1071.000	626.348	79.984	19.994	99.978	19.978	-0.424	0.501
1072.500	627.132	79.986	19.993	99.964	19.979	-0.584	0.531
1074.001	627.900	79.986	19.994	99.955	19.980	-0.689	0.489
1075.500	628.657	79.986	19.994	99.957	19.982	-0.851	0.507
1077.000	629.423	79.985	19.993	99.968	19.981	-0.736	0.523
1078.500	630.166	79.985	19.994	99.972	19.981	-0.731	0.474
1080.001	630.954	79.985	19.992	99.974	19.984	-1.024	0.511
1081.500	631.671	79.985	19.993	99.973	19.977	-0.393	0.474
1083.000	632.466	79.984	19.993	99.970	19.982	-0.817	0.520
1084.500	633.213	79.985	19.993	99.971	19.980	-0.610	0.484
1086.000	633.977	79.986	19.992	99.983	19.979	-0.600	0.507
1087.500	634.808	79.987	19.992	99.977	19.975	-0.162	0.523
1089.000	635.563	79.985	19.992	99.970	19.982	-0.846	0.519
1090.501	636.282	79.984	19.992	99.976	19.982	-0.848	0.468
1092.001	637.060	79.987	19.991	99.972	19.979	-0.573	0.512
1093.500	637.828	79.985	19.993	99.967	19.982	-0.809	0.494
1095.000	638.589	79.985	19.993	99.976	19.980	-0.697	0.489
1096.501	639.307	79.986	19.993	99.969	19.980	-0.670	0.484
1098.001	640.077	79.986	19.993	99.970	19.981	-0.749	0.518
1099.500	640.855	79.984	19.993	99.969	19.978	-0.471	0.511
1101.000	641.608	79.984	19.992	99.970	19.980	-0.623	0.500
1102.500	642.367	79.984	19.992	99.969	19.978	-0.419	0.506
1104.000	643.125	79.985	19.993	99.964	19.981	-0.749	0.515
1105.500	643.845	79.987	19.992	99.979	19.979	-0.532	0.462
1107.001	644.619	79.987	19.993	99.972	19.977	-0.380	0.490
1108.500	645.362	79.987	19.992	99.973	19.977	-0.395	0.497
1110.000	646.106	79.985	19.992	99.978	19.981	-0.731	0.482
1111.501	646.915	79.985	19.992	99.965	19.979	-0.516	0.532
1113.000	647.644	79.986	19.992	99.965	19.978	-0.487	0.480
1114.500	648.395	79.989	19.992	99.968	19.979	-0.592	0.494
1116.001	649.206	79.986	19.992	99.973	19.979	-0.576	0.551
1117.501	649.937	79.987	19.992	99.978	19.981	-0.733	0.482
1119.000	650.735	79.986	19.993	99.978	19.982	-0.799	0.514
1120.500	651.490	79.987	19.992	99.975	19.981	-0.744	0.503
1122.000	652.269	79.986	19.992	99.977	19.983	-0.916	0.506
1123.500	653.008	79.987	19.991	99.976	19.980	-0.691	0.493
1125.001	653.791	79.985	19.992	99.974	19.980	-0.605	0.525
1126.500	654.589	79.987	19.990	99.976	19.980	-0.691	0.504
1128.000	655.392	79.986	19.991	99.975	19.981	-0.778	0.551
1129.501	656.141	79.987	19.992	99.970	19.980	-0.649	0.498
1131.000	656.917	79.987	19.993	99.963	19.983	-0.956	0.506
1132.500	657.663	79.989	19.992	99.971	19.981	-0.783	0.538
1134.000	658.372	79.988	19.992	99.977	19.977	-0.387	0.443
1135.501	659.197	79.987	19.991	99.974	19.979	-0.600	0.552
1137.001	659.988	79.987	19.992	99.977	19.981	-0.770	0.544
1138.500	660.775	79.988	19.993	99.975	19.981	-0.788	0.512
1140.000	661.517	79.987	19.992	99.975	19.977	-0.374	0.471
1141.500	662.268	79.986	19.992	99.977	19.979	-0.553	0.492
1143.001	663.060	79.984	19.992	99.977	19.975	-0.126	0.534
1144.500	663.788	79.985	19.994	99.969	19.979	-0.563	0.491
1146.001	664.556	79.986	19.992	99.970	19.977	-0.348	0.511
1147.500	665.336	79.985	19.993	99.983	19.980	-0.639	0.538
1149.000	666.105	79.987	19.992	99.984	19.981	-0.775	0.508
1150.501	666.852	79.986	19.992	99.982	19.981	-0.723	0.489
1152.000	667.603	79.985	19.992	99.983	19.981	-0.793	0.494
1153.500	668.388	79.985	19.992	99.978	19.977	-0.382	0.526
1155.000	669.136	79.985	19.993	99.965	19.980	-0.626	0.487
1156.500	669.916	79.986	19.993	99.970	19.980	-0.626	0.511
1158.001	670.646	79.984	19.992	99.974	19.985	-1.162	0.504
1159.501	671.429	79.986	19.995	99.967	19.986	-1.197	0.526
1161.001	672.171	79.985	19.994	99.977	19.984	-1.084	0.501
1162.500	672.966	79.986	19.994	99.978	19.985	-1.176	0.513
1164.000	673.713	79.986	19.993	99.977	19.985	-1.176	0.489
1165.500	674.516	79.986	19.993	99.977	19.984	-1.079	0.536
1167.000	675.274	79.987	19.993	99.978	19.984	-1.087	0.492
1168.501	676.039	79.986	19.993	99.960	19.981	-0.731	0.514
1170.001	676.792	79.986	19.993	99.964	19.983	-0.971	0.508
1171.501	677.576	79.986	19.992	99.980	19.983	-0.940	0.544
1173.001	678.384	79.986	19.992	99.981	19.986	-1.202	0.514
1174.501	679.108	79.985	19.994	99.982	19.985	-1.118	0.493
1176.000	679.893	79.984	19.992	99.974	19.985	-1.118	0.523
1177.501	680.645	79.986	19.993	99.972	19.984	-1.074	0.523
1179.000	681.419	79.987	19.992	99.980	19.985	-1.178	0.502
1180.501	682.200	79.984	19.992	99.980	19.985	-1.097	0.540
1182.000	682.956	79.986	19.992	99.976	19.987	-1.299	0.497
1183.501	683.719	79.988	19.992	99.970	19.986	-1.275	0.510
1185.001	684.460	79.987	19.992	99.979	19.984	-1.013	0.496
1186.500	685.215	79.986	19.992	99.976	19.985	-1.134	0.522
1188.000	686.003	79.987	19.992	99.974	19.988	-1.388	0.522
1189.500	686.730	79.987	19.992	99.978	19.986	-1.228	0.485
1191.001	687.499	79.988	19.992	99.981	19.984	-1.069	0.510
1192.501	688.254	79.986	19.992	99.982	19.985	-1.181	0.501
1194.001	689.045	79.986	19.991	99.983	19.983	-0.903	0.538
1195.500	689.823	79.986	19.992	99.984	19.982	-0.841	0.519
1197.001	690.570	79.985	19.991	99.981	19.984	-1.013	0.485
1198.500	691.330	79.986	19.992	99.977	19.983	-0.917	0.501
1200.000	692.071	79.985	19.992	99.983	19.980	-0.652	0.489
1201.500	692.809	79.988	19.992	99.995	19.982	-0.801	0.486
1203.000	693.602	79.987	19.992	99.993	19.984	-1.021	0.540
1204.500	694.330	79.986	19.992	99.978	19.984	-0.995	0.480
1206.000	695.056	79.986	19.992	99.977	19.983	-0.927	0.510
1207.500	695.825	79.987	19.991	99.984	19.983	-0.937	0.500
1209.000	696.628	79.989	19.992	99.984	19.985	-1.134	0.519
1210.500	697.361	79.989	19.991	99.985	19.982	-0.807	0.503
1212.000	698.068	79.989	19.991	99.977	19.985	-1.155	0.497
1213.501	698.829	79.988	19.992	99.973	19.984	-0.992	0.500
1215.000	699.586	79.989	19.992	99.978	19.981	-0.728	0.529
1216.501	700.336	79.989	19.993	99.978	19.982	-0.854	0.524
1218.000	701.113	79.988	19.993	99.971	19.982	-0.814	0.510
1219.501	701.856	79.987	19.992	99.968	19.978	-0.453	0.496
1221.000	702.613	79.986	19.992	99.977	19.981	-0.702	0.509
1222.500	703.402	79.987	19.994	99.978	19.980	-0.613	0.522
1224.001	704.106	79.986	19.992	99.969	19.982	-0.817	0.482
1225.500	704.862	79.984	19.993	99.970	19.982	-0.806	0.505
1227.000	705.603	79.986	19.992	99.980	19.980	-0.605	0.491
1228.500	706.365	79.987	19.992	99.980	19.977	-0.390	0.507
1230.000	707.112	79.985	19.993	99.978	19.982	-0.854	0.490
1231.500	707.903	79.985	19.993	99.978	19.983	-0.961	0.523
1233.000	708.642	79.985	19.993	99.978	19.981	-0.796	0.494
1234.500	709.384	79.986	19.993	99.976	19.984	-1.021	0.519
1236.000	710.129	79.986	19.992	99.971	19.981	-0.778	0.493
1237.500	710.900	79.986	19.992	99.972	19.979	-0.518	0.519
1239.000	711.663	79.986	19.992	99.969	19.979	-0.597	0.517
1240.500	712.393	79.987	19.993	99.971	19.980	-0.689	0.490
1242.000	713.156	79.987	19.993	99.974	19.977	-0.351	0.518
1243.500	713.965	79.987	19.995	99.978	19.978	-0.479	0.538
1245.001	714.745	79.986	19.993	99.976	19.977	-0.343	0.520
1246.500	715.490	79.985	19.994	99.976	19.983	-0.982	0.524
1248.000	716.276	79.986	19.993	99.977	19.978	-0.484	0.513
1249.500	717.016	79.984	19.995	99.968	19.982	-0.822	0.516
1251.000	717.745	79.985	19.994	99.972	19.978	-0.477	0.506
1252.501	718.515	79.984	19.993	99.981	19.984	-0.992	0.512
1254.000	719.280	79.984	19.993	99.981	19.982	-0.817	0.491
1255.501	720.037	79.986	19.992	99.981	19.981	-0.791	0.499
1257.000	720.795	79.985	19.994	99.980	19.985	-1.116	0.495
1258.500	721.528	79.986	19.993	99.981	19.983	-0.935	0.491
1260.000	722.307	79.985	19.992	99.985	19.983	-0.982	0.542
1261.501	723.088	79.986	19.992	99.984	19.984	-1.071	0.507
1263.000	723.848	79.986	19.992	99.979	19.984	-1.071	0.515
1264.501	724.600	79.986	19.992	99.979	19.983	-0.937	0.503
1266.001	725.325	79.988	19.992	99.984	19.986	-1.223	0.486
1267.500	726.088	79.987	19.991	99.984	19.983	-0.911	0.507
1269.000	726.869	79.987	19.992	99.982	19.981	-0.796	0.492
1270.500	727.625	79.987	19.989	99.982	19.982	-0.867	0.514
1272.000	728.408	79.988	19.993	99.984	19.981	-0.741	0.530
1273.500	729.100	79.986	19.992	99.984	19.979	-0.532	0.459
1275.000	729.856	79.987	19.993	99.979	19.979	-0.589	0.503
1276.500	730.615	79.986	19.993	99.977	19.979	-0.594	0.504
1278.000	731.403	79.988	19.992	99.980	19.979	-0.532	0.522
1279.500	732.146	79.988	19.993	99.982	19.980	-0.697	0.503
1281.000	732.921	79.986	19.991	99.979	19.979	-0.516	0.508
1282.500	733.653	79.987	19.992	99.976	19.983	-0.896	0.485
1284.000	734.420	79.987	19.992	99.979	19.979	-0.581	0.496
1285.500	735.123	79.988	19.992	99.979	19.977	-0.406	0.482
1287.000	735.874	79.989	19.991	99.978	19.980	-0.694	0.499
1288.500	736.632	79.989	19.991	99.978	19.981	-0.704	0.525
1290.000	737.393	79.989	19.991	99.979	19.978	-0.416	0.500
1291.500	738.146	79.988	19.992	99.979	19.977	-0.393	0.473
1293.000	738.922	79.988	19.991	99.980	19.977	-0.335	0.520
1294.501	739.654	79.989	19.991	99.980	19.979	-0.576	0.487
1296.000	740.455	79.990	19.991	99.979	19.980	-0.676	0.533
1297.500	741.171	79.988	19.991	99.980	19.978	-0.471	0.489
1299.000	741.948	79.986	19.992	99.978	19.982	-0.817	0.529
1300.500	742.662	79.985	19.992	99.968	19.981	-0.704	0.492
1302.000	743.453	79.986	19.992	99.972	19.981	-0.778	0.513
1302.500	743.653	79.986	19.992	99.976	19.981	-0.728	0.505