File: 01_Data/Polyolefin_Carpet_Low_Pile/Cone/Polyolefin_Carpet_Low_Pile_Cone_HF75Scan_220411_R1.csv
Names,Time,Stack TC,Smoke TC,Exh Press,Smoke Comp,Smoke Meas,CO Meter,CO2 Meter,O2 Meter,Sample Mass,Ext Coeff,Start Test,Flame Verif
Chan Gain,,500,500,1,1,1,1,1,1,1,1,1.0,1.0
Offset,,0,0,0.133936,0,0,0,0,0,0,0,0.0,0.0
Gain,,1,1,25.011,13.0656,13.5076,1,1,1,1.00089,1.01037,1.0,1.0
Units,sec,C,C,Pa,%,%,%,%,%,g,/m,,
Baseline,,42.6386,44.5669,142.559,98.9478,95.1481,0.000747664,0.0538677,20.9958,-839.815,0.347122,,
4,0.75,41.9759,43.7321,141.033,98.8354,95.046,0.000725699,0.062627,20.9873,194.083,0.346493,0.0,0.0
8,1.75,40.4438,42.5101,145.559,98.8226,94.6841,0.000729617,0.0622782,20.987,193.903,0.379163,0.0,0.0
12,2.75,40.6836,42.5769,145.841,98.8151,95.7072,0.000810433,0.0616992,20.9866,193.943,0.283227,0.0,0.0
16,3.75,40.5974,42.351,140.821,98.8103,93.7265,0.000945318,0.0615729,20.9858,194.023,0.468145,0.0,0.0
20,4.75,40.6893,42.712,144.198,98.8107,91.8352,0.00120727,0.0617547,20.9742,193.993,0.64885,0.0,0.0
24,5.75,40.7387,42.3612,138.195,98.8035,94.3605,0.00164072,0.0722432,20.9427,194.053,0.407789,0.0,0.0
28,6.75,40.6728,42.7416,132.657,98.7967,90.991,0.00231395,0.0923289,20.8928,193.923,0.72945,0.0,1.0
32,7.75,40.909,43.2301,132.222,98.7923,86.9146,0.00308507,0.124745,20.814,193.883,1.13529,0.0,1.0
36,8.75,41.3314,43.2089,132.604,98.7859,77.9134,0.00444146,0.168256,20.7273,193.823,2.10368,0.0,1.0
40,9.75,41.538,43.7065,119.731,98.7935,71.9078,0.00598926,0.220891,20.6247,193.723,2.81529,0.0,1.0
44,10.75,42.6618,44.5624,116.36,98.7824,70.4543,0.00758069,0.276721,20.5477,193.583,2.99527,0.0,1.0
48,11.75,43.4108,44.9342,116.418,98.768,68.5837,0.00910091,0.332578,20.4599,193.533,3.23248,0.0,1.0
52,12.75,44.573,46.31,116.84,98.7576,65.4924,0.0108816,0.388138,20.3797,193.433,3.64031,0.0,1.0
56,13.75,45.7023,47.5609,122.014,98.7533,65.356,0.0127548,0.43403,20.3059,193.312,3.6584,0.0,0.0
60,14.75,46.6905,48.4068,115.497,98.7349,62.9548,0.0147855,0.483804,20.2269,193.192,3.98851,0.0,0.0
64,15.75,48.2964,50.0273,115.826,98.7273,59.474,0.0167693,0.537377,20.1471,193.032,4.49193,0.0,0.0
68,16.75,49.3224,51.027,118.782,98.7333,53.4742,0.0194517,0.594411,20.0469,192.952,5.43495,0.0,0.0
72,17.75,50.6174,52.7192,110.416,98.7162,55.2859,0.0223211,0.654335,19.9247,192.742,5.13811,0.0,0.0
76,18.75,52.1996,54.2416,112.758,98.7118,51.1324,0.025697,0.731201,19.7874,192.572,5.82991,0.0,0.0
80,19.75,54.5267,57.0126,102.854,98.707,50.268,0.029153,0.814274,19.6076,192.342,5.9806,0.0,0.0
84,20.75,56.4816,59.0607,103.971,98.6958,47.2299,0.0323099,0.90621,19.4221,192.231,6.53211,0.0,0.0
88,21.75,58.7627,61.5171,99.6854,98.6954,48.6067,0.0351862,1.00324,19.2416,192.021,6.2774,0.0,0.0
92,22.75,60.9718,63.975,100.033,98.6791,50.0252,0.0382033,1.09938,19.0875,191.771,6.021,0.0,0.0
96,23.75,63.9184,67.2684,87.157,98.6635,48.2864,0.0405279,1.19035,18.9436,191.571,6.33314,0.0,0.0
100,24.75,66.4121,70.0713,103.214,98.6512,47.8227,0.0421481,1.2691,18.8256,191.371,6.41756,0.0,0.0
104,25.75,69.5022,73.4136,93.696,98.6408,50.1089,0.0430346,1.33542,18.7364,191.251,6.00275,0.0,0.0
108,26.75,72.1149,76.7399,93.9372,98.6213,51.8142,0.0433698,1.38881,18.6778,191,5.70438,0.0,0.0
112,27.75,74.9268,80.246,102.012,98.6185,50.6884,0.0430712,1.42505,18.6473,190.84,5.89882,0.0,0.0
116,28.75,77.8058,83.467,93.4044,98.6041,52.3052,0.0426519,1.44395,18.6366,190.69,5.61926,0.0,0.0
120,29.75,79.8426,86.0593,94.4394,98.5882,54.9941,0.0416717,1.44788,18.6441,190.53,5.17352,0.0,0.0
124,30.75,82.271,89.3832,99.706,98.5806,50.916,0.0403676,1.43714,18.6816,190.35,5.85572,0.0,0.0
128,31.75,85.0391,91.53,102.124,98.5734,53.8291,0.0387709,1.41419,18.7363,190.23,5.36196,0.0,0.0
132,32.75,86.3895,94.0858,100.646,98.5427,55.5349,0.0372115,1.37324,18.8228,190.03,5.0827,0.0,0.0
136,33.75,88.0599,96.0791,103.293,98.5479,55.4529,0.0352732,1.32659,18.9046,189.929,5.09627,0.0,0.0
140,34.75,89.5239,97.7082,106.52,98.5296,56.9327,0.0336397,1.27031,18.9915,189.739,4.8612,0.0,0.0
144,35.75,90.8138,98.7589,103.132,98.5188,57.4105,0.0316859,1.20833,19.0896,189.609,4.78616,0.0,0.0
148,36.75,91.954,100.009,110.354,98.5088,58.4864,0.0295841,1.15653,19.1789,189.489,4.62071,0.0,0.0
152,37.75,92.9101,101.014,108.704,98.4885,62.6918,0.0273762,1.09,19.2867,189.419,4.00346,0.0,0.0
156,38.75,92.6737,101.693,113.229,98.4658,63.8819,0.0252397,1.02033,19.4173,189.299,3.83475,0.0,0.0
160,39.75,93.6244,102.489,118.239,98.4562,66.0951,0.0232335,0.951928,19.5632,189.199,3.53203,0.0,0.0
164,40.75,94.6103,103.123,118.614,98.4279,66.1573,0.0213217,0.879242,19.7057,189.099,3.52114,0.0,0.0
168,41.75,94.3179,103.746,122.764,98.402,68.3775,0.0195086,0.810185,19.8345,189.009,3.22625,0.0,0.0
172,42.75,93.6714,103.048,122.007,98.3888,69.8957,0.0179958,0.746801,19.9332,188.949,3.03043,0.0,0.0
176,43.75,93.4876,102.844,119.489,98.3669,71.3756,0.0164982,0.688272,20.0242,188.858,2.84277,0.0,0.0
180,44.75,93.65,102.926,122.16,98.3342,75.8502,0.0149537,0.637934,20.1045,188.778,2.30091,0.0,0.0
184,45.75,93.3096,102.97,126.824,98.317,75.9492,0.0135696,0.588214,20.1755,188.738,2.28781,0.0,0.0
188,46.75,92.6152,101.75,128.976,98.2999,77.8722,0.0122638,0.54573,20.2486,188.698,2.06466,0.0,0.0
192,47.75,92.5748,101.786,125.798,98.278,79.0787,0.0110879,0.506474,20.3216,188.618,1.92641,0.0,0.0
196,48.75,92.2974,101.009,127.227,98.2548,79.4485,0.0100605,0.472442,20.3891,188.568,1.88298,0.0,0.0
200,49.75,91.5467,100.494,129.862,98.2429,79.7857,0.00926177,0.438917,20.4455,188.538,1.84436,0.0,0.0
204,50.75,90.8431,99.9898,130.955,98.205,80.5091,0.0085129,0.406322,20.4921,188.468,1.76094,0.0,0.0
208,51.75,89.9368,99.2823,132.701,98.1839,82.4276,0.00785943,0.379314,20.5346,188.458,1.55032,0.0,0.0
212,52.75,89.9696,98.9387,129.976,98.1675,83.2673,0.00726024,0.353731,20.5736,188.388,1.45901,0.0,0.0
216,53.75,89.3239,98.1703,131.208,98.1264,85.0967,0.00673966,0.331198,20.6111,188.348,1.26269,0.0,0.0
220,54.75,88.2334,97.4268,133.837,98.1117,85.1309,0.00617636,0.310636,20.6432,188.328,1.25779,0.0,0.0
224,55.75,87.918,96.9024,131.229,98.0722,85.781,0.00562589,0.291841,20.6725,188.278,1.18681,0.0,0.0
228,56.75,87.3559,96.2527,134.327,98.0455,86.6734,0.0051368,0.275453,20.6934,188.248,1.09266,0.0,0.0
232,57.75,86.1747,95.1611,132.799,98.0268,87.7234,0.00471228,0.259785,20.714,188.248,0.984248,0.0,0.0
236,58.75,85.9422,94.4561,134.757,98.0005,88.2749,0.00427461,0.24745,20.7318,188.218,0.926319,0.0,0.0
240,59.75,85.1872,94.2098,133.901,97.9817,89.2576,0.00386438,0.234086,20.7497,188.188,0.826501,0.0,0.0
244,60.75,84.5266,93.169,133.679,97.957,90.3364,0.00351961,0.223531,20.7689,188.168,0.717789,0.0,0.0
248,61.75,83.5842,91.8638,135.264,97.9335,90.8373,0.00322316,0.211361,20.7892,188.138,0.666658,0.0,0.0
252,62.75,83.0306,91.403,136.654,97.9115,91.5088,0.00295977,0.200372,20.8082,188.098,0.599396,0.0,0.0
256,63.75,82.5203,90.9224,138.049,97.8677,92.285,0.00274682,0.191104,20.8224,188.088,0.520564,0.0,0.0
260,64.75,81.4848,89.9229,137.838,97.84375,92.3835,0.00247905,0.181455,20.8392,188.048,0.508941,0.0,0.0
264,65.75,81.1421,89.378,141.211,97.821,92.5801,0.00231925,0.173398,20.8477,188.058,0.488037,0.0,0.0
268,66.75,80.0161,88.6879,136.167,97.7871,92.0385,0.00211079,0.165482,20.8582,188.078,0.536972,0.0,0.0
272,67.75,79.3205,88.0219,138.387,97.7668,92.1151,0.00192655,0.157274,20.8676,188.068,0.527749,0.0,0.0
276,68.75,78.6941,86.7025,138.509,97.7337,92.9849,0.00179209,0.152676,20.8761,188.028,0.441455,0.0,0.0
280,69.75,78.3132,86.5546,139.518,97.7054,91.74,0.00172152,0.147699,20.8828,188.008,0.558347,0.0,0.0
284,70.75,77.8358,86.1059,136.557,97.6548,92.0937,0.00169311,0.143393,20.8875,187.988,0.519649,0.0,0.0
288,71.75,76.7606,84.9382,140.028,97.6424,92.3406,0.00171395,0.139853,20.8922,188.008,0.494796,0.0,0.0
292,72.75,76.1164,83.7194,134.734,97.6109,91.761,0.0017479,0.137025,20.896,187.958,0.54774,0.0,0.0
296,73.75,75.5969,83.7469,135.386,97.5898,91.7718,0.00179436,0.134482,20.8992,187.948,0.544786,0.0,0.0
300,74.75,75.1052,82.9584,135.904,97.5726,91.8369,0.00183144,0.13256,20.9015,187.938,0.536941,0.0,0.0
304,75.75,74.41,82.2831,136.911,97.5483,91.198,0.00186017,0.130842,20.903,187.938,0.596609,0.0,0.0
308,76.75,73.9205,81.7112,138.454,97.5216,91.3043,0.00189239,0.129314,20.9038,187.918,0.583851,0.0,0.0
312,77.75,73.372,80.9394,139.232,97.4996,91.3092,0.00192312,0.128011,20.9042,187.868,0.581379,0.0,0.0
316,78.75,72.6052,80.586,136.076,97.4745,91.6131,0.00197503,0.126916,20.9045,187.888,0.549655,0.0,0.0
320,79.75,71.8831,79.8886,138.173,97.4454,90.9214,0.00202874,0.126095,20.9046,187.868,0.614179,0.0,0.0
324,80.75,71.9304,79.5414,138.238,97.4231,91.4296,0.00206242,0.125327,20.9048,187.868,0.562741,0.0,0.0
328,81.75,71.2035,78.7719,139.034,97.4024,91.0125,0.00200648,0.124844,20.9047,187.848,0.601385,0.0,0.0
332,82.75,70.9732,78.5005,135.759,97.3709,91.4115,0.00187431,0.124552,20.9046,187.838,0.559745,0.0,0.0
336,83.75,70.1958,77.7789,135.052,97.3489,90.8187,0.00172087,0.124307,20.9045,187.808,0.61541,0.0,0.0
340,84.75,69.8118,77.4888,138.173,97.3366,91.0496,0.0015987,0.123914,20.9044,187.808,0.591786,0.0,0.0
344,85.75,69.5105,76.8064,137.527,97.2963,91.0075,0.00149676,0.123344,20.9044,187.778,0.592211,0.0,0.0
348,86.75,68.988,76.3749,135.739,97.2764,90.8558,0.00142988,0.122715,20.9052,187.778,0.60518,0.0,0.0
352,87.75,68.8239,76.1801,136.14,97.2556,90.4844,0.00139258,0.122248,20.9057,187.747,0.639596,0.0,0.0
356,88.75,68.2597,75.2569,138.475,97.2301,90.8352,0.00136153,0.12183,20.906,187.768,0.602977,0.0,0.0
360,89.75,68.1352,75.0137,138.936,97.2293,90.7495,0.00131485,0.121395,20.9062,187.768,0.611273,0.0,0.0
364,90.75,67.361,74.4145,137.174,97.2022,90.5891,0.00126668,0.120969,20.9064,187.737,0.624476,0.0,0.0
368,91.75,67.3144,74.2903,139.068,97.1731,91.0207,0.00124114,0.120621,20.9065,187.707,0.579697,0.0,0.0
372,92.75,66.7845,73.7372,140.74,97.1583,90.5776,0.0012552,0.120421,20.9065,187.677,0.621605,0.0,0.0
376,93.75,66.3405,73.543,138.353,97.1444,90.4271,0.00129563,0.120364,20.9063,187.667,0.635066,0.0,0.0
380,94.75,65.9645,73.1408,140.577,97.1316,90.0277,0.00135877,0.120452,20.9052,187.667,0.673139,0.0,0.0
384,95.75,65.533,72.0896,136.449,97.1101,90.1184,0.00142953,0.120992,20.9028,187.657,0.66225,0.0,0.0
388,96.75,64.7923,71.6356,140.795,97.0949,90.479,0.00148014,0.122055,20.9002,187.657,0.625466,0.0,0.0
392,97.75,64.5667,71.6275,137.107,97.089,89.2762,0.00151334,0.123235,20.8984,187.637,0.743536,0.0,0.0
396,98.75,64.7714,71.8172,133.742,97.0722,89.5487,0.0015334,0.124289,20.8973,187.587,0.714998,0.0,0.0
400,99.75,64.2798,71.0168,137.212,97.0611,90.0911,0.0015409,0.125056,20.8965,187.557,0.66045,0.0,0.0
404,100.75,64.6883,71.3368,135.724,97.0563,90.1385,0.00153957,0.125419,20.896,187.557,0.65535,0.0,0.0
408,101.75,63.632,70.1366,138.933,97.0595,90.4481,0.00152749,0.125382,20.8965,187.567,0.625255,0.0,0.0
412,102.75,63.1568,69.7868,136.771,97.0415,89.7746,0.00151367,0.124843,20.8973,187.517,0.689865,0.0,0.0
416,103.75,62.8068,69.5151,138.406,97.0427,90.6357,0.00149144,0.124106,20.8986,187.527,0.605365,0.0,0.0
420,104.75,62.9691,69.6551,134.305,97.0252,90.1118,0.00147027,0.12333,20.9001,187.507,0.655145,0.0,0.0
424,105.75,62.7572,68.98,135.543,97.0284,90.1274,0.00146971,0.122677,20.9017,187.497,0.653896,0.0,0.0
428,106.75,62.1377,68.5507,139.086,97.0439,90.8467,0.0014942,0.12215,20.9027,187.497,0.58486,0.0,0.0
432,107.75,62.2104,68.657,139.346,97.0335,90.6753,0.00156761,0.121712,20.9033,187.497,0.600658,0.0,0.0
436,108.75,62.0462,68.2657,138.103,97.0419,90.4312,0.00164148,0.121412,20.9038,187.457,0.625309,0.0,0.0
440,109.75,62.4273,68.5742,136.913,97.0431,89.7152,0.00170711,0.121115,20.9041,187.447,0.695873,0.0,0.0
444,110.75,61.4265,67.556,137.668,97.0595,89.9741,0.00176336,0.120844,20.9043,187.417,0.671829,0.0,0.0
448,111.75,61.1389,67.423,141.016,97.0614,90.0149,0.00180027,0.120626,20.9044,187.397,0.667992,0.0,0.0
452,112.75,61.6171,67.7521,137.864,97.0503,90.1266,0.00179156,0.120532,20.9045,187.407,0.65598,0.0,0.0
456,113.75,60.5386,66.5405,137.816,97.0702,90.4609,0.00174409,0.120586,20.9045,187.387,0.624986,0.0,0.0
460,114.75,60.4156,66.4427,134.142,97.0718,90.0586,0.00167121,0.120593,20.9046,187.367,0.664638,0.0,0.0
464,115.75,60.6784,66.7901,134.921,97.0894,90.3484,0.00159261,0.120449,20.9046,187.367,0.637765,0.0,0.0
468,116.75,60.5363,66.3885,139.092,97.1069,90.794,0.00152786,0.120059,20.905,187.347,0.595762,0.0,0.0
472,117.75,59.6886,65.4514,139.986,97.1161,90.686,0.00149014,0.119651,20.9057,187.317,0.607146,0.0,0.0
476,118.75,59.7841,65.7918,139.061,97.1225,91.0557,0.00146925,0.119232,20.9061,187.297,0.571665,0.0,0.0
480,119.75,60.0231,65.5181,138.122,97.1448,90.6011,0.00146871,0.11879,20.9072,187.317,0.61807,0.0,0.0
484,120.75,59.2503,65.1343,142.678,97.148,90.6019,0.001453,0.118357,20.9082,187.307,0.61828,0.0,0.0
488,121.75,59.7328,65.1594,137.225,97.1659,90.4667,0.00141855,0.117855,20.9095,187.287,0.633154,0.0,0.0
492,122.75,59.4123,65.1989,135.971,97.1779,90.843,0.00138558,0.117244,20.9109,187.257,0.597449,0.0,0.0
496,123.75,59.438,64.9385,139.533,97.1914,91.3921,0.0013787,0.11653,20.9122,187.257,0.545278,0.0,0.0
500,124.75,58.7644,64.3646,138.19,97.211,90.6814,0.00142467,0.115644,20.9143,187.237,0.616247,0.0,0.0
504,125.75,58.9693,64.2916,140.603,97.2241,90.9403,0.00150217,0.114705,20.916,187.247,0.592181,0.0,0.0
508,126.75,58.3344,63.9119,137.723,97.2437,90.7247,0.00159135,0.113675,20.9178,187.227,0.614998,0.0,0.0
512,127.75,58.5065,63.511,138.718,97.2516,90.8913,0.00172465,0.112607,20.9191,187.217,0.59947,0.0,0.0
516,128.75,58.698,63.8296,138.747,97.274,91.1642,0.00182091,0.111602,20.9203,187.197,0.574935,0.0,0.0
520,129.75,57.9804,63.6366,140.923,97.2959,91.7709,0.0018682,0.110775,20.9214,187.187,0.518137,0.0,0.0
524,130.75,57.9723,63.0555,141.643,97.3154,91.0368,0.00186501,0.109821,20.9221,187.167,0.591105,0.0,0.0
528,131.75,58.0194,63.4949,136.097,97.3386,90.7804,0.00184109,0.108849,20.9234,187.167,0.618208,0.0,0.0
532,132.75,57.3085,62.7337,141.73,97.3525,91.9008,0.00182048,0.108103,20.9248,187.147,0.510761,0.0,0.0
536,133.75,57.5801,62.4747,134.548,97.374,92.367,0.00182015,0.107287,20.9257,187.147,0.467873,0.0,0.0
540,134.75,57.1922,62.5446,136.668,97.3992,92.2536,0.00183093,0.106534,20.9276,187.147,0.481044,0.0,0.0
544,135.75,57.1938,61.8613,134.31,97.4271,92.3126,0.00180941,0.105763,20.9291,187.147,0.477921,0.0,0.0
548,136.75,57.0843,61.8344,134.531,97.4446,91.8262,0.00172938,0.105019,20.9302,187.127,0.526342,0.0,0.0
552,137.75,56.5695,61.6248,137.626,97.4674,92.4841,0.00160224,0.104246,20.9308,187.127,0.465135,0.0,0.0
556,138.75,56.9356,61.586,138.03,97.4869,92.3856,0.00146354,0.103515,20.9317,187.087,0.476359,0.0,0.0
560,139.75,57.0566,61.3658,142.317,97.5136,92.1646,0.00135767,0.102794,20.9326,187.067,0.500008,0.0,0.0
564,140.75,56.4936,61.1052,137.502,97.5391,92.2384,0.00127506,0.102095,20.9339,187.077,0.495234,0.0,0.0
568,141.75,55.9227,60.7531,140.574,97.5535,92.3901,0.00124934,0.101387,20.9349,187.077,0.481974,0.0,0.0
572,142.75,55.521,60.7389,136.819,97.5822,92.8744,0.00125878,0.100548,20.9361,187.057,0.43824,0.0,0.0
576,143.75,56.0732,60.7252,137.45,97.6033,92.8707,0.00127155,0.0997025,20.9371,187.057,0.440513,0.0,0.0
580,144.75,55.7987,60.5307,138.657,97.628,93.2693,0.00127302,0.0988804,20.9378,187.007,0.404798,0.0,0.0
584,145.75,55.7191,60.2925,140.34,97.6392,92.9565,0.0012502,0.0981859,20.9395,187.037,0.435593,0.0,0.0
588,146.75,55.5384,59.9431,138.947,97.6675,92.2738,0.00120375,0.0975196,20.9409,187.027,0.503487,0.0,0.0
592,147.75,55.203,59.7036,141.501,97.6898,93.4676,0.00112722,0.0968854,20.9418,187.017,0.391586,0.0,0.0
596,148.75,55.282,59.7239,138.225,97.709,93.1337,0.00105336,0.0962266,20.9425,186.987,0.42504,0.0,0.0
600,149.75,55.1656,59.5931,135.714,97.7182,93.0533,0.000987821,0.0956347,20.9433,186.987,0.433525,0.0,0.0
604,150.75,55.141,59.423,136.284,97.7508,92.6778,0.000965378,0.0950214,20.9441,186.987,0.472329,0.0,0.0
608,151.75,54.6372,58.6624,139.053,97.7792,93.0509,0.000993923,0.0943442,20.9445,186.967,0.439292,0.0,0.0
612,152.75,55.3057,59.0489,140.869,97.776,92.933,0.00105601,0.0938055,20.9447,186.957,0.450239,0.0,0.0
616,153.75,54.5366,58.7697,140.393,97.8007,92.8192,0.00111439,0.0932217,20.9449,186.947,0.463336,0.0,0.0
620,154.75,54.2813,58.8859,139.316,97.8186,93.3118,0.00114887,0.0925391,20.9466,186.927,0.418051,0.0,0.0
624,155.75,54.2643,58.767,136.676,97.8406,93.3015,0.00115644,0.0918916,20.9477,186.947,0.421015,0.0,0.0
628,156.75,54.4618,58.5435,135.955,97.8593,93.1597,0.00114741,0.0912898,20.9484,186.947,0.436194,0.0,0.0
632,157.75,53.9946,58.4526,136.31,97.8756,93.4944,0.00114213,0.0907923,20.9489,186.917,0.405886,0.0,0.0
636,158.75,54.0947,58.2495,140.68,97.8928,93.4788,0.00114021,0.0903385,20.95,186.917,0.408925,0.0,0.0
640,159.75,53.7654,57.763,139.383,97.9115,93.6111,0.00113019,0.0898636,20.9507,186.907,0.398085,0.0,0.0
644,160.75,53.8179,58.0321,140.277,97.9295,94.1622,0.00111757,0.0893525,20.9512,186.907,0.347681,0.0,0.0
648,161.75,53.7531,57.7069,140.22,97.955,93.6201,0.00110184,0.0888592,20.9515,186.907,0.401158,0.0,0.0
652,162.75,53.5972,57.6956,142.435,97.9686,93.3534,0.00108657,0.0883638,20.9525,186.897,0.42767,0.0,0.0
656,163.75,53.3403,57.6924,140.977,97.9686,93.5406,0.0010954,0.087756,20.9539,186.897,0.40992,0.0,0.0
660,164.75,53.3783,57.0368,137.303,97.9925,93.8827,0.00113332,0.0869256,20.9551,186.897,0.379725,0.0,0.0
664,165.75,53.2446,57.1303,136.758,98.0048,93.6424,0.001186,0.0860881,20.9565,186.857,0.40356,0.0,0.0
668,166.75,53.1831,56.733,138.572,98.0184,93.9483,0.00123038,0.085354,20.9573,186.837,0.375884,0.0,0.0
672,167.75,53.0754,56.8436,142.896,98.0363,93.7154,0.00124634,0.0847765,20.9579,186.867,0.399506,0.0,0.0
676,168.75,53.0481,56.6263,140.324,98.0463,93.6799,0.0012305,0.0842643,20.9589,186.827,0.403761,0.0,0.0
680,169.75,53.2083,56.7745,141.927,98.0519,94.4603,0.00120258,0.0837454,20.9597,186.867,0.330744,0.0,0.0
684,170.75,53.0489,56.6168,137.22,98.0766,93.9615,0.00119967,0.0832248,20.9603,186.857,0.379902,0.0,0.0
688,171.75,52.8812,56.6704,139.95,98.0838,93.7529,0.00122091,0.0826843,20.9606,186.837,0.400247,0.0,0.0
692,172.75,52.6905,56.181,136.944,98.1113,94.2995,0.00123996,0.0821025,20.9617,186.827,0.35121,0.0,0.0
696,173.75,52.595,56.1624,137.268,98.1125,93.5575,0.00129414,0.0814309,20.9635,186.827,0.421332,0.0,0.0
700,174.75,52.2636,56.0747,138.296,98.1273,94.5893,0.00134302,0.0807965,20.9649,186.807,0.325456,0.0,0.0
704,175.75,52.1172,55.4158,139.984,98.1332,94.161,0.00138346,0.0802295,20.9661,186.777,0.366218,0.0,0.0
708,176.75,52.3729,55.7889,139.537,98.146,93.5789,0.0014044,0.0796486,20.9674,186.787,0.422326,0.0,0.0
712,177.75,52.1238,55.4547,138.342,98.1615,94.0736,0.00142004,0.0790562,20.9685,186.757,0.377004,0.0,0.0
716,178.75,51.9769,55.5601,139.675,98.1699,93.9285,0.00145242,0.0784443,20.9698,186.757,0.39144,0.0,0.0
720,179.75,51.9639,55.6149,138.222,98.1851,93.893,0.00151025,0.0777452,20.9711,186.767,0.396154,0.0,0.0
724,180.75,51.8662,55.5159,140.662,98.2062,94.1771,0.00156589,0.0768403,20.973,186.747,0.371293,0.0,0.0
728,181.75,51.7812,54.9875,140.858,98.1966,94.6408,0.00162657,0.0759245,20.9743,186.757,0.326893,0.0,0.0
732,182.75,51.6929,54.8994,137.791,98.2034,94.3881,0.00163002,0.0751007,20.9752,186.767,0.3512,0.0,0.0
736,183.75,51.3481,55.1345,139.743,98.2245,93.7784,0.00155158,0.0743276,20.9757,186.747,0.41054,0.0,0.0
740,184.75,51.6032,54.5828,139.28,98.2321,93.7789,0.00140849,0.0735385,20.9766,186.757,0.411185,0.0,0.0
744,185.75,51.2203,54.764,143.042,98.2421,94.0674,0.00125023,0.0727926,20.9774,186.747,0.384855,0.0,0.0
748,186.75,50.8943,54.7184,138.606,98.2445,94.3139,0.00111708,0.0718953,20.9785,186.727,0.361876,0.0,0.0
752,187.75,51.413,54.76,140.137,98.2576,94.2142,0.00102891,0.0710242,20.9795,186.717,0.372443,0.0,0.0
756,188.75,51.1609,54.3507,143.007,98.2636,94.4297,0.000990547,0.0702774,20.9801,186.727,0.352724,0.0,0.0
760,189.75,51.0423,54.4005,138.56,98.2716,94.3481,0.00100487,0.0694908,20.9806,186.747,0.361107,0.0,0.0
764,190.75,50.7712,54.1665,143.434,98.2748,94.2356,0.00104999,0.0688018,20.9817,186.727,0.371972,0.0,0.0
768,191.75,50.7384,54.0381,139.115,98.2728,93.8803,0.00113895,0.0680578,20.983,186.707,0.405275,0.0,0.0
772,192.75,50.7244,53.8721,137.819,98.2776,93.9462,0.00122364,0.0673138,20.9838,186.707,0.399482,0.0,0.0
776,193.75,50.6526,53.9319,139.744,98.2887,94.5439,0.00128266,0.066573,20.9843,186.697,0.344279,0.0,0.0
780,194.75,50.631,53.7685,141.629,98.2943,94.3964,0.00130535,0.0659296,20.9846,186.697,0.358628,0.0,0.0
784,195.75,50.7033,53.5341,146.641,98.3039,94.121,0.00130649,0.0653799,20.9854,186.707,0.385382,0.0,0.0
788,196.75,50.5238,53.5938,140.953,98.2983,94.3823,0.00128312,0.0647797,20.9863,186.687,0.360303,0.0,0.0
792,197.75,50.0468,53.5457,139.459,98.3222,94.823,0.00126559,0.0642285,20.9869,186.687,0.321176,0.0,0.0
796,198.75,49.8959,53.4464,139.191,98.3103,94.2026,0.00126067,0.0637952,20.9873,186.657,0.378274,0.0,0.0
800,199.75,50.008,53.5439,139.35,98.3386,93.623,0.00125306,0.0633073,20.9881,186.657,0.435524,0.0,0.0
804,200.75,50.0449,52.9108,140.815,98.3166,94.2137,0.00122395,0.0628628,20.9889,186.657,0.377802,0.0,0.0
808,201.75,50.1062,52.7343,142.887,98.3087,94.0105,0.00118575,0.0624698,20.9894,186.646,0.396222,0.0,0.0
812,202.75,50.0682,52.8986,135.545,98.3214,94.6293,0.00110517,0.0619903,20.9897,186.657,0.339231,0.0,0.0
816,203.75,49.8764,52.6717,141.498,98.3222,93.8704,0.00103057,0.0616025,20.9899,186.626,0.410667,0.0,0.0
820,204.75,49.5847,52.7216,142.107,98.3234,94.2026,0.000983529,0.0613305,20.99,186.636,0.37946,0.0,0.0
824,205.75,49.6248,52.5963,143.636,98.3198,93.9878,0.000957324,0.0611327,20.9901,186.646,0.399366,0.0,0.0
828,206.75,49.6167,53.0045,139.011,98.3222,94.4446,0.000935754,0.060916,20.9902,186.646,0.356616,0.0,0.0
832,207.75,49.6308,52.7646,139.428,98.3242,93.6,0.000921602,0.0606533,20.9902,186.626,0.436415,0.0,0.0
836,208.75,49.4199,52.4346,136.142,98.3246,93.8522,0.000918363,0.0604232,20.9903,186.606,0.412595,0.0,0.0
840,209.75,49.2278,52.0124,136.758,98.3147,93.7051,0.000925972,0.0602476,20.9905,186.626,0.425605,0.0,0.0
844,210.75,49.3972,52.2642,139.814,98.3218,93.8131,0.000934883,0.06015,20.9912,186.636,0.416043,0.0,0.0
848,211.75,49.249,51.6939,141.34,98.3135,94.0938,0.000934366,0.0601559,20.9917,186.646,0.388807,0.0,0.0
852,212.75,49.457,52.0419,138.175,98.3162,94.3304,0.000912729,0.0601104,20.992,186.636,0.366799,0.0,0.0
856,213.75,49.3075,51.9487,140.616,98.3103,93.7628,0.000884448,0.0599821,20.9925,186.636,0.419753,0.0,0.0
860,214.75,49.1723,51.7901,142.254,98.3071,94.1268,0.000839646,0.0598203,20.9929,186.646,0.385126,0.0,0.0
864,215.75,49.1746,51.7333,136.903,98.3023,94.487,0.000805083,0.0596167,20.9931,186.606,0.350836,0.0,0.0
868,216.75,49.1639,52.1539,142.835,98.3083,94.0835,0.000793078,0.0594218,20.9937,186.606,0.38931,0.0,0.0
872,217.75,48.683,51.1569,139.328,98.2911,94.3815,0.00079534,0.0592608,20.9944,186.576,0.359734,0.0,0.0
876,218.75,48.9081,51.2752,144.001,98.2947,94.0987,0.00079868,0.0591266,20.9949,186.566,0.386652,0.0,0.0
880,219.75,48.9328,51.2556,143.166,98.2788,93.919,0.000789935,0.05894,20.9958,186.566,0.402156,0.0,0.0
884,220.75,48.7733,51.3548,138.722,98.268,93.7776,0.000773263,0.0587478,20.9965,186.556,0.414539,0.0,0.0
888,221.75,48.7248,51.6197,139.632,98.2628,93.5711,0.000751392,0.0586081,20.997,186.566,0.433612,0.0,0.0
892,222.75,48.7642,51.288,141.574,98.2489,94.2364,0.000732212,0.0584918,20.9973,186.546,0.369558,0.0,0.0
896,223.75,48.6857,51.1625,138.41,98.2437,94.2587,0.000715715,0.0583909,20.9975,186.556,0.366997,0.0,0.0
900,224.75,48.5565,50.9421,137.191,98.2369,93.776,0.000707246,0.0582779,20.9974,186.576,0.411889,0.0,0.0
904,225.75,48.6737,51.1091,141.189,98.2214,94.1676,0.000716993,0.0581165,20.9973,186.566,0.373553,0.0,0.0
908,226.75,48.9492,51.1346,138.777,98.2078,94.7183,0.000750528,0.0579707,20.9972,186.546,0.320646,0.0,0.0
912,227.75,48.8145,51.0813,139.798,98.215,93.9982,0.000774055,0.0577964,20.9971,186.536,0.388936,0.0,0.0
916,228.75,48.7763,51.0639,141.053,98.2022,94.2067,0.000813323,0.0576406,20.9971,186.536,0.36814,0.0,0.0
920,229.75,48.1952,50.5427,141.057,98.1859,93.6173,0.000875312,0.0575513,20.9971,186.546,0.422296,0.0,0.0
924,230.75,48.6986,50.8356,141.479,98.1707,94.3176,0.000958525,0.0575094,20.9971,186.556,0.354871,0.0,0.0
928,231.75,48.3869,51.2396,140.511,98.1536,93.8852,0.00104785,0.0574848,20.9971,186.566,0.394049,0.0,0.0
932,232.75,49.0133,50.7686,141.832,98.1416,94.0517,0.00112379,0.0575209,20.997,186.536,0.377261,0.0,0.0
936,233.75,47.9813,50.6676,140.492,98.1372,94.0196,0.00117277,0.0575201,20.997,186.506,0.379897,0.0,0.0
940,234.75,47.9898,50.8285,139.329,98.1257,93.1865,0.00118622,0.0574354,20.997,186.536,0.457735,0.0,0.0
944,235.75,48.0239,50.3881,141.314,98.1201,93.7751,0.00118229,0.0574147,20.997,186.506,0.401421,0.0,0.0
948,236.75,48.0547,50.7943,145.63,98.1117,93.4194,0.00113152,0.0573766,20.997,186.516,0.434351,0.0,0.0
952,237.75,48.3039,50.6115,140.311,98.1041,93.8485,0.00107922,0.0573321,20.997,186.486,0.393049,0.0,0.0
956,238.75,48.1604,50.0941,137.331,98.0898,93.5525,0.00105016,0.0572434,20.997,186.506,0.419747,0.0,0.0
960,239.75,47.9808,50.1913,148.65,98.0734,93.4132,0.00108426,0.057134,20.997,186.516,0.431478,0.0,0.0
964,240.75,48.0536,50.3276,138.755,98.0698,93.5773,0.0011702,0.0570805,20.997,186.516,0.415602,0.0,0.0
968,241.75,48.0081,50.2895,141.981,98.0631,93.8831,0.00124114,0.0571613,20.9973,186.526,0.386068,0.0,0.0
972,242.75,47.6324,50.2663,141.606,98.0583,93.7636,0.00129946,0.057277,20.9979,186.506,0.396927,0.0,0.0
976,243.75,47.9912,50.0923,141.679,98.0443,94.2525,0.00130701,0.0573354,20.9984,186.506,0.349573,0.0,0.0
980,244.75,47.6294,50.3387,142.285,98.0351,94.2513,0.00129259,0.0572768,20.9986,186.466,0.348861,0.0,0.0
984,245.75,47.6817,50.1263,144.851,98.0304,93.9392,0.00125047,0.0572704,20.9988,186.496,0.37782,0.0,0.0
988,246.75,47.4042,50.105,142.315,98.03,94.3465,0.00119458,0.0572747,20.999,186.496,0.339443,0.0,0.0
992,247.75,47.9254,50.1404,140.113,98.0176,93.6564,0.00114252,0.0572601,20.999,186.466,0.403387,0.0,0.0
996,248.75,47.574,49.9669,140.188,98.0032,93.5859,0.00111026,0.0572751,20.9991,186.466,0.408762,0.0,0.0
1000,249.75,47.7826,49.9623,139.214,97.9921,94.0831,0.00109302,0.0572358,20.9991,186.466,0.360797,0.0,0.0
1004,250.75,47.9317,49.7341,142.626,97.9805,93.7657,0.00109704,0.0571607,20.9992,186.426,0.389702,0.0,0.0
1008,251.75,47.0958,49.1768,142.56,97.9701,93.7854,0.00112378,0.0570869,20.9992,186.436,0.386894,0.0,0.0
1012,252.75,47.2758,48.9809,139.293,97.9618,94.1259,0.00115687,0.0569803,20.9992,186.446,0.354018,0.0,0.0
1016,253.75,47.0033,49.843,143.807,97.9518,93.7281,0.0011914,0.0568876,20.9992,186.436,0.390651,0.0,0.0
1020,254.75,47.2165,49.4156,137.887,97.9458,93.4074,0.00120428,0.0568379,20.9992,186.436,0.420488,0.0,0.0
1024,255.75,47.1181,49.0423,142.662,97.9323,93.56,0.00117671,0.0568465,20.999,186.426,0.404801,0.0,0.0
1028,256.75,47.3559,48.9395,139.279,97.9315,93.5051,0.00113207,0.0567681,20.9986,186.426,0.409925,0.0,0.0
1032,257.75,47.3034,49.2776,138.679,97.9175,94.6268,0.00102836,0.0566817,20.9983,186.416,0.302979,0.0,0.0
1036,258.75,46.7284,49.2078,139.927,97.9075,93.715,0.000927505,0.0565772,20.9981,186.416,0.387893,0.0,0.0
1040,259.75,47.0604,48.6355,143.024,97.9171,94.2488,0.000864782,0.0565861,20.998,186.416,0.338418,0.0,0.0
1044,260.75,46.8477,49.3389,140.441,97.8968,94.3584,0.000848615,0.0565993,20.9979,186.416,0.326272,0.0,0.0
1048,261.75,46.6678,48.7698,138.187,97.8948,93.6354,0.000848946,0.056529,20.9979,186.386,0.394265,0.0,0.0
1052,262.75,46.7273,48.7986,139.731,97.8717,93.3427,0.000838225,0.056392,20.9978,186.396,0.419918,0.0,0.0
1056,263.75,46.911,49.0515,140.414,97.8772,93.7191,0.000813955,0.0562508,20.9978,186.386,0.38476,0.0,0.0
1060,264.75,46.7963,49.3112,140.241,97.8705,93.7455,0.000793396,0.056286,20.9986,186.386,0.381652,0.0,0.0
1064,265.75,46.3552,48.5554,140.705,97.888,93.8687,0.000795418,0.0562993,20.999,186.396,0.371596,0.0,0.0
1068,266.75,46.5179,49.1974,138.603,97.8665,93.5505,0.000842304,0.0562033,20.9993,186.406,0.399743,0.0,0.0
1072,267.75,46.9705,48.8683,139.515,97.8469,93.553,0.000918713,0.056086,20.9995,186.366,0.397739,0.0,0.0
1076,268.75,46.9479,48.8739,141.588,97.8501,93.7286,0.00100403,0.055965,20.9996,186.366,0.381409,0.0,0.0
1080,269.75,46.3467,48.8279,145.108,97.8605,93.6465,0.00107561,0.0558857,20.9997,186.356,0.390107,0.0,0.0
1084,270.75,47.0311,48.8031,140.344,97.8434,93.7916,0.00111916,0.0558828,20.9998,186.326,0.374832,0.0,0.0
1088,271.75,46.6358,48.6479,139.755,97.843,94.3947,0.00112355,0.0558983,20.9998,186.326,0.317991,0.0,0.0
1092,272.75,46.6583,48.7282,142.225,97.8342,93.0492,0.00108375,0.0558911,20.9998,186.326,0.444434,0.0,0.0
1096,273.75,46.8454,49.1887,139.753,97.8246,93.8159,0.0010008,0.055788,20.9998,186.406,0.370837,0.0,0.0
1100,274.75,46.1658,48.7928,137.969,97.8234,93.8934,0.000906169,0.0557591,21.0006,186.376,0.36341,0.0,0.0
1104,275.75,46.3801,48.4534,141.546,97.8266,93.6704,0.000825475,0.0557311,21.0012,186.366,0.384774,0.0,0.0
1108,276.75,46.5797,48.1731,141.026,97.823,93.3473,0.000781279,0.0556495,21.0015,186.366,0.415081,0.0,0.0
1112,277.75,46.6028,48.1844,139.09,97.821,93.5983,0.000770533,0.0555415,21.0016,186.346,0.391097,0.0,0.0
1116,278.75,46.3177,48.1099,138.812,97.8115,94.1738,0.000809259,0.0554739,21.0015,186.356,0.335906,0.0,0.0
1120,279.75,46.7944,48.0709,139.755,97.8103,93.7187,0.000847922,0.0554405,21.0015,186.326,0.378731,0.0,0.0
1124,280.75,46.2587,48.4224,141.244,97.8087,94.1214,0.000854433,0.055491,21.0006,186.356,0.340581,0.0,0.0
1128,281.75,46.3985,48.5989,139.026,97.8067,93.9635,0.000823986,0.0554854,21.0001,186.356,0.355281,0.0,0.0
1132,282.75,46.6264,48.2479,141.121,97.8115,93.5888,0.000765929,0.0554132,20.9997,186.356,0.391128,0.0,0.0
1136,283.75,46.65,48.421,139.288,97.8186,93.4462,0.000703039,0.0553695,20.9994,186.336,0.405296,0.0,0.0
1140,284.75,46.0904,47.9046,138.911,97.8127,93.8032,0.000630942,0.0554236,20.9993,186.346,0.370959,0.0,0.0
1144,285.75,46.4198,48.5714,142.139,97.8111,93.7137,0.000545325,0.0555187,20.9992,186.326,0.379271,0.0,0.0
1148,286.75,46.3961,48.3243,141.327,97.8099,93.4186,0.000482856,0.0555643,20.9991,186.336,0.407121,0.0,0.0
1152,287.75,46.425,48.0748,143.083,97.8123,93.4705,0.000440893,0.0555991,20.9991,186.316,0.402411,0.0,0.0
1156,288.75,46.2699,47.8534,143.882,97.8134,93.1189,0.000464975,0.0556934,20.9995,186.296,0.435923,0.0,0.0
1160,289.75,46.0044,48.4733,138.652,97.8326,92.959,0.000551496,0.0557553,21.0001,186.276,0.452892,0.0,0.0
1164,290.75,46.6541,48.3392,136.89,97.8374,94.0497,0.000666651,0.0557745,21.0004,186.276,0.349939,0.0,0.0
1168,291.75,46.4704,48.1513,141.719,97.8597,93.2953,0.00076271,0.0557418,21.0007,186.306,0.423337,0.0,0.0
1172,292.75,45.9295,47.8465,141.548,97.8633,93.7191,0.000844924,0.0557379,21.0008,186.326,0.383496,0.0,0.0
1176,293.75,45.8917,48.164,151.408,97.8892,94.0014,0.000892654,0.0557353,21.001,186.336,0.35918,0.0,0.0
1180,294.75,45.8976,47.9641,139.373,97.9024,93.6008,0.000873632,0.0557723,21.001,186.316,0.398229,0.0,0.0
1184,295.75,46.392,48.1485,141.501,97.9139,93.6247,0.000810855,0.0558342,21.0011,186.306,0.397013,0.0,0.0
1188,296.75,46.5858,48.1141,143.484,97.945,93.9561,0.000747812,0.0558697,21.0011,186.316,0.368509,0.0,0.0
1192,297.75,45.8935,48.3253,140.33,97.9626,93.9207,0.000720939,0.0558924,21.0011,186.306,0.37344,0.0,0.0
1196,298.75,46.0979,48.2219,140.044,97.9957,93.2809,0.000715045,0.0559596,21.0011,186.266,0.437013,0.0,0.0
1200,299.75,45.9072,48.298,143.73,98.0024,93.7393,0.000741791,0.0559823,21.0011,186.246,0.394179,0.0,0.0
1204,300.75,46.3732,48.3814,138.038,98.0343,93.9775,0.000770277,0.0559448,21.0011,186.276,0.374566,0.0,0.0
1208,301.75,46.2908,48.3982,137.735,98.0515,93.4301,0.000794137,0.0559977,21.0007,186.266,0.427894,0.0,0.0
1212,302.75,46.164,48.211,139.963,98.0654,94.7818,0.000798058,0.0560261,21.0001,186.246,0.301852,0.0,0.0
1216,303.75,46.4375,48.2666,138.882,98.0806,94.337,0.000765643,0.0560442,20.9997,186.236,0.34491,0.0,0.0
1220,304.75,46.0266,48.0708,137.912,98.1001,93.3662,0.000707222,0.056087,20.9994,186.226,0.438353,0.0,0.0
1224,305.75,46.2859,48.0204,140.705,98.1241,94.769,0.000656822,0.0560412,20.9992,186.216,0.308344,0.0,0.0
1228,306.75,46.1625,48.2109,137.995,98.1528,94.154,0.000622427,0.0559517,20.9991,186.206,0.368643,0.0,0.0
1232,307.75,46.0614,48.3231,145.1,98.1679,94.1301,0.000606703,0.0559042,20.999,186.196,0.372261,0.0,0.0
1236,308.75,45.7899,47.9766,138.764,98.195,94.574,0.000653044,0.0559428,20.9989,186.196,0.333004,0.0,0.0
1240,309.75,45.6606,47.8074,139.476,98.2074,93.7793,0.000742515,0.0558943,20.9991,186.186,0.408915,0.0,0.0
1244,310.75,45.6635,47.8237,139.939,98.2341,94.5621,0.000849383,0.0559023,20.9993,186.186,0.337652,0.0,0.0
1248,311.75,45.9605,48.1039,141.34,98.2489,94.8143,0.000943709,0.0559726,20.9995,186.206,0.31537,0.0,0.0
1252,312.75,46.2569,48.3539,146.994,98.2533,94.5089,0.0010252,0.0560356,20.9996,186.196,0.344365,0.0,0.0
1256,313.75,46.0382,47.7921,139.381,98.2776,93.5818,0.00109402,0.0560549,20.9997,186.176,0.433927,0.0,0.0
1260,314.75,46.2558,47.8437,141.188,98.2995,94.5019,0.00113697,0.0559692,20.9997,186.186,0.349192,0.0,0.0
1264,315.75,45.978,48.0607,141.791,98.3139,93.778,0.00115858,0.055913,20.9997,186.176,0.418635,0.0,0.0
1268,316.75,45.9996,48.1562,137.445,98.3469,93.6812,0.00114208,0.0559169,20.9998,186.156,0.430777,0.0,0.0
1272,317.75,46.0889,47.9271,141.931,98.3613,93.731,0.0010765,0.0559381,20.9998,186.166,0.427354,0.0,0.0
1276,318.75,46.2385,48.0839,141.232,98.3836,94.7171,0.00101051,0.05589,20.9998,186.146,0.336616,0.0,0.0
1280,319.75,46.1699,48.1916,140.93,98.3924,93.8625,0.000948602,0.0558364,20.9998,186.156,0.41773,0.0,0.0
1284,320.75,46.1172,48.0619,139.286,98.4072,93.8939,0.000894859,0.0558156,20.9998,186.156,0.416101,0.0,0.0
1288,321.75,46.0126,47.8154,142.945,98.4163,93.9759,0.000863974,0.0558368,20.9998,186.146,0.409188,0.0,0.0
1292,322.75,46.2201,48.2136,139.724,98.4387,94.2142,0.00085246,0.0558313,20.9998,186.156,0.388756,0.0,0.0
1296,323.75,45.8572,48.0018,139.459,98.4562,94.7138,0.000865312,0.0557682,21.0004,186.166,0.34346,0.0,0.0
1300,324.75,46.0848,47.9882,137.472,98.469,94.7327,0.000890616,0.0556963,21.001,186.166,0.342835,0.0,0.0
1304,325.75,46.2207,47.7938,140.213,98.4809,94.6243,0.000918085,0.0557145,21.0014,186.146,0.35406,0.0,0.0
1308,326.75,46.0265,48.3149,140.344,98.4837,94.5617,0.000925758,0.0557569,21.0016,186.146,0.360182,0.0,0.0
1312,327.75,45.8988,48.0463,137.837,98.5001,94.1878,0.000921485,0.0557465,21.0018,186.136,0.396764,0.0,0.0
1316,328.75,45.6993,47.8164,137.245,98.5096,94.3242,0.000914261,0.0557041,21.0019,186.136,0.384795,0.0,0.0
1320,329.75,45.8165,47.7676,140.193,98.5248,94.3757,0.000898748,0.055651,21.002,186.136,0.381319,0.0,0.0
1324,330.75,46.0058,47.6295,139.629,98.5336,94.3473,0.000901699,0.0555961,21.0018,186.116,0.384779,0.0,0.0
1328,331.75,45.4333,47.7473,142.704,98.5419,94.2991,0.000929904,0.0556034,21.0016,186.096,0.390064,0.0,0.0
1332,332.75,46.0508,47.5101,142.525,98.5519,94.4405,0.00097602,0.0556366,21.0015,186.106,0.377682,0.0,0.0
1336,333.75,45.934,47.7058,138.441,98.5754,94.3477,0.00101371,0.0556417,21.0014,186.096,0.388505,0.0,0.0
1340,334.75,46.1253,48.0613,141.059,98.5682,93.9862,0.00103843,0.0556302,21.0014,186.116,0.421886,0.0,0.0
1344,335.75,45.6805,47.6759,137.949,98.5866,94.6255,0.00100462,0.05564,21.001,186.106,0.363448,0.0,0.0
1348,336.75,46.063,47.8051,140.677,98.5914,94.6779,0.000939664,0.0556465,21.0006,186.096,0.358976,0.0,0.0
1352,337.75,46.1404,47.9254,144.293,98.5974,94.9912,0.000867296,0.0556579,21.0003,186.086,0.330235,0.0,0.0
1356,338.75,45.6526,47.9786,138.68,98.6033,95.1796,0.000800141,0.0556685,21.0002,186.096,0.313213,0.0,0.0
1360,339.75,45.7046,47.767,141.539,98.6093,94.5138,0.000745213,0.0556334,21,186.106,0.37596,0.0,0.0
1364,340.75,46.334,47.5058,138.452,98.6233,94.5806,0.000701008,0.0555859,21,186.086,0.370954,0.0,0.0
1368,341.75,45.7996,47.3673,143.369,98.6245,94.689,0.000679374,0.0555586,20.9999,186.096,0.360908,0.0,0.0
1372,342.75,45.8928,47.7758,141.795,98.6548,94.7876,0.00069652,0.0555931,20.9999,186.076,0.354415,0.0,0.0
1376,343.75,45.9714,47.7492,143.781,98.6388,94.6412,0.00075431,0.0556157,20.9999,186.066,0.366675,0.0,0.0
1380,344.75,46.1251,48.0033,141.285,98.644,94.7537,0.000830619,0.0556274,20.9998,186.066,0.356609,0.0,0.0
1384,345.75,45.6899,47.4725,138.439,98.6548,93.9965,0.000872121,0.0556811,20.9998,186.066,0.42869,0.0,0.0
1388,346.75,45.8833,47.2629,142.132,98.6568,94.1461,0.000862411,0.0558067,20.9998,186.056,0.414771,0.0,0.0
1392,347.75,45.4643,47.5168,137.666,98.6655,94.5048,0.000842775,0.0558542,20.9998,186.046,0.381863,0.0,0.0
1396,348.75,45.8446,47.2701,137.938,98.6675,94.7529,0.000827492,0.0558433,20.9998,186.026,0.358799,0.0,0.0
1400,349.75,45.5801,47.7359,139.502,98.6695,94.997,0.000824316,0.0558537,20.9998,186.036,0.336182,0.0,0.0
1404,350.75,45.4447,47.7769,140.489,98.6679,94.1709,0.000846132,0.0557621,21,186.046,0.413447,0.0,0.0
1408,351.75,45.3517,47.8129,144.81,98.6871,94.0076,0.000864822,0.055702,21.0003,186.006,0.430542,0.0,0.0
1412,352.75,45.6996,47.4525,138.067,98.6703,93.7768,0.000868332,0.0556769,21.0004,186.016,0.450828,0.0,0.0
1416,353.75,46.0365,47.3225,141.868,98.6703,94.2916,0.00085532,0.0556856,21.0005,186.016,0.402302,0.0,0.0
1420,354.75,45.487,47.5526,144.165,98.6695,94.7101,0.000832281,0.0556887,21.0006,186.016,0.36299,0.0,0.0
1424,355.75,45.5977,47.4766,142.111,98.6675,94.438,0.000803003,0.0556662,21.0006,186.016,0.388307,0.0,0.0
1428,356.75,45.7123,47.9448,138.692,98.6759,94.3729,0.00078756,0.0556261,21.0006,185.986,0.395174,0.0,0.0
1432,357.75,46.0391,47.3977,142.278,98.6775,94.5674,0.000791387,0.055565,21.0006,186.006,0.377063,0.0,0.0
1436,358.75,45.1533,47.2475,141.637,98.6707,93.7813,0.000857359,0.0556478,21.001,186.036,0.450436,0.0,0.0
1440,359.75,45.4444,47.2302,140.822,98.6659,94.3931,,0.0556827,,186.026,0.392381,0.0,0.0
1444,360.75,44.9641,47.0833,136.078,98.6659,95.2971,,0.0556718,,185.986,0.307906,0.0,0.0
1448,361.75,45.6756,47.3442,139.103,98.6643,94.1103,,0.055595,,186.016,0.41883,0.0,0.0
1452,362.75,45.2866,47.3329,142.23,98.6528,93.9916,,,,186.026,0.428978,0.0,0.0
1456,363.75,45.2227,47.5776,142.372,98.6683,94.3691,,,,185.966,0.394841,0.0,0.0
1460,364.75,45.9216,47.1396,144.648,98.6488,94.2397,,,,185.986,0.405251,0.0,0.0
1464,365.75,45.3819,47.5307,137.488,98.6448,94.3815,,,,185.996,0.391567,0.0,0.0
1468,366.75,45.5928,46.7295,142.302,98.6464,95.4772,,,,185.976,0.289412,0.0,0.0
1472,367.75,45.4841,47.0833,139.004,98.6416,94.4574,,,,185.966,0.38416,0.0,0.0
1476,368.75,45.8951,47.6226,137.126,98.6444,94.6552,,,,185.986,0.365865,0.0,0.0
1480,369.75,45.473,47.669,137.885,98.6292,94.6655,,,,185.976,0.363538,0.0,0.0
1482,370.25,45.3001,47.3523,141.846,98.6181,94.3778,,,,185.946,0.389514,0.0,0.0