File: 01_Data/FDNY_LDF/STA/N2/3K_min/FDNY_LDF_STA_N2_3KData_22264_R1.csv
##Temp./Â°C,Time/min,Mass loss(subtr.2)/mg,DSC(subtr.2)/(mW/mg),Sensit./(uV/mW)
50.446,10.01667,-0.05923,0.01019863,1.05027
51.146,11.15199,-0.06384156,0.02984994,1.05015
51.846,11.54088,-0.06540012,0.04197318,1.05003
52.546,11.86266,-0.06766687,0.04934561,1.0499
53.246,12.1556,-0.0667642,0.05220982,1.04977
53.946,12.43287,-0.06898476,0.05474702,1.04965
54.646,12.70166,-0.07051607,0.05691507,1.04952
55.346,12.9655,-0.06912311,0.05829278,1.04939
56.046,13.22507,-0.07041885,0.06013753,1.04926
56.746,13.48224,-0.07370967,0.0618289,1.04913
57.446,13.73538,-0.07187283,0.06216021,1.049
58.146,13.98766,-0.07437993,0.06128075,1.04887
58.846,14.23441,-0.0743693,0.06383623,1.04874
59.546,14.4804,-0.07616162,0.06369505,1.0486
60.246,14.727,-0.07710614,0.06547388,1.04847
60.946,14.97538,-0.07699902,0.06698311,1.04833
61.646,15.2209,-0.0783005,0.0669246,1.0482
62.346,15.4627,-0.08240361,0.06926519,1.04806
63.046,15.7027,-0.07981,0.07071174,1.04792
63.746,15.94183,-0.08084876,0.0705807,1.04779
64.446,16.1807,-0.0835806,0.07089274,1.04765
65.146,16.41975,-0.08379163,0.06973636,1.04751
65.846,16.65907,-0.08550381,0.06985033,1.04737
66.546,16.8978,-0.08724415,0.07335727,1.04723
67.246,17.1357,-0.08688,0.07224066,1.04708
67.946,17.37226,-0.08622953,0.0709434,1.04694
68.646,17.60691,-0.08691479,0.07448394,1.0468
69.346,17.8404,-0.08745074,0.07376274,1.04665
70.046,18.0742,-0.08716136,0.07250107,1.04651
70.746,18.31036,-0.08961609,0.07389324,1.04636
71.446,18.54693,-0.09083,0.07208169,1.04622
72.146,18.78275,-0.09214847,0.07278782,1.04607
72.846,19.01693,-0.09346,0.07242607,1.04592
73.546,19.25113,-0.09477971,0.07252328,1.04577
74.246,19.4857,-0.09531758,0.07165922,1.04562
74.946,19.7199,-0.09652999,0.07270077,1.04547
75.646,19.95466,-0.09785092,0.07221843,1.04532
76.346,20.1887,-0.09989965,0.06983457,1.04517
77.046,20.42385,-0.0998993,0.06941105,1.04502
77.746,20.65945,-0.09949406,0.06749946,1.04486
78.446,20.89516,-0.10147,0.06671202,1.04471
79.146,21.13061,-0.10278,0.06515146,1.04455
79.846,21.36555,-0.1041,0.06370121,1.0444
80.546,21.6006,-0.1041,0.06065123,1.04424
81.246,21.83501,-0.10674,0.06224467,1.04408
81.946,22.06855,-0.10808,0.06284312,1.04393
82.646,22.3012,-0.10613,0.06139758,1.04377
83.346,22.5342,-0.10805,0.06306038,1.04361
84.046,22.76813,-0.1087,0.06141206,1.04345
84.746,23.00057,-0.11001,0.05959988,1.04329
85.446,23.2321,-0.11134,0.05797581,1.04312
86.146,23.4634,-0.11138,0.06058968,1.04296
86.846,23.69653,-0.111,0.05818376,1.0428
87.546,23.92984,-0.11334,0.05539101,1.04263
88.246,24.1642,-0.11266,0.0530141,1.04247
88.946,24.3977,-0.11233,0.05189144,1.0423
89.646,24.631,-0.11265,0.05286889,1.04214
90.346,24.863,-0.1133,0.05270941,1.04197
91.046,25.09554,-0.11463,0.0486869,1.0418
91.746,25.3285,-0.11593,0.04871193,1.04163
92.446,25.56239,-0.11595,0.04959539,1.04146
93.146,25.7945,-0.11686,0.04904935,1.04129
93.846,26.0263,-0.11723,0.0482289,1.04112
94.546,26.2583,-0.11757,0.04638221,1.04095
95.246,26.491,-0.11769,0.04649613,1.04077
95.946,26.72417,-0.11613,0.04580773,1.0406
96.646,26.95723,-0.11829,0.04612715,1.04043
97.346,27.19023,-0.11727,0.04472305,1.04025
98.046,27.4212,-0.11661,0.04442875,1.04007
98.746,27.65199,-0.11589,0.04684486,1.0399
99.446,27.88314,-0.11693,0.04574626,1.03972
100.146,28.1147,-0.11685,0.04523306,1.03954
100.846,28.346,-0.11628,0.04477275,1.03936
101.546,28.57678,-0.11694,0.04505683,1.03918
102.246,28.80766,-0.11693,0.04413764,1.039
102.946,29.03857,-0.11825,0.04319092,1.03882
103.646,29.26945,-0.11759,0.04203995,1.03864
104.346,29.5012,-0.11561,0.04257503,1.03845
105.046,29.73337,-0.11759,0.04144827,1.03827
105.746,29.9652,-0.11759,0.0430103,1.03809
106.446,30.1966,-0.11661,0.04223744,1.0379
107.146,30.42752,-0.11923,0.04124194,1.03771
107.846,30.65878,-0.11792,0.04214797,1.03753
108.546,30.8898,-0.11956,0.04288325,1.03734
109.246,31.1208,-0.11943,0.04490439,1.03715
109.946,31.3518,-0.12121,0.04366367,1.03696
110.646,31.5838,-0.12088,0.04171618,1.03677
111.346,31.81526,-0.12222,0.04413823,1.03658
112.046,32.04593,-0.1222,0.04345375,1.03639
112.746,32.27523,-0.12355,0.0413746,1.0362
113.446,32.50287,-0.12252,0.04125234,1.036
114.146,32.73353,-0.12318,0.04190442,1.03581
114.846,32.96459,-0.12252,0.04351163,1.03562
115.546,33.19702,-0.12253,0.04356933,1.03542
116.246,33.42687,-0.12146,0.04346358,1.03522
116.946,33.657,-0.12156,0.04491419,1.03503
117.646,33.88682,-0.12187,0.04398177,1.03483
118.346,34.11684,-0.12186,0.04393878,1.03463
119.046,34.34595,-0.12088,0.04448084,1.03443
119.746,34.57533,-0.12056,0.04439995,1.03423
120.446,34.80487,-0.12079,0.04330243,1.03403
121.146,35.0358,-0.12054,0.04250134,1.03383
121.846,35.2669,-0.12187,0.04438878,1.03363
122.546,35.49774,-0.12152,0.04240696,1.03342
123.246,35.72753,-0.12286,0.04165778,1.03322
123.946,35.9581,-0.12294,0.04261684,1.03301
124.646,36.18929,-0.12154,0.04289008,1.03281
125.346,36.42105,-0.12219,0.03885981,1.0326
126.046,36.65202,-0.12093,0.03950292,1.03239
126.746,36.8826,-0.12319,0.03958876,1.03219
127.446,37.11376,-0.12371,0.0385995,1.03198
128.146,37.34497,-0.12352,0.04133872,1.03177
128.846,37.57492,-0.12422,0.04036296,1.03156
129.546,37.80423,-0.12293,0.04196138,1.03135
130.246,38.03337,-0.12351,0.04246498,1.03114
130.946,38.26262,-0.12247,0.04100113,1.03092
131.646,38.49265,-0.12351,0.04300499,1.03071
132.346,38.7222,-0.12352,0.04051822,1.0305
133.046,38.95261,-0.12114,0.04162217,1.03028
133.746,39.18199,-0.12122,0.03972181,1.03007
134.446,39.41207,-0.12319,0.0419974,1.02985
135.146,39.64117,-0.12189,0.04047404,1.02963
135.846,39.87135,-0.12455,0.04248763,1.02941
136.546,40.101,-0.12252,0.04371902,1.0292
137.246,40.3305,-0.12455,0.04015243,1.02898
137.946,40.56012,-0.12516,0.04306889,1.02876
138.646,40.78913,-0.12452,0.04446742,1.02854
139.346,41.0165,-0.1245,0.04312197,1.02831
140.046,41.2427,-0.12548,0.0404839,1.02809
140.746,41.4703,-0.12484,0.04319706,1.02787
141.446,41.70132,-0.12615,0.04136645,1.02764
142.146,41.93284,-0.12582,0.04232089,1.02742
142.846,42.16336,-0.1272,0.04140835,1.02719
143.546,42.3917,-0.1278,0.04438256,1.02697
144.246,42.61938,-0.12911,0.04494469,1.02674
144.946,42.847,-0.12779,0.04462303,1.02651
145.646,43.07477,-0.12765,0.04291246,1.02628
146.346,43.30295,-0.12615,0.04375622,1.02605
147.046,43.53114,-0.12923,0.04397922,1.02582
147.746,43.7598,-0.12878,0.04397639,1.02559
148.446,43.9904,-0.12748,0.04478488,1.02536
149.146,44.2198,-0.12878,0.04309375,1.02513
149.846,44.44823,-0.13011,0.04293051,1.02489
150.546,44.67666,-0.13011,0.04493257,1.02466
151.246,44.9054,-0.13009,0.04418416,1.02443
151.946,45.1355,-0.13107,0.0457678,1.02419
152.646,45.36313,-0.13108,0.04456105,1.02395
153.346,45.59162,-0.13108,0.04712191,1.02372
154.046,45.81889,-0.13042,0.04685976,1.02348
154.746,46.04696,-0.13174,0.04797475,1.02324
155.446,46.27603,-0.13174,0.04671646,1.023
156.146,46.50631,-0.13044,0.04730322,1.02276
156.846,46.73608,-0.13175,0.04898342,1.02252
157.546,46.9649,-0.13108,0.04835415,1.02228
158.246,47.19328,-0.13101,0.04872153,1.02203
158.946,47.42197,-0.13128,0.04850484,1.02179
159.646,47.65056,-0.13206,0.04876034,1.02155
160.346,47.87935,-0.131,0.04914808,1.0213
161.046,48.10787,-0.13341,0.04845393,1.02106
161.746,48.33696,-0.13206,0.04856861,1.02081
162.446,48.5655,-0.13339,0.04752373,1.02056
163.146,48.79507,-0.13339,0.04898483,1.02032
163.846,49.02361,-0.13206,0.04912505,1.02007
164.546,49.25229,-0.13339,0.04849225,1.01982
165.246,49.48082,-0.1347,0.04981402,1.01957
165.946,49.70983,-0.13372,0.04935792,1.01932
166.646,49.93893,-0.13203,0.05077262,1.01906
167.346,50.1676,-0.13471,0.05236736,1.01881
168.046,50.39646,-0.13327,0.05120412,1.01856
168.746,50.62513,-0.13339,0.05106483,1.0183
169.446,50.85315,-0.13339,0.05062808,1.01805
170.146,51.0809,-0.1347,0.05326861,1.01779
170.846,51.30885,-0.13428,0.04893023,1.01754
171.546,51.53839,-0.13437,0.05031098,1.01728
172.246,51.76716,-0.13569,0.05202709,1.01702
172.946,51.9974,-0.13569,0.05295864,1.01676
173.646,52.2261,-0.13697,0.05298388,1.0165
174.346,52.45525,-0.13571,0.05337046,1.01624
175.046,52.68206,-0.13668,0.05315759,1.01598
175.746,52.9081,-0.13602,0.05488888,1.01572
176.446,53.134,-0.13767,0.05660639,1.01546
177.146,53.3614,-0.13769,0.05485766,1.0152
177.846,53.59006,-0.13767,0.05673758,1.01493
178.546,53.81887,-0.13865,0.0596843,1.01467
179.246,54.0459,-0.13865,0.05589761,1.0144
179.946,54.2738,-0.13865,0.05583852,1.01414
180.646,54.50205,-0.13996,0.05526833,1.01387
181.346,54.731,-0.14165,0.05338093,1.0136
182.046,54.959,-0.14156,0.05482728,1.01333
182.746,55.1865,-0.14162,0.05199873,1.01306
183.446,55.41398,-0.14291,0.05143655,1.01279
184.146,55.6408,-0.14322,0.05270882,1.01252
184.846,55.86804,-0.14202,0.05231471,1.01225
185.546,56.0956,-0.14337,0.05198129,1.01198
186.246,56.32363,-0.14392,0.05132137,1.01171
186.946,56.5515,-0.14523,0.05187299,1.01143
187.646,56.77874,-0.14554,0.05109361,1.01116
188.346,57.0061,-0.14578,0.05359453,1.01088
189.046,57.23345,-0.14753,0.0533824,1.01061
189.746,57.46056,-0.14698,0.05243073,1.01033
190.446,57.68851,-0.14819,0.05520764,1.01005
191.146,57.917,-0.14687,0.05654776,1.00977
191.846,58.14544,-0.14819,0.05544022,1.00949
192.546,58.3726,-0.14951,0.05720464,1.00921
193.246,58.59947,-0.14818,0.06113816,1.00893
193.946,58.82629,-0.14937,0.05804205,1.00865
194.646,59.05396,-0.14951,0.05925608,1.00837
195.346,59.2812,-0.15082,0.05980453,1.00809
196.046,59.50886,-0.15278,0.06029942,1.0078
196.746,59.73644,-0.15326,0.05959556,1.00752
197.446,59.9644,-0.15214,0.05929228,1.00723
198.146,60.19269,-0.15346,0.06031604,1.00695
198.846,60.4208,-0.15346,0.06164005,1.00666
199.546,60.64901,-0.15409,0.05977076,1.00637
200.246,60.8761,-0.15443,0.06085442,1.00608
200.946,61.10249,-0.15609,0.06268367,1.0058
201.646,61.3286,-0.15609,0.06345061,1.00551
202.346,61.5551,-0.15708,0.06443532,1.00522
203.046,61.78196,-0.15805,0.06505362,1.00492
203.746,62.00903,-0.15875,0.06473267,1.00463
204.446,62.23624,-0.15939,0.0645171,1.00434
205.146,62.46379,-0.16012,0.06378228,1.00405
205.846,62.6911,-0.16033,0.06457985,1.00375
206.546,62.91829,-0.16102,0.06540851,1.00346
207.246,63.14536,-0.163,0.06652438,1.00316
207.946,63.37222,-0.16442,0.0660403,1.00286
208.646,63.599,-0.16432,0.06726056,1.00257
209.346,63.82524,-0.16514,0.06651382,1.00227
210.046,64.05216,-0.16531,0.06818193,1.00197
210.746,64.27916,-0.16563,0.06905319,1.00167
211.446,64.5069,-0.16835,0.0700436,1.00137
212.146,64.73493,-0.16924,0.06745724,1.00107
212.846,64.96304,-0.16958,0.06820002,1.00077
213.546,65.19075,-0.17181,0.06812677,1.00047
214.246,65.41726,-0.17111,0.07116139,1.00016
214.946,65.64461,-0.17376,0.07126389,0.99986
215.646,65.87228,-0.17233,0.07142469,0.99955
216.346,66.1003,-0.17507,0.07148713,0.99925
217.046,66.32764,-0.17647,0.07201481,0.99894
217.746,66.55498,-0.17742,0.07394444,0.99863
218.446,66.78237,-0.17803,0.0744376,0.99833
219.146,67.00964,-0.17835,0.07462885,0.99802
219.846,67.2367,-0.1795,0.0752796,0.99771
220.546,67.46384,-0.18118,0.07223188,0.9974
221.246,67.69059,-0.18276,0.07531327,0.99709
221.946,67.91751,-0.18395,0.07483818,0.99678
222.646,68.14494,-0.18427,0.0731208,0.99646
223.346,68.37308,-0.18569,0.07345299,0.99615
224.046,68.60145,-0.18656,0.074011,0.99584
224.746,68.82865,-0.18942,0.07614108,0.99552
225.446,69.05569,-0.19086,0.07645892,0.99521
226.146,69.2812,-0.19086,0.07555951,0.99489
226.846,69.50709,-0.19359,0.07600982,0.99458
227.546,69.73294,-0.1958,0.07840472,0.99426
228.246,69.96045,-0.19579,0.07421938,0.99394
228.946,70.1881,-0.19844,0.07547768,0.99362
229.646,70.41551,-0.19973,0.0767533,0.9933
230.346,70.64281,-0.20115,0.07591661,0.99298
231.046,70.8696,-0.20505,0.07454563,0.99266
231.746,71.09687,-0.20521,0.07674226,0.99234
232.446,71.32299,-0.207,0.07858678,0.99202
233.146,71.55082,-0.21094,0.07625637,0.99169
233.846,71.7788,-0.21269,0.07525083,0.99137
234.546,72.00751,-0.21558,0.0730691,0.99104
235.246,72.23469,-0.21817,0.07136552,0.99072
235.946,72.46164,-0.22121,0.07159239,0.99039
236.646,72.68874,-0.22339,0.07228733,0.99006
237.346,72.91597,-0.22605,0.07309268,0.98974
238.046,73.14294,-0.22874,0.07128709,0.98941
238.746,73.37,-0.23273,0.07127985,0.98908
239.446,73.59713,-0.23519,0.07225393,0.98875
240.146,73.8249,-0.23984,0.07265743,0.98842
240.846,74.05264,-0.24328,0.07401282,0.98809
241.546,74.27973,-0.24604,0.07350338,0.98775
242.246,74.50653,-0.24977,0.07366556,0.98742
242.946,74.7331,-0.25371,0.07408718,0.98709
243.646,74.96015,-0.25538,0.07239293,0.98675
244.346,75.18762,-0.26062,0.07268483,0.98642
245.046,75.41464,-0.26324,0.07297439,0.98608
245.746,75.6421,-0.26595,0.07429216,0.98575
246.446,75.86913,-0.27013,0.07032688,0.98541
247.146,76.09694,-0.27278,0.0735699,0.98507
247.846,76.3244,-0.27802,0.07316374,0.98473
248.546,76.55134,-0.28067,0.07369769,0.98439
249.246,76.77818,-0.28336,0.07456884,0.98405
249.946,77.0043,-0.28728,0.07597588,0.98371
250.646,77.23062,-0.28895,0.07784817,0.98337
251.346,77.4563,-0.29291,0.07657845,0.98303
252.046,77.68202,-0.29807,0.07587064,0.98268
252.746,77.90746,-0.30052,0.07647196,0.98234
253.446,78.13314,-0.30437,0.07749881,0.98199
254.146,78.35893,-0.31013,0.07879529,0.98165
254.846,78.58488,-0.31469,0.07689947,0.9813
255.546,78.81103,-0.31929,0.07780714,0.98096
256.246,79.0378,-0.32395,0.07840788,0.98061
256.946,79.2645,-0.32798,0.07823541,0.98026
257.646,79.49218,-0.33331,0.08004779,0.97991
258.346,79.71998,-0.33901,0.07723274,0.97956
259.046,79.9474,-0.34552,0.07965693,0.97921
259.746,80.17464,-0.35081,0.07844669,0.97886
260.446,80.40179,-0.35618,0.07811308,0.97851
261.146,80.62943,-0.36061,0.07802861,0.97816
261.846,80.85637,-0.36864,0.07813736,0.9778
262.546,81.0831,-0.37535,0.07804379,0.97745
263.246,81.31,-0.38062,0.07736032,0.97709
263.946,81.5374,-0.38787,0.07799696,0.97674
264.646,81.76518,-0.3939,0.07718663,0.97638
265.346,81.9936,-0.40181,0.07862922,0.97602
266.046,82.2221,-0.40772,0.0778122,0.97567
266.746,82.4498,-0.41484,0.07995936,0.97531
267.446,82.6769,-0.42168,0.08292755,0.97495
268.146,82.9033,-0.42805,0.08177322,0.97459
268.846,83.13043,-0.43495,0.08437922,0.97423
269.546,83.35738,-0.4428,0.08381147,0.97387
270.246,83.58488,-0.45019,0.08225919,0.97351
270.946,83.812,-0.45757,0.08331266,0.97314
271.646,84.03941,-0.4672,0.08397728,0.97278
272.346,84.26675,-0.47319,0.08368722,0.97241
273.046,84.49432,-0.48239,0.08277237,0.97205
273.746,84.7218,-0.49126,0.08423245,0.97168
274.446,84.94876,-0.50027,0.08581722,0.97132
275.146,85.17554,-0.50861,0.08458355,0.97095
275.846,85.40202,-0.51703,0.08543421,0.97058
276.546,85.62931,-0.52515,0.08694508,0.97021
277.246,85.8566,-0.53466,0.0875851,0.96985
277.946,86.08465,-0.54586,0.08989711,0.96948
278.646,86.31205,-0.55429,0.0895464,0.9691
279.346,86.53976,-0.56613,0.08943904,0.96873
280.046,86.76664,-0.57432,0.09178657,0.96836
280.746,86.99415,-0.58557,0.09099887,0.96799
281.446,87.22203,-0.59602,0.0924057,0.96762
282.146,87.4512,-0.60597,0.0947891,0.96724
282.846,87.6797,-0.61862,0.09409043,0.96687
283.546,87.90755,-0.62931,0.09670049,0.96649
284.246,88.13526,-0.64014,0.09775264,0.96611
284.946,88.3623,-0.65229,0.09911162,0.96574
285.646,88.5895,-0.66431,0.10112,0.96536
286.346,88.81628,-0.67379,0.10416,0.96498
287.046,89.04364,-0.68712,0.10394,0.9646
287.746,89.27094,-0.69841,0.10245,0.96422
288.446,89.49821,-0.71131,0.10572,0.96384
289.146,89.7259,-0.72335,0.10759,0.96346
289.846,89.95321,-0.73689,0.10665,0.96308
290.546,90.18047,-0.75125,0.10862,0.9627
291.246,90.40856,-0.76429,0.11022,0.96231
291.946,90.63683,-0.77739,0.11055,0.96193
292.646,90.8647,-0.79249,0.11136,0.96154
293.346,91.09181,-0.80661,0.11473,0.96116
294.046,91.31909,-0.8219,0.11367,0.96077
294.746,91.54644,-0.83331,0.11856,0.96038
295.446,91.77369,-0.85108,0.1177,0.96
296.146,92.0008,-0.8642,0.12055,0.95961
296.846,92.22798,-0.87985,0.12007,0.95922
297.546,92.45498,-0.89495,0.12138,0.95883
298.246,92.68195,-0.9132,0.1217,0.95844
298.946,92.9093,-0.92666,0.12093,0.95805
299.646,93.1364,-0.94367,0.12203,0.95766
300.346,93.36332,-0.96011,0.12391,0.95726
301.046,93.59007,-0.97538,0.12443,0.95687
301.746,93.8175,-0.99262,0.12479,0.95648
302.446,94.04545,-1.00886,0.12551,0.95608
303.146,94.27385,-1.02603,0.12463,0.95569
303.846,94.5022,-1.04317,0.12599,0.95529
304.546,94.73012,-1.05903,0.12471,0.95489
305.246,94.95826,-1.07547,0.12439,0.9545
305.946,95.18652,-1.0947,0.12519,0.9541
306.646,95.41516,-1.1101,0.12846,0.9537
307.346,95.64385,-1.12636,0.12773,0.9533
308.046,95.87076,-1.14454,0.13002,0.9529
308.746,96.09846,-1.1622,0.13253,0.9525
309.446,96.32554,-1.17971,0.13051,0.9521
310.146,96.5542,-1.19818,0.13243,0.9517
310.846,96.78235,-1.2179,0.13494,0.95129
311.546,97.01128,-1.23483,0.13485,0.95089
312.246,97.24059,-1.25361,0.13421,0.95048
312.946,97.46924,-1.27139,0.13348,0.95008
313.646,97.69695,-1.28905,0.13422,0.94967
314.346,97.92455,-1.30727,0.1361,0.94927
315.046,98.1534,-1.32534,0.13469,0.94886
315.746,98.38214,-1.34573,0.13814,0.94845
316.446,98.60995,-1.3633,0.13898,0.94804
317.146,98.83734,-1.38169,0.14024,0.94764
317.846,99.06491,-1.40004,0.13763,0.94723
318.546,99.29299,-1.41832,0.13746,0.94681
319.246,99.52125,-1.43598,0.13731,0.9464
319.946,99.74899,-1.4571,0.13762,0.94599
320.646,99.9773,-1.47628,0.14123,0.94558
321.346,100.205,-1.49615,0.1406,0.94517
322.046,100.4347,-1.51554,0.1422,0.94475
322.746,100.664,-1.53463,0.14338,0.94434
323.446,100.893,-1.55393,0.14361,0.94392
324.146,101.1216,-1.57471,0.14705,0.94351
324.846,101.351,-1.5942,0.1465,0.94309
325.546,101.579,-1.61461,0.15099,0.94267
326.246,101.808,-1.6352,0.15189,0.94225
326.946,102.036,-1.65568,0.15664,0.94184
327.646,102.264,-1.67557,0.15644,0.94142
328.346,102.493,-1.69684,0.15988,0.941
329.046,102.7213,-1.71806,0.16109,0.94058
329.746,102.95,-1.73886,0.16289,0.94015
330.446,103.18,-1.76279,0.16621,0.93973
331.146,103.41,-1.78517,0.16637,0.93931
331.846,103.639,-1.80695,0.16992,0.93889
332.546,103.868,-1.83012,0.1737,0.93846
333.246,104.097,-1.85374,0.17976,0.93804
333.946,104.325,-1.87801,0.18026,0.93761
334.646,104.553,-1.9008,0.18563,0.93719
335.346,104.783,-1.92574,0.18734,0.93676
336.046,105.013,-1.94934,0.1909,0.93633
336.746,105.243,-1.97237,0.19281,0.9359
337.446,105.472,-1.99898,0.19577,0.93548
338.146,105.7,-2.02536,0.19976,0.93505
338.846,105.928,-2.04829,0.20141,0.93462
339.546,106.157,-2.07496,0.206,0.93419
340.246,106.385,-2.09958,0.20736,0.93375
340.946,106.614,-2.12673,0.20897,0.93332
341.646,106.843,-2.15208,0.21129,0.93289
342.346,107.073,-2.17896,0.21283,0.93246
343.046,107.303,-2.20643,0.21189,0.93202
343.746,107.532,-2.23239,0.21367,0.93159
344.446,107.761,-2.25871,0.21423,0.93115
345.146,107.9895,-2.28584,0.21217,0.93072
345.846,108.218,-2.3107,0.212,0.93028
346.546,108.447,-2.33755,0.20728,0.92984
347.246,108.676,-2.36389,0.20686,0.9294
347.946,108.906,-2.39023,0.20182,0.92896
348.646,109.136,-2.41518,0.20132,0.92853
349.346,109.364,-2.44116,0.19628,0.92809
350.046,109.593,-2.46542,0.19049,0.92764
350.746,109.823,-2.48968,0.18507,0.9272
351.446,110.053,-2.51231,0.17865,0.92676
352.146,110.282,-2.53521,0.1703,0.92632
352.846,110.51,-2.55809,0.16282,0.92588
353.546,110.738,-2.58001,0.1584,0.92543
354.246,110.965,-2.59948,0.1493,0.92499
354.946,111.193,-2.62045,0.14042,0.92454
355.646,111.421,-2.63836,0.13049,0.9241
356.346,111.649,-2.65542,0.11996,0.92365
357.046,111.878,-2.67432,0.10978,0.9232
357.746,112.107,-2.68872,0.09690293,0.92275
358.446,112.335,-2.70485,0.08694729,0.92231
359.146,112.563,-2.7173,0.07619575,0.92186
359.846,112.792,-2.72966,0.06779768,0.92141
360.546,113.021,-2.7421,0.05448094,0.92096
361.246,113.25,-2.75267,0.04822464,0.92051
361.946,113.477,-2.76022,0.03298867,0.92005
362.646,113.707,-2.77005,0.02197303,0.9196
363.346,113.936,-2.77769,0.01597654,0.91915
364.046,114.166,-2.78416,0.006929091,0.9187
364.746,114.396,-2.79052,-0.002257316,0.91824
365.446,114.627,-2.79603,-0.005559721,0.91779
366.146,114.858,-2.80137,-0.01143764,0.91733
366.846,115.088,-2.80532,-0.01159174,0.91687
367.546,115.317,-2.8092,-0.01622985,0.91642
368.246,115.547,-2.81291,-0.02020517,0.91596
368.946,115.776,-2.81551,-0.01926094,0.9155
369.646,116.005,-2.81741,-0.02436087,0.91504
370.346,116.233,-2.82267,-0.02485068,0.91458
371.046,116.46,-2.82403,-0.02367393,0.91412
371.746,116.6879,-2.82708,-0.02600364,0.91366
372.446,116.916,-2.82891,-0.02508657,0.9132
373.146,117.146,-2.83059,-0.02704194,0.91274
373.846,117.375,-2.8335,-0.03041572,0.91228
374.546,117.604,-2.83451,-0.0317242,0.91181
375.246,117.834,-2.83712,-0.02986102,0.91135
375.946,118.064,-2.83872,-0.03340714,0.91089
376.646,118.294,-2.84243,-0.03374416,0.91042
377.346,118.524,-2.84525,-0.03215205,0.90996
378.046,118.755,-2.8467,-0.03393198,0.90949
378.746,118.9848,-2.84932,-0.03482728,0.90902
379.446,119.215,-2.85197,-0.03365178,0.90855
380.146,119.445,-2.85367,-0.03469662,0.90809
380.846,119.675,-2.85528,-0.03446166,0.90762
381.546,119.906,-2.85853,-0.03697384,0.90715
382.246,120.136,-2.8598,-0.03689399,0.90668
382.946,120.367,-2.86215,-0.03980104,0.90621
383.646,120.5966,-2.86382,-0.03987033,0.90574
384.346,120.827,-2.86643,-0.04097057,0.90526
385.046,121.056,-2.8684,-0.04342944,0.90479
385.746,121.286,-2.86968,-0.044429,0.90432
386.446,121.515,-2.87231,-0.0448773,0.90385
387.146,121.743,-2.87302,-0.04662595,0.90337
387.846,121.9721,-2.87533,-0.04730557,0.9029
388.546,122.202,-2.87698,-0.04946027,0.90242
389.246,122.433,-2.8796,-0.05125896,0.90194
389.946,122.664,-2.88287,-0.04930508,0.90147
390.646,122.893,-2.88423,-0.05129288,0.90099
391.346,123.124,-2.88674,-0.05158785,0.90051
392.046,123.354,-2.88738,-0.05260721,0.90003
392.746,123.584,-2.88946,-0.0528402,0.89955
393.446,123.814,-2.89341,-0.05184682,0.89907
394.146,124.045,-2.89602,-0.05349351,0.89859
394.846,124.276,-2.89731,-0.05180415,0.89811
395.546,124.507,-2.90013,-0.05617278,0.89763
396.246,124.737,-2.90156,-0.05721619,0.89715
396.946,124.968,-2.9046,-0.05752367,0.89666
397.646,125.199,-2.90555,-0.05961088,0.89618
398.346,125.431,-2.90723,-0.06048698,0.8957
399.046,125.661,-2.90988,-0.05885716,0.89521
399.746,125.891,-2.91325,-0.06146857,0.89473
400.446,126.12,-2.91364,-0.06013668,0.89424
401.146,126.35,-2.91546,-0.06181384,0.89375
401.846,126.5804,-2.9171,-0.06445619,0.89327
402.546,126.811,-2.9197,-0.06104773,0.89278
403.246,127.041,-2.92064,-0.06530362,0.89229
403.946,127.271,-2.92398,-0.06272826,0.8918
404.646,127.502,-2.92607,-0.06413172,0.89131
405.346,127.732,-2.92731,-0.05965574,0.89082
406.046,127.963,-2.92994,-0.06352624,0.89033
406.746,128.194,-2.93239,-0.06581447,0.88984
407.446,128.424,-2.93389,-0.062949,0.88935
408.146,128.654,-2.93586,-0.06306511,0.88886
408.846,128.883,-2.93718,-0.0640863,0.88836
409.546,129.114,-2.94078,-0.06569802,0.88787
410.246,129.344,-2.94288,-0.0639883,0.88737
410.946,129.574,-2.94404,-0.06399406,0.88688
411.646,129.805,-2.94673,-0.06582316,0.88638
412.346,130.036,-2.94878,-0.06658442,0.88589
413.046,130.2679,-2.95099,-0.06771043,0.88539
413.746,130.4996,-2.95266,-0.06520141,0.88489
414.446,130.7308,-2.95526,-0.06320706,0.8844
415.146,130.962,-2.95791,-0.06609811,0.8839
415.846,131.193,-2.95886,-0.06427576,0.8834
416.546,131.425,-2.96204,-0.06522964,0.8829
417.246,131.657,-2.9638,-0.06297478,0.8824
417.946,131.887,-2.96571,-0.06349114,0.8819
418.646,132.118,-2.96844,-0.06639457,0.8814
419.346,132.347,-2.96843,-0.06411466,0.88089
420.046,132.578,-2.97155,-0.06547507,0.88039
420.746,132.808,-2.97302,-0.06512345,0.87989
421.446,133.0375,-2.97597,-0.06285882,0.87939
422.146,133.268,-2.97733,-0.06284168,0.87888
422.846,133.499,-2.9786,-0.06148812,0.87838
423.546,133.73,-2.98159,-0.06379597,0.87787
424.246,133.961,-2.98291,-0.06243284,0.87736
424.946,134.192,-2.98426,-0.06335554,0.87686
425.646,134.424,-2.98559,-0.06019485,0.87635
426.346,134.655,-2.9884,-0.06203327,0.87584
427.046,134.8854,-2.98885,-0.05876789,0.87534
427.746,135.116,-2.99047,-0.05696414,0.87483
428.446,135.347,-2.99181,-0.05577141,0.87432
429.146,135.578,-2.99452,-0.05516465,0.87381
429.846,135.809,-2.99374,-0.05630831,0.8733
430.546,136.041,-2.99633,-0.05677505,0.87279
431.246,136.2734,-2.99839,-0.05496109,0.87227
431.946,136.506,-2.9971,-0.05596746,0.87176
432.646,136.738,-3.00101,-0.05603823,0.87125
433.346,136.971,-3.00138,-0.05499653,0.87074
434.046,137.204,-3.00331,-0.05622898,0.87022
434.746,137.436,-3.00432,-0.05406758,0.86971
435.446,137.669,-3.00575,-0.05132678,0.86919
436.146,137.901,-3.00867,-0.05203369,0.86868
436.846,138.132,-3.00854,-0.05353957,0.86816
437.546,138.363,-3.01034,-0.05204902,0.86764
438.246,138.594,-3.01052,-0.05244686,0.86713
438.946,138.825,-3.01234,-0.04900661,0.86661
439.646,139.055,-3.01438,-0.05024713,0.86609
440.346,139.285,-3.01648,-0.04898719,0.86557
441.046,139.514,-3.01782,-0.04969269,0.86505
441.746,139.744,-3.01846,-0.04941765,0.86453
442.446,139.976,-3.02109,-0.04949071,0.86401
443.146,140.207,-3.02031,-0.04901721,0.86349
443.846,140.44,-3.02239,-0.05137164,0.86297
444.546,140.671,-3.02338,-0.05187453,0.86245
445.246,140.903,-3.0245,-0.05060893,0.86192
445.946,141.134,-3.02762,-0.05081424,0.8614
446.646,141.367,-3.02899,-0.04845741,0.86088
447.346,141.598,-3.02985,-0.04818806,0.86035
448.046,141.83,-3.0303,-0.04605394,0.85983
448.746,142.062,-3.03125,-0.0466383,0.8593
449.446,142.295,-3.03194,-0.04642999,0.85877
450.146,142.5274,-3.03426,-0.04778101,0.85825
450.846,142.761,-3.03557,-0.04477892,0.85772
451.546,142.994,-3.03688,-0.04787025,0.85719
452.246,143.227,-3.03688,-0.04563771,0.85667
452.946,143.459,-3.03687,-0.04516606,0.85614
453.646,143.69,-3.03952,-0.044078,0.85561
454.346,143.922,-3.04183,-0.04506001,0.85508
455.046,144.1535,-3.04182,-0.04512974,0.85455
455.746,144.385,-3.04316,-0.04685082,0.85402
456.446,144.617,-3.04347,-0.04602427,0.85348
457.146,144.849,-3.04572,-0.04465854,0.85295
457.846,145.081,-3.04709,-0.04246113,0.85242
458.546,145.313,-3.04708,-0.04571244,0.85189
459.246,145.545,-3.0484,-0.04659735,0.85135
459.946,145.776,-3.04931,-0.04196263,0.85082
460.646,146.008,-3.04972,-0.04119058,0.85029
461.346,146.239,-3.05103,-0.04293164,0.84975
462.046,146.471,-3.05368,-0.04134626,0.84921
462.746,146.703,-3.05235,-0.03718031,0.84868
463.446,146.935,-3.05367,-0.03563849,0.84814
464.146,147.167,-3.05498,-0.03724752,0.8476
464.846,147.399,-3.05597,-0.03195454,0.84707
465.546,147.632,-3.05729,-0.03232391,0.84653
466.246,147.865,-3.05731,-0.03131049,0.84599
466.946,148.099,-3.05984,-0.02993062,0.84545
467.646,148.331,-3.05995,-0.02971963,0.84491
468.346,148.563,-3.06125,-0.02930495,0.84437
469.046,148.794,-3.06186,-0.02810514,0.84383
469.746,149.025,-3.06242,-0.02637439,0.84329
470.446,149.257,-3.06354,-0.02984865,0.84275
471.146,149.488,-3.06546,-0.02939514,0.8422
471.846,149.7186,-3.06617,-0.02957814,0.84166
472.546,149.95,-3.06617,-0.03222168,0.84112
473.246,150.181,-3.06814,-0.02982403,0.84057
473.946,150.413,-3.06683,-0.03251229,0.84003
474.646,150.645,-3.06909,-0.0351195,0.83948
475.346,150.877,-3.06947,-0.03292141,0.83894
476.046,151.11,-3.07079,-0.03439502,0.83839
476.746,151.342,-3.07208,-0.03479456,0.83785
477.446,151.575,-3.07209,-0.03504988,0.8373
478.146,151.808,-3.07209,-0.03553506,0.83675
478.846,152.041,-3.07341,-0.03895209,0.8362
479.546,152.274,-3.07528,-0.03790049,0.83566
480.246,152.506,-3.07473,-0.03695191,0.83511
480.946,152.739,-3.07604,-0.03447562,0.83456
481.646,152.973,-3.07604,-0.03460712,0.83401
482.346,153.206,-3.07605,-0.03612311,0.83346
483.046,153.4384,-3.07767,-0.03675485,0.83291
483.746,153.67,-3.07768,-0.03779025,0.83236
484.446,153.903,-3.07779,-0.03607959,0.8318
485.146,154.133,-3.079,-0.03752831,0.83125
485.846,154.364,-3.08159,-0.03746577,0.8307
486.546,154.595,-3.08163,-0.03819785,0.83014
487.246,154.826,-3.08163,-0.03966537,0.82959
487.946,155.057,-3.08199,-0.03987234,0.82904
488.646,155.288,-3.08296,-0.03909562,0.82848
489.346,155.521,-3.08264,-0.03948934,0.82793
490.046,155.755,-3.08386,-0.04404167,0.82737
490.746,155.99,-3.0846,-0.04486155,0.82681
491.446,156.225,-3.08592,-0.05006573,0.82626
492.146,156.46,-3.08668,-0.0485313,0.8257
492.846,156.6945,-3.08596,-0.04712552,0.82514
493.546,156.928,-3.08788,-0.04677101,0.82458
494.246,157.162,-3.08795,-0.04867801,0.82403
494.946,157.395,-3.08989,-0.04777332,0.82347
495.646,157.6286,-3.08926,-0.05035833,0.82291
496.346,157.863,-3.0915,-0.05084065,0.82235
497.046,158.097,-3.0915,-0.04934984,0.82179
497.746,158.3313,-3.09351,-0.04812937,0.82123
498.446,158.566,-3.09381,-0.05010463,0.82066
499.146,158.799,-3.09381,-0.05177776,0.8201
499.846,159.032,-3.09447,-0.05172661,0.81954
500.546,159.263,-3.09511,-0.05134935,0.81898
501.246,159.495,-3.09588,-0.05195408,0.81841
501.946,159.727,-3.09611,-0.05439695,0.81785
502.646,159.9601,-3.0964,-0.05364725,0.81729
503.346,160.193,-3.09631,-0.05608242,0.81672
504.046,160.425,-3.09776,-0.05736702,0.81616
504.746,160.657,-3.09908,-0.05640136,0.81559
505.446,160.889,-3.09765,-0.05471782,0.81502
506.146,161.121,-3.10042,-0.05582422,0.81446
506.846,161.354,-3.10118,-0.05774345,0.81389
507.546,161.586,-3.10205,-0.05646524,0.81332
508.246,161.819,-3.10204,-0.05561082,0.81275
508.946,162.051,-3.10204,-0.05640441,0.81219
509.646,162.285,-3.10368,-0.05747225,0.81162
510.346,162.519,-3.10506,-0.0588358,0.81105
511.046,162.753,-3.10597,-0.06195935,0.81048
511.746,162.9869,-3.10629,-0.05995739,0.80991
512.446,163.22,-3.10763,-0.06145523,0.80934
513.146,163.452,-3.10763,-0.06129455,0.80877
513.846,163.6834,-3.1073,-0.06184474,0.80819
514.546,163.916,-3.10862,-0.0605586,0.80762
515.246,164.15,-3.10862,-0.06029834,0.80705
515.946,164.382,-3.11061,-0.06295557,0.80648
516.646,164.616,-3.10928,-0.06179548,0.8059
517.346,164.849,-3.10993,-0.06388463,0.80533
518.046,165.084,-3.11092,-0.06748581,0.80476
518.746,165.317,-3.11091,-0.06725718,0.80418
519.446,165.551,-3.10997,-0.0674157,0.80361
520.146,165.785,-3.11257,-0.06817551,0.80303
520.846,166.0196,-3.1139,-0.06774092,0.80245
521.546,166.254,-3.1151,-0.06869438,0.80188
522.246,166.489,-3.11455,-0.07065054,0.8013
522.946,166.7236,-3.11454,-0.06462278,0.80072
523.646,166.959,-3.11553,-0.06644976,0.80015
524.346,167.194,-3.11716,-0.06789772,0.79957
525.046,167.429,-3.1175,-0.0661126,0.79899
525.746,167.664,-3.12014,-0.06725582,0.79841
526.446,167.8972,-3.11981,-0.0648078,0.79783
527.146,168.13,-3.11981,-0.06445153,0.79725
527.846,168.362,-3.12048,-0.06551427,0.79667
528.546,168.595,-3.12253,-0.0632673,0.79609
529.246,168.828,-3.12248,-0.06749554,0.79551
529.946,169.061,-3.12278,-0.0659426,0.79493
530.646,169.294,-3.12277,-0.06576138,0.79435
531.346,169.527,-3.12475,-0.06483857,0.79376
532.046,169.762,-3.12475,-0.06656316,0.79318
532.746,169.995,-3.12604,-0.06508318,0.7926
533.446,170.228,-3.12606,-0.06576766,0.79201
534.146,170.461,-3.12846,-0.06539736,0.79143
534.846,170.694,-3.12705,-0.06559769,0.79084
535.546,170.927,-3.12705,-0.06668731,0.79026
536.246,171.16,-3.12804,-0.06437446,0.78967
536.946,171.393,-3.12672,-0.0647216,0.78909
537.646,171.627,-3.12861,-0.06761726,0.7885
538.346,171.8596,-3.13001,-0.06672755,0.78792
539.046,172.094,-3.13002,-0.06404018,0.78733
539.746,172.328,-3.13001,-0.06535336,0.78674
540.446,172.563,-3.13001,-0.06448262,0.78615
541.146,172.797,-3.13166,-0.0646754,0.78557
541.846,173.031,-3.13196,-0.06813721,0.78498
542.546,173.266,-3.13263,-0.06441324,0.78439
543.246,173.5,-3.13297,-0.06665718,0.7838
543.946,173.734,-3.13462,-0.06842336,0.78321
544.646,173.968,-3.13497,-0.06325412,0.78262
545.346,174.203,-3.13363,-0.06468478,0.78203
546.046,174.436,-3.13495,-0.06426917,0.78144
546.746,174.67,-3.13559,-0.06627854,0.78085
547.446,174.903,-3.13593,-0.06477081,0.78025
548.146,175.137,-3.13723,-0.06592241,0.77966
548.846,175.37,-3.13725,-0.06297892,0.77907
549.546,175.604,-3.1377,-0.06544634,0.77848
550.246,175.837,-3.13758,-0.06815784,0.77788
550.946,176.071,-3.1389,-0.06939385,0.77729
551.646,176.305,-3.1389,-0.06885941,0.7767
552.346,176.54,-3.13955,-0.06683555,0.7761
553.046,176.7741,-3.13956,-0.06565439,0.77551
553.746,177.009,-3.13946,-0.06676131,0.77491
554.446,177.2431,-3.14106,-0.0644012,0.77432
555.146,177.478,-3.14087,-0.06816845,0.77372
555.846,177.713,-3.14086,-0.06550299,0.77312
556.546,177.948,-3.14252,-0.06663613,0.77253
557.246,178.183,-3.14252,-0.06647804,0.77193
557.946,178.416,-3.14218,-0.06241063,0.77133
558.646,178.649,-3.14218,-0.06542843,0.77074
559.346,178.882,-3.14317,-0.06477148,0.77014
560.046,179.116,-3.14481,-0.06310673,0.76954
560.746,179.349,-3.14481,-0.06547979,0.76894
561.446,179.5826,-3.14477,-0.06198221,0.76834
562.146,179.816,-3.14482,-0.06331063,0.76774
562.846,180.049,-3.14613,-0.06461751,0.76714
563.546,180.284,-3.14679,-0.06272205,0.76654
564.246,180.518,-3.1481,-0.06223466,0.76594
564.946,180.753,-3.1481,-0.0625725,0.76534
565.646,180.989,-3.14869,-0.06264344,0.76474
566.346,181.225,-3.14778,-0.06050422,0.76413
567.046,181.461,-3.14914,-0.06339804,0.76353
567.746,181.696,-3.15006,-0.06231317,0.76293
568.446,181.931,-3.15009,-0.06205129,0.76233
569.146,182.1657,-3.15009,-0.05907218,0.76172
569.846,182.4,-3.1514,-0.06150622,0.76112
570.546,182.635,-3.15077,-0.06164376,0.76052
571.246,182.869,-3.15074,-0.06381977,0.75991
571.946,183.103,-3.15074,-0.06066557,0.75931
572.646,183.3378,-3.15214,-0.06219124,0.7587
573.346,183.574,-3.15205,-0.06342289,0.7581
574.046,183.809,-3.15337,-0.0636582,0.75749
574.746,184.0453,-3.15339,-0.06616262,0.75688
575.446,184.28,-3.15403,-0.0624766,0.75628
576.146,184.515,-3.15304,-0.06196531,0.75567
576.846,184.748,-3.15403,-0.06465315,0.75506
577.546,184.981,-3.15536,-0.0666971,0.75446
578.246,185.215,-3.15526,-0.06748828,0.75385
578.946,185.45,-3.15534,-0.06711035,0.75324
579.646,185.6841,-3.15434,-0.06637325,0.75263
580.346,185.918,-3.15667,-0.06369844,0.75202
581.046,186.152,-3.15535,-0.06892246,0.75141
581.746,186.387,-3.15699,-0.06482112,0.7508
582.446,186.623,-3.15699,-0.06663493,0.7502
583.146,186.859,-3.1568,-0.0694211,0.74958
583.846,187.096,-3.15667,-0.06685582,0.74897
584.546,187.332,-3.15593,-0.06713996,0.74836
585.246,187.5676,-3.15634,-0.06797419,0.74775
585.946,187.803,-3.15881,-0.06867435,0.74714
586.646,188.039,-3.15798,-0.06708424,0.74653
587.346,188.2753,-3.15841,-0.06550693,0.74592
588.046,188.511,-3.15829,-0.06871858,0.7453
588.746,188.7464,-3.15939,-0.06299725,0.74469
589.446,188.982,-3.15964,-0.06490279,0.74408
590.146,189.216,-3.16061,-0.06591677,0.74347
590.846,189.4503,-3.16061,-0.06322931,0.74285
591.546,189.684,-3.16164,-0.06207923,0.74224
592.246,189.917,-3.16226,-0.06278807,0.74162
592.946,190.15,-3.16226,-0.06416062,0.74101
593.646,190.382,-3.16226,-0.06180675,0.74039
594.346,190.616,-3.16291,-0.05971566,0.73978
595.046,190.85,-3.16357,-0.05593044,0.73916
595.746,191.0871,-3.16225,-0.06195494,0.73855
596.446,191.324,-3.16369,-0.0624446,0.73793
597.146,191.562,-3.1632,-0.06258248,0.73731
597.846,191.798,-3.16292,-0.06351495,0.7367
598.546,192.033,-3.16292,-0.06234186,0.73608
599.246,192.266,-3.16325,-0.0641074,0.73546
599.946,192.499,-3.16293,-0.06382213,0.73485
600.646,192.733,-3.16423,-0.06156684,0.73423
601.346,192.967,-3.16523,-0.06168999,0.73361
602.046,193.203,-3.16522,-0.06261204,0.73299
602.746,193.438,-3.16555,-0.06380671,0.73237
603.446,193.673,-3.16647,-0.06816152,0.73175
604.146,193.908,-3.16654,-0.06204079,0.73113
604.846,194.142,-3.16654,-0.06329341,0.73051
605.546,194.376,-3.16672,-0.06317999,0.72989
606.246,194.609,-3.16818,-0.06341545,0.72927
606.946,194.844,-3.16915,-0.06354505,0.72865
607.646,195.079,-3.16785,-0.06492544,0.72803
608.346,195.314,-3.1688,-0.06346118,0.72741
609.046,195.55,-3.16818,-0.06463543,0.72679
609.746,195.785,-3.1695,-0.06720224,0.72617
610.446,196.021,-3.16992,-0.0675684,0.72554
611.146,196.256,-3.16975,-0.06470329,0.72492
611.846,196.492,-3.17168,-0.0650243,0.7243
612.546,196.728,-3.1718,-0.0639787,0.72368
613.246,196.963,-3.1718,-0.06113656,0.72305
613.946,197.198,-3.17278,-0.06118514,0.72243
614.646,197.432,-3.17147,-0.05899599,0.72181
615.346,197.6668,-3.17279,-0.05862409,0.72118
616.046,197.903,-3.17148,-0.06282678,0.72056
616.746,198.1401,-3.17186,-0.06073362,0.71993
617.446,198.377,-3.17341,-0.06001328,0.71931
618.146,198.612,-3.17377,-0.0615017,0.71868
618.846,198.847,-3.17312,-0.06060363,0.71806
619.546,199.081,-3.17344,-0.06114482,0.71743
620.246,199.3154,-3.17476,-0.06174651,0.71681
620.946,199.549,-3.17443,-0.06200355,0.71618
621.646,199.783,-3.1741,-0.0622434,0.71555
622.346,200.019,-3.17672,-0.05950101,0.71493
623.046,200.256,-3.17545,-0.0569065,0.7143
623.746,200.493,-3.17769,-0.06077436,0.71367
624.446,200.73,-3.17677,-0.06091747,0.71304
625.146,200.966,-3.17805,-0.05748544,0.71242
625.846,201.203,-3.17707,-0.06065713,0.71179
626.546,201.44,-3.17969,-0.06147112,0.71116
627.246,201.676,-3.17838,-0.06277754,0.71053
627.946,201.911,-3.17838,-0.06296262,0.7099
628.646,202.145,-3.17904,-0.05994008,0.70927
629.346,202.379,-3.17904,-0.06113916,0.70865
630.046,202.613,-3.17901,-0.05833414,0.70802
630.746,202.849,-3.17904,-0.05872513,0.70739
631.446,203.084,-3.17937,-0.06184615,0.70676
632.146,203.32,-3.18036,-0.06158983,0.70613
632.846,203.5543,-3.18036,-0.06291239,0.7055
633.546,203.789,-3.18168,-0.06063176,0.70486
634.246,204.024,-3.18036,-0.058561,0.70423
634.946,204.2576,-3.18169,-0.06249243,0.7036
635.646,204.492,-3.18036,-0.05920658,0.70297
636.346,204.7276,-3.18167,-0.06168226,0.70234
637.046,204.965,-3.18103,-0.06242879,0.70171
637.746,205.205,-3.18101,-0.06288993,0.70108
638.446,205.443,-3.18101,-0.06129962,0.70044
639.146,205.679,-3.18101,-0.06343353,0.69981
639.846,205.913,-3.1797,-0.05664655,0.69918
640.546,206.148,-3.18233,-0.05758258,0.69854
641.246,206.384,-3.18233,-0.05629751,0.69791
641.946,206.619,-3.18101,-0.05267882,0.69728
642.646,206.853,-3.18232,-0.05879005,0.69664
643.346,207.087,-3.18232,-0.05740301,0.69601
644.046,207.322,-3.182,-0.05724352,0.69538
644.746,207.556,-3.18135,-0.05567399,0.69474
645.446,207.791,-3.18331,-0.05323389,0.69411
646.146,208.025,-3.18397,-0.0569188,0.69347
646.846,208.26,-3.18339,-0.05378999,0.69284
647.546,208.494,-3.18367,-0.05179198,0.6922
648.246,208.728,-3.18398,-0.05193064,0.69157
648.946,208.962,-3.18398,-0.053348,0.69093
649.646,209.198,-3.18398,-0.04864302,0.6903
650.346,209.4343,-3.18595,-0.04935364,0.68966
651.046,209.671,-3.18496,-0.05074716,0.68902
651.746,209.908,-3.18509,-0.04674799,0.68839
652.446,210.145,-3.18463,-0.0467935,0.68775
653.146,210.382,-3.18397,-0.04676617,0.68711
653.846,210.619,-3.18496,-0.04955675,0.68648
654.546,210.856,-3.18496,-0.04472536,0.68584
655.246,211.093,-3.18333,-0.04567736,0.6852
655.946,211.329,-3.18397,-0.04491841,0.68456
656.646,211.564,-3.18463,-0.04394594,0.68393
657.346,211.799,-3.18332,-0.04261533,0.68329
658.046,212.035,-3.18365,-0.04261458,0.68265
658.746,212.269,-3.18398,-0.04633376,0.68201
659.446,212.505,-3.18265,-0.04653493,0.68137
660.146,212.74,-3.18519,-0.04510655,0.68073
660.846,212.976,-3.18463,-0.04545902,0.68009
661.546,213.212,-3.18562,-0.04688997,0.67946
662.246,213.449,-3.18459,-0.0439344,0.67882
662.946,213.686,-3.18719,-0.04682924,0.67818
663.646,213.925,-3.18726,-0.0468874,0.67754
664.346,214.162,-3.18694,-0.04449112,0.6769
665.046,214.398,-3.18826,-0.04235542,0.67626
665.746,214.633,-3.18826,-0.04506114,0.67562
666.446,214.868,-3.18858,-0.04091216,0.67498
667.146,215.102,-3.18956,-0.0418956,0.67433
667.846,215.337,-3.18826,-0.04035784,0.67369
668.546,215.572,-3.18919,-0.04488163,0.67305
669.246,215.807,-3.19022,-0.04062431,0.67241
669.946,216.0423,-3.19091,-0.03858037,0.67177
670.646,216.279,-3.19088,-0.03890753,0.67113
671.346,216.515,-3.19023,-0.04085047,0.67049
672.046,216.753,-3.19056,-0.03683883,0.66985
672.746,216.99,-3.19155,-0.03984528,0.6692
673.446,217.227,-3.19088,-0.03999093,0.66856
674.146,217.464,-3.18956,-0.04179991,0.66792
674.846,217.7,-3.19089,-0.04278722,0.66728
675.546,217.936,-3.19123,-0.04309469,0.66663
676.246,218.173,-3.1899,-0.0453792,0.66599
676.946,218.409,-3.19253,-0.04375276,0.66535
677.646,218.646,-3.19253,-0.04357458,0.6647
678.346,218.882,-3.19276,-0.04323207,0.66406
679.046,219.118,-3.19187,-0.04198555,0.66342
679.746,219.353,-3.19286,-0.04130222,0.66277
680.446,219.588,-3.19252,-0.04308453,0.66213
681.146,219.822,-3.19253,-0.04201697,0.66149
681.846,220.057,-3.19385,-0.03780627,0.66084
682.546,220.293,-3.19253,-0.03675029,0.6602
683.246,220.53,-3.19323,-0.04129512,0.65955
683.946,220.767,-3.19319,-0.04106226,0.65891
684.646,221.004,-3.1932,-0.03977256,0.65826
685.346,221.241,-3.19317,-0.03993963,0.65762
686.046,221.479,-3.1945,-0.03874502,0.65697
686.746,221.717,-3.1945,-0.04045776,0.65633
687.446,221.954,-3.19582,-0.04049834,0.65568
688.146,222.1906,-3.19483,-0.04015218,0.65504
688.846,222.427,-3.19483,-0.03458863,0.65439
689.546,222.664,-3.19516,-0.0380347,0.65375
690.246,222.901,-3.19591,-0.03658728,0.6531
690.946,223.139,-3.19428,-0.03617497,0.65246
691.646,223.377,-3.19549,-0.03639954,0.65181
692.346,223.613,-3.1955,-0.03507177,0.65116
693.046,223.85,-3.19681,-0.03183232,0.65052
693.746,224.085,-3.19615,-0.03404909,0.64987
694.446,224.321,-3.19638,-0.03755545,0.64922
695.146,224.5562,-3.19646,-0.03364613,0.64858
695.846,224.791,-3.19779,-0.03027837,0.64793
696.546,225.026,-3.19777,-0.03160532,0.64728
697.246,225.261,-3.19779,-0.0297612,0.64664
697.946,225.497,-3.19831,-0.02946493,0.64599
698.646,225.733,-3.19976,-0.02651083,0.64534
699.346,225.969,-3.19845,-0.02552461,0.6447
700.046,226.206,-3.19944,-0.02596422,0.64405
700.746,226.443,-3.20078,-0.0263662,0.6434
701.446,226.679,-3.19912,-0.02327178,0.64275
702.146,226.916,-3.20108,-0.02340727,0.6421
702.846,227.153,-3.20041,-0.02218939,0.64146
703.546,227.389,-3.19979,-0.01811493,0.64081
704.246,227.626,-3.19911,-0.02485495,0.64016
704.946,227.862,-3.19944,-0.02029854,0.63951
705.646,228.0979,-3.2001,-0.02312372,0.63886
706.346,228.334,-3.19944,-0.01894063,0.63822
707.046,228.571,-3.19947,-0.01836717,0.63757
707.746,228.807,-3.19943,-0.01506768,0.63692
708.446,229.043,-3.19947,-0.01623581,0.63627
709.146,229.28,-3.19878,-0.01039925,0.63562
709.846,229.517,-3.2001,-0.009178828,0.63497
710.546,229.753,-3.2001,-0.009423407,0.63432
711.246,229.989,-3.20141,-0.008834943,0.63367
711.946,230.225,-3.20013,-0.00708998,0.63302
712.646,230.461,-3.20042,-0.004296498,0.63237
713.346,230.698,-3.20042,-0.0006561516,0.63173
714.046,230.936,-3.20174,-0.00629199,0.63108
714.746,231.174,-3.20063,-0.007185969,0.63043
715.446,231.413,-3.20207,-0.0067492,0.62978
716.146,231.653,-3.20207,-0.004021849,0.62913
716.846,231.8914,-3.20207,-0.00657707,0.62848
717.546,232.128,-3.20063,-0.009077275,0.62783
718.246,232.364,-3.20209,-0.008478125,0.62718
718.946,232.599,-3.20338,-0.008719022,0.62653
719.646,232.834,-3.20405,-0.01170671,0.62588
720.346,233.068,-3.20367,-0.01016029,0.62523
721.046,233.303,-3.20335,-0.01165149,0.62458
721.746,233.538,-3.20339,-0.00648937,0.62393
722.446,233.774,-3.20416,-0.01437665,0.62328
723.146,234.0099,-3.20438,-0.01323481,0.62263
723.846,234.247,-3.20167,-0.01537932,0.62197
724.546,234.485,-3.20438,-0.01321043,0.62132
725.246,234.722,-3.20339,-0.01209609,0.62067
725.946,234.96,-3.20473,-0.01260045,0.62002
726.646,235.197,-3.2047,-0.01345826,0.61937
727.346,235.436,-3.20503,-0.01036511,0.61872
728.046,235.673,-3.20502,-0.01223572,0.61807
728.746,235.91,-3.20566,-0.007885912,0.61742
729.446,236.146,-3.20437,-0.004723011,0.61677
730.146,236.384,-3.20569,-0.00394646,0.61612
730.846,236.622,-3.20698,-0.01149395,0.61546
731.546,236.858,-3.20668,-0.01426482,0.61481
732.246,237.095,-3.20708,-0.008548581,0.61416
732.946,237.3312,-3.20671,-0.008159868,0.61351
733.646,237.568,-3.20832,-0.009654177,0.61286
734.346,237.805,-3.2072,-0.00672604,0.61221
735.046,238.042,-3.20763,-0.004887033,0.61156
735.746,238.279,-3.20799,-0.00621285,0.61091
736.446,238.517,-3.20898,-0.01261673,0.61025
737.146,238.753,-3.20898,-0.00965002,0.6096
737.846,238.988,-3.20898,-0.01073541,0.60895
738.546,239.223,-3.20997,-0.009462805,0.6083
739.246,239.459,-3.20997,-0.01057978,0.60765
739.946,239.696,-3.20997,-0.01327481,0.60699
740.646,239.932,-3.20997,-0.02013773,0.60634
741.346,240.168,-3.21153,-0.01724033,0.60569
742.046,240.405,-3.21024,-0.0150838,0.60504
742.746,240.642,-3.21135,-0.01612336,0.60439
743.446,240.879,-3.21137,-0.02025587,0.60374
744.146,241.115,-3.21102,-0.01951006,0.60308
744.846,241.353,-3.21195,-0.02057911,0.60243
745.546,241.592,-3.21195,-0.02058841,0.60178
746.246,241.831,-3.213,-0.02446675,0.60113
746.946,242.069,-3.21359,-0.03070009,0.60047
747.646,242.305,-3.21438,-0.02848549,0.59982
748.346,242.54,-3.21425,-0.03191916,0.59917
749.046,242.774,-3.21356,-0.03045322,0.59852
749.746,243.01,-3.21485,-0.02400255,0.59787
750.446,243.246,-3.21425,-0.02762053,0.59721
751.146,243.4835,-3.21557,-0.0283473,0.59656
751.846,243.721,-3.21458,-0.03302373,0.59591
752.546,243.96,-3.21557,-0.0267832,0.59526
753.246,244.1983,-3.21557,-0.02813091,0.5946
753.946,244.436,-3.2159,-0.03230879,0.59395
754.646,244.673,-3.2159,-0.03120458,0.5933
755.346,244.9086,-3.21688,-0.03301876,0.59265
756.046,245.145,-3.2172,-0.03552898,0.592
756.746,245.381,-3.21922,-0.03742348,0.59134
757.446,245.617,-3.21754,-0.03497605,0.59069
758.146,245.853,-3.21622,-0.0354769,0.59004
758.846,246.089,-3.21754,-0.03395783,0.58939
759.546,246.326,-3.2192,-0.03482085,0.58873
760.246,246.563,-3.21919,-0.03535108,0.58808
760.946,246.802,-3.2205,-0.03790199,0.58743
761.646,247.041,-3.21951,-0.03870815,0.58678
762.346,247.28,-3.21975,-0.03686335,0.58612
763.046,247.518,-3.21956,-0.03308884,0.58547
763.746,247.755,-3.22031,-0.0425765,0.58482
764.446,247.991,-3.22116,-0.03939821,0.58417
765.146,248.227,-3.21984,-0.03677272,0.58352
765.846,248.463,-3.22151,-0.04118472,0.58286
766.546,248.699,-3.22247,-0.03604258,0.58221
767.246,248.935,-3.22117,-0.03833819,0.58156
767.946,249.172,-3.22281,-0.03916666,0.58091
768.646,249.41,-3.22283,-0.03984614,0.58025
769.346,249.649,-3.22114,-0.03861655,0.5796
770.046,249.887,-3.22115,-0.04231489,0.57895
770.746,250.1246,-3.22202,-0.03514917,0.5783
771.446,250.363,-3.22311,-0.03298165,0.57765
772.146,250.5999,-3.22248,-0.03323316,0.57699
772.846,250.837,-3.22284,-0.03357745,0.57634
773.546,251.073,-3.2204,-0.03278774,0.57569
774.246,251.31,-3.22149,-0.03210679,0.57504
774.946,251.548,-3.22247,-0.03193826,0.57438
775.646,251.784,-3.22251,-0.03261299,0.57373
776.346,252.021,-3.22247,-0.03199123,0.57308
777.046,252.259,-3.22379,-0.02808423,0.57243
777.746,252.497,-3.22347,-0.02297377,0.57178
778.446,252.735,-3.22221,-0.0261161,0.57113
779.146,252.972,-3.22411,-0.02301894,0.57047
779.846,253.21,-3.22314,-0.0211999,0.56982
780.546,253.447,-3.22336,-0.01884829,0.56917
781.246,253.685,-3.22533,-0.01875927,0.56852
781.946,253.924,-3.22504,-0.02070006,0.56787
782.646,254.163,-3.22467,-0.02207097,0.56721
783.346,254.401,-3.22473,-0.02081544,0.56656
784.046,254.637,-3.225,-0.01715272,0.56591
784.746,254.873,-3.22533,-0.01508854,0.56526
785.446,255.1082,-3.22742,-0.01347476,0.56461
786.146,255.343,-3.22642,-0.01211182,0.56396
786.846,255.578,-3.22643,-0.01282535,0.56331
787.546,255.814,-3.2287,-0.01658148,0.56265
788.246,256.051,-3.22774,-0.009357579,0.562
788.946,256.289,-3.22774,-0.01204088,0.56135
789.646,256.526,-3.22885,-0.00959691,0.5607
790.346,256.764,-3.22906,-0.01076351,0.56005
791.046,257.002,-3.22873,-0.009248315,0.5594
791.746,257.24,-3.22777,-0.007117701,0.55875
792.446,257.479,-3.2284,-0.001027735,0.5581
793.146,257.717,-3.22906,-0.007470235,0.55745
793.846,257.9553,-3.23037,0.0002989536,0.55679
794.546,258.193,-3.23037,-0.006323856,0.55614
795.246,258.431,-3.22898,-0.0018151,0.55549
795.946,258.668,-3.23168,-0.0001092078,0.55484
796.646,258.904,-3.23133,-0.001167592,0.55419
797.346,259.141,-3.23234,-0.004844254,0.55354
798.046,259.377,-3.23088,-0.00610736,0.55289
798.746,259.613,-3.23097,-0.00172396,0.55224
799.446,259.848,-3.233,0.0005196604,0.55159
799.846,259.983,-3.233,0.0002935226,0.55122