File: 01_Data/Nylon_Carpet_HighPile/MCC/Nylon_Carpet_HighPile_MCC_30K_min_211027_R1.txt
Sample ID:	C:\MCC\MCC Cal\Test\Nylon_Carpet_HighPile_MCC_30K_min_211027_R1.txt
Sample Weight (mg):	4.31
Heating Rate (C/s):	1
Combustor Temp (C):	900
N2 Flow Rate (cc/min):	80
O2 Flow Rate (cc/min):	20
Calibration File:	C:\MCC\MCC Cal\Coeff1 JN10440_30_210304.txt.txt
T Correction Coefficients:	0	1.024463	0
Time Shift (s):	14
*
Time (s)	Temperature (C)	N2 flow rate (cc/min)	O2 flow rate (cc/min)	Flow Rate (cc/min)	Oxygen (%)	HRR (W/g)	Heating rate (C/s)
0.000	105.115	80.000	19.997	102.997	20.013	0.074	-0.008
1.000	105.115	80.000	19.995	102.993	20.014	-0.006	0.002
2.000	105.098	80.002	19.995	102.989	20.012	0.102	-0.018
3.000	105.113	80.001	19.996	102.992	20.012	0.115	0.001
4.000	105.142	80.001	19.995	102.995	20.012	0.084	0.019
5.000	105.101	80.002	19.995	102.997	20.011	0.160	-0.023
6.000	105.112	80.002	19.995	102.997	20.006	0.554	-0.005
7.000	105.087	80.003	19.996	102.999	20.002	0.824	-0.008
8.000	105.110	80.003	19.996	103.012	20.004	0.749	0.023
9.001	105.074	80.003	19.995	103.027	20.006	0.564	-0.023
10.001	105.123	80.003	19.995	103.043	20.000	0.985	0.029
11.000	105.130	80.004	19.995	103.070	19.996	1.278	0.004
12.000	105.141	80.003	19.994	103.110	19.995	1.391	0.004
13.000	105.176	80.003	19.995	103.143	19.991	1.662	0.040
14.001	105.190	80.004	19.995	103.174	19.990	1.766	0.046
15.000	105.264	80.004	19.993	103.201	19.983	2.259	0.048
16.000	105.366	80.005	19.995	103.221	19.977	2.711	0.062
17.000	105.406	80.003	19.994	103.241	19.976	2.808	0.063
18.000	105.502	80.003	19.995	103.260	19.969	3.313	0.097
19.000	105.622	80.003	19.995	103.271	19.965	3.645	0.113
20.000	105.733	80.002	19.995	103.285	19.964	3.681	0.115
21.000	105.883	80.003	19.996	103.299	19.960	4.020	0.134
22.000	106.021	80.001	19.995	103.309	19.955	4.400	0.136
23.000	106.202	80.003	19.996	103.310	19.952	4.589	0.173
24.000	106.366	80.002	19.996	103.309	19.952	4.577	0.178
25.000	106.576	80.002	19.995	103.310	19.948	4.913	0.212
26.000	106.841	80.002	19.995	103.325	19.949	4.850	0.238
27.000	107.001	80.003	19.996	103.340	19.946	5.064	0.173
28.000	107.196	80.000	19.995	103.348	19.946	5.037	0.211
29.001	107.477	80.002	19.996	103.358	19.944	5.170	0.257
30.000	107.743	80.004	19.996	103.364	19.941	5.460	0.269
31.000	108.015	80.003	19.996	103.370	19.937	5.713	0.251
32.000	108.257	80.001	19.997	103.380	19.935	5.902	0.288
33.000	108.586	80.003	19.996	103.391	19.935	5.847	0.290
34.000	108.896	80.004	19.996	103.402	19.933	6.034	0.302
35.000	109.234	80.003	19.997	103.398	19.932	6.116	0.344
36.000	109.574	80.003	19.995	103.395	19.934	5.988	0.316
37.000	109.913	80.005	19.996	103.396	19.930	6.270	0.347
38.000	110.295	80.005	19.997	103.405	19.932	6.094	0.377
39.000	110.691	80.003	19.996	103.404	19.929	6.310	0.382
40.000	111.102	80.004	19.996	103.400	19.929	6.361	0.384
41.000	111.431	80.004	19.996	103.409	19.932	6.088	0.377
42.000	111.861	80.005	19.995	103.416	19.930	6.275	0.425
43.001	112.271	80.004	19.995	103.419	19.929	6.349	0.417
44.000	112.733	80.004	19.995	103.415	19.925	6.610	0.446
45.000	113.196	80.003	19.994	103.417	19.924	6.727	0.428
46.000	113.642	80.003	19.995	103.424	19.926	6.567	0.470
47.000	114.141	80.001	19.996	103.434	19.927	6.481	0.493
48.000	114.626	80.001	19.996	103.447	19.927	6.444	0.474
49.000	115.104	80.002	19.996	103.457	19.927	6.462	0.492
50.000	115.653	80.002	19.997	103.465	19.923	6.760	0.535
51.000	116.155	80.001	19.996	103.463	19.921	6.913	0.505
52.000	116.689	80.000	19.995	103.463	19.925	6.624	0.524
53.001	117.258	80.001	19.996	103.463	19.925	6.661	0.555
54.000	117.820	80.001	19.997	103.467	19.924	6.744	0.545
55.000	118.368	80.000	19.997	103.468	19.922	6.871	0.568
56.000	118.947	80.000	19.995	103.464	19.925	6.635	0.574
57.001	119.519	80.000	19.996	103.464	19.916	7.270	0.587
58.000	120.118	80.002	19.996	103.469	19.922	6.889	0.586
59.001	120.740	80.002	19.995	103.469	19.917	7.216	0.608
60.000	121.358	80.002	19.997	103.466	19.916	7.290	0.629
61.000	121.991	80.001	19.997	103.466	19.917	7.268	0.625
62.000	122.652	80.002	19.998	103.479	19.923	6.789	0.659
63.001	123.310	80.001	19.995	103.493	19.920	7.044	0.672
64.001	123.956	80.001	19.996	103.499	19.916	7.307	0.642
65.001	124.627	80.001	19.995	103.503	19.917	7.202	0.637
66.000	125.351	80.002	19.997	103.502	19.913	7.545	0.732
67.000	126.008	80.001	19.995	103.502	19.915	7.349	0.683
68.000	126.750	80.003	19.994	103.498	19.916	7.283	0.710
69.001	127.428	80.003	19.995	103.496	19.911	7.665	0.689
70.000	128.153	80.002	19.994	103.497	19.916	7.316	0.736
71.001	128.899	80.002	19.994	103.500	19.911	7.692	0.715
72.000	129.669	80.002	19.995	103.503	19.914	7.491	0.762
73.001	130.394	80.003	19.995	103.503	19.911	7.701	0.755
74.000	131.135	80.001	19.995	103.503	19.914	7.493	0.727
75.000	131.934	80.002	19.995	103.503	19.916	7.316	0.790
76.000	132.706	80.002	19.996	103.502	19.915	7.365	0.786
77.000	133.494	80.002	19.995	103.497	19.908	7.877	0.769
78.000	134.256	80.004	19.996	103.489	19.912	7.568	0.787
79.001	135.070	80.003	19.996	103.480	19.918	7.124	0.787
80.001	135.901	80.004	19.997	103.475	19.913	7.528	0.841
81.001	136.717	80.003	19.995	103.482	19.912	7.578	0.805
82.001	137.526	80.003	19.996	103.488	19.912	7.627	0.814
83.000	138.367	80.003	19.996	103.491	19.916	7.338	0.839
84.000	139.239	80.002	19.996	103.493	19.916	7.342	0.834
85.000	140.056	80.002	19.995	103.488	19.918	7.165	0.836
86.000	140.907	80.001	19.997	103.485	19.914	7.474	0.862
87.000	141.791	80.001	19.996	103.480	19.920	7.035	0.871
88.000	142.644	80.002	19.994	103.481	19.922	6.825	0.843
89.000	143.477	80.004	19.995	103.481	19.920	7.010	0.844
90.001	144.362	80.000	19.996	103.473	19.921	6.922	0.902
91.000	145.275	80.001	19.996	103.467	19.923	6.777	0.892
92.000	146.137	80.003	19.996	103.465	19.918	7.173	0.843
93.000	147.045	80.004	19.996	103.470	19.918	7.188	0.924
94.000	147.935	80.003	19.996	103.484	19.919	7.111	0.874
95.001	148.816	80.003	19.995	103.481	19.920	6.974	0.889
96.000	149.719	80.004	19.995	103.470	19.921	6.894	0.931
97.000	150.683	80.003	19.996	103.458	19.916	7.268	0.939
98.000	151.552	80.003	19.994	103.459	19.919	7.081	0.872
99.000	152.497	80.003	19.995	103.463	19.917	7.262	0.953
100.001	153.419	80.005	19.995	103.458	19.920	6.976	0.904
101.000	154.327	80.004	19.995	103.457	19.918	7.137	0.912
102.000	155.251	80.004	19.996	103.452	19.922	6.842	0.927
103.001	156.172	80.004	19.995	103.446	19.915	7.384	0.908
104.001	157.126	80.003	19.996	103.440	19.916	7.341	0.974
105.000	158.077	80.003	19.995	103.440	19.920	7.041	0.936
106.000	159.005	80.005	19.994	103.440	19.918	7.166	0.939
107.000	159.916	80.002	19.996	103.442	19.919	7.071	0.912
108.001	160.876	80.003	19.995	103.448	19.919	7.060	0.944
109.001	161.805	80.002	19.994	103.447	19.921	6.924	0.927
110.000	162.775	80.002	19.995	103.446	19.924	6.712	0.985
111.000	163.711	80.003	19.995	103.449	19.928	6.400	0.947
112.001	164.697	80.005	19.996	103.453	19.923	6.764	0.958
113.000	165.664	80.003	19.994	103.462	19.923	6.762	0.966
114.000	166.636	80.002	19.995	103.465	19.921	6.920	0.979
115.001	167.605	80.005	19.996	103.466	19.928	6.392	0.969
116.000	168.596	80.004	19.995	103.463	19.927	6.489	0.972
117.001	169.558	80.004	19.996	103.457	19.924	6.678	0.992
118.000	170.558	80.006	19.996	103.449	19.916	7.269	0.969
119.000	171.555	80.005	19.996	103.437	19.927	6.479	1.002
120.000	172.520	80.003	19.994	103.428	19.922	6.826	0.982
121.000	173.527	80.004	19.995	103.428	19.924	6.689	0.991
122.000	174.488	80.005	19.996	103.428	19.921	6.891	0.980
123.000	175.531	80.005	19.996	103.430	19.922	6.882	1.016
124.000	176.475	80.003	19.996	103.429	19.923	6.767	0.953
125.001	177.520	80.004	19.996	103.429	19.921	6.924	1.043
126.000	178.506	80.003	19.995	103.437	19.922	6.827	1.000
127.000	179.500	80.004	19.997	103.441	19.922	6.846	0.991
128.000	180.468	80.004	19.995	103.439	19.925	6.634	0.985
129.000	181.481	80.003	19.996	103.424	19.926	6.532	0.993
130.000	182.468	80.002	19.995	103.418	19.924	6.695	0.985
131.000	183.506	80.002	19.995	103.417	19.927	6.441	1.030
132.000	184.476	80.002	19.995	103.420	19.922	6.864	0.978
133.000	185.487	80.001	19.996	103.423	19.930	6.264	1.018
134.000	186.571	80.001	19.996	103.423	19.929	6.340	1.060
135.001	187.590	80.001	19.996	103.426	19.927	6.478	1.038
136.000	188.570	80.000	19.996	103.426	19.930	6.232	1.009
137.001	189.567	80.000	19.997	103.427	19.935	5.909	0.975
138.000	190.608	80.001	19.995	103.426	19.931	6.170	1.037
139.000	191.635	80.002	19.996	103.421	19.933	6.022	1.027
140.000	192.687	80.002	19.997	103.406	19.929	6.307	1.045
141.000	193.698	80.003	19.997	103.390	19.929	6.319	1.027
142.000	194.716	80.002	19.996	103.386	19.932	6.095	0.996
143.000	195.764	80.001	19.997	103.387	19.928	6.420	1.040
144.001	196.770	80.003	19.996	103.388	19.930	6.257	1.011
145.000	197.789	80.002	19.995	103.392	19.927	6.499	1.035
146.000	198.808	80.002	19.996	103.393	19.930	6.246	1.013
147.000	199.860	80.002	19.995	103.393	19.927	6.456	1.042
148.000	200.857	80.003	19.997	103.392	19.926	6.518	1.013
149.000	201.888	80.002	19.996	103.390	19.930	6.286	1.037
150.000	202.950	80.002	19.996	103.384	19.928	6.436	1.048
151.000	203.967	80.001	19.997	103.384	19.930	6.218	1.022
152.000	204.978	80.003	19.997	103.384	19.930	6.216	1.008
153.000	206.001	80.002	19.997	103.384	19.930	6.214	1.032
154.000	207.035	80.001	19.996	103.381	19.931	6.177	1.019
155.000	208.075	80.000	19.998	103.371	19.932	6.076	1.049
156.000	209.126	80.000	19.997	103.362	19.929	6.311	1.054
157.001	210.158	80.001	19.997	103.362	19.934	5.978	1.007
158.000	211.149	80.003	19.997	103.370	19.929	6.287	1.018
159.000	212.168	80.002	19.997	103.379	19.928	6.367	1.012
160.000	213.193	80.003	19.997	103.380	19.932	6.127	1.030
161.000	214.238	80.003	19.997	103.375	19.932	6.115	1.032
162.000	215.255	80.003	19.996	103.372	19.928	6.367	1.020
163.000	216.310	80.002	19.995	103.373	19.927	6.440	1.046
164.000	217.304	80.000	19.996	103.376	19.926	6.545	1.018
165.001	218.361	80.002	19.996	103.372	19.929	6.309	1.042
166.000	219.454	80.001	19.996	103.373	19.929	6.290	1.077
167.000	220.451	80.002	19.996	103.381	19.930	6.278	1.008
168.000	221.471	80.002	19.995	103.375	19.936	5.835	1.020
169.000	222.541	80.003	19.995	103.365	19.930	6.218	1.060
170.000	223.538	80.002	19.995	103.361	19.934	5.941	1.029
171.000	224.637	80.002	19.997	103.364	19.936	5.806	1.069
172.000	225.640	80.003	19.995	103.363	19.935	5.857	1.035
173.000	226.650	80.002	19.996	103.360	19.933	5.999	1.007
174.000	227.705	80.003	19.995	103.352	19.936	5.828	1.045
175.000	228.760	80.004	19.996	103.352	19.932	6.078	1.043
176.000	229.823	80.003	19.995	103.350	19.937	5.699	1.055
177.000	230.871	80.003	19.995	103.349	19.931	6.163	1.066
178.000	231.931	80.005	19.996	103.350	19.930	6.274	1.036
179.000	232.902	80.002	19.995	103.350	19.932	6.062	1.019
180.000	233.997	80.005	19.996	103.346	19.935	5.871	1.038
181.000	234.994	80.003	19.995	103.346	19.932	6.062	1.045
182.000	236.010	80.002	19.995	103.347	19.937	5.760	1.014
183.000	237.046	80.004	19.997	103.348	19.934	5.930	1.035
184.000	238.117	80.004	19.995	103.343	19.936	5.790	1.052
185.000	239.143	80.003	19.996	103.338	19.936	5.788	1.049
186.000	240.145	80.003	19.996	103.338	19.936	5.774	1.000
187.000	241.226	80.003	19.997	103.342	19.936	5.821	1.030
188.000	242.215	80.002	19.996	103.344	19.933	6.036	1.027
189.000	243.219	80.003	19.995	103.345	19.937	5.724	1.006
190.000	244.250	80.003	19.995	103.339	19.931	6.202	1.021
191.000	245.258	80.003	19.995	103.340	19.932	6.099	1.011
192.000	246.300	80.003	19.995	103.340	19.934	5.984	1.023
193.000	247.298	80.004	19.995	103.333	19.933	6.023	1.021
194.000	248.337	80.004	19.995	103.326	19.940	5.490	1.035
195.000	249.365	80.002	19.995	103.321	19.931	6.142	1.016
196.000	250.406	80.003	19.996	103.320	19.935	5.906	1.031
197.000	251.420	80.004	19.996	103.324	19.935	5.855	1.049
198.000	252.469	80.003	19.995	103.325	19.927	6.437	1.027
199.000	253.474	80.004	19.995	103.318	19.938	5.629	1.017
200.001	254.460	80.002	19.995	103.314	19.932	6.117	1.023
201.000	255.463	80.004	19.993	103.312	19.932	6.060	0.988
202.000	256.442	80.004	19.995	103.310	19.937	5.735	0.992
203.000	257.466	80.004	19.995	103.310	19.933	5.994	1.008
204.000	258.450	80.005	19.994	103.310	19.932	6.060	1.011
205.001	259.452	80.005	19.995	103.309	19.932	6.111	1.013
206.001	260.660	80.005	19.995	103.304	19.933	6.017	1.080
207.000	261.506	80.006	19.996	103.300	19.931	6.162	0.887
208.000	262.415	80.005	19.995	103.302	19.934	5.926	1.076
209.000	263.797	80.004	19.995	103.304	19.928	6.367	1.155
210.000	264.535	80.005	19.995	103.303	19.932	6.110	0.731
211.000	265.562	80.004	19.996	103.302	19.927	6.482	1.101
212.001	266.514	80.003	19.995	103.297	19.932	6.119	0.943
213.001	267.512	80.002	19.996	103.294	19.928	6.369	1.058
214.000	268.487	80.003	19.996	103.295	19.926	6.562	0.946
215.000	269.437	80.003	19.995	103.303	19.930	6.268	0.980
216.000	270.512	80.003	19.997	103.300	19.927	6.484	1.063
217.000	271.526	80.003	19.997	103.300	19.929	6.336	0.987
218.000	272.545	80.001	19.996	103.296	19.928	6.424	1.030
219.000	273.507	80.003	19.997	103.291	19.929	6.315	0.956
220.000	274.470	80.002	19.997	103.285	19.930	6.240	0.958
221.000	275.474	80.002	19.997	103.289	19.926	6.558	1.032
222.000	276.464	80.002	19.997	103.295	19.927	6.487	0.994
223.000	277.436	80.002	19.996	103.298	19.926	6.558	0.963
224.000	278.444	80.001	19.996	103.298	19.925	6.617	0.994
225.000	279.443	80.002	19.995	103.290	19.919	7.044	0.999
226.000	280.460	80.003	19.997	103.285	19.921	6.947	1.003
227.000	281.413	80.003	19.997	103.289	19.919	7.086	0.952
228.000	282.361	80.002	19.998	103.292	19.920	6.975	0.987
229.000	283.317	80.001	19.995	103.284	19.916	7.293	0.942
230.000	284.332	80.002	19.996	103.275	19.916	7.265	1.015
231.000	285.303	80.002	19.996	103.269	19.915	7.371	0.958
232.000	286.299	80.003	19.995	103.271	19.921	6.891	0.998
233.000	287.305	80.003	19.996	103.278	19.918	7.155	1.013
234.000	288.270	80.002	19.997	103.290	19.918	7.110	0.963
235.000	289.227	80.003	19.996	103.290	19.923	6.777	0.971
236.000	290.168	80.002	19.997	103.290	19.918	7.162	0.951
237.000	291.189	80.002	19.996	103.288	19.914	7.443	1.001
238.000	292.172	80.002	19.996	103.282	19.914	7.441	0.988
239.000	293.161	80.003	19.996	103.278	19.912	7.626	0.996
240.000	294.110	80.001	19.996	103.280	19.909	7.780	0.940
241.000	295.106	80.001	19.996	103.280	19.909	7.820	0.982
242.000	296.080	80.002	19.997	103.278	19.914	7.443	1.004
243.000	297.024	80.002	19.997	103.274	19.909	7.808	0.941
244.000	297.997	80.001	19.998	103.275	19.911	7.661	0.949
245.000	299.037	80.000	19.996	103.276	19.909	7.824	1.043
246.000	300.003	80.001	19.996	103.284	19.905	8.150	0.980
247.000	300.988	80.001	19.997	103.285	19.903	8.286	0.984
248.000	301.980	79.998	19.997	103.277	19.904	8.181	0.982
249.000	302.965	80.000	19.997	103.281	19.903	8.300	0.981
250.000	303.891	80.000	19.996	103.284	19.897	8.678	0.949
251.000	304.860	80.000	19.997	103.283	19.896	8.762	0.993
252.000	305.864	80.001	19.996	103.274	19.889	9.276	0.974
253.000	306.881	80.000	19.996	103.278	19.894	8.970	0.980
254.000	307.802	80.002	19.996	103.285	19.889	9.332	0.967
255.000	308.767	80.003	19.996	103.283	19.883	9.724	0.932
256.000	309.785	80.002	19.997	103.273	19.881	9.945	1.030
257.000	310.760	80.002	19.996	103.277	19.877	10.229	0.994
258.000	311.754	80.003	19.996	103.278	19.870	10.766	0.976
259.000	312.759	80.002	19.995	103.280	19.865	11.093	0.999
260.000	313.748	80.004	19.995	103.279	19.860	11.505	0.989
261.000	314.734	80.003	19.993	103.282	19.856	11.767	0.993
262.000	315.690	80.003	19.995	103.278	19.855	11.878	0.950
263.000	316.676	80.004	19.995	103.272	19.846	12.522	0.990
264.000	317.666	80.004	19.994	103.272	19.842	12.850	0.999
265.000	318.635	80.002	19.993	103.279	19.839	13.038	0.971
266.000	319.580	80.005	19.998	103.288	19.826	14.010	0.952
267.000	320.594	80.021	20.000	103.299	19.822	14.306	1.011
268.000	321.582	80.021	20.000	103.305	19.815	14.832	0.987
269.000	322.561	80.021	20.002	103.305	19.813	15.009	0.964
270.000	323.524	80.022	20.003	103.308	19.806	15.484	0.955
271.000	324.477	80.020	20.002	103.306	19.797	16.219	0.978
272.000	325.453	80.022	20.002	103.306	19.792	16.578	0.956
273.000	326.464	80.022	20.003	103.308	19.784	17.163	1.015
274.000	327.403	80.021	20.003	103.303	19.775	17.811	0.955
275.000	328.394	80.022	20.003	103.299	19.768	18.349	0.964
276.000	329.372	80.021	20.002	103.293	19.755	19.343	0.985
277.000	330.348	80.022	20.003	103.296	19.749	19.785	0.984
278.000	331.331	80.021	20.002	103.302	19.743	20.239	0.981
279.000	332.272	80.023	20.003	103.304	19.731	21.113	0.936
280.000	333.288	80.022	20.002	103.306	19.726	21.482	1.006
281.000	334.261	80.024	20.002	103.303	19.713	22.440	0.962
282.000	335.259	80.023	20.002	103.303	19.702	23.269	1.002
283.000	336.204	80.024	20.003	103.305	19.694	23.909	0.984
284.000	337.215	80.023	20.003	103.305	19.679	24.990	0.985
285.000	338.162	80.023	20.004	103.305	19.666	25.981	0.973
286.000	339.193	80.023	20.001	103.307	19.656	26.697	1.000
287.000	340.150	80.012	19.998	103.303	19.645	27.555	0.962
288.000	341.121	80.005	19.997	103.299	19.631	28.587	0.985
289.000	342.107	80.005	19.996	103.299	19.618	29.586	0.973
290.000	343.090	80.005	19.995	103.301	19.604	30.640	1.003
291.000	344.065	80.004	19.996	103.300	19.591	31.618	0.964
292.000	345.024	80.004	19.995	103.300	19.577	32.625	0.981
293.001	345.975	80.004	19.995	103.302	19.560	33.889	0.944
294.000	346.992	80.003	19.995	103.302	19.546	34.994	0.998
295.000	347.979	80.003	19.994	103.302	19.533	35.961	0.984
296.000	348.986	80.003	19.996	103.300	19.512	37.474	1.000
297.000	349.965	80.003	19.996	103.295	19.493	38.947	0.989
298.000	350.942	80.004	19.995	103.297	19.480	39.926	0.972
299.000	351.927	80.003	19.996	103.304	19.460	41.424	0.997
300.000	352.911	80.003	19.995	103.311	19.440	42.866	0.977
301.000	353.894	80.002	19.995	103.310	19.420	44.375	1.002
302.000	354.908	80.002	19.995	103.308	19.398	46.032	0.994
303.000	355.901	80.002	19.996	103.312	19.377	47.606	0.998
304.000	356.938	80.002	19.996	103.312	19.353	49.388	1.012
305.000	357.901	80.002	19.997	103.310	19.327	51.357	0.986
306.000	358.878	80.002	19.996	103.308	19.307	52.869	0.994
307.000	359.904	80.003	19.996	103.309	19.285	54.539	1.005
308.000	360.890	80.001	19.996	103.310	19.254	56.786	0.979
309.000	361.866	80.003	19.995	103.317	19.230	58.642	0.996
310.000	362.895	80.004	19.996	103.316	19.202	60.685	1.007
311.000	363.902	80.002	19.996	103.325	19.174	62.810	1.004
312.000	364.903	80.003	19.995	103.334	19.149	64.724	1.007
313.000	365.879	80.002	19.996	103.341	19.118	66.979	0.980
314.000	366.889	80.002	19.995	103.345	19.086	69.420	1.006
315.000	367.927	80.001	19.995	103.350	19.054	71.814	1.049
316.000	368.920	80.002	19.996	103.351	19.024	74.066	0.989
317.000	369.918	80.001	19.996	103.350	18.984	77.079	1.012
318.000	370.889	80.003	19.996	103.349	18.951	79.540	0.977
319.000	371.903	80.003	19.996	103.349	18.915	82.207	0.992
320.000	372.941	80.003	19.996	103.347	18.882	84.724	1.029
321.000	373.938	80.002	19.995	103.351	18.845	87.472	1.016
322.000	374.945	80.002	19.995	103.356	18.803	90.630	1.018
323.000	375.950	80.002	19.995	103.370	18.766	93.383	0.990
324.000	377.004	80.002	19.997	103.375	18.722	96.687	1.039
325.000	377.960	80.001	19.995	103.376	18.674	100.275	0.975
326.000	378.950	80.003	19.996	103.376	18.631	103.481	1.008
327.000	379.969	80.003	19.997	103.385	18.582	107.143	0.993
328.000	381.007	80.001	19.995	103.387	18.535	110.673	1.046
329.000	381.989	80.002	19.995	103.388	18.488	114.218	0.975
330.000	382.989	80.002	19.995	103.388	18.439	117.913	0.994
331.000	383.983	80.002	19.996	103.393	18.390	121.563	1.005
332.000	384.990	80.000	19.996	103.396	18.335	125.665	1.017
333.000	386.007	80.002	19.996	103.397	18.281	129.697	0.998
334.000	387.012	80.002	19.995	103.394	18.228	133.641	1.021
335.000	388.022	80.003	19.996	103.394	18.171	137.920	1.007
336.000	389.041	80.003	19.996	103.408	18.112	142.360	1.024
337.000	390.091	80.002	19.995	103.417	18.055	146.610	1.034
338.000	391.074	80.003	19.995	103.422	17.996	151.007	1.000
339.000	392.134	80.003	19.997	103.422	17.932	155.800	1.040
340.001	393.131	80.004	19.996	103.420	17.875	160.100	1.004
341.000	394.183	80.003	19.996	103.419	17.810	164.903	1.046
342.000	395.208	80.003	19.996	103.421	17.751	169.345	1.049
343.000	396.256	80.003	19.996	103.422	17.683	174.411	1.038
344.000	397.312	80.004	19.996	103.422	17.621	179.005	1.026
345.000	398.334	80.003	19.996	103.421	17.558	183.717	1.035
346.000	399.386	80.004	19.997	103.420	17.491	188.740	1.055
347.000	400.455	80.003	19.997	103.417	17.426	193.550	1.071
348.000	401.491	80.005	19.997	103.416	17.362	198.329	1.033
349.000	402.563	80.004	19.995	103.415	17.297	203.130	1.074
350.000	403.585	80.003	19.996	103.415	17.234	207.798	1.017
351.000	404.644	80.005	19.996	103.403	17.169	212.611	1.062
352.000	405.713	80.004	19.995	103.388	17.103	217.498	1.054
353.000	406.801	80.005	19.995	103.382	17.048	221.609	1.078
354.000	407.839	80.004	19.996	103.379	16.982	226.435	1.060
355.000	408.871	80.003	19.995	103.367	16.925	230.702	1.054
356.000	409.966	80.003	19.995	103.352	16.870	234.794	1.087
357.000	411.034	80.003	19.996	103.344	16.810	239.216	1.052
358.000	412.098	80.002	19.994	103.333	16.759	242.976	1.075
359.000	413.129	80.003	19.996	103.318	16.711	246.519	1.029
360.000	414.203	80.004	19.995	103.294	16.665	249.934	1.063
361.000	415.248	80.004	19.996	103.277	16.623	253.066	1.040
362.000	416.311	80.004	19.995	103.255	16.585	255.823	1.067
363.000	417.360	80.004	19.995	103.238	16.556	257.978	1.063
364.000	418.424	80.005	19.995	103.214	16.530	259.846	1.064
365.000	419.518	80.004	19.994	103.195	16.513	261.134	1.085
366.000	420.612	80.004	19.995	103.179	16.500	262.082	1.084
367.000	421.663	80.006	19.995	103.164	16.493	262.544	1.064
368.000	422.714	80.006	19.997	103.150	16.498	262.183	1.047
369.001	423.737	80.006	19.994	103.137	16.507	261.443	1.053
370.000	424.826	80.006	19.995	103.121	16.529	259.804	1.069
371.000	425.932	80.006	19.996	103.103	16.552	258.098	1.085
372.000	426.951	80.007	19.996	103.097	16.590	255.247	1.064
373.000	428.038	80.006	19.995	103.080	16.636	251.868	1.050
374.000	429.126	80.005	19.994	103.065	16.688	247.990	1.074
375.000	430.130	80.006	19.995	103.046	16.754	243.118	1.036
376.000	431.212	80.005	19.996	103.037	16.831	237.367	1.070
377.000	432.273	80.004	19.996	103.033	16.919	230.818	1.079
378.000	433.375	80.004	19.995	103.029	17.012	223.932	1.067
379.000	434.451	80.003	19.995	103.023	17.116	216.257	1.088
380.000	435.512	80.002	19.997	103.009	17.224	208.239	1.072
381.000	436.572	80.003	19.994	103.000	17.341	199.519	1.064
382.000	437.637	80.002	19.996	102.998	17.467	190.192	1.065
383.000	438.711	80.002	19.995	103.007	17.589	181.114	1.069
384.001	439.780	80.003	19.995	103.017	17.712	171.897	1.060
385.000	440.858	80.002	19.995	103.027	17.842	162.226	1.080
386.000	441.903	80.002	19.995	103.031	17.960	153.437	1.043
387.000	442.950	80.002	19.995	103.035	18.084	144.165	1.050
388.000	444.014	80.002	19.995	103.052	18.190	136.255	1.074
389.000	445.011	80.003	19.995	103.071	18.294	128.436	0.993
390.000	446.088	80.002	19.995	103.091	18.391	121.200	1.085
391.001	447.152	80.002	19.995	103.109	18.479	114.630	1.055
392.000	448.184	80.003	19.996	103.132	18.555	108.903	1.040
393.000	449.225	80.003	19.994	103.154	18.626	103.602	1.044
394.000	450.296	80.002	19.995	103.176	18.692	98.707	1.062
395.000	451.367	80.004	19.995	103.191	18.748	94.465	1.066
396.000	452.388	80.002	19.995	103.193	18.794	91.076	1.035
397.000	453.422	80.004	19.995	103.194	18.837	87.840	1.022
398.000	454.462	80.003	19.995	103.195	18.872	85.211	1.036
399.000	455.533	80.003	19.995	103.194	18.907	82.627	1.074
400.000	456.549	80.003	19.995	103.193	18.933	80.696	1.027
401.000	457.601	80.003	19.995	103.188	18.950	79.424	1.061
402.000	458.665	80.001	19.994	103.180	18.969	77.983	1.047
403.001	459.656	80.002	19.995	103.166	18.987	76.646	1.008
404.000	460.708	80.002	19.995	103.159	19.002	75.525	1.045
405.000	461.728	80.003	19.995	103.151	19.009	74.980	1.022
406.000	462.775	80.002	19.996	103.156	19.021	74.087	1.036
407.000	463.819	80.003	19.996	103.157	19.029	73.508	1.059
408.000	464.836	80.002	19.995	103.152	19.035	73.016	1.022
409.000	465.842	80.002	19.995	103.140	19.037	72.869	0.998
410.000	466.943	80.002	19.995	103.136	19.044	72.374	1.062
411.000	467.930	80.002	19.996	103.136	19.042	72.535	1.026
412.000	468.963	80.002	19.996	103.134	19.041	72.556	1.012
413.000	469.988	80.002	19.996	103.121	19.042	72.506	1.028
414.000	471.033	80.001	19.996	103.119	19.044	72.382	1.039
415.000	472.034	80.002	19.996	103.126	19.044	72.384	1.014
416.000	473.039	80.001	19.994	103.122	19.041	72.599	1.012
417.000	474.095	80.002	19.996	103.120	19.041	72.606	1.033
418.000	475.125	80.002	19.995	103.114	19.037	72.881	1.042
419.000	476.109	80.002	19.996	103.114	19.034	73.099	1.013
420.000	477.141	80.004	19.996	103.114	19.028	73.540	1.001
421.000	478.156	80.003	19.995	103.112	19.026	73.715	1.028
422.000	479.179	80.003	19.996	103.109	19.022	74.005	1.018
423.000	480.155	80.004	19.995	103.109	19.020	74.154	0.986
424.000	481.213	80.003	19.996	103.105	19.014	74.601	1.041
425.000	482.190	80.004	19.995	103.107	19.008	75.010	1.006
426.000	483.173	80.003	19.996	103.106	19.006	75.186	0.964
427.000	484.177	80.003	19.995	103.106	19.002	75.421	1.007
428.000	485.199	80.004	19.996	103.096	19.001	75.549	1.029
429.000	486.188	80.003	19.996	103.082	18.998	75.757	0.980
430.000	487.205	80.003	19.996	103.075	18.998	75.703	1.007
431.000	488.195	80.003	19.996	103.074	18.999	75.655	1.020
432.000	489.224	80.002	19.996	103.073	19.003	75.333	1.002
433.001	490.227	80.003	19.996	103.072	19.009	74.933	1.005
434.000	491.227	80.003	19.995	103.071	19.017	74.278	1.001
435.000	492.246	80.002	19.996	103.063	19.029	73.397	1.014
436.000	493.254	80.002	19.997	103.057	19.042	72.472	1.009
437.000	494.258	80.002	19.996	103.052	19.066	70.660	1.017
438.000	495.318	80.001	19.996	103.039	19.090	68.925	1.030
439.000	496.300	80.002	19.996	103.033	19.118	66.813	0.994
440.000	497.290	80.002	19.996	103.032	19.158	63.884	0.995
441.000	498.276	80.003	19.996	103.019	19.194	61.168	0.998
442.000	499.305	80.003	19.996	103.010	19.237	57.974	1.018
443.000	500.320	80.003	19.996	103.001	19.292	53.851	1.019
444.000	501.320	80.004	19.996	103.002	19.347	49.790	1.004
445.000	502.315	80.003	19.995	103.006	19.399	45.894	0.996
446.000	503.325	80.003	19.996	103.023	19.456	41.669	1.006
447.000	504.319	80.003	19.995	103.033	19.510	37.649	0.993
448.000	505.308	80.004	19.995	103.043	19.560	33.868	1.003
449.000	506.299	80.002	19.995	103.059	19.611	30.050	0.997
450.000	507.296	80.005	19.995	103.082	19.654	26.878	1.001
451.000	508.329	80.005	19.996	103.106	19.697	23.649	1.004
452.000	509.283	80.005	19.994	103.131	19.735	20.827	0.975
453.000	510.298	80.005	19.994	103.155	19.768	18.337	1.008
454.000	511.288	80.004	19.995	103.172	19.798	16.112	0.995
455.000	512.261	80.005	19.995	103.187	19.819	14.519	0.971
456.000	513.302	80.003	19.994	103.192	19.844	12.671	1.006
457.000	514.318	80.005	19.995	103.193	19.858	11.610	1.046
458.000	515.332	80.003	19.995	103.188	19.874	10.400	1.008
459.000	516.363	80.004	19.996	103.182	19.885	9.632	1.046
460.000	517.398	80.001	19.995	103.178	19.892	9.090	1.006
461.000	518.384	80.002	19.995	103.176	19.905	8.133	0.996
462.000	519.373	80.002	19.995	103.177	19.912	7.551	1.005
463.000	520.374	80.002	19.995	103.173	19.918	7.168	1.020
464.000	521.424	80.001	19.995	103.172	19.922	6.832	1.036
465.000	522.443	80.003	19.995	103.175	19.929	6.315	1.002
466.000	523.483	80.002	19.995	103.165	19.933	6.012	1.024
467.000	524.483	80.001	19.996	103.160	19.937	5.732	1.006
468.001	525.498	80.003	19.996	103.168	19.936	5.813	1.017
469.000	526.476	80.001	19.995	103.175	19.941	5.436	0.992
470.000	527.514	80.001	19.995	103.181	19.944	5.188	1.021
471.000	528.515	80.001	19.996	103.188	19.945	5.111	1.016
472.000	529.518	80.002	19.994	103.187	19.945	5.152	1.008
473.000	530.561	80.003	19.995	103.188	19.946	5.074	1.034
474.000	531.566	80.003	19.996	103.188	19.949	4.838	1.019
475.000	532.592	80.002	19.995	103.188	19.950	4.730	1.021
476.000	533.596	80.004	19.995	103.188	19.952	4.570	0.984
477.000	534.643	80.002	19.996	103.189	19.951	4.697	1.054
478.000	535.708	80.002	19.995	103.189	19.951	4.684	1.059
479.000	536.727	80.003	19.995	103.189	19.953	4.498	1.012
480.000	537.719	80.004	19.995	103.187	19.953	4.539	1.007
481.000	538.697	80.003	19.994	103.188	19.953	4.545	0.988
482.000	539.712	80.003	19.995	103.189	19.954	4.471	1.017
483.000	540.762	80.003	19.995	103.191	19.959	4.055	1.033
484.000	541.782	80.002	19.994	103.191	19.954	4.461	1.040
485.000	542.799	80.002	19.994	103.190	19.952	4.570	1.016
486.000	543.821	80.003	19.994	103.190	19.955	4.402	1.021
487.000	544.785	80.003	19.995	103.191	19.957	4.190	0.967
488.000	545.791	80.004	19.995	103.191	19.958	4.180	1.014
489.000	546.834	80.002	19.996	103.190	19.958	4.143	1.028
490.000	547.830	80.002	19.995	103.188	19.957	4.194	1.004
491.000	548.901	80.002	19.995	103.189	19.958	4.172	1.050
492.000	549.910	80.001	19.996	103.191	19.960	3.986	1.001
493.000	550.930	80.002	19.996	103.192	19.961	3.939	1.045
494.000	551.890	80.002	19.996	103.191	19.962	3.834	0.966
495.000	552.943	80.001	19.995	103.189	19.962	3.885	1.043
496.000	553.957	80.001	19.996	103.189	19.963	3.748	1.010
497.000	555.054	80.002	19.995	103.191	19.961	3.889	1.060
498.000	556.001	80.002	19.995	103.187	19.964	3.719	0.989
499.000	556.996	80.001	19.995	103.186	19.962	3.857	1.010
500.000	558.049	80.000	19.995	103.186	19.962	3.838	1.043
501.000	559.056	80.001	19.995	103.185	19.961	3.924	0.995
502.000	560.104	80.001	19.995	103.186	19.961	3.941	1.038
503.000	561.092	80.001	19.995	103.189	19.962	3.852	1.007
504.000	562.154	80.002	19.996	103.190	19.960	4.022	1.051
505.000	563.169	80.003	19.995	103.189	19.961	3.900	1.011
506.000	564.168	80.002	19.995	103.188	19.960	4.000	1.006
507.000	565.198	80.003	19.996	103.183	19.962	3.834	1.014
508.000	566.212	80.002	19.996	103.183	19.961	3.887	1.034
509.000	567.186	80.003	19.996	103.185	19.960	3.982	0.974
510.000	568.217	80.003	19.995	103.190	19.963	3.758	1.042
511.000	569.248	80.002	19.995	103.189	19.960	4.008	1.010
512.000	570.261	80.004	19.995	103.190	19.961	3.918	1.016
513.000	571.247	80.003	19.995	103.188	19.964	3.692	0.996
514.000	572.293	80.002	19.996	103.187	19.962	3.836	1.036
515.000	573.288	80.002	19.995	103.187	19.962	3.842	0.993
516.000	574.342	80.002	19.995	103.188	19.962	3.859	1.055
517.000	575.373	80.001	19.995	103.189	19.961	3.949	1.039
518.000	576.385	80.003	19.995	103.190	19.966	3.555	1.002
519.000	577.413	80.003	19.995	103.191	19.962	3.842	1.038
520.000	578.388	80.002	19.995	103.190	19.963	3.807	0.982
521.000	579.412	80.001	19.995	103.190	19.964	3.705	1.013
522.001	580.386	80.002	19.996	103.190	19.963	3.750	0.994
523.000	581.415	80.001	19.995	103.188	19.965	3.592	1.003
524.000	582.429	80.001	19.996	103.184	19.964	3.732	1.022
525.000	583.416	80.000	19.995	103.185	19.963	3.750	0.991
526.000	584.451	80.002	19.996	103.190	19.961	3.936	1.024
527.000	585.484	80.002	19.996	103.192	19.963	3.740	1.035
528.000	586.512	80.003	19.996	103.190	19.963	3.807	1.019
529.000	587.485	80.003	19.996	103.190	19.964	3.725	0.985
530.000	588.491	80.003	19.995	103.189	19.963	3.752	1.023
531.000	589.527	80.002	19.995	103.184	19.966	3.535	1.024
532.000	590.505	80.002	19.996	103.185	19.964	3.705	0.982
533.000	591.514	80.004	19.995	103.188	19.963	3.774	1.028
534.000	592.574	80.004	19.996	103.188	19.964	3.713	1.011
535.000	593.562	80.003	19.995	103.189	19.965	3.641	1.012
536.000	594.591	80.005	19.996	103.187	19.962	3.848	1.044
537.000	595.624	80.005	19.996	103.184	19.958	4.112	1.010
538.000	596.633	80.003	19.996	103.184	19.964	3.674	1.020
539.000	597.649	80.004	19.995	103.186	19.963	3.786	1.011
540.000	598.641	80.002	19.995	103.184	19.962	3.859	1.003
541.000	599.651	80.003	19.996	103.181	19.966	3.518	1.013
542.000	600.663	80.004	19.994	103.182	19.964	3.664	1.009
543.000	601.688	80.002	19.995	103.184	19.962	3.885	1.004
544.000	602.646	80.002	19.995	103.184	19.967	3.492	0.984
545.000	603.737	80.002	19.995	103.180	19.966	3.547	1.057
546.000	604.725	80.002	19.995	103.182	19.964	3.730	1.003
547.000	605.700	80.002	19.996	103.187	19.965	3.601	0.978
548.000	606.748	80.002	19.994	103.179	19.966	3.566	1.048
549.000	607.716	80.001	19.995	103.175	19.963	3.738	0.995
550.000	608.712	80.002	19.994	103.176	19.962	3.836	0.997
551.000	609.714	80.001	19.995	103.188	19.962	3.867	0.996
552.000	610.734	80.002	19.995	103.189	19.966	3.533	1.011
553.000	611.749	80.002	19.995	103.190	19.966	3.547	1.011
554.000	612.768	80.001	19.995	103.189	19.966	3.525	1.016
555.000	613.794	80.002	19.995	103.189	19.962	3.840	1.022
556.000	614.831	80.003	19.996	103.192	19.964	3.705	1.025
557.000	615.833	80.002	19.995	103.202	19.960	3.984	1.009
558.000	616.880	80.002	19.995	103.202	19.963	3.783	1.030
559.000	617.862	80.003	19.995	103.196	19.965	3.640	1.017
560.000	618.876	80.002	19.994	103.190	19.963	3.789	1.014
561.000	619.889	80.002	19.995	103.191	19.963	3.750	0.994
562.000	620.872	80.003	19.995	103.190	19.961	3.960	1.001
563.000	621.915	80.003	19.995	103.190	19.962	3.820	1.035
564.000	622.907	80.004	19.995	103.190	19.965	3.650	0.978
565.000	623.854	80.003	19.995	103.194	19.962	3.873	0.985
566.000	624.905	80.003	19.995	103.193	19.963	3.788	1.014
567.000	625.892	80.002	19.995	103.191	19.962	3.872	1.008
568.000	626.909	80.003	19.996	103.192	19.961	3.927	1.003
569.000	627.915	80.003	19.995	103.199	19.962	3.849	1.007
570.000	628.957	80.001	19.995	103.204	19.961	3.939	1.029
571.000	629.945	80.002	19.996	103.203	19.965	3.605	0.994
572.001	630.979	80.002	19.995	103.198	19.962	3.880	1.017
573.000	631.958	80.001	19.995	103.204	19.962	3.852	1.009
574.000	632.955	80.001	19.995	103.208	19.962	3.870	0.984
575.000	633.969	80.002	19.995	103.208	19.961	3.907	1.017
576.000	634.964	80.001	19.995	103.197	19.960	3.989	1.012
577.000	636.019	80.001	19.995	103.208	19.962	3.885	1.033
578.000	636.996	80.001	19.994	103.213	19.961	3.891	0.983
579.000	638.018	80.001	19.994	103.212	19.960	4.026	1.024
580.000	639.024	80.002	19.994	103.200	19.960	4.016	1.007
581.000	640.015	80.002	19.995	103.206	19.957	4.233	1.001
582.000	641.016	80.002	19.995	103.209	19.957	4.258	1.003
583.000	642.058	80.003	19.995	103.217	19.958	4.123	1.020
584.000	643.069	80.002	19.995	103.220	19.960	4.035	1.015
585.000	644.042	80.001	19.994	103.228	19.956	4.277	0.979
586.000	645.033	80.002	19.995	103.227	19.956	4.275	0.998
587.000	646.047	80.002	19.994	103.230	19.958	4.180	1.031
588.000	647.026	80.002	19.994	103.229	19.958	4.139	0.975
589.000	648.070	80.002	19.995	103.230	19.960	3.996	1.005
590.000	649.052	80.003	19.995	103.227	19.959	4.068	0.995
591.000	650.026	80.003	19.994	103.228	19.959	4.094	0.999
592.000	651.084	80.003	19.994	103.232	19.960	4.027	1.016
593.000	652.020	80.004	19.994	103.234	19.958	4.166	1.006
594.000	653.031	80.003	19.995	103.236	19.959	4.080	0.973
595.000	654.021	80.004	19.996	103.235	19.955	4.343	1.000
596.000	655.031	80.004	19.996	103.238	19.956	4.335	0.986
597.000	656.063	80.002	19.995	103.243	19.957	4.214	1.030
598.000	657.040	80.002	19.995	103.239	19.956	4.278	0.987
599.000	658.032	80.002	19.995	103.235	19.958	4.179	1.011
600.000	659.046	80.002	19.995	103.233	19.954	4.477	0.978
601.000	660.049	80.003	19.995	103.239	19.952	4.618	1.009
602.000	661.022	80.003	19.995	103.244	19.953	4.508	1.007
603.000	662.089	80.003	19.995	103.244	19.957	4.220	1.032
604.000	663.060	80.002	19.996	103.241	19.952	4.606	0.997
605.000	664.059	80.002	19.995	103.244	19.953	4.534	0.980
606.000	665.045	80.003	19.996	103.255	19.951	4.663	0.989
607.000	666.001	80.002	19.995	103.261	19.950	4.725	0.969
608.000	667.030	80.003	19.995	103.264	19.950	4.785	1.018
609.000	667.993	80.004	19.995	103.263	19.950	4.743	0.991
610.000	669.003	80.003	19.995	103.263	19.950	4.757	0.995
611.000	670.019	80.004	19.995	103.265	19.952	4.576	0.996
612.000	671.055	80.004	19.996	103.266	19.950	4.755	1.046
613.000	671.974	80.005	19.995	103.268	19.952	4.570	0.945
614.000	672.967	80.006	19.995	103.269	19.949	4.816	0.988
615.000	673.988	80.006	19.995	103.268	19.947	4.989	1.011
616.000	675.024	80.006	19.995	103.266	19.947	4.946	1.029
617.000	676.005	80.005	19.996	103.267	19.951	4.653	0.988
618.000	677.048	80.004	19.995	103.270	19.951	4.661	1.008
619.000	677.992	80.004	19.995	103.284	19.951	4.704	0.974
620.000	678.986	80.003	19.995	103.295	19.945	5.088	0.991
621.000	680.010	80.004	19.995	103.287	19.944	5.217	1.006
622.000	680.915	80.004	19.995	103.287	19.946	5.035	0.929
623.000	681.921	80.005	19.996	103.291	19.945	5.154	1.010
624.000	682.922	80.004	19.997	103.295	19.945	5.132	0.970
625.000	683.879	80.002	19.996	103.292	19.942	5.344	0.990
626.000	684.903	80.002	19.996	103.296	19.944	5.178	0.984
627.000	685.861	80.002	19.996	103.302	19.942	5.354	0.976
628.000	686.823	80.003	19.998	103.304	19.940	5.512	0.979
629.000	687.832	80.003	19.996	103.304	19.936	5.797	0.973
630.000	688.804	80.002	19.996	103.304	19.938	5.623	1.008
631.000	689.769	80.001	19.996	103.304	19.938	5.642	0.959
632.000	690.758	80.001	19.995	103.308	19.937	5.703	0.985
633.000	691.702	80.002	19.995	103.311	19.942	5.326	0.957
634.000	692.716	80.002	19.996	103.324	19.938	5.613	1.002
635.000	693.672	80.002	19.996	103.332	19.935	5.882	0.959
636.000	694.681	80.002	19.995	103.342	19.936	5.808	0.984
637.000	695.635	80.001	19.996	103.340	19.935	5.875	0.971
638.000	696.618	80.001	19.995	103.336	19.938	5.657	0.992
639.000	697.599	80.001	19.995	103.335	19.936	5.803	0.986
640.000	698.571	80.001	19.995	103.341	19.934	5.959	0.974
641.000	699.557	80.002	19.995	103.348	19.932	6.118	0.966
642.000	700.530	80.002	19.996	103.348	19.932	6.081	1.000
643.000	701.526	80.002	19.995	103.347	19.932	6.100	0.966
644.000	702.476	80.003	19.994	103.347	19.932	6.127	0.970
645.000	703.471	80.002	19.995	103.348	19.930	6.240	0.980
646.000	704.478	80.002	19.995	103.351	19.926	6.542	1.001
647.000	705.476	80.004	19.994	103.352	19.929	6.330	1.014
648.000	706.442	80.002	19.994	103.362	19.930	6.271	0.972
649.000	707.413	80.003	19.996	103.370	19.932	6.099	0.969
650.000	708.406	80.002	19.995	103.371	19.929	6.311	0.984
651.000	709.411	80.001	19.994	103.376	19.929	6.332	0.984
652.000	710.357	80.002	19.994	103.377	19.928	6.423	0.963
653.000	711.360	80.002	19.995	103.380	19.928	6.382	1.000
654.000	712.331	80.002	19.994	103.386	19.925	6.631	0.984
655.000	713.287	80.003	19.994	103.388	19.926	6.557	0.946
656.000	714.268	80.001	19.994	103.391	19.926	6.529	1.004
657.000	715.233	80.000	19.994	103.393	19.928	6.373	0.969
658.000	716.253	80.001	19.995	103.397	19.924	6.741	1.003
659.000	717.268	80.000	19.994	103.400	19.921	6.910	1.015
660.000	718.276	80.001	19.994	103.409	19.923	6.807	1.007
661.000	719.250	80.001	19.994	103.420	19.922	6.879	0.965
662.000	720.245	80.001	19.996	103.429	19.918	7.147	1.002
663.000	721.247	80.002	19.995	103.432	19.918	7.125	1.004
664.000	722.254	80.003	19.995	103.434	19.915	7.368	1.001
665.000	723.244	80.001	19.995	103.436	19.916	7.290	0.999
666.000	724.213	80.002	19.995	103.444	19.916	7.313	0.974
667.000	725.199	80.004	19.994	103.453	19.914	7.428	0.982
668.000	726.234	80.003	19.995	103.462	19.914	7.486	1.010
669.000	727.203	80.003	19.994	103.462	19.911	7.679	0.991
670.000	728.217	80.003	19.994	103.462	19.913	7.496	1.004
671.000	729.198	80.004	19.994	103.465	19.913	7.562	0.996
672.000	730.207	80.005	19.995	103.468	19.907	7.971	0.983
673.000	731.184	80.004	19.995	103.479	19.907	7.955	0.982
674.000	732.185	80.004	19.994	103.489	19.907	7.953	1.014
675.000	733.198	80.005	19.995	103.500	19.906	8.069	0.996
676.000	734.172	80.005	19.995	103.501	19.905	8.123	0.983
677.000	735.184	80.004	19.994	103.502	19.905	8.145	1.016
678.000	736.180	80.004	19.995	103.502	19.905	8.163	0.983
679.000	737.159	80.005	19.995	103.502	19.905	8.130	0.986
680.000	738.130	80.004	19.994	103.504	19.905	8.134	0.981
681.000	739.101	80.005	19.995	103.505	19.901	8.412	0.991
682.000	740.073	80.002	19.994	103.504	19.902	8.349	0.948
683.000	741.091	80.003	19.995	103.502	19.900	8.510	1.017