File: 01_Data/Lightweight_Gypsum_Wallboard_Painted_Paper/MCC/Lightweight_Gypsum_Wallboard_Painted_Paper_MCC_30K_min_211130_R1.txt
Sample ID:	C:\MCC\MCC Cal\Test\LW_GypBoard_Painted_Paper_MCC_30K_min_211130_R1.txt
Sample Weight (mg):	4.49
Heating Rate (C/s):	0.5
Combustor Temp (C):	900
N2 Flow Rate (cc/min):	80
O2 Flow Rate (cc/min):	20
Calibration File:	C:\MCC\MCC Cal\Coeff1 JN10440_30_210304.txt.txt
T Correction Coefficients:	0	1.024463	0
Time Shift (s):	14
*
Time (s)	Temperature (C)	N2 flow rate (cc/min)	O2 flow rate (cc/min)	Flow Rate (cc/min)	Oxygen (%)	HRR (W/g)	Heating rate (C/s)
0.000	110.761	80.012	19.996	103.071	20.200	-0.100	0.002
1.500	110.728	80.001	19.995	103.070	20.199	-0.037	-0.028
3.000	110.769	80.009	19.993	103.063	20.198	0.004	0.035
4.500	110.726	80.002	19.994	103.068	20.196	0.130	-0.053
6.000	110.755	79.997	19.994	103.063	20.198	0.033	0.034
7.500	110.743	80.002	19.995	103.063	20.199	-0.083	-0.017
9.001	110.755	80.009	19.995	103.062	20.197	0.055	-0.010
10.501	110.754	80.004	19.995	103.057	20.197	0.124	0.006
12.000	110.779	80.002	19.996	103.069	20.191	0.505	0.016
13.501	110.767	80.006	19.993	103.091	20.189	0.627	-0.005
15.000	110.768	79.999	19.996	103.098	20.189	0.665	0.011
16.500	110.806	80.002	19.994	103.112	20.183	1.066	0.047
18.000	110.825	80.004	19.994	103.128	20.183	1.088	0.012
19.500	110.843	80.003	19.994	103.129	20.181	1.210	0.003
21.000	110.896	80.000	19.994	103.138	20.180	1.277	0.044
22.500	110.968	80.002	19.996	103.162	20.179	1.350	0.053
24.000	111.007	80.000	19.996	103.179	20.178	1.458	0.021
25.500	111.097	80.003	19.995	103.190	20.173	1.846	0.070
27.000	111.167	80.005	19.994	103.212	20.168	2.151	0.031
28.500	111.272	80.001	19.994	103.228	20.169	2.118	0.051
30.000	111.432	80.005	19.994	103.246	20.163	2.525	0.078
31.500	111.549	80.005	19.994	103.258	20.163	2.539	0.085
33.000	111.750	80.010	19.994	103.254	20.161	2.703	0.142
34.500	111.919	80.002	19.994	103.256	20.161	2.640	0.117
36.000	112.151	80.011	19.992	103.257	20.158	2.868	0.166
37.500	112.394	80.003	19.993	103.254	20.159	2.847	0.158
39.001	112.625	80.007	19.994	103.255	20.153	3.213	0.155
40.500	112.901	80.005	19.993	103.267	20.156	3.026	0.202
42.001	113.136	80.004	19.995	103.272	20.153	3.266	0.161
43.500	113.416	79.998	19.995	103.271	20.157	2.926	0.171
45.000	113.711	80.003	19.994	103.272	20.156	3.056	0.212
46.500	114.015	80.013	19.991	103.270	20.155	3.097	0.214
48.000	114.343	80.000	19.996	103.281	20.152	3.341	0.212
49.501	114.662	80.001	19.995	103.289	20.155	3.070	0.232
51.000	115.044	80.001	19.995	103.288	20.153	3.273	0.235
52.500	115.364	79.996	19.993	103.290	20.152	3.289	0.211
54.001	115.767	80.002	19.992	103.290	20.151	3.393	0.270
55.501	116.113	80.000	19.994	103.294	20.150	3.486	0.236
57.000	116.502	79.999	19.993	103.292	20.149	3.519	0.267
58.500	116.943	80.006	19.993	103.293	20.150	3.482	0.277
60.000	117.342	80.018	19.992	103.305	20.151	3.376	0.246
61.500	117.806	80.011	19.992	103.323	20.151	3.388	0.301
63.000	118.264	80.006	19.993	103.317	20.146	3.725	0.326
64.500	118.696	79.989	19.994	103.312	20.146	3.781	0.282
66.000	119.181	80.010	19.995	103.315	20.146	3.768	0.314
67.500	119.687	79.995	19.996	103.325	20.144	3.860	0.321
69.000	120.131	80.017	19.991	103.328	20.148	3.616	0.294
70.500	120.659	80.002	19.994	103.335	20.145	3.821	0.357
72.001	121.195	80.016	19.993	103.330	20.142	4.032	0.371
73.501	121.675	79.981	19.997	103.333	20.143	3.963	0.322
75.001	122.230	80.002	19.992	103.325	20.144	3.902	0.373
76.500	122.796	80.015	19.992	103.326	20.138	4.355	0.357
78.001	123.348	79.997	19.994	103.330	20.139	4.270	0.354
79.500	123.878	79.994	19.996	103.323	20.138	4.313	0.373
81.000	124.490	80.008	19.992	103.324	20.135	4.532	0.415
82.500	125.061	80.001	19.995	103.323	20.135	4.508	0.386
84.000	125.641	80.004	19.993	103.328	20.139	4.242	0.393
85.500	126.281	80.006	19.993	103.339	20.140	4.148	0.438
87.001	126.880	80.010	19.991	103.337	20.137	4.386	0.395
88.500	127.514	79.991	19.994	103.337	20.141	4.102	0.408
90.000	128.101	80.006	19.993	103.323	20.135	4.534	0.405
91.500	128.740	80.001	19.993	103.324	20.140	4.179	0.430
93.000	129.431	80.001	19.997	103.328	20.142	4.020	0.447
94.501	130.053	80.006	19.994	103.329	20.138	4.296	0.414
96.000	130.690	80.009	19.993	103.330	20.139	4.229	0.419
97.500	131.418	80.001	19.994	103.329	20.138	4.306	0.482
99.001	132.059	79.998	19.995	103.329	20.139	4.240	0.424
100.500	132.721	80.004	19.996	103.323	20.139	4.223	0.443
102.001	133.448	79.994	19.995	103.325	20.137	4.368	0.477
103.500	134.101	79.980	19.998	103.327	20.143	3.951	0.456
105.001	134.833	80.003	19.993	103.326	20.140	4.154	0.475
106.500	135.530	80.004	19.993	103.324	20.139	4.266	0.474
108.001	136.203	80.004	19.994	103.329	20.141	4.144	0.459
109.501	136.901	79.993	19.995	103.330	20.142	4.037	0.453
111.000	137.609	80.028	19.992	103.327	20.138	4.333	0.456
112.501	138.349	80.006	19.995	103.330	20.141	4.095	0.491
114.000	138.997	79.992	19.997	103.327	20.145	3.858	0.421
115.500	139.768	79.999	19.996	103.335	20.140	4.193	0.498
117.001	140.505	79.990	19.995	103.330	20.138	4.290	0.495
118.501	141.232	79.988	19.996	103.327	20.140	4.162	0.465
120.000	142.005	80.003	19.995	103.327	20.141	4.101	0.527
121.501	142.714	80.007	19.994	103.330	20.136	4.485	0.490
123.001	143.506	79.997	19.993	103.335	20.137	4.374	0.515
124.500	144.202	80.000	19.997	103.332	20.137	4.405	0.470
126.001	144.994	80.003	19.993	103.328	20.134	4.583	0.522
127.500	145.750	80.005	19.994	103.331	20.137	4.429	0.499
129.000	146.530	79.998	19.993	103.334	20.143	3.960	0.517
130.500	147.280	80.021	19.992	103.335	20.137	4.417	0.471
132.000	147.995	79.990	19.996	103.334	20.138	4.348	0.483
133.500	148.751	80.006	19.996	103.320	20.138	4.309	0.491
135.000	149.524	79.975	19.998	103.318	20.140	4.167	0.507
136.501	150.318	80.015	19.994	103.319	20.136	4.448	0.519
138.000	151.012	80.000	19.995	103.320	20.142	4.050	0.493
139.500	151.834	80.005	19.993	103.314	20.140	4.164	0.543
141.000	152.609	80.008	19.993	103.311	20.142	4.071	0.525
142.500	153.334	79.997	19.995	103.315	20.139	4.227	0.485
144.000	154.142	80.005	19.994	103.311	20.141	4.097	0.522
145.500	154.896	80.000	19.992	103.316	20.140	4.157	0.528
147.000	155.683	80.006	19.994	103.308	20.138	4.316	0.498
148.500	156.434	80.018	19.993	103.300	20.140	4.176	0.512
150.000	157.167	80.011	19.993	103.294	20.139	4.265	0.508
151.500	157.971	80.008	19.993	103.292	20.138	4.310	0.532
153.000	158.713	80.010	19.990	103.292	20.140	4.203	0.509
154.500	159.479	80.014	19.991	103.296	20.135	4.524	0.500
156.000	160.228	80.009	19.992	103.303	20.139	4.286	0.499
157.500	160.985	79.997	19.996	103.299	20.139	4.231	0.473
159.001	161.755	80.003	19.992	103.292	20.140	4.205	0.497
160.500	162.493	79.994	19.994	103.295	20.139	4.237	0.501
162.000	163.263	80.009	19.992	103.288	20.139	4.274	0.499
163.500	164.029	79.997	19.994	103.286	20.136	4.442	0.486
165.000	164.794	80.013	19.994	103.288	20.140	4.186	0.504
166.500	165.588	79.999	19.995	103.302	20.143	3.999	0.500
168.000	166.371	80.009	19.994	103.306	20.142	4.032	0.503
169.500	167.110	80.000	19.998	103.298	20.139	4.223	0.490
171.000	167.861	80.007	19.994	103.292	20.140	4.205	0.495
172.500	168.633	79.986	19.995	103.292	20.138	4.317	0.508
174.000	169.366	80.004	19.995	103.289	20.140	4.212	0.464
175.500	170.126	80.000	19.995	103.293	20.143	3.962	0.478
177.000	170.899	80.014	19.996	103.289	20.140	4.183	0.514
178.500	171.653	80.000	19.998	103.282	20.138	4.340	0.487
180.000	172.425	80.005	19.994	103.276	20.141	4.126	0.527
181.500	173.212	80.003	19.995	103.280	20.138	4.357	0.511
183.000	173.924	79.997	19.995	103.279	20.141	4.095	0.480
184.500	174.684	80.004	19.995	103.271	20.144	3.917	0.489
186.000	175.406	80.018	19.990	103.253	20.140	4.171	0.468
187.500	176.181	79.994	19.995	103.271	20.144	3.907	0.504
189.000	176.867	79.982	19.996	103.276	20.140	4.202	0.472
190.500	177.701	79.981	19.996	103.274	20.144	3.884	0.543
192.000	178.425	80.009	19.993	103.277	20.139	4.277	0.473
193.500	179.173	80.016	19.993	103.286	20.140	4.206	0.485
195.000	179.906	79.999	19.998	103.285	20.140	4.194	0.502
196.500	180.660	80.000	19.990	103.263	20.137	4.418	0.501
198.000	181.393	80.008	19.994	103.259	20.139	4.225	0.449
199.500	182.119	80.002	19.993	103.261	20.136	4.495	0.484
201.000	182.854	80.002	19.995	103.266	20.136	4.448	0.466
202.500	183.591	79.998	19.998	103.261	20.137	4.397	0.498
204.000	184.336	80.004	19.994	103.260	20.134	4.607	0.499
205.500	185.081	80.002	19.998	103.263	20.131	4.798	0.498
207.000	185.868	79.984	19.999	103.249	20.135	4.568	0.532
208.500	186.620	79.996	19.994	103.248	20.132	4.771	0.508
210.000	187.322	79.984	19.997	103.251	20.130	4.887	0.484
211.500	188.070	80.000	19.996	103.247	20.134	4.621	0.486
213.000	188.803	80.003	19.996	103.247	20.134	4.629	0.504
214.500	189.515	80.015	19.993	103.252	20.134	4.616	0.479
216.001	190.245	80.004	19.994	103.251	20.131	4.808	0.521
217.500	190.970	80.014	19.992	103.255	20.135	4.523	0.487
219.000	191.712	80.002	19.993	103.262	20.134	4.582	0.517
220.500	192.430	80.005	19.992	103.258	20.132	4.737	0.465
222.000	193.176	80.012	19.992	103.255	20.134	4.619	0.498
223.500	193.927	79.999	19.996	103.257	20.132	4.781	0.510
225.000	194.645	80.002	19.996	103.260	20.126	5.161	0.504
226.500	195.386	80.016	19.985	103.257	20.126	5.177	0.492
228.000	196.141	79.994	19.997	103.260	20.124	5.342	0.477
229.500	196.866	80.012	19.996	103.258	20.128	5.009	0.467
231.000	197.604	80.007	19.992	103.252	20.129	4.964	0.503
232.500	198.325	80.018	19.995	103.255	20.128	5.064	0.531
234.000	199.046	79.993	19.994	103.252	20.124	5.298	0.516
235.500	199.785	80.005	19.993	103.258	20.128	5.027	0.477
237.000	200.545	80.003	19.994	103.262	20.125	5.267	0.499
238.500	201.239	80.033	19.992	103.266	20.123	5.383	0.485
240.000	202.012	79.986	19.997	103.268	20.126	5.164	0.506
241.500	202.744	80.007	19.989	103.255	20.126	5.194	0.516
243.000	203.458	80.004	19.994	103.257	20.123	5.427	0.472
244.501	204.180	79.993	19.993	103.252	20.125	5.257	0.486
246.000	204.959	80.008	19.990	103.258	20.122	5.462	0.509
247.500	205.681	79.998	19.993	103.262	20.120	5.580	0.500
249.000	206.468	80.003	19.993	103.256	20.121	5.560	0.517
250.500	207.176	80.007	19.993	103.257	20.124	5.302	0.473
252.000	207.952	80.000	19.994	103.260	20.123	5.428	0.539
253.500	208.718	80.012	19.989	103.259	20.122	5.465	0.494
255.000	209.407	80.008	19.993	103.260	20.124	5.349	0.447
256.500	210.153	80.007	19.991	103.256	20.122	5.448	0.490
258.000	210.874	79.993	19.995	103.259	20.119	5.671	0.478
259.500	211.618	80.005	19.993	103.248	20.114	6.050	0.490
261.000	212.347	80.002	19.991	103.253	20.116	5.912	0.511
262.500	213.139	79.991	19.997	103.263	20.118	5.746	0.545
264.000	213.863	80.003	19.995	103.251	20.118	5.780	0.478
265.500	214.607	79.990	19.993	103.245	20.118	5.723	0.501
267.000	215.400	80.021	19.992	103.254	20.116	5.865	0.502
268.500	216.102	80.009	19.991	103.260	20.116	5.893	0.514
270.000	216.823	80.008	19.995	103.252	20.116	5.871	0.483
271.500	217.584	79.981	19.999	103.252	20.115	6.003	0.506
273.000	218.326	80.002	19.991	103.248	20.116	5.888	0.472
274.500	219.079	79.983	19.996	103.251	20.115	5.992	0.505
276.000	219.820	79.995	19.996	103.250	20.114	6.038	0.486
277.500	220.605	80.001	19.994	103.249	20.111	6.286	0.530
279.000	221.302	80.011	19.992	103.252	20.114	6.070	0.462
280.500	222.087	80.003	19.994	103.255	20.112	6.204	0.546
282.000	222.827	79.998	19.995	103.252	20.114	6.053	0.503
283.500	223.540	79.988	19.992	103.250	20.117	5.862	0.456
285.000	224.288	79.991	20.000	103.246	20.117	5.831	0.487
286.500	225.018	80.009	19.994	103.242	20.113	6.089	0.496
288.000	225.766	80.007	19.997	103.247	20.119	5.715	0.506
289.501	226.589	80.000	19.996	103.252	20.117	5.863	0.555
291.000	227.345	80.008	19.994	103.261	20.115	5.946	0.492
292.500	228.058	79.997	20.000	103.250	20.113	6.103	0.500
294.000	228.862	79.996	19.997	103.241	20.114	6.016	0.522
295.500	229.596	80.002	19.995	103.243	20.119	5.691	0.531
297.000	230.411	79.995	19.996	103.241	20.117	5.848	0.530
298.500	231.148	80.004	19.998	103.244	20.112	6.180	0.498
300.000	231.899	80.024	19.994	103.248	20.116	5.882	0.509
301.500	232.569	79.987	19.999	103.257	20.115	6.006	0.470
303.000	233.362	80.001	19.996	103.249	20.118	5.759	0.518
304.500	234.146	80.000	19.994	103.254	20.117	5.808	0.521
306.000	234.894	80.009	19.990	103.245	20.117	5.857	0.487
307.500	235.669	80.014	19.995	103.233	20.118	5.722	0.557
309.000	236.388	79.999	19.992	103.251	20.115	6.006	0.499
310.500	237.146	80.006	19.996	103.252	20.120	5.619	0.513
312.000	237.885	80.007	19.994	103.243	20.114	6.062	0.528
313.500	238.633	80.017	19.988	103.245	20.118	5.768	0.491
315.000	239.369	80.004	19.991	103.251	20.114	6.038	0.491
316.500	240.101	80.003	19.994	103.252	20.112	6.200	0.514
318.000	240.861	80.002	19.994	103.235	20.119	5.652	0.504
319.500	241.677	80.008	19.991	103.242	20.116	5.934	0.539
321.000	242.389	79.992	19.994	103.253	20.113	6.096	0.467
322.500	243.159	80.001	19.993	103.249	20.111	6.246	0.506
324.000	243.894	80.004	19.994	103.250	20.116	5.923	0.501
325.500	244.658	80.013	19.995	103.250	20.115	5.984	0.510
327.000	245.414	80.009	19.988	103.259	20.114	6.036	0.478
328.500	246.105	80.000	19.997	103.256	20.108	6.475	0.469
330.000	246.903	80.005	19.988	103.252	20.116	5.904	0.528
331.500	247.630	80.002	19.995	103.244	20.112	6.166	0.476
333.000	248.333	80.002	19.995	103.232	20.113	6.091	0.461
334.500	249.158	79.991	19.999	103.239	20.112	6.184	0.514
336.000	249.900	79.994	19.992	103.244	20.107	6.530	0.514
337.500	250.701	79.981	19.993	103.247	20.106	6.603	0.525
339.000	251.429	80.004	19.992	103.250	20.108	6.479	0.476
340.500	252.166	80.008	19.991	103.254	20.105	6.695	0.497
342.000	252.922	80.000	19.994	103.249	20.103	6.852	0.513
343.500	253.738	80.022	19.992	103.249	20.100	7.016	0.533
345.000	254.445	79.990	19.995	103.260	20.102	6.884	0.480
346.500	255.223	79.994	19.989	103.244	20.106	6.593	0.506
348.000	255.955	80.003	19.989	103.251	20.103	6.863	0.456
349.501	256.709	80.007	19.998	103.256	20.100	7.038	0.502
351.000	257.402	79.990	19.993	103.253	20.100	7.071	0.460
352.500	258.191	80.000	19.995	103.239	20.096	7.358	0.539
354.000	258.990	80.001	19.993	103.241	20.096	7.337	0.534
355.500	259.703	80.002	19.998	103.245	20.094	7.483	0.474
357.000	260.404	79.991	20.001	103.249	20.093	7.558	0.458
358.500	261.169	80.017	19.991	103.249	20.089	7.829	0.510
360.000	261.943	80.000	20.000	103.254	20.087	7.995	0.528
361.500	262.696	79.994	19.995	103.249	20.087	8.004	0.511
363.000	263.444	79.998	19.996	103.247	20.085	8.120	0.503
364.500	264.202	79.984	19.996	103.254	20.082	8.368	0.479
366.000	264.921	80.007	19.999	103.257	20.081	8.388	0.503
367.500	265.714	80.011	19.992	103.253	20.080	8.449	0.527
369.000	266.480	80.008	19.991	103.252	20.078	8.644	0.505
370.500	267.191	80.007	19.993	103.255	20.079	8.522	0.491
372.000	267.961	79.998	20.003	103.255	20.076	8.770	0.492
373.500	268.690	80.000	19.995	103.254	20.076	8.755	0.500
375.000	269.472	79.997	19.993	103.254	20.074	8.909	0.528
376.500	270.227	80.013	19.994	103.254	20.070	9.167	0.503
378.000	270.981	79.991	19.996	103.257	20.069	9.278	0.523
379.500	271.775	79.995	19.995	103.251	20.067	9.404	0.535
381.000	272.522	80.002	19.993	103.247	20.060	9.918	0.492
382.500	273.257	80.003	19.998	103.251	20.060	9.884	0.519
384.000	274.023	80.011	19.992	103.260	20.063	9.679	0.513
385.500	274.778	79.995	19.992	103.256	20.057	10.147	0.486
387.000	275.516	79.997	19.998	103.252	20.052	10.489	0.511
388.500	276.276	79.996	20.003	103.261	20.045	11.025	0.481
390.000	277.029	79.997	19.995	103.261	20.045	10.970	0.502
391.500	277.833	80.006	19.987	103.262	20.042	11.210	0.511
393.000	278.501	80.002	19.992	103.254	20.041	11.304	0.466
394.500	279.278	80.010	19.994	103.253	20.039	11.432	0.534
396.000	280.028	79.987	19.999	103.252	20.038	11.503	0.522
397.500	280.753	80.004	19.993	103.256	20.034	11.795	0.490
399.000	281.577	80.010	19.991	103.259	20.028	12.216	0.514
400.500	282.249	80.010	19.989	103.252	20.029	12.165	0.447
402.000	283.021	79.988	19.995	103.255	20.022	12.674	0.523
403.501	283.778	80.003	19.995	103.247	20.018	12.949	0.515
405.000	284.519	79.995	19.996	103.262	20.017	12.980	0.496
406.500	285.284	80.013	19.991	103.282	20.014	13.207	0.508
408.000	286.033	80.017	19.991	103.277	20.009	13.611	0.506
409.500	286.793	79.999	19.998	103.267	20.006	13.816	0.514
411.000	287.532	79.989	19.995	103.269	20.004	13.912	0.494
412.500	288.293	80.002	19.997	103.262	19.999	14.292	0.490
414.000	289.069	79.999	19.995	103.273	19.995	14.585	0.519
415.500	289.787	80.008	19.995	103.277	19.994	14.657	0.488
417.000	290.562	79.990	19.997	103.262	19.987	15.126	0.485
418.500	291.375	80.010	19.990	103.263	19.983	15.471	0.529
420.000	292.134	80.001	19.996	103.283	19.981	15.560	0.497
421.500	292.880	80.002	19.996	103.281	19.975	15.996	0.510
423.000	293.601	80.007	19.993	103.272	19.972	16.256	0.498
424.500	294.353	80.011	19.994	103.273	19.968	16.522	0.484
426.000	295.136	80.006	19.992	103.281	19.966	16.683	0.541
427.500	295.891	80.004	19.993	103.292	19.960	17.122	0.507
429.000	296.650	80.001	19.993	103.289	19.958	17.255	0.504
430.500	297.318	80.008	19.994	103.281	19.951	17.718	0.458
432.000	298.119	80.000	19.994	103.276	19.953	17.583	0.518
433.500	298.896	80.005	19.993	103.282	19.945	18.163	0.524
435.000	299.613	79.993	19.994	103.290	19.942	18.405	0.512
436.500	300.390	80.014	19.994	103.288	19.938	18.678	0.503
438.000	301.132	80.005	19.992	103.293	19.933	19.056	0.507
439.500	301.901	80.005	19.995	103.296	19.928	19.386	0.508
441.000	302.596	79.994	19.996	103.292	19.922	19.835	0.464
442.500	303.420	79.996	19.993	103.291	19.918	20.106	0.543
444.000	304.128	80.004	19.990	103.292	19.914	20.435	0.479
445.500	304.887	79.999	19.997	103.296	19.913	20.442	0.514
447.000	305.656	80.001	19.993	103.292	19.905	21.066	0.526
448.500	306.405	80.003	19.995	103.299	19.896	21.687	0.509
450.000	307.186	80.002	19.995	103.301	19.897	21.626	0.521
451.500	307.878	79.998	19.996	103.294	19.893	21.949	0.480
453.000	308.727	80.006	19.992	103.299	19.884	22.532	0.534
454.500	309.475	80.003	19.993	103.300	19.881	22.810	0.482
456.000	310.220	80.004	19.995	103.303	19.875	23.239	0.488
457.500	310.950	80.003	19.994	103.306	19.872	23.430	0.479
459.000	311.689	80.006	19.993	103.305	19.870	23.563	0.518
460.500	312.519	80.001	19.994	103.307	19.864	24.017	0.552
462.000	313.241	80.004	19.994	103.320	19.855	24.636	0.480
463.500	314.039	80.000	19.994	103.322	19.850	24.970	0.523
465.000	314.832	80.006	19.992	103.322	19.843	25.485	0.537
466.500	315.568	80.000	19.998	103.322	19.839	25.796	0.481
468.000	316.335	80.008	19.995	103.323	19.833	26.194	0.512
469.500	317.119	80.004	19.995	103.322	19.829	26.499	0.522
471.000	317.898	80.005	19.994	103.321	19.826	26.761	0.526
472.500	318.620	80.004	19.995	103.323	19.818	27.279	0.479
474.000	319.402	80.005	19.994	103.327	19.809	27.918	0.525
475.500	320.163	80.005	19.993	103.326	19.807	28.084	0.507
477.000	320.914	80.005	19.995	103.324	19.800	28.569	0.494
478.500	321.678	80.001	19.995	103.324	19.790	29.291	0.514
480.000	322.447	80.000	20.001	103.324	19.787	29.550	0.500
481.500	323.175	79.999	20.000	103.326	19.780	30.062	0.484
483.000	323.935	79.998	19.996	103.325	19.773	30.554	0.524
484.500	324.732	80.003	19.997	103.326	19.766	31.073	0.517
486.000	325.485	80.004	19.992	103.330	19.756	31.794	0.510
487.500	326.219	80.001	19.998	103.330	19.748	32.320	0.503
489.000	326.980	80.002	19.996	103.339	19.740	32.882	0.517
490.500	327.744	80.003	19.993	103.348	19.737	33.107	0.509
492.000	328.515	80.001	19.997	103.352	19.729	33.697	0.518
493.500	329.258	79.992	19.999	103.357	19.722	34.225	0.511
495.000	330.027	79.999	19.991	103.365	19.713	34.865	0.521
496.500	330.780	80.002	19.997	103.370	19.702	35.620	0.475
498.000	331.563	79.996	19.995	103.373	19.695	36.184	0.528
499.500	332.311	80.009	19.998	103.373	19.688	36.633	0.540
501.000	333.057	79.996	19.996	103.369	19.678	37.382	0.490
502.500	333.807	79.996	19.995	103.373	19.669	38.017	0.496
504.000	334.600	80.004	19.994	103.373	19.658	38.841	0.529
505.500	335.353	80.004	19.993	103.376	19.653	39.205	0.491
507.000	336.088	80.002	19.996	103.379	19.641	40.065	0.476
508.500	336.837	79.998	19.993	103.375	19.637	40.333	0.491
510.000	337.663	80.022	19.990	103.385	19.625	41.205	0.562
511.500	338.427	80.009	19.993	103.395	19.614	41.946	0.520
513.000	339.149	79.999	19.995	103.398	19.604	42.726	0.517
514.500	339.877	80.002	19.998	103.401	19.593	43.485	0.488
516.000	340.663	79.998	19.996	103.399	19.585	44.090	0.515
517.500	341.398	80.000	19.995	103.405	19.574	44.852	0.501
519.000	342.186	80.003	19.994	103.408	19.559	45.925	0.528
520.500	342.934	80.002	19.995	103.407	19.550	46.597	0.501
522.000	343.674	79.999	19.995	103.408	19.540	47.326	0.511
523.500	344.440	80.003	19.994	103.411	19.528	48.196	0.510
525.000	345.211	80.002	19.996	103.416	19.518	48.884	0.496
526.500	345.949	80.004	19.994	103.423	19.508	49.584	0.490
528.000	346.721	80.005	19.993	103.418	19.498	50.335	0.517
529.500	347.470	80.004	19.994	103.416	19.488	51.076	0.506
531.000	348.260	80.004	19.994	103.433	19.475	52.019	0.513
532.500	349.007	80.002	19.995	103.442	19.460	53.069	0.500
534.000	349.738	80.004	19.992	103.438	19.451	53.678	0.499
535.500	350.501	80.002	19.995	103.443	19.439	54.582	0.509
537.000	351.261	80.004	19.993	103.442	19.425	55.608	0.513
538.500	352.055	80.001	19.997	103.438	19.415	56.293	0.513
540.000	352.838	80.006	19.995	103.442	19.409	56.765	0.532
541.500	353.530	80.002	19.991	103.448	19.397	57.600	0.485
543.000	354.349	80.003	19.995	103.445	19.390	58.105	0.532
544.500	355.095	80.001	19.999	103.443	19.380	58.844	0.496
546.000	355.812	80.001	19.996	103.446	19.374	59.250	0.493
547.500	356.580	80.003	19.999	103.444	19.365	59.909	0.508
549.000	357.328	80.002	19.998	103.445	19.360	60.210	0.494
550.500	358.078	80.005	19.995	103.444	19.354	60.677	0.479
552.000	358.877	80.004	19.995	103.441	19.353	60.732	0.519
553.500	359.588	80.005	19.995	103.439	19.348	61.079	0.482
555.000	360.332	80.004	19.997	103.441	19.348	61.055	0.488
556.500	361.100	80.006	19.995	103.440	19.347	61.162	0.498
558.000	361.852	80.005	19.993	103.425	19.344	61.350	0.511
559.500	362.616	80.003	19.995	103.414	19.347	61.171	0.514
561.000	363.348	80.004	19.994	103.410	19.346	61.211	0.507
562.500	364.131	80.000	19.994	103.405	19.353	60.662	0.515
564.000	364.859	80.001	19.999	103.404	19.360	60.205	0.492
565.500	365.640	80.002	19.994	103.401	19.365	59.847	0.495
567.000	366.394	79.999	19.996	103.383	19.375	59.070	0.498
568.500	367.121	80.001	19.998	103.375	19.388	58.155	0.483
570.000	367.905	80.001	19.997	103.373	19.399	57.344	0.526
571.501	368.659	79.999	19.995	103.365	19.413	56.323	0.498
573.001	369.388	80.000	19.997	103.350	19.429	55.205	0.486
574.500	370.139	79.989	19.998	103.334	19.446	53.994	0.496
576.000	370.872	79.999	19.998	103.328	19.466	52.549	0.483
577.500	371.641	79.999	19.992	103.324	19.479	51.626	0.514
579.000	372.461	80.002	19.996	103.312	19.494	50.549	0.553
580.500	373.201	80.001	19.997	103.300	19.516	48.903	0.508
582.000	373.924	80.004	19.995	103.291	19.534	47.634	0.499
583.500	374.691	80.006	19.994	103.279	19.555	46.112	0.500
585.000	375.472	80.001	19.996	103.262	19.578	44.465	0.501
586.500	376.205	80.002	19.995	103.260	19.601	42.864	0.506
588.000	377.006	80.002	19.996	103.252	19.619	41.533	0.524
589.500	377.765	80.003	19.995	103.243	19.638	40.200	0.520
591.000	378.535	80.005	19.991	103.230	19.657	38.800	0.504
592.500	379.243	80.004	19.996	103.224	19.677	37.399	0.489
594.000	379.967	80.006	19.996	103.212	19.697	35.964	0.479
595.500	380.733	80.000	19.997	103.212	19.712	34.875	0.534
597.000	381.505	80.004	19.994	103.212	19.725	33.926	0.511
598.500	382.257	80.001	19.994	103.213	19.740	32.849	0.478
600.000	383.021	80.002	19.996	103.210	19.754	31.876	0.524
601.500	383.767	80.002	19.996	103.200	19.764	31.122	0.488
603.000	384.555	80.003	19.996	103.202	19.776	30.310	0.526
604.500	385.318	80.002	19.994	103.210	19.780	30.010	0.504
606.000	386.051	80.001	19.996	103.208	19.784	29.734	0.494
607.500	386.819	80.006	19.994	103.201	19.789	29.318	0.521
609.000	387.561	80.003	19.997	103.207	19.792	29.115	0.496
610.500	388.335	80.002	19.995	103.211	19.796	28.865	0.518
612.000	389.079	80.013	19.998	103.211	19.793	29.076	0.492
613.500	389.830	80.008	19.994	103.210	19.794	28.982	0.493
615.000	390.607	80.005	19.995	103.214	19.790	29.310	0.526
616.500	391.397	80.006	19.994	103.214	19.786	29.544	0.550
618.000	392.127	80.008	19.993	103.215	19.780	30.028	0.487
619.500	392.879	80.001	19.995	103.215	19.773	30.518	0.500
621.000	393.651	80.002	19.995	103.216	19.768	30.887	0.494
622.500	394.426	80.004	19.994	103.216	19.758	31.558	0.512
624.000	395.265	80.002	19.989	103.216	19.754	31.826	0.561
625.500	396.002	80.003	19.996	103.217	19.745	32.543	0.497
627.001	396.785	80.009	19.990	103.215	19.735	33.257	0.506
628.500	397.526	80.003	19.995	103.217	19.729	33.641	0.521
630.000	398.331	80.002	19.998	103.216	19.716	34.619	0.506
631.500	399.058	80.005	19.993	103.219	19.708	35.151	0.496
633.000	399.819	79.998	19.995	103.219	19.703	35.541	0.496
634.500	400.584	80.009	19.995	103.217	19.697	35.964	0.528
636.000	401.330	80.005	19.994	103.215	19.686	36.725	0.490
637.500	402.078	80.001	19.994	103.218	19.680	37.141	0.509
639.000	402.863	80.005	19.995	103.214	19.672	37.725	0.511
640.500	403.669	79.997	19.996	103.213	19.666	38.176	0.526
642.000	404.363	80.006	19.994	103.215	19.662	38.461	0.481
643.500	405.117	80.006	19.997	103.213	19.660	38.598	0.500
645.000	405.883	80.003	19.991	103.214	19.659	38.699	0.501
646.500	406.644	80.007	19.993	103.215	19.656	38.880	0.475
648.000	407.472	80.002	19.995	103.213	19.654	39.042	0.560
649.500	408.200	80.006	19.995	103.210	19.654	39.043	0.499
651.000	408.955	80.003	19.991	103.211	19.658	38.767	0.526
652.500	409.716	80.005	19.994	103.211	19.661	38.544	0.497
654.000	410.487	80.001	19.998	103.210	19.668	37.997	0.517
655.500	411.226	79.995	19.998	103.207	19.678	37.325	0.510
657.000	412.033	80.002	19.996	103.204	19.684	36.880	0.535
658.500	412.768	80.004	19.997	103.192	19.697	35.962	0.492
660.000	413.540	80.003	19.996	103.184	19.706	35.291	0.510
661.500	414.258	80.002	19.994	103.184	19.720	34.303	0.475
663.000	414.981	80.003	19.994	103.182	19.735	33.209	0.483
664.500	415.777	80.002	19.994	103.175	19.752	31.978	0.532
666.000	416.512	80.001	19.996	103.173	19.772	30.582	0.481
667.500	417.282	80.002	19.996	103.170	19.790	29.237	0.512
669.000	418.094	80.002	19.995	103.170	19.806	28.091	0.535
670.500	418.831	79.999	19.996	103.170	19.829	26.506	0.501
672.000	419.570	80.002	19.994	103.172	19.849	25.029	0.467
673.500	420.339	80.004	19.997	103.172	19.867	23.714	0.513
675.000	421.108	80.003	19.997	103.171	19.887	22.331	0.517
676.500	421.868	80.002	19.995	103.172	19.906	20.979	0.508
678.000	422.603	80.002	19.994	103.173	19.927	19.461	0.502
679.500	423.396	79.999	19.996	103.176	19.945	18.136	0.526
681.000	424.120	80.003	19.993	103.176	19.963	16.897	0.486
682.500	424.875	80.002	19.993	103.175	19.974	16.079	0.514
684.000	425.621	80.000	19.996	103.176	19.984	15.329	0.504
685.500	426.396	80.000	19.998	103.175	19.995	14.565	0.506
687.000	427.142	80.006	19.996	103.172	20.006	13.804	0.500
688.500	427.937	79.998	20.002	103.173	20.010	13.471	0.508
690.000	428.697	80.005	19.994	103.175	20.025	12.454	0.503
691.500	429.470	80.005	19.989	103.175	20.029	12.110	0.502
693.000	430.204	80.005	19.995	103.173	20.038	11.495	0.481
694.500	430.996	80.004	19.994	103.171	20.042	11.169	0.544
696.000	431.796	80.006	19.993	103.175	20.048	10.754	0.515
697.500	432.512	80.006	19.997	103.176	20.052	10.508	0.481
699.000	433.264	80.003	19.994	103.173	20.057	10.124	0.499
700.500	434.033	80.000	19.994	103.173	20.062	9.776	0.513
702.000	434.801	80.001	19.996	103.176	20.065	9.575	0.495
703.500	435.540	80.001	19.999	103.176	20.068	9.355	0.505
705.000	436.316	80.008	19.993	103.175	20.070	9.166	0.534
706.500	437.077	80.004	19.991	103.179	20.075	8.840	0.518
708.000	437.825	80.002	19.999	103.176	20.078	8.586	0.492
709.500	438.617	80.003	19.996	103.176	20.079	8.572	0.515
711.000	439.328	80.000	19.994	103.174	20.080	8.452	0.475
712.500	440.059	80.000	19.996	103.172	20.082	8.303	0.484
714.000	440.837	80.010	19.992	103.172	20.086	8.057	0.497
715.500	441.587	80.005	19.994	103.173	20.086	8.043	0.513
717.000	442.308	80.004	19.994	103.170	20.087	7.996	0.476
718.500	443.067	80.006	19.993	103.171	20.090	7.760	0.501
720.000	443.805	80.005	19.993	103.172	20.091	7.693	0.484
721.500	444.580	79.998	19.994	103.174	20.095	7.388	0.503
723.000	445.293	80.007	19.994	103.171	20.095	7.412	0.494
724.500	446.088	80.005	19.988	103.169	20.096	7.353	0.525
726.000	446.797	80.002	19.994	103.171	20.094	7.490	0.492
727.500	447.587	80.001	19.997	103.170	20.102	6.924	0.559
729.000	448.309	80.005	19.995	103.172	20.101	6.969	0.484
730.501	449.076	80.005	19.993	103.174	20.101	6.995	0.505
732.000	449.801	80.005	19.994	103.169	20.102	6.897	0.487
733.500	450.560	79.999	19.995	103.169	20.105	6.655	0.513
735.000	451.323	80.004	19.996	103.170	20.107	6.566	0.522
736.500	452.106	80.005	19.993	103.169	20.102	6.907	0.519
738.000	452.839	79.998	19.998	103.170	20.107	6.527	0.508
739.500	453.584	80.006	19.995	103.170	20.108	6.494	0.485
741.000	454.335	79.993	19.997	103.170	20.111	6.289	0.495
742.500	455.123	80.003	19.994	103.170	20.111	6.269	0.521
744.000	455.904	80.003	19.996	103.176	20.110	6.344	0.519
745.500	456.601	80.001	19.996	103.175	20.112	6.159	0.459
747.000	457.402	80.001	19.995	103.175	20.112	6.204	0.543
748.500	458.154	80.001	19.995	103.174	20.114	6.008	0.508
750.000	458.932	80.000	19.993	103.172	20.112	6.163	0.511
751.500	459.666	80.002	20.001	103.173	20.114	6.057	0.481
753.000	460.427	80.002	19.995	103.172	20.113	6.084	0.518
754.500	461.197	79.996	20.002	103.174	20.117	5.839	0.520
756.000	461.985	80.004	19.998	103.171	20.120	5.609	0.517
757.500	462.751	79.997	19.996	103.171	20.118	5.738	0.496
759.000	463.481	80.000	20.000	103.169	20.120	5.593	0.488
760.500	464.245	80.002	19.994	103.169	20.115	5.984	0.504
762.000	464.997	79.995	20.003	103.172	20.118	5.787	0.501
763.500	465.759	80.000	19.998	103.173	20.119	5.670	0.500
765.000	466.522	80.003	19.991	103.172	20.113	6.077	0.508
766.500	467.280	80.004	19.993	103.170	20.120	5.624	0.504
768.000	468.059	80.001	19.998	103.170	20.119	5.667	0.528
769.500	468.816	80.001	19.997	103.172	20.120	5.619	0.518
771.000	469.591	80.003	19.992	103.171	20.119	5.656	0.530
772.500	470.356	80.001	19.996	103.170	20.121	5.539	0.515
774.000	471.119	80.001	19.995	103.171	20.121	5.551	0.512
775.500	471.879	80.004	19.996	103.173	20.122	5.437	0.513
777.000	472.626	80.001	19.995	103.173	20.122	5.469	0.483
778.500	473.409	79.998	19.998	103.174	20.121	5.520	0.489
780.000	474.203	80.005	19.989	103.174	20.122	5.439	0.538
781.500	474.988	80.004	19.992	103.171	20.125	5.239	0.524
783.000	475.758	79.997	19.994	103.166	20.126	5.176	0.506
784.500	476.489	79.997	20.003	103.167	20.123	5.376	0.493
786.000	477.251	80.002	19.995	103.162	20.126	5.179	0.506
787.500	478.042	80.007	19.995	103.168	20.124	5.299	0.535
789.000	478.799	80.006	19.996	103.170	20.123	5.368	0.507
790.500	479.589	80.006	19.993	103.166	20.126	5.152	0.530
792.000	480.348	80.008	19.991	103.170	20.127	5.089	0.510
793.500	481.123	80.005	19.992	103.171	20.126	5.203	0.511
795.000	481.919	80.003	19.995	103.170	20.129	4.952	0.543
796.500	482.671	80.004	19.997	103.166	20.126	5.164	0.513
798.000	483.407	80.008	19.996	103.149	20.127	5.107	0.479
799.500	484.184	80.008	19.993	103.158	20.126	5.174	0.525
801.000	484.958	80.009	19.993	103.167	20.130	4.863	0.508
802.500	485.698	80.007	19.993	103.167	20.129	4.938	0.500
804.000	486.464	80.009	19.992	103.170	20.131	4.851	0.534
805.501	487.242	80.005	19.993	103.172	20.133	4.655	0.530
807.000	488.024	80.006	19.990	103.166	20.132	4.714	0.529
808.500	488.791	80.004	19.993	103.168	20.132	4.724	0.507
810.000	489.563	80.001	19.996	103.167	20.133	4.647	0.522
811.500	490.350	80.003	19.995	103.161	20.134	4.578	0.520
813.000	491.108	80.002	19.994	103.160	20.132	4.737	0.508
814.500	491.908	80.006	19.991	103.165	20.133	4.698	0.523
816.000	492.674	80.004	19.994	103.173	20.133	4.706	0.521
817.500	493.454	80.002	19.994	103.171	20.131	4.838	0.514
819.000	494.252	80.001	19.994	103.169	20.134	4.623	0.539
820.500	495.055	80.001	19.997	103.169	20.136	4.486	0.502
822.000	495.794	80.001	19.995	103.162	20.133	4.686	0.483
823.500	496.573	80.006	19.999	103.171	20.131	4.790	0.532
825.000	497.356	80.005	19.993	103.175	20.133	4.660	0.530
826.500	498.116	80.001	19.995	103.173	20.135	4.530	0.516
828.001	498.928	80.007	19.993	103.172	20.132	4.769	0.547
829.500	499.711	80.000	19.995	103.171	20.134	4.591	0.514
831.000	500.525	80.002	19.995	103.169	20.135	4.552	0.534
832.500	501.284	80.009	19.994	103.168	20.134	4.629	0.480
834.000	502.085	80.005	19.992	103.166	20.133	4.662	0.531
835.500	502.851	80.003	19.995	103.158	20.134	4.631	0.525
837.000	503.605	80.004	19.993	103.159	20.133	4.708	0.497
838.500	504.425	80.000	19.996	103.167	20.136	4.457	0.521
840.000	505.178	80.004	19.992	103.161	20.135	4.554	0.509
841.500	505.975	80.006	19.993	103.160	20.133	4.666	0.526
843.000	506.751	80.003	19.996	103.156	20.136	4.485	0.515
844.500	507.526	80.001	19.995	103.158	20.136	4.483	0.504
846.000	508.323	80.007	19.988	103.161	20.136	4.446	0.519
847.500	509.095	80.000	19.993	103.168	20.136	4.469	0.515
849.000	509.809	80.003	19.991	103.160	20.136	4.447	0.461
850.500	510.557	80.003	19.995	103.150	20.140	4.186	0.514
852.000	511.352	80.004	19.995	103.150	20.137	4.394	0.504
853.500	512.079	80.001	19.999	103.151	20.135	4.549	0.502
855.000	512.850	80.006	19.998	103.159	20.137	4.365	0.501
856.500	513.608	80.005	19.996	103.160	20.134	4.579	0.506
858.000	514.369	80.002	19.999	103.155	20.142	4.066	0.511
859.500	515.176	80.008	19.995	103.147	20.139	4.253	0.535
861.000	515.949	80.002	19.998	103.149	20.135	4.524	0.531
862.500	516.728	80.003	19.995	103.152	20.135	4.541	0.504
864.000	517.486	80.001	19.998	103.145	20.134	4.593	0.494
865.500	518.263	79.999	19.995	103.153	20.136	4.493	0.532
867.000	519.041	80.003	19.996	103.150	20.137	4.404	0.500
868.500	519.809	80.001	19.995	103.145	20.140	4.148	0.509
870.000	520.574	80.006	19.991	103.146	20.139	4.263	0.503
871.500	521.391	79.999	20.000	103.140	20.139	4.267	0.536
873.000	522.154	80.005	19.998	103.139	20.140	4.210	0.508
874.500	522.858	80.007	19.994	103.145	20.140	4.149	0.467
876.000	523.658	80.006	19.994	103.149	20.142	4.002	0.541
877.500	524.423	80.003	19.996	103.148	20.143	3.972	0.507
879.001	525.151	80.005	19.993	103.139	20.142	4.055	0.487
880.501	525.920	80.005	19.996	103.146	20.145	3.842	0.487
882.000	526.682	80.006	19.994	103.156	20.147	3.691	0.514
883.500	527.412	80.006	19.992	103.165	20.150	3.480	0.515
885.000	528.242	80.008	19.988	103.171	20.149	3.551	0.529
886.500	528.942	79.998	19.999	103.175	20.150	3.463	0.466
888.000	529.727	80.004	19.994	103.172	20.149	3.516	0.528
889.500	530.517	80.003	19.993	103.173	20.150	3.461	0.516
891.000	531.260	80.004	19.996	103.163	20.149	3.563	0.515
892.500	532.012	80.002	19.995	103.157	20.146	3.746	0.502
894.000	532.775	80.006	19.992	103.159	20.146	3.710	0.513
895.500	533.535	80.008	19.992	103.161	20.146	3.777	0.512
897.000	534.302	80.001	19.995	103.154	20.146	3.756	0.512
898.500	535.036	80.002	19.997	103.162	20.145	3.846	0.498
900.000	535.775	80.009	19.988	103.166	20.146	3.747	0.479
901.500	536.550	80.003	19.993	103.151	20.143	3.983	0.511
903.000	537.330	80.004	19.993	103.149	20.142	3.995	0.521
904.500	538.071	80.004	19.994	103.147	20.138	4.316	0.477
906.000	538.867	80.003	19.993	103.153	20.142	4.006	0.518
907.500	539.596	80.001	19.997	103.157	20.143	3.966	0.489
909.000	540.376	80.002	19.994	103.155	20.143	3.956	0.534
910.500	541.167	80.001	19.998	103.150	20.143	3.954	0.532
912.000	541.895	80.003	19.997	103.148	20.141	4.131	0.478
913.500	542.690	80.009	19.991	103.152	20.140	4.171	0.516
915.000	543.429	80.005	19.993	103.158	20.139	4.243	0.485
916.500	544.195	80.003	19.995	103.163	20.141	4.127	0.488
918.000	544.911	80.004	19.994	103.161	20.141	4.101	0.478
919.500	545.661	80.003	19.998	103.151	20.141	4.080	0.494
921.000	546.428	80.003	19.988	103.144	20.142	3.995	0.502
922.500	547.200	80.000	19.996	103.148	20.140	4.145	0.481
924.000	547.949	80.003	19.993	103.154	20.141	4.093	0.456
925.500	548.699	80.002	19.996	103.158	20.144	3.918	0.494
927.000	549.431	79.997	19.993	103.154	20.144	3.889	0.482
928.500	550.242	80.002	19.995	103.153	20.148	3.594	0.528
930.000	550.972	80.002	19.994	103.149	20.144	3.867	0.504
931.500	551.754	79.998	20.001	103.147	20.143	3.942	0.520
933.000	552.491	79.999	19.999	103.155	20.144	3.895	0.500
934.501	553.276	80.004	19.989	103.152	20.147	3.703	0.512
936.000	553.995	79.999	19.998	103.148	20.144	3.864	0.491
937.500	554.855	80.005	19.996	103.148	20.143	3.957	0.565
939.000	555.611	79.998	19.999	103.155	20.143	3.938	0.505
940.500	556.339	80.002	19.995	103.152	20.147	3.651	0.483
942.000	557.151	80.002	19.997	103.153	20.145	3.799	0.533
943.500	557.927	80.006	19.991	103.158	20.141	4.134	0.501
945.000	558.693	80.002	19.993	103.158	20.143	3.964	0.535
946.500	559.488	80.001	19.996	103.163	20.142	4.066	0.516
948.000	560.269	80.000	19.999	103.171	20.143	3.978	0.550
949.500	561.045	80.002	19.999	103.161	20.143	3.948	0.518
951.000	561.834	80.002	19.995	103.148	20.143	3.941	0.515
952.500	562.639	79.997	19.997	103.156	20.144	3.870	0.549
954.000	563.415	80.002	19.993	103.168	20.139	4.218	0.513
955.500	564.200	80.005	19.994	103.171	20.141	4.137	0.508
957.000	564.967	80.006	19.991	103.156	20.144	3.911	0.514
958.500	565.754	80.003	19.995	103.151	20.141	4.114	0.524
960.000	566.530	80.003	19.995	103.159	20.140	4.178	0.522
961.500	567.316	80.004	19.990	103.165	20.139	4.247	0.513
963.000	568.115	80.004	19.991	103.163	20.140	4.180	0.541
964.500	568.898	80.005	19.993	103.160	20.141	4.127	0.527
966.000	569.662	80.006	19.991	103.157	20.143	3.976	0.511
967.500	570.412	80.006	19.995	103.152	20.146	3.772	0.501
969.000	571.153	80.003	19.994	103.165	20.142	4.049	0.499
970.500	571.992	80.004	19.990	103.158	20.140	4.188	0.543
972.000	572.744	80.004	19.994	103.149	20.144	3.887	0.503
973.500	573.558	80.001	19.994	103.151	20.144	3.917	0.525
975.000	574.316	80.005	19.995	103.158	20.142	4.029	0.487
976.500	575.151	80.003	19.992	103.156	20.143	3.985	0.552
978.000	575.913	80.005	19.992	103.162	20.142	4.019	0.491
979.500	576.684	80.003	19.995	103.164	20.144	3.920	0.512
981.000	577.493	80.001	19.999	103.153	20.145	3.822	0.545
982.500	578.243	79.999	19.993	103.147	20.144	3.881	0.523
984.000	579.007	80.006	19.993	103.153	20.144	3.916	0.507
985.500	579.783	80.003	19.995	103.160	20.143	3.926	0.527
987.001	580.590	80.005	19.996	103.142	20.144	3.905	0.539
988.500	581.337	80.002	19.995	103.141	20.142	4.040	0.508
990.000	582.127	80.002	19.996	103.143	20.143	3.993	0.529
991.500	582.867	79.999	19.996	103.152	20.141	4.109	0.507
993.000	583.652	79.999	19.992	103.159	20.139	4.245	0.540
994.500	584.429	80.007	19.992	103.150	20.143	3.989	0.519
996.001	585.225	80.005	19.993	103.143	20.142	4.066	0.525
997.500	585.921	80.002	19.996	103.148	20.146	3.750	0.458
999.000	586.688	80.000	19.995	103.138	20.142	4.035	0.508
1000.500	587.490	80.003	19.994	103.139	20.142	4.060	0.536
1002.000	588.216	80.002	19.992	103.149	20.141	4.105	0.509
1003.500	589.009	80.000	19.993	103.148	20.140	4.182	0.539
1005.000	589.793	79.999	19.994	103.143	20.143	3.956	0.540
1006.500	590.534	80.000	19.994	103.142	20.140	4.190	0.492
1008.000	591.355	80.004	19.996	103.149	20.142	4.007	0.541
1009.500	592.147	80.001	19.993	103.155	20.141	4.113	0.541
1011.000	592.911	80.003	19.995	103.153	20.142	4.017	0.507
1012.500	593.732	79.997	19.997	103.157	20.142	4.002	0.533
1014.000	594.490	80.001	19.998	103.154	20.145	3.827	0.515
1015.500	595.327	80.003	19.994	103.157	20.142	4.003	0.541
1017.000	596.086	80.007	19.994	103.156	20.144	3.911	0.536
1018.500	596.907	80.005	19.992	103.149	20.140	4.164	0.531
1020.000	597.684	80.003	19.996	103.161	20.140	4.170	0.524
1021.500	598.482	80.002	19.990	103.156	20.142	4.060	0.539
1023.000	599.336	80.004	19.993	103.160	20.140	4.187	0.525
1024.500	600.097	79.998	19.994	103.164	20.139	4.257	0.556
1026.001	600.936	80.003	19.994	103.158	20.142	4.037	0.577
1027.500	601.739	80.002	19.996	103.149	20.142	4.017	0.558
1029.001	602.550	80.005	19.995	103.145	20.141	4.127	0.554
1030.500	603.330	80.006	19.993	103.155	20.139	4.233	0.552
1032.000	604.152	80.004	19.996	103.155	20.140	4.206	0.505
1033.500	604.920	80.000	19.996	103.162	20.142	4.047	0.526
1035.000	605.717	79.999	19.999	103.168	20.143	3.952	0.576
1036.500	606.593	80.003	19.995	103.162	20.139	4.253	0.532
1038.000	607.340	80.002	19.991	103.156	20.133	4.652	0.504
1039.500	608.210	80.001	19.995	103.157	20.144	3.856	0.522
1041.000	608.937	80.004	20.000	103.144	20.132	4.726	0.498
1042.501	609.672	80.004	19.993	103.151	20.135	4.512	0.543
1044.000	610.502	80.003	19.992	103.162	20.143	3.978	0.612
1045.500	611.385	80.003	19.994	103.159	20.140	4.194	0.578
1047.000	612.147	80.002	19.996	103.146	20.140	4.156	0.541
1048.500	613.068	80.004	19.994	103.151	20.142	4.036	0.635
1050.001	613.975	80.003	19.996	103.154	20.142	4.031	0.557
1051.501	614.558	80.005	19.994	103.145	20.143	3.966	0.368
1053.001	616.054	80.004	20.001	103.150	20.136	4.450	1.431
1054.501	615.692	80.005	19.991	103.160	20.141	4.131	-0.497
1056.001	617.025	80.000	19.995	103.165	20.139	4.251	0.925
1057.500	617.909	80.001	19.996	103.157	20.144	3.911	0.627
1059.000	618.697	80.001	19.993	103.147	20.143	3.986	0.539
1060.500	619.447	80.000	19.995	103.149	20.143	3.954	0.458
1062.000	620.122	80.005	19.995	103.163	20.140	4.141	0.457
1063.500	620.970	80.005	19.993	103.169	20.143	3.938	0.506
1065.000	621.736	79.999	19.994	103.160	20.143	3.942	0.445
1066.500	622.594	80.002	19.995	103.153	20.144	3.893	0.509
1068.001	623.341	80.002	19.996	103.156	20.143	3.971	0.514
1069.501	624.151	80.003	19.996	103.164	20.142	4.060	0.551
1071.001	624.840	80.001	19.999	103.162	20.145	3.817	0.468
1072.500	625.673	80.005	19.994	103.153	20.143	3.989	0.521
1074.000	626.499	80.004	19.994	103.156	20.143	3.963	0.521
1075.500	627.309	80.003	19.990	103.155	20.139	4.249	0.536
1077.000	628.057	80.000	19.997	103.148	20.144	3.905	0.529
1078.500	628.846	80.006	19.992	103.144	20.139	4.222	0.502
1080.000	629.603	80.002	19.998	103.153	20.141	4.129	0.510
1081.501	630.377	79.996	19.993	103.158	20.143	3.975	0.519
1083.001	631.155	80.001	19.996	103.156	20.136	4.432	0.510
1084.500	631.981	80.000	19.996	103.141	20.135	4.542	0.535
1086.001	632.692	80.004	19.993	103.145	20.137	4.400	0.464
1087.501	633.487	80.003	19.991	103.152	20.141	4.131	0.538
1089.000	634.245	80.000	19.994	103.158	20.135	4.503	0.500
1090.501	635.040	79.998	19.996	103.153	20.137	4.398	0.548
1092.000	635.829	80.005	19.995	103.145	20.138	4.286	0.541
1093.500	636.660	80.002	19.997	103.149	20.136	4.479	0.558
1095.001	637.379	80.001	19.999	103.144	20.139	4.251	0.488
1096.500	638.090	79.999	19.998	103.142	20.136	4.487	0.485
1098.000	638.854	80.003	19.999	103.143	20.131	4.805	0.494
1099.500	639.641	80.003	19.995	103.149	20.133	4.676	0.520
1101.002	640.399	80.005	19.996	103.156	20.134	4.636	0.518
1102.500	641.171	80.008	19.991	103.151	20.134	4.585	0.499
1104.000	641.937	80.003	19.996	103.157	20.132	4.776	0.507
1105.500	642.705	80.005	19.997	103.161	20.134	4.591	0.532
1107.001	643.502	80.004	19.997	103.151	20.136	4.473	0.521
1108.500	644.245	80.002	19.997	103.144	20.134	4.609	0.500
1110.001	644.952	80.007	19.988	103.158	20.137	4.424	0.473
1111.501	645.689	80.002	19.994	103.159	20.136	4.434	0.491
1113.000	646.457	80.004	19.993	103.144	20.136	4.479	0.511
1114.500	647.286	80.002	19.995	103.153	20.132	4.734	0.544
1116.001	648.007	80.002	19.997	103.157	20.134	4.619	0.495
1117.500	648.740	80.005	19.999	103.148	20.136	4.472	0.482
1119.000	649.497	80.002	19.992	103.149	20.135	4.518	0.526
1120.500	650.299	80.006	19.996	103.151	20.135	4.506	0.513
1122.000	651.046	80.002	19.995	103.160	20.135	4.532	0.479
1123.500	651.819	80.003	19.998	103.149	20.133	4.658	0.535
1125.000	652.589	80.002	19.995	103.149	20.127	5.136	0.504
1126.500	653.351	80.006	19.996	103.158	20.133	4.686	0.508
1128.000	654.093	80.006	19.992	103.160	20.135	4.509	0.509
1129.500	654.844	80.001	19.998	103.157	20.132	4.741	0.489
1131.000	655.613	80.001	19.998	103.150	20.132	4.769	0.531
1132.500	656.381	80.001	19.997	103.155	20.132	4.772	0.554
1134.000	657.137	80.001	19.996	103.149	20.132	4.759	0.514
1135.500	657.910	79.996	19.997	103.147	20.133	4.655	0.501
1137.001	658.709	80.000	19.997	103.161	20.134	4.584	0.531
1138.501	659.012	80.005	19.992	103.169	20.132	4.757	0.296
1140.000	660.122	80.003	19.994	103.173	20.134	4.590	0.689
1141.501	660.929	79.997	19.997	103.170	20.133	4.710	0.526
1143.001	661.658	79.998	19.999	103.160	20.128	5.062	0.467
1144.501	662.451	80.006	19.991	103.160	20.128	5.003	0.527
1146.001	663.183	80.005	19.993	103.169	20.133	4.643	0.495
1147.500	663.943	80.001	19.993	103.166	20.131	4.784	0.496
1149.001	664.724	80.003	19.995	103.163	20.132	4.718	0.532
1150.500	665.540	80.004	19.993	103.170	20.133	4.701	0.532
1152.001	666.308	80.003	19.992	103.165	20.130	4.866	0.514
1153.500	667.059	80.003	19.996	103.168	20.131	4.842	0.523
1155.000	667.852	80.001	19.995	103.165	20.127	5.093	0.539
1156.500	668.643	80.005	19.994	103.164	20.130	4.882	0.522
1158.001	669.430	80.003	19.994	103.168	20.129	4.933	0.520
1159.501	670.191	80.001	19.996	103.168	20.128	5.051	0.529
1161.001	670.986	80.002	19.994	103.161	20.135	4.520	0.540
1162.500	671.761	79.997	20.000	103.155	20.132	4.778	0.521
1164.000	672.534	79.999	19.994	103.141	20.131	4.812	0.521
1165.500	673.323	80.004	19.993	103.155	20.131	4.849	0.529
1167.001	674.118	79.993	20.002	103.157	20.131	4.800	0.541
1168.501	674.862	80.002	19.994	103.146	20.132	4.742	0.507
1170.000	675.675	80.006	19.994	103.153	20.132	4.732	0.546
1171.500	676.466	80.001	19.996	103.155	20.130	4.863	0.528
1173.000	677.268	80.011	19.993	103.155	20.133	4.711	0.522
1174.500	678.060	80.005	19.990	103.154	20.128	5.000	0.537
1176.000	678.839	80.002	19.993	103.156	20.126	5.211	0.534
1177.500	679.637	80.001	19.996	103.158	20.132	4.721	0.523
1179.000	680.433	80.004	19.994	103.146	20.132	4.770	0.519
1180.500	681.201	80.007	19.992	103.141	20.132	4.729	0.520
1182.000	682.067	80.008	19.993	103.161	20.133	4.695	0.579
1183.500	682.759	80.004	19.995	103.161	20.127	5.087	0.485
1185.001	683.548	80.006	19.993	103.156	20.131	4.848	0.518
1186.500	684.352	80.006	19.994	103.154	20.132	4.715	0.539
1188.000	685.139	80.003	19.994	103.163	20.130	4.886	0.530
1189.500	685.925	80.003	19.993	103.160	20.133	4.646	0.547
1191.000	686.194	80.002	19.996	103.160	20.134	4.581	0.078
1192.500	687.408	79.999	19.989	103.157	20.131	4.785	0.747
1194.001	688.252	80.001	19.991	103.152	20.136	4.482	0.538
1195.500	689.037	80.003	19.995	103.147	20.131	4.854	0.525
1197.000	689.792	80.002	19.994	103.152	20.134	4.622	0.500
1198.500	690.579	80.006	19.995	103.148	20.126	5.166	0.540
1200.001	691.354	80.008	19.995	103.141	20.134	4.602	0.537
1201.500	692.143	80.005	19.995	103.144	20.132	4.759	0.535
1203.000	692.943	80.004	19.994	103.141	20.137	4.396	0.537
1204.501	693.731	80.004	19.994	103.136	20.137	4.413	0.516
1206.001	694.485	79.999	19.997	103.140	20.130	4.866	0.498
1207.501	695.288	80.002	19.996	103.141	20.134	4.634	0.537
1209.000	696.059	80.001	19.997	103.138	20.131	4.834	0.537
1210.500	696.832	80.001	19.993	103.137	20.135	4.518	0.516
1212.001	697.592	80.002	19.996	103.137	20.135	4.567	0.504
1213.500	698.385	80.004	19.992	103.135	20.135	4.553	0.520
1215.000	699.154	80.002	19.989	103.135	20.135	4.561	0.505
1216.500	699.930	80.002	19.996	103.138	20.138	4.344	0.528
1218.000	700.704	80.007	19.992	103.137	20.141	4.126	0.503
1219.500	701.472	80.001	19.994	103.135	20.138	4.301	0.516
1221.000	702.228	80.002	19.995	103.135	20.139	4.246	0.502
1222.500	703.015	79.999	19.999	103.136	20.140	4.173	0.518
1224.000	703.762	80.001	19.997	103.131	20.137	4.362	0.507
1225.500	704.529	80.000	19.995	103.131	20.138	4.325	0.508
1227.001	705.303	80.003	19.998	103.134	20.138	4.321	0.513
1228.500	706.093	80.001	19.995	103.132	20.135	4.559	0.540
1230.000	706.850	80.001	19.997	103.132	20.137	4.354	0.517
1231.500	707.626	79.996	20.003	103.130	20.135	4.541	0.516
1233.001	708.422	80.002	19.993	103.128	20.135	4.555	0.527
1234.500	709.148	80.003	19.992	103.131	20.135	4.535	0.489
1236.001	709.951	80.003	19.996	103.131	20.138	4.309	0.537
1237.501	710.683	80.005	19.997	103.132	20.136	4.427	0.487
1239.000	711.502	80.004	19.994	103.132	20.135	4.506	0.546
1240.501	712.245	80.003	19.994	103.133	20.136	4.425	0.499
1242.000	712.963	79.998	19.995	103.134	20.133	4.655	0.464
1243.500	713.764	80.004	19.989	103.134	20.138	4.321	0.536
1245.000	714.511	80.004	19.992	103.134	20.134	4.571	0.515
1246.500	715.301	80.000	19.994	103.132	20.136	4.496	0.509
1248.001	716.042	80.002	19.995	103.132	20.135	4.537	0.497
1249.500	716.866	80.000	19.995	103.133	20.134	4.606	0.546
1251.001	717.580	80.003	19.996	103.133	20.136	4.439	0.451
1252.501	718.367	79.999	19.999	103.134	20.132	4.712	0.499
1254.000	719.100	80.007	19.996	103.136	20.134	4.637	0.484
1255.500	719.870	80.001	19.993	103.135	20.134	4.600	0.514
1257.001	720.584	80.003	19.997	103.134	20.136	4.494	0.495
1258.500	721.360	79.998	19.999	103.133	20.135	4.523	0.503
1260.000	722.081	79.998	20.001	103.135	20.133	4.671	0.493
1261.501	722.838	80.003	19.999	103.137	20.133	4.667	0.488
1263.000	723.613	80.002	19.991	103.137	20.129	4.926	0.527
1264.500	724.307	80.007	19.995	103.135	20.132	4.728	0.486
1266.000	725.029	80.001	19.993	103.134	20.135	4.545	0.484
1267.501	725.758	80.003	20.000	103.136	20.133	4.705	0.492
1269.000	726.525	80.004	19.995	103.133	20.135	4.563	0.514
1270.500	727.263	80.006	19.994	103.134	20.134	4.575	0.494
1272.000	728.013	80.002	19.995	103.134	20.135	4.551	0.501
1273.501	728.742	80.001	19.996	103.135	20.136	4.461	0.496
1275.001	729.502	80.003	19.991	103.136	20.135	4.508	0.531
1276.500	730.209	80.002	19.991	103.138	20.133	4.657	0.458
1278.001	730.967	80.003	19.990	103.139	20.135	4.513	0.512
1279.500	731.682	80.007	19.993	103.137	20.133	4.645	0.480
1281.001	732.470	80.007	19.992	103.137	20.134	4.639	0.533
1282.500	733.173	80.003	19.996	103.138	20.137	4.372	0.462
1284.000	733.944	80.006	19.995	103.137	20.136	4.482	0.512
1285.500	734.688	80.005	19.996	103.134	20.136	4.458	0.497
1287.001	735.436	80.004	19.997	103.131	20.139	4.221	0.495
1288.501	736.166	80.002	19.999	103.130	20.134	4.598	0.486
1290.000	736.900	80.004	19.994	103.130	20.134	4.604	0.475
1291.501	737.577	80.007	19.989	103.130	20.133	4.685	0.463
1293.000	738.349	80.001	19.997	103.130	20.133	4.653	0.513
1294.500	739.084	80.001	19.988	103.127	20.133	4.665	0.508
1296.000	739.848	80.004	19.995	103.129	20.130	4.867	0.517
1297.500	740.570	80.003	19.993	103.131	20.133	4.704	0.467
1299.001	741.324	80.002	19.995	103.134	20.133	4.681	0.495
1300.500	742.072	80.008	19.995	103.134	20.133	4.671	0.500
1302.000	742.823	80.002	19.994	103.135	20.129	4.928	0.470
1303.500	743.570	80.005	19.996	103.133	20.135	4.563	0.498