File: 01_Data/Lightweight_Gypsum_Wallboard_Painted_Paper/MCC/Lightweight_Gypsum_Wallboard_Painted_Paper_MCC_30K_min_211202_O3.txt
Sample ID:	C:\MCC\MCC Cal\Test\LW_GypBoard_Painted_Paper_MCC_30K_min_211202_R3.txt
Sample Weight (mg):	4.37
Heating Rate (C/s):	0.5
Combustor Temp (C):	900
N2 Flow Rate (cc/min):	80
O2 Flow Rate (cc/min):	20
Calibration File:	C:\MCC\MCC Cal\Coeff1 JN10440_30_210304.txt.txt
T Correction Coefficients:	0	1.024463	0
Time Shift (s):	14
*
Time (s)	Temperature (C)	N2 flow rate (cc/min)	O2 flow rate (cc/min)	Flow Rate (cc/min)	Oxygen (%)	HRR (W/g)	Heating rate (C/s)
0.000	108.339	80.001	19.995	103.012	20.102	0.195	-0.037
2.000	108.383	80.000	19.997	103.020	20.105	0.006	0.009
4.000	108.392	80.000	19.996	103.020	20.103	0.120	0.027
6.000	108.364	80.000	19.995	103.017	20.099	0.410	-0.013
8.000	108.318	80.002	19.995	103.001	20.098	0.483	-0.032
10.000	108.324	80.001	19.995	103.013	20.102	0.238	0.016
12.000	108.379	80.001	19.994	103.024	20.100	0.378	0.008
14.000	108.340	80.000	19.996	103.025	20.101	0.299	-0.007
16.000	108.361	80.002	19.995	103.028	20.100	0.354	0.000
18.000	108.369	80.002	19.996	103.049	20.097	0.547	0.013
20.000	108.401	80.004	19.996	103.062	20.098	0.502	-0.001
22.000	108.445	80.003	19.995	103.099	20.090	1.081	0.037
24.000	108.515	80.003	19.995	103.105	20.091	1.038	0.025
26.000	108.601	80.004	19.995	103.103	20.085	1.419	0.038
28.000	108.679	80.002	19.996	103.115	20.086	1.394	0.053
30.000	108.870	80.003	19.995	103.131	20.085	1.456	0.101
32.000	108.995	80.003	19.996	103.134	20.083	1.578	0.080
34.001	109.137	80.002	19.994	103.116	20.082	1.692	0.054
36.000	109.349	80.003	19.994	103.120	20.086	1.366	0.066
38.000	109.500	80.002	19.995	103.128	20.081	1.777	0.083
40.000	109.710	80.002	19.995	103.155	20.081	1.764	0.112
42.000	109.945	80.004	19.995	103.181	20.077	2.037	0.112
44.000	110.221	80.003	19.995	103.189	20.071	2.462	0.131
46.000	110.505	80.004	19.995	103.166	20.071	2.468	0.158
48.001	110.792	80.004	19.995	103.207	20.067	2.802	0.135
50.000	111.160	80.005	19.994	103.274	20.067	2.767	0.175
52.000	111.512	80.004	19.993	103.240	20.067	2.764	0.215
54.000	111.869	80.004	19.995	103.254	20.063	3.060	0.208
56.001	112.333	80.004	19.995	103.248	20.063	3.056	0.213
58.000	112.751	80.002	19.996	103.233	20.063	3.049	0.217
60.001	113.248	80.001	19.994	103.240	20.061	3.216	0.229
62.000	113.761	80.000	19.995	103.261	20.063	3.053	0.263
64.000	114.277	80.001	19.996	103.267	20.058	3.450	0.255
66.000	114.832	80.001	19.994	103.216	20.059	3.354	0.274
68.000	115.426	80.002	19.995	103.252	20.059	3.348	0.285
70.000	115.973	80.001	19.996	103.258	20.060	3.281	0.296
72.001	116.564	80.002	19.995	103.262	20.056	3.582	0.315
74.001	117.214	80.001	19.997	103.262	20.057	3.527	0.327
76.000	117.876	80.001	19.995	103.265	20.058	3.443	0.326
78.000	118.530	80.002	19.995	103.263	20.057	3.523	0.339
80.001	119.173	80.001	19.995	103.260	20.056	3.625	0.352
82.001	119.890	80.001	19.995	103.259	20.053	3.788	0.354
84.000	120.593	80.001	19.996	103.265	20.053	3.796	0.370
86.001	121.312	80.001	19.996	103.259	20.055	3.680	0.350
88.001	122.050	80.000	19.997	103.265	20.055	3.670	0.373
90.000	122.868	80.001	19.997	103.274	20.054	3.725	0.404
92.000	123.603	80.001	19.996	103.276	20.055	3.668	0.384
94.001	124.430	80.001	19.996	103.277	20.055	3.672	0.421
96.000	125.217	79.999	19.998	103.273	20.056	3.576	0.407
98.000	126.028	79.999	19.997	103.272	20.055	3.698	0.394
100.001	126.877	80.001	19.997	103.266	20.055	3.643	0.405
102.000	127.715	80.002	19.995	103.274	20.052	3.890	0.434
104.000	128.637	80.003	19.995	103.278	20.052	3.896	0.445
106.000	129.520	80.004	19.995	103.271	20.054	3.774	0.434
108.000	130.371	80.003	19.993	103.283	20.053	3.812	0.442
110.001	131.280	80.004	19.994	103.273	20.052	3.894	0.441
112.000	132.150	80.003	19.996	103.270	20.053	3.786	0.448
114.000	133.045	80.002	19.996	103.270	20.053	3.821	0.434
116.000	133.970	80.002	19.995	103.270	20.053	3.788	0.473
118.000	134.927	80.002	19.995	103.265	20.053	3.804	0.465
120.000	135.831	80.003	19.996	103.265	20.052	3.910	0.458
122.001	136.742	80.002	19.996	103.268	20.051	3.972	0.459
124.000	137.715	80.001	19.996	103.266	20.053	3.809	0.470
126.001	138.659	80.004	19.993	103.276	20.052	3.920	0.430
128.000	139.634	80.003	19.995	103.267	20.053	3.780	0.469
130.000	140.607	80.003	19.994	103.269	20.054	3.718	0.466
132.000	141.558	80.003	19.994	103.270	20.054	3.737	0.468
134.000	142.521	80.005	19.995	103.226	20.050	4.030	0.503
136.000	143.528	80.002	19.995	103.314	20.055	3.702	0.509
138.000	144.534	80.003	19.995	103.280	20.052	3.855	0.472
140.000	145.512	80.002	19.995	103.267	20.056	3.576	0.477
142.000	146.539	80.001	19.995	103.266	20.053	3.789	0.491
144.000	147.518	80.003	19.995	103.262	20.055	3.696	0.483
146.000	148.532	80.002	19.995	103.263	20.054	3.722	0.489
148.000	149.552	80.000	19.995	103.262	20.055	3.694	0.509
150.000	150.535	80.001	19.995	103.260	20.053	3.850	0.517
152.000	151.553	80.001	19.996	103.260	20.055	3.641	0.509
154.000	152.559	80.003	19.996	103.260	20.054	3.755	0.510
156.000	153.544	80.003	19.995	103.259	20.054	3.724	0.519
158.000	154.554	80.002	19.996	103.255	20.055	3.677	0.515
160.000	155.569	80.001	19.996	103.258	20.052	3.864	0.508
162.000	156.542	80.000	19.996	103.258	20.053	3.819	0.468
164.000	157.628	80.004	19.994	103.258	20.051	3.986	0.532
166.000	158.593	80.002	19.995	103.254	20.052	3.864	0.493
168.000	159.630	80.002	19.995	103.243	20.050	4.051	0.517
170.000	160.670	80.002	19.996	103.242	20.054	3.711	0.533
172.000	161.674	80.001	19.996	103.247	20.051	3.980	0.531
174.000	162.649	80.003	19.995	103.236	20.052	3.876	0.505
176.001	163.655	80.001	19.996	103.237	20.053	3.778	0.495
178.000	164.703	80.001	19.996	103.249	20.055	3.632	0.527
180.000	165.701	80.001	19.996	103.234	20.054	3.760	0.488
182.000	166.721	80.002	19.996	103.226	20.055	3.672	0.460
184.000	167.740	80.002	19.996	103.233	20.055	3.638	0.483
186.000	168.746	80.002	19.996	103.233	20.055	3.632	0.513
188.000	169.753	80.004	19.996	103.238	20.053	3.827	0.519
190.000	170.764	80.001	19.994	103.229	20.052	3.896	0.532
192.000	171.749	80.002	19.995	103.224	20.053	3.845	0.516
194.000	172.731	80.003	19.994	103.225	20.054	3.762	0.477
196.000	173.751	80.003	19.995	103.223	20.051	3.993	0.493
198.000	174.747	80.001	19.994	103.224	20.051	3.967	0.508
200.000	175.755	80.001	19.994	103.224	20.049	4.103	0.487
202.000	176.707	80.003	19.995	103.229	20.050	4.054	0.481
204.000	177.741	80.002	19.994	103.229	20.049	4.136	0.516
206.000	178.723	80.003	19.995	103.221	20.050	4.046	0.484
208.000	179.705	80.005	19.995	103.218	20.047	4.242	0.451
210.001	180.720	80.004	19.995	103.219	20.051	3.971	0.506
212.000	181.711	80.004	19.994	103.217	20.050	4.056	0.511
214.000	182.669	80.004	19.995	103.217	20.050	4.022	0.482
216.000	183.678	80.002	19.996	103.218	20.048	4.156	0.498
218.000	184.632	80.002	19.995	103.219	20.049	4.093	0.477
220.000	185.629	80.000	19.996	103.218	20.049	4.105	0.497
222.000	186.633	80.001	19.995	103.218	20.048	4.183	0.488
224.000	187.625	80.002	19.996	103.220	20.049	4.105	0.473
226.000	188.619	80.002	19.996	103.219	20.047	4.278	0.473
228.001	189.622	80.001	19.995	103.217	20.044	4.445	0.481
230.000	190.626	80.000	19.995	103.216	20.045	4.402	0.502
232.000	191.605	80.001	19.995	103.219	20.047	4.274	0.530
234.000	192.592	80.002	19.995	103.219	20.044	4.445	0.511
236.000	193.583	80.001	19.995	103.220	20.045	4.417	0.494
238.000	194.519	80.002	19.995	103.211	20.045	4.406	0.494
240.000	195.525	80.001	19.995	103.213	20.038	4.899	0.491
242.000	196.493	80.001	19.996	103.217	20.042	4.626	0.489
244.000	197.464	80.002	19.994	103.217	20.038	4.891	0.475
246.000	198.459	80.001	19.996	103.220	20.040	4.775	0.492
248.000	199.424	80.001	19.995	103.217	20.040	4.801	0.498
250.000	200.408	80.000	19.996	103.217	20.042	4.610	0.495
252.000	201.412	80.001	19.995	103.219	20.039	4.808	0.511
254.000	202.378	80.002	19.996	103.220	20.040	4.766	0.502
256.000	203.367	80.000	19.994	103.220	20.041	4.734	0.462
258.000	204.341	80.000	19.995	103.218	20.040	4.784	0.493
260.000	205.334	80.001	19.995	103.217	20.038	4.941	0.511
262.000	206.321	80.002	19.995	103.206	20.037	5.010	0.489
264.000	207.356	80.001	19.995	103.208	20.037	4.986	0.511
266.000	208.330	80.002	19.995	103.222	20.036	5.100	0.474
268.000	209.337	80.001	19.995	103.204	20.035	5.167	0.510
270.000	210.359	80.002	19.996	103.199	20.035	5.112	0.534
272.000	211.319	80.001	19.997	103.214	20.032	5.383	0.519
274.000	212.313	80.002	19.997	103.211	20.032	5.336	0.523
276.000	213.261	80.001	19.997	103.205	20.035	5.158	0.481
278.000	214.272	80.001	19.996	103.213	20.029	5.573	0.492
280.000	215.271	80.001	19.997	103.211	20.028	5.630	0.508
282.000	216.225	80.002	19.995	103.210	20.031	5.447	0.490
284.000	217.193	80.004	19.994	103.211	20.032	5.356	0.470
286.000	218.185	80.004	19.995	103.205	20.029	5.549	0.461
288.000	219.219	80.004	19.995	103.200	20.031	5.412	0.473
290.000	220.171	80.004	19.994	103.190	20.029	5.584	0.472
292.000	221.171	80.004	19.994	103.197	20.030	5.543	0.508
294.000	222.177	80.003	19.995	103.210	20.033	5.313	0.512
296.000	223.192	80.002	19.995	103.207	20.029	5.589	0.491
298.000	224.163	80.002	19.995	103.205	20.026	5.792	0.485
300.000	225.208	80.002	19.995	103.203	20.028	5.671	0.491
302.000	226.181	80.002	19.995	103.207	20.027	5.741	0.505
304.000	227.136	80.000	19.995	103.194	20.027	5.697	0.461
306.000	228.197	80.001	19.996	103.204	20.028	5.630	0.511
308.000	229.230	80.000	19.995	103.196	20.028	5.634	0.534
310.000	230.220	80.001	19.994	103.203	20.026	5.801	0.482
312.000	231.251	80.002	19.994	103.209	20.028	5.690	0.500
314.001	232.186	80.001	19.995	103.209	20.029	5.562	0.512
316.000	233.233	80.001	19.995	103.194	20.028	5.628	0.531
318.000	234.223	80.003	19.995	103.210	20.031	5.459	0.496
320.000	235.246	80.002	19.994	103.195	20.028	5.643	0.487
322.000	236.200	80.001	19.994	103.215	20.028	5.681	0.478
324.000	237.274	80.000	19.995	103.199	20.024	5.943	0.521
326.000	238.258	80.001	19.994	103.191	20.026	5.823	0.501
328.000	239.257	80.001	19.996	103.205	20.025	5.849	0.508
330.000	240.227	80.001	19.996	103.207	20.024	5.940	0.511
332.000	241.300	80.000	19.996	103.203	20.024	5.979	0.510
334.000	242.289	80.002	19.996	103.203	20.023	6.010	0.515
336.000	243.291	80.001	19.997	103.188	20.022	6.114	0.510
338.000	244.271	80.004	19.996	103.193	20.021	6.193	0.488
340.000	245.285	80.003	19.996	103.186	20.025	5.849	0.527
342.000	246.299	80.002	19.996	103.185	20.022	6.089	0.493
344.000	247.280	80.003	19.995	103.185	20.021	6.177	0.488
346.000	248.296	80.003	19.995	103.199	20.022	6.081	0.493
348.000	249.299	80.004	19.995	103.182	20.025	5.859	0.476
350.000	250.351	80.002	19.996	103.189	20.020	6.260	0.508
352.000	251.360	80.002	19.995	103.188	20.020	6.280	0.519
354.000	252.394	80.002	19.995	103.188	20.016	6.542	0.509
356.000	253.370	80.002	19.994	103.190	20.014	6.657	0.501
358.000	254.392	80.002	19.995	103.187	20.011	6.895	0.509
360.000	255.375	80.002	19.996	103.191	20.011	6.894	0.499
362.000	256.418	80.004	19.995	103.195	20.010	6.969	0.502
364.000	257.435	80.002	19.996	103.182	20.009	7.061	0.509
366.000	258.428	80.003	19.995	103.187	20.004	7.444	0.507
368.000	259.444	80.003	19.996	103.202	20.001	7.643	0.481
370.000	260.403	80.003	19.994	103.189	20.004	7.410	0.473
372.000	261.410	80.003	19.994	103.187	19.997	7.945	0.485
374.000	262.414	80.003	19.995	103.187	19.996	8.038	0.527
376.000	263.418	80.002	19.994	103.196	19.992	8.284	0.511
378.000	264.395	80.003	19.996	103.189	19.992	8.298	0.488
380.000	265.360	80.001	19.995	103.199	19.989	8.549	0.444
382.000	266.364	80.001	19.994	103.200	19.984	8.903	0.498
384.000	267.381	80.003	19.994	103.191	19.981	9.097	0.512
386.000	268.407	80.000	19.994	103.199	19.979	9.283	0.530
388.000	269.361	80.003	19.995	103.205	19.976	9.488	0.500
390.000	270.384	80.002	19.995	103.217	19.973	9.699	0.499
392.000	271.430	80.001	19.995	103.204	19.972	9.762	0.503
394.000	272.394	80.002	19.995	103.210	19.966	10.207	0.467
396.000	273.405	80.002	19.996	103.219	19.966	10.204	0.495
398.000	274.403	80.004	19.995	103.219	19.963	10.430	0.490
400.000	275.400	80.002	19.995	103.211	19.963	10.452	0.487
402.000	276.442	80.002	19.994	103.211	19.957	10.865	0.503
404.000	277.442	80.001	19.994	103.210	19.954	11.085	0.496
406.000	278.432	80.000	19.995	103.204	19.948	11.559	0.481
408.000	279.455	80.001	19.995	103.196	19.942	11.968	0.494
410.000	280.455	80.003	19.995	103.212	19.942	12.027	0.491
412.000	281.474	80.001	19.994	103.213	19.936	12.466	0.512
414.000	282.480	80.002	19.994	103.217	19.930	12.849	0.490
416.000	283.493	80.003	19.995	103.215	19.927	13.110	0.490
418.000	284.463	80.003	19.995	103.216	19.920	13.604	0.460
420.000	285.472	80.003	19.995	103.221	19.918	13.738	0.484
422.000	286.488	80.003	19.995	103.219	19.914	14.084	0.496
424.000	287.462	80.003	19.995	103.219	19.906	14.618	0.489
426.000	288.445	80.001	19.996	103.221	19.909	14.457	0.474
428.000	289.460	80.002	19.996	103.221	19.898	15.238	0.485
430.000	290.417	80.002	19.995	103.220	19.893	15.609	0.476
432.000	291.467	80.002	19.994	103.223	19.892	15.665	0.518
434.000	292.503	80.002	19.995	103.224	19.888	15.978	0.528
436.000	293.491	80.000	19.995	103.225	19.879	16.631	0.505
438.001	294.504	80.002	19.995	103.224	19.874	16.994	0.509
440.000	295.559	80.003	19.994	103.228	19.872	17.169	0.536
442.000	296.528	80.003	19.996	103.229	19.865	17.702	0.485
444.000	297.531	80.001	19.995	103.239	19.861	17.988	0.511
446.000	298.560	80.004	19.995	103.243	19.854	18.507	0.508
448.000	299.563	80.002	19.995	103.229	19.849	18.875	0.510
450.000	300.581	80.001	19.995	103.250	19.844	19.208	0.555
452.000	301.554	80.000	19.996	103.254	19.839	19.620	0.515
454.000	302.542	80.000	19.996	103.245	19.836	19.798	0.482
456.000	303.588	79.999	19.997	103.254	19.828	20.371	0.500
458.000	304.541	80.000	19.997	103.257	19.821	20.927	0.478
460.000	305.612	80.000	19.995	103.250	19.819	21.043	0.510
462.000	306.652	80.001	19.996	103.252	19.810	21.726	0.517
464.001	307.609	80.001	19.996	103.257	19.805	22.111	0.498
466.000	308.647	80.001	19.996	103.257	19.800	22.466	0.483
468.000	309.694	80.002	19.996	103.258	19.794	22.940	0.522
470.000	310.682	80.002	19.994	103.259	19.785	23.559	0.515
472.000	311.728	80.002	19.994	103.259	19.779	24.041	0.523
474.000	312.737	80.003	19.994	103.266	19.774	24.381	0.498
476.000	313.756	80.003	19.995	103.259	19.766	24.997	0.504
478.000	314.789	80.001	19.995	103.260	19.759	25.490	0.510
480.000	315.842	80.001	19.995	103.260	19.750	26.157	0.504
482.000	316.850	80.001	19.996	103.261	19.748	26.312	0.500
484.000	317.834	80.001	19.995	103.270	19.741	26.815	0.505
486.000	318.850	80.001	19.995	103.275	19.733	27.410	0.516
488.000	319.860	79.999	19.996	103.284	19.724	28.048	0.515
490.000	320.887	80.001	19.996	103.281	19.715	28.750	0.489
492.000	321.918	80.001	19.995	103.286	19.706	29.438	0.480
494.000	322.937	80.001	19.996	103.287	19.700	29.825	0.528
496.000	323.951	80.003	19.995	103.298	19.690	30.569	0.499
498.001	324.976	80.002	19.995	103.301	19.683	31.119	0.534
500.000	326.038	80.004	19.994	103.301	19.672	31.908	0.527
502.000	326.985	80.004	19.993	103.300	19.665	32.471	0.507
504.000	327.970	80.003	19.994	103.300	19.653	33.291	0.471
506.000	329.032	80.002	19.995	103.304	19.648	33.728	0.492
508.000	330.017	80.004	19.994	103.304	19.636	34.595	0.494
510.000	331.055	80.004	19.994	103.326	19.622	35.613	0.509
512.000	332.092	80.001	19.995	103.306	19.613	36.290	0.524
514.000	333.106	80.001	19.995	103.318	19.601	37.136	0.516
516.000	334.115	80.001	19.996	103.326	19.591	37.907	0.504
518.000	335.151	80.001	19.996	103.334	19.577	38.980	0.497
520.000	336.172	80.004	19.995	103.334	19.565	39.834	0.505
522.000	337.181	80.004	19.995	103.333	19.553	40.691	0.502
524.000	338.172	80.005	19.996	103.334	19.541	41.565	0.493
526.000	339.190	80.003	19.995	103.335	19.526	42.701	0.492
528.000	340.210	80.004	19.994	103.345	19.511	43.810	0.500
530.000	341.235	80.004	19.995	103.354	19.498	44.792	0.520
532.000	342.256	80.002	19.995	103.344	19.484	45.804	0.503
534.000	343.236	80.001	19.995	103.345	19.467	47.049	0.486
536.000	344.244	80.003	19.995	103.362	19.453	48.107	0.528
538.000	345.292	80.002	19.994	103.366	19.436	49.356	0.499
540.000	346.288	80.002	19.996	103.376	19.423	50.355	0.515
542.000	347.270	80.000	19.995	103.376	19.408	51.417	0.496
544.000	348.288	80.002	19.996	103.377	19.392	52.579	0.498
546.000	349.351	80.001	19.996	103.384	19.381	53.403	0.547
548.000	350.337	80.001	19.996	103.387	19.365	54.633	0.491
550.000	351.348	80.001	19.995	103.380	19.353	55.459	0.507
552.000	352.387	80.002	19.995	103.388	19.343	56.243	0.530
554.000	353.398	80.002	19.995	103.393	19.325	57.564	0.525
556.000	354.382	80.003	19.995	103.385	19.315	58.280	0.497
558.000	355.396	80.002	19.994	103.384	19.303	59.168	0.517
560.000	356.436	80.001	19.995	103.389	19.296	59.703	0.506
562.000	357.422	80.003	19.994	103.383	19.288	60.250	0.516
564.000	358.456	80.001	19.996	103.381	19.282	60.738	0.505
566.000	359.462	80.001	19.995	103.384	19.277	61.091	0.552
568.000	360.462	80.002	19.994	103.378	19.275	61.231	0.494
570.000	361.439	80.001	19.994	103.377	19.271	61.490	0.505
572.000	362.482	80.002	19.994	103.375	19.277	61.051	0.523
574.000	363.498	80.002	19.995	103.372	19.281	60.750	0.517
576.000	364.503	80.002	19.993	103.368	19.286	60.351	0.508
578.000	365.510	80.003	19.995	103.356	19.297	59.525	0.514
580.000	366.524	80.004	19.994	103.342	19.305	58.936	0.484
582.000	367.542	80.002	19.995	103.334	19.322	57.670	0.529
584.000	368.535	80.001	19.995	103.317	19.341	56.289	0.491
586.000	369.545	80.003	19.995	103.309	19.357	55.104	0.502
588.000	370.566	80.005	19.994	103.291	19.381	53.318	0.516
590.000	371.579	80.004	19.995	103.274	19.401	51.847	0.511
592.001	372.580	80.002	19.994	103.260	19.423	50.267	0.506
594.000	373.624	80.002	19.994	103.254	19.449	48.292	0.523
596.000	374.644	80.004	19.994	103.241	19.475	46.424	0.505
598.000	375.649	80.004	19.995	103.223	19.506	44.122	0.505
600.000	376.649	80.004	19.995	103.209	19.533	42.108	0.523
602.000	377.671	80.005	19.995	103.197	19.560	40.131	0.499
604.000	378.690	80.005	19.994	103.190	19.585	38.292	0.511
606.000	379.630	80.005	19.995	103.182	19.611	36.375	0.488
608.000	380.681	80.005	19.995	103.189	19.627	35.169	0.516
610.000	381.667	80.003	19.996	103.179	19.647	33.711	0.525
612.000	382.689	80.003	19.995	103.175	19.665	32.418	0.510
614.000	383.716	80.003	19.995	103.178	19.677	31.509	0.525
616.000	384.729	80.003	19.995	103.180	19.690	30.538	0.498
618.000	385.718	80.002	19.994	103.172	19.697	30.018	0.496
620.000	386.761	80.002	19.994	103.179	19.700	29.851	0.512
622.000	387.784	80.002	19.994	103.173	19.704	29.549	0.511
624.000	388.807	80.002	19.996	103.176	19.702	29.668	0.534
626.000	389.804	80.003	19.995	103.178	19.702	29.652	0.507
628.000	390.827	80.002	19.995	103.176	19.699	29.913	0.511
630.000	391.845	80.003	19.994	103.171	19.694	30.282	0.501
632.000	392.865	80.002	19.996	103.180	19.683	31.053	0.521
634.000	393.856	80.000	19.995	103.181	19.675	31.623	0.496
636.000	394.910	80.001	19.996	103.181	19.665	32.390	0.549
638.000	395.910	80.001	19.996	103.181	19.658	32.920	0.511
640.000	396.938	80.000	19.995	103.182	19.645	33.901	0.523
642.000	397.897	80.000	19.995	103.180	19.634	34.707	0.493
644.000	398.930	80.001	19.997	103.181	19.623	35.523	0.511
646.000	399.962	80.001	19.996	103.183	19.612	36.264	0.538
648.000	400.954	80.000	19.996	103.183	19.603	36.980	0.512
650.000	401.967	80.001	19.995	103.179	19.596	37.468	0.489
652.000	402.950	80.002	19.995	103.180	19.588	38.074	0.525
654.000	403.979	80.002	19.994	103.178	19.583	38.407	0.512
656.000	404.968	80.003	19.995	103.176	19.574	39.059	0.502
658.001	405.981	80.003	19.993	103.175	19.569	39.471	0.529
660.000	406.940	80.003	19.995	103.165	19.568	39.551	0.494
662.000	407.970	80.003	19.993	103.159	19.571	39.279	0.501
664.000	408.972	80.002	19.995	103.159	19.579	38.749	0.500
666.000	409.976	80.001	19.995	103.157	19.585	38.275	0.507
668.000	411.026	80.003	19.994	103.156	19.593	37.657	0.499
670.000	412.048	80.002	19.995	103.157	19.606	36.707	0.527
672.000	412.967	80.002	19.995	103.140	19.619	35.741	0.463
674.000	413.989	80.005	19.994	103.145	19.636	34.506	0.489
676.000	415.024	80.003	19.994	103.142	19.655	33.127	0.508
678.000	416.009	80.003	19.994	103.144	19.678	31.431	0.505
680.000	417.027	80.004	19.995	103.142	19.700	29.792	0.519
682.000	418.025	80.005	19.994	103.142	19.727	27.833	0.511
684.000	419.002	80.005	19.995	103.143	19.750	26.097	0.493
686.000	420.025	80.004	19.994	103.149	19.771	24.580	0.491
688.000	421.022	80.004	19.995	103.149	19.794	22.850	0.487
690.000	422.089	80.003	19.993	103.152	19.817	21.225	0.538
692.000	423.072	80.001	19.995	103.149	19.837	19.744	0.512
694.000	424.043	80.001	19.995	103.148	19.858	18.166	0.490
696.000	425.057	80.000	19.996	103.153	19.875	16.911	0.488
698.000	426.074	80.001	19.996	103.148	19.889	15.863	0.494
700.000	427.099	80.000	19.995	103.145	19.901	14.988	0.493
702.000	428.128	80.001	19.995	103.144	19.915	13.953	0.520
704.000	429.159	80.002	19.995	103.147	19.924	13.340	0.503
706.000	430.139	80.002	19.994	103.144	19.934	12.555	0.494
708.000	431.192	80.001	19.994	103.144	19.944	11.809	0.507
710.000	432.215	80.001	19.994	103.144	19.951	11.298	0.546
712.000	433.202	80.001	19.995	103.144	19.956	10.985	0.492
714.000	434.256	80.001	19.994	103.150	19.962	10.538	0.523
716.000	435.287	80.001	19.996	103.142	19.968	10.040	0.500
718.001	436.335	80.001	19.993	103.140	19.970	9.953	0.518
720.000	437.340	80.001	19.996	103.140	19.974	9.605	0.542
722.000	438.350	80.000	19.996	103.138	19.979	9.239	0.486
724.000	439.420	80.002	19.995	103.114	19.979	9.227	0.499
726.000	440.446	80.000	19.996	103.113	19.982	9.016	0.546
728.000	441.451	80.001	19.996	103.188	19.986	8.774	0.533
730.000	442.459	80.002	19.996	103.140	19.986	8.751	0.490
732.000	443.485	80.002	19.995	103.140	19.988	8.595	0.493
734.000	444.488	80.003	19.996	103.140	19.988	8.593	0.488
736.000	445.532	80.004	19.994	103.139	19.989	8.511	0.513
738.000	446.526	80.004	19.995	103.143	19.991	8.349	0.488
740.000	447.514	80.004	19.994	103.139	19.993	8.261	0.472
742.000	448.549	80.001	19.994	103.140	19.995	8.076	0.504
744.000	449.599	80.003	19.994	103.139	19.996	7.975	0.503
746.000	450.602	80.003	19.995	103.140	20.002	7.603	0.524
748.000	451.631	80.001	19.994	103.141	20.000	7.721	0.499
750.000	452.598	80.001	19.994	103.142	20.001	7.656	0.516
752.000	453.646	80.003	19.994	103.132	20.003	7.460	0.530
754.000	454.654	80.002	19.994	103.135	20.006	7.298	0.519
756.000	455.685	80.003	19.995	103.150	20.007	7.186	0.529
758.000	456.677	80.004	19.995	103.144	20.008	7.151	0.490
760.000	457.745	80.004	19.995	103.141	20.006	7.282	0.532
762.000	458.740	80.004	19.993	103.139	20.008	7.094	0.510
764.000	459.790	80.004	19.993	103.140	20.008	7.117	0.522
766.000	460.828	80.004	19.994	103.140	20.007	7.196	0.511
768.000	461.858	80.003	19.994	103.137	20.009	7.066	0.528
770.000	462.912	80.000	19.994	103.142	20.012	6.844	0.519
772.000	463.868	80.002	19.994	103.140	20.013	6.724	0.473
774.000	464.865	80.001	19.995	103.142	20.012	6.816	0.483
776.000	465.889	80.002	19.995	103.139	20.013	6.777	0.474
778.000	466.899	80.003	19.994	103.135	20.016	6.515	0.513
780.000	467.934	80.002	19.994	103.137	20.012	6.836	0.498
782.000	468.949	80.002	19.995	103.137	20.016	6.535	0.528
784.000	469.954	80.001	19.995	103.138	20.017	6.487	0.510
786.000	470.984	80.001	19.996	103.139	20.017	6.432	0.517
788.000	471.977	80.003	19.996	103.137	20.016	6.537	0.475
790.000	472.991	80.001	19.995	103.138	20.018	6.389	0.484
792.000	474.066	80.001	19.995	103.140	20.020	6.265	0.541
794.000	475.096	80.001	19.995	103.140	20.019	6.303	0.508
796.001	476.184	80.002	19.995	103.139	20.018	6.424	0.529
798.000	477.160	80.000	19.996	103.139	20.019	6.328	0.505
800.000	478.220	80.001	19.996	103.139	20.021	6.135	0.515
802.000	479.242	80.001	19.995	103.137	20.021	6.143	0.513
804.000	480.259	79.999	19.994	103.135	20.020	6.269	0.524
806.000	481.290	80.002	19.996	103.136	20.022	6.096	0.528
808.000	482.321	80.001	19.996	103.136	20.020	6.230	0.511
810.000	483.382	80.001	19.995	103.136	20.022	6.123	0.517
812.000	484.380	80.000	19.995	103.142	20.022	6.096	0.531
814.000	485.440	80.003	19.995	103.141	20.020	6.226	0.520
816.000	486.489	80.003	19.997	103.130	20.021	6.155	0.552
818.000	487.496	80.003	19.996	103.138	20.024	5.944	0.523
820.000	488.507	80.002	19.995	103.138	20.021	6.164	0.520
822.000	489.553	80.000	19.996	103.141	20.023	6.045	0.528
824.000	490.562	80.002	19.995	103.142	20.023	6.038	0.517
826.000	491.542	80.001	19.995	103.137	20.022	6.068	0.486
828.000	492.589	80.001	19.995	103.138	20.022	6.110	0.511
830.000	493.605	80.002	19.995	103.140	20.021	6.202	0.516
832.000	494.664	80.002	19.994	103.138	20.023	6.047	0.551
834.000	495.699	80.003	19.996	103.138	20.025	5.881	0.531
836.000	496.717	80.004	19.994	103.145	20.022	6.096	0.500
838.000	497.736	80.004	19.994	103.138	20.026	5.795	0.503
840.000	498.788	80.004	19.994	103.140	20.025	5.856	0.496
842.000	499.915	80.004	19.995	103.139	20.025	5.858	0.551
844.000	500.893	80.003	19.995	103.133	20.021	6.159	0.524
846.000	501.898	80.001	19.994	103.137	20.024	5.970	0.509
848.000	502.951	80.001	19.995	103.138	20.028	5.643	0.531
850.000	503.941	80.001	19.994	103.132	20.025	5.897	0.478
852.000	504.997	80.002	19.996	103.138	20.025	5.887	0.512
854.000	506.055	80.002	19.996	103.140	20.026	5.805	0.527
856.000	507.070	80.001	19.995	103.141	20.028	5.683	0.528
858.000	508.062	80.003	19.995	103.140	20.029	5.600	0.528
860.000	509.116	80.003	19.994	103.134	20.027	5.724	0.521
862.000	510.152	80.001	19.995	103.139	20.028	5.643	0.536
864.000	511.180	80.003	19.994	103.132	20.027	5.722	0.511
866.000	512.202	80.002	19.994	103.123	20.027	5.716	0.502
868.000	513.218	80.003	19.994	103.134	20.028	5.651	0.505
870.000	514.220	80.003	19.995	103.141	20.029	5.566	0.516
872.000	515.306	80.002	19.995	103.138	20.030	5.491	0.540
874.000	516.373	80.001	19.994	103.132	20.025	5.850	0.541
876.000	517.390	80.001	19.995	103.135	20.029	5.544	0.559
878.000	518.432	80.002	19.995	103.137	20.029	5.554	0.538
880.000	519.469	80.000	19.996	103.141	20.028	5.678	0.529
882.000	520.487	80.001	19.994	103.137	20.029	5.560	0.529
884.000	521.515	80.002	19.995	103.138	20.026	5.779	0.524
886.000	522.555	80.001	19.995	103.139	20.028	5.651	0.488
888.000	523.595	80.002	19.994	103.142	20.028	5.623	0.519
890.000	524.631	80.001	19.995	103.143	20.031	5.450	0.518
892.000	525.668	80.002	19.997	103.142	20.031	5.460	0.502
894.000	526.711	80.001	19.995	103.143	20.030	5.541	0.483
896.000	527.735	80.002	19.996	103.133	20.031	5.417	0.506
898.000	528.801	80.003	19.996	103.143	20.028	5.687	0.515
900.000	529.854	80.002	19.994	103.140	20.034	5.208	0.538
902.000	530.889	80.003	19.995	103.135	20.028	5.620	0.547
904.001	531.982	80.002	19.995	103.137	20.031	5.455	0.559
906.000	532.963	80.001	19.995	103.137	20.026	5.805	0.503
908.000	534.032	80.000	19.995	103.131	20.029	5.573	0.534
910.000	535.034	80.002	19.996	103.126	20.027	5.716	0.497
912.000	536.106	80.001	19.995	103.133	20.028	5.657	0.521
914.000	537.180	80.004	19.995	103.126	20.031	5.441	0.554
916.000	538.157	80.004	19.995	103.126	20.032	5.338	0.524
918.000	539.221	80.006	19.994	103.128	20.033	5.262	0.531
920.000	540.244	80.005	19.994	103.130	20.034	5.191	0.535
922.000	541.261	80.004	19.995	103.132	20.029	5.559	0.516
924.000	542.281	80.003	19.994	103.126	20.029	5.576	0.509
926.000	543.311	80.004	19.994	103.130	20.032	5.346	0.508
928.000	544.329	80.002	19.995	103.134	20.031	5.409	0.516
930.000	545.365	80.002	19.995	103.127	20.033	5.248	0.503
932.000	546.426	80.002	19.995	103.128	20.032	5.338	0.539
934.000	547.419	80.001	19.995	103.135	20.032	5.346	0.518
936.000	548.451	80.001	19.995	103.127	20.033	5.305	0.532
938.000	549.472	80.001	19.995	103.128	20.034	5.210	0.496
940.000	550.507	80.002	19.995	103.131	20.032	5.336	0.515
942.000	551.555	80.001	19.995	103.133	20.031	5.459	0.514
944.000	552.557	80.002	19.994	103.129	20.028	5.648	0.528
946.000	553.615	80.003	19.994	103.125	20.031	5.450	0.530
948.000	554.653	80.002	19.994	103.132	20.029	5.606	0.514
950.000	555.643	80.002	19.994	103.136	20.033	5.295	0.493
952.000	556.668	80.001	19.994	103.131	20.030	5.516	0.508
954.000	557.707	80.000	19.995	103.125	20.027	5.692	0.517
956.000	558.740	80.002	19.993	103.133	20.027	5.704	0.527
958.000	559.726	80.001	19.993	103.134	20.030	5.531	0.503
960.000	560.760	80.002	19.996	103.131	20.029	5.543	0.532
962.000	561.759	79.999	19.995	103.124	20.029	5.551	0.530
964.000	562.796	80.003	19.995	103.138	20.030	5.514	0.498
966.000	563.800	80.002	19.996	103.127	20.032	5.333	0.494
968.000	564.834	80.004	19.996	103.136	20.031	5.420	0.541
970.000	565.816	80.004	19.995	103.129	20.028	5.650	0.518
972.000	566.862	80.004	19.996	103.132	20.030	5.514	0.508
974.000	567.867	80.003	19.994	103.121	20.033	5.309	0.535
976.000	568.858	80.004	19.996	103.125	20.029	5.551	0.499
978.000	569.892	80.001	19.996	103.129	20.032	5.331	0.535
980.000	570.861	80.003	19.995	103.124	20.032	5.327	0.508
982.000	571.845	80.002	19.994	103.125	20.031	5.404	0.486
984.000	572.818	80.002	19.995	103.131	20.034	5.246	0.472
986.000	573.888	80.002	19.995	103.117	20.034	5.197	0.506
988.000	574.933	80.001	19.995	103.125	20.034	5.201	0.523
990.000	575.919	80.002	19.994	103.126	20.032	5.382	0.502
992.000	576.954	80.003	19.996	103.123	20.031	5.449	0.492
994.000	577.885	80.002	19.996	103.121	20.030	5.474	0.505
996.000	578.905	80.003	19.997	103.136	20.030	5.484	0.487
998.001	579.932	80.003	19.995	103.129	20.035	5.130	0.509
1000.000	580.907	80.003	19.995	103.134	20.033	5.305	0.487
1002.001	581.897	80.003	19.995	103.124	20.035	5.136	0.493
1004.000	582.884	80.003	19.994	103.128	20.034	5.242	0.471
1006.000	583.840	80.003	19.995	103.128	20.035	5.118	0.480
1008.000	584.880	80.002	19.994	103.116	20.037	4.990	0.481
1010.000	585.897	80.002	19.994	103.127	20.031	5.441	0.504
1012.000	586.879	80.001	19.995	103.122	20.033	5.268	0.494
1014.000	587.912	80.001	19.995	103.132	20.029	5.549	0.526
1016.000	588.899	80.001	19.994	103.123	20.032	5.353	0.495
1018.000	589.929	80.001	19.995	103.130	20.031	5.465	0.507
1020.000	590.943	80.002	19.994	103.131	20.031	5.442	0.503
1022.000	591.889	80.002	19.994	103.114	20.032	5.347	0.464
1024.000	592.940	80.001	19.995	103.125	20.033	5.312	0.527
1026.000	593.955	80.002	19.996	103.121	20.030	5.510	0.494
1028.000	594.943	80.003	19.995	103.124	20.029	5.542	0.478
1030.000	596.013	80.002	19.995	103.117	20.032	5.352	0.505
1032.000	597.026	80.003	19.994	103.114	20.034	5.181	0.498
1034.000	597.973	80.003	19.995	103.108	20.035	5.128	0.546
1036.000	599.042	80.002	19.995	103.119	20.035	5.131	0.497
1038.001	600.070	80.001	19.995	103.126	20.029	5.559	0.531
1040.001	601.037	80.001	19.994	103.121	20.028	5.678	0.459
1042.000	602.104	80.002	19.994	103.137	20.023	6.017	0.529
1044.000	603.059	80.002	19.994	103.125	20.028	5.664	0.486
1046.000	604.255	80.003	19.995	103.131	20.029	5.604	0.484
1048.000	605.245	80.003	19.994	103.139	20.033	5.301	0.538
1050.000	606.365	80.005	19.994	103.125	20.029	5.573	0.655
1052.001	607.310	80.004	19.996	103.118	20.031	5.456	0.688
1054.000	608.607	80.003	19.995	103.109	20.027	5.758	0.963
1056.000	608.890	80.003	19.996	103.131	20.028	5.650	1.097
1058.000	610.242	80.002	19.996	103.128	20.029	5.612	0.484
1060.000	611.344	80.002	19.995	103.127	20.027	5.695	0.366
1062.000	612.457	80.003	19.995	103.132	20.025	5.894	0.493
1064.000	613.501	80.002	19.994	103.124	20.025	5.854	0.591
1066.001	614.663	80.002	19.996	103.119	20.025	5.898	0.524
1068.001	615.565	80.003	19.995	103.120	20.023	6.055	0.506
1070.000	616.686	80.004	19.995	103.138	20.023	6.010	0.506
1072.000	617.724	80.004	19.996	103.128	20.024	5.978	0.558
1074.001	618.800	80.002	19.997	103.126	20.028	5.655	0.513
1076.000	619.787	80.004	19.994	103.129	20.034	5.203	0.489
1078.001	620.826	80.004	19.994	103.116	20.029	5.585	0.472
1080.000	621.863	80.004	19.994	103.126	20.024	5.941	0.497
1082.001	622.960	80.002	19.996	103.124	20.031	5.435	0.519
1084.001	624.010	80.001	19.995	103.137	20.029	5.543	0.508
1086.001	625.015	80.001	19.996	103.128	20.025	5.860	0.529
1088.000	626.090	80.002	19.995	103.129	20.037	4.961	0.510
1090.001	627.140	80.000	19.997	103.119	20.032	5.340	0.554
1092.001	628.188	80.002	19.995	103.133	20.033	5.260	0.538
1094.000	629.215	80.002	19.996	103.131	20.030	5.526	0.541
1096.000	630.218	80.003	19.993	103.133	20.037	5.000	0.511
1098.000	631.304	80.002	19.995	103.129	20.025	5.896	0.549
1100.001	632.280	80.003	19.995	103.120	20.027	5.724	0.508
1102.000	633.350	80.003	19.994	103.130	20.027	5.742	0.536
1104.000	634.403	80.004	19.995	103.116	20.027	5.752	0.531
1106.001	635.431	80.004	19.994	103.132	20.025	5.852	0.500
1108.000	636.455	80.003	19.994	103.126	20.026	5.830	0.497
1110.000	637.486	80.001	19.993	103.134	20.028	5.678	0.510
1112.000	638.520	80.002	19.995	103.126	20.025	5.850	0.539
1114.000	639.577	80.002	19.995	103.130	20.028	5.626	0.523
1116.000	640.565	80.002	19.994	103.129	20.020	6.228	0.504
1118.000	641.615	80.001	19.995	103.136	20.022	6.076	0.500
1120.001	642.603	80.001	19.995	103.137	20.025	5.840	0.505
1122.000	643.633	80.001	19.994	103.140	20.020	6.238	0.510
1124.000	644.628	80.002	19.993	103.128	20.027	5.748	0.517
1126.000	645.634	80.003	19.995	103.127	20.035	5.125	0.559
1128.000	646.606	80.003	19.994	103.139	20.022	6.098	0.482
1130.001	647.640	80.004	19.994	103.138	20.022	6.125	0.502
1132.000	648.585	80.004	19.994	103.128	20.019	6.322	0.486
1134.000	649.629	80.002	19.994	103.131	20.022	6.090	0.536
1136.000	650.669	80.003	19.995	103.131	20.016	6.549	0.489
1138.000	651.648	80.002	19.995	103.140	20.025	5.881	0.475
1140.000	652.651	80.002	19.994	103.138	20.023	6.019	0.498
1142.001	653.656	80.003	19.996	103.140	20.027	5.702	0.556
1144.000	654.684	80.002	19.995	103.133	20.023	6.015	0.501
1146.000	655.736	80.001	19.994	103.128	20.024	5.972	0.539
1148.001	656.738	80.002	19.995	103.130	20.021	6.167	0.499
1150.000	657.232	80.002	19.994	103.143	20.021	6.157	0.292
1152.000	658.893	80.003	19.996	103.141	20.026	5.836	0.518
1154.000	659.777	80.004	19.995	103.135	20.022	6.106	0.503
1156.000	660.780	80.005	19.995	103.138	20.022	6.061	0.465
1158.000	661.788	80.004	19.994	103.138	20.021	6.193	0.490
1160.000	662.817	80.002	19.995	103.133	20.020	6.271	0.536
1162.000	663.831	80.003	19.994	103.132	20.021	6.203	0.477
1164.000	664.814	80.001	19.995	103.129	20.020	6.228	0.492
1166.000	665.891	80.001	19.996	103.126	20.023	5.988	0.518
1168.000	666.854	80.003	19.995	103.138	20.022	6.075	0.498
1170.000	667.878	80.001	19.998	103.133	20.023	6.014	0.493
1172.000	668.868	80.000	19.995	103.130	20.022	6.092	0.500
1174.000	669.879	80.003	19.996	103.132	20.020	6.207	0.477
1176.000	670.824	80.002	19.996	103.135	20.023	6.019	0.431
1178.001	671.928	80.002	19.996	103.125	20.019	6.287	0.549
1180.000	672.876	80.003	19.996	103.127	20.019	6.295	0.533
1182.000	673.903	80.003	19.995	103.129	20.019	6.300	0.521
1184.001	674.864	80.004	19.995	103.125	20.021	6.174	0.503
1186.000	675.904	80.002	19.995	103.131	20.018	6.376	0.518
1188.000	676.902	80.002	19.994	103.133	20.019	6.302	0.512
1190.000	677.970	80.002	19.994	103.131	20.020	6.235	0.497
1192.000	678.959	80.001	19.995	103.119	20.017	6.469	0.558
1194.000	679.935	80.002	19.993	103.108	20.018	6.366	0.509
1196.000	680.892	80.001	19.995	103.117	20.021	6.184	0.490
1198.000	681.969	80.002	19.994	103.137	20.021	6.156	0.493
1200.000	682.853	80.002	19.994	103.127	20.018	6.386	1.149
1202.000	683.933	80.001	19.995	103.119	20.021	6.185	0.439
1204.001	684.947	80.002	19.995	103.119	20.019	6.331	0.516
1206.000	685.977	80.003	19.994	103.122	20.018	6.413	0.528
1208.000	686.942	80.003	19.995	103.116	20.022	6.097	0.490
1210.000	687.988	80.004	19.995	103.113	20.021	6.171	0.499
1212.000	688.997	80.003	19.994	103.127	20.022	6.100	0.492
1214.001	689.990	80.004	19.995	103.122	20.022	6.111	0.551
1216.001	691.095	80.002	19.995	103.130	20.020	6.241	0.537
1218.000	692.150	80.003	19.993	103.116	20.024	5.969	0.537
1220.000	693.194	80.005	19.995	103.121	20.026	5.835	0.513
1222.000	694.241	80.003	19.994	103.136	20.024	5.961	0.555
1224.001	695.291	80.003	19.995	103.125	20.021	6.129	0.510
1226.001	696.372	80.003	19.994	103.108	20.021	6.133	0.553
1228.000	697.442	80.003	19.994	103.117	20.022	6.065	0.543
1230.000	698.461	80.003	19.994	103.115	20.022	6.074	0.505
1232.000	699.555	80.003	19.995	103.115	20.022	6.064	0.558
1234.000	700.594	80.004	19.994	103.109	20.024	5.917	0.523
1236.000	701.614	80.002	19.997	103.107	20.023	6.041	0.511
1238.000	702.648	80.003	19.994	103.126	20.022	6.104	0.513
1240.001	703.688	80.003	19.995	103.115	20.023	6.007	0.499
1242.001	704.740	80.002	19.995	103.106	20.023	6.044	0.511
1244.000	705.785	80.002	19.996	103.104	20.022	6.127	0.511
1246.001	706.832	80.003	19.994	103.104	20.018	6.419	0.529
1248.000	707.869	80.002	19.995	103.103	20.019	6.310	0.544
1250.000	708.891	80.003	19.995	103.106	20.018	6.359	0.535
1252.000	709.921	80.003	19.994	103.114	20.017	6.438	0.510
1254.001	710.991	80.003	19.994	103.108	20.020	6.211	0.562
1256.001	712.026	80.002	19.995	103.126	20.021	6.194	0.519
1258.000	713.039	80.003	19.996	103.123	20.019	6.292	0.522
1260.000	714.059	80.001	19.996	103.114	20.024	5.971	0.508
1262.001	715.109	80.001	19.995	103.122	20.021	6.147	0.509
1264.000	716.137	80.002	19.995	103.114	20.017	6.446	0.502
1266.001	717.197	80.001	19.996	103.116	20.021	6.141	0.525
1268.000	718.214	80.002	19.996	103.108	20.022	6.105	0.501
1270.000	719.268	80.002	19.995	103.107	20.021	6.184	0.520
1272.000	720.270	80.001	19.995	103.109	20.018	6.389	0.490
1274.000	721.309	80.001	19.995	103.109	20.019	6.330	0.511
1276.000	722.331	80.001	19.994	103.107	20.014	6.664	0.514
1278.001	723.364	80.002	19.995	103.112	20.015	6.617	0.520
1280.000	724.370	80.001	19.994	103.108	20.020	6.255	0.508
1282.000	725.357	80.002	19.994	103.110	20.020	6.260	0.511
1284.000	726.393	80.004	19.994	103.106	20.017	6.495	0.513
1286.000	727.355	80.004	19.993	103.109	20.020	6.212	0.487
1288.001	728.417	80.004	19.994	103.114	20.020	6.210	0.522
1290.000	729.387	80.004	19.994	103.116	20.021	6.145	0.520
1292.000	730.407	80.003	19.995	103.117	20.019	6.333	0.479
1294.000	731.457	80.004	19.995	103.125	20.023	5.989	0.549
1296.000	732.458	80.003	19.996	103.105	20.020	6.217	0.522
1298.001	733.441	80.003	19.995	103.105	20.019	6.289	0.493
1300.000	734.481	80.004	19.994	103.105	20.018	6.352	0.516
1302.000	735.484	80.003	19.995	103.112	20.016	6.562	0.479
1304.001	736.440	80.003	19.995	103.108	20.015	6.594	0.485
1306.000	737.477	80.005	19.995	103.106	20.018	6.358	0.486
1308.000	738.500	80.004	19.994	103.112	20.020	6.223	0.514
1310.000	739.514	80.006	19.994	103.104	20.017	6.485	0.488
1312.001	740.510	80.004	19.995	103.103	20.018	6.356	0.548
1314.000	741.506	80.005	19.993	103.109	20.017	6.457	0.509
1316.000	742.504	80.005	19.993	103.104	20.019	6.312	0.511
1318.001	743.552	80.004	19.994	103.105	20.019	6.282	0.537