File: 01_Data/Lightweight_Gypsum_Wallboard_Painted_Paper/MCC/Lightweight_Gypsum_Wallboard_Painted_Paper_MCC_30K_min_211202_R2.txt
Sample ID:	C:\MCC\MCC Cal\Test\LW_GypBoard_Painted_Paper_MCC_30K_min_211202_R2.txt
Sample Weight (mg):	4.96
Heating Rate (C/s):	0.5
Combustor Temp (C):	900
N2 Flow Rate (cc/min):	80
O2 Flow Rate (cc/min):	20
Calibration File:	C:\MCC\MCC Cal\Coeff1 JN10440_30_210304.txt.txt
T Correction Coefficients:	0	1.024463	0
Time Shift (s):	14
*
Time (s)	Temperature (C)	N2 flow rate (cc/min)	O2 flow rate (cc/min)	Flow Rate (cc/min)	Oxygen (%)	HRR (W/g)	Heating rate (C/s)
0.000	112.177	80.003	19.995	103.060	20.028	-0.122	-0.041
1.500	112.226	80.003	19.997	103.060	20.031	-0.354	0.018
3.000	112.173	80.003	19.997	103.061	20.028	-0.165	-0.029
4.500	112.202	80.003	19.995	103.049	20.029	-0.192	0.011
6.000	112.167	80.003	19.996	103.058	20.031	-0.351	-0.009
7.500	112.163	80.004	19.996	103.059	20.029	-0.204	0.005
9.000	112.178	80.004	19.996	103.060	20.028	-0.104	-0.011
10.500	112.155	80.004	19.995	103.068	20.025	0.054	0.013
12.000	112.186	80.005	19.996	103.075	20.026	-0.016	-0.001
13.501	112.175	80.004	19.995	103.103	20.021	0.303	0.013
15.000	112.182	80.006	19.995	103.127	20.016	0.642	-0.001
16.500	112.210	80.007	19.995	103.157	20.013	0.866	0.005
18.000	112.231	80.007	19.995	103.191	20.005	1.349	0.033
19.501	112.239	80.006	19.996	103.230	20.002	1.582	0.014
21.000	112.379	80.008	19.993	103.261	19.995	1.995	0.089
22.500	112.473	80.007	19.996	103.296	19.991	2.267	0.055
24.000	112.584	80.006	19.995	103.301	19.995	1.991	0.070
25.500	112.731	80.007	19.995	103.296	19.989	2.385	0.096
27.000	112.895	80.008	19.994	103.297	19.988	2.432	0.100
28.500	113.117	80.006	19.996	103.302	19.988	2.434	0.131
30.000	113.320	80.006	19.995	103.305	19.987	2.548	0.134
31.500	113.572	80.005	19.995	103.299	19.987	2.548	0.154
33.001	113.802	80.005	19.995	103.289	19.986	2.575	0.147
34.500	114.087	80.002	19.994	103.287	19.987	2.544	0.197
36.000	114.344	80.005	19.997	103.265	19.984	2.738	0.179
37.501	114.705	80.005	19.995	103.245	19.983	2.788	0.247
39.001	115.014	80.005	19.995	103.338	19.983	2.781	0.226
40.501	115.339	80.007	19.994	103.351	19.983	2.774	0.227
42.000	115.704	80.003	19.994	103.327	19.986	2.605	0.245
43.500	116.087	80.004	19.994	103.338	19.981	2.894	0.239
45.001	116.418	80.006	19.995	103.324	19.981	2.936	0.264
46.501	116.829	80.005	19.995	103.311	19.981	2.918	0.255
48.000	117.259	80.005	19.996	103.322	19.978	3.097	0.286
49.500	117.707	80.006	19.996	103.323	19.980	3.004	0.294
51.000	118.110	80.005	19.996	103.332	19.982	2.839	0.285
52.501	118.594	80.005	19.995	103.325	19.981	2.911	0.330
54.000	119.054	80.005	19.995	103.326	19.979	3.027	0.314
55.500	119.547	80.005	19.994	103.335	19.981	2.948	0.326
57.001	120.014	80.005	19.996	103.333	19.983	2.814	0.310
58.501	120.531	80.003	19.996	103.329	19.976	3.253	0.360
60.001	121.067	80.002	19.996	103.337	19.978	3.130	0.342
61.500	121.597	80.004	19.996	103.337	19.979	3.027	0.349
63.000	122.112	80.003	19.996	103.336	19.978	3.086	0.339
64.501	122.718	80.004	19.995	103.339	19.975	3.325	0.401
66.000	123.272	80.005	19.995	103.338	19.975	3.339	0.370
67.500	123.847	80.005	19.995	103.339	19.975	3.305	0.388
69.000	124.382	80.003	19.995	103.341	19.975	3.311	0.352
70.500	124.966	80.006	19.996	103.343	19.977	3.201	0.375
72.000	125.575	80.005	19.996	103.336	19.978	3.092	0.405
73.501	126.146	80.006	19.995	103.335	19.974	3.359	0.401
75.000	126.752	80.005	19.996	103.337	19.975	3.323	0.395
76.500	127.352	80.006	19.995	103.337	19.979	3.047	0.402
78.000	127.991	80.007	19.996	103.337	19.976	3.232	0.412
79.500	128.632	80.006	19.995	103.338	19.973	3.417	0.440
81.000	129.286	80.008	19.995	103.340	19.974	3.390	0.430
82.500	129.934	80.004	19.995	103.341	19.975	3.320	0.416
84.000	130.568	80.002	19.995	103.338	19.978	3.144	0.392
85.500	131.224	80.006	19.995	103.338	19.978	3.111	0.435
87.000	131.896	80.004	19.996	103.336	19.975	3.309	0.453
88.501	132.544	80.006	19.996	103.338	19.974	3.354	0.425
90.000	133.200	80.004	19.997	103.339	19.976	3.273	0.447
91.501	133.890	80.004	19.996	103.337	19.975	3.312	0.473
93.000	134.597	80.003	19.996	103.335	19.972	3.487	0.465
94.500	135.264	80.006	19.995	103.335	19.973	3.413	0.443
96.001	135.931	80.005	19.996	103.335	19.974	3.395	0.444
97.500	136.646	80.005	19.996	103.334	19.973	3.415	0.464
99.000	137.374	80.004	19.996	103.335	19.977	3.180	0.487
100.500	138.090	80.005	19.996	103.337	19.973	3.467	0.466
102.000	138.772	80.009	19.996	103.336	19.976	3.228	0.476
103.500	139.492	80.008	19.995	103.338	19.972	3.513	0.493
105.001	140.244	80.005	19.995	103.341	19.974	3.382	0.502
106.500	140.970	80.006	19.994	103.339	19.974	3.375	0.492
108.001	141.697	80.005	19.994	103.338	19.974	3.406	0.490
109.500	142.440	80.004	19.995	103.336	19.975	3.340	0.506
111.000	143.227	80.004	19.995	103.338	19.975	3.311	0.499
112.501	143.964	80.005	19.996	103.331	19.975	3.329	0.491
114.000	144.767	80.005	19.994	103.330	19.977	3.185	0.524
115.500	145.476	80.005	19.995	103.336	19.972	3.531	0.496
117.000	146.188	80.004	19.995	103.336	19.975	3.339	0.459
118.500	146.947	80.002	19.995	103.338	19.976	3.251	0.505
120.000	147.690	80.001	19.995	103.345	19.977	3.154	0.499
121.500	148.455	80.005	19.996	103.343	19.975	3.318	0.519
123.001	149.232	80.004	19.995	103.334	19.974	3.381	0.530
124.501	149.970	80.004	19.996	103.334	19.971	3.580	0.495
126.000	150.772	80.004	19.995	103.337	19.974	3.384	0.511
127.501	151.534	80.006	19.995	103.333	19.972	3.518	0.524
129.000	152.278	80.004	19.995	103.326	19.974	3.378	0.509
130.501	153.030	80.004	19.995	103.330	19.975	3.292	0.498
132.000	153.817	80.005	19.995	103.330	19.972	3.491	0.520
133.500	154.553	80.004	19.995	103.332	19.973	3.444	0.485
135.000	155.291	80.007	19.995	103.336	19.975	3.308	0.490
136.500	156.056	80.003	19.995	103.325	19.969	3.696	0.490
138.000	156.802	80.005	19.994	103.312	19.972	3.525	0.516
139.500	157.566	80.002	19.995	103.311	19.972	3.484	0.522
141.000	158.378	80.004	19.994	103.322	19.972	3.487	0.520
142.500	159.143	80.003	19.994	103.316	19.972	3.478	0.520
144.000	159.900	80.003	19.995	103.308	19.974	3.362	0.511
145.500	160.624	80.003	19.994	103.318	19.976	3.247	0.489
147.000	161.370	80.006	19.994	103.326	19.975	3.295	0.498
148.500	162.202	80.004	19.995	103.310	19.978	3.094	0.550
150.000	162.971	80.005	19.995	103.304	19.974	3.379	0.503
151.501	163.704	80.007	19.995	103.309	19.976	3.227	0.463
153.000	164.475	80.004	19.995	103.307	19.976	3.241	0.514
154.500	165.274	80.005	19.995	103.304	19.975	3.313	0.512
156.000	166.046	80.005	19.996	103.304	19.973	3.413	0.497
157.500	166.811	80.005	19.995	103.300	19.971	3.562	0.503
159.000	167.560	80.007	19.995	103.299	19.973	3.433	0.508
160.500	168.305	80.006	19.995	103.296	19.976	3.236	0.513
162.000	169.076	80.006	19.995	103.296	19.975	3.297	0.540
163.500	169.862	80.005	19.996	103.296	19.970	3.652	0.515
165.000	170.608	80.006	19.995	103.297	19.972	3.496	0.496
166.500	171.354	80.007	19.995	103.297	19.969	3.675	0.495
168.000	172.111	80.006	19.996	103.295	19.969	3.727	0.504
169.500	172.867	80.006	19.996	103.296	19.971	3.575	0.483
171.000	173.627	80.006	19.995	103.296	19.970	3.659	0.520
172.500	174.382	80.006	19.995	103.297	19.969	3.713	0.526
174.000	175.112	80.004	19.995	103.295	19.966	3.906	0.483
175.500	175.901	80.005	19.995	103.294	19.970	3.607	0.525
177.000	176.625	80.005	19.996	103.293	19.971	3.544	0.486
178.500	177.365	80.006	19.996	103.287	19.970	3.655	0.498
180.000	178.117	80.007	19.995	103.288	19.968	3.793	0.498
181.500	178.886	80.007	19.995	103.294	19.970	3.658	0.524
183.000	179.615	80.007	19.995	103.294	19.968	3.735	0.502
184.500	180.404	80.005	19.996	103.291	19.968	3.734	0.518
186.000	181.106	80.005	19.996	103.288	19.967	3.839	0.479
187.500	181.903	80.003	19.995	103.281	19.963	4.069	0.512
189.000	182.604	80.002	19.996	103.288	19.964	4.049	0.472
190.500	183.369	80.003	19.995	103.287	19.963	4.107	0.520
192.000	184.096	80.002	19.996	103.281	19.962	4.136	0.500
193.500	184.846	80.003	19.996	103.270	19.962	4.168	0.504
195.000	185.622	80.002	19.994	103.274	19.962	4.161	0.509
196.500	186.354	80.001	19.994	103.271	19.967	3.834	0.496
198.000	187.135	80.002	19.995	103.279	19.962	4.177	0.507
199.500	187.830	80.003	19.995	103.277	19.963	4.062	0.474
201.000	188.585	80.004	19.995	103.274	19.959	4.377	0.507
202.500	189.311	80.005	19.994	103.284	19.960	4.306	0.484
204.000	190.059	80.004	19.995	103.275	19.960	4.292	0.516
205.500	190.760	80.003	19.995	103.279	19.961	4.202	0.472
207.000	191.513	80.003	19.994	103.283	19.958	4.388	0.484
208.500	192.287	80.004	19.995	103.282	19.958	4.401	0.492
210.000	193.015	80.003	19.995	103.278	19.960	4.266	0.487
211.500	193.748	80.006	19.995	103.270	19.957	4.490	0.469
213.000	194.486	80.001	19.996	103.277	19.960	4.301	0.490
214.500	195.234	80.003	19.996	103.282	19.958	4.394	0.485
216.000	195.924	80.006	19.994	103.278	19.957	4.466	0.468
217.500	196.670	80.003	19.995	103.274	19.955	4.601	0.504
219.000	197.412	80.005	19.996	103.269	19.956	4.545	0.505
220.500	198.144	80.002	19.996	103.268	19.955	4.610	0.473
222.000	198.868	80.004	19.995	103.265	19.957	4.480	0.469
223.500	199.628	80.003	19.996	103.278	19.958	4.416	0.496
225.001	200.379	80.004	19.995	103.288	19.955	4.597	0.509
226.500	201.084	80.004	19.994	103.296	19.954	4.693	0.467
228.000	201.836	80.007	19.995	103.294	19.949	4.989	0.499
229.500	202.582	80.003	19.995	103.293	19.951	4.846	0.488
231.000	203.320	80.006	19.994	103.289	19.954	4.644	0.487
232.500	204.051	80.006	19.994	103.288	19.951	4.881	0.487
234.000	204.789	80.007	19.994	103.283	19.949	4.998	0.497
235.500	205.502	80.008	19.995	103.283	19.950	4.912	0.518
237.000	206.277	80.007	19.996	103.266	19.950	4.952	0.517
238.500	207.041	80.003	19.994	103.268	19.948	5.048	0.492
240.000	207.768	80.006	19.997	103.277	19.945	5.249	0.486
241.501	208.520	80.004	19.994	103.271	19.945	5.251	0.511
243.000	209.238	80.004	19.994	103.270	19.946	5.214	0.484
244.500	209.960	80.003	19.995	103.275	19.945	5.259	0.478
246.000	210.728	80.004	19.996	103.282	19.947	5.156	0.491
247.500	211.449	80.006	19.995	103.281	19.947	5.098	0.483
249.000	212.188	80.004	19.995	103.276	19.943	5.361	0.502
250.500	212.963	80.004	19.996	103.267	19.942	5.436	0.507
252.000	213.722	80.005	19.995	103.272	19.943	5.411	0.521
253.500	214.442	80.003	19.996	103.263	19.942	5.441	0.478
255.000	215.233	80.006	19.995	103.262	19.944	5.308	0.511
256.500	215.911	80.005	19.995	103.271	19.944	5.326	0.458
258.000	216.683	80.007	19.995	103.290	19.942	5.444	0.510
259.500	217.467	80.007	19.995	103.291	19.941	5.541	0.525
261.000	218.206	80.006	19.994	103.288	19.943	5.402	0.505
262.500	218.939	80.005	19.995	103.278	19.941	5.500	0.496
264.000	219.718	80.004	19.994	103.267	19.940	5.596	0.509
265.500	220.472	80.007	19.995	103.264	19.942	5.448	0.491
267.000	221.197	80.004	19.994	103.272	19.943	5.374	0.489
268.500	221.948	80.002	19.996	103.274	19.939	5.664	0.519
270.000	222.725	80.002	19.995	103.263	19.940	5.595	0.501
271.500	223.455	80.006	19.995	103.258	19.939	5.636	0.481
273.000	224.193	80.002	19.995	103.262	19.943	5.397	0.477
274.500	224.958	80.002	19.996	103.280	19.940	5.594	0.507
276.000	225.712	80.005	19.996	103.276	19.941	5.512	0.502
277.500	226.475	80.001	19.995	103.258	19.937	5.743	0.491
279.000	227.214	80.004	19.995	103.261	19.939	5.659	0.516
280.500	227.969	80.003	19.996	103.266	19.940	5.553	0.494
282.000	228.729	80.003	19.995	103.265	19.941	5.510	0.517
283.500	229.504	80.001	19.996	103.265	19.940	5.559	0.528
285.000	230.240	80.005	19.996	103.260	19.935	5.899	0.498
286.500	231.012	80.005	19.995	103.259	19.938	5.691	0.496
288.000	231.740	80.005	19.995	103.264	19.939	5.650	0.505
289.500	232.454	80.002	19.994	103.263	19.939	5.616	0.476
291.000	233.240	80.003	19.995	103.258	19.938	5.731	0.538
292.500	233.950	80.005	19.994	103.261	19.940	5.549	0.481
294.000	234.696	80.004	19.995	103.261	19.938	5.689	0.504
295.500	235.458	80.004	19.994	103.260	19.940	5.592	0.499
297.000	236.203	80.005	19.996	103.262	19.940	5.610	0.470
298.500	236.960	80.004	19.995	103.260	19.938	5.734	0.503
300.000	237.732	80.003	19.995	103.257	19.938	5.684	0.492
301.500	238.445	80.004	19.996	103.258	19.939	5.672	0.474
303.000	239.205	80.003	19.996	103.258	19.937	5.808	0.501
304.500	239.994	80.004	19.996	103.258	19.937	5.785	0.522
306.000	240.711	80.003	19.996	103.258	19.935	5.908	0.478
307.500	241.440	80.004	19.996	103.257	19.938	5.711	0.487
309.000	242.197	80.004	19.995	103.257	19.943	5.416	0.492
310.500	242.957	80.004	19.996	103.263	19.937	5.753	0.491
312.000	243.710	80.006	19.995	103.267	19.942	5.462	0.526
313.500	244.504	80.005	19.994	103.260	19.938	5.682	0.502
315.000	245.242	80.005	19.994	103.265	19.936	5.837	0.496
316.500	245.981	80.006	19.994	103.263	19.935	5.906	0.481
318.000	246.764	80.006	19.994	103.259	19.933	6.050	0.518
319.500	247.495	80.005	19.994	103.267	19.937	5.774	0.483
321.000	248.189	80.006	19.994	103.271	19.933	6.034	0.473
322.501	248.986	80.005	19.994	103.263	19.937	5.756	0.498
324.000	249.782	80.003	19.995	103.262	19.938	5.727	0.521
325.500	250.546	80.005	19.995	103.261	19.930	6.227	0.516
327.000	251.298	80.005	19.996	103.262	19.933	6.019	0.470
328.500	252.062	80.005	19.995	103.259	19.932	6.104	0.493
330.000	252.749	80.002	19.995	103.261	19.931	6.177	0.470
331.500	253.541	80.005	19.995	103.261	19.929	6.273	0.517
333.000	254.304	80.004	19.994	103.260	19.926	6.522	0.490
334.500	255.018	80.007	19.995	103.261	19.923	6.703	0.469
336.000	255.818	80.007	19.996	103.262	19.924	6.626	0.557
337.500	256.588	80.004	19.995	103.262	19.923	6.703	0.521
339.000	257.282	80.005	19.995	103.262	19.919	6.951	0.474
340.500	258.067	80.006	19.995	103.262	19.918	6.983	0.527
342.000	258.816	80.006	19.995	103.274	19.917	7.051	0.506
343.500	259.568	80.006	19.995	103.276	19.913	7.342	0.497
345.000	260.313	80.005	19.995	103.268	19.912	7.386	0.501
346.500	261.067	80.005	19.997	103.264	19.914	7.286	0.497
348.000	261.776	80.003	19.996	103.263	19.914	7.302	0.483
349.500	262.547	80.003	19.995	103.269	19.911	7.438	0.523
351.000	263.317	80.004	19.995	103.275	19.910	7.540	0.491
352.500	264.062	80.005	19.996	103.265	19.910	7.551	0.499
354.000	264.774	80.003	19.995	103.270	19.908	7.632	0.455
355.500	265.542	80.005	19.995	103.267	19.908	7.640	0.520
357.000	266.272	80.002	19.996	103.274	19.903	7.970	0.490
358.500	267.030	80.002	19.994	103.271	19.904	7.891	0.512
360.000	267.803	80.002	19.995	103.260	19.900	8.158	0.522
361.500	268.563	80.003	19.995	103.261	19.898	8.336	0.519
363.000	269.284	80.004	19.995	103.266	19.895	8.519	0.459
364.501	270.085	80.001	19.995	103.271	19.891	8.737	0.533
366.000	270.849	80.004	19.996	103.264	19.893	8.628	0.531
367.500	271.642	80.004	19.996	103.257	19.885	9.131	0.535
369.000	272.397	80.004	19.997	103.256	19.885	9.169	0.506
370.500	273.159	80.005	19.996	103.256	19.878	9.604	0.495
372.000	273.901	80.003	19.996	103.258	19.878	9.586	0.511
373.500	274.657	80.003	19.995	103.260	19.874	9.874	0.506
375.000	275.383	80.002	19.996	103.266	19.869	10.165	0.491
376.500	276.122	80.003	19.996	103.273	19.868	10.275	0.485
378.000	276.851	80.002	19.996	103.284	19.864	10.515	0.497
379.500	277.619	80.002	19.996	103.290	19.860	10.750	0.518
381.000	278.379	80.003	19.995	103.299	19.860	10.793	0.477
382.500	279.140	80.004	19.995	103.298	19.856	11.012	0.492
384.000	279.890	80.004	19.995	103.296	19.852	11.301	0.472
385.500	280.651	80.003	19.995	103.299	19.849	11.505	0.509
387.000	281.348	80.004	19.995	103.300	19.846	11.706	0.481
388.500	282.092	80.000	19.995	103.300	19.843	11.910	0.506
390.000	282.853	80.005	19.995	103.298	19.840	12.054	0.511
391.500	283.634	80.005	19.994	103.298	19.837	12.305	0.513
393.000	284.342	80.004	19.994	103.299	19.831	12.637	0.466
394.500	285.118	80.004	19.995	103.298	19.827	12.894	0.519
396.000	285.861	80.005	19.995	103.299	19.829	12.808	0.530
397.500	286.590	80.003	19.995	103.298	19.823	13.197	0.489
399.000	287.367	80.005	19.995	103.297	19.822	13.254	0.504
400.500	288.058	80.004	19.995	103.299	19.819	13.462	0.476
402.000	288.822	80.004	19.995	103.301	19.817	13.553	0.510
403.500	289.591	80.004	19.995	103.301	19.808	14.131	0.499
405.000	290.381	80.003	19.995	103.301	19.807	14.239	0.530
406.500	291.106	80.004	19.996	103.301	19.805	14.343	0.495
408.000	291.927	80.003	19.995	103.302	19.800	14.664	0.535
409.500	292.650	80.003	19.995	103.300	19.797	14.897	0.495
411.000	293.377	80.004	19.995	103.300	19.794	15.098	0.499
412.500	294.164	80.008	19.993	103.293	19.785	15.633	0.534
414.000	294.946	80.009	19.995	103.298	19.783	15.764	0.526
415.500	295.738	80.007	19.993	103.297	19.779	16.066	0.525
417.000	296.492	80.006	19.995	103.299	19.773	16.465	0.502
418.500	297.192	80.008	19.993	103.302	19.768	16.746	0.497
420.000	297.990	80.005	19.994	103.305	19.761	17.222	0.544
421.500	298.723	80.007	19.995	103.318	19.759	17.363	0.501
423.000	299.467	80.005	19.996	103.315	19.750	17.946	0.503
424.500	300.217	80.005	19.994	103.305	19.750	17.921	0.507
426.000	300.963	80.003	19.996	103.312	19.747	18.129	0.495
427.500	301.697	80.005	19.995	103.323	19.744	18.340	0.500
429.000	302.485	80.001	19.995	103.323	19.738	18.716	0.530
430.500	303.228	80.004	19.995	103.332	19.731	19.176	0.506
432.000	303.977	80.005	19.996	103.331	19.728	19.356	0.511
433.500	304.731	80.004	19.995	103.335	19.720	19.893	0.504
435.000	305.490	80.002	19.996	103.335	19.719	19.943	0.506
436.501	306.248	80.004	19.997	103.336	19.714	20.259	0.511
438.000	307.031	80.005	19.996	103.336	19.709	20.622	0.520
439.500	307.784	80.004	19.995	103.336	19.702	21.043	0.511
441.000	308.570	80.005	19.996	103.342	19.694	21.574	0.523
442.500	309.374	80.005	19.995	103.341	19.690	21.844	0.538
444.000	310.090	80.004	19.995	103.337	19.685	22.135	0.464
445.500	310.852	80.005	19.995	103.337	19.678	22.586	0.526
447.000	311.634	80.004	19.995	103.340	19.678	22.589	0.551
448.500	312.454	80.002	19.995	103.340	19.667	23.347	0.549
450.000	313.149	80.002	19.995	103.338	19.661	23.721	0.483
451.500	313.899	80.004	19.995	103.340	19.655	24.127	0.518
453.000	314.713	80.001	19.996	103.349	19.652	24.293	0.520
454.500	315.422	80.003	19.996	103.346	19.643	24.875	0.485
456.000	316.205	80.001	19.996	103.344	19.642	24.995	0.520
457.500	316.938	80.005	19.995	103.356	19.637	25.322	0.488
459.000	317.765	80.005	19.995	103.356	19.628	25.899	0.564
460.500	318.509	80.003	19.996	103.351	19.623	26.227	0.502
462.000	319.290	80.002	19.996	103.370	19.616	26.670	0.535
463.500	320.010	80.002	19.995	103.377	19.613	26.882	0.498
465.000	320.773	80.005	19.996	103.376	19.603	27.505	0.525
466.500	321.542	80.004	19.995	103.377	19.597	27.918	0.516
468.000	322.268	80.003	19.996	103.376	19.589	28.426	0.495
469.500	323.066	80.005	19.996	103.379	19.579	29.084	0.522
471.000	323.811	80.006	19.995	103.379	19.575	29.357	0.505
472.500	324.552	80.003	19.995	103.378	19.565	29.942	0.492
474.000	325.322	80.003	19.995	103.379	19.558	30.411	0.516
475.500	326.053	80.007	19.994	103.380	19.552	30.842	0.490
477.000	326.848	80.006	19.996	103.378	19.546	31.200	0.529
478.500	327.576	80.006	19.996	103.382	19.535	31.918	0.500
480.000	328.365	80.009	19.994	103.391	19.528	32.418	0.505
481.500	329.106	80.005	19.995	103.398	19.519	32.944	0.491
483.000	329.907	80.004	19.995	103.382	19.510	33.557	0.516
484.500	330.615	80.003	19.996	103.387	19.504	33.971	0.480
486.000	331.369	80.004	19.995	103.400	19.495	34.513	0.514
487.501	332.148	80.004	19.995	103.410	19.484	35.262	0.516
489.000	332.911	80.008	19.995	103.408	19.479	35.585	0.514
490.500	333.715	80.006	19.994	103.409	19.466	36.436	0.542
492.000	334.473	80.005	19.996	103.411	19.457	37.006	0.488
493.500	335.255	80.006	19.994	103.411	19.444	37.871	0.507
495.000	335.975	80.005	19.995	103.413	19.436	38.356	0.499
496.500	336.756	80.004	19.995	103.417	19.422	39.330	0.533
498.000	337.518	80.004	19.995	103.412	19.415	39.779	0.487
499.500	338.293	80.003	19.995	103.424	19.400	40.758	0.511
501.000	339.040	80.009	19.994	103.439	19.385	41.702	0.506
502.500	339.809	80.005	19.995	103.438	19.376	42.316	0.516
504.000	340.565	80.006	19.995	103.439	19.366	42.969	0.505
505.500	341.322	80.004	19.995	103.445	19.350	44.014	0.509
507.000	342.091	80.005	19.995	103.450	19.340	44.631	0.495
508.500	342.833	80.003	19.994	103.454	19.330	45.298	0.493
510.000	343.576	80.002	19.994	103.455	19.316	46.242	0.485
511.500	344.347	80.004	19.995	103.455	19.300	47.235	0.514
513.000	345.069	80.002	19.994	103.459	19.288	48.014	0.477
514.500	345.808	80.004	19.995	103.469	19.277	48.778	0.473
516.000	346.581	80.003	19.995	103.471	19.261	49.814	0.530
517.500	347.335	80.004	19.995	103.466	19.248	50.637	0.502
519.000	348.066	80.004	19.995	103.472	19.233	51.583	0.497
520.500	348.844	80.005	19.995	103.484	19.222	52.345	0.518
522.000	349.669	80.004	19.995	103.491	19.208	53.245	0.535
523.500	350.358	80.004	19.995	103.493	19.196	54.038	0.472
525.000	351.160	80.005	19.995	103.494	19.187	54.613	0.530
526.500	351.903	80.001	19.997	103.493	19.171	55.631	0.505
528.000	352.701	80.003	19.996	103.491	19.163	56.146	0.519
529.500	353.450	80.002	19.996	103.488	19.151	56.942	0.507
531.000	354.197	80.004	19.995	103.487	19.144	57.408	0.505
532.500	354.992	80.003	19.995	103.496	19.135	58.002	0.525
534.000	355.755	80.004	19.995	103.496	19.123	58.782	0.525
535.500	356.507	80.006	19.994	103.497	19.113	59.404	0.502
537.000	357.257	80.005	19.996	103.496	19.112	59.495	0.511
538.500	358.028	80.002	19.996	103.494	19.107	59.792	0.518
540.000	358.777	80.002	19.996	103.492	19.102	60.110	0.483
541.500	359.550	80.003	19.996	103.492	19.100	60.228	0.534
543.000	360.296	80.003	19.995	103.488	19.099	60.307	0.500
544.500	361.034	80.002	19.995	103.485	19.098	60.381	0.508
546.000	361.802	80.004	19.997	103.477	19.101	60.138	0.516
547.500	362.570	80.004	19.996	103.460	19.104	60.001	0.508
549.000	363.309	80.004	19.996	103.454	19.107	59.798	0.509
550.500	364.082	80.005	19.995	103.451	19.114	59.320	0.503
552.000	364.839	80.004	19.996	103.449	19.122	58.760	0.521
553.500	365.639	80.004	19.996	103.433	19.132	58.126	0.540
555.000	366.350	80.005	19.996	103.419	19.149	56.987	0.481
556.500	367.119	80.002	19.996	103.417	19.159	56.357	0.520
558.000	367.880	80.005	19.995	103.413	19.173	55.463	0.496
559.500	368.627	80.005	19.996	103.401	19.191	54.251	0.505
561.000	369.469	80.005	19.995	103.391	19.208	53.160	0.556
562.500	370.212	80.006	19.995	103.381	19.228	51.815	0.497
564.000	370.966	80.005	19.995	103.375	19.250	50.406	0.504
565.500	371.731	80.007	19.995	103.361	19.270	49.119	0.517
567.000	372.508	80.006	19.994	103.339	19.288	47.899	0.528
568.500	373.302	80.005	19.994	103.329	19.316	46.124	0.544
570.000	374.101	80.006	19.996	103.309	19.340	44.544	0.525
571.500	374.858	80.006	19.996	103.304	19.358	43.367	0.495
573.000	375.650	80.008	19.995	103.298	19.385	41.637	0.521
574.500	376.427	80.006	19.996	103.294	19.411	39.944	0.518
576.000	377.194	80.008	19.994	103.280	19.431	38.622	0.517
577.500	377.991	80.006	19.994	103.264	19.453	37.214	0.519
579.000	378.765	80.006	19.995	103.260	19.472	35.949	0.519
580.500	379.514	80.007	19.995	103.258	19.493	34.605	0.483
582.000	380.300	80.006	19.995	103.256	19.514	33.209	0.537
583.500	381.066	80.006	19.994	103.239	19.532	32.094	0.516
585.000	381.782	80.004	19.995	103.229	19.547	31.118	0.472
586.500	382.597	80.005	19.995	103.231	19.562	30.141	0.529
588.000	383.393	80.004	19.995	103.222	19.575	29.258	0.506
589.500	384.167	80.003	19.995	103.223	19.584	28.715	0.512
591.000	384.929	80.003	19.995	103.230	19.592	28.191	0.508
592.500	385.676	80.004	19.996	103.227	19.600	27.633	0.481
594.000	386.462	80.004	19.995	103.238	19.607	27.202	0.533
595.500	387.233	80.003	19.994	103.231	19.606	27.241	0.516
597.000	387.945	80.004	19.995	103.226	19.606	27.281	0.475
598.500	388.760	80.004	19.996	103.224	19.605	27.303	0.525
600.000	389.513	80.004	19.993	103.223	19.599	27.741	0.494
601.500	390.295	80.004	19.994	103.223	19.595	28.007	0.504
603.000	391.076	80.005	19.995	103.220	19.589	28.368	0.538
604.500	391.812	80.006	19.994	103.223	19.586	28.577	0.504
606.000	392.611	80.005	19.995	103.223	19.577	29.180	0.528
607.500	393.399	80.001	19.995	103.218	19.568	29.712	0.514
609.000	394.201	80.004	19.995	103.218	19.567	29.785	0.525
610.500	394.960	80.003	19.995	103.222	19.556	30.540	0.522
612.000	395.671	80.004	19.995	103.221	19.548	31.039	0.495
613.500	396.456	80.002	19.995	103.219	19.538	31.672	0.507
615.000	397.191	80.003	19.994	103.224	19.526	32.447	0.483
616.500	397.958	80.002	19.996	103.233	19.516	33.098	0.503
618.000	398.727	80.002	19.995	103.224	19.505	33.852	0.523
619.500	399.500	80.003	19.995	103.222	19.498	34.251	0.515
621.000	400.230	80.003	19.995	103.222	19.490	34.779	0.479
622.500	401.023	80.004	19.995	103.236	19.486	35.040	0.509
624.000	401.756	80.004	19.996	103.238	19.474	35.858	0.494
625.500	402.564	80.004	19.995	103.231	19.475	35.799	0.530
627.000	403.333	80.004	19.995	103.228	19.463	36.559	0.496
628.500	404.103	80.005	19.995	103.220	19.459	36.836	0.493
630.000	404.806	80.003	19.995	103.222	19.454	37.147	0.479
631.500	405.613	80.003	19.995	103.219	19.454	37.102	0.540
633.000	406.326	80.003	19.995	103.221	19.456	37.009	0.451
634.500	407.074	80.007	19.995	103.222	19.454	37.149	0.448
636.000	407.827	80.005	19.995	103.218	19.454	37.159	0.516
637.500	408.624	80.003	19.995	103.220	19.461	36.696	0.531
639.000	409.389	80.005	19.995	103.222	19.466	36.351	0.518
640.500	410.153	80.005	19.996	103.222	19.468	36.206	0.510
642.000	410.923	80.004	19.996	103.219	19.469	36.135	0.535
643.500	411.652	80.004	19.997	103.218	19.489	34.864	0.500
645.000	412.382	80.005	19.995	103.216	19.504	33.872	0.503
646.500	413.107	80.003	19.996	103.209	19.513	33.307	0.503
648.000	413.889	80.003	19.996	103.210	19.528	32.346	0.464
649.500	414.684	80.003	19.996	103.218	19.544	31.304	0.498
651.000	415.370	80.006	19.995	103.212	19.564	29.981	0.510
652.500	416.023	80.006	19.995	103.192	19.581	28.892	0.444
654.000	416.766	80.007	19.994	103.193	19.603	27.439	0.342
655.500	417.530	80.006	19.996	103.193	19.626	25.980	0.418
657.000	418.116	80.004	19.994	103.194	19.650	24.428	0.539
658.500	419.217	80.004	19.995	103.195	19.671	23.021	0.479
660.000	419.950	80.005	19.995	103.195	19.692	21.680	0.454
661.500	420.775	80.004	19.995	103.187	19.715	20.207	0.509
663.000	421.474	80.005	19.994	103.195	19.734	18.948	0.503
664.500	422.199	80.006	19.994	103.197	19.749	17.948	0.538
666.000	422.991	80.005	19.997	103.202	19.768	16.764	0.547
667.500	423.756	80.006	19.996	103.194	19.787	15.515	0.535
669.000	424.466	80.007	19.996	103.186	19.803	14.457	0.495
670.501	425.284	80.003	19.995	103.189	19.817	13.553	0.563
672.000	426.078	80.004	19.996	103.190	19.830	12.714	0.500
673.500	426.800	80.002	19.994	103.191	19.841	12.000	0.459
675.000	427.550	80.005	19.996	103.183	19.849	11.452	0.495
676.500	428.293	80.001	19.995	103.185	19.863	10.566	0.503
678.000	429.038	80.004	19.996	103.188	19.868	10.267	0.495
679.500	429.785	80.005	19.995	103.184	19.878	9.629	0.475
681.000	430.551	80.004	19.995	103.182	19.882	9.346	0.544
682.501	431.238	80.008	19.994	103.182	19.888	8.970	0.468
684.000	432.045	80.004	19.994	103.185	19.895	8.490	0.520
685.500	432.805	80.004	19.996	103.193	19.898	8.291	0.524
687.000	433.565	80.004	19.995	103.185	19.901	8.077	0.486
688.500	434.328	80.003	19.996	103.184	19.905	7.853	0.500
690.000	435.075	80.003	19.995	103.185	19.911	7.488	0.511
691.500	435.787	80.004	19.996	103.181	19.913	7.302	0.465
693.000	436.590	80.005	19.994	103.188	19.916	7.123	0.545
694.500	437.338	80.006	19.994	103.191	19.918	6.974	0.491
696.000	438.108	80.003	19.995	103.187	19.921	6.814	0.502
697.501	438.810	80.004	19.995	103.182	19.926	6.517	0.467
699.000	439.554	80.004	19.995	103.184	19.927	6.404	0.519
700.500	440.314	80.003	19.995	103.185	19.930	6.208	0.494
702.000	441.063	80.003	19.995	103.184	19.933	6.051	0.512
703.500	441.807	80.004	19.995	103.186	19.937	5.777	0.508
705.000	442.552	80.004	19.996	103.187	19.938	5.709	0.488
706.500	443.312	80.005	19.996	103.183	19.937	5.768	0.496
708.000	444.042	80.003	19.996	103.184	19.941	5.537	0.486
709.500	444.768	80.004	19.997	103.185	19.940	5.580	0.496
711.000	445.543	80.008	19.995	103.182	19.942	5.433	0.527
712.500	446.300	80.005	19.995	103.182	19.949	5.003	0.484
714.000	447.067	80.004	19.994	103.183	19.949	5.013	0.493
715.500	447.796	80.006	19.996	103.186	19.950	4.911	0.510
717.000	448.570	80.003	19.996	103.185	19.951	4.886	0.513
718.500	449.282	80.004	19.995	103.184	19.950	4.900	0.481
720.000	450.046	80.003	19.995	103.186	19.953	4.716	0.492
721.501	450.835	80.003	19.995	103.187	19.954	4.682	0.524
723.000	451.577	80.003	19.994	103.188	19.953	4.732	0.487
724.500	452.323	80.005	19.995	103.185	19.956	4.533	0.494
726.000	453.055	80.005	19.995	103.183	19.956	4.569	0.481
727.500	453.829	80.002	19.996	103.187	19.958	4.427	0.506
729.000	454.603	80.005	19.996	103.185	19.961	4.225	0.506
730.500	455.315	80.005	19.996	103.180	19.962	4.165	0.479
732.000	456.089	80.006	19.996	103.183	19.965	3.940	0.511
733.500	456.824	80.006	19.996	103.182	19.963	4.053	0.483
735.000	457.602	80.006	19.995	103.178	19.967	3.823	0.513
736.500	458.360	80.005	19.995	103.178	19.967	3.827	0.510
738.000	459.113	80.005	19.996	103.177	19.966	3.897	0.490
739.500	459.899	80.005	19.996	103.175	19.968	3.780	0.521
741.001	460.706	80.006	19.995	103.175	19.967	3.795	0.510
742.500	461.446	80.005	19.996	103.177	19.967	3.843	0.498
744.000	462.241	80.006	19.995	103.177	19.970	3.603	0.523
745.500	462.963	80.004	19.994	103.178	19.972	3.503	0.465
747.000	463.727	80.006	19.994	103.179	19.972	3.476	0.535
748.500	464.488	80.005	19.995	103.182	19.970	3.637	0.492
750.000	465.237	80.004	19.995	103.182	19.971	3.578	0.486
751.500	465.999	80.004	19.995	103.180	19.975	3.336	0.510
753.000	466.724	80.006	19.995	103.178	19.975	3.300	0.477
754.500	467.517	80.005	19.995	103.179	19.975	3.302	0.523
756.000	468.262	80.005	19.996	103.180	19.974	3.399	0.510
757.500	469.038	80.004	19.995	103.180	19.974	3.356	0.509
759.000	469.820	80.003	19.995	103.181	19.977	3.186	0.523
760.500	470.560	80.003	19.994	103.178	19.977	3.159	0.504
762.000	471.343	80.004	19.995	103.176	19.980	2.976	0.530
763.500	472.068	80.004	19.995	103.180	19.978	3.137	0.493
765.000	472.848	80.006	19.994	103.180	19.979	3.049	0.529
766.500	473.632	80.004	19.995	103.179	19.979	3.048	0.508
768.000	474.402	80.002	19.994	103.178	19.976	3.213	0.504
769.500	475.171	80.006	19.995	103.180	19.980	3.010	0.513
771.000	475.966	80.005	19.995	103.182	19.978	3.126	0.518
772.500	476.741	80.005	19.995	103.183	19.980	2.974	0.513
774.000	477.495	80.003	19.996	103.184	19.981	2.883	0.494
775.500	478.257	80.002	19.994	103.180	19.983	2.804	0.511
777.000	479.055	80.005	19.996	103.180	19.979	3.044	0.523
778.500	479.848	80.005	19.995	103.183	19.980	2.963	0.525
780.000	480.571	80.003	19.994	103.180	19.982	2.833	0.492
781.500	481.367	80.004	19.995	103.177	19.982	2.829	0.533
783.000	482.130	80.004	19.995	103.181	19.982	2.827	0.508
784.500	482.887	80.005	19.994	103.184	19.984	2.739	0.489
786.000	483.670	80.004	19.994	103.183	19.985	2.645	0.524
787.500	484.390	80.003	19.995	103.181	19.984	2.729	0.491
789.000	485.207	80.005	19.995	103.174	19.986	2.600	0.525
790.500	485.987	80.005	19.995	103.181	19.987	2.535	0.525
792.000	486.740	80.004	19.996	103.183	19.987	2.524	0.507
793.500	487.533	80.006	19.994	103.174	19.988	2.429	0.532
795.000	488.295	80.006	19.995	103.175	19.986	2.565	0.516
796.500	489.099	80.007	19.995	103.179	19.986	2.573	0.509
798.000	489.832	80.006	19.995	103.177	19.989	2.404	0.497
799.500	490.649	80.001	19.995	103.178	19.988	2.442	0.541
801.000	491.448	80.003	19.995	103.179	19.987	2.537	0.528
802.500	492.194	80.005	19.995	103.179	19.990	2.313	0.495
804.001	492.953	80.005	19.996	103.171	19.996	1.965	0.509
805.500	493.760	80.005	19.996	103.167	19.995	1.979	0.543
807.000	494.522	80.003	19.995	103.175	19.994	2.045	0.507
808.500	495.313	80.007	19.995	103.161	19.993	2.123	0.538
810.000	496.076	80.007	19.995	103.162	19.992	2.193	0.496
811.500	496.852	80.006	19.995	103.165	19.991	2.257	0.505
813.000	497.637	80.002	19.994	103.172	19.990	2.347	0.529
814.500	498.387	80.005	19.996	103.164	19.990	2.349	0.500
816.000	499.181	80.006	19.995	103.154	19.991	2.240	0.523
817.500	499.937	80.007	19.995	103.149	19.992	2.172	0.504
819.000	500.760	80.006	19.994	103.154	19.991	2.297	0.536
820.500	501.531	80.005	19.995	103.175	19.993	2.148	0.518
822.000	502.257	80.003	19.996	103.171	19.993	2.161	0.474
823.500	503.001	80.004	19.995	103.172	19.997	1.885	0.473
825.000	503.799	80.002	19.996	103.178	19.993	2.134	0.496
826.500	504.510	80.004	19.995	103.179	19.994	2.080	0.481
828.000	505.301	80.002	19.996	103.181	19.996	1.928	0.541
829.500	506.063	80.002	19.996	103.180	19.996	1.938	0.530
831.000	506.860	80.004	19.996	103.184	19.998	1.786	0.533
832.500	507.595	80.004	19.995	103.177	19.996	1.964	0.467
834.000	508.339	80.003	19.995	103.169	19.998	1.836	0.502
835.500	509.111	80.004	19.996	103.176	19.997	1.847	0.506
837.000	509.923	80.006	19.996	103.176	19.996	1.955	0.548
838.500	510.658	80.005	19.995	103.167	19.998	1.786	0.480
840.000	511.421	80.004	19.994	103.165	19.997	1.881	0.512
841.500	512.159	80.005	19.994	103.173	19.996	1.915	0.485
843.000	512.910	80.005	19.995	103.179	19.998	1.795	0.504
844.500	513.692	80.005	19.995	103.180	19.996	1.915	0.523
846.000	514.462	80.004	19.995	103.174	20.000	1.659	0.494
847.500	515.247	80.004	19.996	103.171	19.997	1.906	0.510
849.000	516.025	80.003	19.995	103.164	19.997	1.877	0.544
850.500	516.802	80.004	19.996	103.158	19.994	2.041	0.515
852.000	517.584	80.002	19.995	103.163	19.997	1.902	0.511
853.500	518.291	80.005	19.995	103.162	19.999	1.730	0.470
855.000	519.073	80.004	19.994	103.172	19.996	1.949	0.513
856.500	519.860	80.003	19.995	103.173	19.997	1.890	0.523
858.000	520.622	80.003	19.996	103.167	19.998	1.797	0.511
859.500	521.369	80.004	19.995	103.162	19.997	1.897	0.513
861.000	522.125	80.004	19.996	103.169	19.998	1.843	0.490
862.500	522.900	80.004	19.995	103.168	19.999	1.765	0.516
864.000	523.648	80.004	19.994	103.158	20.001	1.644	0.507
865.501	524.449	80.005	19.994	103.161	19.996	1.919	0.533
867.000	525.215	80.005	19.995	103.171	20.003	1.480	0.547
868.500	525.960	80.006	19.995	103.164	20.002	1.523	0.502
870.000	526.710	80.004	19.995	103.157	20.002	1.550	0.490
871.500	527.476	80.005	19.993	103.162	19.999	1.722	0.506
873.000	528.245	80.006	19.994	103.166	20.003	1.505	0.526
874.500	529.000	80.005	19.994	103.154	19.999	1.732	0.496
876.000	529.798	80.008	19.995	103.166	20.002	1.548	0.532
877.500	530.539	80.005	19.994	103.174	20.003	1.464	0.488
879.000	531.352	80.005	19.995	103.168	20.006	1.288	0.531
880.500	532.083	80.005	19.994	103.164	20.004	1.408	0.488
882.000	532.860	80.005	19.994	103.162	20.002	1.544	0.517
883.500	533.597	80.005	19.995	103.169	20.006	1.283	0.490
885.000	534.436	80.005	19.996	103.171	20.003	1.491	0.558
886.500	535.194	80.004	19.996	103.174	20.005	1.342	0.523
888.000	535.981	80.004	19.995	103.170	20.005	1.331	0.524
889.500	536.721	80.004	19.996	103.161	20.005	1.367	0.499
891.000	537.471	80.006	19.996	103.160	20.005	1.365	0.502
892.500	538.275	80.009	19.995	103.158	20.005	1.335	0.549
894.000	539.036	80.007	19.995	103.164	20.006	1.267	0.507
895.500	539.783	80.006	19.996	103.169	20.007	1.233	0.489
897.000	540.574	80.005	19.995	103.175	20.003	1.460	0.533
898.501	541.326	80.008	19.994	103.178	20.006	1.288	0.504
900.000	542.099	80.006	19.996	103.177	20.008	1.155	0.524
901.500	542.880	80.006	19.994	103.169	20.007	1.233	0.514
903.000	543.636	80.005	19.996	103.174	20.006	1.292	0.505
904.500	544.380	80.002	19.995	103.177	20.008	1.172	0.507
906.000	545.162	80.001	19.996	103.177	20.008	1.175	0.516
907.500	545.924	80.004	19.995	103.179	20.006	1.306	0.520
909.000	546.707	80.003	19.995	103.171	20.002	1.530	0.511
910.500	547.444	80.004	19.995	103.163	20.005	1.354	0.486
912.000	548.205	80.002	19.995	103.168	20.005	1.369	0.494
913.500	548.993	80.002	19.996	103.176	20.006	1.319	0.534
915.000	549.734	80.003	19.996	103.177	20.009	1.109	0.500
916.500	550.515	80.003	19.997	103.174	20.006	1.263	0.503
918.000	551.302	80.002	19.996	103.177	20.004	1.399	0.541
919.500	552.049	80.002	19.996	103.180	20.011	0.941	0.495
921.000	552.832	80.004	19.997	103.169	20.009	1.093	0.508
922.500	553.553	80.003	19.995	103.166	20.007	1.204	0.487
924.001	554.329	80.004	19.996	103.175	20.007	1.220	0.521
925.500	555.103	80.003	19.996	103.172	20.010	1.025	0.509
927.000	555.885	80.003	19.995	103.170	20.011	0.982	0.525
928.501	556.665	80.004	19.996	103.176	20.011	0.946	0.512
930.000	557.410	80.003	19.995	103.171	20.009	1.078	0.493
931.500	558.211	80.003	19.994	103.162	20.011	0.973	0.537
933.000	558.973	80.003	19.994	103.167	20.012	0.881	0.513
934.500	559.727	80.003	19.995	103.178	20.010	1.003	0.494
936.000	560.469	80.002	19.997	103.170	20.011	0.989	0.497
937.500	561.269	80.003	19.995	103.166	20.009	1.066	0.550
939.000	562.034	80.002	19.995	103.173	20.011	0.958	0.508
940.500	562.811	80.002	19.996	103.162	20.011	0.967	0.508
942.000	563.564	80.004	19.996	103.157	20.013	0.831	0.503
943.500	564.340	80.004	19.995	103.162	20.013	0.862	0.523
945.000	565.074	80.008	19.996	103.159	20.015	0.695	0.507
946.500	565.842	80.005	19.996	103.158	20.014	0.781	0.515
948.000	566.656	80.007	19.996	103.156	20.014	0.767	0.527
949.500	567.358	80.006	19.995	103.161	20.013	0.847	0.486
951.000	568.135	80.008	19.995	103.174	20.017	0.580	0.526
952.500	568.875	80.006	19.996	103.174	20.015	0.706	0.497
954.000	569.667	80.006	19.995	103.165	20.013	0.838	0.521
955.500	570.455	80.005	19.996	103.172	20.013	0.819	0.518
957.000	571.200	80.005	19.995	103.180	20.014	0.745	0.513
958.500	571.942	80.006	19.995	103.174	20.014	0.785	0.526
960.000	572.744	80.004	19.995	103.177	20.015	0.702	0.516
961.500	573.513	80.005	19.995	103.167	20.012	0.910	0.512
963.000	574.298	80.003	19.995	103.163	20.013	0.845	0.514
964.500	575.120	80.004	19.994	103.166	20.014	0.786	0.561
966.000	575.869	80.005	19.997	103.166	20.012	0.915	0.518
967.500	576.646	80.005	19.994	103.165	20.014	0.756	0.505
969.000	577.458	80.006	19.996	103.169	20.011	0.971	0.538
970.500	578.175	80.006	19.994	103.164	20.015	0.700	0.484
972.000	578.974	80.007	19.994	103.157	20.013	0.855	0.542
973.500	579.747	80.007	19.994	103.157	20.013	0.854	0.510
975.000	580.488	80.006	19.994	103.158	20.014	0.749	0.493
976.500	581.248	80.007	19.995	103.161	20.015	0.709	0.515
978.000	581.997	80.006	19.995	103.155	20.013	0.806	0.503
979.500	582.738	80.004	19.996	103.146	20.012	0.912	0.473
981.000	583.507	80.004	19.995	103.152	20.016	0.648	0.518
982.500	584.293	80.003	19.995	103.165	20.015	0.740	0.518
984.000	585.076	80.002	19.996	103.158	20.013	0.851	0.522
985.500	585.827	80.003	19.994	103.152	20.013	0.838	0.501
987.000	586.561	80.004	19.996	103.165	20.013	0.815	0.476
988.500	587.336	80.004	19.995	103.155	20.013	0.860	0.506
990.000	588.101	80.003	19.995	103.162	20.014	0.749	0.502
991.500	588.849	80.002	19.996	103.167	20.017	0.605	0.507
993.000	589.624	80.004	19.995	103.154	20.014	0.788	0.505
994.500	590.391	80.004	19.995	103.150	20.016	0.641	0.517
996.000	591.159	80.004	19.996	103.151	20.015	0.722	0.523
997.500	591.915	80.002	19.995	103.157	20.013	0.813	0.505
999.000	592.629	80.005	19.995	103.166	20.015	0.702	0.473
1000.500	593.420	80.002	19.996	103.161	20.014	0.752	0.539
1002.000	594.192	80.004	19.994	103.157	20.018	0.530	0.494
1003.500	594.949	80.003	19.996	103.154	20.016	0.613	0.501
1005.000	595.743	80.004	19.996	103.144	20.011	0.967	0.516
1006.500	596.527	80.004	19.995	103.146	20.015	0.722	0.512
1008.000	597.264	80.005	19.997	103.151	20.012	0.917	0.496
1009.500	598.034	80.003	19.997	103.146	20.013	0.815	0.525
1011.000	598.798	80.003	19.996	103.145	20.014	0.752	0.496
1012.500	599.550	80.003	19.996	103.145	20.014	0.799	0.499
1014.000	600.316	80.004	19.996	103.147	20.010	1.039	0.508
1015.500	601.071	80.002	19.995	103.144	20.014	0.779	0.516
1017.000	601.792	80.003	19.996	103.159	20.015	0.690	0.487
1018.500	602.536	80.003	19.997	103.159	20.015	0.717	0.501
1020.000	603.301	80.004	19.996	103.149	20.012	0.880	0.494
1021.500	604.080	80.004	19.996	103.147	20.014	0.759	0.500
1023.000	604.792	80.004	19.995	103.148	20.017	0.602	0.450
1024.500	605.592	80.006	19.995	103.162	20.018	0.510	0.530
1026.000	606.320	80.005	19.994	103.161	20.016	0.666	0.475
1027.500	607.094	80.004	19.995	103.166	20.013	0.813	0.525
1029.000	607.868	80.006	19.994	103.171	20.015	0.720	0.526
1030.500	608.626	80.005	19.994	103.168	20.012	0.919	0.524
1032.000	609.329	80.005	19.994	103.157	20.011	0.991	0.485
1033.500	610.145	80.004	19.995	103.149	20.012	0.880	0.546
1035.000	610.892	80.005	19.994	103.147	20.014	0.770	0.511
1036.500	611.639	80.004	19.994	103.157	20.013	0.828	0.494
1038.000	612.435	80.005	19.995	103.166	20.013	0.838	0.518
1039.500	613.197	80.005	19.995	103.173	20.015	0.695	0.519
1041.000	613.976	80.003	19.995	103.171	20.016	0.618	0.507
1042.501	614.729	80.005	19.995	103.166	20.015	0.724	0.510
1044.000	615.489	80.005	19.994	103.175	20.019	0.464	0.508
1045.500	616.261	80.005	19.996	103.165	20.013	0.840	0.497
1047.000	617.029	80.005	19.995	103.152	20.016	0.668	0.524
1048.500	617.784	80.006	19.995	103.150	20.018	0.498	0.504
1050.000	618.567	80.007	19.995	103.158	20.018	0.523	0.508
1051.500	619.350	80.006	19.995	103.165	20.014	0.761	0.535
1053.000	620.093	80.008	19.995	103.153	20.016	0.613	0.503
1054.500	620.865	80.006	19.994	103.149	20.015	0.713	0.499
1056.000	621.630	80.006	19.994	103.158	20.017	0.577	0.529
1057.500	622.357	80.004	19.994	103.161	20.017	0.595	0.513
1059.000	623.138	80.005	19.994	103.150	20.015	0.704	0.520
1060.500	623.892	80.006	19.995	103.151	20.016	0.636	0.487
1062.000	624.649	80.003	19.994	103.153	20.014	0.754	0.495
1063.500	625.382	80.006	19.995	103.150	20.016	0.648	0.508
1065.000	626.186	80.006	19.994	103.143	20.016	0.652	0.531
1066.500	626.922	80.004	19.995	103.146	20.017	0.571	0.517
1068.000	627.715	80.005	19.995	103.146	20.014	0.792	0.522
1069.500	628.445	80.003	19.996	103.153	20.015	0.731	0.488
1071.000	629.235	80.004	19.995	103.155	20.016	0.625	0.526
1072.500	629.984	80.005	19.995	103.145	20.014	0.747	0.500
1074.000	630.704	80.004	19.995	103.156	20.017	0.611	0.478
1075.500	631.461	80.003	19.997	103.169	20.016	0.657	0.500
1077.000	632.206	80.004	19.997	103.169	20.011	0.966	0.495
1078.500	632.964	80.004	19.996	103.158	20.017	0.591	0.499
1080.001	633.754	80.002	19.994	103.156	20.017	0.605	0.534
1081.500	634.488	80.005	19.995	103.157	20.019	0.464	0.481
1083.000	635.257	80.004	19.996	103.167	20.014	0.745	0.522
1084.500	636.001	80.003	19.995	103.181	20.017	0.588	0.502
1086.000	636.748	80.002	19.995	103.169	20.018	0.507	0.486
1087.500	637.504	80.003	19.995	103.163	20.017	0.559	0.481
1089.000	638.230	80.003	19.996	103.169	20.016	0.638	0.478
1090.500	638.995	80.003	19.996	103.155	20.017	0.568	0.506
1092.000	639.743	80.006	19.995	103.156	20.018	0.545	0.479
1093.500	640.485	80.003	19.996	103.163	20.011	0.969	0.517
1095.000	641.267	80.003	19.996	103.173	20.014	0.790	0.525
1096.500	642.023	80.004	19.996	103.178	20.016	0.654	0.505
1098.000	642.758	80.003	19.997	103.165	20.014	0.786	0.506
1099.500	643.531	80.003	19.996	103.163	20.014	0.776	0.519
1101.000	644.287	80.001	19.996	103.171	20.012	0.883	0.497
1102.500	645.033	80.004	19.996	103.169	20.012	0.928	0.488
1104.000	645.765	80.004	19.997	103.174	20.015	0.691	0.496
1105.500	646.470	80.003	19.996	103.171	20.015	0.691	0.462
1107.000	647.231	80.004	19.996	103.169	20.018	0.493	0.504
1108.500	647.999	80.005	19.995	103.169	20.016	0.632	0.504
1110.000	648.755	80.007	19.996	103.169	20.013	0.826	0.522
1111.500	649.499	80.004	19.995	103.163	20.018	0.491	0.503
1113.000	650.267	80.005	19.994	103.155	20.012	0.887	0.513
1114.500	651.034	80.005	19.995	103.162	20.012	0.935	0.506
1116.000	651.799	80.005	19.995	103.152	20.013	0.824	0.501
1117.500	652.498	80.008	19.994	103.151	20.015	0.731	0.455
1119.000	653.246	80.005	19.994	103.154	20.014	0.750	0.519
1120.500	654.061	80.006	19.995	103.155	20.013	0.865	0.546
1122.000	654.782	80.005	19.994	103.166	20.012	0.894	0.473
1123.500	655.506	80.004	19.995	103.148	20.016	0.672	0.481
1125.000	656.356	80.003	19.995	103.149	20.014	0.799	0.556
1126.500	657.088	80.005	19.995	103.161	20.011	0.962	0.482
1128.000	657.819	80.006	19.994	103.169	20.015	0.722	0.490
1129.500	658.574	80.006	19.996	103.154	20.010	1.007	0.507
1131.000	659.364	80.005	19.994	103.144	20.012	0.890	0.514
1132.500	660.060	80.007	19.994	103.152	20.015	0.695	0.486
1134.000	660.803	80.009	19.996	103.149	20.013	0.837	0.501
1135.500	661.542	80.008	19.994	103.155	20.013	0.812	0.480
1137.000	662.308	80.007	19.996	103.169	20.015	0.683	0.521
1138.500	663.033	80.007	19.995	103.171	20.013	0.817	0.453
1140.000	663.800	80.005	19.995	103.172	20.012	0.890	0.526
1141.500	664.524	80.003	19.995	103.177	20.011	0.973	0.508
1143.000	665.300	80.004	19.994	103.175	20.012	0.873	0.497
1144.500	666.073	80.006	19.994	103.170	20.011	0.976	0.510
1146.000	666.850	80.003	19.994	103.164	20.011	0.975	0.531
1147.500	667.589	80.002	19.994	103.168	20.013	0.845	0.489
1149.000	668.321	80.003	19.995	103.180	20.009	1.096	0.491
1150.500	669.109	80.005	19.995	103.182	20.013	0.863	0.554
1152.000	669.797	80.005	19.994	103.180	20.015	0.709	0.498
1153.500	670.553	80.006	19.995	103.180	20.017	0.588	0.499
1155.000	671.342	80.006	19.993	103.179	20.013	0.831	0.516
1156.500	672.110	80.005	19.996	103.176	20.014	0.785	0.528
1158.000	672.830	80.003	19.996	103.163	20.011	0.971	0.487
1159.500	673.564	80.003	19.995	103.153	20.013	0.824	0.520
1161.000	674.350	80.004	19.995	103.157	20.011	0.941	0.522
1162.500	675.101	80.003	19.997	103.173	20.011	0.978	0.511
1164.000	675.898	80.004	19.996	103.171	20.010	1.019	0.534
1165.500	676.663	80.004	19.995	103.161	20.013	0.826	0.492
1167.000	677.383	80.002	19.995	103.160	20.014	0.795	0.464
1168.500	678.165	80.001	19.995	103.154	20.016	0.661	0.514
1170.000	678.874	80.003	19.996	103.156	20.014	0.749	0.487
1171.500	679.655	80.006	19.996	103.169	20.017	0.593	0.509
1173.000	680.447	80.003	19.995	103.169	20.015	0.699	0.504
1174.500	681.197	80.002	19.996	103.163	20.013	0.836	0.492
1176.000	681.968	80.003	19.995	103.157	20.015	0.695	0.527
1177.500	682.688	80.005	19.995	103.151	20.015	0.738	0.490
1179.000	683.498	80.005	19.995	103.155	20.014	0.799	0.519
1180.500	684.246	80.004	19.996	103.150	20.016	0.645	0.520
1182.000	685.009	80.004	19.996	103.149	20.016	0.623	0.490
1183.500	685.722	80.005	19.995	103.143	20.013	0.818	0.492
1185.000	686.531	80.005	19.996	103.145	20.015	0.704	0.536
1186.500	687.310	80.005	19.995	103.153	20.017	0.557	0.533
1188.000	688.106	80.005	19.996	103.159	20.020	0.408	0.550
1189.500	688.829	80.005	19.995	103.152	20.014	0.759	0.483
1191.000	689.638	80.005	19.996	103.149	20.017	0.607	0.535
1192.500	690.348	80.007	19.996	103.143	20.016	0.634	0.479
1194.000	691.101	80.004	19.995	103.140	20.015	0.686	0.487
1195.500	691.833	80.003	19.997	103.140	20.020	0.387	0.503
1197.000	692.619	80.004	19.997	103.144	20.012	0.904	0.512
1198.500	693.391	80.005	19.997	103.153	20.017	0.605	0.510
1200.000	694.161	80.001	19.996	103.146	20.017	0.557	0.507
1201.500	694.872	80.005	19.998	103.143	20.018	0.536	0.545
1203.000	695.657	80.005	19.995	103.142	20.014	0.761	0.516
1204.500	696.413	80.005	19.996	103.140	20.014	0.783	0.513
1206.000	697.180	80.005	19.995	103.143	20.012	0.931	0.516
1207.500	697.960	80.006	19.994	103.142	20.012	0.912	0.505
1209.000	698.719	80.005	19.995	103.145	20.013	0.827	0.512
1210.500	699.441	80.006	19.996	103.143	20.015	0.720	0.503
1212.000	700.242	80.006	19.994	103.142	20.016	0.620	0.546
1213.500	701.016	80.007	19.994	103.139	20.014	0.745	0.503
1215.000	701.755	80.007	19.996	103.139	20.018	0.523	0.505
1216.500	702.501	80.007	19.994	103.142	20.011	0.998	0.504
1218.000	703.278	80.005	19.995	103.139	20.010	1.021	0.529
1219.500	704.008	80.003	19.995	103.133	20.018	0.536	0.491
1221.000	704.741	80.007	19.995	103.141	20.015	0.704	0.496
1222.500	705.510	80.004	19.995	103.140	20.012	0.901	0.534
1224.000	706.268	80.003	19.995	103.135	20.012	0.896	0.499
1225.500	707.021	80.004	19.994	103.137	20.016	0.652	0.495
1227.000	707.778	80.004	19.994	103.143	20.013	0.833	0.509
1228.500	708.542	80.003	19.995	103.143	20.013	0.811	0.505
1230.000	709.286	80.003	19.995	103.144	20.014	0.767	0.489
1231.500	710.032	80.003	19.995	103.144	20.014	0.750	0.489
1233.000	710.823	80.005	19.994	103.144	20.014	0.741	0.528
1234.500	711.534	80.004	19.996	103.149	20.013	0.836	0.461
1236.000	712.316	80.004	19.995	103.146	20.019	0.449	0.522
1237.500	713.049	80.004	19.995	103.143	20.017	0.571	0.491
1239.000	713.816	80.004	19.996	103.142	20.015	0.734	0.520
1240.500	714.605	80.006	19.995	103.141	20.013	0.820	0.515
1242.001	715.371	80.006	19.995	103.140	20.012	0.895	0.512
1243.500	716.103	80.005	19.995	103.141	20.013	0.840	0.493
1245.000	716.903	80.004	19.994	103.142	20.012	0.901	0.527
1246.500	717.619	80.003	19.995	103.137	20.020	0.358	0.490
1248.000	718.366	80.004	19.996	103.126	20.011	0.938	0.493
1249.500	719.128	80.005	19.995	103.129	20.012	0.935	0.520
1251.000	719.872	80.007	19.993	103.136	20.017	0.607	0.493
1252.500	720.650	80.003	19.995	103.141	20.016	0.634	0.507
1254.000	721.355	80.003	19.996	103.140	20.012	0.874	0.471
1255.500	722.128	80.003	19.995	103.140	20.017	0.548	0.528
1257.001	722.869	80.005	19.997	103.139	20.017	0.564	0.511
1258.500	723.611	80.002	19.996	103.132	20.010	1.007	0.490
1260.000	724.381	80.005	19.996	103.134	20.018	0.518	0.511
1261.500	725.117	80.004	19.996	103.141	20.014	0.795	0.489
1263.001	725.864	80.005	19.994	103.139	20.016	0.668	0.504
1264.500	726.618	80.007	19.995	103.135	20.016	0.661	0.507
1266.000	727.366	80.007	19.995	103.138	20.016	0.636	0.511
1267.500	728.139	80.010	19.994	103.137	20.015	0.691	0.500
1269.000	728.863	80.007	19.995	103.137	20.018	0.494	0.483
1270.500	729.654	80.008	19.995	103.137	20.016	0.634	0.515
1272.000	730.348	80.006	19.996	103.137	20.016	0.625	0.449
1273.500	731.147	80.007	19.996	103.141	20.021	0.338	0.521
1275.000	731.837	80.004	19.995	103.142	20.015	0.722	0.462
1276.500	732.621	80.005	19.996	103.142	20.023	0.176	0.512
1278.000	733.350	80.004	19.996	103.143	20.009	1.119	0.481
1279.500	734.123	80.003	19.995	103.135	20.014	0.783	0.512
1281.000	734.855	80.005	19.995	103.129	20.015	0.699	0.502
1282.500	735.608	80.006	19.996	103.136	20.017	0.598	0.496
1284.000	736.335	80.005	19.997	103.139	20.015	0.702	0.494
1285.500	737.113	80.009	19.995	103.141	20.014	0.777	0.524
1287.000	737.833	80.004	19.996	103.141	20.017	0.587	0.486
1288.500	738.617	80.007	19.996	103.141	20.009	1.093	0.531
1290.000	739.406	80.005	19.994	103.139	20.012	0.926	0.508
1291.500	740.052	80.000	19.995	103.142	20.012	0.883	0.424
1293.000	740.871	80.009	19.995	103.144	20.013	0.844	0.539
1294.500	741.614	80.004	19.994	103.141	20.013	0.867	0.515
1296.000	742.382	80.006	19.994	103.127	20.019	0.464	0.496
1297.500	743.100	80.003	19.994	103.130	20.012	0.915	0.492
1298.500	743.636	80.003	19.994	103.141	20.011	0.960	0.512