File: 01_Data/LatexPillow_B_Inner_Fabric/MCC/LatexPillow_B_Inner_Fabric_MCC_30K_min_211213_R2.txt
Sample ID:	C:\MCC\MCC Cal\Test\LatexPillow_B_Inner_Fabric_MCC_30K_min_211213_R2.txt
Sample Weight (mg):	4.75
Heating Rate (C/s):	0.5
Combustor Temp (C):	900
N2 Flow Rate (cc/min):	80
O2 Flow Rate (cc/min):	20
Calibration File:	C:\MCC\MCC Cal\Coeff1 JN10440_30_210304.txt.txt
T Correction Coefficients:	0	1.024463	0
Time Shift (s):	14
*
Time (s)	Temperature (C)	N2 flow rate (cc/min)	O2 flow rate (cc/min)	Flow Rate (cc/min)	Oxygen (%)	HRR (W/g)	Heating rate (C/s)
0.000	107.838	80.014	19.992	103.055	19.981	0.105	-0.004
2.000	107.874	80.008	19.996	103.066	19.979	0.218	0.009
4.000	107.901	80.011	19.994	103.055	19.983	-0.017	-0.007
6.000	107.876	80.013	19.993	103.068	19.981	0.126	-0.025
8.000	107.894	80.013	19.994	103.070	19.980	0.187	0.041
10.000	107.872	80.010	19.994	103.079	19.982	0.055	-0.024
12.000	107.899	80.009	19.993	103.092	19.979	0.242	0.015
14.000	107.919	80.005	19.993	103.091	19.979	0.259	0.006
16.001	107.942	80.013	19.995	103.097	19.975	0.525	0.003
18.000	108.000	80.007	19.994	103.134	19.972	0.680	0.011
20.000	108.051	80.009	19.995	103.150	19.970	0.832	0.005
22.000	108.079	80.006	19.994	103.164	19.966	1.099	-0.026
24.000	108.141	80.007	19.995	103.171	19.965	1.206	0.019
26.000	108.288	80.009	19.995	103.184	19.961	1.456	0.031
28.000	108.373	80.006	19.994	103.187	19.964	1.271	0.042
30.000	108.539	80.007	19.994	103.212	19.958	1.625	0.091
32.001	108.635	80.007	19.995	103.254	19.956	1.768	0.072
34.000	108.868	80.008	19.994	103.253	19.957	1.747	0.102
36.000	109.066	80.007	19.995	103.247	19.950	2.197	0.113
38.000	109.324	80.007	19.993	103.229	19.952	2.062	0.117
40.000	109.596	80.005	19.994	103.219	19.953	1.981	0.125
42.000	109.851	80.009	19.995	103.227	19.951	2.114	0.106
44.000	110.162	80.006	19.994	103.213	19.952	2.088	0.125
46.000	110.442	80.007	19.993	103.212	19.951	2.127	0.137
48.000	110.736	80.007	19.994	103.230	19.953	1.974	0.138
50.001	111.069	80.006	19.995	103.251	19.949	2.292	0.140
52.000	111.436	80.012	19.994	103.252	19.952	2.072	0.175
54.000	111.800	80.009	19.995	103.254	19.958	1.624	0.205
56.000	112.168	80.009	19.994	103.257	19.950	2.168	0.172
58.000	112.602	80.006	19.994	103.253	19.949	2.276	0.184
60.000	112.987	80.010	19.995	103.252	19.949	2.260	0.192
62.001	113.456	80.010	19.993	103.252	19.949	2.278	0.216
64.000	113.895	80.011	19.995	103.251	19.949	2.244	0.226
66.000	114.376	80.010	19.994	103.254	19.948	2.342	0.228
68.000	114.878	80.010	19.994	103.212	19.945	2.566	0.218
70.001	115.340	80.010	19.995	103.232	19.947	2.423	0.253
72.001	115.826	80.010	19.994	103.309	19.945	2.535	0.232
74.000	116.330	80.011	19.993	103.267	19.943	2.683	0.242
76.000	116.821	80.006	19.994	103.274	19.948	2.332	0.228
78.000	117.347	80.010	19.995	103.286	19.946	2.446	0.259
80.000	117.943	80.011	19.993	103.262	19.949	2.252	0.279
82.000	118.471	80.013	19.992	103.269	19.947	2.385	0.276
84.000	118.976	80.010	19.995	103.271	19.945	2.546	0.256
86.000	119.589	80.015	19.994	103.285	19.947	2.381	0.308
88.001	120.147	80.010	19.994	103.287	19.943	2.642	0.285
90.000	120.768	80.007	19.995	103.293	19.941	2.796	0.326
92.000	121.409	80.011	19.995	103.284	19.945	2.565	0.335
94.000	122.014	80.010	19.994	103.290	19.943	2.658	0.304
96.001	122.659	80.009	19.994	103.287	19.942	2.741	0.336
98.000	123.278	80.009	19.994	103.286	19.944	2.573	0.329
100.000	123.962	80.000	19.994	103.293	19.941	2.841	0.350
102.000	124.577	80.007	19.995	103.299	19.941	2.801	0.304
104.000	125.259	80.007	19.994	103.295	19.939	2.938	0.335
106.000	125.915	80.005	19.994	103.306	19.938	3.019	0.319
108.000	126.656	80.009	19.996	103.316	19.940	2.864	0.365
110.000	127.302	80.006	19.995	103.317	19.939	2.934	0.288
112.001	128.057	80.010	19.996	103.317	19.938	3.021	0.354
114.000	128.809	80.007	19.995	103.327	19.933	3.325	0.380
116.000	129.625	80.008	19.996	103.327	19.937	3.084	0.413
118.000	130.312	80.009	19.996	103.322	19.939	2.975	0.369
120.000	131.100	80.008	19.995	103.316	19.937	3.086	0.412
122.000	131.906	80.009	19.995	103.317	19.936	3.141	0.405
124.000	132.673	80.008	19.996	103.326	19.935	3.230	0.402
126.000	133.515	80.006	19.996	103.326	19.937	3.103	0.416
128.000	134.306	80.006	19.995	103.320	19.935	3.184	0.428
130.000	135.193	80.007	19.995	103.327	19.935	3.229	0.438
132.000	136.003	80.007	19.995	103.327	19.934	3.262	0.417
134.000	136.887	80.004	19.995	103.326	19.931	3.497	0.447
136.000	137.704	80.008	19.995	103.327	19.937	3.080	0.420
138.000	138.593	80.008	19.993	103.324	19.935	3.186	0.413
140.000	139.482	80.009	19.993	103.324	19.932	3.406	0.464
142.000	140.358	80.009	19.995	103.329	19.933	3.362	0.448
144.000	141.273	80.011	19.994	103.328	19.933	3.367	0.463
146.000	142.148	80.007	19.995	103.331	19.934	3.260	0.437
148.000	143.111	80.009	19.994	103.330	19.937	3.066	0.451
150.000	144.038	80.009	19.995	103.330	19.936	3.130	0.479
152.000	145.007	80.009	19.994	103.326	19.937	3.055	0.491
154.000	145.956	80.010	19.994	103.330	19.935	3.221	0.483
156.000	146.871	80.011	19.993	103.326	19.939	2.971	0.466
158.000	147.839	80.007	19.994	103.332	19.937	3.114	0.486
160.000	148.781	80.008	19.996	103.331	19.936	3.140	0.520
162.000	149.771	80.007	19.996	103.333	19.944	2.634	0.475
164.000	150.746	80.010	19.994	103.329	19.940	2.884	0.495
166.000	151.691	80.011	19.994	103.329	19.937	3.054	0.500
168.000	152.647	80.010	19.993	103.333	19.942	2.760	0.469
170.000	153.651	80.010	19.993	103.327	19.945	2.543	0.500
172.000	154.617	80.011	19.993	103.330	19.940	2.909	0.476
174.000	155.640	80.010	19.994	103.329	19.941	2.835	0.503
176.000	156.602	80.010	19.996	103.325	19.944	2.639	0.472
178.000	157.603	80.009	19.994	103.325	19.940	2.891	0.505
180.000	158.581	80.007	19.994	103.316	19.944	2.620	0.512
182.000	159.585	80.009	19.994	103.314	19.944	2.630	0.499
184.001	160.612	80.010	19.994	103.301	19.941	2.797	0.534
186.000	161.555	80.006	19.995	103.309	19.945	2.565	0.468
188.000	162.598	80.008	19.995	103.304	19.948	2.332	0.498
190.000	163.637	80.008	19.995	103.297	19.942	2.724	0.513
192.000	164.653	80.009	19.995	103.295	19.951	2.113	0.523
194.000	165.676	80.009	19.995	103.270	19.953	2.017	0.532
196.000	166.678	80.008	19.995	103.290	19.951	2.141	0.488
198.001	167.673	80.007	19.995	103.308	19.946	2.467	0.495
200.000	168.669	80.008	19.995	103.288	19.948	2.322	0.473
202.000	169.713	80.008	19.995	103.290	19.952	2.089	0.510
204.000	170.755	80.009	19.996	103.291	19.949	2.276	0.527
206.000	171.776	80.009	19.995	103.286	19.949	2.274	0.513
208.000	172.796	80.007	19.994	103.285	19.953	2.021	0.522
210.000	173.822	80.006	19.995	103.291	19.950	2.196	0.501
212.000	174.760	80.007	19.996	103.290	19.955	1.878	0.438
214.000	175.814	80.006	19.995	103.265	19.955	1.870	0.505
216.000	176.808	80.005	19.996	103.284	19.956	1.783	0.484
218.000	177.853	80.006	19.996	103.289	19.954	1.952	0.497
220.000	178.822	80.006	19.995	103.285	19.960	1.526	0.490
222.000	179.864	80.008	19.996	103.264	19.962	1.371	0.488
224.000	180.851	80.008	19.997	103.240	19.961	1.439	0.495
226.000	181.857	80.008	19.994	103.252	19.962	1.350	0.497
228.000	182.832	80.008	19.994	103.274	19.965	1.192	0.460
230.000	183.866	80.009	19.994	103.287	19.960	1.525	0.493
232.000	184.811	80.009	19.993	103.278	19.962	1.362	0.471
234.000	185.874	80.008	19.994	103.264	19.964	1.245	0.523
236.000	186.890	80.009	19.994	103.244	19.961	1.465	0.506
238.000	187.866	80.008	19.993	103.270	19.958	1.623	0.496
240.000	188.900	80.008	19.995	103.287	19.964	1.267	0.522
242.000	189.867	80.008	19.995	103.278	19.957	1.713	0.495
244.000	190.873	80.009	19.994	103.262	19.964	1.271	0.501
246.000	191.868	80.010	19.995	103.271	19.964	1.245	0.519
248.000	192.863	80.009	19.995	103.264	19.964	1.272	0.521
250.000	193.822	80.012	19.995	103.272	19.961	1.474	0.481
252.000	194.822	80.012	19.994	103.254	19.969	0.929	0.502
254.000	195.809	80.009	19.996	103.223	19.971	0.768	0.483
256.000	196.730	80.011	19.993	103.235	19.972	0.723	0.469
258.000	197.777	80.011	19.995	103.225	19.971	0.788	0.493
260.000	198.759	80.009	19.994	103.234	19.972	0.719	0.508
262.001	199.761	80.009	19.994	103.243	19.970	0.828	0.509
264.000	200.717	80.011	19.995	103.266	19.969	0.934	0.489
266.000	201.708	80.007	19.994	103.217	19.972	0.696	0.483
268.000	202.671	80.008	19.995	103.225	19.972	0.706	0.485
270.000	203.660	80.008	19.996	103.234	19.972	0.671	0.485
272.000	204.620	80.008	19.995	103.221	19.975	0.492	0.493
274.000	205.603	80.007	19.994	103.220	19.977	0.353	0.488
276.000	206.580	80.007	19.995	103.238	19.976	0.435	0.478
278.000	207.562	80.006	19.994	103.235	19.975	0.507	0.512
280.000	208.571	80.007	19.994	103.219	19.979	0.248	0.537
282.000	209.569	80.008	19.994	103.222	19.978	0.296	0.493
284.000	210.513	80.009	19.995	103.216	19.978	0.320	0.461
286.000	211.469	80.008	19.994	103.221	19.980	0.178	0.461
288.000	212.463	80.007	19.995	103.234	19.980	0.192	0.495
290.001	213.447	80.007	19.996	103.228	19.974	0.597	0.523
292.000	214.426	80.006	19.995	103.226	19.979	0.224	0.527
294.000	215.414	80.009	19.995	103.237	19.977	0.342	0.490
296.000	216.410	80.008	19.995	103.226	19.978	0.294	0.506
298.000	217.403	80.008	19.994	103.217	19.984	-0.100	0.525
300.000	218.411	80.009	19.995	103.223	19.980	0.133	0.518
302.000	219.347	80.009	19.995	103.220	19.981	0.061	0.512
304.000	220.313	80.008	19.994	103.220	19.979	0.229	0.480
306.000	221.267	80.009	19.995	103.217	19.986	-0.263	0.495
308.000	222.312	80.009	19.994	103.212	19.985	-0.163	0.530
310.000	223.217	80.008	19.995	103.214	19.981	0.067	0.496
312.000	224.169	80.008	19.995	103.214	19.980	0.135	0.464
314.000	225.159	80.011	19.995	103.214	19.979	0.263	0.477
316.000	226.223	80.010	19.996	103.252	19.983	-0.043	0.516
318.000	227.181	80.009	19.996	103.225	19.982	0.009	0.484
320.000	228.250	80.008	19.996	103.202	19.988	-0.370	0.576
322.000	229.180	80.010	19.995	103.207	19.980	0.165	0.488
324.000	230.280	80.009	19.995	103.212	19.978	0.316	0.537
326.000	231.192	80.010	19.994	103.211	19.980	0.196	0.428
328.000	232.098	80.008	19.995	103.216	19.981	0.124	0.364
330.000	233.403	80.011	19.993	103.219	19.986	-0.213	0.617
332.000	234.077	80.010	19.995	103.216	19.987	-0.316	0.617
334.000	235.466	80.011	19.994	103.218	19.986	-0.257	0.567
336.000	236.055	80.011	19.994	103.210	19.988	-0.357	0.441
338.000	237.036	80.009	19.995	103.210	19.990	-0.531	0.225
340.000	238.146	80.008	19.994	103.213	19.992	-0.655	0.573
342.000	239.257	80.009	19.994	103.212	19.992	-0.642	0.481
344.000	240.276	80.011	19.994	103.207	19.993	-0.728	0.480
346.000	241.301	80.006	19.993	103.211	19.994	-0.764	0.524
348.000	242.244	80.002	19.995	103.222	19.992	-0.682	0.460
350.000	243.274	80.006	19.995	103.223	19.993	-0.708	0.542
352.000	244.261	80.008	19.995	103.216	19.994	-0.806	0.476
354.000	245.228	80.006	19.996	103.207	19.995	-0.843	0.473
356.000	246.193	80.007	19.995	103.187	19.994	-0.755	0.468
358.000	247.202	80.007	19.995	103.186	19.993	-0.738	0.515
360.000	248.176	80.009	19.994	103.175	19.995	-0.855	0.483
362.000	249.243	80.007	19.994	103.260	19.994	-0.819	0.506
364.000	250.145	80.007	19.994	103.193	19.993	-0.692	0.484
366.000	251.176	80.008	19.994	103.222	19.994	-0.806	0.497
368.000	252.166	79.993	19.995	103.235	19.991	-0.608	0.506
370.000	253.133	80.009	19.994	103.248	19.993	-0.723	0.466
372.000	254.058	80.008	19.995	103.230	19.991	-0.577	0.508
374.001	255.037	80.007	19.995	103.216	19.992	-0.625	0.502
376.001	255.984	80.009	19.995	103.239	19.993	-0.688	0.484
378.000	257.016	80.011	19.994	103.233	19.993	-0.745	0.525
380.000	257.946	80.012	19.995	103.225	19.990	-0.522	0.491
382.000	258.921	80.006	19.995	103.226	19.987	-0.279	0.477
384.000	259.874	80.013	19.994	103.221	19.991	-0.590	0.477
386.000	260.824	80.005	19.996	103.236	19.989	-0.444	0.496
388.000	261.781	79.997	19.997	103.237	19.988	-0.390	0.448
390.000	262.815	80.015	19.994	103.232	19.986	-0.268	0.486
392.000	263.821	80.009	19.994	103.227	19.991	-0.599	0.522
394.000	264.726	80.011	19.994	103.228	19.989	-0.462	0.467
396.000	265.659	80.006	19.996	103.234	19.992	-0.623	0.488
398.000	266.677	80.014	19.993	103.231	19.987	-0.333	0.503
400.000	267.671	80.011	19.995	103.216	19.991	-0.588	0.535
402.000	268.647	80.012	19.995	103.229	19.991	-0.562	0.484
404.000	269.596	80.008	19.995	103.216	19.990	-0.536	0.491
406.000	270.664	80.009	19.995	103.221	19.987	-0.344	0.537
408.000	271.663	80.008	19.996	103.232	19.994	-0.766	0.539
410.000	272.676	80.021	19.995	103.230	19.988	-0.401	0.536
412.000	273.656	80.014	19.993	103.226	19.993	-0.693	0.493
414.000	274.646	80.011	19.996	103.223	19.996	-0.914	0.490
416.000	275.675	80.008	19.995	103.219	19.995	-0.882	0.489
418.000	276.673	80.020	19.993	103.230	19.999	-1.124	0.517
420.000	277.642	80.002	19.995	103.234	20.001	-1.232	0.498
422.000	278.665	80.009	19.994	103.225	20.000	-1.222	0.491
424.001	279.650	80.010	19.993	103.219	20.001	-1.281	0.511
426.000	280.684	80.003	19.994	103.230	20.003	-1.392	0.516
428.000	281.689	80.009	19.994	103.216	20.001	-1.228	0.489
430.000	282.740	80.006	19.994	103.215	20.002	-1.311	0.539
432.000	283.703	80.000	19.995	103.220	20.003	-1.370	0.544
434.000	284.732	80.004	19.995	103.218	20.005	-1.544	0.507
436.000	285.759	80.013	19.994	103.208	20.003	-1.422	0.497
438.000	286.764	80.007	19.995	103.215	20.005	-1.550	0.517
440.000	287.770	80.012	19.995	103.215	20.001	-1.287	0.505
442.000	288.790	80.012	19.994	103.214	20.002	-1.309	0.485
444.000	289.743	80.011	19.994	103.217	20.003	-1.424	0.487
446.000	290.790	80.008	19.995	103.218	20.004	-1.435	0.518
448.000	291.811	80.012	19.994	103.215	20.008	-1.703	0.502
450.000	292.796	80.007	19.994	103.217	20.002	-1.357	0.472
452.000	293.776	80.009	19.994	103.214	20.003	-1.391	0.484
454.000	294.793	79.999	19.996	103.215	20.008	-1.725	0.485
456.000	295.847	80.009	19.995	103.212	20.007	-1.683	0.502
458.001	296.860	80.008	19.994	103.218	20.009	-1.827	0.496
460.000	297.833	79.995	19.995	103.214	20.005	-1.563	0.489
462.000	298.908	80.007	19.994	103.211	20.011	-1.958	0.538
464.000	299.909	80.002	19.994	103.216	20.011	-1.951	0.514
466.000	300.902	80.003	19.995	103.214	20.010	-1.905	0.510
468.000	301.950	80.013	19.995	103.219	20.014	-2.165	0.539
470.000	302.979	80.008	19.993	103.218	20.014	-2.123	0.501
472.000	303.924	80.004	19.996	103.227	20.014	-2.149	0.503
474.000	304.976	80.005	19.995	103.219	20.014	-2.119	0.490
476.000	305.983	80.008	19.994	103.220	20.013	-2.090	0.490
478.000	307.034	80.009	19.994	103.217	20.016	-2.302	0.520
480.000	308.079	80.008	19.994	103.218	20.015	-2.204	0.506
482.000	309.104	80.009	19.994	103.210	20.016	-2.304	0.500
484.000	310.091	80.007	19.994	103.216	20.018	-2.391	0.483
486.000	311.151	80.015	19.993	103.214	20.017	-2.358	0.518
488.000	312.188	80.009	19.995	103.219	20.020	-2.548	0.508
490.000	313.221	80.010	19.994	103.212	20.018	-2.441	0.507
492.000	314.283	80.009	19.995	103.211	20.020	-2.564	0.529
494.000	315.307	80.011	19.995	103.215	20.021	-2.640	0.513
496.000	316.323	80.011	19.994	103.215	20.022	-2.679	0.520
498.000	317.368	80.010	19.994	103.208	20.024	-2.803	0.516
500.000	318.380	80.009	19.995	103.211	20.021	-2.644	0.506
502.000	319.416	80.010	19.996	103.201	20.022	-2.707	0.495
504.000	320.427	80.009	19.996	103.205	20.022	-2.705	0.516
506.000	321.489	80.005	19.995	103.205	20.024	-2.787	0.532
508.000	322.487	79.998	19.996	103.211	20.027	-3.012	0.516
510.000	323.504	80.011	19.995	103.203	20.025	-2.877	0.502
512.000	324.538	80.008	19.995	103.210	20.026	-2.964	0.527
514.000	325.556	80.010	19.994	103.213	20.026	-2.949	0.512
516.000	326.585	80.010	19.994	103.212	20.028	-3.099	0.508
518.000	327.590	80.011	19.994	103.212	20.030	-3.213	0.521
520.000	328.626	80.008	19.994	103.210	20.027	-3.012	0.519
522.001	329.660	80.012	19.994	103.212	20.031	-3.302	0.527
524.000	330.664	80.007	19.994	103.191	20.030	-3.258	0.518
526.000	331.666	80.008	19.993	103.204	20.028	-3.102	0.512
528.000	332.682	79.996	19.997	103.192	20.029	-3.186	0.516
530.000	333.708	80.004	19.995	103.186	20.033	-3.408	0.528
532.000	334.733	80.020	19.992	103.203	20.031	-3.273	0.464
534.000	335.726	80.001	19.996	103.195	20.030	-3.206	0.503
536.000	336.783	80.010	19.993	103.201	20.029	-3.190	0.522
538.000	337.819	80.007	19.995	103.200	20.029	-3.143	0.489
540.000	338.778	80.007	19.995	103.206	20.031	-3.317	0.467
542.000	339.752	80.006	19.995	103.198	20.029	-3.188	0.467
544.000	340.813	80.006	19.994	103.216	20.031	-3.293	0.533
546.000	341.818	80.012	19.995	103.214	20.036	-3.635	0.501
548.000	342.770	80.008	19.995	103.208	20.034	-3.496	0.499
550.000	343.807	80.013	19.993	103.209	20.031	-3.298	0.502
552.000	344.787	80.005	19.993	103.198	20.031	-3.295	0.507
554.000	345.790	80.009	19.994	103.199	20.030	-3.208	0.475
556.000	346.790	80.012	19.992	103.198	20.032	-3.382	0.487
558.000	347.825	80.006	19.993	103.206	20.034	-3.483	0.511
560.000	348.856	80.004	19.994	103.193	20.030	-3.254	0.499
562.000	349.868	80.009	19.995	103.195	20.033	-3.443	0.518
564.000	350.881	80.001	19.996	103.198	20.030	-3.252	0.516
566.000	351.875	80.001	19.995	103.198	20.032	-3.356	0.490
568.000	352.923	80.013	19.995	103.203	20.035	-3.550	0.521
570.000	353.926	80.003	19.996	103.189	20.034	-3.487	0.513
572.000	354.919	80.011	19.995	103.201	20.028	-3.071	0.491
574.000	355.943	80.011	19.995	103.197	20.031	-3.270	0.531
576.000	356.952	80.022	19.993	103.195	20.031	-3.281	0.513
578.000	357.958	80.006	19.995	103.207	20.031	-3.292	0.498
580.000	358.948	80.015	19.994	103.192	20.027	-3.039	0.487
582.000	359.976	80.011	19.993	103.186	20.025	-2.915	0.515
584.000	360.996	80.011	19.994	103.199	20.024	-2.838	0.497
586.000	361.982	80.002	19.995	103.189	20.020	-2.579	0.530
588.000	363.018	80.008	19.995	103.179	20.023	-2.746	0.523
590.001	363.993	80.012	19.995	103.190	20.019	-2.515	0.500
592.000	364.989	80.008	19.995	103.189	20.013	-2.056	0.503
594.000	366.043	80.003	19.995	103.189	20.015	-2.184	0.486
596.000	367.004	80.002	19.995	103.192	20.009	-1.831	0.497
598.000	367.989	80.008	19.995	103.208	20.012	-1.973	0.475
600.000	369.036	79.999	19.997	103.210	20.007	-1.657	0.494
602.000	370.051	80.009	19.995	103.208	20.003	-1.409	0.512
604.000	371.067	80.007	19.994	103.200	19.995	-0.845	0.498
606.000	372.086	80.009	19.993	103.211	19.988	-0.355	0.503
608.000	373.094	80.007	19.995	103.216	19.986	-0.268	0.521
610.000	374.085	80.009	19.994	103.216	19.982	0.043	0.463
612.000	375.152	80.012	19.993	103.217	19.974	0.603	0.520
614.000	376.178	80.006	19.994	103.214	19.971	0.777	0.538
616.001	377.240	80.006	19.994	103.220	19.961	1.431	0.525
618.000	378.283	80.013	19.994	103.225	19.953	2.003	0.551
620.000	379.237	80.003	19.995	103.219	19.948	2.306	0.511
622.000	380.317	80.007	19.995	103.221	19.944	2.624	0.513
624.000	381.350	80.007	19.995	103.216	19.936	3.122	0.512
626.000	382.385	80.016	19.993	103.219	19.935	3.207	0.512
628.000	383.427	80.009	19.994	103.220	19.931	3.507	0.520
630.000	384.449	80.006	19.994	103.218	19.932	3.418	0.527
632.000	385.521	80.012	19.994	103.222	19.932	3.392	0.505
634.000	386.626	80.012	19.994	103.245	19.924	3.943	0.524
636.000	387.594	80.018	19.993	103.237	19.934	3.297	0.476
638.000	388.675	80.011	19.994	103.241	19.911	4.836	0.527
640.000	389.696	80.019	19.992	103.244	19.899	5.682	0.509
642.000	390.768	80.005	19.994	103.239	19.889	6.346	0.536
644.000	391.870	79.994	19.995	103.239	19.873	7.420	0.536
646.000	392.918	80.013	19.992	103.243	19.850	8.991	0.507
648.000	394.017	80.000	19.994	103.261	19.834	10.071	0.556
650.000	394.996	80.003	19.995	103.247	19.825	10.688	0.521
652.000	396.131	80.010	19.995	103.225	19.815	11.362	0.540
654.000	397.175	80.004	19.995	103.213	19.797	12.555	0.501
656.000	398.227	80.013	19.993	103.250	19.795	12.702	0.501
658.000	399.251	80.016	19.994	103.297	19.785	13.423	0.492
660.000	400.304	80.014	19.993	103.294	19.768	14.540	0.532
662.000	401.273	80.009	19.995	103.286	19.750	15.796	0.490
664.000	402.333	80.009	19.994	103.294	19.731	17.093	0.502
666.000	403.393	80.008	19.995	103.304	19.705	18.803	0.531
668.000	404.342	80.015	19.993	103.306	19.686	20.136	0.478
670.000	405.358	80.008	19.993	103.320	19.661	21.804	0.524
672.000	406.406	80.008	19.994	103.333	19.632	23.811	0.515
674.000	407.462	80.010	19.993	103.344	19.601	25.927	0.517
676.000	408.488	80.020	19.991	103.365	19.563	28.508	0.553
678.001	409.482	79.998	19.995	103.371	19.534	30.435	0.473
680.000	410.447	80.014	19.995	103.359	19.504	32.501	0.502
682.000	411.491	80.005	19.994	103.383	19.460	35.494	0.491
684.000	412.488	80.020	19.994	103.418	19.416	38.475	0.496
686.000	413.496	80.003	19.996	103.455	19.371	41.580	0.522
688.000	414.459	80.006	19.994	103.450	19.335	44.052	0.450
690.000	415.488	80.013	19.993	103.444	19.291	47.002	0.536
692.000	416.462	80.003	19.996	103.449	19.247	50.035	0.484
694.000	417.463	80.009	19.995	103.484	19.193	53.692	0.478
696.000	418.465	80.004	19.995	103.521	19.132	57.845	0.515
698.000	419.463	80.015	19.994	103.546	19.069	62.191	0.512
700.000	420.452	80.005	19.994	103.558	19.008	66.359	0.480
702.000	421.476	80.015	19.993	103.544	18.946	70.569	0.547
704.000	422.433	80.007	19.994	103.570	18.884	74.779	0.491
706.000	423.454	79.998	19.995	103.588	18.829	78.605	0.515
708.000	424.423	80.019	19.992	103.636	18.764	83.023	0.488
710.000	425.444	80.009	19.994	103.657	18.700	87.440	0.515
712.000	426.439	80.008	19.995	103.677	18.638	91.645	0.505
714.000	427.413	79.999	19.995	103.666	18.568	96.500	0.466
716.000	428.442	80.000	19.996	103.709	18.490	101.822	0.522
718.000	429.405	80.009	19.993	103.809	18.419	106.673	0.457
720.000	430.379	80.003	19.997	103.780	18.345	111.708	0.480
722.000	431.401	79.996	19.997	103.792	18.264	117.302	0.462
724.000	432.402	79.998	19.995	103.819	18.179	123.159	0.497
726.000	433.421	80.003	19.994	103.869	18.104	128.358	0.494
728.000	434.458	80.011	19.993	103.869	18.038	132.835	0.529
730.000	435.478	80.009	19.993	103.869	17.978	136.944	0.530
732.000	436.462	80.004	19.994	103.905	17.922	140.814	0.490
734.000	437.499	80.016	19.994	103.945	17.863	144.878	0.523
736.000	438.523	80.014	19.993	103.992	17.804	148.938	0.521
738.000	439.496	80.011	19.993	104.021	17.753	152.393	0.521
740.000	440.541	80.007	19.995	104.013	17.703	155.820	0.523
742.000	441.551	80.002	19.993	104.031	17.652	159.368	0.495
744.000	442.526	80.007	19.994	104.057	17.608	162.379	0.513
746.000	443.565	80.011	19.994	104.072	17.567	165.194	0.531
748.000	444.609	80.005	19.993	104.079	17.539	167.084	0.556
750.000	445.580	80.002	19.995	104.081	17.508	169.191	0.483
752.000	446.594	80.009	19.993	104.106	17.482	170.944	0.504
754.000	447.634	80.002	19.995	104.122	17.458	172.511	0.522
756.000	448.673	80.008	19.994	104.121	17.443	173.530	0.534
758.000	449.666	80.013	19.995	104.111	17.446	173.354	0.471
760.000	450.710	80.006	19.994	104.094	17.460	172.345	0.527
762.000	451.704	80.006	19.994	104.078	17.486	170.442	0.493
764.000	452.734	80.007	19.994	104.069	17.525	167.748	0.506
766.000	453.718	80.007	19.994	104.048	17.582	163.855	0.479
768.000	454.717	80.008	19.995	104.038	17.651	159.024	0.482
770.000	455.751	79.994	19.995	104.025	17.724	153.965	0.490
772.000	456.810	79.994	19.996	103.985	17.818	147.503	0.520
774.000	457.807	80.020	19.994	103.951	17.923	140.300	0.491
776.000	458.791	80.020	19.994	103.925	18.040	132.268	0.494
778.000	459.802	80.010	19.996	103.882	18.155	124.395	0.488
780.000	460.858	80.016	19.996	103.828	18.282	115.731	0.526
782.000	461.892	80.019	19.993	103.790	18.404	107.398	0.501
784.000	462.881	80.004	19.995	103.756	18.537	98.300	0.495
786.000	463.951	80.009	19.994	103.704	18.676	88.798	0.503
788.001	464.941	80.006	19.995	103.663	18.814	79.396	0.510
790.000	465.994	80.011	19.994	103.610	18.949	70.222	0.498
792.000	467.010	80.003	19.995	103.586	19.074	61.683	0.486
794.000	468.046	80.015	19.993	103.564	19.184	54.236	0.531
796.000	469.096	80.009	19.994	103.535	19.282	47.552	0.552
798.000	470.119	80.009	19.993	103.503	19.373	41.340	0.552
800.000	471.122	80.011	19.994	103.473	19.449	36.181	0.493
802.000	472.118	80.004	19.995	103.430	19.517	31.569	0.511
804.000	473.171	80.007	19.995	103.405	19.577	27.503	0.502
806.000	474.228	80.006	19.995	103.380	19.632	23.769	0.535
808.000	475.246	80.008	19.995	103.356	19.677	20.687	0.520
810.000	476.286	80.011	19.993	103.340	19.721	17.708	0.507
812.000	477.286	80.005	19.996	103.333	19.754	15.499	0.505
814.000	478.300	80.010	19.994	103.305	19.786	13.300	0.507
816.000	479.371	80.007	19.994	103.301	19.817	11.245	0.532
818.000	480.354	80.015	19.993	103.292	19.842	9.539	0.488
820.000	481.397	80.007	19.994	103.284	19.866	7.926	0.519
822.000	482.427	80.013	19.993	103.253	19.886	6.531	0.505
824.000	483.445	80.007	19.993	103.248	19.904	5.287	0.529
826.000	484.425	80.006	19.993	103.252	19.925	3.922	0.498
828.000	485.480	80.009	19.996	103.250	19.937	3.099	0.502
830.000	486.464	80.006	19.994	103.249	19.953	1.982	0.496
832.000	487.484	80.007	19.995	103.227	19.965	1.176	0.510
834.001	488.517	80.007	19.994	103.218	19.976	0.403	0.531
836.000	489.517	80.008	19.994	103.218	19.989	-0.446	0.503
838.000	490.567	80.006	19.995	103.212	19.992	-0.627	0.541
840.000	491.571	80.008	19.995	103.213	20.008	-1.752	0.553
842.000	492.535	80.007	19.995	103.207	20.016	-2.301	0.486
844.000	493.598	80.007	19.995	103.192	20.020	-2.545	0.515
846.000	494.564	80.007	19.996	103.188	20.030	-3.259	0.497
848.000	495.616	80.005	19.995	103.178	20.035	-3.579	0.505
850.000	496.658	80.006	19.995	103.176	20.041	-3.980	0.554
852.000	497.641	80.002	19.994	103.175	20.044	-4.194	0.514
854.000	498.658	80.003	19.995	103.174	20.049	-4.528	0.522
856.000	499.676	80.009	19.994	103.173	20.053	-4.761	0.486
858.000	500.694	80.006	19.996	103.178	20.059	-5.186	0.514
860.000	501.723	80.006	19.995	103.170	20.061	-5.295	0.518
862.000	502.751	80.000	19.996	103.173	20.064	-5.553	0.498
864.000	503.737	80.001	19.995	103.167	20.065	-5.603	0.505
866.000	504.766	80.010	19.995	103.161	20.066	-5.675	0.493
868.000	505.827	80.014	19.994	103.154	20.068	-5.817	0.510
870.001	506.826	80.006	19.995	103.163	20.071	-6.015	0.483
872.000	507.871	80.004	19.995	103.152	20.071	-6.022	0.488
874.000	508.905	80.004	19.995	103.149	20.069	-5.864	0.490
876.000	509.974	80.007	19.996	103.143	20.072	-6.100	0.542
878.000	510.971	80.006	19.995	103.145	20.073	-6.154	0.505
880.000	511.948	80.008	19.995	103.139	20.074	-6.209	0.480
882.000	512.981	80.007	19.993	103.141	20.070	-5.931	0.488
884.000	514.052	80.008	19.993	103.151	20.075	-6.241	0.524
886.000	515.151	80.010	19.992	103.145	20.081	-6.680	0.562
888.000	516.097	80.007	19.994	103.142	20.077	-6.419	0.465
890.000	517.193	80.013	19.994	103.152	20.083	-6.811	0.571
892.000	518.188	80.011	19.993	103.140	20.083	-6.820	0.491
894.000	519.199	80.010	19.995	103.145	20.091	-7.343	0.476
896.000	520.214	80.009	19.993	103.150	20.085	-6.972	0.495
898.000	521.292	80.012	19.994	103.136	20.088	-7.129	0.541
900.000	522.303	80.011	19.994	103.134	20.091	-7.324	0.530
902.000	523.335	80.008	19.994	103.134	20.086	-7.051	0.529
904.000	524.388	80.005	19.995	103.137	20.090	-7.267	0.498
906.000	525.407	80.008	19.995	103.138	20.092	-7.439	0.521
908.000	526.431	80.012	19.994	103.141	20.091	-7.336	0.519
910.000	527.418	80.008	19.994	103.137	20.095	-7.620	0.504
912.000	528.457	80.008	19.994	103.133	20.092	-7.422	0.512
914.000	529.485	80.006	19.994	103.137	20.093	-7.461	0.477
916.000	530.499	80.010	19.994	103.138	20.092	-7.417	0.485
918.000	531.518	80.006	19.995	103.140	20.095	-7.596	0.504
920.000	532.523	80.008	19.994	103.137	20.090	-7.284	0.511
922.000	533.553	80.006	19.994	103.136	20.092	-7.413	0.529
924.000	534.622	80.007	19.994	103.139	20.094	-7.537	0.537
926.000	535.645	80.007	19.994	103.141	20.093	-7.515	0.544
928.000	536.684	80.002	19.995	103.140	20.095	-7.657	0.510
930.000	537.673	80.006	19.995	103.136	20.095	-7.596	0.485
932.000	538.751	80.006	19.995	103.137	20.094	-7.591	0.557
934.000	539.749	80.007	19.994	103.140	20.093	-7.504	0.540
936.000	540.793	80.005	19.995	103.138	20.094	-7.574	0.489
938.000	541.827	80.006	19.995	103.138	20.098	-7.811	0.533
940.000	542.855	80.005	19.995	103.139	20.098	-7.827	0.512
942.000	543.906	80.008	19.994	103.139	20.098	-7.832	0.516
944.000	544.899	80.008	19.994	103.139	20.096	-7.723	0.526
946.000	545.906	80.005	19.993	103.137	20.099	-7.891	0.521
948.000	546.959	80.007	19.995	103.143	20.099	-7.876	0.538
950.000	548.057	80.009	19.995	103.137	20.099	-7.891	0.536
952.000	549.122	80.007	19.995	103.135	20.102	-8.122	0.541
954.000	550.139	80.009	19.994	103.135	20.099	-7.904	0.524
956.000	551.183	80.009	19.995	103.127	20.097	-7.794	0.495
958.000	552.207	80.007	19.995	103.133	20.098	-7.855	0.494
960.000	553.295	80.006	19.995	103.131	20.099	-7.895	0.504
962.000	554.342	80.007	19.995	103.132	20.102	-8.128	0.540
964.000	555.430	80.006	19.995	103.131	20.099	-7.878	0.520
966.000	556.431	80.008	19.995	103.132	20.102	-8.069	0.511
968.000	557.472	80.009	19.994	103.135	20.106	-8.348	0.517
970.000	558.532	80.008	19.995	103.134	20.102	-8.085	0.520
972.000	559.574	80.010	19.994	103.130	20.104	-8.224	0.467
974.000	560.605	80.009	19.994	103.132	20.105	-8.331	0.548
976.000	561.676	80.010	19.995	103.133	20.107	-8.457	0.516
978.000	562.679	80.011	19.993	103.134	20.102	-8.078	0.519
980.000	563.723	80.004	19.994	103.133	20.105	-8.307	0.544
982.000	564.713	80.008	19.995	103.134	20.100	-7.944	0.506
984.000	565.762	80.005	19.995	103.136	20.104	-8.222	0.528
986.000	566.771	80.006	19.996	103.138	20.104	-8.248	0.494
988.000	567.811	80.005	19.994	103.137	20.106	-8.344	0.505
990.000	568.830	80.007	19.995	103.136	20.102	-8.094	0.526
992.000	569.864	80.004	19.995	103.136	20.108	-8.486	0.552
994.000	570.866	80.006	19.994	103.138	20.102	-8.125	0.515
996.000	571.883	80.006	19.995	103.132	20.106	-8.343	0.518
998.000	572.883	80.005	19.995	103.136	20.106	-8.356	0.490
1000.000	573.954	80.007	19.993	103.129	20.104	-8.208	0.534
1002.000	574.981	80.007	19.995	103.131	20.106	-8.387	0.530
1004.000	575.999	80.007	19.995	103.137	20.105	-8.295	0.496
1006.000	576.999	80.004	19.993	103.140	20.108	-8.499	0.534
1008.000	578.008	80.006	19.994	103.139	20.104	-8.259	0.472
1010.000	579.028	80.008	19.994	103.141	20.106	-8.379	0.483
1012.000	580.028	80.006	19.993	103.140	20.107	-8.438	0.507
1014.000	581.034	80.006	19.994	103.139	20.105	-8.313	0.472
1016.000	582.057	80.006	19.994	103.134	20.104	-8.208	0.499
1018.000	583.049	80.007	19.994	103.134	20.103	-8.190	0.520
1020.000	584.079	80.007	19.994	103.134	20.106	-8.374	0.532
1022.000	585.046	80.007	19.995	103.128	20.104	-8.223	0.507
1024.001	586.124	80.009	19.996	103.132	20.103	-8.187	0.524
1026.000	587.100	80.008	19.995	103.122	20.101	-8.001	0.530
1028.000	588.110	80.008	19.995	103.121	20.102	-8.125	0.474
1030.000	589.099	80.008	19.994	103.124	20.101	-8.027	0.498
1032.000	590.104	80.009	19.994	103.119	20.102	-8.084	0.485
1034.000	591.134	80.007	19.995	103.132	20.099	-7.870	0.515
1036.000	592.165	80.008	19.994	103.123	20.102	-8.100	0.517
1038.000	593.173	80.008	19.994	103.124	20.106	-8.397	0.495
1040.000	594.155	80.008	19.994	103.115	20.100	-7.963	0.497
1042.001	595.258	80.007	19.995	103.117	20.104	-8.254	0.516
1044.000	596.249	80.007	19.995	103.121	20.106	-8.342	0.505
1046.000	597.250	80.008	19.995	103.128	20.107	-8.416	0.488
1048.000	598.275	80.008	19.994	103.127	20.105	-8.317	0.512
1050.001	599.344	80.009	19.995	103.133	20.100	-7.982	0.508
1052.001	600.373	80.008	19.995	103.116	20.107	-8.411	0.532
1054.000	601.415	80.008	19.995	103.120	20.106	-8.338	0.484
1056.000	602.408	80.007	19.996	103.129	20.103	-8.197	0.507
1058.000	603.480	80.006	19.995	103.115	20.110	-8.628	0.556
1060.001	604.463	80.007	19.995	103.124	20.110	-8.626	0.511
1062.000	605.500	80.006	19.995	103.134	20.110	-8.630	0.535
1064.000	606.514	80.006	19.993	103.121	20.105	-8.283	0.506
1066.001	607.500	80.006	19.993	103.059	20.105	-8.328	0.487
1068.000	608.553	80.006	19.994	103.156	20.108	-8.510	0.500
1070.000	609.606	80.007	19.994	103.141	20.110	-8.656	0.528
1072.000	610.588	80.008	19.995	103.106	20.109	-8.596	0.509
1074.000	611.649	80.007	19.995	103.105	20.110	-8.648	0.513
1076.000	612.674	80.008	19.995	103.108	20.108	-8.515	0.510
1078.000	613.711	80.007	19.995	103.111	20.109	-8.547	0.516
1080.000	614.715	80.007	19.995	103.106	20.108	-8.522	0.502
1082.000	615.772	80.007	19.994	103.105	20.111	-8.719	0.525
1084.000	616.792	80.007	19.994	103.104	20.113	-8.810	0.516
1086.000	617.787	80.006	19.994	103.102	20.109	-8.601	0.485
1088.000	618.801	80.006	19.995	103.098	20.105	-8.329	0.484
1090.000	619.811	80.008	19.995	103.109	20.112	-8.750	0.502
1092.000	620.841	80.007	19.994	103.108	20.110	-8.624	0.519
1094.000	621.879	80.006	19.995	103.102	20.112	-8.749	0.519
1096.000	622.896	80.007	19.994	103.112	20.116	-9.079	0.511
1098.000	623.891	80.007	19.994	103.107	20.109	-8.563	0.500
1100.000	624.911	80.008	19.994	103.105	20.107	-8.441	0.518
1102.000	625.948	80.009	19.993	103.102	20.114	-8.947	0.521
1104.000	626.927	80.007	19.994	103.097	20.118	-9.171	0.511
1106.000	627.962	80.010	19.994	103.098	20.117	-9.126	0.498
1108.000	628.985	80.008	19.995	103.102	20.120	-9.287	0.481
1110.000	630.024	80.005	19.994	103.099	20.120	-9.313	0.521
1112.001	631.032	80.008	19.995	103.106	20.120	-9.323	0.528
1114.000	632.034	80.007	19.995	103.114	20.125	-9.631	0.479
1116.000	633.112	80.007	19.995	103.100	20.123	-9.529	0.550
1118.001	634.152	80.007	19.996	103.098	20.128	-9.850	0.504
1120.000	635.213	80.007	19.995	103.099	20.126	-9.756	0.554
1122.000	636.272	80.008	19.995	103.102	20.128	-9.862	0.519
1124.000	637.302	80.008	19.995	103.104	20.129	-9.923	0.516
1126.000	638.341	80.008	19.993	103.110	20.129	-9.943	0.494
1128.000	639.373	80.009	19.994	103.114	20.125	-9.685	0.531
1130.000	640.378	80.008	19.995	103.098	20.128	-9.828	0.501
1132.001	641.438	80.009	19.995	103.104	20.133	-10.205	0.548
1134.000	642.446	80.009	19.995	103.105	20.129	-9.915	0.514
1136.000	643.483	80.006	19.994	103.104	20.131	-10.055	0.504
1138.000	644.518	80.005	19.995	103.103	20.130	-9.998	0.522
1140.000	645.541	80.007	19.995	103.102	20.133	-10.221	0.511
1142.000	646.508	80.007	19.996	103.099	20.130	-9.998	0.506
1144.000	647.562	80.005	19.995	103.096	20.133	-10.177	0.518
1146.001	648.602	80.006	19.994	103.094	20.136	-10.415	0.554
1148.000	649.598	80.005	19.995	103.096	20.135	-10.360	0.494
1150.000	650.668	80.007	19.995	103.095	20.137	-10.436	0.547
1152.000	651.645	80.006	19.995	103.095	20.134	-10.290	0.478
1154.000	652.674	80.006	19.996	103.096	20.137	-10.473	0.504
1156.000	653.718	80.006	19.995	103.095	20.138	-10.551	0.525
1158.000	654.722	80.006	19.994	103.094	20.138	-10.523	0.485
1160.000	655.786	80.005	19.994	103.097	20.138	-10.546	0.510
1162.001	656.794	80.007	19.994	103.096	20.140	-10.680	0.486
1164.001	657.887	80.006	19.995	103.097	20.143	-10.907	0.535
1166.000	658.902	80.006	19.994	103.104	20.144	-10.941	0.509
1168.000	659.922	80.008	19.994	103.098	20.142	-10.813	0.509
1170.000	660.969	80.006	19.994	103.095	20.144	-10.913	0.531
1172.000	661.996	80.007	19.995	103.100	20.145	-10.995	0.502
1174.000	663.047	80.006	19.994	103.101	20.143	-10.901	0.539
1176.001	664.071	80.005	19.995	103.099	20.142	-10.811	0.528
1178.001	665.151	80.007	19.995	103.104	20.144	-10.942	0.501
1180.000	666.180	80.006	19.995	103.100	20.142	-10.796	0.525
1182.000	667.169	80.008	19.994	103.098	20.144	-10.924	0.541
1184.000	668.259	80.007	19.994	103.097	20.144	-10.938	0.499
1186.000	669.270	80.007	19.993	103.101	20.148	-11.219	0.491
1188.000	670.333	80.008	19.993	103.103	20.145	-11.014	0.499
1190.000	671.375	80.007	19.994	103.098	20.144	-10.957	0.515
1192.000	672.381	80.007	19.995	103.099	20.150	-11.367	0.498
1194.000	673.456	80.006	19.993	103.097	20.146	-11.087	0.548
1196.001	674.488	80.006	19.994	103.098	20.150	-11.361	0.529
1198.000	675.475	80.006	19.994	103.100	20.152	-11.481	0.539
1200.000	676.531	80.006	19.993	103.106	20.151	-11.405	0.520
1202.000	677.540	80.007	19.993	103.102	20.152	-11.516	0.495
1204.000	678.614	80.008	19.994	103.095	20.153	-11.557	0.514
1206.001	679.621	80.008	19.995	103.091	20.154	-11.597	0.496
1208.001	680.629	80.009	19.995	103.094	20.153	-11.527	0.490
1210.000	681.680	80.009	19.995	103.093	20.154	-11.627	0.507
1212.000	682.704	80.008	19.995	103.090	20.159	-11.932	0.504
1214.000	683.692	80.007	19.995	103.094	20.154	-11.640	0.514
1216.000	684.701	80.006	19.994	103.095	20.155	-11.697	0.509
1218.000	685.742	80.006	19.995	103.096	20.161	-12.092	0.505
1220.000	686.783	80.006	19.994	103.095	20.155	-11.660	0.514
1222.000	687.786	80.006	19.994	103.097	20.152	-11.516	0.499
1224.000	688.813	80.008	19.995	103.094	20.161	-12.078	0.502
1226.000	689.817	80.006	19.995	103.096	20.163	-12.206	0.489
1228.000	690.857	80.005	19.994	103.093	20.159	-11.975	0.530
1230.000	691.868	80.006	19.995	103.092	20.158	-11.894	0.509
1232.000	692.922	80.006	19.996	103.095	20.159	-11.974	0.525
1234.000	693.924	80.006	19.996	103.096	20.164	-12.281	0.512
1236.000	694.951	80.008	19.995	103.092	20.161	-12.080	0.500
1238.000	696.006	80.006	19.996	103.087	20.164	-12.326	0.515
1240.001	697.076	80.007	19.995	103.088	20.160	-12.006	0.515
1242.000	698.101	80.009	19.994	103.094	20.164	-12.292	0.509
1244.000	699.128	80.007	19.995	103.100	20.167	-12.501	0.522
1246.000	700.166	80.005	19.994	103.100	20.167	-12.486	0.528
1248.000	701.198	80.006	19.996	103.102	20.163	-12.211	0.526
1250.000	702.224	80.006	19.994	103.101	20.163	-12.200	0.502
1252.000	703.237	80.007	19.994	103.100	20.169	-12.627	0.511
1254.000	704.261	80.005	19.993	103.101	20.165	-12.369	0.512
1256.001	705.257	80.008	19.993	103.101	20.161	-12.080	0.511
1258.000	706.338	80.008	19.994	103.100	20.168	-12.593	0.509
1260.000	707.325	80.007	19.994	103.101	20.164	-12.325	0.484
1262.000	708.373	80.008	19.994	103.093	20.165	-12.396	0.497
1264.000	709.413	80.006	19.995	103.087	20.168	-12.563	0.523
1266.000	710.436	80.006	19.995	103.098	20.165	-12.377	0.538
1268.000	711.474	80.007	19.994	103.098	20.169	-12.626	0.513
1270.001	712.431	80.008	19.994	103.096	20.169	-12.606	0.471
1272.000	713.509	80.007	19.994	103.090	20.168	-12.550	0.544
1274.000	714.500	80.008	19.995	103.090	20.166	-12.452	0.511
1276.000	715.544	80.008	19.994	103.097	20.169	-12.648	0.511
1278.000	716.536	80.009	19.994	103.095	20.166	-12.447	0.495
1280.000	717.577	80.008	19.995	103.092	20.165	-12.343	0.494
1282.000	718.561	80.008	19.995	103.096	20.163	-12.227	0.485
1284.000	719.643	80.008	19.994	103.089	20.166	-12.454	0.514
1286.000	720.652	80.008	19.994	103.090	20.166	-12.448	0.513
1288.001	721.647	80.008	19.994	103.092	20.174	-12.956	0.506
1290.000	722.664	80.008	19.994	103.094	20.169	-12.628	0.507
1292.000	723.684	80.007	19.996	103.091	20.169	-12.656	0.506
1294.000	724.707	80.005	19.995	103.091	20.171	-12.760	0.493
1296.001	725.728	80.006	19.995	103.094	20.167	-12.492	0.512
1298.000	726.731	80.005	19.995	103.091	20.170	-12.671	0.489
1300.000	727.756	80.006	19.995	103.097	20.172	-12.840	0.509
1302.000	728.824	80.006	19.996	103.092	20.173	-12.925	0.530
1304.001	729.849	80.005	19.994	103.085	20.175	-13.042	0.510
1306.000	730.891	80.005	19.994	103.082	20.177	-13.145	0.518
1308.001	731.887	80.007	19.995	103.096	20.174	-12.985	0.498
1310.000	732.942	80.006	19.995	103.094	20.176	-13.111	0.541
1312.000	733.946	80.005	19.995	103.095	20.177	-13.190	0.504
1314.000	735.003	80.007	19.994	103.103	20.170	-12.716	0.524
1316.000	736.011	80.006	19.995	103.098	20.178	-13.225	0.519
1318.001	737.032	80.005	19.995	103.097	20.178	-13.274	0.507
1320.001	738.031	80.006	19.995	103.091	20.179	-13.333	0.484
1322.000	739.096	80.007	19.995	103.090	20.177	-13.184	0.541
1324.000	740.055	80.004	19.996	103.081	20.181	-13.427	0.542
1326.000	741.093	80.005	19.995	103.082	20.174	-13.007	0.531
1328.000	742.106	80.005	19.996	103.076	20.174	-13.001	0.511
1330.000	743.128	80.005	19.996	103.079	20.180	-13.407	0.499
1331.000	743.637	80.005	19.995	103.091	20.181	-13.459	0.513