File: 01_Data/LatexPillow_B_Inner_Fabric/MCC/LatexPillow_B_Inner_Fabric_MCC_30K_min_211213_R3.txt
Sample ID:	C:\MCC\MCC Cal\Test\LatexPillow_B_Inner_Fabric_MCC_30K_min_211213_R3.txt
Sample Weight (mg):	4.1
Heating Rate (C/s):	0.5
Combustor Temp (C):	900
N2 Flow Rate (cc/min):	80
O2 Flow Rate (cc/min):	20
Calibration File:	C:\MCC\MCC Cal\Coeff1 JN10440_30_210304.txt.txt
T Correction Coefficients:	0	1.024463	0
Time Shift (s):	14
*
Time (s)	Temperature (C)	N2 flow rate (cc/min)	O2 flow rate (cc/min)	Flow Rate (cc/min)	Oxygen (%)	HRR (W/g)	Heating rate (C/s)
-0.001	107.444	80.014	19.995	103.053	19.920	-0.013	-0.018
2.000	107.456	80.007	19.995	103.054	19.919	0.062	-0.031
4.000	107.438	80.007	19.994	103.047	19.916	0.293	-0.033
6.000	107.418	80.007	19.995	103.052	19.919	0.088	-0.009
8.000	107.457	80.007	19.994	103.051	19.922	-0.150	0.038
10.000	107.400	80.007	19.994	103.053	19.916	0.282	-0.017
12.000	107.427	80.007	19.993	103.040	19.916	0.319	0.008
14.000	107.408	80.007	19.994	103.054	19.917	0.190	-0.025
16.000	107.455	80.007	19.993	103.043	19.917	0.210	0.014
18.000	107.436	80.008	19.995	103.051	19.919	0.051	-0.000
20.000	107.407	80.010	19.995	103.055	19.915	0.351	-0.059
22.000	107.448	80.010	19.994	103.055	19.919	0.060	0.032
24.000	107.432	80.007	19.994	103.077	19.917	0.210	-0.001
26.000	107.474	80.010	19.995	103.082	19.915	0.328	0.025
28.000	107.478	80.010	19.994	103.096	19.919	0.041	0.018
30.000	107.530	80.008	19.992	103.101	19.913	0.551	0.046
32.000	107.592	80.008	19.993	103.132	19.906	1.046	0.042
34.000	107.654	80.009	19.995	103.133	19.903	1.314	0.028
35.999	107.698	80.010	19.994	103.155	19.897	1.781	0.013
37.999	107.824	80.009	19.994	103.208	19.895	1.935	0.079
39.999	107.956	80.008	19.994	103.246	19.890	2.341	0.059
41.999	108.169	80.009	19.993	103.255	19.885	2.759	0.127
43.999	108.331	80.011	19.993	103.265	19.886	2.658	0.090
45.999	108.623	80.010	19.993	103.263	19.878	3.256	0.122
48.001	108.890	80.010	19.993	103.267	19.879	3.173	0.145
49.999	109.191	80.009	19.993	103.265	19.878	3.241	0.170
51.999	109.546	80.009	19.993	103.279	19.876	3.454	0.180
53.999	109.893	80.010	19.995	103.282	19.879	3.180	0.131
55.999	110.310	80.010	19.995	103.285	19.877	3.351	0.182
58.000	110.761	80.008	19.995	103.284	19.870	3.907	0.217
59.999	111.212	80.010	19.994	103.286	19.873	3.697	0.215
61.999	111.690	80.008	19.994	103.293	19.871	3.832	0.260
63.999	112.237	80.007	19.993	103.305	19.869	3.971	0.268
65.999	112.758	80.007	19.995	103.304	19.871	3.804	0.257
67.999	113.321	80.008	19.994	103.309	19.867	4.173	0.270
69.999	113.916	80.007	19.994	103.307	19.865	4.319	0.329
71.999	114.532	80.010	19.995	103.322	19.866	4.188	0.304
73.999	115.113	80.008	19.994	103.295	19.873	3.702	0.313
75.999	115.819	80.009	19.994	103.300	19.872	3.708	0.349
77.999	116.528	80.010	19.994	103.317	19.863	4.442	0.336
79.999	117.195	80.009	19.994	103.314	19.871	3.830	0.329
82.000	117.885	80.006	19.994	103.319	19.870	3.884	0.334
83.999	118.597	80.008	19.995	103.325	19.872	3.708	0.358
86.000	119.350	80.009	19.996	103.325	19.867	4.111	0.361
87.999	120.181	80.009	19.995	103.325	19.873	3.652	0.403
89.999	120.968	80.007	19.996	103.328	19.868	4.032	0.415
91.999	121.775	80.007	19.995	103.330	19.870	3.895	0.404
94.000	122.611	80.006	19.995	103.331	19.867	4.101	0.432
95.999	123.415	80.008	19.995	103.330	19.871	3.803	0.402
97.999	124.317	80.008	19.994	103.329	19.866	4.189	0.430
99.999	125.164	80.008	19.993	103.330	19.865	4.262	0.464
101.999	126.084	80.011	19.995	103.333	19.863	4.465	0.448
103.999	126.976	80.010	19.995	103.331	19.867	4.169	0.413
105.999	127.868	80.009	19.993	103.329	19.861	4.648	0.442
108.000	128.788	80.010	19.993	103.334	19.864	4.411	0.461
109.999	129.704	80.009	19.994	103.331	19.865	4.270	0.448
111.999	130.620	80.009	19.994	103.332	19.866	4.182	0.473
113.999	131.567	80.008	19.994	103.333	19.868	4.025	0.460
115.999	132.528	80.010	19.995	103.330	19.863	4.439	0.472
118.000	133.500	80.009	19.993	103.329	19.866	4.225	0.510
120.000	134.466	80.009	19.994	103.326	19.867	4.152	0.460
121.999	135.431	80.009	19.994	103.326	19.864	4.343	0.539
123.999	136.413	80.007	19.994	103.330	19.868	4.057	0.497
125.999	137.436	80.008	19.994	103.327	19.867	4.152	0.506
127.999	138.450	80.010	19.995	103.327	19.867	4.130	0.511
130.000	139.467	80.011	19.994	103.326	19.870	3.918	0.470
132.000	140.515	80.012	19.994	103.324	19.868	4.091	0.538
134.000	141.508	80.011	19.994	103.323	19.867	4.102	0.494
136.000	142.526	80.011	19.993	103.321	19.869	4.018	0.507
138.000	143.562	80.009	19.994	103.322	19.867	4.158	0.510
140.000	144.621	80.013	19.994	103.318	19.865	4.286	0.556
142.000	145.642	80.008	19.994	103.315	19.867	4.129	0.524
144.000	146.690	80.010	19.995	103.297	19.863	4.421	0.507
146.000	147.716	80.010	19.993	103.309	19.865	4.286	0.516
148.000	148.717	80.010	19.995	103.302	19.869	4.000	0.476
150.000	149.785	80.009	19.994	103.308	19.868	4.046	0.539
152.000	150.803	80.008	19.995	103.293	19.870	3.889	0.512
154.000	151.795	80.008	19.994	103.292	19.867	4.131	0.467
156.000	152.841	80.007	19.994	103.298	19.869	3.983	0.529
158.000	153.824	80.008	19.995	103.292	19.866	4.236	0.475
160.000	154.830	80.010	19.994	103.293	19.868	4.020	0.501
162.000	155.852	80.007	19.995	103.299	19.869	4.017	0.496
164.000	156.900	80.009	19.994	103.294	19.873	3.627	0.519
166.000	157.916	80.011	19.994	103.290	19.868	4.039	0.492
168.000	158.905	80.010	19.994	103.290	19.870	3.867	0.505
170.000	159.881	80.011	19.995	103.290	19.876	3.456	0.491
172.000	160.926	80.007	19.994	103.288	19.870	3.893	0.513
174.000	161.840	80.007	19.994	103.283	19.876	3.409	0.464
176.000	162.982	80.007	19.994	103.291	19.872	3.782	0.373
178.000	164.018	80.006	19.994	103.288	19.871	3.786	0.494
180.000	165.024	80.006	19.996	103.285	19.874	3.584	0.531
182.000	166.064	80.008	19.996	103.285	19.875	3.479	0.545
184.000	167.084	80.007	19.996	103.288	19.879	3.192	0.546
186.000	168.034	80.008	19.994	103.284	19.876	3.444	0.478
188.000	169.040	80.008	19.995	103.277	19.871	3.806	0.492
190.000	169.983	80.010	19.994	103.280	19.871	3.787	0.488
192.000	171.020	80.010	19.995	103.275	19.877	3.345	0.489
194.000	172.016	80.011	19.995	103.265	19.873	3.674	0.518
196.000	172.962	80.009	19.994	103.269	19.874	3.584	0.482
198.000	173.992	80.010	19.993	103.255	19.877	3.367	0.501
200.000	175.010	80.007	19.994	103.256	19.878	3.303	0.491
202.000	175.924	80.010	19.993	103.249	19.872	3.772	0.503
204.000	176.950	80.010	19.994	103.258	19.876	3.465	0.518
206.000	177.948	80.010	19.993	103.258	19.873	3.657	0.490
208.000	178.879	80.011	19.994	103.264	19.880	3.101	0.515
210.000	179.873	80.010	19.994	103.272	19.878	3.239	0.511
212.000	180.864	80.011	19.994	103.271	19.883	2.864	0.474
214.000	181.832	80.008	19.994	103.251	19.875	3.509	0.481
216.000	182.808	80.011	19.995	103.268	19.880	3.082	0.480
218.000	183.761	80.012	19.994	103.257	19.881	2.998	0.474
220.000	184.727	80.006	19.996	103.268	19.882	2.934	0.499
222.000	185.783	80.008	19.995	103.268	19.886	2.662	0.514
224.000	186.809	80.009	19.995	103.273	19.881	3.054	0.517
226.000	187.769	80.010	19.994	103.257	19.881	3.069	0.465
228.000	188.762	80.009	19.994	103.256	19.881	3.069	0.506
230.000	189.761	80.015	19.992	103.257	19.885	2.711	0.502
232.000	190.735	80.026	19.994	103.262	19.885	2.728	0.513
234.000	191.740	80.006	19.993	103.261	19.883	2.913	0.485
236.000	192.652	80.011	19.994	103.261	19.880	3.090	0.472
238.000	193.680	80.008	19.995	103.261	19.881	3.052	0.537
240.000	194.656	80.010	19.993	103.259	19.887	2.597	0.509
242.000	195.587	80.006	19.994	103.254	19.884	2.814	0.500
244.000	196.594	80.010	19.993	103.256	19.884	2.786	0.467
246.000	197.570	80.015	19.993	103.253	19.881	3.030	0.505
248.000	198.551	80.003	19.995	103.253	19.883	2.852	0.459
250.000	199.564	80.010	19.995	103.251	19.883	2.855	0.503
252.000	200.476	80.006	19.995	103.254	19.884	2.807	0.465
254.000	201.478	80.006	19.995	103.250	19.887	2.550	0.493
256.000	202.464	79.999	19.996	103.244	19.882	2.955	0.475
258.000	203.456	80.007	19.995	103.241	19.885	2.737	0.519
260.000	204.405	80.007	19.994	103.249	19.888	2.503	0.491
262.000	205.408	80.013	19.994	103.249	19.891	2.287	0.519
264.000	206.385	80.010	19.995	103.255	19.888	2.520	0.468
266.000	207.359	80.011	19.995	103.252	19.886	2.647	0.489
268.000	208.393	80.009	19.995	103.252	19.886	2.604	0.512
270.000	209.354	80.010	19.995	103.252	19.885	2.741	0.479
272.000	210.369	80.012	19.994	103.250	19.886	2.672	0.548
274.000	211.334	80.010	19.994	103.251	19.888	2.505	0.497
276.000	212.353	80.012	19.994	103.248	19.887	2.589	0.532
278.000	213.355	80.008	19.995	103.245	19.886	2.653	0.510
280.000	214.361	80.012	19.994	103.244	19.887	2.578	0.512
282.000	215.285	80.005	19.996	103.248	19.887	2.584	0.480
284.000	216.291	80.011	19.994	103.249	19.887	2.550	0.513
286.000	217.239	80.000	19.996	103.252	19.887	2.550	0.456
288.000	218.244	80.008	19.995	103.249	19.887	2.561	0.509
290.000	219.233	80.008	19.995	103.249	19.893	2.128	0.487
292.000	220.239	80.011	19.994	103.249	19.889	2.432	0.488
294.000	221.240	80.009	19.994	103.250	19.888	2.451	0.497
296.000	222.257	80.010	19.994	103.250	19.892	2.203	0.491
298.000	223.205	80.009	19.993	103.256	19.887	2.546	0.453
300.000	224.206	80.018	19.993	103.246	19.894	2.002	0.479
302.000	225.188	80.008	19.993	103.247	19.894	2.034	0.488
304.000	226.216	80.010	19.993	103.239	19.889	2.424	0.507
306.000	227.243	80.015	19.993	103.243	19.889	2.394	0.534
308.000	228.179	80.020	19.994	103.238	19.889	2.445	0.451
310.000	229.242	80.015	19.994	103.248	19.895	1.965	0.546
312.000	230.234	80.008	19.994	103.252	19.895	1.967	0.532
314.000	231.274	80.005	19.995	103.241	19.895	1.929	0.513
316.000	232.240	80.006	19.995	103.244	19.894	2.046	0.491
318.000	233.256	80.010	19.994	103.245	19.893	2.068	0.503
320.000	234.270	80.010	19.994	103.246	19.894	2.018	0.522
322.000	235.312	80.014	19.995	103.243	19.896	1.836	0.518
324.000	236.292	80.020	19.994	103.240	19.894	1.999	0.526
326.000	237.290	80.010	19.995	103.238	19.892	2.175	0.486
328.000	238.257	80.004	19.996	103.236	19.892	2.162	0.468
330.000	239.250	80.007	19.994	103.232	19.893	2.113	0.473
332.000	240.243	80.013	19.994	103.241	19.894	2.046	0.485
334.000	241.285	80.011	19.993	103.244	19.893	2.061	0.516
336.000	242.253	80.012	19.994	103.246	19.894	2.022	0.481
338.000	243.246	80.011	19.994	103.248	19.897	1.793	0.459
340.000	244.257	80.012	19.993	103.245	19.897	1.761	0.506
342.000	245.220	80.007	19.995	103.235	19.894	1.997	0.496
344.000	246.232	79.998	19.996	103.232	19.897	1.785	0.483
346.000	247.217	80.006	19.995	103.229	19.897	1.802	0.489
348.000	248.203	80.016	19.992	103.223	19.900	1.544	0.514
350.000	249.190	80.009	19.996	103.240	19.898	1.667	0.503
352.000	250.221	80.002	19.995	103.231	19.897	1.789	0.524
354.000	251.233	80.018	19.993	103.230	19.897	1.757	0.528
356.000	252.259	80.008	19.994	103.232	19.899	1.613	0.480
358.000	253.213	80.013	19.995	103.216	19.897	1.770	0.506
360.000	254.197	80.009	19.994	103.216	19.899	1.590	0.495
362.000	255.230	80.015	19.994	103.238	19.899	1.643	0.508
364.000	256.265	80.009	19.994	103.230	19.900	1.570	0.505
366.000	257.236	80.019	19.992	103.226	19.898	1.660	0.502
368.000	258.196	80.018	19.993	103.218	19.903	1.285	0.488
370.000	259.224	80.007	19.996	103.232	19.901	1.481	0.538
372.000	260.192	80.010	19.995	103.225	19.901	1.491	0.493
374.000	261.127	80.014	19.995	103.224	19.902	1.397	0.511
376.000	262.101	79.998	19.997	103.215	19.900	1.542	0.471
378.000	263.145	80.010	19.995	103.213	19.900	1.506	0.510
380.000	264.160	80.011	19.995	103.226	19.901	1.438	0.484
382.000	265.134	80.009	19.996	103.233	19.903	1.330	0.512
384.000	266.092	80.013	19.996	103.209	19.903	1.330	0.496
386.000	267.089	80.016	19.994	103.215	19.904	1.251	0.490
388.000	268.122	80.006	19.995	103.212	19.902	1.412	0.517
390.000	269.103	80.009	19.994	103.219	19.902	1.373	0.466
392.000	270.064	80.006	19.995	103.215	19.906	1.058	0.497
394.000	271.075	80.007	19.996	103.218	19.905	1.129	0.495
396.000	272.100	80.010	19.995	103.220	19.906	1.091	0.479
398.000	273.101	80.009	19.994	103.213	19.904	1.238	0.513
400.000	274.090	80.008	19.994	103.228	19.903	1.290	0.479
402.000	275.096	80.004	19.996	103.217	19.906	1.058	0.496
404.000	276.104	80.017	19.994	103.231	19.909	0.825	0.496
406.000	277.040	80.008	19.995	103.229	19.904	1.264	0.480
408.000	278.109	80.010	19.994	103.217	19.909	0.857	0.512
410.000	279.090	80.019	19.993	103.219	19.905	1.129	0.493
412.000	280.039	80.011	19.994	103.217	19.904	1.232	0.498
414.000	281.057	80.006	19.995	103.219	19.905	1.127	0.473
416.000	282.071	80.011	19.993	103.210	19.908	0.915	0.508
418.000	283.022	80.010	19.994	103.210	19.908	0.921	0.489
420.000	284.027	80.005	19.995	103.214	19.911	0.656	0.484
422.000	285.010	80.010	19.993	103.219	19.914	0.482	0.465
424.000	286.028	80.006	19.995	103.216	19.914	0.428	0.523
426.000	287.023	80.010	19.994	103.215	19.913	0.488	0.538
428.000	288.013	80.007	19.993	103.212	19.912	0.591	0.483
430.000	289.046	80.006	19.994	103.214	19.913	0.551	0.527
432.000	290.099	80.014	19.994	103.215	19.914	0.450	0.524
434.000	291.088	80.004	19.994	103.217	19.911	0.658	0.513
436.000	292.168	80.012	19.995	103.212	19.912	0.598	0.587
438.000	293.137	80.008	19.995	103.216	19.913	0.508	0.481
440.000	294.146	80.012	19.994	103.213	19.915	0.403	0.518
442.000	295.157	80.011	19.995	103.224	19.913	0.501	0.510
444.000	296.155	80.011	19.995	103.215	19.914	0.452	0.499
446.000	297.180	80.004	19.996	103.202	19.918	0.154	0.511
448.000	298.192	80.014	19.994	103.210	19.913	0.550	0.496
450.000	299.195	80.009	19.995	103.219	19.917	0.221	0.523
452.000	300.274	80.014	19.993	103.209	19.913	0.495	0.527
454.000	301.249	80.014	19.994	103.212	19.914	0.411	0.520
456.000	302.205	80.004	19.996	103.209	19.911	0.715	0.469
458.000	303.234	80.008	19.994	103.202	19.917	0.169	0.517
460.000	304.251	80.017	19.994	103.196	19.916	0.306	0.534
462.000	305.214	80.009	19.994	103.203	19.919	0.075	0.474
464.000	306.224	80.012	19.994	103.203	19.918	0.122	0.481
466.000	307.240	80.010	19.995	103.200	19.922	-0.182	0.510
468.000	308.229	80.010	19.996	103.200	19.922	-0.193	0.514
470.000	309.227	80.008	19.994	103.201	19.924	-0.353	0.474
472.000	310.230	80.006	19.995	103.188	19.921	-0.114	0.503
474.000	311.290	80.009	19.995	103.182	19.920	-0.009	0.515
476.000	312.270	80.014	19.995	103.198	19.925	-0.431	0.512
478.000	313.323	79.999	19.997	103.200	19.922	-0.191	0.525
480.000	314.334	80.006	19.997	103.200	19.925	-0.416	0.512
482.000	315.362	80.013	19.995	103.206	19.925	-0.383	0.514
484.000	316.379	80.011	19.995	103.204	19.926	-0.471	0.494
486.000	317.395	80.007	19.995	103.209	19.922	-0.212	0.504
488.000	318.393	80.007	19.995	103.191	19.925	-0.458	0.512
490.000	319.424	80.008	19.994	103.199	19.928	-0.647	0.512
492.000	320.461	80.010	19.995	103.198	19.923	-0.272	0.519
494.000	321.467	80.010	19.994	103.205	19.927	-0.551	0.511
496.000	322.468	80.009	19.993	103.200	19.930	-0.801	0.530
498.000	323.475	80.005	19.995	103.196	19.932	-0.994	0.487
500.000	324.470	80.000	19.994	103.216	19.929	-0.722	0.456
502.000	325.497	80.007	19.994	103.202	19.930	-0.812	0.494
504.000	326.589	80.012	19.994	103.195	19.930	-0.795	0.557
506.000	327.549	79.997	19.995	103.204	19.930	-0.825	0.525
508.000	328.572	80.009	19.995	103.211	19.935	-1.178	0.515
510.000	329.634	80.003	19.995	103.217	19.934	-1.127	0.532
512.000	330.641	80.002	19.996	103.209	19.934	-1.092	0.523
514.000	331.665	79.995	19.997	103.197	19.933	-1.058	0.555
516.000	332.651	80.019	19.995	103.203	19.933	-1.073	0.510
518.000	333.759	80.020	19.992	103.210	19.931	-0.930	0.553
520.000	334.830	80.012	19.994	103.208	19.930	-0.846	0.527
522.000	335.861	80.013	19.993	103.202	19.931	-0.874	0.566
524.000	336.890	80.012	19.993	103.202	19.929	-0.726	0.565
526.000	337.948	80.029	19.991	103.208	19.930	-0.846	0.531
528.000	339.035	80.012	19.992	103.202	19.928	-0.647	0.569
530.000	340.058	80.008	19.995	103.197	19.932	-0.953	0.533
532.000	341.063	80.008	19.995	103.192	19.932	-0.974	0.526
534.000	342.091	80.008	19.995	103.191	19.931	-0.917	0.504
536.000	343.099	80.012	19.994	103.182	19.927	-0.574	0.487
538.000	344.134	80.005	19.994	103.172	19.931	-0.859	0.503
540.000	345.118	80.003	19.995	103.183	19.933	-1.069	0.525
542.000	346.210	80.001	19.995	103.183	19.939	-1.550	0.542
544.000	347.243	80.017	19.994	103.183	19.934	-1.146	0.523
546.000	348.229	79.999	19.996	103.185	19.936	-1.300	0.493
548.000	349.309	79.993	19.996	103.191	19.941	-1.696	0.558
550.000	350.324	80.006	19.994	103.190	19.938	-1.413	0.503
552.000	351.315	80.016	19.994	103.184	19.939	-1.514	0.516
554.000	352.390	79.997	19.996	103.173	19.935	-1.184	0.495
556.000	353.446	80.013	19.994	103.168	19.935	-1.191	0.501
558.000	354.492	80.004	19.996	103.173	19.939	-1.520	0.550
560.000	355.556	80.011	19.994	103.178	19.935	-1.169	0.514
562.000	356.602	80.015	19.993	103.176	19.935	-1.176	0.533
564.000	357.570	79.992	19.997	103.184	19.937	-1.390	0.518
566.000	358.606	80.010	19.996	103.174	19.937	-1.394	0.503
568.000	359.584	79.994	19.996	103.175	19.935	-1.178	0.495
570.000	360.579	80.007	19.996	103.173	19.934	-1.124	0.505
572.000	361.608	80.007	19.994	103.179	19.932	-0.996	0.541
574.000	362.595	80.002	19.995	103.177	19.931	-0.884	0.475
576.000	363.627	80.005	19.995	103.190	19.927	-0.546	0.496
578.000	364.642	80.013	19.993	103.178	19.928	-0.636	0.533
580.000	365.650	80.013	19.995	103.181	19.925	-0.420	0.452
582.000	366.622	80.002	19.996	103.184	19.923	-0.229	0.487
584.000	367.597	80.006	19.995	103.177	19.921	-0.131	0.507
586.000	368.619	80.003	19.994	103.174	19.919	0.064	0.490
588.000	369.599	80.010	19.994	103.182	19.917	0.199	0.480
590.000	370.566	80.008	19.995	103.171	19.911	0.707	0.482
592.000	371.558	80.012	19.994	103.179	19.910	0.737	0.480
594.000	372.583	80.011	19.994	103.184	19.903	1.335	0.534
596.000	373.586	80.001	19.996	103.193	19.896	1.891	0.497
598.000	374.590	80.007	19.995	103.196	19.894	2.020	0.505
600.000	375.633	80.010	19.995	103.200	19.888	2.489	0.488
602.000	376.663	80.010	19.994	103.201	19.877	3.367	0.505
604.000	377.650	80.011	19.994	103.206	19.872	3.712	0.493
606.000	378.682	80.009	19.995	103.204	19.870	3.862	0.494
608.000	379.709	80.002	19.995	103.207	19.863	4.454	0.523
610.000	380.774	80.009	19.995	103.208	19.859	4.777	0.551
612.000	381.778	80.011	19.995	103.209	19.850	5.476	0.481
614.000	382.805	80.022	19.992	103.206	19.851	5.416	0.495
616.000	383.814	80.007	19.994	103.206	19.847	5.725	0.483
618.000	384.843	80.008	19.993	103.210	19.845	5.851	0.479
620.000	385.930	80.007	19.995	103.214	19.844	5.918	0.565
622.000	386.936	80.008	19.994	103.213	19.836	6.603	0.546
624.000	387.969	80.012	19.995	103.215	19.838	6.426	0.478
626.000	389.006	80.016	19.993	103.219	19.829	7.151	0.552
628.000	389.954	80.009	19.994	103.218	19.818	7.953	0.499
630.000	391.001	80.011	19.994	103.227	19.814	8.329	0.470
632.000	392.040	80.002	19.995	103.228	19.799	9.459	0.493
634.000	393.094	80.003	19.995	103.230	19.791	10.089	0.503
636.000	394.150	80.013	19.994	103.245	19.775	11.369	0.524
638.000	395.143	80.018	19.995	103.251	19.758	12.720	0.517
640.000	396.159	80.007	19.994	103.250	19.729	15.019	0.503
642.000	397.132	80.010	19.994	103.260	19.715	16.103	0.474
644.000	398.152	79.998	19.995	103.241	19.700	17.255	0.529
646.000	399.165	80.004	19.994	103.215	19.689	18.152	0.521
648.000	400.144	80.003	19.995	103.224	19.680	18.841	0.488
650.000	401.189	80.001	19.994	103.283	19.665	19.986	0.519
652.000	402.192	80.010	19.995	103.326	19.646	21.516	0.516
654.000	403.203	80.003	19.995	103.305	19.629	22.867	0.473
656.000	404.226	80.005	19.996	103.294	19.610	24.372	0.519
658.000	405.223	80.018	19.992	103.287	19.586	26.280	0.487
660.000	406.186	80.010	19.994	103.289	19.563	28.080	0.485
662.000	407.176	80.008	19.996	103.314	19.543	29.642	0.517
664.000	408.190	80.014	19.995	103.330	19.516	31.741	0.490
666.000	409.133	80.010	19.994	103.336	19.487	34.022	0.483
668.000	410.135	80.010	19.994	103.351	19.454	36.684	0.494
670.000	411.054	80.003	19.995	103.367	19.423	39.075	0.456
672.000	412.091	80.008	19.996	103.368	19.386	42.023	0.481
674.000	413.043	80.010	19.995	103.395	19.339	45.719	0.469
676.000	414.048	80.011	19.994	103.403	19.296	49.130	0.485
678.000	415.034	80.009	19.994	103.411	19.258	52.117	0.471
680.000	416.030	80.010	19.994	103.420	19.218	55.317	0.506
682.000	417.002	80.008	19.993	103.434	19.175	58.688	0.488
684.000	417.998	80.015	19.994	103.469	19.127	62.447	0.482
686.000	419.029	80.010	19.994	103.503	19.083	65.925	0.505
688.000	420.020	80.008	19.995	103.515	19.021	70.832	0.519
690.000	421.072	80.009	19.994	103.541	18.967	75.126	0.534
692.000	422.073	80.010	19.993	103.542	18.912	79.514	0.512
694.000	423.064	80.005	19.994	103.564	18.862	83.420	0.500
696.000	424.079	80.008	19.994	103.565	18.805	87.934	0.503
698.000	425.095	80.000	19.995	103.581	18.747	92.608	0.502
700.000	426.113	80.006	19.994	103.623	18.687	97.360	0.489
702.000	427.088	80.010	19.994	103.666	18.619	102.672	0.488
704.000	428.087	80.015	19.993	103.676	18.557	107.631	0.498
706.000	429.098	80.000	19.995	103.689	18.492	112.796	0.491
708.000	430.124	80.011	19.994	103.709	18.425	118.097	0.514
710.000	431.120	79.998	19.994	103.754	18.368	122.648	0.484
712.000	432.150	80.014	19.994	103.751	18.317	126.673	0.513
714.000	433.200	80.013	19.993	103.754	18.268	130.536	0.515
716.000	434.244	80.008	19.994	103.777	18.215	134.793	0.517
718.000	435.280	80.003	19.994	103.813	18.164	138.806	0.523
720.000	436.286	80.007	19.995	103.845	18.110	143.089	0.519
722.000	437.297	80.019	19.992	103.869	18.057	147.300	0.492
724.000	438.314	80.003	19.995	103.874	18.007	151.277	0.514
726.000	439.330	80.002	19.995	103.885	17.959	155.102	0.537
728.000	440.371	80.016	19.994	103.908	17.909	159.113	0.510
730.000	441.368	79.992	19.997	103.923	17.864	162.647	0.502
732.000	442.377	80.015	19.995	103.919	17.825	165.704	0.521
734.000	443.361	80.007	19.994	103.926	17.794	168.188	0.509
736.000	444.459	80.006	19.994	103.946	17.762	170.713	0.529
738.000	445.448	80.000	19.995	103.967	17.742	172.297	0.502
740.000	446.434	80.014	19.994	103.993	17.726	173.512	0.507
742.000	447.495	80.013	19.994	103.982	17.715	174.358	0.504
744.000	448.492	79.992	19.996	103.970	17.719	174.009	0.523
746.000	449.498	80.009	19.995	103.961	17.735	172.707	0.478
748.000	450.532	80.021	19.994	103.955	17.761	170.600	0.540
750.000	451.564	79.986	19.998	103.952	17.793	168.025	0.508
752.000	452.630	80.010	19.996	103.940	17.840	164.260	0.552
754.000	453.622	80.013	19.995	103.917	17.905	159.050	0.497
756.000	454.647	80.005	19.995	103.891	17.974	153.552	0.525
758.000	455.715	80.004	19.996	103.872	18.059	146.814	0.536
760.000	456.734	80.013	19.996	103.832	18.143	140.131	0.545
762.000	457.767	80.011	19.995	103.797	18.238	132.560	0.500
764.000	458.846	80.002	19.996	103.763	18.338	124.622	0.531
766.000	459.893	80.008	19.994	103.735	18.441	116.500	0.509
768.000	460.906	80.015	19.995	103.702	18.553	107.665	0.532
770.000	461.953	80.009	19.993	103.661	18.671	98.328	0.523
772.000	463.013	80.009	19.993	103.619	18.799	88.233	0.506
774.000	464.032	80.004	19.994	103.566	18.918	78.798	0.512
776.000	465.063	80.008	19.994	103.550	19.033	69.765	0.530
778.000	466.123	80.013	19.994	103.525	19.135	61.729	0.538
780.000	467.183	80.009	19.994	103.500	19.228	54.412	0.547
782.000	468.207	80.017	19.994	103.469	19.313	47.708	0.531
784.000	469.254	79.996	19.995	103.433	19.392	41.478	0.532
786.000	470.264	80.009	19.995	103.392	19.457	36.374	0.485
788.000	471.345	80.013	19.995	103.371	19.511	32.104	0.502
790.000	472.387	80.013	19.994	103.360	19.562	28.067	0.537
792.000	473.465	80.017	19.993	103.344	19.608	24.494	0.519
794.000	474.508	80.017	19.993	103.315	19.649	21.228	0.537
796.000	475.591	80.022	19.991	103.307	19.687	18.299	0.534
798.000	476.627	80.015	19.994	103.285	19.718	15.869	0.536
800.000	477.658	80.016	19.994	103.280	19.746	13.636	0.515
802.000	478.716	79.999	19.995	103.254	19.773	11.494	0.547
804.000	479.735	79.994	19.996	103.250	19.799	9.502	0.499
806.000	480.798	80.013	19.993	103.242	19.813	8.347	0.535
808.000	481.846	80.009	19.995	103.252	19.834	6.694	0.542
810.000	482.841	80.008	19.994	103.238	19.852	5.298	0.515
812.000	483.872	80.001	19.996	103.225	19.864	4.338	0.510
814.000	484.934	80.013	19.994	103.216	19.878	3.262	0.532
816.000	485.958	80.013	19.994	103.228	19.889	2.433	0.535
818.000	486.968	80.013	19.995	103.213	19.900	1.523	0.511
820.000	487.962	80.018	19.993	103.208	19.911	0.640	0.487
822.000	488.997	80.014	19.995	103.215	19.922	-0.195	0.511
824.000	490.009	79.997	19.996	103.192	19.930	-0.797	0.503
826.000	491.094	80.012	19.995	103.194	19.936	-1.247	0.504
828.000	492.122	80.011	19.995	103.195	19.947	-2.159	0.515
830.000	493.152	80.006	19.994	103.192	19.953	-2.593	0.490
832.000	494.230	80.005	19.995	103.187	19.957	-2.910	0.524
834.000	495.304	80.014	19.994	103.172	19.966	-3.645	0.550
836.000	496.307	80.009	19.995	103.188	19.967	-3.715	0.505
838.000	497.321	80.008	19.995	103.184	19.973	-4.190	0.521
840.000	498.346	80.013	19.994	103.183	19.977	-4.464	0.511
842.000	499.344	80.013	19.995	103.168	19.977	-4.491	0.507
844.000	500.426	80.012	19.993	103.172	19.981	-4.847	0.536
846.000	501.453	80.008	19.995	103.169	19.984	-5.089	0.524
848.000	502.459	80.007	19.996	103.163	19.986	-5.211	0.528
850.000	503.467	80.016	19.994	103.153	19.986	-5.196	0.507
852.000	504.534	80.010	19.995	103.149	19.993	-5.727	0.529
854.000	505.489	80.014	19.996	103.139	19.992	-5.681	0.498
856.000	506.493	80.003	19.997	103.150	19.992	-5.649	0.478
858.000	507.551	80.002	19.995	103.142	19.989	-5.478	0.508
860.000	508.562	80.010	19.995	103.138	19.991	-5.609	0.514
862.000	509.582	80.008	19.994	103.150	19.992	-5.679	0.499
864.000	510.590	80.008	19.994	103.151	19.988	-5.358	0.462
866.000	511.593	80.011	19.994	103.129	19.991	-5.632	0.500
868.000	512.603	80.014	19.994	103.131	19.996	-5.983	0.494
870.000	513.654	80.013	19.993	103.136	19.998	-6.165	0.515
872.000	514.660	79.998	19.996	103.141	19.996	-5.998	0.529
874.000	515.681	80.010	19.993	103.133	20.000	-6.304	0.493
876.000	516.705	80.013	19.994	103.130	20.001	-6.394	0.518
878.000	517.681	79.998	19.996	103.131	20.001	-6.416	0.487
880.000	518.735	79.996	19.995	103.135	20.003	-6.546	0.508
882.000	519.789	80.007	19.994	103.136	20.007	-6.827	0.548
884.000	520.797	80.004	19.995	103.132	20.005	-6.728	0.522
886.000	521.825	80.010	19.993	103.132	20.006	-6.762	0.510
888.000	522.864	80.005	19.994	103.142	20.003	-6.520	0.520
890.000	523.896	80.010	19.994	103.138	20.008	-6.966	0.511
892.000	524.912	80.007	19.993	103.143	20.008	-6.942	0.515
894.000	525.947	80.007	19.993	103.133	20.006	-6.803	0.517
896.000	526.954	80.011	19.994	103.132	20.015	-7.471	0.493
898.000	528.009	80.011	19.993	103.133	20.008	-6.948	0.538
900.000	529.030	80.010	19.993	103.133	20.011	-7.206	0.490
902.000	530.063	80.007	19.994	103.136	20.009	-6.977	0.532
904.000	531.092	80.008	19.994	103.142	20.012	-7.231	0.526
906.000	532.142	80.006	19.994	103.137	20.011	-7.170	0.512
908.000	533.098	80.009	19.994	103.128	20.008	-6.899	0.517
910.000	534.165	80.010	19.995	103.130	20.010	-7.130	0.561
912.000	535.161	80.007	19.994	103.142	20.014	-7.394	0.490
914.000	536.192	80.013	19.995	103.140	20.012	-7.280	0.511
916.000	537.226	80.006	19.996	103.129	20.014	-7.385	0.535
918.000	538.198	80.009	19.995	103.125	20.015	-7.464	0.524
920.000	539.250	80.007	19.996	103.132	20.017	-7.621	0.530
922.000	540.274	80.002	19.995	103.130	20.019	-7.832	0.511
924.000	541.281	79.998	19.996	103.127	20.015	-7.457	0.488
926.000	542.290	80.007	19.995	103.131	20.020	-7.847	0.483
928.000	543.338	80.012	19.994	103.127	20.020	-7.854	0.518
930.000	544.379	80.011	19.994	103.134	20.018	-7.734	0.529
932.000	545.401	80.004	19.996	103.136	20.017	-7.663	0.487
934.000	546.393	80.008	19.997	103.121	20.019	-7.794	0.484
936.000	547.519	80.006	19.996	103.125	20.020	-7.884	0.518
938.000	548.494	80.008	19.997	103.130	20.017	-7.621	0.495
940.000	549.549	80.008	19.995	103.134	20.016	-7.601	0.554
942.000	550.563	80.010	19.995	103.133	20.019	-7.805	0.526
944.000	551.598	80.009	19.994	103.134	20.019	-7.835	0.500
946.000	552.576	80.011	19.996	103.135	20.020	-7.878	0.485
948.000	553.651	80.011	19.994	103.136	20.018	-7.685	0.508
950.000	554.706	80.012	19.995	103.135	20.017	-7.678	0.519
952.000	555.737	80.013	19.994	103.136	20.017	-7.612	0.511
954.000	556.759	80.004	19.995	103.135	20.021	-7.920	0.501
956.000	557.791	80.010	19.994	103.133	20.022	-8.023	0.523
958.000	558.787	80.010	19.993	103.135	20.021	-7.961	0.503
960.000	559.824	80.011	19.994	103.127	20.021	-7.939	0.491
962.000	560.866	79.997	19.995	103.136	20.022	-8.057	0.502
964.000	561.850	80.007	19.993	103.136	20.023	-8.113	0.495
966.000	562.919	80.008	19.994	103.136	20.023	-8.087	0.516
968.000	563.937	80.005	19.995	103.137	20.022	-8.023	0.509
970.000	564.977	80.008	19.995	103.131	20.022	-8.025	0.520
972.000	566.019	80.008	19.994	103.128	20.022	-8.055	0.525
974.000	567.059	80.009	19.994	103.132	20.025	-8.239	0.536
976.000	568.094	80.006	19.995	103.133	20.022	-8.027	0.540
978.000	569.108	80.007	19.994	103.131	20.022	-8.021	0.483
980.000	570.165	80.007	19.994	103.132	20.024	-8.183	0.538
982.000	571.190	80.009	19.995	103.130	20.025	-8.267	0.524
984.000	572.202	80.009	19.996	103.132	20.026	-8.340	0.525
986.000	573.325	80.008	19.994	103.129	20.023	-8.075	0.572
988.000	574.345	80.009	19.994	103.129	20.024	-8.151	0.511
990.000	575.419	80.005	19.995	103.127	20.028	-8.542	0.522
992.000	576.466	80.005	19.994	103.131	20.030	-8.676	0.519
994.000	577.505	80.010	19.994	103.133	20.030	-8.641	0.535
996.000	578.550	80.013	19.994	103.134	20.028	-8.532	0.514
998.000	579.601	80.008	19.995	103.135	20.032	-8.780	0.534
1000.000	580.614	80.009	19.994	103.127	20.030	-8.700	0.520
1002.000	581.631	80.009	19.995	103.128	20.030	-8.663	0.495
1004.000	582.689	80.010	19.994	103.129	20.032	-8.811	0.524
1006.000	583.737	80.009	19.994	103.129	20.028	-8.495	0.518
1008.000	584.754	80.010	19.995	103.128	20.027	-8.454	0.517
1010.000	585.801	80.009	19.994	103.128	20.028	-8.538	0.510
1012.000	586.794	80.004	19.995	103.134	20.026	-8.322	0.493
1014.000	587.864	80.010	19.994	103.131	20.024	-8.215	0.523
1016.000	588.898	80.013	19.993	103.129	20.027	-8.389	0.551
1018.000	589.938	80.020	19.993	103.128	20.026	-8.312	0.548
1020.000	590.925	80.001	19.996	103.139	20.027	-8.457	0.518
1022.000	591.979	80.009	19.994	103.125	20.026	-8.374	0.512
1024.000	592.968	80.009	19.994	103.136	20.026	-8.322	0.507
1026.000	593.997	80.008	19.995	103.132	20.026	-8.350	0.536
1027.999	595.059	80.006	19.994	103.128	20.028	-8.473	0.540
1029.999	596.066	80.005	19.994	103.131	20.026	-8.384	0.478
1031.999	597.067	80.012	19.995	103.130	20.027	-8.446	0.490
1034.000	598.103	80.009	19.995	103.130	20.031	-8.742	0.492
1035.999	599.106	80.008	19.995	103.125	20.031	-8.737	0.498
1037.999	600.145	80.009	19.995	103.119	20.027	-8.414	0.514
1040.000	601.166	80.008	19.994	103.115	20.030	-8.649	0.532
1041.999	602.179	80.007	19.995	103.127	20.031	-8.715	0.503
1043.999	603.155	80.009	19.995	103.128	20.029	-8.602	0.480
1045.999	604.199	80.008	19.995	103.122	20.033	-8.862	0.516
1047.999	605.218	80.007	19.995	103.121	20.033	-8.896	0.492
1049.999	606.234	80.010	19.994	103.117	20.033	-8.858	0.519
1052.001	607.241	80.009	19.995	103.114	20.035	-9.029	0.508
1054.000	608.276	80.009	19.994	103.118	20.034	-8.967	0.535
1055.999	609.279	80.009	19.994	103.110	20.035	-9.014	0.487
1057.999	610.257	80.008	19.994	103.106	20.035	-9.089	0.493
1059.999	611.327	80.010	19.994	103.101	20.034	-8.997	0.501
1062.000	612.343	80.007	19.996	103.106	20.034	-8.975	0.495
1063.999	613.368	80.008	19.994	103.110	20.035	-9.026	0.531
1065.999	614.442	80.008	19.995	103.111	20.038	-9.251	0.541
1067.999	615.446	80.006	19.995	103.125	20.040	-9.425	0.524
1069.999	616.491	80.007	19.994	103.131	20.038	-9.270	0.509
1071.999	617.551	80.006	19.994	103.128	20.042	-9.628	0.548
1073.999	618.534	80.008	19.994	103.127	20.036	-9.162	0.492
1076.000	619.563	80.009	19.994	103.106	20.040	-9.473	0.519
1077.999	620.559	80.007	19.994	103.102	20.034	-8.975	0.496
1079.999	621.654	80.009	19.995	103.117	20.041	-9.543	0.550
1081.999	622.629	80.010	19.993	103.118	20.044	-9.737	0.502
1083.999	623.684	80.009	19.995	103.118	20.044	-9.781	0.533
1085.999	624.743	80.011	19.993	103.114	20.044	-9.797	0.561
1087.999	625.716	80.011	19.994	103.119	20.044	-9.735	0.486
1089.999	626.759	80.009	19.994	103.100	20.046	-9.888	0.535
1091.999	627.797	80.007	19.994	103.125	20.043	-9.643	0.526
1093.999	628.845	80.007	19.994	103.120	20.044	-9.761	0.511
1095.999	629.884	80.008	19.995	103.118	20.046	-9.905	0.514
1098.000	630.982	80.009	19.995	103.109	20.045	-9.829	0.559
1099.999	631.994	80.008	19.995	103.095	20.049	-10.127	0.502
1102.000	633.068	80.009	19.995	103.103	20.047	-9.965	0.519
1103.999	634.114	80.011	19.994	103.108	20.049	-10.151	0.547
1105.999	635.169	80.011	19.995	103.104	20.051	-10.289	0.495
1108.000	636.258	80.010	19.994	103.095	20.053	-10.486	0.532
1109.999	637.279	80.011	19.994	103.108	20.052	-10.399	0.536
1111.999	638.308	80.009	19.995	103.104	20.051	-10.318	0.518
1113.999	639.380	80.009	19.995	103.094	20.054	-10.511	0.502
1116.000	640.450	80.012	19.994	103.099	20.057	-10.776	0.504
1117.999	641.485	80.008	19.995	103.107	20.058	-10.825	0.496
1119.999	642.493	80.006	19.996	103.096	20.059	-10.913	0.522
1121.999	643.595	80.007	19.996	103.096	20.061	-11.125	0.526
1123.999	644.589	80.008	19.996	103.092	20.065	-11.384	0.516
1125.999	645.581	80.007	19.996	103.092	20.065	-11.408	0.486
1127.999	646.633	80.008	19.995	103.093	20.064	-11.322	0.558
1129.999	647.663	80.007	19.995	103.098	20.067	-11.574	0.510
1131.999	648.705	80.007	19.995	103.095	20.064	-11.330	0.494
1133.999	649.703	80.008	19.995	103.097	20.067	-11.534	0.525
1135.999	650.751	80.009	19.994	103.096	20.067	-11.564	0.507
1137.999	651.784	80.008	19.994	103.097	20.072	-11.988	0.523
1139.999	652.775	80.009	19.994	103.096	20.070	-11.836	0.503
1141.999	653.807	80.008	19.994	103.095	20.070	-11.800	0.491
1143.999	654.823	80.008	19.994	103.095	20.070	-11.804	0.492
1145.999	655.796	80.006	19.994	103.096	20.073	-12.047	0.470
1147.999	656.813	80.007	19.994	103.098	20.071	-11.855	0.482
1149.999	657.866	80.006	19.994	103.100	20.075	-12.180	0.530
1151.999	658.827	80.006	19.993	103.103	20.072	-11.946	0.512
1154.000	659.814	80.009	19.995	103.101	20.077	-12.353	0.486
1156.000	660.853	80.008	19.995	103.098	20.075	-12.218	0.502
1157.999	661.819	80.009	19.994	103.096	20.076	-12.304	0.509
1160.000	662.876	80.009	19.994	103.096	20.077	-12.336	0.516
1161.999	663.846	80.009	19.994	103.090	20.080	-12.571	0.510
1164.000	664.837	80.010	19.994	103.091	20.078	-12.409	0.465
1166.000	665.849	80.009	19.995	103.094	20.081	-12.691	0.492
1168.000	666.886	80.010	19.994	103.094	20.077	-12.368	0.531
1170.000	667.942	80.010	19.994	103.094	20.079	-12.507	0.495
1171.999	668.973	80.008	19.994	103.096	20.079	-12.537	0.510
1173.999	670.026	80.010	19.994	103.093	20.083	-12.805	0.510
1175.999	671.087	80.009	19.994	103.094	20.081	-12.693	0.498
1177.999	672.092	80.009	19.994	103.094	20.083	-12.836	0.513
1179.999	673.187	80.010	19.995	103.092	20.086	-13.059	0.536
1181.999	674.253	80.010	19.995	103.094	20.089	-13.273	0.548
1183.999	675.357	80.009	19.995	103.096	20.088	-13.228	0.538
1185.999	676.407	80.010	19.994	103.091	20.089	-13.265	0.545
1187.999	677.468	80.010	19.995	103.090	20.089	-13.250	0.532
1189.999	678.576	80.009	19.994	103.090	20.090	-13.374	0.537
1192.000	679.641	80.009	19.995	103.093	20.091	-13.429	0.559
1194.000	680.648	80.009	19.994	103.104	20.091	-13.463	0.516
1195.999	681.697	80.009	19.995	103.102	20.091	-13.472	0.515
1197.999	682.811	80.010	19.995	103.094	20.094	-13.646	0.540
1199.999	683.850	80.008	19.994	103.099	20.091	-13.412	0.521
1201.999	684.898	80.007	19.995	103.096	20.096	-13.828	0.516
1203.999	686.003	80.007	19.994	103.089	20.095	-13.749	0.529
1205.999	687.028	80.007	19.994	103.094	20.099	-14.065	0.518
1207.999	688.068	80.006	19.995	103.094	20.099	-14.036	0.504
1209.999	689.161	80.007	19.995	103.096	20.096	-13.832	0.525
1212.000	690.190	80.007	19.996	103.096	20.099	-14.089	0.515
1213.999	691.200	80.007	19.995	103.095	20.101	-14.191	0.479
1215.999	692.259	80.007	19.996	103.096	20.100	-14.168	0.529
1217.999	693.246	80.006	19.996	103.091	20.102	-14.281	0.516
1219.999	694.322	80.007	19.995	103.085	20.103	-14.415	0.513
1221.999	695.349	80.008	19.995	103.085	20.106	-14.608	0.504
1223.999	696.365	80.007	19.995	103.093	20.102	-14.291	0.536
1226.000	697.385	80.007	19.994	103.088	20.106	-14.597	0.521
1227.999	698.350	80.007	19.995	103.085	20.106	-14.656	0.487
1230.000	699.363	80.007	19.994	103.091	20.109	-14.883	0.547
1231.999	700.377	80.008	19.995	103.094	20.106	-14.642	0.490
1233.999	701.383	80.007	19.995	103.089	20.108	-14.811	0.486
1235.999	702.323	80.009	19.995	103.085	20.104	-14.447	0.474
1237.999	703.303	80.009	19.993	103.084	20.106	-14.638	0.488
1239.999	704.271	80.009	19.995	103.086	20.106	-14.589	0.513
1241.999	705.270	80.008	19.995	103.090	20.108	-14.784	0.467
1243.999	706.271	80.008	19.994	103.092	20.112	-15.107	0.499
1245.999	707.202	80.008	19.994	103.083	20.108	-14.756	0.453
1248.000	708.176	80.007	19.993	103.091	20.109	-14.862	0.450
1249.999	709.147	80.008	19.994	103.092	20.106	-14.604	0.481
1251.999	710.087	80.008	19.994	103.093	20.109	-14.844	0.457
1254.000	711.067	80.007	19.995	103.093	20.109	-14.891	0.498
1255.999	712.034	80.008	19.995	103.094	20.110	-14.938	0.464
1258.000	713.067	80.009	19.994	103.101	20.112	-15.113	0.526
1259.999	714.075	80.008	19.994	103.102	20.113	-15.166	0.510
1261.999	715.100	80.011	19.994	103.096	20.110	-14.959	0.525
1263.999	716.126	80.010	19.993	103.097	20.109	-14.824	0.498
1265.999	717.124	80.010	19.994	103.093	20.110	-14.914	0.503
1267.999	718.147	80.010	19.994	103.096	20.112	-15.085	0.493
1269.999	719.202	80.008	19.994	103.091	20.113	-15.191	0.556
1272.000	720.211	80.007	19.994	103.095	20.113	-15.178	0.519
1273.999	721.220	80.007	19.994	103.086	20.114	-15.248	0.525
1276.000	722.258	80.007	19.994	103.093	20.116	-15.402	0.532
1278.000	723.268	80.006	19.995	103.090	20.118	-15.537	0.514
1280.000	724.266	80.006	19.994	103.087	20.117	-15.513	0.481
1281.999	725.290	80.006	19.994	103.091	20.117	-15.468	0.521
1284.000	726.341	80.006	19.995	103.096	20.117	-15.449	0.544
1285.999	727.333	80.006	19.995	103.095	20.118	-15.543	0.498
1287.999	728.355	80.007	19.995	103.086	20.115	-15.291	0.523
1289.999	729.363	80.009	19.995	103.081	20.118	-15.571	0.486
1292.000	730.357	80.008	19.995	103.093	20.116	-15.391	0.453
1293.999	731.373	80.007	19.996	103.090	20.117	-15.479	0.477
1295.999	732.351	80.006	19.996	103.092	20.119	-15.642	0.492
1298.000	733.347	80.007	19.994	103.094	20.116	-15.372	0.508
1300.000	734.327	80.006	19.995	103.094	20.121	-15.783	0.511
1301.999	735.294	80.006	19.996	103.092	20.121	-15.785	0.478
1304.000	736.292	80.006	19.996	103.091	20.118	-15.554	0.499
1305.999	737.285	80.006	19.996	103.092	20.116	-15.372	0.478
1307.999	738.292	80.006	19.995	103.092	20.116	-15.430	0.487
1309.999	739.333	80.008	19.995	103.092	20.120	-15.728	0.524
1312.000	740.319	80.007	19.996	103.092	20.119	-15.644	0.491
1313.999	741.338	80.009	19.995	103.090	20.119	-15.646	0.494
1315.999	742.368	80.009	19.994	103.094	20.119	-15.676	0.532
1317.999	743.375	80.008	19.995	103.084	20.121	-15.779	0.502
1318.499	743.661	80.009	19.994	103.082	20.118	-15.548	0.514