File: 01_Data/Polyester_Fabric/MCC/Polyester_Fabric_MCC_30K_min_210308_R2.txt
Sample ID:	C:\MCC\MCC Cal\Test\Polyester_Fabric_30_2.txt
Sample Weight (mg):	3.46
Heating Rate (C/s):	0.5
Combustor Temp (C):	900
N2 Flow Rate (cc/min):	80
O2 Flow Rate (cc/min):	20
Calibration File:	C:\MCC\MCC Cal\Coeff1 JN10440_30_210304.txt.txt
T Correction Coefficients:	0	1.024463	0
Time Shift (s):	14
*
Time (s)	Temperature (C)	N2 flow rate (cc/min)	O2 flow rate (cc/min)	Flow Rate (cc/min)	Oxygen (%)	HRR (W/g)	Heating rate (C/s)
0.000	112.075	79.993	19.989	99.594	20.311	0.413	0.002
1.500	112.031	79.993	19.990	99.602	20.318	-0.145	0.008
3.000	112.017	79.993	19.990	99.635	20.317	-0.123	-0.005
4.499	111.993	79.992	19.990	99.623	20.311	0.438	-0.017
5.999	111.984	79.994	19.990	99.613	20.315	0.128	0.000
7.499	111.973	79.993	19.990	99.631	20.313	0.303	-0.033
9.000	111.948	79.994	19.991	99.626	20.314	0.145	-0.017
10.499	111.964	79.995	19.992	99.650	20.306	0.860	0.006
11.999	111.992	79.996	19.991	99.692	20.304	1.099	0.014
13.499	112.008	79.995	19.991	99.678	20.300	1.419	0.025
14.999	112.064	79.994	19.990	99.679	20.296	1.824	0.039
16.499	112.084	79.994	19.991	99.699	20.291	2.225	0.008
18.000	112.135	79.995	19.991	99.763	20.290	2.343	0.028
19.499	112.216	79.994	19.991	99.780	20.286	2.738	0.052
20.999	112.319	79.993	19.992	99.761	20.284	2.889	0.078
22.499	112.401	79.995	19.989	99.770	20.280	3.258	0.050
24.000	112.540	79.995	19.991	99.782	20.278	3.384	0.064
25.499	112.659	79.993	19.991	99.809	20.277	3.472	0.078
26.999	112.816	79.996	19.991	99.819	20.281	3.164	0.099
28.500	112.965	79.995	19.990	99.805	20.282	3.071	0.109
29.999	113.137	79.996	19.991	99.813	20.282	3.101	0.114
31.499	113.408	79.995	19.992	99.828	20.277	3.530	0.184
32.999	113.567	79.996	19.991	99.826	20.278	3.407	0.144
34.499	113.843	79.997	19.990	99.821	20.275	3.693	0.182
36.000	114.095	79.996	19.990	99.815	20.274	3.806	0.167
37.500	114.323	79.995	19.992	99.808	20.273	3.838	0.157
38.999	114.628	79.994	19.991	99.803	20.273	3.861	0.218
40.499	114.931	79.994	19.991	99.826	20.273	3.879	0.189
41.999	115.237	79.994	19.991	99.838	20.273	3.879	0.214
43.499	115.571	79.994	19.991	99.850	20.273	3.866	0.218
45.000	115.931	79.992	19.992	99.847	20.270	4.110	0.252
46.500	116.272	79.993	19.992	99.833	20.273	3.887	0.229
48.000	116.597	79.992	19.991	99.837	20.268	4.294	0.215
49.500	116.986	79.993	19.991	99.858	20.271	4.042	0.260
50.999	117.361	79.994	19.992	99.872	20.269	4.192	0.285
52.501	117.749	79.994	19.991	99.871	20.271	4.066	0.262
54.000	118.152	79.994	19.991	99.869	20.270	4.130	0.285
55.499	118.564	79.993	19.990	99.866	20.268	4.355	0.259
56.999	118.985	79.993	19.990	99.878	20.268	4.325	0.293
58.499	119.470	79.994	19.988	99.890	20.265	4.628	0.324
59.999	119.933	79.995	19.991	99.886	20.269	4.273	0.309
61.500	120.391	79.993	19.991	99.874	20.268	4.308	0.294
62.999	120.850	79.994	19.991	99.874	20.265	4.609	0.305
64.500	121.359	79.993	19.991	99.875	20.266	4.505	0.331
66.000	121.863	79.993	19.991	99.843	20.263	4.796	0.352
67.499	122.346	79.993	19.990	99.805	20.262	4.883	0.338
68.999	122.849	79.994	19.990	99.856	20.262	4.873	0.327
70.500	123.386	79.993	19.991	99.873	20.260	5.071	0.368
72.000	123.910	79.992	19.991	99.882	20.261	4.990	0.365
73.499	124.480	79.993	19.990	99.883	20.263	4.759	0.379
74.999	124.987	79.992	19.992	99.875	20.258	5.198	0.348
76.499	125.569	79.992	19.991	99.879	20.262	4.838	0.364
78.000	126.132	79.992	19.990	99.879	20.261	4.956	0.363
79.500	126.702	79.993	19.990	99.882	20.258	5.217	0.379
81.000	127.282	79.994	19.990	99.883	20.258	5.251	0.385
82.499	127.870	79.993	19.990	99.897	20.263	4.770	0.388
84.000	128.434	79.994	19.990	99.954	20.261	4.936	0.390
85.500	129.059	79.994	19.992	99.977	20.263	4.771	0.436
86.999	129.678	79.995	19.990	99.923	20.263	4.754	0.430
88.499	130.240	79.995	19.991	99.915	20.262	4.882	0.397
89.999	130.897	79.995	19.990	99.911	20.256	5.402	0.426
91.499	131.511	79.994	19.990	99.896	20.261	4.921	0.420
92.999	132.162	79.996	19.990	99.894	20.257	5.284	0.421
94.500	132.796	79.997	19.990	99.905	20.259	5.178	0.426
95.999	133.473	79.995	19.991	99.910	20.253	5.722	0.476
97.500	134.160	79.995	19.991	99.909	20.256	5.399	0.464
98.999	134.766	79.994	19.990	99.907	20.255	5.483	0.386
100.500	135.481	79.994	19.993	99.901	20.255	5.486	0.466
101.999	136.137	79.996	19.992	99.908	20.253	5.675	0.440
103.499	136.789	79.995	19.991	99.910	20.253	5.654	0.429
105.001	137.504	79.993	19.992	99.909	20.251	5.881	0.484
106.499	138.190	79.994	19.991	99.926	20.253	5.689	0.475
107.999	138.865	79.993	19.991	99.947	20.256	5.425	0.438
109.499	139.593	79.995	19.991	99.942	20.256	5.432	0.483
110.999	140.330	79.995	19.991	99.942	20.256	5.413	0.520
112.499	141.018	79.995	19.991	99.936	20.255	5.536	0.453
113.999	141.732	79.996	19.990	99.917	20.254	5.600	0.490
115.500	142.468	79.997	19.990	99.912	20.251	5.832	0.494
116.999	143.162	79.995	19.991	99.913	20.250	5.982	0.471
118.499	143.894	79.996	19.991	99.917	20.253	5.635	0.491
119.999	144.650	79.994	19.992	99.915	20.253	5.678	0.498
121.500	145.450	79.995	19.991	99.918	20.252	5.796	0.530
122.999	146.142	79.994	19.991	99.911	20.255	5.541	0.479
124.500	146.928	79.993	19.991	99.913	20.255	5.538	0.527
125.999	147.668	79.993	19.992	99.911	20.252	5.792	0.493
127.499	148.444	79.993	19.992	99.912	20.255	5.541	0.533
129.000	149.194	79.993	19.993	99.921	20.253	5.674	0.488
130.500	149.939	79.993	19.991	99.942	20.255	5.472	0.470
132.000	150.694	79.993	19.992	99.949	20.253	5.685	0.500
133.500	151.467	79.992	19.991	99.928	20.254	5.578	0.532
135.000	152.233	79.993	19.992	99.913	20.254	5.552	0.499
136.500	152.970	79.993	19.993	99.913	20.252	5.735	0.493
138.000	153.723	79.993	19.990	99.909	20.249	6.054	0.496
139.500	154.506	79.993	19.991	99.893	20.249	6.002	0.520
141.000	155.295	79.994	19.990	99.848	20.249	6.002	0.537
142.500	156.027	79.994	19.991	99.897	20.258	5.200	0.480
144.000	156.792	79.994	19.991	99.958	20.256	5.412	0.515
145.501	157.571	79.994	19.991	99.913	20.253	5.659	0.511
147.000	158.283	79.993	19.991	99.904	20.251	5.844	0.482
148.500	159.078	79.994	19.991	99.908	20.256	5.412	0.515
150.000	159.821	79.994	19.990	99.910	20.253	5.656	0.522
151.500	160.595	79.994	19.991	99.910	20.253	5.678	0.528
153.000	161.373	79.993	19.990	99.910	20.250	5.913	0.514
154.500	162.126	79.996	19.990	99.910	20.253	5.669	0.510
156.000	162.936	79.995	19.991	99.909	20.254	5.603	0.550
157.500	163.723	79.994	19.990	99.907	20.254	5.609	0.513
159.000	164.484	79.994	19.991	99.907	20.257	5.320	0.501
160.500	165.282	79.994	19.990	99.908	20.257	5.325	0.531
162.000	166.008	79.993	19.990	99.909	20.255	5.507	0.495
163.500	166.805	79.994	19.992	99.908	20.253	5.696	0.523
165.000	167.524	79.994	19.992	99.910	20.256	5.387	0.475
166.500	168.316	79.994	19.990	99.892	20.256	5.417	0.559
168.000	169.093	79.994	19.991	99.891	20.257	5.301	0.509
169.500	169.883	79.995	19.990	99.898	20.257	5.328	0.515
171.000	170.593	79.996	19.991	99.895	20.254	5.615	0.485
172.500	171.349	79.996	19.990	99.889	20.255	5.531	0.504
174.000	172.122	79.997	19.991	99.873	20.253	5.679	0.519
175.500	172.898	79.997	19.989	99.882	20.249	6.032	0.535
177.000	173.647	79.996	19.991	99.907	20.254	5.605	0.510
178.500	174.426	79.995	19.989	99.904	20.253	5.642	0.501
180.000	175.182	79.996	19.991	99.908	20.253	5.706	0.530
181.500	175.929	79.995	19.991	99.916	20.253	5.713	0.487
183.000	176.698	79.995	19.991	99.909	20.257	5.300	0.503
184.500	177.441	79.994	19.991	99.914	20.257	5.340	0.515
186.000	178.192	79.995	19.991	99.913	20.253	5.643	0.478
187.500	178.933	79.995	19.991	99.911	20.254	5.612	0.501
189.000	179.678	79.994	19.992	99.911	20.258	5.204	0.494
190.500	180.464	79.995	19.991	99.910	20.252	5.772	0.514
192.000	181.166	79.995	19.992	99.913	20.255	5.511	0.471
193.500	181.926	79.995	19.991	99.900	20.254	5.606	0.521
195.000	182.678	79.995	19.991	99.892	20.256	5.431	0.501
196.500	183.456	79.996	19.991	99.898	20.253	5.688	0.509
198.000	184.193	79.995	19.991	99.895	20.255	5.529	0.508
199.500	184.930	79.995	19.991	99.930	20.255	5.509	0.497
201.000	185.723	79.995	19.990	99.912	20.258	5.191	0.522
202.500	186.479	79.995	19.991	99.875	20.254	5.616	0.521
204.000	187.176	79.995	19.991	99.876	20.255	5.517	0.459
205.500	187.952	79.994	19.991	99.896	20.255	5.519	0.516
207.000	188.719	79.994	19.991	99.903	20.252	5.796	0.518
208.500	189.454	79.993	19.991	99.889	20.250	5.950	0.500
210.000	190.190	79.995	19.991	99.872	20.250	5.938	0.477
211.500	190.938	79.993	19.991	99.878	20.252	5.748	0.480
213.000	191.637	79.994	19.992	99.886	20.249	6.040	0.486
214.500	192.402	79.993	19.991	99.899	20.248	6.104	0.538
216.000	193.152	79.993	19.991	99.889	20.253	5.677	0.490
217.500	193.922	79.994	19.992	99.887	20.251	5.821	0.525
219.000	194.628	79.994	19.994	99.903	20.254	5.584	0.455
220.500	195.382	79.993	19.992	99.910	20.250	5.947	0.492
222.000	196.109	79.993	19.992	99.910	20.254	5.587	0.483
223.500	196.843	79.994	19.993	99.894	20.252	5.793	0.487
225.000	197.561	79.995	19.991	99.892	20.249	6.031	0.460
226.500	198.316	79.993	19.992	99.888	20.248	6.153	0.506
228.000	199.072	79.994	19.991	99.890	20.251	5.833	0.514
229.500	199.809	79.995	19.991	99.902	20.249	6.056	0.506
231.000	200.526	79.995	19.992	99.905	20.250	5.954	0.490
232.500	201.260	79.995	19.992	99.909	20.249	6.034	0.506
234.000	202.025	79.994	19.990	99.899	20.250	5.910	0.497
235.500	202.749	79.993	19.991	99.874	20.254	5.557	0.465
237.000	203.490	79.995	19.991	99.880	20.252	5.801	0.485
238.500	204.215	79.992	19.992	99.900	20.252	5.729	0.473
240.000	204.954	79.993	19.992	99.904	20.249	6.006	0.498
241.500	205.743	79.993	19.992	99.901	20.250	5.976	0.543
243.000	206.516	79.993	19.991	99.906	20.244	6.503	0.518
244.500	207.239	79.992	19.991	99.907	20.246	6.305	0.482
246.000	207.986	79.994	19.990	99.904	20.245	6.361	0.492
247.500	208.750	79.993	19.991	99.902	20.247	6.260	0.513
249.000	209.526	79.995	19.991	99.890	20.244	6.507	0.506
250.500	210.268	79.994	19.991	99.899	20.247	6.215	0.495
252.000	210.992	79.995	19.991	99.899	20.246	6.304	0.468
253.500	211.756	79.995	19.992	99.884	20.246	6.312	0.523
255.000	212.463	79.994	19.991	99.876	20.249	6.079	0.465
256.500	213.240	79.996	19.991	99.887	20.242	6.643	0.515
258.000	213.942	79.995	19.990	99.902	20.240	6.823	0.457
259.500	214.686	79.994	19.991	99.916	20.243	6.614	0.512
261.000	215.423	79.995	19.990	99.861	20.243	6.621	0.496
262.500	216.175	79.993	19.991	99.851	20.244	6.478	0.512
264.000	216.945	79.994	19.992	99.969	20.245	6.379	0.515
265.500	217.644	79.994	19.990	99.965	20.241	6.764	0.468
267.000	218.462	79.993	19.990	99.904	20.242	6.636	0.538
268.500	219.178	79.995	19.991	99.904	20.240	6.882	0.493
270.000	219.918	79.995	19.990	99.911	20.244	6.525	0.509
271.500	220.650	79.996	19.990	99.910	20.241	6.717	0.489
273.000	221.411	79.996	19.991	99.908	20.240	6.840	0.522
274.500	222.154	79.997	19.991	99.903	20.242	6.630	0.489
276.000	222.903	79.995	19.991	99.901	20.241	6.785	0.490
277.500	223.645	79.996	19.990	99.907	20.242	6.699	0.492
279.000	224.374	79.997	19.991	99.908	20.238	6.998	0.482
280.500	225.136	79.998	19.991	99.906	20.243	6.580	0.508
282.000	225.907	79.997	19.992	99.908	20.238	7.019	0.519
283.500	226.638	79.995	19.991	99.907	20.240	6.875	0.495
285.000	227.437	79.994	19.992	99.898	20.233	7.442	0.535
286.500	228.176	79.994	19.991	99.894	20.236	7.188	0.504
288.000	228.938	79.993	19.991	99.893	20.235	7.329	0.512
289.500	229.671	79.993	19.992	99.901	20.238	6.993	0.500
291.000	230.490	79.993	19.991	99.901	20.237	7.142	0.529
292.500	231.188	79.994	19.993	99.891	20.237	7.099	0.465
294.000	232.001	79.993	19.990	99.905	20.237	7.108	0.546
295.500	232.730	79.994	19.991	99.905	20.239	6.934	0.455
297.000	233.498	79.992	19.991	99.907	20.239	6.942	0.526
298.500	234.199	79.993	19.992	99.911	20.241	6.773	0.479
300.000	234.970	79.993	19.992	99.911	20.239	6.958	0.514
301.500	235.694	79.993	19.993	99.890	20.241	6.751	0.486
303.000	236.447	79.992	19.993	99.892	20.239	6.914	0.505
304.500	237.226	79.993	19.992	99.897	20.240	6.867	0.512
306.000	237.978	79.992	19.993	99.901	20.236	7.166	0.506
307.500	238.694	79.992	19.993	99.915	20.237	7.135	0.479
309.000	239.437	79.994	19.991	99.900	20.239	6.938	0.500
310.500	240.195	79.993	19.992	99.890	20.238	6.986	0.501
312.000	240.954	79.993	19.993	99.898	20.242	6.687	0.516
313.500	241.678	79.993	19.990	99.904	20.241	6.787	0.467
315.000	242.476	79.993	19.991	99.909	20.238	7.049	0.528
316.500	243.198	79.993	19.991	99.904	20.238	7.033	0.472
318.000	243.917	79.991	19.991	99.894	20.237	7.108	0.487
319.500	244.683	79.992	19.991	99.891	20.240	6.857	0.497
321.000	245.414	79.993	19.991	99.903	20.242	6.678	0.490
322.500	246.164	79.991	19.991	99.908	20.239	6.939	0.507
324.000	246.903	79.991	19.992	99.856	20.236	7.164	0.472
325.500	247.653	79.994	19.991	99.834	20.234	7.400	0.485
327.000	248.393	79.993	19.991	99.878	20.239	6.971	0.477
328.500	249.120	79.994	19.991	99.891	20.240	6.843	0.493
330.000	249.940	79.995	19.991	99.967	20.241	6.774	0.537
331.500	250.626	79.994	19.991	99.942	20.243	6.557	0.434
333.000	251.386	79.995	19.990	99.908	20.242	6.653	0.491
334.500	252.149	79.994	19.990	99.910	20.245	6.399	0.491
336.000	252.899	79.995	19.991	99.909	20.241	6.774	0.484
337.500	253.614	79.996	19.991	99.910	20.243	6.608	0.470
339.000	254.346	79.996	19.991	99.910	20.242	6.709	0.501
340.500	255.049	79.995	19.990	99.909	20.242	6.653	0.506
342.000	255.780	79.995	19.991	99.907	20.240	6.842	0.478
343.500	256.545	79.994	19.990	99.908	20.242	6.674	0.510
345.000	257.314	79.996	19.989	99.909	20.241	6.793	0.518
346.500	258.047	79.994	19.992	99.908	20.241	6.722	0.477
348.000	258.821	79.995	19.991	99.902	20.239	6.949	0.515
349.500	259.532	79.996	19.991	99.904	20.234	7.420	0.497
351.000	260.235	79.995	19.991	99.906	20.237	7.091	0.463
352.500	261.002	79.996	19.991	99.906	20.237	7.075	0.506
354.000	261.722	79.996	19.991	99.891	20.236	7.176	0.500
355.500	262.451	79.996	19.991	99.889	20.235	7.326	0.467
357.000	263.181	79.996	19.990	99.906	20.235	7.298	0.460
358.500	263.954	79.997	19.990	99.906	20.238	7.060	0.522
360.000	264.690	79.997	19.989	99.906	20.240	6.838	0.482
361.500	265.458	79.997	19.990	99.923	20.233	7.507	0.508
363.000	266.149	79.997	19.991	99.925	20.237	7.139	0.469
364.500	266.931	79.997	19.990	99.911	20.238	7.046	0.519
366.000	267.622	79.996	19.991	99.906	20.238	6.995	0.475
367.500	268.396	79.995	19.990	99.898	20.238	7.054	0.496
369.000	269.194	79.993	19.991	99.908	20.235	7.310	0.544
370.500	269.952	79.993	19.991	99.917	20.239	6.986	0.504
372.000	270.721	79.993	19.991	99.911	20.237	7.105	0.517
373.500	271.471	79.993	19.991	99.912	20.237	7.148	0.514
375.000	272.207	79.995	19.991	99.914	20.234	7.405	0.467
376.500	272.984	79.993	19.991	99.926	20.231	7.652	0.522
378.000	273.780	79.994	19.992	99.888	20.230	7.793	0.522
379.500	274.486	79.994	19.990	99.836	20.232	7.544	0.503
381.000	275.307	79.993	19.991	99.960	20.231	7.630	0.541
382.500	276.073	79.994	19.992	99.993	20.230	7.761	0.520
384.000	276.824	79.994	19.991	99.897	20.230	7.707	0.515
385.500	277.595	79.993	19.991	99.903	20.230	7.735	0.500
387.000	278.333	79.994	19.990	99.913	20.231	7.696	0.491
388.500	279.064	79.993	19.991	99.910	20.226	8.091	0.501
390.000	279.802	79.994	19.991	99.917	20.225	8.185	0.500
391.500	280.568	79.993	19.992	99.918	20.229	7.815	0.522
393.000	281.293	79.992	19.992	99.920	20.225	8.155	0.488
394.500	282.113	79.992	19.992	99.915	20.228	7.887	0.521
396.000	282.872	79.992	19.992	99.903	20.226	8.111	0.536
397.500	283.618	79.992	19.993	99.903	20.223	8.377	0.499
399.000	284.355	79.993	19.993	99.910	20.223	8.407	0.488
400.500	285.134	79.993	19.993	99.908	20.223	8.417	0.523
402.000	285.910	79.993	19.992	99.910	20.222	8.483	0.498
403.500	286.699	79.992	19.993	99.910	20.225	8.215	0.537
405.000	287.396	79.992	19.992	99.911	20.221	8.557	0.466
406.500	288.167	79.993	19.992	99.914	20.224	8.325	0.494
408.000	288.935	79.996	19.992	99.911	20.223	8.409	0.502
409.500	289.696	79.993	19.991	99.911	20.216	8.986	0.516
411.000	290.480	79.995	19.991	99.912	20.218	8.869	0.526
412.500	291.255	79.997	19.991	99.911	20.216	9.008	0.525
414.000	292.018	79.996	19.991	99.910	20.217	8.920	0.502
415.500	292.790	79.996	19.991	99.911	20.216	8.977	0.521
417.000	293.511	79.996	19.991	99.909	20.214	9.170	0.494
418.500	294.302	79.997	19.991	99.907	20.214	9.184	0.539
420.000	295.099	79.994	19.990	99.907	20.216	9.024	0.528
421.500	295.796	79.997	19.990	99.912	20.214	9.215	0.461
423.000	296.569	79.996	19.991	99.924	20.214	9.176	0.501
424.500	297.317	79.994	19.992	99.916	20.215	9.105	0.505
426.000	298.102	79.993	19.992	99.916	20.215	9.125	0.505
427.500	298.851	79.995	19.991	99.912	20.217	8.939	0.512
429.000	299.614	79.994	19.990	99.949	20.219	8.694	0.524
430.500	300.374	79.995	19.990	99.985	20.219	8.774	0.500
432.000	301.140	79.995	19.990	99.934	20.218	8.853	0.512
433.500	301.871	79.993	19.991	99.942	20.218	8.800	0.477
435.000	302.641	79.996	19.990	99.968	20.220	8.607	0.510
436.500	303.411	79.994	19.990	99.928	20.217	8.961	0.506
438.000	304.154	79.996	19.990	99.901	20.215	9.075	0.487
439.500	304.928	79.996	19.990	99.892	20.213	9.257	0.516
441.000	305.704	79.995	19.990	99.873	20.212	9.378	0.509
442.500	306.424	79.997	19.990	99.875	20.210	9.523	0.485
444.000	307.212	79.996	19.990	99.886	20.214	9.172	0.511
445.500	307.968	79.996	19.990	99.904	20.213	9.328	0.488
447.000	308.723	79.998	19.989	99.906	20.214	9.186	0.493
448.500	309.486	79.995	19.989	99.906	20.218	8.797	0.510
450.000	310.213	79.994	19.990	99.897	20.216	8.958	0.448
451.500	310.964	79.993	19.991	99.897	20.213	9.271	0.496
453.000	311.773	79.994	19.991	99.900	20.213	9.321	0.522
454.500	312.515	79.991	19.991	99.902	20.212	9.358	0.502
456.000	313.271	79.993	19.990	99.936	20.213	9.264	0.490
457.500	314.050	79.993	19.991	99.945	20.215	9.095	0.512
459.000	314.792	79.994	19.991	99.918	20.213	9.292	0.495
460.500	315.549	79.994	19.991	99.865	20.210	9.585	0.526
462.000	316.312	79.993	19.991	99.816	20.214	9.184	0.507
463.500	317.071	79.994	19.992	99.933	20.212	9.340	0.499
465.000	317.825	79.992	19.991	100.001	20.214	9.167	0.493
466.500	318.582	79.990	19.990	99.951	20.213	9.269	0.509
468.000	319.312	79.994	19.991	99.942	20.212	9.387	0.492
469.500	320.093	79.997	19.992	99.915	20.209	9.665	0.501
471.000	320.871	79.994	19.990	99.899	20.212	9.353	0.535
472.500	321.654	79.992	19.991	99.900	20.205	10.028	0.515
474.000	322.365	79.992	19.991	99.936	20.213	9.295	0.470
475.500	323.144	79.990	19.991	99.946	20.210	9.567	0.503
477.000	323.871	79.994	19.991	99.930	20.210	9.503	0.487
478.500	324.657	79.995	19.992	99.917	20.212	9.337	0.523
480.000	325.358	79.991	19.992	99.917	20.211	9.504	0.466
481.500	326.110	79.992	19.992	99.904	20.208	9.739	0.492
483.000	326.874	79.993	19.992	99.897	20.207	9.829	0.526
484.500	327.597	79.991	19.992	99.882	20.204	10.055	0.494
486.000	328.362	79.992	19.992	99.888	20.206	9.884	0.480
487.500	329.117	79.991	19.993	99.875	20.206	9.908	0.483
489.000	329.898	79.992	19.992	99.877	20.202	10.289	0.537
490.500	330.620	79.994	19.992	99.899	20.204	10.092	0.465
492.000	331.372	79.992	19.992	99.907	20.206	9.933	0.498
493.500	332.143	79.990	19.992	99.920	20.202	10.314	0.526
495.000	332.929	79.992	19.991	99.917	20.203	10.193	0.510
496.500	333.656	79.994	19.992	99.887	20.204	10.048	0.470
498.000	334.430	79.994	19.990	99.864	20.201	10.331	0.505
499.500	335.200	79.994	19.990	99.880	20.199	10.527	0.516
501.000	335.930	79.997	19.990	99.879	20.196	10.775	0.484
502.500	336.661	79.994	19.990	99.916	20.197	10.680	0.477
504.000	337.422	79.996	19.991	99.925	20.200	10.480	0.531
505.500	338.216	79.994	19.990	99.913	20.197	10.680	0.514
507.000	338.991	79.993	19.991	99.917	20.196	10.769	0.507
508.500	339.739	79.994	19.991	99.913	20.194	11.002	0.485
510.000	340.536	79.994	19.991	99.916	20.192	11.213	0.533
511.500	341.274	79.994	19.990	99.926	20.197	10.722	0.493
513.000	342.026	79.996	19.990	99.939	20.188	11.501	0.499
514.500	342.762	79.996	19.991	99.962	20.191	11.288	0.472
516.000	343.517	79.994	19.989	99.953	20.188	11.513	0.491
517.500	344.299	79.993	19.991	99.926	20.187	11.580	0.526
519.000	345.061	79.997	19.991	99.913	20.186	11.747	0.497
520.500	345.748	79.995	19.991	99.902	20.181	12.187	0.486
522.000	346.522	79.996	19.991	99.900	20.183	11.948	0.528
523.500	347.300	79.995	19.990	99.911	20.181	12.188	0.498
525.000	348.040	79.996	19.989	99.907	20.176	12.591	0.508
526.500	348.809	79.994	19.989	99.911	20.174	12.827	0.505
528.000	349.602	79.995	19.990	99.918	20.172	12.999	0.531
529.500	350.307	79.997	19.991	99.914	20.170	13.157	0.494
531.000	351.053	79.995	19.989	99.915	20.167	13.450	0.489
532.500	351.818	79.995	19.990	99.932	20.168	13.334	0.526
534.000	352.590	79.995	19.991	99.948	20.167	13.471	0.499
535.500	353.415	79.994	19.990	99.941	20.162	13.872	0.542
537.000	354.135	79.992	19.990	99.927	20.159	14.177	0.491
538.500	354.930	79.994	19.992	99.923	20.159	14.144	0.516
540.000	355.667	79.993	19.991	99.917	20.157	14.298	0.489
541.500	356.401	79.993	19.991	99.931	20.155	14.476	0.491
543.000	357.171	79.992	19.992	99.938	20.154	14.639	0.528
544.500	357.917	79.993	19.992	99.933	20.151	14.858	0.510
546.000	358.671	79.994	19.992	99.920	20.152	14.808	0.520
547.500	359.406	79.994	19.992	99.927	20.148	15.139	0.486
549.000	360.194	79.994	19.992	99.941	20.144	15.480	0.522
550.500	360.952	79.993	19.992	99.946	20.141	15.813	0.505
552.000	361.703	79.994	19.992	99.938	20.138	16.066	0.509
553.500	362.478	79.996	19.992	99.932	20.135	16.288	0.532
555.000	363.239	79.994	19.991	99.938	20.131	16.646	0.527
556.500	363.976	79.995	19.992	99.884	20.127	16.992	0.490
558.000	364.760	79.995	19.992	99.885	20.125	17.217	0.520
559.500	365.554	79.994	19.992	99.946	20.122	17.502	0.528
561.000	366.280	79.994	19.992	100.016	20.121	17.570	0.494
562.500	367.053	79.993	19.992	100.022	20.120	17.703	0.501
564.000	367.798	79.992	19.991	99.975	20.115	18.173	0.484
565.500	368.542	79.991	19.991	99.959	20.114	18.195	0.488
567.000	369.322	79.993	19.991	99.955	20.113	18.292	0.507
568.500	370.082	79.993	19.990	99.958	20.112	18.387	0.509
570.000	370.829	79.991	19.992	99.965	20.106	18.962	0.491
571.500	371.570	79.993	19.992	99.911	20.105	19.054	0.467
573.000	372.342	79.993	19.991	99.914	20.103	19.194	0.510
574.500	373.130	79.994	19.991	100.010	20.102	19.286	0.524
576.000	373.932	79.994	19.991	100.008	20.097	19.715	0.544
577.500	374.707	79.994	19.992	99.956	20.096	19.850	0.511
579.000	375.412	79.994	19.992	99.950	20.094	19.976	0.460
580.500	376.189	79.995	19.991	99.947	20.094	19.973	0.511
582.000	376.991	79.995	19.992	99.949	20.095	19.914	0.532
583.500	377.770	79.995	19.992	99.949	20.093	20.148	0.512
585.000	378.517	79.994	19.991	99.952	20.092	20.171	0.486
586.500	379.318	79.994	19.991	99.952	20.092	20.235	0.538
588.000	380.072	79.994	19.990	99.950	20.090	20.366	0.500
589.500	380.840	79.994	19.991	99.944	20.093	20.127	0.513
591.000	381.639	79.995	19.991	99.949	20.092	20.176	0.545
592.500	382.384	79.995	19.991	99.956	20.092	20.185	0.499
594.000	383.182	79.996	19.991	99.969	20.091	20.257	0.535
595.500	383.989	79.994	19.991	99.981	20.087	20.611	0.522
597.000	384.724	79.995	19.991	99.983	20.084	20.868	0.499
598.500	385.532	79.995	19.991	99.978	20.081	21.182	0.535
600.000	386.278	79.995	19.991	99.972	20.080	21.268	0.493
601.500	387.021	79.997	19.991	99.984	20.077	21.576	0.521
603.000	387.849	79.997	19.990	99.973	20.074	21.774	0.547
604.500	388.597	79.998	19.990	99.955	20.073	21.951	0.518
606.000	389.388	79.997	19.992	99.961	20.073	21.946	0.510
607.500	390.129	79.997	19.991	99.955	20.065	22.646	0.492
609.000	390.842	79.996	19.990	99.950	20.064	22.692	0.476
610.500	391.634	79.997	19.990	99.959	20.056	23.409	0.528
612.000	392.433	79.995	19.992	99.973	20.047	24.237	0.547
613.500	393.264	79.995	19.992	99.970	20.043	24.600	0.552
615.000	394.025	79.994	19.991	99.972	20.040	24.868	0.506
616.500	394.795	79.991	19.992	99.975	20.029	25.898	0.504
618.000	395.567	79.995	19.991	99.967	20.026	26.111	0.535
619.500	396.358	79.995	19.992	99.971	20.018	26.871	0.500
621.000	397.129	79.995	19.992	99.986	20.010	27.616	0.507
622.500	397.865	79.994	19.990	99.987	20.004	28.112	0.505
624.000	398.677	79.994	19.990	99.983	19.998	28.709	0.553
625.500	399.447	79.995	19.990	99.987	19.989	29.516	0.502
627.000	400.212	79.995	19.991	99.990	19.983	30.051	0.515
628.500	400.999	79.996	19.990	99.992	19.972	31.025	0.545
630.000	401.717	79.995	19.990	100.004	19.962	31.958	0.473
631.500	402.518	79.995	19.990	100.023	19.952	32.868	0.523
633.000	403.265	79.995	19.992	100.024	19.939	34.049	0.488
634.500	404.010	79.995	19.992	100.027	19.923	35.425	0.499
636.000	404.768	79.995	19.992	100.029	19.912	36.493	0.514
637.500	405.524	79.994	19.992	100.018	19.897	37.831	0.497
639.000	406.276	79.995	19.990	100.017	19.885	38.897	0.512
640.500	407.069	79.993	19.990	100.027	19.871	40.190	0.520
642.000	407.843	79.995	19.991	100.029	19.858	41.377	0.515
643.500	408.599	79.995	19.991	100.032	19.840	42.969	0.511
645.000	409.360	79.994	19.991	100.054	19.819	44.871	0.515
646.500	410.082	79.992	19.991	100.078	19.797	46.816	0.502
648.000	410.889	79.993	19.991	100.090	19.776	48.773	0.541
649.500	411.600	79.994	19.991	100.077	19.756	50.559	0.504
651.000	412.394	79.996	19.991	100.088	19.731	52.789	0.541
652.500	413.097	79.996	19.992	100.091	19.705	55.169	0.475
654.000	413.835	79.994	19.991	100.088	19.681	57.277	0.483
655.500	414.571	79.994	19.991	100.101	19.663	58.930	0.461
657.000	415.308	79.998	19.992	100.109	19.630	61.995	0.486
658.500	416.069	79.993	19.991	100.124	19.609	63.909	0.509
660.000	416.836	79.996	19.991	100.140	19.580	66.503	0.489
661.500	417.568	79.995	19.992	100.142	19.557	68.616	0.508
663.000	418.384	79.996	19.991	100.153	19.527	71.273	0.525
664.500	419.086	79.996	19.993	100.113	19.490	74.665	0.496
666.000	419.773	79.993	19.992	100.087	19.460	77.359	0.485
667.500	420.520	79.995	19.992	100.206	19.428	80.275	0.533
669.000	421.329	79.994	19.992	100.226	19.391	83.667	0.503
670.500	422.080	79.994	19.992	100.184	19.351	87.278	0.464
672.000	422.852	79.997	19.991	100.199	19.317	90.422	0.553
673.500	423.502	79.996	19.992	100.212	19.271	94.572	0.346
675.000	424.583	79.997	19.993	100.265	19.224	98.878	0.584
676.500	425.143	79.996	19.992	100.290	19.185	102.499	0.555
678.000	425.937	79.994	19.993	100.233	19.145	106.164	0.503
679.500	426.605	79.994	19.991	100.255	19.095	110.736	0.420
681.000	427.391	79.996	19.992	100.298	19.029	116.687	0.520
682.500	428.186	79.996	19.992	100.323	18.971	121.869	0.479
684.000	428.902	79.997	19.990	100.345	18.918	126.527	0.497
685.500	429.655	80.001	19.990	100.371	18.834	133.994	0.483
687.000	430.334	79.998	19.991	100.447	18.725	143.900	0.455
688.500	431.081	79.997	19.992	100.524	18.597	155.745	0.491
690.000	431.861	79.999	19.991	100.557	18.497	165.063	0.519
691.500	432.613	79.996	19.990	100.563	18.441	170.247	0.496
693.000	433.385	79.995	19.990	100.499	18.408	173.060	0.520
694.500	434.151	79.998	19.990	100.388	18.394	174.317	0.524
696.000	434.928	79.995	19.991	100.288	18.386	174.974	0.513
697.500	435.695	79.995	19.991	100.282	18.377	175.838	0.507
699.000	436.435	79.992	19.991	100.407	18.365	176.900	0.466
700.500	437.179	79.995	19.990	100.606	18.354	178.010	0.487
702.000	437.964	79.995	19.991	100.687	18.346	178.664	0.533
703.500	438.736	79.994	19.991	100.624	18.332	179.949	0.524
705.000	439.545	79.993	19.990	100.576	18.325	180.522	0.544
706.500	440.283	79.994	19.990	100.563	18.313	181.540	0.484
708.000	441.097	79.994	19.989	100.546	18.308	182.053	0.535
709.500	441.863	79.994	19.991	100.551	18.305	182.242	0.500
711.000	442.629	79.995	19.991	100.581	18.302	182.561	0.513
712.500	443.390	79.994	19.992	100.597	18.303	182.418	0.500
714.000	444.144	79.996	19.990	100.570	18.308	181.934	0.519
715.500	444.903	79.994	19.991	100.544	18.318	181.053	0.499
717.000	445.656	79.997	19.990	100.522	18.330	179.916	0.497
718.500	446.422	79.993	19.991	100.524	18.348	178.276	0.509
720.000	447.207	79.998	19.990	100.514	18.371	176.159	0.511
721.500	447.968	79.994	19.990	100.517	18.402	173.248	0.491
723.000	448.765	79.994	19.991	100.516	18.433	170.472	0.523
724.500	449.502	79.993	19.991	100.496	18.471	167.069	0.504
726.000	450.317	79.993	19.990	100.488	18.511	163.391	0.547
727.500	451.120	79.994	19.992	100.465	18.553	159.491	0.535
729.000	451.840	79.991	19.992	100.470	18.600	155.213	0.465
730.500	452.563	79.993	19.993	100.449	18.657	150.035	0.485
732.000	453.392	79.995	19.992	100.389	18.708	145.441	0.533
733.500	454.171	79.993	19.992	100.392	18.767	140.087	0.519
735.000	454.950	79.997	19.991	100.413	18.817	135.542	0.519
736.500	455.705	79.995	19.991	100.413	18.873	130.417	0.505
738.000	456.474	79.995	19.991	100.345	18.930	125.272	0.493
739.500	457.246	79.994	19.992	100.294	18.988	120.009	0.496
741.000	458.011	79.995	19.991	100.291	19.048	114.501	0.519
742.500	458.785	79.997	19.992	100.294	19.109	109.004	0.505
744.000	459.539	79.994	19.991	100.274	19.169	103.622	0.519
745.500	460.301	79.995	19.991	100.266	19.237	97.430	0.515
747.000	461.050	79.995	19.991	100.253	19.308	91.027	0.489
748.500	461.814	79.996	19.992	100.243	19.372	85.206	0.504
750.000	462.610	79.995	19.992	100.201	19.439	79.210	0.517
751.500	463.349	79.997	19.992	100.145	19.500	73.634	0.494
753.000	464.119	79.995	19.992	100.163	19.560	68.173	0.527
754.500	464.899	79.997	19.992	100.185	19.615	63.272	0.503
756.000	465.645	79.994	19.991	100.184	19.662	58.978	0.499
757.500	466.386	79.994	19.992	100.160	19.707	54.912	0.505
759.000	467.178	79.994	19.992	100.136	19.748	51.232	0.541
760.500	467.943	79.992	19.992	100.119	19.789	47.562	0.535
762.000	468.752	79.997	19.993	100.100	19.818	44.888	0.547
763.500	469.493	79.997	19.992	100.069	19.850	42.019	0.466
765.000	470.300	79.994	19.992	100.049	19.878	39.525	0.539
766.500	471.035	79.998	19.990	100.031	19.903	37.251	0.482
768.000	471.803	79.998	19.990	100.028	19.928	34.944	0.498
769.500	472.593	79.997	19.991	100.025	19.953	32.706	0.515
771.000	473.356	79.996	19.990	100.012	19.967	31.474	0.514
772.500	474.129	79.995	19.991	100.008	19.989	29.495	0.524
774.000	474.902	79.994	19.991	100.011	20.003	28.262	0.496
775.500	475.694	79.995	19.991	100.004	20.019	26.811	0.529
777.000	476.431	79.994	19.992	99.995	20.034	25.481	0.499
778.500	477.207	79.992	19.992	99.988	20.050	23.959	0.508
780.000	477.935	79.995	19.991	99.975	20.062	22.861	0.481
781.500	478.705	79.993	19.991	99.976	20.077	21.558	0.510
783.000	479.508	79.995	19.991	99.987	20.087	20.658	0.536
784.500	480.266	79.993	19.991	99.993	20.099	19.590	0.516
786.000	480.998	79.994	19.991	99.999	20.107	18.821	0.495
787.500	481.803	79.993	19.991	100.038	20.117	17.940	0.524
789.000	482.584	79.995	19.990	100.060	20.121	17.531	0.525
790.500	483.321	79.995	19.991	99.983	20.141	15.789	0.503
792.000	484.088	79.993	19.990	99.931	20.132	16.614	0.528
793.500	484.877	79.994	19.991	99.915	20.140	15.876	0.541
795.000	485.599	79.994	19.990	99.913	20.143	15.624	0.483
796.500	486.400	79.994	19.990	99.917	20.147	15.194	0.545
798.000	487.129	79.994	19.992	99.917	20.150	14.964	0.498
799.500	487.863	79.995	19.991	99.929	20.150	14.957	0.498
801.000	488.598	79.990	19.992	99.950	20.161	13.956	0.537
802.500	489.395	79.994	19.991	99.945	20.159	14.117	0.502
804.000	490.154	79.996	19.991	99.927	20.164	13.706	0.520
805.500	490.905	79.995	19.991	99.917	20.176	12.650	0.498
807.000	491.710	79.994	19.990	99.922	20.168	13.301	0.501
808.500	492.478	79.995	19.991	99.914	20.171	13.062	0.509
810.000	493.201	79.992	19.992	99.914	20.178	12.406	0.485
811.500	493.995	79.994	19.992	99.931	20.180	12.265	0.548
813.000	494.783	79.994	19.991	99.948	20.181	12.124	0.516
814.500	495.487	79.995	19.991	99.922	20.182	12.055	0.456
816.000	496.304	79.994	19.991	99.909	20.184	11.880	0.546
817.500	497.052	79.993	19.992	99.911	20.184	11.893	0.493
819.000	497.792	79.996	19.991	99.913	20.192	11.152	0.488
820.500	498.561	79.995	19.992	99.912	20.190	11.374	0.517
822.000	499.358	79.995	19.992	99.913	20.190	11.326	0.533
823.500	500.148	79.995	19.991	99.912	20.195	10.937	0.514
825.000	500.910	79.993	19.992	99.909	20.193	11.084	0.532
826.500	501.671	79.998	19.991	99.913	20.193	11.062	0.502
828.000	502.409	79.996	19.990	99.912	20.194	10.960	0.518
829.500	503.293	79.995	19.992	99.907	20.197	10.751	0.587
831.000	503.952	79.995	19.992	99.902	20.196	10.809	0.475
832.500	504.782	79.994	19.990	99.912	20.198	10.604	0.568
834.000	505.693	79.996	19.992	99.921	20.197	10.733	0.566
835.500	506.321	79.994	19.991	99.917	20.197	10.684	0.394
837.000	507.060	79.993	19.992	99.914	20.201	10.376	0.480
838.500	507.876	79.994	19.991	99.914	20.202	10.274	0.539
840.000	508.603	79.994	19.991	99.913	20.202	10.252	0.487
841.500	509.396	79.994	19.992	99.911	20.204	10.093	0.529
843.000	510.146	79.995	19.992	99.903	20.199	10.572	0.489
844.500	510.946	79.996	19.992	99.912	20.204	10.099	0.515
846.000	511.682	79.996	19.992	99.915	20.206	9.914	0.496
847.500	512.447	79.997	19.992	99.915	20.204	10.105	0.517
849.000	513.202	79.996	19.992	99.911	20.209	9.632	0.504
850.500	514.039	79.997	19.992	99.908	20.205	9.974	0.556
852.000	514.823	79.998	19.992	99.900	20.209	9.675	0.512
853.500	515.637	79.997	19.992	99.900	20.210	9.592	0.555
855.000	516.398	79.995	19.991	99.903	20.210	9.577	0.516
856.500	517.157	79.996	19.991	99.907	20.208	9.756	0.509
858.000	517.946	79.997	19.991	99.897	20.207	9.788	0.513
859.500	518.716	79.993	19.991	99.895	20.209	9.597	0.509
861.000	519.508	79.994	19.991	99.893	20.210	9.539	0.522
862.500	520.295	79.997	19.991	99.889	20.209	9.650	0.517
864.000	521.118	79.997	19.991	99.892	20.208	9.744	0.529
865.500	521.835	79.995	19.991	99.894	20.204	10.049	0.475
867.000	522.644	79.994	19.991	99.890	20.206	9.935	0.535
868.500	523.420	79.995	19.990	99.879	20.208	9.732	0.516
870.000	524.195	79.994	19.992	99.884	20.209	9.648	0.526
871.500	524.966	79.996	19.992	99.902	20.209	9.675	0.524
873.000	525.761	79.995	19.991	99.889	20.210	9.591	0.538
874.500	526.517	79.994	19.991	99.885	20.210	9.529	0.528
876.000	527.286	79.995	19.992	99.904	20.209	9.679	0.522
877.500	528.074	79.994	19.990	99.919	20.214	9.216	0.531
879.000	528.828	79.993	19.992	99.919	20.207	9.792	0.491
880.500	529.577	79.994	19.992	99.911	20.214	9.215	0.492
882.000	530.376	79.995	19.991	99.910	20.212	9.337	0.508
883.500	531.151	79.994	19.991	99.910	20.214	9.184	0.515
885.000	531.940	79.994	19.992	99.908	20.212	9.327	0.528
886.500	532.704	79.994	19.991	99.903	20.212	9.329	0.487
888.000	533.484	79.994	19.991	99.909	20.213	9.266	0.509
889.500	534.231	79.992	19.990	99.907	20.213	9.282	0.486
891.000	535.083	79.992	19.990	99.900	20.209	9.602	0.547
892.500	535.813	79.993	19.991	99.909	20.211	9.483	0.501
894.000	536.597	79.995	19.991	99.894	20.213	9.325	0.530
895.500	537.377	79.993	19.991	99.883	20.209	9.675	0.495
897.000	538.133	79.994	19.990	99.885	20.211	9.433	0.500
898.500	538.931	79.994	19.991	99.881	20.207	9.818	0.546
900.000	539.684	79.994	19.992	99.895	20.209	9.643	0.495
901.500	540.420	79.994	19.991	99.896	20.208	9.697	0.480
903.000	541.185	79.996	19.991	99.890	20.209	9.677	0.523
904.500	541.939	79.995	19.992	99.906	20.209	9.638	0.499
906.000	542.680	79.995	19.991	99.912	20.210	9.512	0.502
907.500	543.442	79.995	19.991	99.911	20.207	9.861	0.481
909.000	544.224	79.995	19.991	99.911	20.206	9.883	0.510
910.500	544.965	79.994	19.991	99.913	20.208	9.692	0.496
912.000	545.689	79.993	19.992	99.911	20.205	9.973	0.474
913.500	546.470	79.995	19.991	99.910	20.205	9.991	0.523
915.000	547.246	79.995	19.991	99.911	20.205	10.004	0.539
916.500	548.003	79.995	19.992	99.908	20.205	9.998	0.512
918.000	548.752	79.995	19.991	99.905	20.207	9.864	0.497
919.500	549.479	79.994	19.991	99.898	20.207	9.776	0.481
921.000	550.236	79.994	19.992	99.910	20.210	9.575	0.519
922.500	550.996	79.997	19.992	99.925	20.210	9.558	0.510
924.000	551.748	79.995	19.991	99.939	20.215	9.124	0.505
925.500	552.472	79.996	19.991	99.925	20.211	9.423	0.495
927.000	553.220	79.997	19.991	99.914	20.209	9.617	0.485
928.500	554.023	79.995	19.992	99.911	20.212	9.403	0.526
930.000	554.793	79.994	19.991	99.891	20.207	9.832	0.501
931.500	555.586	79.996	19.992	99.871	20.205	10.022	0.510
933.000	556.314	79.997	19.992	99.871	20.209	9.638	0.510
934.500	557.059	79.997	19.992	99.874	20.211	9.482	0.498
936.000	557.825	79.996	19.991	99.879	20.205	9.996	0.534
937.500	558.608	79.995	19.992	99.874	20.205	10.002	0.520
939.000	559.374	79.995	19.992	99.878	20.205	9.981	0.515
940.500	560.102	79.995	19.992	99.894	20.209	9.654	0.487
942.000	560.858	79.995	19.992	99.907	20.206	9.929	0.520
943.500	561.615	79.994	19.991	99.896	20.207	9.845	0.480
945.000	562.356	79.996	19.991	99.881	20.200	10.471	0.495
946.500	563.148	79.995	19.991	99.889	20.197	10.745	0.516
948.000	563.892	79.995	19.991	99.842	20.198	10.631	0.483
949.501	564.658	79.995	19.990	99.855	20.201	10.386	0.520
951.000	565.432	79.995	19.990	99.951	20.202	10.315	0.490
952.500	566.181	79.995	19.990	99.903	20.201	10.336	0.499
954.000	566.953	79.995	19.991	99.884	20.202	10.271	0.532
955.500	567.717	79.996	19.991	99.879	20.198	10.611	0.520
957.000	568.465	79.995	19.991	99.885	20.200	10.469	0.500
958.500	569.196	79.995	19.990	99.892	20.202	10.311	0.498
960.000	570.017	79.994	19.992	99.905	20.202	10.251	0.562
961.500	570.751	79.994	19.992	99.916	20.199	10.509	0.484
963.000	571.550	79.995	19.991	99.926	20.199	10.500	0.515
964.500	572.300	79.995	19.991	99.863	20.199	10.524	0.505
966.000	573.113	79.992	19.993	99.806	20.202	10.290	0.568
967.500	573.908	79.993	19.991	100.006	20.205	9.999	0.523
969.000	574.733	79.993	19.992	99.989	20.206	9.933	0.550
970.500	575.481	79.994	19.991	99.899	20.207	9.825	0.510
972.000	576.223	79.993	19.991	99.908	20.203	10.200	0.487
973.500	577.003	79.993	19.991	99.903	20.200	10.424	0.480
975.000	577.822	79.994	19.991	99.886	20.201	10.406	0.551
976.500	578.509	79.992	19.992	99.894	20.203	10.202	0.471
978.000	579.355	79.993	19.992	99.892	20.203	10.142	0.575
979.500	580.101	79.995	19.990	99.900	20.200	10.453	0.523
981.000	580.922	79.995	19.990	99.909	20.204	10.065	0.547
982.500	581.643	79.995	19.991	99.909	20.199	10.511	0.484
984.000	582.458	79.995	19.991	99.918	20.202	10.299	0.529
985.500	583.224	79.996	19.990	99.942	20.201	10.397	0.514
987.000	584.004	79.997	19.990	99.937	20.202	10.304	0.501
988.500	584.757	79.995	19.991	99.920	20.204	10.126	0.501
990.000	585.501	79.996	19.992	99.921	20.202	10.254	0.500
991.500	586.299	79.997	19.991	99.916	20.201	10.375	0.513
993.000	587.057	79.997	19.992	99.905	20.200	10.414	0.476
994.500	587.838	79.996	19.992	99.903	20.200	10.458	0.516
996.000	588.579	79.995	19.993	99.907	20.198	10.605	0.518
997.500	589.360	79.997	19.991	99.906	20.198	10.592	0.524
999.000	590.155	79.996	19.992	99.909	20.196	10.813	0.544
1000.500	590.886	79.996	19.991	99.907	20.199	10.496	0.497
1002.000	591.667	79.997	19.992	99.905	20.197	10.751	0.518
1003.500	592.418	79.995	19.991	99.906	20.198	10.669	0.504
1005.000	593.209	79.997	19.991	99.901	20.197	10.738	0.514
1005.500	593.442	79.997	19.992	99.902	20.197	10.721	0.536