File: 01_Data/Ext_Plywood/STA/N2/10K_min/Ext_Plywood_STA_N2_10KData_22243_R2.csv
##Temp./°C,Time/min,Mass loss(subtr.)/mg,DSC(subtr.2)/(mW/mg),Integral(DSC (subtr.2), 2, 199.3..406.4°C)/%,DTG(subtr.)/(mg/min),Sensit./(uV/mW)
49.866,10.01,-0.06833,0.03956125,             ,0.0,1.07507,,
50.966,10.8889,-0.07286183,0.09061483,             ,0.00110424,1.0745,,
52.066,11.136,-0.07384786,0.12698,             ,0.002143968,1.07392,,
53.166,11.3271,-0.07331183,0.15258,             ,-0.01918596,1.07335,,
54.266,11.4937,-0.0759249,0.17206,             ,0.002268814,1.07278,,
55.366,11.64523,-0.07491795,0.19046,             ,0.02586359,1.0722,,
56.466,11.7879,-0.07561043,0.20453,             ,-0.007758898,1.07163,,
57.566,11.92407,-0.07534705,0.21533,             ,-0.0037833,1.07106,,
58.666,12.05558,-0.07708811,0.22554,             ,0.000488646,1.07049,,
59.766,12.1839,-0.07810705,0.23627,             ,-0.008538774,1.06992,,
60.866,12.3096,-0.07718677,0.24144,             ,-0.01597097,1.06934,,
61.966,12.4337,-0.07842991,0.24968,             ,-0.00463279,1.06877,,
63.066,12.55635,-0.07835011,0.2543,             ,-0.00533251,1.0682,,
64.166,12.67858,-0.07969408,0.25936,             ,0.0017361,1.06763,,
65.266,12.79915,-0.07886259,0.26518,             ,-0.03285163,1.06706,,
66.366,12.91864,-0.08149999,0.27375,             ,0.008891863,1.06649,,
67.466,13.03795,-0.08284905,0.27724,             ,-0.01939817,1.06592,,
68.566,13.15761,-0.08355925,0.28424,             ,-0.02469864,1.06535,,
69.666,13.27559,-0.08280255,0.28718,             ,-0.005232866,1.06478,,
70.766,13.39284,-0.08280968,0.29504,             ,-0.0006675133,1.06421,,
71.866,13.5095,-0.08281768,0.30026,             ,-0.00634607,1.06364,,
72.966,13.6262,-0.08413858,0.30374,             ,0.002081517,1.06307,,
74.066,13.7424,-0.08545643,0.30906,             ,-0.02235585,1.0625,,
75.166,13.8578,-0.0866793,0.3151,             ,-0.02189086,1.06193,,
76.266,13.973,-0.08829099,0.31929,             ,-0.00271453,1.06136,,
77.366,14.08761,-0.08961,0.32413,             ,-1.788667e-05,1.06079,,
78.466,14.20169,-0.08961848,0.32733,             ,-0.01201506,1.06022,,
79.566,14.31596,-0.08952547,0.33073,             ,-0.01991638,1.05966,,
80.666,14.42935,-0.09092991,0.33304,             ,-0.001269892,1.05909,,
81.766,14.5418,-0.09221619,0.33763,             ,-0.0192848,1.05852,,
82.866,14.65446,-0.0948781,0.34019,             ,-0.01105863,1.05795,,
83.966,14.767,-0.0938899,0.34088,             ,0.000901481,1.05738,,
85.066,14.8788,-0.09487775,0.34092,             ,-0.01003151,1.05682,,
86.166,14.99056,-0.09721123,0.34149,             ,-0.01848543,1.05625,,
87.266,15.1026,-0.09725148,0.3425,             ,-0.01269061,1.05568,,
88.366,15.21425,-0.09877183,0.34087,             ,-0.01105236,1.05512,,
89.466,15.3254,-0.09949864,0.34246,             ,-0.008276702,1.05455,,
90.566,15.4359,-0.1011,0.34254,             ,-0.02467588,1.05398,,
91.666,15.54606,-0.10145,0.3421,             ,-0.01844817,1.05342,,
92.766,15.65601,-0.10203,0.33883,             ,-0.02208196,1.05285,,
93.866,15.76559,-0.10419,0.33832,             ,-0.02921208,1.05228,,
94.966,15.875,-0.10475,0.33682,             ,-0.0001358551,1.05172,,
96.066,15.9841,-0.10583,0.33354,             ,0.01610269,1.05115,,
97.166,16.09336,-0.10475,0.33131,             ,-0.0009112296,1.05059,,
98.266,16.20251,-0.10738,0.32549,             ,-0.0006045285,1.05002,,
99.366,16.31103,-0.10738,0.32359,             ,-0.009283098,1.04946,,
100.466,16.41964,-0.1087,0.32097,             ,-0.005243069,1.04889,,
101.566,16.5282,-0.10968,0.32054,             ,-0.009957865,1.04833,,
102.666,16.6366,-0.10688,0.31642,             ,0.02379682,1.04777,,
103.766,16.74455,-0.11082,0.31605,             ,-0.02577799,1.0472,,
104.866,16.85213,-0.11133,0.31141,             ,-0.001282735,1.04664,,
105.966,16.95995,-0.11133,0.30814,             ,0.02071331,1.04607,,
107.066,17.06801,-0.11133,0.30743,             ,-0.0129081,1.04551,,
108.166,17.17615,-0.11138,0.30643,             ,0.009725469,1.04495,,
109.266,17.28389,-0.11264,0.30281,             ,-2.960318e-06,1.04438,,
110.366,17.39151,-0.11396,0.29879,             ,-0.01209061,1.04382,,
111.466,17.49941,-0.11396,0.29699,             ,-0.00771436,1.04326,,
112.566,17.60709,-0.11462,0.2964,             ,-0.0037599,1.04269,,
113.666,17.71467,-0.11399,0.29478,             ,0.01193922,1.04213,,
114.766,17.82216,-0.11495,0.29287,             ,-2.828815e-06,1.04157,,
115.866,17.92914,-0.11528,0.293,             ,-0.00284863,1.04101,,
116.966,18.03654,-0.11527,0.29205,             ,0.006292079,1.04045,,
118.066,18.1444,-0.11396,0.29049,             ,0.009207867,1.03988,,
119.166,18.2519,-0.11506,0.2904,             ,-0.01348147,1.03932,,
120.266,18.35932,-0.11396,0.29178,             ,-0.01568354,1.03876,,
121.366,18.46654,-0.11528,0.29043,             ,-8.167219e-07,1.0382,,
122.466,18.57398,-0.11528,0.28933,             ,-9.47214e-08,1.03764,,
123.566,18.68145,-0.11658,0.29098,             ,-0.01115082,1.03708,,
124.666,18.7886,-0.11528,0.2914,             ,1.296364e-05,1.03652,,
125.766,18.89572,-0.11531,0.29126,             ,-0.01497857,1.03596,,
126.866,19.00277,-0.1166,0.29271,             ,0.000754864,1.0354,,
127.966,19.10981,-0.11659,0.29145,             ,-0.00483146,1.03484,,
129.066,19.21686,-0.11567,0.29344,             ,-0.01789415,1.03428,,
130.166,19.3235,-0.11659,0.29204,             ,-8.90834e-08,1.03372,,
131.266,19.4302,-0.11659,0.29468,             ,-0.002683095,1.03316,,
132.366,19.53707,-0.11757,0.29608,             ,0.01391598,1.0326,,
133.466,19.64384,-0.11627,0.29657,             ,1.211969e-06,1.03204,,
134.566,19.75061,-0.11628,0.29839,             ,-0.00642239,1.03148,,
135.666,19.85715,-0.11661,0.30087,             ,0.02011133,1.03092,,
136.766,19.96349,-0.11564,0.30099,             ,0.02449278,1.03036,,
137.866,20.06974,-0.11659,0.30251,             ,-0.0131032,1.0298,,
138.966,20.17609,-0.11654,0.30155,             ,-0.02022187,1.02924,,
140.066,20.28236,-0.11791,0.29921,             ,2.670924e-07,1.02868,,
141.166,20.38851,-0.11791,0.30095,             ,-2.547008e-09,1.02812,,
142.266,20.4943,-0.11786,0.30126,             ,0.01705717,1.02757,,
143.366,20.60042,-0.11791,0.30475,             ,-1.34916e-05,1.02701,,
144.466,20.70672,-0.11923,0.30495,             ,-0.01670596,1.02645,,
145.566,20.81294,-0.11923,0.30556,             ,2.21815e-05,1.02589,,
146.666,20.91893,-0.11791,0.30532,             ,0.00558235,1.02533,,
147.766,21.02498,-0.11791,0.30683,             ,-0.01068944,1.02478,,
148.866,21.1315,-0.11789,0.30737,             ,0.00914302,1.02422,,
149.966,21.2378,-0.11791,0.30906,             ,-0.003325005,1.02366,,
151.066,21.34381,-0.11923,0.30814,             ,-0.000122776,1.0231,,
152.166,21.4501,-0.12055,0.31121,             ,-0.01471752,1.02255,,
153.266,21.5563,-0.11761,0.31259,             ,0.006265071,1.02199,,
154.366,21.66214,-0.12339,0.31528,             ,-0.01228617,1.02143,,
155.466,21.76768,-0.12208,0.31595,             ,0.0003237113,1.02088,,
156.566,21.8729,-0.12076,0.32014,             ,-0.005172337,1.02032,,
157.666,21.97885,-0.12175,0.31933,             ,-0.008552549,1.01976,,
158.766,22.0849,-0.12307,0.3245,             ,1.64754e-06,1.01921,,
159.866,22.1905,-0.12375,0.32461,             ,-0.01306274,1.01865,,
160.966,22.29627,-0.12438,0.32694,             ,-0.0002718654,1.01809,,
162.066,22.40185,-0.12438,0.32646,             ,-0.0002022203,1.01754,,
163.166,22.50752,-0.12506,0.32975,             ,0.009592894,1.01698,,
164.266,22.61315,-0.12452,0.33222,             ,-0.0239217,1.01643,,
165.366,22.71844,-0.1257,0.33441,             ,0.0133037,1.01587,,
166.466,22.82384,-0.12667,0.33666,             ,-0.01288178,1.01531,,
167.566,22.92935,-0.12702,0.33511,             ,-6.999231e-08,1.01476,,
168.666,23.03507,-0.12705,0.34008,             ,-0.001472789,1.0142,,
169.766,23.14091,-0.12701,0.34026,             ,-2.43267e-09,1.01365,,
170.866,23.24604,-0.12701,0.34083,             ,-0.002780558,1.01309,,
171.966,23.35083,-0.12833,0.34201,             ,0.0042003,1.01254,,
173.066,23.456,-0.1276,0.34351,             ,-0.02014006,1.01198,,
174.166,23.5613,-0.12735,0.34434,             ,-0.02201944,1.01143,,
175.266,23.66668,-0.12999,0.34648,             ,-0.0163773,1.01087,,
176.366,23.77221,-0.12997,0.34812,             ,0.0173021,1.01032,,
177.466,23.87742,-0.13129,0.3477,             ,-0.0002728519,1.00976,,
178.566,23.98273,-0.13262,0.35024,             ,-0.00909848,1.00921,,
179.666,24.08785,-0.13392,0.34965,             ,-0.001722884,1.00865,,
180.766,24.1932,-0.13195,0.35441,             ,0.0007586936,1.0081,,
181.866,24.2984,-0.13447,0.35478,             ,-0.02888142,1.00754,,
182.966,24.40332,-0.13455,0.35373,             ,-0.01847044,1.00699,,
184.066,24.50844,-0.13486,0.35547,             ,-0.001621464,1.00643,,
185.166,24.6138,-0.13722,0.35697,             ,-0.003550165,1.00588,,
186.266,24.71922,-0.1398,0.35862,             ,-0.03538916,1.00532,,
187.366,24.82464,-0.13985,0.36037,             ,0.004019469,1.00477,,
188.466,24.93011,-0.13886,0.35981,             ,-0.0005689588,1.00422,,
189.566,25.0355,-0.14148,0.36063,             ,-0.009340166,1.00366,,
190.666,25.141,-0.14215,0.35771,             ,0.01176612,1.00311,,
191.766,25.24622,-0.14116,0.35659,             ,-0.004254947,1.00255,,
192.866,25.3515,-0.14446,0.36195,             ,-0.01379951,1.002,,
193.966,25.45713,-0.14721,0.36049,             ,-0.03306713,1.00144,,
195.066,25.56247,-0.14698,0.36062,             ,-0.0090494,1.00089,,
196.166,25.6676,-0.14829,0.3632,             ,-0.000731251,1.00034,,
197.266,25.77243,-0.14961,0.35935,             ,-0.006326075,0.99978,,
198.366,25.87736,-0.14961,0.35945, 0.000000e+00,-0.0067808,0.99923,,
199.466,25.98224,-0.15224,0.36037,-1.307940e-04,-0.001367237,0.99867,,
200.566,26.08687,-0.15264,0.3614, 3.702373e-03,-0.02455276,0.99812,,
201.666,26.19184,-0.15356,0.36095, 1.739013e-02,-0.006507736,0.99757,,
202.766,26.29683,-0.15686,0.35989, 3.854349e-02,-0.0276119,0.99701,,
203.866,26.4017,-0.15831,0.35963, 6.973469e-02,-0.02472851,0.99646,,
204.966,26.50661,-0.16018,0.36015,      0.10708,-0.02133741,0.9959,,
206.066,26.61161,-0.16145,0.35916,      0.15331,-0.00499093,0.99535,,
207.166,26.7166,-0.1628,0.361,      0.20847,-0.01864138,0.99479,,
208.266,26.82195,-0.16555,0.36015,      0.26975,-0.02420442,0.99424,,
209.366,26.9272,-0.16807,0.35944,      0.34254,-0.01811946,0.99369,,
210.466,27.03215,-0.16925,0.36116,      0.42812,-0.00178258,0.99313,,
211.566,27.1373,-0.1697,0.35831,      0.51980,-0.02791768,0.99258,,
212.666,27.24258,-0.17252,0.36108,      0.62059,-0.02417788,0.99202,,
213.766,27.3479,-0.17495,0.36142,      0.73313,-0.01741985,0.99147,,
214.866,27.45287,-0.17778,0.36238,      0.85749,-0.01872216,0.99091,,
215.966,27.55773,-0.17785,0.36132,      0.99203,0.003429932,0.99036,,
217.066,27.6627,-0.1829,0.36353,      1.13534,-0.04088462,0.98981,,
218.166,27.7678,-0.18483,0.36586,      1.29534,-0.01670415,0.98925,,
219.266,27.87296,-0.18613,0.36373,      1.46567,-0.000994014,0.9887,,
220.366,27.97825,-0.18983,0.36765,      1.64694,-0.04700944,0.98814,,
221.466,28.0833,-0.19397,0.36529,      1.84004,-0.04069228,0.98759,,
222.566,28.18812,-0.19681,0.36685,      2.04418,-0.02774801,0.98703,,
223.666,28.2931,-0.19953,0.36855,      2.25977,-0.05047893,0.98648,,
224.766,28.39803,-0.20261,0.36785,      2.48535,-0.02562074,0.98592,,
225.866,28.5028,-0.2052,0.36959,      2.72266,-0.04047767,0.98537,,
226.966,28.6075,-0.20863,0.36751,      2.96425,-0.02604743,0.98481,,
228.066,28.7124,-0.21016,0.36969,      3.21874,-0.01183589,0.98426,,
229.166,28.81741,-0.21286,0.36963,      3.48388,-0.03507822,0.9837,,
230.266,28.9223,-0.2185,0.37023,      3.76012,-0.04217419,0.98315,,
231.366,29.0271,-0.22138,0.37304,      4.04861,-0.02794892,0.98259,,
232.466,29.1319,-0.22598,0.37096,      4.34444,-0.06472763,0.98204,,
233.566,29.2367,-0.23017,0.37189,      4.65534,-0.01175012,0.98148,,
234.666,29.3416,-0.23098,0.37142,      4.97323,-0.05747063,0.98093,,
235.766,29.4465,-0.23675,0.37199,      5.30329,-0.02310338,0.98037,,
236.866,29.5514,-0.23935,0.37324,      5.64164,-0.02879453,0.97981,,
237.966,29.6562,-0.24257,0.3755,      5.98990,-0.03174936,0.97926,,
239.066,29.761,-0.24993,0.37402,      6.35300,-0.07925815,0.9787,,
240.166,29.8657,-0.25206,0.37388,      6.71990,-0.02399503,0.97815,,
241.266,29.97079,-0.25514,0.37362,      7.09871,-0.03525079,0.97759,,
242.366,30.07612,-0.26053,0.37542,      7.48660,-0.06129752,0.97703,,
243.466,30.1811,-0.26545,0.37486,      7.89029,-0.03942538,0.97648,,
244.566,30.286,-0.2713,0.3771,      8.30390,-0.0550319,0.97592,,
245.666,30.39156,-0.27571,0.37726,      8.73062,-0.04492717,0.97536,,
246.766,30.49705,-0.27948,0.37879,      9.16586,-0.04101066,0.97481,,
247.866,30.6022,-0.28448,0.37751,      9.60921,-0.05489502,0.97425,,
248.966,30.70738,-0.28996,0.37912,     10.06485,-0.05162253,0.97369,,
250.066,30.8125,-0.29439,0.37767,     10.52725,-0.04292981,0.97313,,
251.166,30.9174,-0.30031,0.37886,     10.99840,-0.04765719,0.97258,,
252.266,31.02223,-0.30478,0.37896,     11.47875,-0.03794161,0.97202,,
253.366,31.1275,-0.31104,0.37696,     11.96688,-0.04611204,0.97146,,
254.466,31.23265,-0.31577,0.37477,     12.46168,-0.04174525,0.9709,,
255.566,31.33773,-0.32193,0.37646,     12.96383,-0.06182433,0.97034,,
256.666,31.44312,-0.32852,0.37752,     13.47843,-0.05792965,0.96979,,
257.766,31.5483,-0.3341,0.3787,     14.00483,-0.0686282,0.96923,,
258.866,31.65348,-0.34105,0.37944,     14.54019,-0.05233807,0.96867,,
259.966,31.75843,-0.34706,0.37703,     15.08341,-0.0735128,0.96811,,
261.066,31.8635,-0.35178,0.37852,     15.63367,-0.004269607,0.96755,,
262.166,31.96841,-0.36324,0.37844,     16.19323,-0.07524886,0.96699,,
263.266,32.07358,-0.36903,0.37902,     16.76600,-0.06073065,0.96643,,
264.366,32.1789,-0.37564,0.38173,     17.34907,-0.06863,0.96587,,
265.466,32.2839,-0.38452,0.37767,     17.93875,-0.07598991,0.96531,,
266.566,32.38861,-0.39191,0.3795,     18.53723,-0.08024133,0.96475,,
267.666,32.49364,-0.40032,0.37932,     19.14553,-0.0761415,0.96419,,
268.766,32.59887,-0.40943,0.37961,     19.76253,-0.10972,0.96363,,
269.866,32.7037,-0.41905,0.37862,     20.38850,-0.07259335,0.96307,,
270.966,32.80851,-0.42556,0.37916,     21.01962,-0.08503449,0.96251,,
272.066,32.91324,-0.43686,0.37532,     21.65544,-0.09385411,0.96195,,
273.166,33.01762,-0.446,0.3764,     22.29648,-0.08182355,0.96138,,
274.266,33.1225,-0.45424,0.37512,     22.94458,-0.1068,0.96082,,
275.366,33.22789,-0.4647,0.37288,     23.59818,-0.09981156,0.96026,,
276.466,33.33294,-0.47628,0.37368,     24.25619,-0.10971,0.9597,,
277.566,33.43765,-0.48809,0.37484,     24.92065,-0.11767,0.95914,,
278.666,33.5426,-0.49887,0.37067,     25.59661,-0.0969329,0.95857,,
279.766,33.64788,-0.5112,0.37523,     26.28329,-0.13514,0.95801,,
280.866,33.75315,-0.52332,0.3707,     26.97342,-0.10906,0.95745,,
281.966,33.8585,-0.53613,0.36897,     27.66489,-0.13367,0.95688,,
283.066,33.96385,-0.54941,0.36724,     28.36229,-0.1252,0.95632,,
284.166,34.06915,-0.56354,0.36462,     29.06196,-0.1457,0.95575,,
285.266,34.17442,-0.58013,0.36528,     29.76648,-0.1247,0.95519,,
286.366,34.28,-0.59252,0.36482,     30.47821,-0.20489,0.95463,,
287.466,34.38564,-0.60914,0.3661,     31.19983,-0.14728,0.95406,,
288.566,34.49127,-0.62457,0.36709,     31.93101,-0.1481,0.95349,,
289.666,34.59664,-0.64025,0.36722,     32.67275,-0.15787,0.95293,,
290.766,34.7017,-0.65684,0.36779,     33.42544,-0.18318,0.95236,,
291.866,34.80696,-0.67524,0.36982,     34.19152,-0.17356,0.9518,,
292.966,34.9125,-0.69216,0.3705,     34.97488,-0.18641,0.95123,,
294.066,35.01804,-0.71147,0.37211,     35.76722,-0.15475,0.95066,,
295.166,35.12355,-0.7281,0.37539,     36.57691,-0.18986,0.9501,,
296.266,35.22889,-0.74847,0.37465,     37.39856,-0.19302,0.94953,,
297.366,35.33425,-0.76706,0.37559,     38.23239,-0.18572,0.94896,,
298.466,35.43972,-0.78661,0.37624,     39.08001,-0.17802,0.94839,,
299.566,35.5452,-0.8085,0.38007,     39.93963,-0.21145,0.94782,,
300.666,35.65068,-0.8278,0.37764,     40.81291,-0.19544,0.94725,,
301.766,35.75578,-0.84764,0.38072,     41.69760,-0.20182,0.94669,,
302.866,35.8613,-0.87237,0.38228,     42.60155,-0.21432,0.94612,,
303.966,35.96723,-0.89512,0.3835,     43.52462,-0.21254,0.94555,,
305.066,36.07253,-0.91687,0.38652,     44.45734,-0.20645,0.94497,,
306.166,36.17816,-0.93978,0.38718,     45.40639,-0.21903,0.9444,,
307.266,36.2839,-0.96486,0.39008,     46.37176,-0.24651,0.94383,,
308.366,36.38916,-0.98839,0.39084,     47.34836,-0.22444,0.94326,,
309.466,36.49487,-1.01466,0.39137,     48.34291,-0.25389,0.94269,,
310.566,36.6002,-1.03768,0.39121,     49.34417,-0.25195,0.94212,,
311.666,36.70545,-1.06546,0.39262,     50.35459,-0.23942,0.94154,,
312.766,36.81125,-1.09207,0.39256,     51.38168,-0.24495,0.94097,,
313.866,36.91688,-1.11883,0.39048,     52.41633,-0.24617,0.9404,,
314.966,37.02238,-1.14379,0.39383,     53.46109,-0.20939,0.93982,,
316.066,37.12811,-1.17539,0.39379,     54.51716,-0.26203,0.93925,,
317.166,37.23409,-1.20351,0.39282,     55.58221,-0.25097,0.93867,,
318.266,37.34008,-1.23289,0.39292,     56.65353,-0.27888,0.9381,,
319.366,37.4459,-1.26157,0.38981,     57.73302,-0.27573,0.93752,,
320.466,37.55166,-1.29137,0.39002,     58.82431,-0.26923,0.93695,,
321.566,37.65759,-1.32074,0.39207,     59.91878,-0.28013,0.93637,,
322.666,37.7631,-1.35094,0.39172,     61.01629,-0.3021,0.9358,,
323.766,37.86902,-1.38465,0.38786,     62.12536,-0.30878,0.93522,,
324.866,37.97514,-1.41649,0.38899,     63.24456,-0.28998,0.93464,,
325.966,38.08065,-1.44715,0.38628,     64.36085,-0.29126,0.93406,,
327.066,38.18663,-1.48163,0.38731,     65.48215,-0.3298,0.93348,,
328.166,38.2926,-1.5152,0.38374,     66.61103,-0.31225,0.9329,,
329.266,38.39817,-1.54799,0.38382,     67.73660,-0.31118,0.93232,,
330.366,38.5043,-1.5814,0.3814,     68.87301,-0.30818,0.93174,,
331.466,38.6106,-1.61678,0.37856,     70.01459,-0.33462,0.93116,,
332.566,38.7168,-1.64868,0.37549,     71.15188,-0.2489,0.93058,,
333.666,38.82293,-1.68855,0.37369,     72.28665,-0.36303,0.93,,
334.766,38.9289,-1.72403,0.37023,     73.42044,-0.31908,0.92942,,
335.866,39.0351,-1.75854,0.36668,     74.55419,-0.34494,0.92884,,
336.966,39.1413,-1.78994,0.36451,     75.67899,-0.29832,0.92825,,
338.066,39.24757,-1.83104,0.35904,     76.79944,-0.34014,0.92767,,
339.166,39.35389,-1.86568,0.35617,     77.91585,-0.33947,0.92709,,
340.266,39.46011,-1.90297,0.3489,     79.02001,-0.33579,0.9265,,
341.366,39.5665,-1.93827,0.34186,     80.11028,-0.33136,0.92592,,
342.466,39.67322,-1.97363,0.33425,     81.18625,-0.33646,0.92533,,
343.566,39.7799,-2.00954,0.32841,     82.24748,-0.32748,0.92475,,
344.666,39.8865,-2.04565,0.31833,     83.28444,-0.31727,0.92416,,
345.766,39.99303,-2.07932,0.31056,     84.29882,-0.3227,0.92357,,
346.866,40.09964,-2.11499,0.30242,     85.29010,-0.32527,0.92299,,
347.966,40.20636,-2.14825,0.29205,     86.25669,-0.29683,0.9224,,
349.066,40.31282,-2.18042,0.27912,     87.18922,-0.31316,0.92181,,
350.166,40.41918,-2.21338,0.2709,     88.09207,-0.29258,0.92122,,
351.266,40.52557,-2.24526,0.25885,     88.96176,-0.30175,0.92063,,
352.366,40.63205,-2.2754,0.24905,     89.80318,-0.26904,0.92004,,
353.466,40.7384,-2.30669,0.23535,     90.60920,-0.27995,0.91945,,
354.566,40.8448,-2.33614,0.223,     91.37590,-0.2636,0.91886,,
355.666,40.95138,-2.36264,0.20734,     92.10455,-0.23654,0.91827,,
356.766,41.058,-2.39029,0.19513,     92.78935,-0.26064,0.91767,,
357.866,41.16414,-2.41653,0.18221,     93.43406,-0.22874,0.91708,,
358.966,41.26985,-2.43993,0.17202,     94.04071,-0.21525,0.91649,,
360.066,41.37601,-2.46387,0.15703,     94.60929,-0.22189,0.91589,,
361.166,41.48237,-2.48543,0.14723,     95.14214,-0.21138,0.9153,,
362.266,41.58854,-2.50595,0.13234,     95.63474,-0.1922,0.9147,,
363.366,41.69495,-2.52612,0.12049,     96.09096,-0.19734,0.91411,,
364.466,41.8012,-2.54341,0.10872,     96.51356,-0.1545,0.91351,,
365.566,41.90724,-2.56066,0.09804612,     96.89815,-0.1366,0.91291,,
366.666,42.01379,-2.57594,0.08780767,     97.25685,-0.1703,0.91232,,
367.766,42.11988,-2.59142,0.07939284,     97.58483,-0.11374,0.91172,,
368.866,42.2263,-2.60429,0.06586984,     97.87834,-0.14865,0.91112,,
369.966,42.33357,-2.61624,0.05498936,     98.14547,-0.11341,0.91052,,
371.066,42.44052,-2.62846,0.04549958,     98.37625,-0.12332,0.90992,,
372.166,42.54739,-2.63845,0.03290019,     98.58416,-0.08384444,0.90932,,
373.266,42.654,-2.64574,0.02620593,     98.76720,-0.08664171,0.90872,,
374.366,42.76076,-2.65613,0.01868032,     98.92943,-0.07165263,0.90811,,
375.466,42.86801,-2.66451,0.01129158,     99.07389,-0.08502219,0.90751,,
376.566,42.97503,-2.67265,0.00423234,     99.19937,-0.06860563,0.90691,,
377.666,43.0818,-2.67866,0.0002239699,     99.31212,-0.03664169,0.9063,,
378.766,43.18864,-2.6856,-0.008428069,     99.40886,-0.05931011,0.9057,,
379.866,43.2955,-2.69037,-0.01291109,     99.49548,-0.05272051,0.90509,,
380.966,43.40224,-2.69707,-0.02012361,     99.57050,-0.06142151,0.90449,,
382.066,43.50863,-2.70395,-0.02315128,     99.64093,-0.009275572,0.90388,,
383.166,43.61524,-2.70636,-0.02476988,     99.70360,-0.06181248,0.90327,,
384.266,43.72213,-2.7098,-0.02891097,     99.76090,-0.01147506,0.90266,,
385.366,43.8288,-2.71533,-0.03087222,     99.81350,-0.05250082,0.90206,,
386.466,43.93561,-2.72158,-0.03688949,     99.85671,-0.06828395,0.90145,,
387.566,44.04257,-2.73028,-0.04220014,     99.89545,-0.05513772,0.90084,,
388.666,44.14965,-2.73469,-0.04758613,     99.92623,-0.02142353,0.90023,,
389.766,44.25692,-2.7379,-0.05260025,     99.94358,-0.03153808,0.89961,,
390.866,44.36404,-2.7411,-0.05533364,     99.96046,-0.04481643,0.899,,
391.966,44.47097,-2.74544,-0.05678191,     99.97562,-0.03677878,0.89839,,
393.066,44.57744,-2.74848,-0.05907,     99.99011,-0.0417186,0.89778,,
394.166,44.68411,-2.75151,-0.06286155,    100.001,0.02488174,0.89716,,
395.266,44.7911,-2.75269,-0.0658428,    100.004,-0.05028832,0.89655,,
396.366,44.89792,-2.75988,-0.069393,    100.009,-0.06700341,0.89593,,
397.466,45.00497,-2.76442,-0.07254879,    100.011,-0.05645801,0.89531,,
398.566,45.112,-2.77013,-0.07376846,    100.009,-0.02969329,0.8947,,
399.666,45.2192,-2.77434,-0.07761912,    100.012,-0.04036984,0.89408,,
400.766,45.3262,-2.77935,-0.08068453,    100.01,-0.03685691,0.89346,,
401.866,45.43293,-2.78303,-0.08169399,    100.007,-0.04063838,0.89284,,
402.966,45.53996,-2.78767,-0.08613972,    100.004,-0.04108937,0.89222,,
404.066,45.64733,-2.79084,-0.08802087,     99.99986,-0.04735304,0.8916,,
405.166,45.75461,-2.79563,-0.09034317,     99.99753,-0.03298986,0.89098,,
406.266,45.86187,-2.79985,-0.09062861,     99.99940,-0.04591999,0.89036,,
407.366,45.96891,-2.80392,-0.09370446,    100,-0.03796542,0.88973,,
408.466,46.07635,-2.80787,-0.09452322,    100,-0.03302135,0.88911,,
409.566,46.18371,-2.8121,-0.0929345,             ,-0.03667614,0.88848,,
410.666,46.29087,-2.81672,-0.09416918,             ,-0.0368607,0.88786,,
411.766,46.39793,-2.82079,-0.09611223,             ,-0.04606122,0.88723,,
412.866,46.50507,-2.82537,-0.09604616,             ,-0.03663297,0.8866,,
413.966,46.61314,-2.82926,-0.09584342,             ,-0.03730286,0.88598,,
415.066,46.7207,-2.83222,-0.09523427,             ,-0.04327932,0.88535,,
416.166,46.82826,-2.83667,-0.09786056,             ,-0.0423499,0.88472,,
417.266,46.93578,-2.84058,-0.0944626,             ,-0.02735389,0.88409,,
418.366,47.04329,-2.84486,-0.09560984,             ,-0.0501952,0.88346,,
419.466,47.15084,-2.84807,-0.09474076,             ,-0.02747773,0.88283,,
420.566,47.2578,-2.85194,-0.09453363,             ,-0.03193473,0.88219,,
421.666,47.3655,-2.85486,-0.09372028,             ,-0.03277666,0.88156,,
422.766,47.47377,-2.85852,-0.09369381,             ,-0.03572919,0.88093,,
423.866,47.58142,-2.86252,-0.09346349,             ,-0.04533435,0.88029,,
424.966,47.68925,-2.86665,-0.08693679,             ,-0.03369205,0.87965,,
426.066,47.7971,-2.87057,-0.08736973,             ,-0.02712847,0.87902,,
427.166,47.9045,-2.87342,-0.08657772,             ,-0.04781458,0.87838,,
428.266,48.01191,-2.87744,-0.0840087,             ,-0.02559287,0.87774,,
429.366,48.1196,-2.87794,-0.08169601,             ,-0.01873601,0.8771,,
430.466,48.22736,-2.88351,-0.07759311,             ,-0.03381367,0.87646,,
431.566,48.33482,-2.88671,-0.07575903,             ,-0.03745403,0.87582,,
432.666,48.44207,-2.89006,-0.07547759,             ,-0.03142175,0.87518,,
433.766,48.5495,-2.89253,-0.07086931,             ,-0.01526653,0.87454,,
434.866,48.65724,-2.89542,-0.0695313,             ,-0.03079221,0.87389,,
435.966,48.76475,-2.89899,-0.06799965,             ,-0.0392745,0.87325,,
437.066,48.872,-2.90341,-0.06561036,             ,-0.02278186,0.8726,,
438.166,48.9797,-2.90558,-0.06140172,             ,-0.01947545,0.87196,,
439.266,49.08766,-2.90803,-0.05993858,             ,-0.0268537,0.87131,,
440.366,49.19532,-2.91092,-0.05765288,             ,-0.033844,0.87066,,
441.466,49.3028,-2.91447,-0.05510206,             ,-0.03095402,0.87002,,
442.566,49.41041,-2.91696,-0.05230741,             ,0.01275471,0.86937,,
443.666,49.5183,-2.91885,-0.05130416,             ,-0.03250968,0.86872,,
444.766,49.6258,-2.92159,-0.04831739,             ,-0.01874305,0.86806,,
445.866,49.73343,-2.92427,-0.04585444,             ,-0.0263965,0.86741,,
446.966,49.8412,-2.92772,-0.04594822,             ,-0.03344987,0.86676,,
448.066,49.94877,-2.92939,-0.0454168,             ,-0.009317489,0.86611,,
449.166,50.0568,-2.93219,-0.04405555,             ,-0.03224664,0.86545,,
450.266,50.16505,-2.93562,-0.040499,             ,-0.02729441,0.8648,,
451.366,50.2734,-2.93739,-0.03809395,             ,-0.02520639,0.86414,,
452.466,50.38169,-2.94007,-0.03710574,             ,-0.02323608,0.86348,,
453.566,50.49004,-2.94211,-0.03761826,             ,-0.009449385,0.86282,,
454.666,50.59847,-2.94474,-0.03525074,             ,-0.01904214,0.86216,,
455.766,50.70673,-2.9474,-0.03439928,             ,-0.02711373,0.8615,,
456.866,50.8149,-2.94914,-0.03252473,             ,-0.02709713,0.86084,,
457.966,50.9231,-2.95264,-0.03002063,             ,-0.02477207,0.86018,,
459.066,51.03153,-2.95527,-0.03033874,             ,-0.02020261,0.85952,,
460.166,51.14012,-2.95658,-0.03124697,             ,-0.009458977,0.85885,,
461.266,51.24839,-2.95755,-0.02792924,             ,-0.003070765,0.85819,,
462.366,51.3564,-2.96101,-0.02673544,             ,-0.03568136,0.85752,,
463.466,51.46498,-2.96251,-0.02752755,             ,-0.006897526,0.85686,,
464.566,51.57372,-2.96478,-0.02127989,             ,-0.02499778,0.85619,,
465.666,51.68234,-2.96782,-0.0243737,             ,-0.03341085,0.85552,,
466.766,51.79122,-2.97051,-0.02365127,             ,-0.008256443,0.85485,,
467.866,51.89995,-2.97085,-0.02380941,             ,-0.003317035,0.85418,,
468.966,52.00843,-2.97337,-0.02278114,             ,-0.02884512,0.85351,,
470.066,52.11711,-2.97602,-0.02100328,             ,-0.02122736,0.85283,,
471.166,52.22589,-2.97744,-0.01696344,             ,-0.01913931,0.85216,,
472.266,52.33475,-2.97877,-0.02242378,             ,-0.01429743,0.85149,,
473.366,52.44384,-2.98128,-0.0220853,             ,-0.02390305,0.85081,,
474.466,52.55271,-2.98273,-0.02090206,             ,-0.031466,0.85014,,
475.566,52.66166,-2.98533,-0.02033706,             ,-0.008107303,0.84946,,
476.666,52.77066,-2.98664,-0.02182853,             ,-0.00517181,0.84878,,
477.766,52.87945,-2.98797,-0.02085982,             ,-0.01865835,0.8481,,
478.866,52.9884,-2.99059,-0.02020862,             ,-0.03868839,0.84742,,
479.966,53.09695,-2.99332,-0.01957633,             ,0.01081707,0.84674,,
481.066,53.2058,-2.99322,-0.01733176,             ,-0.002315671,0.84606,,
482.166,53.31535,-2.99454,-0.02075254,             ,-0.004932309,0.84537,,
483.266,53.42435,-2.99663,-0.02124804,             ,-0.02505576,0.84469,,
484.366,53.5334,-2.99717,-0.0198436,             ,-0.009718977,0.844,,
485.466,53.64212,-2.99865,-0.02053553,             ,-0.02405895,0.84332,,
486.566,53.75136,-3.00112,-0.0229604,             ,-0.01590632,0.84263,,
487.666,53.86079,-3.00226,-0.02005715,             ,-0.00915804,0.84194,,
488.766,53.96954,-3.00417,-0.02218894,             ,-0.02254679,0.84125,,
489.866,54.0785,-3.0055,-0.01912075,             ,-0.01969247,0.84056,,
490.966,54.1877,-3.00683,-0.01870529,             ,-0.01457263,0.83987,,
492.066,54.29654,-3.00809,-0.01747728,             ,-0.02036287,0.83918,,
493.166,54.4053,-3.01075,-0.02165734,             ,-0.01778667,0.83849,,
494.266,54.51429,-3.01176,-0.01920321,             ,-0.004895999,0.83779,,
495.366,54.6233,-3.01175,-0.01924622,             ,-0.0009349187,0.8371,,
496.466,54.7322,-3.01317,-0.02178291,             ,-0.02312013,0.8364,,
497.566,54.84126,-3.0144,-0.02457091,             ,-0.01175901,0.8357,,
498.666,54.9503,-3.01703,-0.02257895,             ,-0.009060208,0.83501,,
499.766,55.0594,-3.01834,-0.02445513,             ,-0.01849113,0.83431,,
500.866,55.1682,-3.02059,-0.02097835,             ,-0.01178584,0.83361,,
501.966,55.27717,-3.02012,-0.02550031,             ,-0.001738999,0.83291,,
503.066,55.386,-3.02227,-0.02506995,             ,-0.0155768,0.8322,,
504.166,55.4946,-3.02399,-0.02358484,             ,-0.0246283,0.8315,,
505.266,55.60357,-3.02621,-0.02487129,             ,-0.024728,0.8308,,
506.366,55.71266,-3.02722,-0.02527676,             ,-0.01167736,0.83009,,
507.466,55.82185,-3.02722,-0.02897753,             ,-0.008752661,0.82938,,
508.566,55.9313,-3.02992,-0.02628168,             ,-0.02513476,0.82868,,
509.666,56.0409,-3.03123,-0.02728486,             ,-0.02402274,0.82797,,
510.766,56.1502,-3.03249,-0.02983442,             ,0.000421574,0.82726,,
511.866,56.25935,-3.03246,-0.02810062,             ,-0.02761775,0.82655,,
512.966,56.3685,-3.03514,-0.03120803,             ,-0.01721362,0.82584,,
514.066,56.4778,-3.03428,-0.03092008,             ,0.08321198,0.82512,,
515.166,56.5874,-3.03616,-0.03132308,             ,-0.04798292,0.82441,,
516.266,56.69644,-3.03688,-0.03288206,             ,0.00882969,0.82369,,
517.366,56.80565,-3.03731,-0.03019064,             ,-0.02437582,0.82298,,
518.466,56.91515,-3.03885,-0.03047531,             ,-0.00185098,0.82226,,
519.566,57.0242,-3.04016,-0.02901584,             ,-0.0004977847,0.82154,,
520.666,57.13351,-3.04143,-0.02870893,             ,-0.004437582,0.82082,,
521.766,57.24269,-3.04884,-0.02800649,             ,-0.05562992,0.8201,,
522.866,57.35219,-3.04554,-0.02157011,             ,0.00940918,0.81938,,
523.966,57.4616,-3.04328,-0.02021955,             ,-0.01817723,0.81866,,
525.066,57.57107,-3.04886,-0.01784625,             ,-0.02319655,0.81794,,
526.166,57.6807,-3.04887,-0.01178224,             ,-0.01410781,0.81721,,
527.266,57.78999,-3.04883,-0.007997508,             ,-0.02217779,0.81649,,
528.366,57.8995,-3.05113,-0.005236539,             ,-0.004723052,0.81576,,
529.466,58.00903,-3.05247,-0.00368005,             ,-0.01989772,0.81503,,
530.566,58.11846,-3.05377,-0.001260311,             ,-0.0003747868,0.8143,,
531.666,58.22818,-3.0537,0.003389011,             ,-0.02157261,0.81357,,
532.766,58.3376,-3.05509,0.00240561,             ,-0.01265748,0.81284,,
533.866,58.44699,-3.05778,0.00586132,             ,-0.01984746,0.81211,,
534.966,58.5565,-3.05888,0.008211148,             ,-0.02372997,0.81138,,
536.066,58.6659,-3.05564,0.007986937,             ,0.05462371,0.81064,,
537.166,58.77544,-3.05945,0.007868181,             ,-0.04107064,0.80991,,
538.266,58.88502,-3.062,0.01098571,             ,-0.005087057,0.80917,,
539.366,58.99425,-3.06277,0.01229099,             ,-0.02471,0.80843,,
540.466,59.10357,-3.06331,0.01232747,             ,-0.002019923,0.80769,,
541.566,59.2131,-3.0646,0.01148497,             ,-0.01327795,0.80695,,
542.666,59.32275,-3.06595,0.01661858,             ,-0.01947784,0.80621,,
543.766,59.43234,-3.0672,0.01681087,             ,-0.02963299,0.80547,,
544.866,59.54158,-3.06733,0.01801449,             ,-0.02584619,0.80473,,
545.966,59.65113,-3.06684,0.02039174,             ,-0.006750515,0.80398,,
547.066,59.76086,-3.06813,0.02197881,             ,-0.005971548,0.80324,,
548.166,59.8704,-3.07077,0.01947118,             ,-0.0009166137,0.80249,,
549.266,59.97971,-3.07077,0.02230252,             ,-1.89066e-09,0.80174,,
550.366,60.0891,-3.07202,0.01850586,             ,-0.02371743,0.801,,
551.466,60.19829,-3.0734,0.01218406,             ,-0.01194348,0.80025,,
552.566,60.30771,-3.07471,0.01114637,             ,-0.006652268,0.7995,,
553.666,60.41729,-3.07701,0.004099154,             ,-0.01375037,0.79874,,
554.766,60.52665,-3.07838,0.001385311,             ,0.00538186,0.79799,,
555.866,60.63646,-3.07801,0.001137002,             ,6.516317e-05,0.79724,,
556.966,60.7462,-3.07834,-0.001423075,             ,-0.004928849,0.79648,,
558.066,60.85606,-3.07966,-0.001473827,             ,-0.0003591037,0.79572,,
559.166,60.96605,-3.08079,-0.00320718,             ,-0.02465974,0.79497,,
560.266,61.07601,-3.08229,-0.004158406,             ,-0.000580063,0.79421,,
561.366,61.18623,-3.08301,-0.003279535,             ,0.007888997,0.79345,,
562.466,61.2965,-3.08229,-0.009027412,             ,3.407292e-07,0.79269,,
563.566,61.4066,-3.08363,-0.01045826,             ,-0.01833613,0.79193,,
564.666,61.5167,-3.08495,-0.0108753,             ,-0.01860379,0.79116,,
565.766,61.62636,-3.08624,-0.01276627,             ,-0.00214072,0.7904,,
566.866,61.73635,-3.08627,-0.0136452,             ,-0.01510862,0.78963,,
567.966,61.8467,-3.08762,-0.01447559,             ,-0.01870519,0.78887,,
569.066,61.9568,-3.08754,-0.01428278,             ,-0.00878189,0.7881,,
570.166,62.06665,-3.08887,-0.01502835,             ,-0.0008662211,0.78733,,
571.266,62.1763,-3.09018,-0.01617538,             ,-0.0007430603,0.78656,,
572.366,62.2864,-3.0915,-0.01639119,             ,-0.001556975,0.78579,,
573.466,62.3968,-3.09085,-0.02119722,             ,-5.43033e-05,0.78502,,
574.566,62.50707,-3.09182,-0.02029705,             ,-0.003676282,0.78425,,
575.666,62.617,-3.09452,-0.02099819,             ,-0.04483079,0.78347,,
576.766,62.7268,-3.09378,-0.02174855,             ,0.02191865,0.7827,,
577.866,62.837,-3.09379,-0.02249771,             ,-0.01122462,0.78192,,
578.966,62.9468,-3.09512,-0.02130314,             ,-0.002592864,0.78114,,
580.066,63.057,-3.09511,-0.02440619,             ,-0.01926493,0.78036,,
581.166,63.1675,-3.09644,-0.02409375,             ,4.23574e-07,0.77958,,
582.266,63.27745,-3.09513,-0.02315942,             ,0.01268227,0.7788,,
583.366,63.3874,-3.09512,-0.02562435,             ,-0.0039876,0.77802,,
584.466,63.49771,-3.09709,-0.0263572,             ,-0.01258884,0.77724,,
585.566,63.6079,-3.09957,-0.02790034,             ,-0.0241847,0.77645,,
586.666,63.71779,-3.10103,-0.02759389,             ,0.01228275,0.77567,,
587.766,63.82801,-3.10109,-0.02984939,             ,-0.01008611,0.77488,,
588.866,63.9385,-3.10038,-0.03211523,             ,3.422442e-08,0.77409,,
589.966,64.04871,-3.10038,-0.03017072,             ,-0.00692617,0.7733,,
591.066,64.1589,-3.1017,-0.03303339,             ,-0.000813422,0.77251,,
592.166,64.2694,-3.10394,-0.03387413,             ,-0.02535245,0.77172,,
593.266,64.3797,-3.10433,-0.03432063,             ,0.00358254,0.77093,,
594.366,64.49015,-3.10532,-0.03563103,             ,-0.00677249,0.77014,,
595.466,64.60092,-3.10467,-0.03570193,             ,-0.01485252,0.76934,,
596.566,64.71149,-3.10597,-0.03409953,             ,-0.01722861,0.76855,,
597.666,64.82195,-3.1073,-0.03494787,             ,2.548242e-07,0.76775,,
598.766,64.93248,-3.1073,-0.03438642,             ,0.01584695,0.76695,,
599.866,65.0433,-3.10859,-0.03651657,             ,-0.02080764,0.76615,,
600.966,65.1537,-3.10851,-0.0370486,             ,-0.01222979,0.76535,,
602.066,65.2638,-3.11048,-0.03420366,             ,-0.00012783,0.76455,,
603.166,65.37448,-3.11177,-0.03719502,             ,-0.01482771,0.76375,,
604.266,65.48507,-3.11244,-0.03834697,             ,-0.006168951,0.76295,,
605.366,65.59521,-3.11385,-0.03505477,             ,-0.02090192,0.76214,,
606.466,65.70545,-3.11428,-0.03614755,             ,-0.02162558,0.76133,,
607.566,65.81557,-3.11343,-0.03925287,             ,0.01355653,0.76053,,
608.666,65.92571,-3.11386,-0.03538139,             ,-0.01441579,0.75972,,
609.766,66.03596,-3.1141,-0.03607977,             ,-7.749213e-08,0.75891,,
610.866,66.14646,-3.11541,-0.03542116,             ,-0.008576774,0.7581,,
611.966,66.25686,-3.11541,-0.04022314,             ,-0.0005967374,0.75729,,
613.066,66.3672,-3.11678,-0.03773554,             ,0.0202051,0.75648,,
614.166,66.4774,-3.11794,-0.04009563,             ,-0.03264354,0.75566,,
615.266,66.58784,-3.11805,-0.03717352,             ,-2.934733e-08,0.75485,,
616.366,66.6987,-3.11668,-0.03577921,             ,-0.002619616,0.75403,,
617.466,66.80941,-3.11805,-0.03748214,             ,-0.01761578,0.75321,,
618.566,66.92,-3.11936,-0.03966861,             ,-1.635748e-05,0.7524,,
619.666,67.03052,-3.12035,-0.03803886,             ,-0.002498058,0.75158,,
620.766,67.14116,-3.12067,-0.04277504,             ,-0.01048242,0.75076,,
621.866,67.25147,-3.12199,-0.03908284,             ,-7.99138e-07,0.74994,,
622.966,67.3623,-3.12254,-0.04031215,             ,-0.02498151,0.74911,,
624.066,67.47305,-3.12268,-0.03951526,             ,0.0247776,0.74829,,
625.166,67.5839,-3.12196,-0.03727361,             ,-0.02277396,0.74746,,
626.266,67.69487,-3.12396,-0.03941995,             ,0.0009025516,0.74664,,
627.366,67.8056,-3.12265,-0.03940319,             ,0.0003878046,0.74581,,
628.466,67.91648,-3.12367,-0.03627567,             ,-0.0282167,0.74498,,
629.566,68.02726,-3.12648,-0.03644499,             ,-0.02155341,0.74415,,
630.666,68.13779,-3.12562,-0.03566727,             ,-0.0009761524,0.74332,,
631.766,68.24863,-3.12693,-0.03802045,             ,-0.000370641,0.74249,,
632.866,68.35984,-3.12868,-0.03772278,             ,-0.03985733,0.74166,,
633.966,68.47078,-3.12785,-0.0401532,             ,0.02825019,0.74082,,
635.066,68.5816,-3.12726,-0.03681073,             ,-0.003198332,0.73999,,
636.166,68.6922,-3.12827,-0.03791545,             ,0.01639612,0.73915,,
637.266,68.80266,-3.12814,-0.03206242,             ,-0.0373724,0.73832,,
638.366,68.9135,-3.12989,-0.03582043,             ,0.005780498,0.73748,,
639.466,69.02435,-3.12923,-0.03281761,             ,0.0005843126,0.73664,,
640.566,69.13547,-3.12923,-0.03494571,             ,-0.00565674,0.7358,,
641.666,69.24638,-3.13057,-0.03454071,             ,-0.008677362,0.73496,,
642.766,69.3574,-3.13211,-0.03676653,             ,-0.00779902,0.73411,,
643.866,69.46847,-3.13125,-0.03255911,             ,0.0002773624,0.73327,,
644.966,69.5796,-3.13253,-0.0341903,             ,-6.961473e-10,0.73243,,
646.066,69.69074,-3.13253,-0.03305403,             ,-0.0003181194,0.73158,,
647.166,69.80155,-3.13352,-0.035871,             ,-0.0006636233,0.73073,,
648.266,69.9123,-3.13352,-0.03459517,             ,7.08432e-09,0.72989,,
649.366,70.02315,-3.13361,-0.03682476,             ,-0.008743814,0.72904,,
650.466,70.1339,-3.13516,-0.03524201,             ,-0.002265075,0.72819,,
651.566,70.2449,-3.13651,-0.03735449,             ,0.008777853,0.72733,,
652.666,70.35548,-3.13547,-0.03241612,             ,-0.01396025,0.72648,,
653.766,70.46585,-3.13647,-0.03173521,             ,3.059927e-07,0.72563,,
654.866,70.57646,-3.13647,-0.0366457,             ,-0.001092568,0.72477,,
655.966,70.6875,-3.13647,-0.03324504,             ,-0.004419144,0.72392,,
657.066,70.79849,-3.13779,-0.0379042,             ,-0.01040483,0.72306,,
658.166,70.90934,-3.13877,-0.03754199,             ,-0.00615265,0.7222,,
659.266,71.02028,-3.13812,-0.03748844,             ,0.006018855,0.72135,,
660.366,71.1314,-3.13812,-0.03876162,             ,1.537331e-05,0.72049,,
661.466,71.24243,-3.13781,-0.04057226,             ,-0.02177664,0.71962,,
662.566,71.35338,-3.1391,-0.03987992,             ,-2.48621e-05,0.71876,,
663.666,71.46446,-3.14042,-0.04164436,             ,-0.003868333,0.7179,,
664.766,71.57589,-3.14108,-0.03962875,             ,-7.373606e-05,0.71703,,
665.866,71.68683,-3.14098,-0.04296187,             ,-0.01777169,0.71617,,
666.966,71.79762,-3.14207,-0.04553354,             ,-8.406162e-08,0.7153,,
668.066,71.90868,-3.14207,-0.04123816,             ,-0.00311916,0.71444,,
669.166,72.0197,-3.14371,-0.04416777,             ,-0.02365342,0.71357,,
670.266,72.13069,-3.14372,-0.04233334,             ,-0.0138871,0.7127,,
671.366,72.24205,-3.14504,-0.04081057,             ,-0.02219262,0.71183,,
672.466,72.35334,-3.14632,-0.04357731,             ,0.02281066,0.71095,,
673.566,72.46418,-3.14568,-0.04134662,             ,0.003968772,0.71008,,
674.666,72.57505,-3.14503,-0.04577601,             ,2.904196e-06,0.70921,,
675.766,72.68575,-3.14635,-0.0449493,             ,-0.006014116,0.70833,,
676.866,72.7967,-3.14766,-0.04500911,             ,-0.0114588,0.70746,,
677.966,72.90785,-3.14765,-0.04944765,             ,0.01633496,0.70658,,
679.066,73.0187,-3.14766,-0.04992636,             ,-0.001619026,0.7057,,
680.166,73.12986,-3.14766,-0.05078475,             ,-0.04328789,0.70482,,
681.266,73.24126,-3.14895,-0.05114501,             ,0.01964538,0.70394,,
682.366,73.35253,-3.15029,-0.05006692,             ,-8.49798e-05,0.70306,,
683.466,73.46369,-3.15028,-0.04808892,             ,-0.01521326,0.70218,,
684.566,73.57506,-3.15055,-0.04726583,             ,0.02414099,0.7013,,
685.666,73.68635,-3.15029,-0.05096067,             ,-1.656659e-08,0.70041,,
686.766,73.79764,-3.1503,-0.05236332,             ,-0.01450071,0.69953,,
687.866,73.9088,-3.15007,-0.05312079,             ,0.01247512,0.69864,,
688.966,74.0198,-3.15182,-0.05132762,             ,-0.03100031,0.69775,,
690.066,74.13056,-3.15413,-0.05460231,             ,-0.001053547,0.69687,,
691.166,74.24118,-3.15413,-0.05461551,             ,-9.00442e-08,0.69598,,
692.266,74.35191,-3.15511,-0.05085389,             ,-0.0120498,0.69509,,
693.366,74.46307,-3.1536,-0.05257543,             ,0.01241722,0.6942,,
694.466,74.57428,-3.15364,-0.05081414,             ,-0.00509816,0.6933,,
695.566,74.6854,-3.15788,-0.05042194,             ,-0.02487566,0.69241,,
696.666,74.79658,-3.1583,-0.05605712,             ,0.0005679833,0.69152,,
697.766,74.90794,-3.15699,-0.0562503,             ,0.0005842485,0.69062,,
698.866,75.0192,-3.15828,-0.05163364,             ,-0.02971093,0.68972,,
699.966,75.13008,-3.15961,-0.05605052,             ,-1.56426e-05,0.68883,,
701.066,75.24124,-3.15997,-0.05437803,             ,-0.00625166,0.68793,,
702.166,75.35328,-3.15866,-0.05344516,             ,0.01768021,0.68703,,
703.266,75.46497,-3.15962,-0.0593108,             ,-0.006408175,0.68613,,
704.366,75.57681,-3.15935,-0.05538073,             ,-0.01901061,0.68523,,
705.466,75.68875,-3.15806,-0.06021789,             ,0.03318004,0.68433,,
706.566,75.80043,-3.16089,-0.06414964,             ,0.0006244053,0.68342,,
707.666,75.9123,-3.16071,-0.06235866,             ,0.02488274,0.68252,,
708.766,76.02427,-3.16081,-0.06263343,             ,-0.01999221,0.68161,,
709.866,76.13633,-3.16192,-0.06699122,             ,-2.911052e-05,0.68071,,
710.966,76.2482,-3.16192,-0.06693286,             ,1.632487e-07,0.6798,,
712.066,76.36,-3.16225,-0.06896714,             ,-0.02530379,0.67889,,
713.166,76.4718,-3.16316,-0.06869733,             ,0.01235696,0.67798,,
714.266,76.58368,-3.16289,-0.07141317,             ,-0.01698581,0.67707,,
715.366,76.69516,-3.16422,-0.0744622,             ,9.878038e-05,0.67616,,
716.466,76.80665,-3.16356,-0.07342,             ,-0.000111547,0.67525,,
717.566,76.918,-3.16468,-0.07555472,             ,0.01312693,0.67434,,
718.666,77.02939,-3.16485,-0.07828835,             ,-0.01442658,0.67342,,
719.766,77.1413,-3.16554,-0.07684066,             ,-0.008438585,0.67251,,
720.866,77.2531,-3.16653,-0.07322215,             ,-6.136744e-07,0.67159,,
721.966,77.3643,-3.16589,-0.07883831,             ,0.008386672,0.67068,,
723.066,77.47587,-3.16556,-0.08379954,             ,-0.01289971,0.66976,,
724.166,77.58735,-3.16684,-0.08180557,             ,-0.01948671,0.66884,,
725.266,77.6989,-3.16817,-0.08465803,             ,7.248411e-07,0.66792,,
726.366,77.81018,-3.16685,-0.0866874,             ,0.007310589,0.667,,
727.466,77.9216,-3.16817,-0.08748971,             ,-0.0001085792,0.66608,,
728.566,78.03302,-3.16751,-0.08707029,             ,0.00261624,0.66516,,
729.666,78.1443,-3.16883,-0.08896818,             ,-5.101828e-05,0.66424,,
730.766,78.25495,-3.16882,-0.09082036,             ,-0.00759871,0.66331,,
731.866,78.36636,-3.17004,-0.09154123,             ,-0.02193382,0.66239,,
732.966,78.47842,-3.17146,-0.0956081,             ,-0.000100476,0.66146,,
734.066,78.58991,-3.17179,-0.09545332,             ,-0.006336353,0.66053,,
735.166,78.7013,-3.17212,-0.09906083,             ,0.0006159972,0.65961,,
736.266,78.8129,-3.17245,-0.10213,             ,-0.0007587175,0.65868,,
737.366,78.9247,-3.17342,-0.10168,             ,-0.01247812,0.65775,,
738.466,79.03645,-3.17343,-0.102,             ,0.0028645,0.65682,,
739.566,79.14831,-3.17278,-0.10158,             ,-0.01011304,0.65589,,
740.666,79.26042,-3.17411,-0.10424,             ,-0.01246104,0.65496,,
741.766,79.3724,-3.17409,-0.10396,             ,-0.0009091504,0.65402,,
742.866,79.48427,-3.17475,-0.10649,             ,0.00338741,0.65309,,
743.966,79.59637,-3.17475,-0.11258,             ,-0.0001291655,0.65216,,
745.066,79.70838,-3.17573,-0.11149,             ,0.01400917,0.65122,,
746.166,79.81979,-3.17442,-0.1125,             ,6.474908e-08,0.65028,,
747.266,79.93129,-3.17475,-0.11679,             ,-0.004819405,0.64935,,
748.366,80.0433,-3.1764,-0.11644,             ,-0.02495848,0.64841,,
749.466,80.15507,-3.1757,-0.11253,             ,0.001934424,0.64747,,
750.566,80.26689,-3.17648,-0.11708,             ,-0.02490223,0.64653,,
751.666,80.3788,-3.17837,-0.11643,             ,-0.000346476,0.64559,,
752.766,80.49024,-3.17771,-0.11747,             ,-0.0007557289,0.64465,,
753.866,80.60095,-3.17763,-0.11814,             ,0.02360065,0.64371,,
754.966,80.7124,-3.17706,-0.11727,             ,-1.85658e-08,0.64276,,
756.066,80.82435,-3.17708,-0.12135,             ,-0.01398171,0.64182,,
757.166,80.9362,-3.17838,-0.12105,             ,-1.033169e-07,0.64088,,
758.266,81.04786,-3.17838,-0.12506,             ,-7.26934e-09,0.63993,,
759.366,81.15945,-3.17966,-0.1268,             ,-0.02361304,0.63899,,
760.466,81.2713,-3.17969,-0.12727,             ,2.118871e-06,0.63804,,
761.566,81.383,-3.18101,-0.12638,             ,-0.00603924,0.63709,,
762.666,81.49455,-3.18231,-0.12563,             ,-0.01052531,0.63614,,
763.766,81.60619,-3.18392,-0.12587,             ,-0.03832163,0.63519,,
764.866,81.7178,-3.18057,-0.1314,             ,0.0132899,0.63424,,
765.966,81.82944,-3.18056,-0.13154,             ,-5.627998e-10,0.63329,,
767.066,81.94142,-3.18057,-0.13135,             ,-0.01021351,0.63234,,
768.166,82.05323,-3.18287,-0.13328,             ,-0.002247739,0.63139,,
769.266,82.16493,-3.18287,-0.13465,             ,1.433157e-08,0.63043,,
770.366,82.27654,-3.18184,-0.13825,             ,0.02457074,0.62948,,
771.466,82.3882,-3.18286,-0.13644,             ,-0.03045869,0.62853,,
772.566,82.50026,-3.18419,-0.1361,             ,0.0078896,0.62757,,
773.666,82.61192,-3.1832,-0.13776,             ,-0.0005708936,0.62661,,
774.766,82.72375,-3.18451,-0.13972,             ,-0.0005385685,0.62566,,
775.866,82.83581,-3.18551,-0.14376,             ,-0.01343236,0.6247,,
776.966,82.94803,-3.18541,-0.13906,             ,-0.02813685,0.62374,,
778.066,83.05964,-3.18605,-0.1422,             ,0.01093118,0.62278,,
779.166,83.17155,-3.1857,-0.14592,             ,0.001506648,0.62182,,
780.266,83.28353,-3.1854,-0.1459,             ,-0.00679787,0.62086,,
781.366,83.39534,-3.18671,-0.14833,             ,-2.470131e-07,0.6199,,
782.466,83.50729,-3.18781,-0.14892,             ,-0.02420521,0.61894,,
783.566,83.6195,-3.18931,-0.14588,             ,-0.02375974,0.61797,,
784.666,83.73156,-3.18803,-0.15171,             ,0.009746124,0.61701,,
785.766,83.84344,-3.18803,-0.15122,             ,8.317016e-10,0.61605,,
786.866,83.95537,-3.18803,-0.14954,             ,-2.61175e-08,0.61508,,
787.966,84.06735,-3.18744,-0.15072,             ,0.04543539,0.61412,,
789.066,84.17922,-3.18824,-0.15287,             ,-0.01577753,0.61315,,
790.166,84.2911,-3.19088,-0.15441,             ,-0.01352885,0.61218,,
791.266,84.40308,-3.18951,-0.15557,             ,0.02072144,0.61121,,
792.366,84.5151,-3.18956,-0.15744,             ,-0.00251084,0.61025,,
793.466,84.62715,-3.19088,-0.15516,             ,-4.763784e-05,0.60928,,
794.566,84.73903,-3.19088,-0.15917,             ,2.023482e-10,0.60831,,
795.666,84.85089,-3.19088,-0.16066,             ,-0.01159243,0.60734,,
796.766,84.9631,-3.19078,-0.16233,             ,0.03398492,0.60637,,
797.066,84.99369,-3.18933,-0.1624,             ,0.03237367,0.6061,,