File: 01_Data/Ext_Plywood/STA/N2/10K_min/Ext_Plywood_STA_N2_10KData_22253_R3.csv
##Temp./°C,Time/min,Mass loss(subtr.)/mg,DSC(subtr.2)/(mW/mg),Integral(DSC (subtr.2), 2, 199.3..406.4°C)/%,DTG(subtr.)/(mg/min),Sensit./(uV/mW)
49.699,10.01,-0.02677,0.02365368,            ,0.0,1.07516,,
50.799,10.8968,-0.02881571,0.07487337,            ,0.01322285,1.07458,,
51.899,11.14528,-0.03069756,0.11001,            ,-0.016095,1.07401,,
52.999,11.33618,-0.03212466,0.13719,            ,0.0261055,1.07344,,
54.099,11.50137,-0.0291737,0.16204,            ,0.01988841,1.07286,,
55.199,11.65418,-0.02613031,0.17716,            ,-0.02663561,1.07229,,
56.299,11.7974,-0.02714919,0.19256,            ,-0.001755931,1.07172,,
57.399,11.9335,-0.02992821,0.20921,            ,-0.02288047,1.07115,,
58.499,12.06559,-0.03045407,0.21605,            ,0.00291369,1.07057,,
59.599,12.19403,-0.02929859,0.22834,            ,0.01349414,1.07,,
60.699,12.31966,-0.03214593,0.23567,            ,-0.0142054,1.06943,,
61.799,12.44399,-0.0327278,0.24164,            ,-0.00413848,1.06886,,
62.899,12.56675,-0.03119737,0.2471,            ,0.02254008,1.06829,,
63.999,12.68834,-0.03377184,0.2526,            ,0.002947794,1.06772,,
65.099,12.80902,-0.03115697,0.25983,            ,-0.001992844,1.06715,,
66.199,12.92907,-0.03115336,0.26428,            ,0.01134537,1.06658,,
67.299,13.04854,-0.0311157,0.27119,            ,-0.04947505,1.066,,
68.399,13.1676,-0.03460786,0.27698,            ,0.05062365,1.06543,,
69.499,13.28576,-0.03302346,0.28081,            ,-0.01933468,1.06486,,
70.599,13.4028,-0.0335598,0.28864,            ,-0.0005360242,1.06429,,
71.699,13.5196,-0.03588065,0.2959,            ,0.00252003,1.06372,,
72.799,13.63548,-0.03587049,0.29801,            ,-0.004856712,1.06316,,
73.899,13.7517,-0.03719536,0.30154,            ,-0.009737561,1.06259,,
74.999,13.8673,-0.03720192,0.30687,            ,-0.01621347,1.06202,,
76.099,13.98236,-0.04070417,0.31177,            ,0.03178859,1.06145,,
77.199,14.0969,-0.03653009,0.31447,            ,0.001458922,1.06088,,
78.299,14.211,-0.03784901,0.3202,            ,-0.01714288,1.06031,,
79.399,14.3248,-0.0391701,0.32531,            ,-7.93561e-05,1.05974,,
80.499,14.4383,-0.03916302,0.32855,            ,0.000592635,1.05917,,
81.599,14.55163,-0.04047784,0.33276,            ,-0.01541425,1.05861,,
82.699,14.6639,-0.0417735,0.33558,            ,0.004803995,1.05804,,
83.799,14.7759,-0.04169292,0.33565,            ,-0.02168203,1.05747,,
84.899,14.888,-0.04311,0.33864,            ,1.974861e-07,1.0569,,
85.999,14.9995,-0.0450912,0.34142,            ,-0.02657467,1.05634,,
87.099,15.1103,-0.04507982,0.34004,            ,-0.004240047,1.05577,,
88.199,15.2207,-0.04640081,0.3433,            ,0.005332238,1.0552,,
89.299,15.33115,-0.04508999,0.3432,            ,-0.0002002989,1.05464,,
90.399,15.44147,-0.04363671,0.34219,            ,0.04006616,1.05407,,
91.499,15.55115,-0.04623126,0.34038,            ,0.02090184,1.0535,,
92.599,15.66065,-0.05130298,0.34243,            ,-0.05660591,1.05294,,
93.699,15.77036,-0.04848419,0.34082,            ,-0.01799622,1.05237,,
94.799,15.87935,-0.05079013,0.34021,            ,-0.00279218,1.05181,,
95.899,15.98823,-0.05079,0.3365,            ,7.810579e-07,1.05124,,
96.999,16.09708,-0.05066811,0.33318,            ,-0.01257254,1.05067,,
98.099,16.20588,-0.05209998,0.33579,            ,-0.001738652,1.05011,,
99.199,16.3142,-0.053419,0.33203,            ,-0.002699601,1.04954,,
100.299,16.42256,-0.05342,0.32958,            ,8.550031e-08,1.04898,,
101.399,16.53104,-0.05211353,0.32754,            ,0.009044722,1.04842,,
102.499,16.6394,-0.05473943,0.32417,            ,-0.01812266,1.04785,,
103.599,16.74737,-0.05342096,0.32172,            ,0.002417864,1.04729,,
104.699,16.85513,-0.05341996,0.3185,            ,5.409502e-06,1.04672,,
105.799,16.9633,-0.05477334,0.3145,            ,-0.009282284,1.04616,,
106.899,17.0708,-0.05476744,0.31221,            ,-0.02269943,1.0456,,
107.999,17.178,-0.05610173,0.3103,            ,0.0212983,1.04503,,
109.099,17.2858,-0.05605031,0.30658,            ,-0.02157173,1.04447,,
110.199,17.3937,-0.05704952,0.30609,            ,0.02444956,1.04391,,
111.299,17.5009,-0.05606,0.30349,            ,4.39747e-09,1.04334,,
112.399,17.6082,-0.05606,0.30335,            ,-3.769689e-08,1.04278,,
113.499,17.71559,-0.05473935,0.29898,            ,-0.00268637,1.04222,,
114.599,17.8227,-0.05606494,0.30117,            ,-0.01088116,1.04166,,
115.699,17.9297,-0.05705354,0.29585,            ,0.01089098,1.04109,,
116.799,18.03775,-0.05808565,0.29803,            ,0.00130171,1.04053,,
117.899,18.14581,-0.05736986,0.29701,            ,0.000170419,1.03997,,
118.999,18.25255,-0.05638951,0.29492,            ,0.001212291,1.03941,,
120.099,18.35985,-0.05639,0.2954,            ,1.935553e-11,1.03885,,
121.199,18.46731,-0.0563924,0.29444,            ,0.002641439,1.03828,,
122.299,18.57466,-0.0547364,0.29747,            ,0.00657346,1.03772,,
123.399,18.68219,-0.05557966,0.29897,            ,-0.02448691,1.03716,,
124.499,18.7893,-0.05667623,0.29498,            ,-0.01351558,1.0366,,
125.599,18.89545,-0.0573784,0.29758,            ,0.01484851,1.03604,,
126.699,19.0024,-0.05735218,0.29856,            ,0.02211908,1.03548,,
127.799,19.1103,-0.05605995,0.29529,            ,0.008353569,1.03492,,
128.899,19.21711,-0.05462997,0.29725,            ,-7.17764e-06,1.03436,,
129.999,19.32399,-0.05595689,0.29875,            ,-0.00829226,1.0338,,
131.099,19.4309,-0.05691701,0.30239,            ,-0.01592679,1.03324,,
132.199,19.5376,-0.05709353,0.30199,            ,0.02415622,1.03268,,
133.299,19.64365,-0.05725901,0.30553,            ,-0.002873916,1.03212,,
134.399,19.74963,-0.05876812,0.30731,            ,-0.007843441,1.03156,,
135.499,19.8557,-0.05814,0.30753,            ,7.65388e-09,1.031,,
136.599,19.96134,-0.05808896,0.30835,            ,0.02471819,1.03044,,
137.699,20.06756,-0.05719632,0.31136,            ,-0.01942018,1.02988,,
138.799,20.17365,-0.05717548,0.30986,            ,0.00552668,1.02933,,
139.899,20.2792,-0.05682,0.30989,            ,-1.113492e-08,1.02877,,
140.999,20.38557,-0.05735488,0.31027,            ,-0.00658523,1.02821,,
142.099,20.49162,-0.05682,0.31051,            ,-4.107655e-07,1.02765,,
143.199,20.59724,-0.05682,0.31345,            ,1.1536e-07,1.02709,,
144.299,20.70285,-0.05609255,0.31406,            ,0.01191199,1.02653,,
145.399,20.8084,-0.05740925,0.31696,            ,-0.01192979,1.02598,,
146.499,20.9142,-0.05573302,0.31806,            ,-0.00888421,1.02542,,
147.599,21.01997,-0.05681996,0.3191,            ,-0.02206613,1.02486,,
148.699,21.1258,-0.05913049,0.32041,            ,0.001041526,1.0243,,
149.799,21.2314,-0.05779671,0.32084,            ,-0.01637479,1.02375,,
150.899,21.33713,-0.06218364,0.32094,            ,-0.006324129,1.02319,,
151.999,21.44312,-0.05792095,0.32463,            ,0.0006288218,1.02263,,
153.099,21.5485,-0.05923528,0.32536,            ,-0.0203266,1.02207,,
154.199,21.65401,-0.0592316,0.32831,            ,0.004844653,1.02152,,
155.299,21.76049,-0.05824003,0.3298,            ,0.0002219799,1.02096,,
156.399,21.86681,-0.05956033,0.33234,            ,-0.004326925,1.0204,,
157.499,21.97271,-0.06072827,0.33361,            ,-0.02404563,1.01985,,
158.599,22.0785,-0.0605407,0.33449,            ,0.01429335,1.01929,,
159.699,22.18422,-0.05956955,0.33426,            ,-0.004735445,1.01873,,
160.799,22.28945,-0.06087999,0.33559,            ,-3.167745e-05,1.01818,,
161.899,22.3947,-0.062818,0.33825,            ,-0.02106635,1.01762,,
162.999,22.50089,-0.06349967,0.3412,            ,0.002475662,1.01707,,
164.099,22.60697,-0.06120726,0.34466,            ,0.004669452,1.01651,,
165.199,22.7125,-0.06121,0.34559,            ,-4.10032e-08,1.01595,,
166.299,22.81845,-0.06174155,0.34374,            ,-0.02473795,1.0154,,
167.399,22.92418,-0.06253026,0.34707,            ,0.0005621144,1.01484,,
168.499,23.02955,-0.06154002,0.34928,            ,0.000876955,1.01429,,
169.599,23.13523,-0.06156473,0.35035,            ,-0.01466539,1.01373,,
170.699,23.24096,-0.06351976,0.35529,            ,-0.001883242,1.01318,,
171.799,23.3464,-0.06352,0.35419,            ,-7.771734e-08,1.01262,,
172.899,23.4516,-0.06430345,0.35738,            ,-0.0245541,1.01207,,
173.999,23.5571,-0.06483009,0.35924,            ,-0.0001505203,1.01151,,
175.099,23.66275,-0.06548034,0.36067,            ,-0.0007844575,1.01096,,
176.199,23.76822,-0.06548,0.36334,            ,5.471206e-11,1.0104,,
177.299,23.87301,-0.06548,0.36405,            ,1.8813e-09,1.00985,,
178.399,23.97795,-0.06547433,0.36665,            ,-0.01987321,1.00929,,
179.499,24.0837,-0.06821645,0.36949,            ,-0.02191229,1.00874,,
180.599,24.18883,-0.06755734,0.37166,            ,0.02476168,1.00818,,
181.699,24.29364,-0.06908047,0.37342,            ,-0.03157604,1.00763,,
182.799,24.3984,-0.0693731,0.37404,            ,-0.02293519,1.00707,,
183.899,24.50325,-0.07240433,0.37833,            ,-0.04257194,1.00652,,
184.999,24.6084,-0.07228888,0.37839,            ,0.004777155,1.00596,,
186.099,24.71273,-0.07231869,0.38128,            ,0.01807604,1.00541,,
187.199,24.8171,-0.07097181,0.38151,            ,-0.00383367,1.00485,,
188.299,24.92243,-0.07314084,0.38172,            ,-0.02473618,1.0043,,
189.399,25.02737,-0.07490065,0.38471,            ,-0.02248281,1.00375,,
190.499,25.1323,-0.07696756,0.38718,            ,-0.03316976,1.00319,,
191.599,25.23725,-0.07755995,0.38526,            ,-4.93035e-05,1.00264,,
192.699,25.34215,-0.07756,0.38839,            ,1.46757e-07,1.00208,,
193.799,25.4472,-0.07983389,0.38795,            ,-0.04754296,1.00153,,
194.899,25.55219,-0.08173274,0.39117,            ,-0.003319147,1.00097,,
195.999,25.65684,-0.08043606,0.38951,            ,-0.00336765,1.00042,,
197.099,25.76149,-0.08208344,0.39421,            ,-0.02531056,0.99987,,
198.199,25.8665,-0.08467493,0.39296,0.000000e+00,-0.0099755,0.99931,,
199.299,25.97179,-0.08600201,0.39123,2.622404e-05,-0.009940904,0.99876,,
200.399,26.0771,-0.08586521,0.39543,1.143928e-02,-0.007082599,0.9982,,
201.499,26.1823,-0.08726489,0.39529,3.563661e-02,-0.03216626,0.99765,,
202.599,26.28722,-0.08992819,0.39511,6.914913e-02,-0.0225536,0.9971,,
203.699,26.3917,-0.08994999,0.39769,     0.11438,2.66322e-06,0.99654,,
204.799,26.49665,-0.09126501,0.39646,     0.16969,-0.01691235,0.99599,,
205.899,26.6018,-0.09369802,0.39922,     0.23263,-0.0245216,0.99543,,
206.999,26.7064,-0.09521448,0.39735,     0.30741,-0.009220634,0.99488,,
208.099,26.81127,-0.09656703,0.40046,     0.38804,-0.02301937,0.99432,,
209.199,26.916,-0.09914916,0.39972,     0.47806,-0.01192346,0.99377,,
210.299,27.0208,-0.09915009,0.39898,     0.57715,-0.03997858,0.99322,,
211.399,27.12575,-0.10306,0.39788,     0.67974,-0.03095095,0.99266,,
212.499,27.23078,-0.1069,0.39464,     0.78422,-0.02506774,0.99211,,
213.599,27.3356,-0.10918,0.39525,     0.89213,-0.06469458,0.99155,,
214.699,27.4404,-0.11134,0.39545,     1.00764,-0.00130818,0.991,,
215.799,27.54552,-0.11129,0.39458,     1.13574,-0.01783225,0.99044,,
216.899,27.6503,-0.11132,0.3964,     1.26943,-0.03187297,0.98989,,
217.999,27.75514,-0.11556,0.39917,     1.41669,-0.03049319,0.98934,,
219.099,27.86027,-0.1186,0.40067,     1.57484,-0.04782026,0.98878,,
220.199,27.96548,-0.1218,0.39764,     1.74299,-0.03595243,0.98823,,
221.299,28.0706,-0.12705,0.40162,     1.91951,-0.04127456,0.98767,,
222.399,28.1756,-0.12701,0.39909,     2.10637,-0.01223443,0.98712,,
223.499,28.28035,-0.13032,0.40191,     2.30244,-0.01606727,0.98656,,
224.599,28.3851,-0.13228,0.40327,     2.51022,-0.06879453,0.98601,,
225.699,28.4897,-0.13699,0.40181,     2.72721,-0.00776163,0.98545,,
226.799,28.59491,-0.13965,0.40344,     2.95513,-0.03115343,0.9849,,
227.899,28.7002,-0.14227,0.405,     3.19531,-0.02895208,0.98434,,
228.999,28.8052,-0.14622,0.40771,     3.44877,-0.02554492,0.98379,,
230.099,28.9103,-0.14887,0.40751,     3.71283,-0.03492298,0.98323,,
231.199,29.0153,-0.15491,0.40968,     3.98961,-0.06364802,0.98268,,
232.299,29.12022,-0.15884,0.41029,     4.27690,-0.02423408,0.98212,,
233.399,29.225,-0.1595,0.40792,     4.56918,-0.02190939,0.98157,,
234.499,29.32987,-0.16311,0.41015,     4.86729,-0.04497399,0.98101,,
235.599,29.43488,-0.17038,0.41024,     5.18117,-0.04692277,0.98045,,
236.699,29.5396,-0.17109,0.40933,     5.50262,-0.01128355,0.9799,,
237.799,29.64435,-0.17334,0.41215,     5.83109,-0.02279012,0.97934,,
238.899,29.74969,-0.17615,0.41211,     6.17222,-0.0537959,0.97879,,
239.999,29.8547,-0.18216,0.41473,     6.51986,-0.05669114,0.97823,,
241.099,29.9598,-0.18964,0.41174,     6.87665,-0.07671511,0.97767,,
242.199,30.06529,-0.19638,0.41386,     7.24671,-0.04086606,0.97712,,
243.299,30.1705,-0.19843,0.41389,     7.62754,-0.004116465,0.97656,,
244.399,30.27559,-0.20277,0.41373,     8.01637,-0.05787287,0.976,,
245.499,30.3808,-0.20853,0.41481,     8.41289,-0.07000262,0.97545,,
246.599,30.48579,-0.21471,0.41486,     8.81779,-0.03471291,0.97489,,
247.699,30.5911,-0.21744,0.41468,     9.22949,-0.03997655,0.97433,,
248.799,30.6966,-0.22036,0.41576,     9.65103,-0.02092988,0.97378,,
249.899,30.8019,-0.22299,0.41384,    10.08023,-0.03982241,0.97322,,
250.999,30.90679,-0.22856,0.41397,    10.51321,-0.09438454,0.97266,,
252.099,31.0115,-0.23615,0.41263,    10.94757,-0.02938891,0.9721,,
253.199,31.1167,-0.24193,0.41202,    11.38956,-0.07729411,0.97155,,
254.299,31.2222,-0.24969,0.41224,    11.84050,-0.04883829,0.97099,,
255.399,31.3275,-0.25413,0.41065,    12.30095,-0.04070509,0.97043,,
256.499,31.4325,-0.25829,0.41225,    12.76256,-0.01823783,0.96987,,
257.599,31.5374,-0.2635,0.41283,    13.23106,-0.05420488,0.96931,,
258.699,31.64215,-0.27007,0.41076,    13.70565,-0.06840994,0.96875,,
259.799,31.7469,-0.27904,0.40925,    14.18727,-0.07957302,0.96819,,
260.899,31.85169,-0.29022,0.41104,    14.67285,-0.09252963,0.96764,,
261.999,31.9566,-0.29122,0.41,    15.16937,-0.04118516,0.96708,,
263.099,32.06113,-0.29889,0.41105,    15.67124,-0.08725587,0.96652,,
264.199,32.16578,-0.30653,0.41072,    16.18261,-0.08934748,0.96596,,
265.299,32.27109,-0.31426,0.41254,    16.70221,-0.06538112,0.9654,,
266.399,32.3761,-0.32325,0.41024,    17.22835,-0.07463968,0.96484,,
267.499,32.48097,-0.32952,0.40837,    17.75610,-0.07532035,0.96428,,
268.599,32.5858,-0.33534,0.40875,    18.29255,-0.06468247,0.96372,,
269.699,32.69057,-0.34535,0.40559,    18.83145,-0.09287991,0.96315,,
270.799,32.79569,-0.35289,0.40507,    19.37115,-0.09160379,0.96259,,
271.899,32.9009,-0.36337,0.4031,    19.91356,-0.07667731,0.96203,,
272.999,33.00563,-0.37243,0.40165,    20.45689,-0.09174292,0.96147,,
274.099,33.11059,-0.38464,0.40129,    21.00853,-0.14318,0.96091,,
275.199,33.2162,-0.39547,0.40064,    21.56643,-0.08340701,0.96035,,
276.299,33.3216,-0.40504,0.40106,    22.12904,-0.09289851,0.95978,,
277.399,33.4268,-0.41444,0.40077,    22.69471,-0.10571,0.95922,,
278.499,33.53219,-0.42708,0.39836,    23.27121,-0.12718,0.95866,,
279.599,33.63747,-0.44087,0.39849,    23.85060,-0.10832,0.9581,,
280.699,33.74288,-0.45313,0.39666,    24.42828,-0.11393,0.95753,,
281.799,33.84851,-0.46287,0.3949,    25.01465,-0.10252,0.95697,,
282.899,33.95391,-0.47885,0.39507,    25.60519,-0.16393,0.9564,,
283.999,34.05945,-0.49288,0.39378,    26.20210,-0.12203,0.95584,,
285.099,34.16507,-0.50786,0.3943,    26.80527,-0.13816,0.95528,,
286.199,34.27041,-0.5224,0.39414,    27.41314,-0.16291,0.95471,,
287.299,34.37595,-0.5385,0.39685,    28.03378,-0.14174,0.95415,,
288.399,34.48167,-0.55073,0.39207,    28.66214,-0.13574,0.95358,,
289.499,34.58712,-0.56715,0.39785,    29.29827,-0.12378,0.95302,,
290.599,34.6925,-0.58273,0.39828,    29.94371,-0.1634,0.95245,,
291.699,34.79826,-0.60151,0.3966,    30.60214,-0.17202,0.95188,,
292.799,34.90405,-0.61734,0.39847,    31.27359,-0.13595,0.95132,,
293.899,35.0098,-0.63669,0.39969,    31.95044,-0.17779,0.95075,,
294.999,35.11566,-0.65641,0.3958,    32.63830,-0.2087,0.95018,,
296.099,35.22121,-0.6746,0.40164,    33.33775,-0.15776,0.94961,,
297.199,35.3266,-0.69212,0.40365,    34.05035,-0.17603,0.94905,,
298.299,35.432,-0.71232,0.40379,    34.77429,-0.18951,0.94848,,
299.399,35.53745,-0.73129,0.40561,    35.51136,-0.17839,0.94791,,
300.499,35.643,-0.75424,0.40936,    36.26331,-0.22281,0.94734,,
301.599,35.74822,-0.77362,0.40895,    37.02536,-0.17621,0.94677,,
302.699,35.85373,-0.79431,0.41116,    37.80442,-0.20654,0.9462,,
303.799,35.95945,-0.81682,0.40904,    38.59764,-0.22644,0.94563,,
304.899,36.06496,-0.84145,0.41436,    39.40223,-0.22958,0.94506,,
305.999,36.17049,-0.86439,0.4166,    40.22330,-0.20434,0.94449,,
307.099,36.2754,-0.88599,0.41686,    41.05380,-0.21172,0.94392,,
308.199,36.38069,-0.90948,0.41894,    41.89670,-0.23408,0.94335,,
309.299,36.48665,-0.93615,0.42156,    42.76237,-0.26764,0.94278,,
310.399,36.59225,-0.96228,0.42446,    43.63900,-0.2195,0.9422,,
311.499,36.69764,-0.98702,0.42877,    44.53108,-0.25604,0.94163,,
312.599,36.80295,-1.01391,0.42776,    45.43817,-0.22846,0.94106,,
313.699,36.90821,-1.0381,0.42805,    46.35189,-0.24988,0.94048,,
314.799,37.01381,-1.06466,0.42953,    47.28061,-0.28463,0.93991,,
315.899,37.1196,-1.09382,0.43071,    48.21970,-0.24136,0.93934,,
316.999,37.22531,-1.12279,0.4315,    49.17157,-0.28571,0.93876,,
318.099,37.33109,-1.15017,0.42945,    50.13178,-0.24476,0.93819,,
319.199,37.43696,-1.1804,0.42915,    51.09770,-0.30271,0.93761,,
320.299,37.5427,-1.21075,0.43246,    52.07673,-0.26817,0.93704,,
321.399,37.64824,-1.24082,0.42961,    53.05677,-0.27431,0.93646,,
322.499,37.75391,-1.27196,0.4297,    54.04424,-0.29163,0.93588,,
323.599,37.8598,-1.30128,0.4308,    55.04654,-0.27406,0.93531,,
324.699,37.9657,-1.33443,0.43045,    56.05681,-0.32204,0.93473,,
325.799,38.0721,-1.36691,0.43535,    57.08751,-0.302,0.93415,,
326.899,38.17837,-1.399,0.43494,    58.13152,-0.31095,0.93357,,
327.999,38.28431,-1.43326,0.43552,    59.18363,-0.31297,0.93299,,
329.099,38.39066,-1.46477,0.43729,    60.25169,-0.30233,0.93241,,
330.199,38.49692,-1.49996,0.43812,    61.33013,-0.3505,0.93183,,
331.299,38.60341,-1.53481,0.43995,    62.42118,-0.3067,0.93125,,
332.399,38.70973,-1.56798,0.44249,    63.52582,-0.3301,0.93067,,
333.499,38.8156,-1.60339,0.44358,    64.63844,-0.3535,0.93009,,
334.599,38.92192,-1.64015,0.44584,    65.76849,-0.31313,0.92951,,
335.699,39.02828,-1.67579,0.4469,    66.91082,-0.34091,0.92893,,
336.799,39.13442,-1.71015,0.44185,    68.06072,-0.33121,0.92834,,
337.899,39.24073,-1.74701,0.44399,    69.21405,-0.34896,0.92776,,
338.999,39.34714,-1.77911,0.44199,    70.38090,-0.31908,0.92718,,
340.099,39.45348,-1.81599,0.43864,    71.54361,-0.33838,0.92659,,
341.199,39.5599,-1.8505,0.43737,    72.70322,-0.29045,0.92601,,
342.299,39.66648,-1.88712,0.4356,    73.86263,-0.3611,0.92542,,
343.399,39.7729,-1.92424,0.43108,    75.01680,-0.30486,0.92484,,
344.499,39.87899,-1.95582,0.42333,    76.15286,-0.29635,0.92425,,
345.599,39.98498,-1.9893,0.41683,    77.27484,-0.32365,0.92366,,
346.699,40.09117,-2.02336,0.41215,    78.38562,-0.31341,0.92308,,
347.799,40.1976,-2.05812,0.40159,    79.47607,-0.30912,0.92249,,
348.899,40.30408,-2.09052,0.39334,    80.54428,-0.3012,0.9219,,
349.999,40.4102,-2.12106,0.38483,    81.58130,-0.30396,0.92131,,
351.099,40.51608,-2.15365,0.37433,    82.58872,-0.27616,0.92072,,
352.199,40.62218,-2.18494,0.35994,    83.56787,-0.29719,0.92013,,
353.299,40.7282,-2.213,0.35036,    84.51260,-0.23859,0.91954,,
354.399,40.83395,-2.24053,0.33568,    85.41418,-0.25645,0.91895,,
355.499,40.9399,-2.26543,0.32288,    86.27515,-0.24954,0.91836,,
356.599,41.04606,-2.2928,0.3067,    87.09961,-0.24139,0.91776,,
357.699,41.15249,-2.31885,0.29376,    87.87719,-0.23675,0.91717,,
358.799,41.2588,-2.34061,0.27457,    88.60578,-0.19822,0.91658,,
359.899,41.365,-2.36402,0.26099,    89.28033,-0.20037,0.91598,,
360.999,41.47129,-2.38544,0.24477,    89.91031,-0.16811,0.91539,,
362.099,41.5777,-2.40414,0.2313,    90.49671,-0.162,0.91479,,
363.199,41.68445,-2.42097,0.21883,    91.04145,-0.1549,0.9142,,
364.299,41.79088,-2.44014,0.20602,    91.54821,-0.16071,0.9136,,
365.399,41.89727,-2.45482,0.19279,    92.01592,-0.13747,0.913,,
366.499,42.00385,-2.46983,0.18164,    92.45024,-0.11877,0.91241,,
367.599,42.11051,-2.48422,0.17041,    92.85113,-0.13835,0.91181,,
368.699,42.2172,-2.49729,0.16225,    93.22648,-0.12905,0.91121,,
369.799,42.32399,-2.50785,0.15132,    93.57730,-0.0780703,0.91061,,
370.899,42.4307,-2.51771,0.14635,    93.91125,-0.0985177,0.91001,,
371.999,42.5372,-2.52862,0.13986,    94.22845,-0.09572919,0.90941,,
373.099,42.64372,-2.53754,0.13832,    94.53463,-0.09164926,0.90881,,
374.199,42.74973,-2.5469,0.13486,    94.83781,-0.08563759,0.90821,,
375.299,42.85606,-2.55512,0.1274,    95.13586,-0.05837247,0.9076,,
376.399,42.96242,-2.55883,0.12735,    95.43343,-0.05826615,0.907,,
377.499,43.06813,-2.56666,0.12582,    95.72728,-0.07282747,0.9064,,
378.599,43.17392,-2.57304,0.12421,    96.02265,-0.05773953,0.90579,,
379.699,43.27968,-2.57991,0.12151,    96.32408,-0.05674383,0.90519,,
380.799,43.385,-2.58577,0.11742,    96.61990,-0.0391034,0.90458,,
381.899,43.4904,-2.5906,0.11366,    96.90837,-0.04070473,0.90397,,
382.999,43.5965,-2.59338,0.10935,    97.18929,-0.03283592,0.90337,,
384.099,43.70286,-2.59671,0.10486,    97.46391,-0.05088066,0.90276,,
385.199,43.80917,-2.60331,0.10063,    97.73247,-0.03767506,0.90215,,
386.299,43.91545,-2.60828,0.09314608,    97.98743,-0.05647522,0.90154,,
387.399,44.02182,-2.61338,0.08877728,    98.22463,-0.0388617,0.90093,,
388.499,44.1284,-2.61769,0.08220747,    98.45138,-0.07872032,0.90032,,
389.599,44.235,-2.62242,0.07703016,    98.66780,-0.03732059,0.89971,,
390.699,44.34169,-2.62658,0.07221712,    98.86746,-0.03970254,0.8991,,
391.799,44.44843,-2.63334,0.06146451,    99.05235,-0.03430381,0.89848,,
392.899,44.55573,-2.63431,0.05548824,    99.21526,-0.04015315,0.89787,,
393.999,44.66292,-2.63675,0.04924454,    99.36253,-0.03247023,0.89725,,
395.099,44.76976,-2.64177,0.04175032,    99.49156,-0.03734252,0.89664,,
396.199,44.87724,-2.64671,0.03313667,    99.60557,-0.05533035,0.89602,,
397.299,44.9848,-2.65234,0.02667266,    99.69978,-0.02139711,0.89541,,
398.399,45.09197,-2.6539,0.02202109,    99.77867,-0.04204595,0.89479,,
399.499,45.1991,-2.65985,0.0146625,    99.84167,-0.05693444,0.89417,,
400.599,45.30648,-2.66477,0.01048672,    99.89477,-0.03453802,0.89355,,
401.699,45.41361,-2.6686,0.004269857,    99.93573,-0.02985444,0.89293,,
402.799,45.52088,-2.67281,0.0003959565,    99.96402,-0.04689416,0.89231,,
403.899,45.62834,-2.67705,-0.00454013,    99.98778,-0.0495174,0.89169,,
404.999,45.7356,-2.68204,-0.01093689,    99.99908,-0.0356925,0.89107,,
406.099,45.84308,-2.68551,-0.01678199,   100.002,-0.02301978,0.89045,,
407.199,45.95053,-2.69055,-0.01886776,   100,-0.04356629,0.88983,,
408.299,46.05788,-2.69529,-0.02340973,   100,-0.01687082,0.8892,,
409.399,46.16538,-2.69777,-0.02365317,            ,-0.04682717,0.88858,,
410.499,46.27309,-2.70262,-0.03144017,            ,-0.04220146,0.88795,,
411.599,46.3806,-2.7054,-0.02925653,            ,-0.01837363,0.88733,,
412.699,46.4878,-2.70976,-0.02848074,            ,-0.04009329,0.8867,,
413.799,46.59511,-2.71351,-0.03110461,            ,-0.04669162,0.88607,,
414.899,46.70264,-2.71821,-0.03241714,            ,-0.03160676,0.88544,,
415.999,46.81037,-2.72241,-0.0308677,            ,-0.03939617,0.88481,,
417.099,46.91805,-2.72796,-0.0300321,            ,-0.06072258,0.88418,,
418.199,47.02556,-2.73378,-0.02920422,            ,-0.04238487,0.88355,,
419.299,47.13295,-2.73558,-0.02552232,            ,-0.03776178,0.88292,,
420.399,47.24,-2.73832,-0.02647476,            ,-0.01909948,0.88229,,
421.499,47.3476,-2.74204,-0.0219745,            ,-0.02809243,0.88166,,
422.599,47.45575,-2.74501,-0.02416422,            ,-0.03407924,0.88102,,
423.699,47.5634,-2.74891,-0.0227974,            ,-0.03267508,0.88039,,
424.799,47.67091,-2.75366,-0.02572039,            ,-0.04325821,0.87975,,
425.899,47.77852,-2.75715,-0.02266509,            ,-0.02766028,0.87911,,
426.999,47.88641,-2.75962,-0.02685667,            ,-0.02824674,0.87848,,
428.099,47.99457,-2.76261,-0.02456154,            ,-0.02263811,0.87784,,
429.199,48.1025,-2.76676,-0.02757868,            ,-0.04785085,0.8772,,
430.299,48.21067,-2.77019,-0.0221983,            ,-0.03156239,0.87656,,
431.399,48.3189,-2.77475,-0.02182911,            ,-0.03069221,0.87592,,
432.499,48.42674,-2.77669,-0.01809479,            ,-0.03479203,0.87528,,
433.599,48.53464,-2.77962,-0.0165513,            ,-0.02115829,0.87464,,
434.699,48.64274,-2.78259,-0.01354706,            ,-0.03621605,0.87399,,
435.799,48.7513,-2.78764,-0.01130634,            ,-0.09419238,0.87335,,
436.899,48.85998,-2.79459,-0.01101007,            ,0.01990986,0.8727,,
437.999,48.96829,-2.79145,-0.009546325,            ,0.02781689,0.87206,,
439.099,49.07671,-2.79281,-0.00667349,            ,-0.01365261,0.87141,,
440.199,49.18531,-2.79586,-0.002081778,            ,-0.03265094,0.87076,,
441.299,49.29383,-2.80119,-0.001267206,            ,-0.05683349,0.87011,,
442.399,49.40217,-2.8059,0.001978069,            ,-0.06419092,0.86946,,
443.499,49.51068,-2.80797,0.00227182,            ,-0.004579961,0.86881,,
444.599,49.619,-2.81085,0.006036311,            ,-0.02705933,0.86816,,
445.699,49.7271,-2.8119,0.003631202,            ,-0.02014702,0.86751,,
446.799,49.83505,-2.8148,0.007504391,            ,-0.01700452,0.86686,,
447.899,49.94293,-2.81883,0.01075737,            ,-0.01951925,0.8662,,
448.999,50.0512,-2.82166,0.01274209,            ,-0.02317752,0.86555,,
450.099,50.1592,-2.82298,0.01253811,            ,-0.02885086,0.86489,,
451.199,50.26726,-2.82474,0.01656297,            ,-0.02523978,0.86424,,
452.299,50.3755,-2.82821,0.01832141,            ,-0.03720394,0.86358,,
453.399,50.4836,-2.8327,0.02030269,            ,-0.02391374,0.86292,,
454.499,50.59154,-2.83397,0.02040635,            ,-0.003892552,0.86226,,
455.599,50.69963,-2.83528,0.02463634,            ,-0.02091854,0.8616,,
456.699,50.80753,-2.83791,0.02116061,            ,-0.0139262,0.86094,,
457.799,50.91568,-2.83921,0.02434595,            ,-0.03518276,0.86028,,
458.899,51.02409,-2.84426,0.02778118,            ,-0.03406535,0.85962,,
459.999,51.1325,-2.84612,0.02792769,            ,-0.02437242,0.85895,,
461.099,51.2408,-2.84872,0.0279271,            ,-0.03276076,0.85829,,
462.199,51.34926,-2.85131,0.02967921,            ,-0.017033,0.85762,,
463.299,51.45767,-2.85395,0.02932495,            ,-0.00564935,0.85696,,
464.399,51.5659,-2.85398,0.03031104,            ,0.01343458,0.85629,,
465.499,51.67425,-2.85538,0.03294777,            ,-0.03627991,0.85562,,
466.599,51.7832,-2.85801,0.03077802,            ,-0.03221388,0.85495,,
467.699,51.89215,-2.8592,0.03321984,            ,0.001897268,0.85428,,
468.799,52.00073,-2.86195,0.03305663,            ,-0.02722106,0.85361,,
469.899,52.1096,-2.86388,0.03538827,            ,-0.02480821,0.85294,,
470.999,52.2187,-2.86587,0.03381168,            ,-0.01808396,0.85226,,
472.099,52.32743,-2.86719,0.03675892,            ,-0.02156044,0.85159,,
473.199,52.4361,-2.87079,0.03712904,            ,-0.05712463,0.85091,,
474.299,52.545,-2.87389,0.03670088,            ,-0.006872253,0.85024,,
475.399,52.6537,-2.87531,0.03860086,            ,-0.02112024,0.84956,,
476.499,52.76236,-2.87776,0.0398581,            ,-0.03731817,0.84888,,
477.599,52.87121,-2.87981,0.03839757,            ,-0.001165594,0.8482,,
478.699,52.9801,-2.87981,0.0369068,            ,-2.591345e-05,0.84752,,
479.799,53.08895,-2.88105,0.03924633,            ,-0.04831912,0.84684,,
480.899,53.19765,-2.88507,0.0407257,            ,-0.013278,0.84616,,
481.999,53.30655,-2.88569,0.0413687,            ,0.00875098,0.84548,,
483.099,53.41548,-2.88847,0.04136964,            ,-0.02845199,0.84479,,
484.199,53.5243,-2.88914,0.0401658,            ,-0.001075468,0.84411,,
485.299,53.63309,-2.89022,0.04233515,            ,-0.02501765,0.84342,,
486.399,53.74174,-2.89184,0.04428597,            ,-0.02347814,0.84274,,
487.499,53.85004,-2.89451,0.04563628,            ,-0.01725379,0.84205,,
488.599,53.9585,-2.89717,0.04522916,            ,-0.01903719,0.84136,,
489.699,54.06762,-2.89845,0.04321211,            ,-0.00756525,0.84067,,
490.799,54.1765,-2.89846,0.04447922,            ,-0.01783735,0.83998,,
491.899,54.2854,-2.90069,0.04240505,            ,-0.0284177,0.83929,,
492.999,54.3941,-2.90241,0.0424765,            ,0.005900017,0.83859,,
494.099,54.50278,-2.90241,0.04519463,            ,-0.007670397,0.8379,,
495.199,54.6115,-2.90378,0.04392626,            ,-0.02572844,0.8372,,
496.299,54.72054,-2.90636,0.04500054,            ,-0.02582031,0.83651,,
497.399,54.82963,-2.91226,0.04534663,            ,-0.007434648,0.83581,,
498.499,54.9385,-2.91007,0.04243935,            ,-0.004281928,0.83511,,
499.599,55.0474,-2.90943,0.04409662,            ,-0.0003241112,0.83441,,
500.699,55.1566,-2.91319,0.04437384,            ,-0.04018581,0.83371,,
501.799,55.26543,-2.91481,0.04567139,            ,-0.01822179,0.83301,,
502.899,55.3744,-2.91651,0.04480405,            ,-0.0254766,0.83231,,
503.999,55.4834,-2.91837,0.04803004,            ,-0.02513841,0.83161,,
505.099,55.5923,-2.9196,0.04897198,            ,-0.024702,0.8309,,
506.199,55.70143,-2.92139,0.05152838,            ,-0.000582615,0.8302,,
507.299,55.8101,-2.9227,0.04883897,            ,-0.01761367,0.82949,,
508.399,55.919,-2.92271,0.0604261,            ,-0.01087686,0.82878,,
509.499,56.02771,-2.92401,0.06534241,            ,-1.58611e-06,0.82807,,
510.599,56.13624,-2.92532,0.07038649,            ,-0.01176006,0.82737,,
511.699,56.24527,-2.92671,0.07733467,            ,-0.03102987,0.82665,,
512.799,56.35435,-2.92939,0.08442219,            ,-0.0007482058,0.82594,,
513.899,56.46326,-2.93067,0.09065048,            ,-0.02567893,0.82523,,
514.999,56.57246,-2.93288,0.09192499,            ,-0.02465063,0.82452,,
516.099,56.68169,-2.93335,0.09136598,            ,-0.003365376,0.8238,,
517.199,56.791,-2.93432,0.09661682,            ,-2.59712e-05,0.82309,,
518.299,56.9001,-2.93564,0.09692426,            ,-0.00408048,0.82237,,
519.399,57.0093,-2.93562,0.1043,            ,-0.02222662,0.82165,,
520.499,57.11864,-2.9385,0.10234,            ,-0.02736785,0.82093,,
521.599,57.22761,-2.94222,0.10819,            ,-0.002820485,0.82021,,
522.699,57.3367,-2.9409,0.11114,            ,0.0004448661,0.81949,,
523.799,57.44627,-2.94222,0.11031,            ,-0.01203431,0.81877,,
524.899,57.55568,-2.94353,0.11128,            ,-0.008024047,0.81805,,
525.999,57.6652,-2.94495,0.11524,            ,-0.01144567,0.81732,,
527.099,57.7746,-2.94744,0.11576,            ,-0.03060924,0.8166,,
528.199,57.88405,-2.95017,0.12026,            ,-0.02014112,0.81587,,
529.299,57.99436,-2.95143,0.1217,            ,-0.006662719,0.81514,,
530.399,58.1045,-2.95143,0.12372,            ,3.86937e-08,0.81441,,
531.499,58.2143,-2.95181,0.12223,            ,-0.02182482,0.81368,,
532.599,58.32382,-2.95274,0.12478,            ,-0.02371191,0.81295,,
533.699,58.43345,-2.95476,0.12224,            ,-0.02292715,0.81222,,
534.799,58.54354,-2.95536,0.12014,            ,0.02485538,0.81149,,
535.899,58.65344,-2.95605,0.11907,            ,-0.00483296,0.81075,,
536.999,58.76315,-2.95736,0.11975,            ,-0.002095803,0.81002,,
538.099,58.87304,-2.95868,0.10954,            ,-0.0001483042,0.80928,,
539.199,58.98301,-2.96071,0.09674301,            ,-0.02579213,0.80854,,
540.299,59.09295,-2.96062,0.08974767,            ,-0.01822003,0.80781,,
541.399,59.20287,-2.96334,0.08101038,            ,-0.02083284,0.80707,,
542.499,59.3125,-2.9646,0.07337512,            ,-0.01308216,0.80633,,
543.599,59.4223,-2.96507,0.07548088,            ,0.02398391,0.80558,,
544.699,59.5322,-2.96544,0.07218727,            ,-0.02510445,0.80484,,
545.799,59.64201,-2.96724,0.06950456,            ,-0.00111425,0.8041,,
546.899,59.7518,-2.96853,0.07013934,            ,-0.02006595,0.80335,,
547.999,59.8614,-2.9699,0.06636438,            ,-0.01275252,0.80261,,
549.099,59.97095,-2.97118,0.06548753,            ,-1.04223e-05,0.80186,,
550.199,60.0807,-2.96986,0.06694279,            ,0.003294456,0.80111,,
551.299,60.19073,-2.9712,0.06636152,            ,-0.02204252,0.80036,,
552.399,60.30073,-2.97249,0.06935226,            ,-0.0005432743,0.79961,,
553.499,60.41049,-2.97381,0.06505749,            ,-0.00503632,0.79886,,
554.599,60.52081,-2.97513,0.06585316,            ,-0.02156635,0.7981,,
555.699,60.63069,-2.97773,0.06574183,            ,0.01195499,0.79735,,
556.799,60.7406,-2.97776,0.06367554,            ,-0.01545763,0.7966,,
557.899,60.85099,-2.97645,0.06540146,            ,-5.460295e-06,0.79584,,
558.999,60.96068,-2.97775,0.06495141,            ,-0.02323124,0.79508,,
560.099,61.07057,-2.98007,0.06418633,            ,-0.003390104,0.79432,,
561.199,61.18081,-2.98007,0.06398905,            ,-1.072134e-05,0.79356,,
562.299,61.29064,-2.98139,0.06514702,            ,-0.005739859,0.7928,,
563.399,61.40045,-2.98238,0.06555148,            ,-0.02608268,0.79204,,
564.499,61.5104,-2.98268,0.06254323,            ,0.02224686,0.79128,,
565.599,61.62045,-2.98402,0.06557629,            ,-0.01395839,0.79052,,
566.699,61.7307,-2.98539,0.06415893,            ,-0.005315991,0.78975,,
567.799,61.84105,-2.98533,0.06624482,            ,-0.0003230588,0.78898,,
568.899,61.95134,-2.9873,0.06392009,            ,-0.01345497,0.78822,,
569.999,62.0615,-2.98646,0.06155071,            ,-0.026959,0.78745,,
571.099,62.17175,-2.98912,0.06246381,            ,-0.02496354,0.78668,,
572.199,62.28213,-2.98859,0.06054326,            ,0.02102686,0.78591,,
573.299,62.39226,-2.98994,0.05956895,            ,-0.017279,0.78514,,
574.399,62.5026,-2.99257,0.06393014,            ,-0.0004643607,0.78436,,
575.499,62.61311,-2.99388,0.05636114,            ,0.001112951,0.78359,,
576.599,62.7234,-2.99257,0.05977767,            ,-0.0009021764,0.78281,,
577.699,62.8335,-2.99489,0.05984705,            ,-0.01865791,0.78204,,
578.799,62.9438,-2.99617,0.06104639,            ,0.01105133,0.78126,,
579.899,63.05424,-2.99619,0.05981093,            ,-0.0001652,0.78048,,
580.999,63.1646,-2.99619,0.06104952,            ,-0.0006325036,0.7797,,
582.099,63.2749,-2.99882,0.06229168,            ,-0.00650485,0.77892,,
583.199,63.38547,-2.99883,0.06354321,            ,0.0054558,0.77814,,
584.299,63.49575,-2.99892,0.06490317,            ,-0.02364407,0.77736,,
585.399,63.606,-3.00014,0.06336419,            ,-0.0004625878,0.77657,,
586.499,63.7162,-3.00146,0.06973869,            ,-0.001167804,0.77579,,
587.599,63.8262,-3.00277,0.06799475,            ,-0.006210947,0.775,,
588.699,63.93665,-3.00399,0.06970015,            ,-0.02207675,0.77421,,
589.799,64.04703,-3.00403,0.07106465,            ,0.01998054,0.77342,,
590.899,64.15743,-3.00529,0.07259115,            ,-0.02321451,0.77263,,
591.999,64.2677,-3.00619,0.07531881,            ,-0.01896969,0.77184,,
593.099,64.3776,-3.00773,0.08077375,            ,-0.01784672,0.77105,,
594.199,64.48793,-3.00849,0.08140885,            ,-0.01025463,0.77026,,
595.299,64.5984,-3.00771,0.08620089,            ,0.0005624344,0.76946,,
596.399,64.7089,-3.00705,0.08629786,            ,-0.006811299,0.76867,,
597.499,64.81913,-3.00733,0.09411302,            ,-0.00658598,0.76787,,
598.599,64.92949,-3.00999,0.09614348,            ,-0.02257178,0.76707,,
599.699,65.03975,-3.01001,0.10128,            ,0.001085228,0.76627,,
600.799,65.14968,-3.01099,0.10483,            ,-0.01696316,0.76547,,
601.899,65.25994,-3.011,0.11085,            ,0.01613169,0.76467,,
602.999,65.3704,-3.01136,0.11427,            ,-0.02485815,0.76387,,
604.099,65.48085,-3.01296,0.11869,            ,-0.03105372,0.76307,,
605.199,65.5916,-3.01494,0.12143,            ,1.463448e-07,0.76226,,
606.299,65.7021,-3.01494,0.12396,            ,-5.791018e-05,0.76146,,
607.399,65.81273,-3.01626,0.12592,            ,-0.002377587,0.76065,,
608.499,65.92309,-3.01626,0.12664,            ,3.56452e-07,0.75984,,
609.599,66.03344,-3.01757,0.12627,            ,-0.02564531,0.75903,,
610.699,66.14376,-3.01889,0.12203,            ,-1.439862e-06,0.75822,,
611.799,66.25431,-3.01767,0.12197,            ,0.02189462,0.75741,,
612.899,66.3651,-3.01917,0.12126,            ,-0.02412294,0.7566,,
613.999,66.47533,-3.0188,0.12154,            ,0.02100801,0.75579,,
615.099,66.58535,-3.01889,0.12189,            ,-0.00657633,0.75497,,
616.199,66.69578,-3.02014,0.12129,            ,-0.01160837,0.75416,,
617.299,66.80625,-3.01988,0.1223,            ,0.00487063,0.75334,,
618.399,66.9167,-3.02191,0.12468,            ,-0.03348497,0.75252,,
619.499,67.0275,-3.02325,0.12421,            ,0.01795065,0.7517,,
620.599,67.13814,-3.02361,0.12354,            ,-0.001768852,0.75088,,
621.699,67.24863,-3.02515,0.12797,            ,-0.02755923,0.75006,,
622.799,67.3594,-3.02459,0.12658,            ,0.00964933,0.74924,,
623.899,67.47055,-3.02459,0.1288,            ,-0.008284705,0.74841,,
624.999,67.58134,-3.0259,0.13234,            ,-0.009474094,0.74759,,
626.099,67.6922,-3.02591,0.13134,            ,-3.86765e-05,0.74676,,
627.199,67.80304,-3.02723,0.1319,            ,-0.007363204,0.74594,,
628.299,67.91383,-3.02953,0.13118,            ,-0.00218273,0.74511,,
629.399,68.02405,-3.02916,0.13321,            ,-0.01244172,0.74428,,
630.499,68.13452,-3.02823,0.13113,            ,0.00814494,0.74345,,
631.599,68.24565,-3.02819,0.13112,            ,-0.03571392,0.74262,,
632.699,68.35659,-3.02981,0.13354,            ,-0.02051312,0.74179,,
633.799,68.46727,-3.03165,0.13087,            ,-0.01864303,0.74095,,
634.899,68.57796,-3.03217,0.13055,            ,4.665609e-07,0.74012,,
635.999,68.68879,-3.03349,0.12964,            ,-0.01521397,0.73928,,
637.099,68.7993,-3.03349,0.13402,            ,1.661684e-07,0.73844,,
638.199,68.90957,-3.03348,0.13302,            ,0.00306271,0.73761,,
639.299,69.02015,-3.03315,0.13346,            ,-0.01813348,0.73677,,
640.399,69.13084,-3.03348,0.13007,            ,0.00577525,0.73593,,
641.499,69.24132,-3.03348,0.13512,            ,-1.23628e-05,0.73509,,
642.599,69.35208,-3.03612,0.13396,            ,-0.02404432,0.73424,,
643.699,69.463,-3.03684,0.13562,            ,-0.009162314,0.7334,,
644.799,69.57349,-3.03566,0.13515,            ,-0.01264622,0.73255,,
645.899,69.6841,-3.03611,0.13262,            ,-0.00226226,0.73171,,
646.999,69.795,-3.03743,0.13482,            ,-0.002570308,0.73086,,
648.099,69.90518,-3.03738,0.13571,            ,0.01918687,0.73001,,
649.199,70.0163,-3.03803,0.13023,            ,-0.02474601,0.72917,,
650.299,70.12776,-3.0401,0.13364,            ,-0.01943563,0.72832,,
651.399,70.23874,-3.03908,0.13449,            ,0.001430126,0.72746,,
652.499,70.3502,-3.0404,0.13507,            ,-0.007550599,0.72661,,
653.599,70.46133,-3.04005,0.13421,            ,0.006101855,0.72576,,
654.699,70.57226,-3.04138,0.13497,            ,-0.00576772,0.7249,,
655.799,70.68316,-3.04006,0.13513,            ,8.652242e-05,0.72405,,
656.899,70.79432,-3.04232,0.13582,            ,-0.01821425,0.72319,,
657.999,70.90553,-3.0413,0.13647,            ,0.02088757,0.72233,,
659.099,71.0168,-3.04138,0.13555,            ,-0.007337514,0.72148,,
660.199,71.12781,-3.04262,0.13661,            ,-0.02246964,0.72062,,
661.299,71.2385,-3.04401,0.1366,            ,3.019181e-06,0.71975,,
662.399,71.34909,-3.04368,0.14005,            ,0.0006170384,0.71889,,
663.499,71.4598,-3.04368,0.13985,            ,0.002562045,0.71803,,
664.599,71.57072,-3.04335,0.14003,            ,-0.00402753,0.71717,,
665.699,71.68145,-3.04411,0.13987,            ,-0.02390885,0.7163,,
666.799,71.79211,-3.04664,0.13835,            ,-0.006489061,0.71543,,
667.899,71.90313,-3.04597,0.14071,            ,0.005124752,0.71457,,
668.999,72.01398,-3.04598,0.14082,            ,-3.06141e-05,0.7137,,
670.099,72.1249,-3.04643,0.1431,            ,0.00285562,0.71283,,
671.199,72.23606,-3.04731,0.14435,            ,-0.004459262,0.71196,,
672.299,72.34724,-3.04829,0.14088,            ,2.59942e-06,0.71109,,
673.399,72.458,-3.04829,0.13913,            ,-1.059559e-12,0.71021,,
674.499,72.5685,-3.04829,0.13801,            ,7.839378e-10,0.70934,,
675.599,72.67917,-3.04829,0.13654,            ,-0.00482588,0.70847,,
676.699,72.79,-3.04994,0.1387,            ,-0.00764914,0.70759,,
677.799,72.90084,-3.05126,0.14018,            ,0.004956215,0.70671,,
678.899,73.01171,-3.05073,0.13961,            ,-0.02472812,0.70584,,
679.999,73.12267,-3.0519,0.13455,            ,-0.007145618,0.70496,,
681.099,73.23321,-3.05059,0.13813,            ,0.005933979,0.70408,,
682.199,73.34416,-3.05126,0.13679,            ,-0.005148134,0.7032,,
683.299,73.45606,-3.05257,0.13598,            ,-0.004266443,0.70231,,
684.399,73.56782,-3.05389,0.13792,            ,0.009378479,0.70143,,
685.499,73.67934,-3.05256,0.13327,            ,0.01756871,0.70055,,
686.599,73.79094,-3.05128,0.13931,            ,-0.02276395,0.69966,,
687.699,73.9025,-3.05257,0.13654,            ,-8.27951e-08,0.69878,,
688.799,74.0139,-3.05254,0.13424,            ,-0.02863173,0.69789,,
689.899,74.12539,-3.05488,0.13443,            ,-4.192955e-06,0.697,,
690.999,74.23659,-3.05356,0.13428,            ,0.00441273,0.69611,,
692.099,74.34788,-3.05388,0.13546,            ,-0.01290838,0.69522,,
693.199,74.45936,-3.05652,0.13381,            ,-0.02620944,0.69433,,
694.299,74.5707,-3.05783,0.13816,            ,-6.342319e-06,0.69344,,
695.399,74.68204,-3.05783,0.13446,            ,6.455973e-08,0.69255,,
696.499,74.79318,-3.05664,0.13129,            ,0.01452213,0.69165,,
697.599,74.9042,-3.05783,0.1354,            ,-2.263726e-06,0.69076,,
698.699,75.01555,-3.05783,0.13353,            ,0.005317564,0.68986,,
699.799,75.1268,-3.05652,0.13556,            ,-0.007367109,0.68896,,
700.899,75.2382,-3.05917,0.1343,            ,-0.01727634,0.68807,,
701.999,75.34937,-3.05915,0.13273,            ,-8.159518e-07,0.68717,,
703.099,75.46053,-3.06146,0.13396,            ,-0.026251,0.68627,,
704.199,75.5719,-3.06144,0.12913,            ,0.006972504,0.68536,,
705.299,75.68307,-3.06082,0.13169,            ,-0.02268011,0.68446,,
706.399,75.79415,-3.06213,0.13399,            ,-0.01383592,0.68356,,
707.499,75.90549,-3.06347,0.12847,            ,-0.01374893,0.68266,,
708.599,76.01651,-3.06343,0.12755,            ,0.008413145,0.68175,,
709.699,76.1275,-3.06235,0.12927,            ,0.01902494,0.68084,,
710.799,76.23886,-3.06084,0.12592,            ,0.02268768,0.67994,,
711.899,76.34999,-3.0608,0.12373,            ,-2.891165e-11,0.67903,,
712.999,76.4615,-3.0608,0.12593,            ,-0.0002227141,0.67812,,
714.099,76.57289,-3.06347,0.12268,            ,-0.02188128,0.67721,,
715.199,76.6842,-3.06342,0.12328,            ,-0.0005264741,0.6763,,
716.299,76.79536,-3.06398,0.12165,            ,-0.01890242,0.67539,,
717.399,76.90697,-3.06279,0.11572,            ,0.02272419,0.67448,,
718.499,77.0184,-3.06409,0.11327,            ,-0.00585833,0.67356,,
719.599,77.1297,-3.06409,0.11755,            ,-0.02094225,0.67265,,
720.699,77.24162,-3.06575,0.11414,            ,0.005867737,0.67173,,
721.799,77.35372,-3.06558,0.11417,            ,-0.02376856,0.67082,,
722.899,77.46548,-3.06639,0.11432,            ,0.0002754819,0.6699,,
723.999,77.57712,-3.06639,0.10924,            ,1.319478e-06,0.66898,,
725.099,77.68892,-3.06507,0.11123,            ,0.004563276,0.66806,,
726.199,77.80041,-3.06639,0.10608,            ,-0.009038084,0.66714,,
727.299,77.91173,-3.06906,0.10553,            ,-0.02393293,0.66622,,
728.399,78.02316,-3.06899,0.10556,            ,0.02273511,0.6653,,
729.499,78.13479,-3.06813,0.1073,            ,-0.02976383,0.66438,,
730.599,78.24647,-3.07177,0.1029,            ,-0.01679542,0.66345,,
731.699,78.35775,-3.07061,0.10458,            ,0.02428299,0.66253,,
732.799,78.46933,-3.06913,0.10241,            ,0.02130781,0.6616,,
733.899,78.58078,-3.07044,0.10002,            ,0.000356209,0.66068,,
734.999,78.69237,-3.0705,0.10101,            ,-0.01125461,0.65975,,
736.099,78.80368,-3.07045,0.09740058,            ,-7.06698e-09,0.65882,,
737.199,78.91502,-3.07045,0.09377984,            ,5.338528e-06,0.65789,,
738.299,79.02627,-3.07144,0.0976177,            ,-0.002508503,0.65696,,
739.399,79.13763,-3.07144,0.09554795,            ,1.85656e-07,0.65603,,
740.499,79.2491,-3.07175,0.0920316,            ,-0.02501471,0.6551,,
741.599,79.3605,-3.07305,0.09266654,            ,0.02344628,0.65417,,
742.699,79.47222,-3.07308,0.0889973,            ,-0.001030038,0.65323,,
743.799,79.58404,-3.07207,0.09078099,            ,0.01432337,0.6523,,
744.899,79.69606,-3.07209,0.0878766,            ,3.06721e-07,0.65136,,
745.999,79.80767,-3.07342,0.08890098,            ,-0.01764104,0.65043,,
747.099,79.91911,-3.0734,0.0872855,            ,0.0001112355,0.64949,,
748.199,80.0309,-3.07308,0.08642976,            ,0.004986671,0.64855,,
749.299,80.14269,-3.07221,0.08982858,            ,-0.02345751,0.64761,,
750.399,80.25449,-3.07341,0.08597611,            ,-0.0003139003,0.64667,,
751.499,80.36636,-3.07576,0.08901713,            ,-0.01978451,0.64573,,
752.599,80.47841,-3.07572,0.08431816,            ,0.000555419,0.64479,,
753.699,80.5908,-3.07571,0.08492758,            ,-0.00310169,0.64385,,
754.799,80.70303,-3.07637,0.08509664,            ,0.001217261,0.64291,,
755.899,80.81514,-3.07538,0.08317664,            ,8.850263e-05,0.64196,,
756.999,80.92699,-3.07538,0.08236103,            ,-2.135377e-06,0.64102,,
758.099,81.03882,-3.0767,0.08076139,            ,-0.007169494,0.64007,,
759.199,81.15042,-3.07736,0.08104713,            ,-0.02247531,0.63913,,
760.299,81.2619,-3.07867,0.07948039,            ,-0.000100462,0.63818,,
761.399,81.37385,-3.07794,0.08045425,            ,0.0116923,0.63723,,
762.499,81.4859,-3.07737,0.07635385,            ,-0.01036655,0.63629,,
763.599,81.59761,-3.07868,0.07395422,            ,2.614288e-06,0.63534,,
764.699,81.70914,-3.07736,0.07503767,            ,0.02608058,0.63439,,
765.799,81.8205,-3.07604,0.07321054,            ,-3.094616e-05,0.63344,,
766.899,81.9318,-3.0775,0.07596848,            ,-0.02679302,0.63248,,
767.999,82.04365,-3.07999,0.07209358,            ,-0.006554081,0.63153,,
769.099,82.15536,-3.07933,0.07448123,            ,8.4903e-05,0.63058,,
770.199,82.26696,-3.07933,0.07333128,            ,-0.0006055889,0.62962,,
771.299,82.37866,-3.08001,0.07764512,            ,0.01094405,0.62867,,
772.399,82.49025,-3.08131,0.07568372,            ,-0.009107508,0.62771,,
773.499,82.60164,-3.08079,0.06864883,            ,-0.009528549,0.62676,,
774.599,82.71311,-3.0813,0.0715637,            ,1.876005e-08,0.6258,,
775.699,82.8249,-3.0813,0.06955818,            ,-9.28184e-15,0.62484,,
776.799,82.93674,-3.0813,0.06860515,            ,3.98116e-11,0.62389,,
777.899,83.04812,-3.0813,0.06503618,            ,0.000885426,0.62293,,
778.999,83.1593,-3.08163,0.06742718,            ,-0.00379671,0.62197,,
780.099,83.27111,-3.08197,0.06683073,            ,-0.02220671,0.62101,,
781.199,83.38333,-3.08186,0.06437272,            ,0.02177385,0.62004,,
782.299,83.4957,-3.08464,0.06704025,            ,-0.01995409,0.61908,,
783.399,83.6076,-3.08457,0.06746007,            ,0.01384917,0.61812,,
784.499,83.71938,-3.0846,0.06342091,            ,-0.006815095,0.61716,,
785.599,83.83123,-3.08525,0.06081249,            ,0.003026599,0.61619,,
786.699,83.94344,-3.08394,0.06638643,            ,6.550579e-05,0.61523,,
787.799,84.05552,-3.08394,0.06581452,            ,-1.220064e-06,0.61426,,
788.899,84.1675,-3.08523,0.06224793,            ,-0.001729225,0.6133,,
789.999,84.27965,-3.08522,0.05781846,            ,-0.02480464,0.61233,,
791.099,84.39158,-3.08526,0.06388214,            ,0.009207455,0.61136,,
792.199,84.50367,-3.08625,0.06410643,            ,-0.00576922,0.61039,,
793.299,84.61578,-3.08887,0.06857944,            ,-0.009459359,0.60942,,
794.399,84.72792,-3.08895,0.06224623,            ,0.02252199,0.60845,,
795.499,84.84031,-3.08624,0.07181414,            ,0.01668886,0.60748,,
796.599,84.95241,-3.08808,0.06769516,            ,-0.0281215,0.60651,,
796.999,84.99271,-3.08854,0.06783821,            ,0.00749659,0.60616,,