File: 01_Data/Ext_Plywood/STA/N2/10K_min/Ext_Plywood_STA_N2_10KData_22243_R1.csv
##Temp./°C,Time/min,Mass loss(subtr.)/mg,DSC(subtr.2)/(mW/mg),Integral(DSC (subtr.2), 2, 199.3..406.4°C)/%,DTG(subtr.)/(mg/min),Sensit./(uV/mW)
49.94,10.00917,0.00439,0.0006957784,            ,0.0,1.07503,,
51.04,10.88141,0.00590794,0.05150615,            ,0.01516861,1.07446,,
52.14,11.1289,0.006571334,0.0877443,            ,-0.02365917,1.07388,,
53.24,11.31961,0.00374508,0.11575,            ,-0.02580598,1.07331,,
54.34,11.48582,0.004357157,0.13803,            ,-0.009333226,1.07274,,
55.44,11.63773,0.003561975,0.15518,            ,-0.01271241,1.07217,,
56.54,11.78012,0.004212041,0.17209,            ,0.009283481,1.07159,,
57.64,11.91591,0.004347678,0.18288,            ,-0.01341315,1.07102,,
58.74,12.04764,0.003885038,0.19575,            ,0.01108013,1.07045,,
59.84,12.1758,0.003673053,0.20231,            ,-0.001066363,1.06988,,
60.94,12.30165,0.002537634,0.20979,            ,0.004429185,1.06931,,
62.04,12.42525,0.002438653,0.21916,            ,-0.01858627,1.06873,,
63.14,12.54847,0.002364883,0.22598,            ,0.01008365,1.06816,,
64.24,12.67045,0.001083718,0.2336,            ,-0.005635126,1.06759,,
65.34,12.79097,0.002452095,0.24006,            ,0.005877352,1.06702,,
66.44,12.9108,0.001908398,0.24668,            ,0.0006018154,1.06645,,
67.54,13.0298,0.001089552,0.25245,            ,0.01082789,1.06588,,
68.64,13.1479,0.002403604,0.25623,            ,-0.02018166,1.06531,,
69.74,13.266,0.001088609,0.26014,            ,0.0005170665,1.06474,,
70.84,13.38376,0.002174223,0.26635,            ,-0.02388535,1.06417,,
71.94,13.50029,0.001029571,0.27226,            ,-0.01239751,1.0636,,
73.04,13.6167,0.001084072,0.27917,            ,0.00173618,1.06303,,
74.14,13.7328,-0.0001087842,0.28404,            ,-0.02304063,1.06246,,
75.24,13.84818,-0.000154014,0.28719,            ,-0.02371554,1.06189,,
76.34,13.96306,0.0005784994,0.29093,            ,0.00310817,1.06132,,
77.44,14.0776,-0.0002296818,0.29542,            ,-0.001110565,1.06075,,
78.54,14.1916,-0.0005671905,0.29899,            ,0.005311054,1.06019,,
79.64,14.3055,-0.001539253,0.30089,            ,-0.002139266,1.05962,,
80.74,14.41932,-0.001540004,0.30495,            ,-0.0009776479,1.05905,,
81.84,14.53248,-0.002914337,0.30955,            ,-0.004655696,1.05848,,
82.94,14.64519,-0.001541401,0.31226,            ,0.01011918,1.05791,,
84.04,14.7573,-0.002862382,0.31323,            ,-0.00642074,1.05735,,
85.14,14.86948,-0.004187462,0.31624,            ,-0.007095925,1.05678,,
86.24,14.98156,-0.003824319,0.31826,            ,-0.01348939,1.05621,,
87.34,15.0931,-0.004170489,0.31837,            ,0.0006900525,1.05564,,
88.44,15.2041,-0.00412036,0.31843,            ,-0.02093612,1.05508,,
89.54,15.31497,-0.005490002,0.32031,            ,1.18659e-07,1.05451,,
90.64,15.4254,-0.006872838,0.31815,            ,-0.001122236,1.05394,,
91.74,15.5353,-0.005484593,0.31882,            ,-0.01848805,1.05338,,
92.84,15.6448,-0.00689463,0.31815,            ,0.0213647,1.05281,,
93.94,15.7553,-0.006785576,0.31683,            ,0.001582651,1.05225,,
95.04,15.86556,-0.005487746,0.31439,            ,-0.02813319,1.05168,,
96.14,15.97441,-0.00680151,0.31481,            ,0.00148315,1.05112,,
97.24,16.083,-0.00811475,0.31255,            ,0.00586092,1.05055,,
98.34,16.1918,-0.008778183,0.31214,            ,-0.01245576,1.04999,,
99.44,16.3004,-0.008123978,0.30905,            ,0.007298961,1.04942,,
100.54,16.4089,-0.009429995,0.30668,            ,-9.973048e-05,1.04886,,
101.64,16.51711,-0.009461121,0.30401,            ,-0.0171964,1.04829,,
102.74,16.6252,-0.009440001,0.30149,            ,-1.002885e-07,1.04773,,
103.84,16.73341,-0.0104384,0.29676,            ,-0.02415678,1.04716,,
104.94,16.8412,-0.01207557,0.29458,            ,-0.00955109,1.0466,,
106.04,16.949,-0.0120698,0.2957,            ,0.004991725,1.04604,,
107.14,17.05695,-0.01206923,0.2927,            ,-0.008966732,1.04547,,
108.24,17.16491,-0.01075934,0.28968,            ,0.004008145,1.04491,,
109.34,17.27295,-0.0117401,0.28741,            ,-0.0004750183,1.04435,,
110.44,17.38081,-0.01180636,0.28525,            ,-0.01455092,1.04378,,
111.54,17.48836,-0.01043094,0.28411,            ,-0.009345544,1.04322,,
112.64,17.59597,-0.01174,0.2816,            ,-1.182878e-07,1.04266,,
113.74,17.70307,-0.01166818,0.28187,            ,-0.01470362,1.04209,,
114.84,17.81063,-0.01173999,0.28411,            ,7.300101e-06,1.04153,,
115.94,17.9191,-0.01206727,0.28166,            ,-0.01239503,1.04097,,
117.04,18.02659,-0.01140768,0.28088,            ,0.004475278,1.04041,,
118.14,18.1338,-0.01117218,0.28238,            ,0.02406237,1.03985,,
119.24,18.24106,-0.01009,0.28252,            ,5.75756e-08,1.03928,,
120.34,18.3485,-0.01009,0.28295,            ,-7.78494e-08,1.03872,,
121.44,18.45641,-0.009767195,0.28212,            ,0.007254733,1.03816,,
122.54,18.56371,-0.01045189,0.28317,            ,-0.0166642,1.0376,,
123.64,18.67069,-0.0117395,0.28257,            ,0.008556248,1.03704,,
124.74,18.77789,-0.01042,0.28034,            ,-2.879475e-06,1.03648,,
125.84,18.8849,-0.01140634,0.28245,            ,-0.00767653,1.03592,,
126.94,18.99215,-0.01008952,0.28602,            ,0.001233928,1.03536,,
128.04,19.09915,-0.01009001,0.28714,            ,-0.00150578,1.0348,,
129.14,19.20559,-0.01042014,0.29055,            ,-0.00209799,1.03424,,
130.24,19.31234,-0.0104317,0.28771,            ,0.003520583,1.03368,,
131.34,19.41916,-0.01043,0.29032,            ,2.06316e-09,1.03312,,
132.44,19.52585,-0.01044139,0.28984,            ,-0.003337205,1.03256,,
133.54,19.63253,-0.01042123,0.29182,            ,-0.009721587,1.032,,
134.64,19.73886,-0.01174,0.29223,            ,5.666271e-07,1.03144,,
135.74,19.84525,-0.01043072,0.29248,            ,0.01187374,1.03088,,
136.84,19.95167,-0.01182852,0.2953,            ,-0.02244255,1.03032,,
137.94,20.05796,-0.01043018,0.29529,            ,0.00174131,1.02976,,
139.04,20.16451,-0.01172338,0.29908,            ,-0.009336848,1.0292,,
140.14,20.271,-0.01239999,0.29791,            ,0.0001384138,1.02865,,
141.24,20.37699,-0.0110808,0.30073,            ,0.002318675,1.02809,,
142.34,20.4832,-0.01108,0.30151,            ,6.00097e-09,1.02753,,
143.44,20.58963,-0.01070916,0.30293,            ,0.01018566,1.02697,,
144.54,20.69599,-0.01213367,0.30515,            ,-0.03185106,1.02641,,
145.64,20.80234,-0.01370881,0.30596,            ,0.002586044,1.02585,,
146.74,20.9084,-0.01239,0.30716,            ,0.0001889286,1.0253,,
147.84,21.0144,-0.01369736,0.30999,            ,-0.0124672,1.02474,,
148.94,21.12032,-0.01373187,0.3103,            ,-0.007210671,1.02418,,
150.04,21.22648,-0.01372023,0.31226,            ,-0.000374377,1.02362,,
151.14,21.33259,-0.01372693,0.31397,            ,-0.01706091,1.02307,,
152.24,21.43842,-0.01634275,0.31546,            ,0.02049895,1.02251,,
153.34,21.54409,-0.01503001,0.31762,            ,-3.274794e-06,1.02195,,
154.44,21.65006,-0.01700609,0.31637,            ,-0.02147757,1.0214,,
155.54,21.756,-0.01617348,0.32061,            ,0.03503619,1.02084,,
156.64,21.86161,-0.01502985,0.32285,            ,-0.0004450803,1.02028,,
157.74,21.9671,-0.0170117,0.32432,            ,-0.005368315,1.01973,,
158.84,22.07241,-0.01701,0.32572,            ,9.00333e-07,1.01917,,
159.94,22.17834,-0.01693906,0.32703,            ,-0.006906884,1.01861,,
161.04,22.28409,-0.01571364,0.32909,            ,0.01346842,1.01806,,
162.14,22.3896,-0.01700417,0.33007,            ,-0.007027893,1.0175,,
163.24,22.49522,-0.01799,0.33184,            ,-1.869124e-07,1.01694,,
164.34,22.60074,-0.01799736,0.33253,            ,-0.00339518,1.01639,,
165.44,22.70603,-0.01799011,0.33768,            ,-0.00227575,1.01583,,
166.54,22.81125,-0.01929861,0.33739,            ,0.01027282,1.01528,,
167.64,22.9164,-0.01833261,0.33925,            ,-0.01409413,1.01472,,
168.74,23.02185,-0.01959912,0.34161,            ,0.001295879,1.01417,,
169.84,23.1276,-0.01964,0.34268,            ,9.34531e-07,1.01361,,
170.94,23.23275,-0.01834365,0.34568,            ,0.0134995,1.01306,,
172.04,23.3378,-0.01829738,0.34597,            ,-0.02145234,1.0125,,
173.14,23.44304,-0.01832319,0.34791,            ,0.00822633,1.01194,,
174.24,23.5486,-0.01964097,0.3504,            ,-0.009114136,1.01139,,
175.34,23.654,-0.02094992,0.35109,            ,4.200072e-05,1.01083,,
176.44,23.7591,-0.01963997,0.35112,            ,0.00409915,1.01028,,
177.54,23.86436,-0.01963999,0.35146,            ,2.05484e-06,1.00972,,
178.64,23.96986,-0.01821063,0.35312,            ,0.01870246,1.00917,,
179.74,24.07522,-0.01934172,0.35352,            ,-0.02394718,1.00861,,
180.84,24.18027,-0.02193481,0.35713,            ,0.01077954,1.00806,,
181.94,24.28556,-0.02063,0.35896,            ,-1.464495e-06,1.00751,,
183.04,24.391,-0.02194533,0.35863,            ,-0.009634017,1.00695,,
184.14,24.49595,-0.02193998,0.36048,            ,-1.152533e-06,1.0064,,
185.24,24.60119,-0.02391745,0.36457,            ,-0.01541194,1.00584,,
186.34,24.70644,-0.02501438,0.36376,            ,-0.0242048,1.00529,,
187.44,24.81159,-0.0252052,0.36595,            ,-0.0178605,1.00473,,
188.54,24.9162,-0.02655,0.36826,            ,-7.650668e-07,1.00418,,
189.64,25.02071,-0.02655,0.36906,            ,4.408777e-13,1.00362,,
190.74,25.12567,-0.02655,0.36894,            ,-8.501224e-09,1.00307,,
191.84,25.23025,-0.02653607,0.37154,            ,-0.01140373,1.00252,,
192.94,25.33485,-0.02853047,0.37185,            ,-0.0008961484,1.00196,,
194.04,25.43957,-0.02953427,0.37204,            ,-0.01890035,1.00141,,
195.14,25.54434,-0.0297688,0.374,            ,-0.01783599,1.00085,,
196.24,25.64904,-0.03246971,0.37294,            ,-0.009345115,1.0003,,
197.34,25.75375,-0.03298273,0.37418,0.000000e+00,-0.01212812,0.99974,,
198.44,25.85877,-0.03377786,0.37326,0.000000e+00,-0.03021712,0.99919,,
199.54,25.9639,-0.03642361,0.37146,4.505075e-04,-0.006502095,0.99864,,
200.64,26.069,-0.03642,0.37076,2.115347e-03,-0.0009817309,0.99808,,
201.74,26.17399,-0.03889008,0.36929,1.011772e-02,-0.02543762,0.99753,,
202.84,26.2793,-0.04145933,0.36873,2.095307e-02,-0.01374516,0.99697,,
203.94,26.3848,-0.04204643,0.36765,3.768891e-02,-0.04426247,0.99642,,
205.04,26.48997,-0.04573927,0.36681,6.134782e-02,-0.004715184,0.99587,,
206.14,26.5953,-0.04703456,0.36681,9.430018e-02,0.01071793,0.99531,,
207.24,26.70062,-0.04711092,0.36704,     0.13334,-0.05603666,0.99476,,
208.34,26.80596,-0.05122223,0.36676,     0.18001,-0.02172364,0.9942,,
209.44,26.9111,-0.05366257,0.36808,     0.23603,-0.03022026,0.99365,,
210.54,27.016,-0.05516894,0.36945,     0.30536,-0.0002028599,0.99309,,
211.64,27.12115,-0.05569975,0.36973,     0.38771,-0.02497294,0.99254,,
212.74,27.2263,-0.05851347,0.37278,     0.48361,-0.04457711,0.99199,,
213.84,27.33137,-0.06044561,0.37252,     0.58783,-0.01190962,0.99143,,
214.94,27.4365,-0.06307387,0.37181,     0.70514,-0.008788719,0.99088,,
216.04,27.54147,-0.06574105,0.37247,     0.82941,-0.0280505,0.99032,,
217.14,27.6463,-0.06904716,0.37349,     0.96753,-0.02647851,0.98977,,
218.24,27.75155,-0.07096514,0.37631,     1.11610,-0.02012578,0.98921,,
219.34,27.85691,-0.0735853,0.37555,     1.28054,-0.0227517,0.98866,,
220.44,27.96203,-0.07740947,0.37594,     1.45029,-0.0101249,0.9881,,
221.54,28.067,-0.07772944,0.37534,     1.63117,-0.02619039,0.98755,,
222.64,28.1724,-0.08152336,0.37821,     1.82710,-0.03337954,0.987,,
223.74,28.2776,-0.08451242,0.38068,     2.03497,-0.04008419,0.98644,,
224.84,28.38223,-0.08815696,0.38176,     2.25722,-0.03136595,0.98589,,
225.94,28.48715,-0.09289777,0.38253,     2.49020,-0.04483247,0.98533,,
227.04,28.5921,-0.09338574,0.38322,     2.73637,-0.01254111,0.98478,,
228.14,28.69687,-0.09742508,0.38159,     2.98960,-0.03210261,0.98422,,
229.24,28.8018,-0.10138,0.38309,     3.25136,-0.03254177,0.98367,,
230.34,28.90666,-0.10454,0.38342,     3.52247,-0.03835411,0.98311,,
231.44,29.0111,-0.1091,0.38288,     3.80540,-0.04304144,0.98255,,
232.54,29.11603,-0.11223,0.38535,     4.10123,-0.02778665,0.982,,
233.64,29.2212,-0.11479,0.38637,     4.41080,-0.03262504,0.98144,,
234.74,29.32592,-0.11972,0.38466,     4.72523,-0.04644599,0.98089,,
235.84,29.43073,-0.12296,0.38722,     5.05102,-0.04442899,0.98033,,
236.94,29.5357,-0.12846,0.38684,     5.38799,-0.06120225,0.97978,,
238.04,29.64067,-0.13145,0.38858,     5.73542,-0.03032363,0.97922,,
239.14,29.7456,-0.13511,0.38839,     6.09725,-0.04692992,0.97866,,
240.24,29.8506,-0.13931,0.38997,     6.47194,-0.04477933,0.97811,,
241.34,29.9555,-0.14432,0.39139,     6.85356,-0.04369418,0.97755,,
242.44,30.0602,-0.14811,0.39186,     7.24186,-0.0494811,0.977,,
243.54,30.165,-0.15254,0.39232,     7.64504,-0.04984018,0.97644,,
244.64,30.27,-0.15766,0.39121,     8.05748,-0.03501852,0.97588,,
245.74,30.3749,-0.16222,0.39176,     8.47795,-0.05130925,0.97533,,
246.84,30.47992,-0.16686,0.39377,     8.91000,-0.03672298,0.97477,,
247.94,30.58492,-0.17128,0.39219,     9.35098,-0.04226228,0.97421,,
249.04,30.68978,-0.17652,0.39237,     9.79859,-0.04441701,0.97365,,
250.14,30.79475,-0.18135,0.39035,    10.25509,-0.03634129,0.9731,,
251.24,30.8996,-0.18627,0.3922,    10.71902,-0.07005451,0.97254,,
252.34,31.0047,-0.19232,0.39359,    11.19729,-0.04724367,0.97198,,
253.44,31.1097,-0.1966,0.3946,    11.68501,-0.05044849,0.97142,,
254.54,31.21438,-0.20437,0.39376,    12.17686,-0.07255846,0.97087,,
255.64,31.3193,-0.21083,0.39313,    12.67780,-0.05570794,0.97031,,
256.74,31.4245,-0.21636,0.39394,    13.18733,-0.07687221,0.96975,,
257.84,31.5298,-0.22244,0.39047,    13.70189,-0.03075854,0.96919,,
258.94,31.63515,-0.22574,0.39198,    14.22703,-0.05599468,0.96863,,
260.04,31.7404,-0.23256,0.39027,    14.75351,-0.05825635,0.96807,,
261.14,31.846,-0.23925,0.38893,    15.29007,-0.05741854,0.96751,,
262.24,31.9514,-0.24506,0.39007,    15.82708,-0.06023263,0.96695,,
263.34,32.05661,-0.25319,0.39179,    16.37627,-0.08793832,0.96639,,
264.44,32.1614,-0.26052,0.39095,    16.93553,-0.07939662,0.96583,,
265.54,32.26656,-0.26724,0.39125,    17.50897,-0.07335006,0.96527,,
266.64,32.372,-0.2757,0.39268,    18.09247,-0.07937276,0.96471,,
267.74,32.47701,-0.28289,0.39122,    18.68117,-0.06976982,0.96415,,
268.84,32.5819,-0.29159,0.39256,    19.27790,-0.08473016,0.96359,,
269.94,32.6864,-0.30051,0.38999,    19.87795,-0.11687,0.96303,,
271.04,32.79121,-0.31083,0.39067,    20.48982,-0.07404422,0.96247,,
272.14,32.89651,-0.32059,0.39256,    21.11236,-0.10242,0.96191,,
273.24,33.0017,-0.32872,0.39201,    21.74538,-0.11983,0.96135,,
274.34,33.10666,-0.34,0.39347,    22.38663,-0.08813661,0.96079,,
275.44,33.21163,-0.35007,0.39459,    23.03842,-0.10294,0.96022,,
276.54,33.31673,-0.36021,0.39211,    23.69738,-0.1167,0.95966,,
277.64,33.42159,-0.37039,0.38996,    24.36043,-0.09029496,0.9591,,
278.74,33.52621,-0.3821,0.39167,    25.02660,-0.1114,0.95854,,
279.84,33.6315,-0.39415,0.38936,    25.70297,-0.11505,0.95797,,
280.94,33.73665,-0.40709,0.38969,    26.38642,-0.11627,0.95741,,
282.04,33.84154,-0.42058,0.38937,    27.07104,-0.13643,0.95684,,
283.14,33.9467,-0.43357,0.38901,    27.76274,-0.12005,0.95628,,
284.24,34.0518,-0.44714,0.38787,    28.46274,-0.13787,0.95572,,
285.34,34.15675,-0.46176,0.38648,    29.16764,-0.13409,0.95515,,
286.44,34.26206,-0.47643,0.38741,    29.88443,-0.14509,0.95459,,
287.54,34.36777,-0.49197,0.388,    30.61324,-0.13311,0.95402,,
288.64,34.4732,-0.50892,0.38813,    31.34683,-0.18497,0.95346,,
289.74,34.57861,-0.52413,0.38483,    32.08690,-0.12625,0.95289,,
290.84,34.6837,-0.53998,0.38719,    32.83227,-0.17593,0.95232,,
291.94,34.7894,-0.55626,0.38961,    33.59573,-0.15655,0.95176,,
293.04,34.89526,-0.57562,0.38862,    34.36914,-0.17375,0.95119,,
294.14,35.0008,-0.5919,0.38969,    35.15055,-0.17508,0.95062,,
295.24,35.10651,-0.60983,0.38831,    35.94310,-0.16489,0.95006,,
296.34,35.21167,-0.62874,0.39311,    36.74452,-0.17717,0.94949,,
297.44,35.31727,-0.65021,0.39324,    37.56656,-0.19509,0.94892,,
298.54,35.42302,-0.67111,0.39559,    38.40705,-0.19552,0.94835,,
299.64,35.52851,-0.69073,0.39696,    39.26345,-0.18947,0.94778,,
300.74,35.63427,-0.71007,0.4023,    40.13520,-0.18363,0.94722,,
301.84,35.73968,-0.73262,0.40458,    41.02903,-0.21292,0.94665,,
302.94,35.84485,-0.75532,0.40906,    41.94118,-0.19149,0.94608,,
304.04,35.9502,-0.77556,0.41049,    42.87301,-0.24005,0.94551,,
305.14,36.0556,-0.79988,0.41137,    43.81925,-0.2103,0.94494,,
306.24,36.16107,-0.82264,0.41528,    44.78468,-0.25335,0.94437,,
307.34,36.26654,-0.84738,0.41285,    45.75871,-0.21465,0.94379,,
308.44,36.37188,-0.87137,0.418,    46.74727,-0.2312,0.94322,,
309.54,36.4774,-0.89635,0.41937,    47.75624,-0.23526,0.94265,,
310.64,36.58274,-0.92165,0.41898,    48.77510,-0.24432,0.94208,,
311.74,36.68786,-0.94779,0.42147,    49.80443,-0.25482,0.94151,,
312.84,36.7935,-0.97414,0.42248,    50.85201,-0.25612,0.94093,,
313.94,36.89914,-1.00055,0.42396,    51.91456,-0.2438,0.94036,,
315.04,37.00486,-1.02783,0.42441,    52.99083,-0.26459,0.93979,,
316.14,37.11088,-1.05636,0.42466,    54.08100,-0.26744,0.93921,,
317.24,37.21666,-1.08461,0.42557,    55.17565,-0.25152,0.93864,,
318.34,37.3222,-1.1134,0.42515,    56.27869,-0.29075,0.93806,,
319.44,37.4282,-1.14362,0.42634,    57.39556,-0.28006,0.93749,,
320.54,37.53432,-1.17209,0.42543,    58.51937,-0.27675,0.93691,,
321.64,37.6401,-1.20337,0.42757,    59.65508,-0.28541,0.93633,,
322.74,37.74593,-1.23548,0.42675,    60.80167,-0.31035,0.93576,,
323.84,37.85159,-1.26517,0.42723,    61.95402,-0.28822,0.93518,,
324.94,37.95742,-1.29827,0.42602,    63.11502,-0.30614,0.9346,,
326.04,38.06341,-1.32996,0.42591,    64.28352,-0.28755,0.93402,,
327.14,38.16922,-1.36079,0.4251,    65.45702,-0.31722,0.93344,,
328.24,38.2753,-1.39598,0.42534,    66.63541,-0.32901,0.93287,,
329.34,38.38133,-1.43094,0.42305,    67.82231,-0.32058,0.93229,,
330.44,38.48768,-1.46286,0.4207,    69.01360,-0.34205,0.93171,,
331.54,38.5942,-1.49921,0.41809,    70.20602,-0.31352,0.93113,,
332.64,38.70035,-1.53465,0.41459,    71.39462,-0.33099,0.93054,,
333.74,38.8065,-1.56811,0.41232,    72.57785,-0.31624,0.92996,,
334.84,38.91254,-1.60414,0.40911,    73.75825,-0.34882,0.92938,,
335.94,39.01855,-1.6399,0.40755,    74.93449,-0.3346,0.9288,,
337.04,39.1247,-1.6752,0.40023,    76.10335,-0.34244,0.92822,,
338.14,39.23089,-1.71303,0.39972,    77.26349,-0.32694,0.92763,,
339.24,39.33701,-1.74712,0.39088,    78.41746,-0.34045,0.92705,,
340.34,39.44315,-1.78301,0.38578,    79.55629,-0.33298,0.92646,,
341.44,39.54933,-1.81996,0.37443,    80.67952,-0.33546,0.92588,,
342.54,39.65578,-1.85452,0.37074,    81.78537,-0.33246,0.92529,,
343.64,39.76191,-1.89015,0.36453,    82.86694,-0.34312,0.92471,,
344.74,39.86772,-1.92623,0.35773,    83.92847,-0.32822,0.92412,,
345.84,39.97371,-1.96023,0.3465,    84.96703,-0.32454,0.92353,,
346.94,40.07958,-1.9942,0.33813,    85.97656,-0.3021,0.92295,,
348.04,40.18529,-2.02855,0.32724,    86.95798,-0.32772,0.92236,,
349.14,40.2913,-2.06051,0.31925,    87.91368,-0.32153,0.92177,,
350.24,40.39707,-2.09348,0.30516,    88.83642,-0.28927,0.92118,,
351.34,40.50258,-2.12416,0.29281,    89.71842,-0.27471,0.92059,,
352.44,40.6083,-2.15324,0.28184,    90.56209,-0.28668,0.92,,
353.54,40.71366,-2.18316,0.27004,    91.36487,-0.26922,0.91941,,
354.64,40.81951,-2.21149,0.25657,    92.13696,-0.26414,0.91882,,
355.74,40.9253,-2.23879,0.24433,    92.86759,-0.27194,0.91823,,
356.84,41.03094,-2.26498,0.23123,    93.55846,-0.23477,0.91763,,
357.94,41.1372,-2.29012,0.21578,    94.20627,-0.24102,0.91704,,
359.04,41.24295,-2.31453,0.20286,    94.80937,-0.22932,0.91645,,
360.14,41.34908,-2.33465,0.18887,    95.37409,-0.16577,0.91585,,
361.24,41.45535,-2.35827,0.17557,    95.89404,-0.22281,0.91526,,
362.34,41.5617,-2.37773,0.16526,    96.37353,-0.18674,0.91466,,
363.44,41.66818,-2.39636,0.14986,    96.81470,-0.16189,0.91407,,
364.54,41.7746,-2.4131,0.14035,    97.22010,-0.15736,0.91347,,
365.64,41.88113,-2.43162,0.12836,    97.59123,-0.15773,0.91287,,
366.74,41.9878,-2.44567,0.11603,    97.92429,-0.13411,0.91228,,
367.84,42.09458,-2.45854,0.10563,    98.22337,-0.12136,0.91168,,
368.94,42.20153,-2.4727,0.09473857,    98.48865,-0.12812,0.91108,,
370.04,42.30834,-2.48465,0.08378221,    98.72054,-0.09699537,0.91048,,
371.14,42.4148,-2.49521,0.07493108,    98.92929,-0.10928,0.90988,,
372.24,42.52174,-2.50644,0.06991156,    99.11343,-0.08176685,0.90928,,
373.34,42.62888,-2.51456,0.06072405,    99.27394,-0.07079977,0.90868,,
374.44,42.7359,-2.52531,0.05153316,    99.40951,-0.08322885,0.90807,,
375.54,42.8431,-2.53217,0.04525785,    99.52747,-0.07986513,0.90747,,
376.64,42.9502,-2.54082,0.03620884,    99.62557,-0.06756945,0.90687,,
377.74,43.05696,-2.54796,0.03060609,    99.70267,-0.05004795,0.90626,,
378.84,43.16393,-2.55313,0.02711503,    99.77244,-0.0830032,0.90566,,
379.94,43.27089,-2.55981,0.02246923,    99.83089,-0.04914833,0.90505,,
381.04,43.3773,-2.5672,0.01810167,    99.88228,-0.06101772,0.90445,,
382.14,43.48404,-2.5705,0.01504775,    99.92870,-0.03438705,0.90384,,
383.24,43.59137,-2.57539,0.01089202,    99.97028,-0.04893562,0.90323,,
384.34,43.69828,-2.58114,0.008851865,   100.002,-0.05552265,0.90262,,
385.44,43.8053,-2.58581,0.0019954,   100.029,-0.04838642,0.90202,,
386.54,43.9124,-2.5913,-0.0007280998,   100.049,-0.04748298,0.90141,,
387.64,44.01918,-2.59562,-0.004986271,   100.068,-0.03465743,0.9008,,
388.74,44.126,-2.59952,-0.007878908,   100.075,-0.03875075,0.90018,,
389.84,44.2331,-2.60515,-0.01273762,   100.081,-0.05269412,0.89957,,
390.94,44.33999,-2.60958,-0.01620306,   100.083,-0.03313064,0.89896,,
392.04,44.44683,-2.61285,-0.01681183,   100.083,-0.04485262,0.89835,,
393.14,44.55365,-2.61769,-0.02017839,   100.08,-0.04632711,0.89773,,
394.24,44.66025,-2.62299,-0.02477005,   100.073,-0.03994654,0.89712,,
395.34,44.76683,-2.62746,-0.0249954,   100.066,-0.0349779,0.8965,,
396.44,44.8739,-2.6318,-0.0304696,   100.056,-0.03584542,0.89589,,
397.54,44.9807,-2.6364,-0.02921515,   100.051,-0.04378174,0.89527,,
398.64,45.08725,-2.63913,-0.03394625,   100.044,-0.03597016,0.89466,,
399.74,45.19421,-2.64486,-0.03601279,   100.036,-0.05215903,0.89404,,
400.84,45.30145,-2.64946,-0.03659449,   100.029,-0.03670891,0.89342,,
401.94,45.40854,-2.65386,-0.04170958,   100.025,-0.06167072,0.8928,,
403.04,45.5156,-2.65913,-0.04178466,   100.015,-0.03583345,0.89218,,
404.14,45.62308,-2.66278,-0.04466992,   100.006,-0.04086014,0.89156,,
405.24,45.73061,-2.66639,-0.04606511,   100.003,-0.03379819,0.89094,,
406.34,45.838,-2.67066,-0.04715538,   100,-0.04114081,0.89031,,
407.44,45.94515,-2.67391,-0.04926433,   100,-0.0389273,0.88969,,
408.54,46.05265,-2.67893,-0.05123839,            ,-0.02813166,0.88907,,
409.64,46.1603,-2.68212,-0.0535148,            ,-0.03895803,0.88844,,
410.74,46.26763,-2.68474,-0.05188049,            ,-0.04820313,0.88782,,
411.84,46.37525,-2.69228,-0.05265536,            ,-0.04172016,0.88719,,
412.94,46.4828,-2.69666,-0.05324712,            ,-0.04550653,0.88656,,
414.04,46.59021,-2.69936,-0.05167464,            ,-0.0211153,0.88593,,
415.14,46.69801,-2.70359,-0.05304284,            ,-0.04126666,0.88531,,
416.24,46.8058,-2.70795,-0.05211087,            ,-0.048505,0.88468,,
417.34,46.91365,-2.71219,-0.05354987,            ,0.000150736,0.88405,,
418.44,47.02152,-2.71365,-0.05143214,            ,-0.03902033,0.88342,,
419.54,47.12927,-2.71923,-0.05422808,            ,-0.02130715,0.88278,,
420.64,47.2372,-2.72235,-0.05053555,            ,-0.03586031,0.88215,,
421.74,47.34506,-2.72586,-0.04889226,            ,-0.01998693,0.88152,,
422.84,47.45325,-2.72923,-0.04901869,            ,-0.0338447,0.88088,,
423.94,47.56143,-2.73196,-0.04755538,            ,-0.03731209,0.88025,,
425.04,47.66945,-2.73602,-0.04353466,            ,-0.04321855,0.87961,,
426.14,47.77729,-2.74027,-0.04052225,            ,-0.03052976,0.87898,,
427.24,47.88524,-2.74433,-0.04146937,            ,-0.05089291,0.87834,,
428.34,47.9934,-2.74702,-0.03756186,            ,-0.01363671,0.8777,,
429.44,48.10154,-2.75017,-0.03312517,            ,-0.02230888,0.87706,,
430.54,48.20997,-2.75294,-0.03287577,            ,-0.03572118,0.87642,,
431.64,48.31843,-2.75678,-0.03352891,            ,-0.01423134,0.87578,,
432.74,48.42648,-2.75908,-0.02905884,            ,-0.03232291,0.87514,,
433.84,48.53458,-2.76311,-0.02723294,            ,-0.02527662,0.87449,,
434.94,48.64287,-2.76631,-0.02347583,            ,-0.02076135,0.87385,,
436.04,48.75108,-2.7703,-0.0206208,            ,-0.03204403,0.87321,,
437.14,48.8592,-2.77418,-0.01672775,            ,-0.01354546,0.87256,,
438.24,48.9668,-2.77477,-0.01435813,            ,-0.02509364,0.87192,,
439.34,49.07485,-2.77892,-0.01396049,            ,-0.02720921,0.87127,,
440.44,49.18338,-2.78252,-0.01168773,            ,-0.02819123,0.87062,,
441.54,49.29107,-2.78466,-0.01101081,            ,-0.02698449,0.86997,,
442.64,49.39888,-2.78779,-0.00728391,            ,-0.02302343,0.86932,,
443.74,49.5069,-2.78984,-0.005053632,            ,-0.02166496,0.86867,,
444.84,49.61463,-2.79237,-0.00169453,            ,-0.02058456,0.86802,,
445.94,49.72227,-2.79549,0.00264565,            ,-0.03121101,0.86737,,
447.04,49.83,-2.79918,0.00370302,            ,-0.02726571,0.86672,,
448.14,49.93827,-2.80316,0.00563527,            ,-0.0338467,0.86606,,
449.24,50.04627,-2.80538,0.009146414,            ,0.003316393,0.86541,,
450.34,50.15462,-2.80847,0.01084226,            ,-0.04168829,0.86475,,
451.44,50.26334,-2.81105,0.009492033,            ,-0.02860259,0.86409,,
452.54,50.37144,-2.81264,0.01147015,            ,-0.003699765,0.86344,,
453.64,50.4794,-2.815,0.01237887,            ,-0.02528606,0.86278,,
454.74,50.58789,-2.81632,0.01436431,            ,-0.01781805,0.86212,,
455.84,50.69642,-2.82017,0.01683503,            ,-0.03291982,0.86146,,
456.94,50.80494,-2.82291,0.01750126,            ,-0.01918157,0.8608,,
458.04,50.91335,-2.82553,0.01967036,            ,-0.008144947,0.86014,,
459.14,51.02192,-2.82567,0.01853647,            ,-0.01550056,0.85947,,
460.24,51.13041,-2.8286,0.02120172,            ,-0.0480295,0.85881,,
461.34,51.23875,-2.8321,0.02328548,            ,-0.01690485,0.85814,,
462.44,51.3471,-2.83477,0.02264058,            ,-0.04509844,0.85748,,
463.54,51.45551,-2.83862,0.02324803,            ,-0.02396308,0.85681,,
464.64,51.5638,-2.83872,0.02417596,            ,0.005795584,0.85614,,
465.74,51.6721,-2.84101,0.02846068,            ,-0.02877968,0.85547,,
466.84,51.78047,-2.84271,0.02419784,            ,0.00134696,0.8548,,
467.94,51.88837,-2.84366,0.0292696,            ,-0.0263438,0.85413,,
469.04,51.99625,-2.84578,0.0280992,            ,-0.04427,0.85346,,
470.14,52.10461,-2.84932,0.0289559,            ,-0.00636304,0.85279,,
471.24,52.21294,-2.85015,0.02887865,            ,-0.01935614,0.85212,,
472.34,52.3213,-2.85206,0.03124024,            ,-0.02338307,0.85144,,
473.44,52.42961,-2.85468,0.02920916,            ,-0.01757113,0.85077,,
474.54,52.53819,-2.85601,0.03140667,            ,-0.02519719,0.85009,,
475.64,52.64683,-2.85866,0.02921051,            ,-0.02308054,0.84941,,
476.74,52.75564,-2.86133,0.0291138,            ,0.009120871,0.84873,,
477.84,52.86481,-2.86131,0.03018014,            ,-0.01889863,0.84805,,
478.94,52.9734,-2.86259,0.03340124,            ,-0.01199761,0.84737,,
480.04,53.08189,-2.86566,0.03093575,            ,-0.01830579,0.84669,,
481.14,53.1907,-2.8673,0.03297124,            ,-0.01739365,0.84601,,
482.24,53.29971,-2.86864,0.03199559,            ,-0.02106048,0.84533,,
483.34,53.40866,-2.86791,0.03676988,            ,-0.03639702,0.84464,,
484.44,53.51755,-2.87287,0.03408469,            ,-0.02950729,0.84396,,
485.54,53.6266,-2.87466,0.03135077,            ,-0.00072141,0.84327,,
486.64,53.7356,-2.87588,0.03507192,            ,-0.02260874,0.84259,,
487.74,53.8446,-2.8782,0.03324197,            ,-0.02475111,0.8419,,
488.84,53.954,-2.87993,0.03181662,            ,-0.00890051,0.84121,,
489.94,54.0632,-2.8816,0.03139849,            ,-0.02468471,0.84052,,
491.04,54.17201,-2.8829,0.03187471,            ,-0.0078236,0.83983,,
492.14,54.28066,-2.88416,0.0309467,            ,-0.03101953,0.83913,,
493.24,54.3898,-2.88585,0.03343411,            ,-0.00533547,0.83844,,
494.34,54.49932,-2.88783,0.03217701,            ,-0.02481094,0.83775,,
495.44,54.60856,-2.88981,0.03206212,            ,-0.02387122,0.83705,,
496.54,54.71768,-2.88982,0.03190364,            ,0.00333614,0.83636,,
497.64,54.8268,-2.89506,0.03335535,            ,-0.0349318,0.83566,,
498.74,54.9358,-2.89637,0.03069065,            ,-0.002199667,0.83496,,
499.84,55.0444,-2.89769,0.03063108,            ,-0.0001245633,0.83426,,
500.94,55.1535,-2.899,0.03133678,            ,-0.00574517,0.83356,,
502.04,55.26259,-2.901,0.0291358,            ,-0.02256645,0.83286,,
503.14,55.37138,-2.90075,0.02944666,            ,-0.02308332,0.83216,,
504.24,55.48052,-2.90439,0.03053366,            ,-0.05148999,0.83145,,
505.34,55.5895,-2.90471,0.03075095,            ,0.017631,0.83075,,
506.44,55.6983,-2.90603,0.02899504,            ,-0.01016989,0.83004,,
507.54,55.8072,-2.90746,0.03193072,            ,-0.04806233,0.82934,,
508.64,55.9161,-2.91127,0.03218853,            ,-0.0008610977,0.82863,,
509.74,56.025,-2.90997,0.02821381,            ,-0.01728621,0.82792,,
510.84,56.1338,-2.91125,0.02817061,            ,-0.02544574,0.82721,,
511.94,56.2431,-2.91393,0.02647423,            ,-0.00826903,0.8265,,
513.04,56.35225,-2.91389,0.02734237,            ,-0.01831398,0.82579,,
514.14,56.46131,-2.91458,0.03001596,            ,-0.002531589,0.82507,,
515.24,56.57096,-2.91655,0.02713727,            ,-0.005513914,0.82436,,
516.34,56.68031,-2.91786,0.02775611,            ,-0.0255798,0.82365,,
517.44,56.7897,-2.9205,0.0268527,            ,-0.001285733,0.82293,,
518.54,56.8994,-2.9205,0.02709807,            ,-0.00126763,0.82221,,
519.64,57.0091,-2.92215,0.03027612,            ,-0.009521279,0.82149,,
520.74,57.1187,-2.92445,0.03010714,            ,-0.001889778,0.82077,,
521.84,57.22821,-2.92577,0.03237862,            ,-0.0092066,0.82005,,
522.94,57.33738,-2.92648,0.03474053,            ,0.01065154,0.81933,,
524.04,57.4466,-2.92708,0.03799861,            ,-0.00270154,0.81861,,
525.14,57.55614,-2.9284,0.04139138,            ,-0.0003047432,0.81789,,
526.24,57.6654,-2.93131,0.04259493,            ,-0.03137784,0.81716,,
527.34,57.7745,-2.93201,0.05120282,            ,-0.01815443,0.81644,,
528.44,57.88381,-2.93466,0.05553077,            ,-0.01802753,0.81571,,
529.54,57.99301,-2.93597,0.06046715,            ,-0.01161094,0.81498,,
530.64,58.1023,-2.93729,0.06526108,            ,-0.01643516,0.81425,,
531.74,58.2118,-2.93857,0.06797513,            ,-0.01629219,0.81352,,
532.84,58.3213,-2.93893,0.06599107,            ,-0.002201423,0.81279,,
533.94,58.4305,-2.94121,0.06794735,            ,-0.02003834,0.81206,,
535.04,58.5398,-2.94256,0.07215749,            ,-0.006247583,0.81133,,
536.14,58.64935,-2.94288,0.07219926,            ,-0.02120893,0.81059,,
537.24,58.75864,-2.94551,0.0769181,            ,-0.01677404,0.80986,,
538.34,58.86785,-2.94616,0.07769473,            ,-0.02179382,0.80912,,
539.44,58.97705,-2.94743,0.08097574,            ,-0.01187518,0.80838,,
540.54,59.0865,-2.94948,0.08559025,            ,-0.02714982,0.80764,,
541.64,59.1958,-2.95078,0.08801082,            ,-0.002199476,0.8069,,
542.74,59.30505,-2.95081,0.08603396,            ,-0.003185336,0.80616,,
543.84,59.4148,-2.9521,0.08970534,            ,-0.01306022,0.80542,,
544.94,59.52451,-2.95341,0.09380938,            ,-0.0009824551,0.80468,,
546.04,59.63381,-2.95506,0.09605887,            ,-0.01811095,0.80393,,
547.14,59.7432,-2.95637,0.09488173,            ,-0.00438575,0.80319,,
548.24,59.85285,-2.95864,0.09707438,            ,-0.02446867,0.80244,,
549.34,59.9624,-2.95769,0.09775859,            ,0.01195228,0.80169,,
550.44,60.07219,-2.95907,0.10147,            ,0.004114346,0.80095,,
551.54,60.18176,-2.95933,0.10004,            ,-0.00585052,0.8002,,
552.64,60.29107,-2.96116,0.10401,            ,-0.02515964,0.79944,,
553.74,60.40119,-2.96216,0.10357,            ,0.01153925,0.79869,,
554.84,60.511,-2.96326,0.10311,            ,-0.0160281,0.79794,,
555.94,60.6203,-2.96197,0.10528,            ,-0.01149069,0.79719,,
557.04,60.7303,-2.96361,0.09960549,            ,-3.24127e-06,0.79643,,
558.14,60.84027,-2.96494,0.09674064,            ,-0.0201291,0.79567,,
559.24,60.9503,-2.9662,0.09031953,            ,0.0170405,0.79492,,
560.34,61.0604,-2.96493,0.08627534,            ,0.006627619,0.79416,,
561.44,61.1705,-2.9669,0.08289881,            ,-0.02038858,0.7934,,
562.54,61.2807,-2.96822,0.08367355,            ,-0.00371527,0.79264,,
563.64,61.3911,-2.96952,0.08086579,            ,-0.01525221,0.79187,,
564.74,61.50113,-2.97151,0.0798053,            ,-0.000189804,0.79111,,
565.84,61.6112,-2.97234,0.07630569,            ,-0.02469253,0.79035,,
566.94,61.72149,-2.97379,0.0740002,            ,-0.02128078,0.78958,,
568.04,61.8317,-2.97513,0.0785354,            ,0.006928463,0.78882,,
569.14,61.9419,-2.97518,0.07767735,            ,0.0198165,0.78805,,
570.24,62.05191,-2.97514,0.07816242,            ,-0.02081096,0.78728,,
571.34,62.16197,-2.97668,0.07823854,            ,-0.01924733,0.78651,,
572.44,62.27196,-2.97682,0.07936772,            ,0.0156277,0.78574,,
573.54,62.38236,-2.97875,0.07781457,            ,-0.01206324,0.78497,,
574.64,62.4923,-2.97875,0.07624585,            ,-2.287513e-05,0.78419,,
575.74,62.60216,-2.98006,0.07600242,            ,-0.004300689,0.78342,,
576.84,62.71238,-2.98138,0.07594167,            ,-0.000915648,0.78264,,
577.94,62.82261,-2.9827,0.07587508,            ,-0.00367468,0.78187,,
579.04,62.93314,-2.9827,0.07561116,            ,-0.00459091,0.78109,,
580.14,63.0437,-2.98401,0.07399349,            ,4.422928e-06,0.78031,,
581.24,63.15427,-2.98428,0.0759961,            ,-0.02418578,0.77953,,
582.34,63.2648,-2.98665,0.07317394,            ,-0.0207183,0.77875,,
583.44,63.375,-2.98665,0.07089123,            ,0.005883224,0.77797,,
584.54,63.48523,-2.98888,0.07080262,            ,-0.0106498,0.77718,,
585.64,63.5959,-2.98764,0.07096326,            ,1.958077e-06,0.7764,,
586.74,63.70639,-2.98868,0.06825988,            ,-0.02785245,0.77561,,
587.84,63.81677,-2.98988,0.0679968,            ,-0.02044405,0.77483,,
588.94,63.92711,-2.98994,0.06670844,            ,0.00198491,0.77404,,
590.04,64.03754,-2.98858,0.06631579,            ,-0.02397056,0.77325,,
591.14,64.14814,-2.99126,0.06500138,            ,-3.926638e-05,0.77246,,
592.24,64.25845,-2.99257,0.0647839,            ,-0.01132899,0.77167,,
593.34,64.36888,-2.99257,0.06523769,            ,-0.001767613,0.77088,,
594.44,64.47905,-2.99388,0.06433203,            ,-0.01451461,0.77008,,
595.54,64.58938,-2.9952,0.06126475,            ,-0.004699521,0.76929,,
596.64,64.69951,-2.99652,0.06274629,            ,-0.002925412,0.76849,,
597.74,64.80996,-2.99652,0.06102303,            ,-0.000328541,0.7677,,
598.84,64.92075,-2.99783,0.06356403,            ,-0.001119508,0.7669,,
599.94,65.03142,-2.99864,0.0631843,            ,-0.0232126,0.7661,,
601.04,65.14195,-2.99784,0.06281111,            ,0.00341015,0.7653,,
602.14,65.25242,-2.99822,0.0641714,            ,0.00696241,0.7645,,
603.24,65.36295,-2.99915,0.06052604,            ,2.9139e-05,0.76369,,
604.34,65.47361,-2.99783,0.06376511,            ,0.00333024,0.76289,,
605.44,65.58417,-2.99908,0.06350812,            ,-0.02402319,0.76209,,
606.54,65.69456,-3.00178,0.06212941,            ,-0.0033925,0.76128,,
607.64,65.80502,-3.00277,0.06043856,            ,-0.000785504,0.76047,,
608.74,65.9154,-3.00174,0.06143679,            ,-0.002108856,0.75967,,
609.84,66.0261,-3.00344,0.06579016,            ,-0.009621905,0.75886,,
610.94,66.13724,-3.00474,0.06596037,            ,-3.49254e-05,0.75805,,
612.04,66.248,-3.00464,0.065554,            ,-0.01943773,0.75723,,
613.14,66.35865,-3.00704,0.06755746,            ,-0.00724632,0.75642,,
614.24,66.4693,-3.00573,0.06531029,            ,1.134666e-07,0.75561,,
615.34,66.57986,-3.00573,0.0650699,            ,-2.419364e-08,0.75479,,
616.44,66.69038,-3.00716,0.06711332,            ,-0.0307111,0.75398,,
617.54,66.80116,-3.00837,0.0701363,            ,-0.005569269,0.75316,,
618.64,66.91167,-3.00927,0.06976968,            ,-0.02478719,0.75234,,
619.74,67.022,-3.01024,0.07018085,            ,-0.02442418,0.75152,,
620.84,67.1327,-3.01013,0.06893488,            ,0.02401161,0.7507,,
621.94,67.24386,-3.01001,0.07077782,            ,0.002718935,0.74988,,
623.04,67.35497,-3.01057,0.07362815,            ,-0.02940579,0.74906,,
624.14,67.4657,-3.01248,0.07390549,            ,-0.02354549,0.74823,,
625.24,67.57647,-3.01254,0.07563847,            ,-0.01791601,0.74741,,
626.34,67.68764,-3.01462,0.07745202,            ,-0.004555562,0.74658,,
627.44,67.7989,-3.01624,0.07870178,            ,-0.02348635,0.74576,,
628.54,67.90978,-3.01626,0.07895834,            ,0.009653271,0.74493,,
629.64,68.02027,-3.01626,0.07611425,            ,-0.02044807,0.7441,,
630.74,68.1311,-3.01758,0.08163993,            ,-0.01341652,0.74327,,
631.84,68.2418,-3.01857,0.08068083,            ,-2.37437e-06,0.74244,,
632.94,68.35209,-3.01919,0.08188625,            ,-0.02478204,0.7416,,
634.04,68.46281,-3.01988,0.08455294,            ,0.002140327,0.74077,,
635.14,68.5736,-3.01856,0.08406328,            ,0.0001045547,0.73993,,
636.24,68.68434,-3.01989,0.08129492,            ,-0.00758832,0.7391,,
637.34,68.79526,-3.01988,0.08379778,            ,-0.000406772,0.73826,,
638.44,68.9061,-3.01989,0.08638228,            ,-0.001220375,0.73742,,
639.54,69.01705,-3.02119,0.08550151,            ,-0.02324735,0.73658,,
640.64,69.12783,-3.02251,0.08668944,            ,-0.008440489,0.73574,,
641.74,69.2388,-3.02383,0.08428339,            ,-0.02073006,0.7349,,
642.84,69.34937,-3.02448,0.08373562,            ,0.00202363,0.73406,,
643.94,69.45957,-3.02448,0.08721099,            ,0.01106557,0.73321,,
645.04,69.56995,-3.02447,0.09195381,            ,-0.02090639,0.73237,,
646.14,69.68055,-3.02515,0.08794289,            ,0.0009250939,0.73152,,
647.24,69.79126,-3.02515,0.08849356,            ,-4.170398e-09,0.73068,,
648.34,69.902,-3.02576,0.08975939,            ,-0.0246812,0.72983,,
649.44,70.01262,-3.02515,0.09014167,            ,0.001156141,0.72898,,
650.54,70.1233,-3.02637,0.09050091,            ,-0.02364016,0.72813,,
651.64,70.23392,-3.02777,0.08799495,            ,-0.01280642,0.72728,,
652.74,70.34456,-3.02779,0.09056101,            ,-0.01290856,0.72642,,
653.84,70.45525,-3.0291,0.08681123,            ,0.000118536,0.72557,,
654.94,70.56608,-3.02915,0.08842151,            ,-0.0179339,0.72472,,
656.04,70.67699,-3.02909,0.0881289,            ,-3.11282e-07,0.72386,,
657.14,70.78797,-3.03008,0.08860077,            ,-0.01312993,0.723,,
658.24,70.89891,-3.03041,0.09145071,            ,-0.000392684,0.72215,,
659.34,71.01017,-3.03172,0.08812677,            ,-0.000615942,0.72129,,
660.44,71.12156,-3.03041,0.08523352,            ,-0.004192104,0.72043,,
661.54,71.23272,-3.03238,0.08776959,            ,-0.0001325616,0.71957,,
662.64,71.34385,-3.03302,0.08756572,            ,-0.0052928,0.7187,,
663.74,71.4551,-3.03371,0.08538543,            ,-0.00164549,0.71784,,
664.84,71.56636,-3.03371,0.08483948,            ,2.80189e-09,0.71698,,
665.94,71.67743,-3.03373,0.08401692,            ,-0.01666693,0.71611,,
667.04,71.78815,-3.03502,0.08998458,            ,-1.816886e-08,0.71524,,
668.14,71.89876,-3.03502,0.08709882,            ,3.262548e-10,0.71438,,
669.24,72.00978,-3.03501,0.08612988,            ,-0.0166177,0.71351,,
670.34,72.12105,-3.03568,0.0900323,            ,0.004057604,0.71264,,
671.44,72.232,-3.037,0.08681885,            ,0.002155736,0.71177,,
672.54,72.34266,-3.03568,0.08472489,            ,1.165804e-06,0.7109,,
673.64,72.45368,-3.03672,0.0847532,            ,-0.01647439,0.71002,,
674.74,72.56529,-3.0383,0.08416535,            ,-0.0118482,0.70915,,
675.84,72.67663,-3.03699,0.08471405,            ,0.003419192,0.70827,,
676.94,72.7881,-3.03831,0.08773593,            ,-0.0005101325,0.7074,,
678.04,72.8993,-3.03962,0.08732465,            ,-0.003082322,0.70652,,
679.14,73.01023,-3.03962,0.08633303,            ,1.134174e-07,0.70564,,
680.24,73.1211,-3.04095,0.08701562,            ,-0.01994391,0.70476,,
681.34,73.23188,-3.04006,0.08757173,            ,0.01530953,0.70388,,
682.44,73.343,-3.04115,0.08506571,            ,-0.01827556,0.703,,
683.54,73.45433,-3.0422,0.08837987,            ,-0.02400815,0.70212,,
684.64,73.56543,-3.0422,0.0825251,            ,0.004098233,0.70124,,
685.74,73.6763,-3.04325,0.08207871,            ,1.554006e-07,0.70035,,
686.84,73.7872,-3.04325,0.08269446,            ,-0.00554395,0.69947,,
687.94,73.89834,-3.04391,0.08164917,            ,-0.007799464,0.69858,,
689.04,74.00913,-3.04457,0.08308752,            ,-0.02088098,0.6977,,
690.14,74.1198,-3.04489,0.08383041,            ,-0.007283089,0.69681,,
691.24,74.2312,-3.04588,0.08426723,            ,-0.0006959577,0.69592,,
692.34,74.3425,-3.04761,0.08381417,            ,-0.02192486,0.69503,,
693.44,74.45365,-3.04752,0.0848732,            ,3.893445e-08,0.69414,,
694.54,74.5647,-3.04716,0.08204129,            ,0.005638262,0.69324,,
695.64,74.67573,-3.04719,0.08189088,            ,-1.746964e-06,0.69235,,
696.74,74.78697,-3.04851,0.08290485,            ,-0.006149921,0.69146,,
697.84,74.8985,-3.04719,0.0825648,            ,0.01481299,0.69056,,
698.94,75.01014,-3.04951,0.08727959,            ,-0.01298905,0.68966,,
700.04,75.12165,-3.04851,0.08292467,            ,-0.0074421,0.68877,,
701.14,75.23294,-3.05079,0.08243608,            ,-0.02443129,0.68787,,
702.24,75.34435,-3.04982,0.0822917,            ,0.01068695,0.68697,,
703.34,75.45571,-3.04994,0.07831864,            ,-0.02402625,0.68607,,
704.44,75.56732,-3.05115,0.07768195,            ,0.009563764,0.68517,,
705.54,75.67863,-3.04983,0.07655427,            ,-0.003877348,0.68427,,
706.64,75.78996,-3.05114,0.07994836,            ,-4.645232e-05,0.68336,,
707.74,75.90162,-3.05213,0.07726857,            ,-0.00197005,0.68246,,
708.84,76.01301,-3.05244,0.07369033,            ,0.01143295,0.68155,,
709.94,76.12422,-3.05149,0.07898247,            ,-0.01254608,0.68065,,
711.04,76.2355,-3.05247,0.07829119,            ,0.00298478,0.67974,,
712.14,76.3468,-3.05378,0.07723312,            ,-0.000448502,0.67883,,
713.24,76.45759,-3.05509,0.07854692,            ,-0.001845034,0.67792,,
714.34,76.56828,-3.0541,0.07728995,            ,-1.402545e-06,0.67701,,
715.44,76.67918,-3.0541,0.07577992,            ,-0.01614811,0.6761,,
716.54,76.79038,-3.05575,0.07653655,            ,-0.0152559,0.67519,,
717.64,76.90123,-3.05674,0.07181804,            ,-0.004412507,0.67428,,
718.74,77.01215,-3.05707,0.07749968,            ,0.00022391,0.67336,,
719.84,77.12358,-3.05707,0.0771212,            ,-1.914386e-11,0.67245,,
720.94,77.23509,-3.05707,0.07279411,            ,-6.688573e-11,0.67153,,
722.04,77.3464,-3.05707,0.07210245,            ,-0.006029326,0.67062,,
723.14,77.45793,-3.05674,0.07190245,            ,0.02193394,0.6697,,
724.24,77.56963,-3.05805,0.06937514,            ,-0.007065632,0.66878,,
725.34,77.68125,-3.06036,0.07047349,            ,-0.001050044,0.66786,,
726.44,77.79271,-3.06036,0.06667254,            ,0.009831978,0.66694,,
727.54,77.90438,-3.06034,0.06854369,            ,-0.01241184,0.66602,,
728.64,78.0162,-3.06035,0.06327558,            ,1.010084e-09,0.6651,,
729.74,78.1281,-3.06035,0.06380429,            ,-0.0002289406,0.66417,,
730.84,78.23987,-3.06167,0.06010104,            ,-0.001262521,0.66325,,
731.94,78.35161,-3.06033,0.06110422,            ,-0.01065096,0.66232,,
733.04,78.4635,-3.06298,0.05853968,            ,-0.0004809706,0.6614,,
734.14,78.57491,-3.06163,0.05609718,            ,0.01896095,0.66047,,
735.24,78.6864,-3.06167,0.05300458,            ,-0.000872366,0.65955,,
736.34,78.79789,-3.063,0.05472806,            ,-0.00537212,0.65862,,
737.44,78.90942,-3.06299,0.05252971,            ,0.00185861,0.65769,,
738.54,79.02127,-3.06168,0.04865684,            ,-0.02213161,0.65676,,
739.64,79.13338,-3.06435,0.04957949,            ,-0.01991424,0.65583,,
740.74,79.24535,-3.0643,0.04788861,            ,-4.910079e-08,0.65489,,
741.84,79.35728,-3.06349,0.03947517,            ,0.02478012,0.65396,,
742.94,79.46907,-3.06299,0.03838814,            ,-1.163119e-07,0.65303,,
744.04,79.58043,-3.06495,0.03993718,            ,-0.01629794,0.65209,,
745.14,79.69166,-3.06496,0.03881893,            ,-0.01603719,0.65116,,
746.24,79.8031,-3.06496,0.03315727,            ,0.005551416,0.65022,,
747.34,79.91454,-3.06496,0.03147683,            ,2.783819e-10,0.64928,,
748.44,80.02601,-3.06496,0.03035675,            ,-0.003778535,0.64835,,
749.54,80.13719,-3.06628,0.02906736,            ,-1.597826e-05,0.64741,,
750.64,80.24914,-3.06726,0.02892741,            ,-0.006738334,0.64647,,
751.74,80.36149,-3.06595,0.02845356,            ,0.006407966,0.64553,,
752.84,80.47332,-3.06595,0.02616593,            ,-0.002023846,0.64459,,
753.94,80.58505,-3.06692,0.02397204,            ,-0.01170805,0.64364,,
755.04,80.6969,-3.06696,0.02594797,            ,-0.01631255,0.6427,,
756.14,80.8087,-3.06695,0.02105544,            ,0.02256457,0.64176,,
757.24,80.92031,-3.06693,0.01487016,            ,-0.000465131,0.64081,,
758.34,81.03251,-3.06694,0.01714726,            ,-0.003917917,0.63987,,
759.44,81.1448,-3.06956,0.01795799,            ,-0.01218349,0.63892,,
760.54,81.25662,-3.06966,0.01446093,            ,0.02312339,0.63797,,
761.64,81.36829,-3.06757,0.01476961,            ,-0.01224857,0.63703,,
762.74,81.4804,-3.06826,0.01129559,            ,-0.001603998,0.63608,,
763.84,81.59251,-3.06858,0.009202792,            ,0.004620636,0.63513,,
764.94,81.70438,-3.06858,0.01111254,            ,-0.000960806,0.63418,,
766.04,81.81577,-3.06988,0.00571368,            ,-0.008420675,0.63323,,
767.14,81.92741,-3.0699,0.006081185,            ,0.0005609527,0.63228,,
768.24,82.0389,-3.07122,0.007747067,            ,-0.02122167,0.63132,,
769.34,82.15038,-3.07151,0.00210189,            ,-0.0007548775,0.63037,,
770.44,82.26228,-3.07121,0.000340617,            ,3.893843e-08,0.62942,,
771.54,82.374,-3.07306,-0.001215998,            ,-0.04565581,0.62846,,
772.64,82.48545,-3.07254,-0.005297682,            ,-0.00353915,0.62751,,
773.74,82.59716,-3.07352,-0.00194524,            ,-0.00248013,0.62655,,
774.84,82.70948,-3.07352,-0.004883125,            ,0.0025217,0.62559,,
775.94,82.82167,-3.07316,-0.0043701,            ,-0.01791799,0.62463,,
777.04,82.93327,-3.07449,-0.01185989,            ,0.01373466,0.62368,,
778.14,83.045,-3.0745,-0.01228107,            ,-0.002260132,0.62272,,
779.24,83.1569,-3.0745,-0.01436132,            ,6.012639e-10,0.62176,,
780.34,83.2689,-3.0745,-0.01866371,            ,0.005136513,0.6208,,
781.44,83.38035,-3.07517,-0.01981496,            ,-0.0003293468,0.61983,,
782.54,83.49176,-3.07575,-0.02211329,            ,-0.0247845,0.61887,,
783.64,83.6032,-3.07648,-0.02394356,            ,3.970367e-07,0.61791,,
784.74,83.715,-3.07712,-0.02647684,            ,-0.01259509,0.61695,,
785.84,83.827,-3.0778,-0.02848195,            ,0.003971936,0.61598,,
786.94,83.9387,-3.07685,-0.02699765,            ,0.02868096,0.61502,,
788.04,84.0504,-3.0758,-0.0269977,            ,-0.01810499,0.61405,,
789.14,84.1623,-3.078,-0.03144537,            ,-0.02427339,0.61308,,
790.24,84.27404,-3.07943,-0.02978609,            ,-0.005032457,0.61212,,
791.34,84.3857,-3.07677,-0.03467671,            ,0.01784107,0.61115,,
792.44,84.4975,-3.07714,-0.03958595,            ,0.01141049,0.61018,,
793.54,84.60941,-3.0778,-0.03625862,            ,-0.001108803,0.60921,,
794.64,84.72126,-3.07714,-0.0381513,            ,3.000993e-08,0.60824,,
795.74,84.83276,-3.07714,-0.04256137,            ,-0.001547026,0.60727,,
796.84,84.94445,-3.07846,-0.04121123,            ,-0.0001292077,0.6063,,
797.34,84.99571,-3.07846,-0.04063048,            ,3.817384e-08,0.60586,,