File: 01_Data/Wood_Stud/MCC/Wood_Stud_MCC_30K_min_211004_R1.txt
Sample ID:	C:\MCC\MCC Cal\Test\Wood_Stud_MCC_30K_min_211004_R1.txt
Sample Weight (mg):	4.95
Heating Rate (C/s):	0.5
Combustor Temp (C):	900
N2 Flow Rate (cc/min):	80
O2 Flow Rate (cc/min):	20
Calibration File:	C:\MCC\MCC Cal\Coeff1 JN10440_30_210304.txt.txt
T Correction Coefficients:	0	1.024463	0
Time Shift (s):	14
*
Time (s)	Temperature (C)	N2 flow rate (cc/min)	O2 flow rate (cc/min)	Flow Rate (cc/min)	Oxygen (%)	HRR (W/g)	Heating rate (C/s)
0.000	108.476	79.997	19.995	100.649	20.040	-0.262	-0.012
2.000	108.471	79.997	19.995	100.631	20.041	-0.318	-0.040
4.000	108.472	79.997	19.997	100.628	20.037	-0.112	-0.023
6.000	108.488	79.998	19.995	100.638	20.041	-0.376	0.009
8.000	108.475	79.997	19.996	100.637	20.040	-0.302	-0.009
10.001	108.488	79.998	19.996	100.645	20.041	-0.323	0.017
12.001	108.480	79.995	19.995	100.647	20.039	-0.239	-0.019
14.000	108.471	79.997	19.998	100.658	20.040	-0.287	0.014
16.000	108.452	79.996	19.996	100.662	20.036	-0.003	-0.012
18.000	108.485	79.995	19.996	100.684	20.032	0.213	-0.004
20.000	108.497	79.996	19.995	100.726	20.027	0.538	0.029
22.000	108.581	79.997	19.996	100.769	20.022	0.832	0.010
24.000	108.628	79.994	19.995	100.797	20.021	0.955	0.053
26.000	108.816	79.996	19.996	100.819	20.017	1.185	0.092
28.000	108.986	79.995	19.996	100.826	20.014	1.365	0.072
30.000	109.161	79.997	19.995	100.835	20.010	1.619	0.099
32.000	109.351	79.996	19.995	100.852	20.009	1.690	0.123
34.000	109.642	79.997	19.995	100.852	20.006	1.858	0.162
36.000	109.907	79.996	19.995	100.856	20.004	2.037	0.171
38.000	110.201	79.996	19.995	100.854	20.006	1.883	0.153
40.001	110.595	79.995	19.995	100.853	20.005	1.948	0.174
42.000	110.896	79.995	19.995	100.856	20.000	2.281	0.176
44.001	111.289	79.994	19.994	100.861	19.999	2.324	0.177
46.000	111.681	79.995	19.995	100.867	20.004	2.016	0.209
48.000	112.102	79.995	19.994	100.866	20.000	2.262	0.195
50.000	112.578	79.996	19.995	100.866	20.000	2.260	0.218
52.001	113.091	79.995	19.995	100.875	19.998	2.418	0.254
54.000	113.552	79.996	19.995	100.882	19.998	2.376	0.251
56.000	114.049	79.998	19.994	100.874	19.999	2.349	0.241
58.000	114.621	79.997	19.996	100.880	19.995	2.584	0.272
60.000	115.179	79.999	19.995	100.895	20.009	1.707	0.287
62.000	115.746	79.997	19.995	100.893	19.993	2.707	0.319
64.000	116.353	79.998	19.995	100.894	19.998	2.380	0.301
66.000	116.983	79.998	19.995	100.891	19.997	2.461	0.320
68.000	117.596	79.997	19.995	100.895	19.995	2.577	0.278
70.001	118.249	79.997	19.995	100.896	19.995	2.593	0.347
72.001	118.907	79.997	19.996	100.894	19.997	2.465	0.315
74.000	119.635	79.996	19.997	100.899	19.997	2.435	0.377
76.000	120.367	79.997	19.997	100.896	19.997	2.461	0.362
78.000	121.104	79.998	19.995	100.896	19.994	2.659	0.335
80.000	121.865	79.998	19.996	100.897	19.994	2.628	0.387
82.001	122.639	79.998	19.995	100.905	19.993	2.676	0.409
84.001	123.419	79.999	19.998	100.905	19.991	2.809	0.371
86.000	124.238	79.999	19.995	100.902	19.990	2.877	0.407
88.000	124.975	79.997	19.997	100.897	19.992	2.773	0.360
90.000	125.815	79.996	19.996	100.902	19.990	2.917	0.401
92.001	126.690	79.994	19.995	100.901	19.990	2.886	0.422
94.001	127.511	79.996	19.995	100.902	19.991	2.854	0.408
96.000	128.358	79.996	19.997	100.905	19.992	2.763	0.454
98.000	129.228	79.996	19.995	100.901	19.990	2.929	0.443
100.000	130.116	79.995	19.995	100.902	19.993	2.681	0.458
102.000	130.997	79.994	19.996	100.915	19.990	2.866	0.437
104.001	131.863	79.996	19.996	100.904	19.994	2.643	0.470
106.001	132.753	79.993	19.996	100.907	19.991	2.839	0.472
108.000	133.676	79.995	19.996	100.913	19.993	2.721	0.470
110.001	134.664	79.995	19.996	100.912	19.993	2.681	0.492
112.000	135.552	79.995	19.995	100.908	19.990	2.896	0.463
114.000	136.470	79.997	19.995	100.901	19.992	2.799	0.450
116.000	137.430	79.996	19.996	100.899	19.991	2.814	0.469
118.000	138.415	79.996	19.995	100.904	19.992	2.763	0.515
120.000	139.322	79.995	19.996	100.901	19.990	2.887	0.451
122.000	140.353	79.995	19.995	100.898	19.989	2.951	0.524
124.000	141.318	79.996	19.995	100.908	19.990	2.897	0.472
126.000	142.287	79.995	19.995	100.906	19.989	2.937	0.492
128.000	143.273	79.996	19.995	100.900	19.990	2.929	0.488
130.000	144.297	79.996	19.996	100.899	19.987	3.079	0.510
132.000	145.267	79.995	19.995	100.897	19.990	2.915	0.484
134.000	146.255	79.996	19.995	100.896	19.992	2.778	0.511
136.000	147.201	79.997	19.995	100.893	19.994	2.620	0.485
138.000	148.193	79.998	19.995	100.896	19.993	2.690	0.472
140.000	149.201	80.000	19.995	100.894	19.996	2.535	0.495
142.000	150.219	79.998	19.995	100.893	19.996	2.499	0.490
144.000	151.181	79.998	19.995	100.894	19.997	2.454	0.496
146.000	152.188	79.997	19.995	100.894	19.993	2.693	0.499
148.000	153.230	79.997	19.996	100.891	19.997	2.475	0.518
150.000	154.174	79.997	19.994	100.889	19.994	2.639	0.480
152.000	155.178	79.998	19.996	100.888	19.996	2.515	0.495
154.000	156.190	79.998	19.995	100.894	19.996	2.499	0.494
156.000	157.200	79.997	19.996	100.895	19.995	2.556	0.524
158.000	158.154	79.998	19.996	100.889	19.999	2.338	0.505
160.000	159.179	79.998	19.994	100.882	19.999	2.312	0.488
162.000	160.167	79.999	19.996	100.893	19.996	2.541	0.500
164.000	161.149	80.000	19.996	100.885	20.000	2.270	0.497
166.000	162.147	79.998	19.995	100.876	20.000	2.232	0.502
168.000	163.151	79.998	19.995	100.874	19.998	2.371	0.496
170.000	164.171	79.997	19.994	100.869	19.997	2.452	0.512
172.000	165.159	79.997	19.995	100.880	19.999	2.343	0.497
174.000	166.206	79.995	19.996	100.877	19.996	2.516	0.528
176.000	167.139	79.996	19.995	100.875	19.996	2.511	0.454
178.000	168.152	79.996	19.995	100.871	19.997	2.431	0.481
180.000	169.122	79.997	19.995	100.867	19.997	2.469	0.495
182.000	170.118	79.997	19.995	100.864	20.001	2.223	0.508
184.000	171.092	79.996	19.995	100.858	20.001	2.183	0.489
186.000	172.095	79.996	19.996	100.867	19.999	2.313	0.483
188.000	173.086	79.998	19.996	100.862	20.000	2.237	0.472
190.000	174.050	79.996	19.996	100.861	19.999	2.331	0.517
192.000	175.033	79.996	19.996	100.862	20.001	2.218	0.506
194.000	176.027	79.996	19.996	100.857	20.003	2.100	0.484
196.000	177.031	79.997	19.996	100.857	20.001	2.194	0.508
198.000	178.013	79.996	19.995	100.855	19.999	2.344	0.485
200.000	178.981	79.997	19.995	100.857	19.998	2.362	0.482
202.000	179.955	79.998	19.995	100.860	19.999	2.322	0.476
204.000	180.941	79.997	19.995	100.857	20.003	2.074	0.485
206.000	181.950	79.996	19.996	100.860	20.000	2.237	0.484
208.000	182.993	79.996	19.996	100.858	20.001	2.171	0.514
210.000	183.929	79.997	19.994	100.859	20.000	2.244	0.497
212.000	184.920	79.997	19.996	100.856	20.003	2.080	0.496
214.000	185.932	79.998	19.995	100.857	20.004	1.976	0.532
216.000	186.910	79.997	19.995	100.858	20.004	2.012	0.501
218.000	187.905	79.998	19.995	100.859	20.004	1.993	0.497
220.000	188.868	79.999	19.995	100.858	20.002	2.163	0.441
222.000	189.848	79.997	19.995	100.857	20.003	2.055	0.510
224.000	190.908	79.996	19.994	100.859	20.003	2.054	0.494
226.000	191.816	79.996	19.994	100.858	20.003	2.081	0.497
228.000	192.846	79.997	19.994	100.857	20.007	1.843	0.500
230.000	193.805	79.997	19.994	100.859	20.006	1.903	0.475
232.000	194.795	79.997	19.995	100.858	20.007	1.810	0.474
234.000	195.767	79.997	19.995	100.855	20.002	2.109	0.484
236.000	196.742	79.997	19.994	100.858	20.006	1.898	0.475
238.000	197.707	79.998	19.995	100.860	20.004	1.995	0.457
240.000	198.702	79.998	19.994	100.857	20.000	2.280	0.513
242.000	199.661	79.999	19.994	100.856	20.002	2.112	0.448
244.001	200.647	79.999	19.995	100.854	20.004	1.998	0.521
246.000	201.597	80.000	19.995	100.855	20.003	2.081	0.487
248.000	202.605	79.999	19.994	100.853	20.001	2.223	0.495
250.000	203.602	79.998	19.994	100.856	19.998	2.362	0.531
252.000	204.573	79.997	19.995	100.854	19.998	2.413	0.502
254.000	205.534	79.996	19.996	100.856	20.001	2.182	0.474
256.000	206.501	79.996	19.995	100.856	20.000	2.265	0.483
258.000	207.550	79.996	19.995	100.855	19.998	2.403	0.508
260.000	208.529	79.996	19.996	100.854	20.001	2.178	0.521
262.000	209.497	79.997	19.995	100.855	19.997	2.460	0.482
264.000	210.431	79.996	19.995	100.854	19.999	2.334	0.470
266.000	211.452	79.995	19.996	100.856	19.998	2.391	0.480
268.000	212.439	79.997	19.996	100.856	19.995	2.600	0.517
270.000	213.382	79.997	19.994	100.855	19.994	2.649	0.480
272.000	214.419	79.995	19.996	100.854	19.991	2.844	0.494
274.000	215.403	79.996	19.996	100.857	19.996	2.543	0.492
276.000	216.418	79.999	19.995	100.853	19.995	2.576	0.490
278.000	217.414	79.995	19.995	100.847	19.992	2.799	0.504
280.000	218.355	79.996	19.996	100.850	19.994	2.664	0.471
282.000	219.365	79.995	19.996	100.857	19.992	2.794	0.511
284.000	220.345	79.995	19.998	100.857	19.991	2.824	0.492
286.000	221.315	79.996	19.996	100.857	19.992	2.775	0.476
288.000	222.366	79.995	19.996	100.855	19.990	2.924	0.496
290.000	223.349	79.995	19.997	100.856	19.990	2.889	0.480
292.000	224.339	79.995	19.995	100.859	19.987	3.092	0.492
294.000	225.348	79.996	19.995	100.857	19.986	3.180	0.524
296.000	226.365	79.998	19.995	100.857	19.984	3.251	0.513
298.000	227.345	79.998	19.995	100.860	19.984	3.259	0.476
300.000	228.369	79.998	19.996	100.859	19.982	3.410	0.513
302.000	229.353	79.997	19.995	100.857	19.980	3.538	0.457
304.000	230.439	79.998	19.994	100.849	19.983	3.325	0.510
306.000	231.400	79.998	19.994	100.860	19.980	3.521	0.507
308.000	232.389	79.998	19.996	100.855	19.978	3.682	0.482
310.000	233.366	79.998	19.995	100.854	19.977	3.737	0.484
312.000	234.383	79.998	19.994	100.847	19.975	3.848	0.493
314.000	235.414	79.998	19.995	100.852	19.976	3.796	0.504
316.000	236.441	79.998	19.995	100.857	19.972	4.059	0.522
318.000	237.407	79.998	19.995	100.857	19.968	4.308	0.492
320.000	238.451	79.997	19.994	100.855	19.963	4.640	0.514
322.000	239.441	79.998	19.995	100.856	19.964	4.561	0.508
324.000	240.453	80.000	19.995	100.858	19.962	4.696	0.492
326.000	241.425	79.999	19.995	100.854	19.958	4.953	0.499
328.000	242.435	79.998	19.995	100.854	19.955	5.109	0.537
330.000	243.468	79.997	19.995	100.854	19.953	5.275	0.519
332.000	244.435	79.998	19.995	100.854	19.951	5.362	0.479
334.000	245.403	79.995	19.994	100.854	19.946	5.682	0.495
336.000	246.471	79.996	19.996	100.857	19.944	5.824	0.528
338.000	247.465	79.997	19.994	100.856	19.941	6.018	0.494
340.000	248.458	79.996	19.994	100.860	19.934	6.441	0.521
342.000	249.500	79.996	19.996	100.860	19.931	6.627	0.536
344.000	250.527	79.995	19.995	100.862	19.931	6.622	0.513
346.000	251.530	79.995	19.995	100.860	19.927	6.907	0.503
348.000	252.497	79.996	19.995	100.859	19.927	6.886	0.500
350.000	253.497	79.995	19.997	100.859	19.924	7.065	0.477
352.000	254.483	79.996	19.996	100.859	19.921	7.312	0.478
354.000	255.477	79.996	19.996	100.860	19.916	7.596	0.498
356.000	256.508	79.996	19.996	100.869	19.915	7.667	0.496
358.000	257.487	79.996	19.995	100.860	19.911	7.918	0.488
360.000	258.534	79.995	19.996	100.862	19.904	8.346	0.520
362.000	259.550	79.995	19.995	100.863	19.903	8.425	0.482
364.000	260.517	79.996	19.996	100.862	19.899	8.674	0.486
366.000	261.576	79.995	19.995	100.863	19.895	8.964	0.515
368.000	262.566	79.996	19.995	100.865	19.894	9.012	0.504
370.000	263.548	79.996	19.996	100.864	19.885	9.548	0.488
372.000	264.592	79.996	19.996	100.880	19.881	9.845	0.514
374.000	265.563	79.996	19.996	100.873	19.876	10.148	0.470
376.000	266.587	79.996	19.996	100.873	19.872	10.392	0.513
378.000	267.559	79.998	19.996	100.871	19.869	10.582	0.480
380.000	268.570	79.997	19.996	100.873	19.865	10.853	0.496
382.000	269.588	79.997	19.996	100.869	19.862	11.006	0.495
384.000	270.583	79.997	19.995	100.881	19.854	11.537	0.517
386.000	271.609	79.998	19.995	100.882	19.851	11.743	0.479
388.000	272.637	79.998	19.995	100.886	19.846	12.034	0.508
390.000	273.621	79.997	19.995	100.881	19.845	12.103	0.477
392.000	274.627	79.997	19.995	100.890	19.835	12.746	0.501
394.000	275.630	79.999	19.996	100.893	19.834	12.839	0.516
396.000	276.646	79.996	19.997	100.895	19.826	13.313	0.514
398.000	277.616	79.998	19.997	100.893	19.823	13.528	0.518
400.000	278.631	79.998	19.995	100.893	19.815	14.044	0.512
402.000	279.629	79.999	19.994	100.893	19.810	14.367	0.487
404.000	280.646	80.001	19.994	100.894	19.807	14.547	0.524
406.000	281.627	79.999	19.995	100.893	19.799	15.040	0.503
408.000	282.621	79.998	19.994	100.891	19.793	15.456	0.465
410.000	283.582	79.998	19.994	100.897	19.787	15.792	0.470
412.000	284.627	79.997	19.995	100.900	19.783	16.066	0.523
414.000	285.581	79.995	19.995	100.901	19.777	16.439	0.504
416.000	286.549	79.997	19.996	100.907	19.771	16.824	0.490
418.000	287.596	79.996	19.995	100.913	19.765	17.228	0.520
420.000	288.589	79.997	19.996	100.910	19.757	17.748	0.494
422.000	289.555	79.995	19.994	100.916	19.747	18.387	0.503
424.000	290.612	79.996	19.995	100.923	19.740	18.794	0.520
426.000	291.653	79.995	19.995	100.914	19.734	19.157	0.541
428.000	292.600	79.995	19.995	100.927	19.724	19.813	0.484
430.000	293.646	79.995	19.995	100.928	19.719	20.163	0.515
432.000	294.647	79.995	19.995	100.932	19.712	20.589	0.524
434.000	295.611	79.997	19.996	100.938	19.705	21.005	0.477
436.000	296.572	79.995	19.996	100.937	19.694	21.726	0.489
438.000	297.564	79.995	19.996	100.935	19.687	22.151	0.477
440.000	298.584	79.998	19.996	100.933	19.677	22.824	0.506
442.000	299.533	79.995	19.995	100.937	19.671	23.181	0.457
444.000	300.551	79.996	19.996	100.949	19.665	23.609	0.505
446.000	301.543	79.995	19.996	100.943	19.651	24.490	0.495
448.000	302.556	79.996	19.997	100.944	19.642	25.023	0.520
450.000	303.556	79.995	19.995	100.950	19.635	25.500	0.517
452.000	304.503	79.996	19.996	100.963	19.624	26.205	0.466
454.000	305.507	79.997	19.996	100.965	19.615	26.760	0.480
456.000	306.509	79.997	19.995	100.964	19.606	27.340	0.512
458.000	307.508	79.997	19.994	100.962	19.593	28.171	0.517
460.000	308.444	79.998	19.995	100.970	19.583	28.787	0.452
462.000	309.432	79.998	19.995	100.969	19.574	29.364	0.496
464.000	310.414	79.997	19.996	100.971	19.561	30.197	0.499
466.000	311.377	79.997	19.997	100.970	19.549	30.953	0.486
468.000	312.394	79.997	19.998	100.973	19.539	31.577	0.500
470.000	313.373	79.997	19.997	100.973	19.527	32.379	0.510
472.000	314.338	79.997	19.995	100.976	19.516	33.046	0.494
474.000	315.263	79.997	19.995	100.979	19.504	33.857	0.447
476.000	316.254	79.997	19.996	100.981	19.493	34.530	0.476
478.000	317.177	79.998	19.995	100.985	19.485	35.061	0.474
480.000	318.105	79.999	19.995	100.983	19.472	35.878	0.469
482.000	319.060	79.998	19.995	100.993	19.463	36.469	0.446
484.000	319.963	79.998	19.994	100.990	19.449	37.361	0.436
486.000	320.909	80.000	19.994	101.001	19.440	37.893	0.440
488.000	321.801	79.998	19.994	101.011	19.428	38.655	0.457
490.000	322.756	79.998	19.994	101.006	19.419	39.237	0.466
492.000	323.693	79.996	19.995	101.017	19.407	40.021	0.459
494.000	324.626	79.997	19.996	101.022	19.394	40.843	0.481
496.000	325.596	79.995	19.995	101.022	19.384	41.461	0.461
498.000	326.539	79.995	19.995	101.021	19.377	41.957	0.496
500.000	327.494	79.996	19.996	101.023	19.367	42.594	0.477
502.000	328.458	79.997	19.995	101.021	19.357	43.216	0.465
504.000	329.433	79.996	19.997	101.032	19.351	43.615	0.503
506.000	330.423	79.996	19.995	101.030	19.343	44.127	0.491
508.000	331.346	79.996	19.996	101.036	19.335	44.607	0.463
510.000	332.305	79.997	19.996	101.054	19.324	45.325	0.460
512.000	333.367	79.998	19.995	101.053	19.317	45.775	0.494
514.000	334.378	79.996	19.994	101.051	19.309	46.256	0.492
516.000	335.348	79.996	19.995	101.048	19.300	46.831	0.497
518.000	336.369	79.996	19.995	101.050	19.292	47.363	0.493
520.000	337.387	79.997	19.995	101.042	19.286	47.736	0.504
522.000	338.374	79.997	19.997	101.049	19.279	48.202	0.498
524.000	339.362	79.997	19.996	101.052	19.268	48.879	0.481
526.000	340.375	79.995	19.996	101.049	19.263	49.234	0.519
528.000	341.351	79.996	19.996	101.046	19.253	49.867	0.470
530.000	342.351	79.995	19.996	101.054	19.246	50.280	0.502
532.000	343.348	79.997	19.996	101.053	19.236	50.943	0.493
534.000	344.336	79.996	19.996	101.059	19.227	51.483	0.521
536.000	345.377	79.996	19.996	101.060	19.216	52.217	0.495
538.000	346.398	79.997	19.995	101.062	19.209	52.647	0.504
540.000	347.401	79.997	19.997	101.059	19.200	53.215	0.537
542.000	348.403	79.998	19.996	101.069	19.192	53.758	0.503
544.000	349.427	79.998	19.995	101.072	19.181	54.478	0.509
546.000	350.440	79.997	19.996	101.078	19.167	55.331	0.526
548.000	351.439	79.999	19.997	101.088	19.153	56.235	0.504
550.000	352.456	79.997	19.996	101.095	19.146	56.732	0.506
552.000	353.518	79.997	19.996	101.099	19.131	57.656	0.538
554.000	354.508	79.997	19.997	101.108	19.121	58.280	0.510
556.000	355.575	79.996	19.996	101.115	19.106	59.232	0.511
558.000	356.554	79.996	19.997	101.128	19.090	60.252	0.533
560.000	357.641	79.999	19.997	101.134	19.074	61.318	0.525
562.000	358.676	79.998	19.998	101.131	19.059	62.293	0.513
564.000	359.706	79.999	19.999	101.133	19.042	63.371	0.518
566.000	360.768	79.999	19.997	101.143	19.025	64.415	0.533
568.000	361.842	79.997	19.997	101.149	19.011	65.307	0.561
570.000	362.853	79.997	19.996	101.136	18.996	66.255	0.540
572.001	363.914	79.998	19.996	101.147	18.978	67.438	0.522
574.000	364.953	79.996	19.995	101.153	18.964	68.289	0.492
576.000	366.045	79.997	19.996	101.145	18.951	69.135	0.538
578.000	367.040	79.996	19.995	101.148	18.932	70.322	0.525
580.000	368.107	79.996	19.996	101.144	18.927	70.677	0.527
582.000	369.169	79.997	19.995	101.150	18.916	71.377	0.499
584.000	370.199	79.996	19.995	101.139	18.913	71.533	0.510
586.000	371.311	79.996	19.995	101.149	18.910	71.738	0.533
588.000	372.289	79.996	19.996	101.140	18.905	72.035	0.526
590.001	373.377	79.997	19.996	101.138	18.905	72.045	0.561
592.000	374.319	79.996	19.995	101.131	18.908	71.782	0.468
594.000	375.653	79.997	19.995	101.122	18.918	71.155	0.514
596.000	376.539	79.996	19.995	101.099	18.930	70.369	0.584
598.000	377.555	79.996	19.996	101.095	18.946	69.342	0.492
600.000	378.690	79.996	19.994	101.074	18.967	68.028	0.580
602.000	379.565	79.995	19.995	101.057	18.988	66.621	0.508
604.000	380.585	79.996	19.995	101.030	19.020	64.593	0.475
606.000	381.622	79.996	19.997	101.018	19.057	62.206	0.522
608.000	382.611	79.996	19.995	100.997	19.091	60.093	0.484
610.000	383.650	79.997	19.997	100.978	19.132	57.441	0.514
612.000	384.601	79.996	19.995	100.953	19.183	54.185	0.516
614.000	385.592	79.996	19.996	100.940	19.231	51.133	0.482
616.000	386.573	79.997	19.997	100.914	19.276	48.268	0.488
618.000	387.585	79.996	19.995	100.901	19.325	45.139	0.509
620.000	388.585	79.997	19.995	100.893	19.381	41.625	0.490
622.000	389.531	79.996	19.996	100.873	19.428	38.632	0.492
624.001	390.511	79.996	19.996	100.866	19.474	35.700	0.496
626.000	391.579	79.997	19.996	100.841	19.521	32.684	0.511
628.000	392.534	79.997	19.996	100.826	19.569	29.636	0.527
630.001	393.565	79.996	19.996	100.820	19.611	26.953	0.512
632.000	394.551	79.996	19.994	100.819	19.652	24.371	0.497
634.000	395.582	79.997	19.995	100.818	19.688	22.068	0.506
636.000	396.578	79.996	19.996	100.809	19.723	19.843	0.473
638.001	397.600	79.998	19.996	100.813	19.754	17.900	0.522
640.000	398.592	79.997	19.997	100.791	19.781	16.161	0.518
642.000	399.623	79.998	19.995	100.788	19.806	14.598	0.531
644.000	400.579	79.999	19.996	100.793	19.825	13.379	0.502
646.000	401.588	79.998	19.997	100.799	19.845	12.089	0.476
648.000	402.589	79.999	19.996	100.789	19.857	11.329	0.515
650.000	403.554	79.998	19.997	100.779	19.867	10.695	0.494
652.000	404.562	79.995	19.996	100.792	19.877	10.096	0.513
654.000	405.571	79.996	19.996	100.794	19.888	9.390	0.481
656.000	406.583	79.995	19.996	100.785	19.894	8.967	0.492
658.000	407.603	79.995	19.996	100.796	19.900	8.591	0.510
660.000	408.588	79.995	19.995	100.794	19.903	8.423	0.500
662.000	409.565	79.995	19.995	100.807	19.902	8.457	0.475
664.000	410.574	79.996	19.996	100.803	19.905	8.267	0.493
666.000	411.637	79.997	19.995	100.797	19.913	7.813	0.538
668.000	412.598	79.996	19.996	100.799	19.916	7.615	0.508
670.000	413.646	79.996	19.996	100.800	19.916	7.581	0.522
672.000	414.616	79.995	19.996	100.802	19.917	7.502	0.494
674.000	415.617	79.997	19.995	100.801	19.918	7.476	0.499
676.000	416.601	79.996	19.995	100.800	19.922	7.221	0.493
678.000	417.669	79.995	19.997	100.804	19.922	7.235	0.530
680.000	418.685	79.997	19.995	100.801	19.925	7.042	0.508
682.000	419.693	79.996	19.996	100.808	19.924	7.117	0.520
684.000	420.762	79.995	19.996	100.809	19.925	7.015	0.526
686.000	421.777	79.995	19.997	100.799	19.926	6.943	0.511
688.000	422.790	79.995	19.995	100.804	19.926	6.958	0.511
690.000	423.840	79.995	19.995	100.797	19.931	6.620	0.514
692.000	424.832	79.998	19.995	100.798	19.931	6.669	0.506
694.000	425.903	79.997	19.995	100.797	19.933	6.489	0.538
696.000	426.946	79.998	19.995	100.801	19.933	6.499	0.525
698.001	427.955	79.998	19.995	100.809	19.936	6.339	0.505
700.000	429.029	79.999	19.995	100.807	19.937	6.292	0.541
702.001	430.054	79.999	19.996	100.807	19.936	6.334	0.508
704.000	431.121	79.998	19.996	100.805	19.939	6.138	0.536
706.000	432.142	79.998	19.997	100.785	19.943	5.905	0.499
708.000	433.204	79.997	19.997	100.787	19.942	5.930	0.540
710.000	434.271	79.997	19.997	100.791	19.944	5.812	0.536
712.000	435.309	79.996	19.996	100.799	19.945	5.760	0.536
714.000	436.367	79.997	19.996	100.795	19.947	5.647	0.519
716.000	437.387	79.998	19.996	100.796	19.948	5.559	0.531
718.000	438.451	79.998	19.996	100.792	19.949	5.493	0.551
720.000	439.495	79.998	19.996	100.791	19.952	5.293	0.532
722.000	440.576	79.998	19.996	100.806	19.951	5.353	0.535
724.000	441.562	79.998	19.995	100.788	19.954	5.190	0.515
726.000	442.615	79.998	19.996	100.792	19.954	5.152	0.513
728.000	443.650	79.998	19.995	100.785	19.962	4.680	0.502
730.000	444.703	79.998	19.995	100.782	19.959	4.862	0.498
732.000	445.729	79.995	19.996	100.797	19.962	4.689	0.476
734.000	446.778	79.996	19.996	100.783	19.959	4.867	0.514
736.000	447.787	79.995	19.996	100.788	19.964	4.552	0.499
738.000	448.836	79.997	19.996	100.788	19.965	4.476	0.525
740.000	449.859	79.995	19.997	100.786	19.967	4.336	0.530
742.000	450.924	79.995	19.996	100.787	19.968	4.286	0.551
744.000	451.904	79.995	19.997	100.787	19.968	4.300	0.487
746.000	452.967	79.995	19.995	100.783	19.972	4.053	0.524
748.000	453.933	79.995	19.995	100.783	19.976	3.786	0.492
750.000	454.978	79.995	19.995	100.788	19.979	3.570	0.494
752.000	456.029	79.996	19.996	100.790	19.979	3.567	0.515
754.000	457.091	79.998	19.995	100.796	19.982	3.404	0.526
756.000	458.107	79.996	19.995	100.787	19.981	3.485	0.488
758.000	459.194	79.996	19.995	100.786	19.983	3.349	0.537
760.000	460.243	79.995	19.995	100.791	19.984	3.254	0.521
762.000	461.323	79.995	19.996	100.785	19.987	3.102	0.550
764.000	462.392	79.996	19.995	100.788	19.984	3.249	0.522
766.000	463.470	79.996	19.995	100.785	19.992	2.778	0.538
768.000	464.517	79.995	19.996	100.785	19.989	2.970	0.529
770.000	465.567	79.996	19.995	100.783	19.993	2.734	0.518
772.000	466.627	79.996	19.996	100.784	19.995	2.588	0.547
774.000	467.707	79.998	19.996	100.783	19.994	2.649	0.531
776.000	468.786	79.998	19.996	100.781	19.994	2.611	0.531
778.000	469.805	79.998	19.995	100.783	19.998	2.415	0.506
780.000	470.907	79.998	19.996	100.791	19.999	2.353	0.519
782.000	471.920	79.998	19.995	100.797	19.999	2.296	0.537
784.000	473.039	79.997	19.995	100.782	19.999	2.325	0.566
786.000	474.067	79.996	19.994	100.780	20.001	2.211	0.546
788.000	475.158	79.999	19.995	100.781	20.004	2.021	0.567
790.000	476.214	79.997	19.996	100.782	20.004	2.018	0.531
792.000	477.235	79.997	19.996	100.782	20.006	1.897	0.521
794.000	478.289	79.998	19.995	100.783	20.006	1.857	0.517
796.000	479.366	79.998	19.996	100.784	20.006	1.903	0.525
798.000	480.370	79.997	19.995	100.781	20.009	1.677	0.500
800.000	481.450	79.998	19.995	100.782	20.006	1.859	0.530
802.000	482.471	79.997	19.996	100.781	20.005	1.917	0.509
804.000	483.508	79.998	19.996	100.782	20.007	1.805	0.546
806.000	484.516	79.999	19.996	100.779	20.009	1.663	0.483
808.000	485.568	79.999	19.995	100.786	20.011	1.540	0.547
810.000	486.570	79.998	19.996	100.785	20.006	1.848	0.493
812.001	487.607	79.997	19.995	100.782	20.010	1.613	0.524
814.000	488.634	79.996	19.995	100.787	20.015	1.302	0.497
816.000	489.666	79.995	19.996	100.788	20.014	1.381	0.498
818.000	490.705	79.998	19.997	100.787	20.014	1.393	0.518
820.000	491.715	79.996	19.997	100.779	20.014	1.352	0.503
822.000	492.801	79.996	19.996	100.783	20.011	1.537	0.574
824.001	493.823	79.997	19.996	100.782	20.016	1.215	0.502
826.000	494.866	79.996	19.996	100.778	20.015	1.279	0.540
828.000	495.908	79.995	19.997	100.778	20.014	1.338	0.493
830.000	496.952	79.995	19.997	100.779	20.013	1.430	0.500
832.001	497.951	79.996	19.997	100.777	20.012	1.521	0.489
834.000	499.020	79.996	19.997	100.779	20.015	1.305	0.525
836.000	500.044	79.998	19.996	100.779	20.016	1.214	0.511
838.000	501.066	79.995	19.995	100.778	20.016	1.252	0.524
840.000	502.057	79.996	19.996	100.779	20.015	1.319	0.481
842.000	503.067	79.996	19.996	100.780	20.015	1.323	0.484
844.000	504.069	79.995	19.995	100.779	20.016	1.245	0.518
846.000	505.041	79.994	19.997	100.780	20.016	1.227	0.483
848.000	506.088	79.995	19.995	100.780	20.019	1.079	0.506
850.000	507.100	79.994	19.997	100.782	20.016	1.234	0.508
852.000	508.109	79.996	19.995	100.782	20.015	1.283	0.476
854.000	509.140	79.998	19.995	100.781	20.016	1.245	0.524
856.000	510.100	79.996	19.994	100.781	20.016	1.214	0.467
858.000	511.103	79.997	19.996	100.780	20.021	0.940	0.492
860.000	512.116	79.996	19.995	100.781	20.017	1.176	0.481
862.000	513.123	79.996	19.995	100.781	20.015	1.302	0.530
864.000	514.154	79.997	19.996	100.783	20.015	1.310	0.492
866.000	515.169	79.997	19.995	100.781	20.014	1.371	0.507
868.000	516.233	79.997	19.994	100.781	20.016	1.250	0.527
870.000	517.222	79.996	19.994	100.781	20.020	1.004	0.501
872.000	518.245	79.997	19.995	100.780	20.016	1.274	0.468
874.000	519.252	79.998	19.994	100.781	20.018	1.131	0.456
876.000	520.272	79.998	19.994	100.781	20.023	0.818	0.511
878.000	521.284	79.997	19.996	100.782	20.022	0.892	0.487
880.000	522.325	79.999	19.994	100.780	20.024	0.745	0.518
882.000	523.352	79.999	19.994	100.777	20.022	0.878	0.523
884.000	524.364	79.999	19.995	100.775	20.022	0.871	0.492
886.000	525.367	80.000	19.995	100.776	20.023	0.809	0.492
888.000	526.385	79.998	19.995	100.776	20.022	0.889	0.496
890.000	527.445	79.996	19.996	100.776	20.024	0.738	0.525
892.000	528.452	79.995	19.995	100.777	20.025	0.671	0.510
894.000	529.452	79.996	19.996	100.777	20.020	1.011	0.492
896.000	530.423	79.996	19.995	100.770	20.019	1.077	0.459
898.000	531.417	79.995	19.995	100.771	20.020	0.980	0.467
900.000	532.411	79.996	19.996	100.772	20.021	0.945	0.514
902.000	533.342	79.996	19.995	100.767	20.021	0.902	0.452
904.000	534.291	79.995	19.996	100.769	20.023	0.819	0.490
906.000	535.241	79.995	19.996	100.774	20.020	0.970	0.464
908.000	536.169	79.996	19.997	100.769	20.023	0.828	0.466
910.000	537.034	79.993	19.995	100.754	20.024	0.761	0.435
912.000	537.927	79.995	19.997	100.765	20.022	0.866	0.458
914.000	538.863	79.994	19.997	100.760	20.023	0.781	0.458
916.000	539.761	79.994	19.997	100.769	20.024	0.724	0.455
918.000	540.608	79.995	19.997	100.770	20.025	0.657	0.430
920.000	541.511	79.995	19.997	100.764	20.022	0.882	0.437
922.000	542.426	79.994	19.997	100.769	20.026	0.615	0.472
924.001	543.263	79.995	19.997	100.775	20.024	0.716	0.453
926.000	544.142	79.995	19.995	100.776	20.026	0.612	0.424
928.000	545.016	79.996	19.996	100.774	20.025	0.643	0.451
930.000	545.876	79.995	19.996	100.778	20.028	0.496	0.419
932.000	546.768	79.996	19.995	100.781	20.025	0.662	0.456
934.000	547.660	79.997	19.996	100.782	20.024	0.742	0.454
936.000	548.578	79.998	19.995	100.773	20.026	0.602	0.426
938.000	549.484	79.997	19.996	100.782	20.029	0.405	0.466
940.000	550.390	79.997	19.995	100.776	20.026	0.591	0.451
942.000	551.319	79.996	19.995	100.782	20.026	0.614	0.495
944.000	552.258	79.997	19.997	100.780	20.030	0.356	0.473
946.000	553.182	79.996	19.996	100.778	20.026	0.591	0.464
948.000	554.220	79.996	19.996	100.777	20.024	0.737	0.503
950.000	555.214	79.998	19.995	100.780	20.023	0.768	0.493
952.000	556.262	79.998	19.995	100.779	20.025	0.645	0.533
954.000	557.190	79.998	19.995	100.779	20.027	0.515	0.491
956.000	558.193	79.996	19.994	100.778	20.029	0.430	0.503
958.001	559.252	79.998	19.999	100.781	20.026	0.615	0.521
960.000	560.212	79.998	19.996	100.782	20.023	0.792	0.506
962.000	561.214	79.999	19.996	100.779	20.022	0.861	0.479
964.000	562.243	79.998	19.995	100.779	20.023	0.769	0.506
966.000	563.307	79.999	19.995	100.777	20.025	0.700	0.511
968.000	564.279	79.998	19.995	100.777	20.025	0.648	0.528
970.000	565.279	79.998	19.995	100.776	20.023	0.816	0.512
972.000	566.283	79.996	19.996	100.778	20.026	0.576	0.486
974.000	567.312	79.995	19.996	100.782	20.024	0.724	0.503
976.000	568.337	79.997	19.996	100.779	20.023	0.785	0.534
978.000	569.347	79.994	19.995	100.779	20.027	0.555	0.506
980.000	570.383	79.996	19.996	100.780	20.023	0.813	0.521
982.000	571.408	79.996	19.997	100.780	20.026	0.588	0.493
984.000	572.395	79.996	19.996	100.780	20.025	0.690	0.484
986.000	573.454	79.995	19.995	100.780	20.023	0.804	0.529
988.000	574.502	79.997	19.996	100.779	20.026	0.583	0.504
990.000	575.561	79.997	19.995	100.780	20.027	0.558	0.538
992.000	576.636	79.996	19.995	100.782	20.029	0.427	0.528
994.000	577.618	79.997	19.995	100.782	20.026	0.579	0.486
996.000	578.682	79.996	19.996	100.789	20.024	0.756	0.517
998.000	579.768	79.995	19.995	100.801	20.025	0.652	0.536
1000.000	580.846	79.995	19.996	100.793	20.026	0.583	0.535
1002.000	581.931	79.995	19.996	100.786	20.028	0.474	0.518
1004.000	582.956	79.995	19.995	100.784	20.026	0.581	0.508
1006.000	584.067	79.994	19.996	100.782	20.026	0.590	0.556
1008.000	585.112	79.996	19.996	100.780	20.027	0.562	0.539
1010.000	586.164	79.996	19.996	100.778	20.029	0.420	0.537
1012.000	587.171	79.996	19.997	100.777	20.026	0.586	0.497
1014.000	588.236	79.996	19.996	100.776	20.027	0.531	0.502
1016.000	589.213	79.998	19.996	100.775	20.027	0.567	0.501
1018.000	590.252	79.997	19.995	100.777	20.027	0.555	0.537
1020.000	591.248	79.998	19.994	100.777	20.024	0.752	0.495
1022.000	592.197	79.998	19.996	100.778	20.027	0.553	0.453
1024.000	593.224	79.998	19.994	100.775	20.027	0.572	0.489
1026.001	594.158	79.997	19.994	100.775	20.028	0.470	0.465
1028.000	595.165	79.998	19.995	100.779	20.029	0.429	0.482
1030.000	596.162	79.997	19.995	100.776	20.029	0.427	0.481
1032.000	597.067	79.998	19.996	100.777	20.031	0.271	0.455
1034.000	598.035	79.997	19.994	100.778	20.027	0.522	0.486
1036.000	599.030	79.998	19.995	100.776	20.027	0.520	0.497
1038.000	599.995	79.999	19.995	100.772	20.027	0.536	0.476
1040.001	600.960	79.999	19.995	100.777	20.027	0.558	0.484
1042.000	601.913	80.000	19.995	100.777	20.026	0.578	0.477
1044.000	602.830	80.000	19.996	100.781	20.029	0.386	0.465
1046.001	603.828	79.999	19.994	100.782	20.025	0.655	0.487
1048.001	604.786	79.998	19.996	100.789	20.026	0.605	0.501
1050.000	605.799	79.997	19.996	100.789	20.029	0.411	0.514
1052.000	606.789	79.996	19.996	100.790	20.027	0.552	0.489
1054.000	607.803	79.995	19.995	100.793	20.026	0.609	0.526
1056.000	608.843	79.997	19.995	100.787	20.027	0.517	0.531
1058.001	609.867	79.995	19.995	100.784	20.030	0.360	0.521
1060.001	610.940	79.996	19.995	100.781	20.026	0.612	0.517
1062.000	611.951	79.995	19.996	100.781	20.025	0.702	0.521
1064.000	612.953	79.997	19.995	100.782	20.024	0.754	0.496
1066.000	613.964	79.996	19.996	100.781	20.026	0.631	0.509
1068.000	615.005	79.997	19.996	100.780	20.022	0.847	0.534
1070.001	615.986	79.996	19.996	100.778	20.021	0.909	0.494
1072.000	616.995	79.996	19.996	100.776	20.038	-0.126	0.509
1074.001	617.975	79.996	19.996	100.778	20.018	1.124	0.500
1076.000	618.963	79.997	19.996	100.777	20.023	0.795	0.518
1078.000	619.976	79.997	19.997	100.777	20.023	0.783	0.497
1080.000	620.974	79.997	19.995	100.783	20.018	1.124	0.506
1082.000	622.001	79.995	19.996	100.785	20.022	0.856	0.491
1084.000	623.054	79.994	19.997	100.792	20.021	0.944	0.496
1086.000	624.135	79.997	19.996	100.799	20.021	0.894	0.539
1088.000	625.167	79.995	19.996	100.789	20.021	0.932	0.519
1090.000	626.306	79.995	19.996	100.779	20.023	0.813	0.521
1092.000	627.394	79.996	19.996	100.780	20.019	1.022	0.573
1094.000	628.414	79.997	19.997	100.776	20.023	0.811	0.491
1096.001	629.403	79.998	19.996	100.776	20.025	0.693	0.525
1098.000	630.518	79.997	19.996	100.776	20.028	0.503	0.556
1100.000	631.515	79.997	19.996	100.775	20.025	0.669	0.534
1102.001	632.609	79.997	19.997	100.776	20.026	0.631	0.534
1104.000	633.633	79.996	19.996	100.785	20.022	0.880	0.550
1106.000	634.724	79.998	19.995	100.785	20.021	0.927	0.578
1108.000	635.827	79.996	19.996	100.780	20.025	0.645	0.546
1110.000	636.889	79.996	19.996	100.781	20.027	0.548	0.498
1112.000	637.964	79.998	19.995	100.782	20.025	0.641	0.540
1114.000	639.024	79.998	19.995	100.784	20.026	0.586	0.553
1116.000	640.116	79.998	19.995	100.781	20.029	0.391	0.527
1118.001	641.132	79.999	19.995	100.780	20.027	0.515	0.525
1120.001	642.189	79.999	19.997	100.779	20.025	0.681	0.513
1122.000	643.248	79.998	19.995	100.776	20.025	0.690	0.533
1124.000	644.255	79.999	19.995	100.780	20.029	0.398	0.532
1126.000	645.309	79.997	19.995	100.780	20.028	0.498	0.501
1128.001	646.306	79.997	19.996	100.782	20.029	0.443	0.492
1130.001	647.311	79.996	19.996	100.781	20.029	0.401	0.529
1132.000	648.318	79.997	19.995	100.782	20.028	0.470	0.500
1134.000	649.295	79.996	19.996	100.777	20.030	0.363	0.482
1136.000	650.308	79.997	19.995	100.783	20.024	0.730	0.541
1138.000	651.314	79.996	19.997	100.784	20.029	0.434	0.497
1140.000	652.356	79.997	19.996	100.785	20.028	0.475	0.514
1142.000	653.344	79.996	19.997	100.782	20.027	0.574	0.509
1144.000	654.361	79.997	19.997	100.784	20.025	0.683	0.495
1146.000	655.412	79.996	19.995	100.779	20.025	0.692	0.523
1148.000	656.370	79.998	19.995	100.778	20.025	0.673	0.492
1150.000	657.397	79.998	19.994	100.778	20.024	0.733	0.511
1152.001	658.433	79.997	19.995	100.780	20.026	0.619	0.521
1154.000	659.550	79.997	19.996	100.785	20.026	0.626	0.554
1156.000	660.624	79.997	19.997	100.796	20.020	0.991	0.538
1158.001	661.741	79.996	19.995	100.782	20.023	0.781	0.606
1160.000	662.804	79.994	19.997	100.779	20.022	0.852	0.534
1162.000	663.931	79.996	19.997	100.781	20.024	0.763	0.582
1164.000	665.037	79.996	19.996	100.788	20.021	0.899	0.583
1166.001	666.199	79.995	19.997	100.791	20.023	0.828	0.574
1168.001	667.376	79.996	19.996	100.786	20.025	0.666	0.578
1170.000	668.500	79.997	19.995	100.781	20.022	0.832	0.568
1172.001	669.699	79.998	19.996	100.796	20.027	0.538	0.601
1174.001	670.859	79.998	19.997	100.791	20.022	0.859	0.572
1176.000	671.990	79.999	19.996	100.781	20.024	0.766	0.580
1178.000	673.173	79.997	19.995	100.785	20.025	0.664	0.581
1180.000	674.306	79.998	19.996	100.785	20.029	0.415	0.590
1182.001	675.507	79.997	19.996	100.783	20.024	0.707	0.615
1184.000	676.634	79.997	19.996	100.780	20.027	0.524	0.558
1186.000	677.786	79.997	19.996	100.781	20.022	0.832	0.577
1188.000	678.932	79.997	19.996	100.781	20.023	0.780	0.578
1190.001	680.074	79.997	19.996	100.783	20.026	0.622	0.552
1192.000	681.228	79.997	19.995	100.783	20.024	0.704	0.563
1194.000	682.359	79.996	19.996	100.780	20.023	0.816	0.565
1196.000	683.499	79.998	19.995	100.781	20.027	0.565	0.564
1198.000	684.620	80.000	19.995	100.777	20.026	0.628	0.579
1200.000	685.713	79.999	19.995	100.777	20.024	0.730	0.551
1202.000	686.816	79.999	19.995	100.776	20.026	0.628	0.526
1204.000	687.957	79.998	19.994	100.774	20.023	0.800	0.571
1206.000	689.072	79.999	19.995	100.780	20.026	0.636	0.576
1208.000	690.125	79.997	19.995	100.780	20.024	0.726	0.550
1210.001	691.223	79.997	19.996	100.778	20.022	0.844	0.523
1212.000	692.311	79.996	19.996	100.779	20.021	0.937	0.539
1214.000	693.404	79.997	19.996	100.778	20.023	0.783	0.537
1216.000	694.526	79.996	19.996	100.777	20.028	0.474	0.581
1218.000	695.605	79.997	19.994	100.777	20.024	0.705	0.515
1220.000	696.665	79.997	19.997	100.777	20.022	0.859	0.538
1222.000	697.778	79.997	19.996	100.778	20.025	0.643	0.543
1224.000	698.868	79.996	19.996	100.778	20.022	0.877	0.560
1226.000	699.901	79.996	19.995	100.779	20.028	0.508	0.560
1228.001	701.010	79.998	19.996	100.780	20.025	0.660	0.527
1230.000	702.089	79.997	19.995	100.786	20.022	0.833	0.561
1232.000	703.130	79.996	19.995	100.784	20.025	0.650	0.507
1234.000	704.227	79.996	19.994	100.786	20.023	0.769	0.557
1236.000	705.292	79.996	19.995	100.786	20.025	0.643	0.509
1238.000	706.343	79.996	19.995	100.781	20.025	0.660	0.539
1240.000	707.364	79.996	19.995	100.782	20.021	0.927	0.534
1242.001	708.435	79.996	19.995	100.781	20.026	0.629	0.524
1244.000	709.426	79.995	19.995	100.784	20.025	0.669	0.506
1246.000	710.489	79.995	19.997	100.781	20.023	0.799	0.494
1248.000	711.541	79.997	19.997	100.782	20.025	0.700	0.478
1250.000	712.587	79.996	19.997	100.782	20.027	0.543	0.528
1252.001	713.631	79.997	19.995	100.782	20.026	0.621	0.494
1254.000	714.678	79.996	19.995	100.782	20.027	0.524	0.549
1256.000	715.741	79.999	19.996	100.781	20.029	0.422	0.520
1258.000	716.762	79.998	19.995	100.778	20.026	0.628	0.525
1260.001	717.831	79.997	19.995	100.779	20.025	0.686	0.532
1262.000	718.889	79.998	19.995	100.781	20.025	0.643	0.547
1264.000	719.892	79.999	19.995	100.779	20.029	0.415	0.523
1266.000	720.919	79.996	19.996	100.776	20.022	0.833	0.531
1268.000	721.910	79.997	19.996	100.775	20.024	0.761	0.504
1270.000	722.967	79.999	19.995	100.777	20.024	0.764	0.508
1272.001	723.986	80.000	19.996	100.777	20.024	0.743	0.514
1274.000	724.989	79.998	19.997	100.781	20.024	0.726	0.519
1276.000	725.990	79.997	19.996	100.779	20.026	0.607	0.519
1278.001	727.010	79.999	19.996	100.779	20.026	0.610	0.510
1280.001	727.988	79.999	19.995	100.777	20.027	0.546	0.508
1282.001	728.974	79.998	19.996	100.775	20.024	0.714	0.502
1284.000	729.940	79.998	19.996	100.772	20.023	0.773	0.496
1286.000	730.991	79.998	19.995	100.777	20.027	0.574	0.531
1288.000	732.009	79.997	19.995	100.779	20.026	0.586	0.501
1290.000	733.037	79.996	19.995	100.777	20.026	0.584	0.541
1292.000	734.019	79.996	19.996	100.778	20.022	0.878	0.531
1294.000	735.013	79.997	19.997	100.779	20.024	0.718	0.506
1296.000	736.038	79.995	19.996	100.780	20.020	1.011	0.511
1298.001	737.051	79.995	19.995	100.782	20.021	0.954	0.535
1300.000	738.065	79.995	19.997	100.783	20.021	0.953	0.531
1302.000	739.048	79.997	19.995	100.783	20.020	1.008	0.489
1304.000	740.039	79.996	19.995	100.786	20.023	0.790	0.496
1306.000	741.086	79.997	19.995	100.783	20.022	0.887	0.492
1308.001	742.101	79.997	19.994	100.789	20.022	0.838	0.548
1310.000	743.084	79.996	19.996	100.781	20.018	1.108	0.506
1311.000	743.599	79.997	19.996	100.783	20.019	1.036	0.496