File: 01_Data/Wood_Stud/MCC/Wood_Stud_MCC_30K_min_211004_R3.txt
Sample ID:	C:\MCC\MCC Cal\Test\Wood_Stud_MCC_30K_min_211004_R3.txt
Sample Weight (mg):	4.67
Heating Rate (C/s):	0.5
Combustor Temp (C):	900
N2 Flow Rate (cc/min):	80
O2 Flow Rate (cc/min):	20
Calibration File:	C:\MCC\MCC Cal\Coeff1 JN10440_30_210304.txt.txt
T Correction Coefficients:	0	1.024463	0
Time Shift (s):	14
*
Time (s)	Temperature (C)	N2 flow rate (cc/min)	O2 flow rate (cc/min)	Flow Rate (cc/min)	Oxygen (%)	HRR (W/g)	Heating rate (C/s)
0.000	106.432	80.003	19.997	100.848	19.903	-0.068	0.002
2.000	106.444	80.002	19.995	100.847	19.905	-0.167	0.012
4.000	106.422	80.004	19.996	100.846	19.901	0.068	-0.023
6.000	106.421	80.004	19.995	100.850	19.900	0.136	-0.008
8.000	106.450	80.003	19.996	100.850	19.901	0.064	-0.022
10.000	106.419	80.002	19.995	100.847	19.903	-0.040	-0.025
12.000	106.440	80.001	19.995	100.852	19.900	0.156	-0.001
14.000	106.389	80.000	19.994	100.857	19.897	0.358	0.016
16.000	106.424	80.002	19.995	100.885	19.894	0.567	-0.010
18.000	106.441	80.003	19.995	100.896	19.893	0.655	-0.013
20.000	106.492	80.002	19.996	100.894	19.891	0.782	0.012
22.000	106.550	80.002	19.995	100.903	19.891	0.752	0.046
24.000	106.611	80.002	19.995	100.923	19.886	1.103	0.017
26.000	106.693	80.004	19.994	100.926	19.889	0.914	0.029
28.000	106.779	80.004	19.995	100.924	19.887	1.059	0.045
30.000	106.867	80.004	19.994	100.925	19.888	0.962	0.004
32.000	107.054	80.006	19.995	100.926	19.885	1.162	0.119
34.000	107.188	80.004	19.995	100.925	19.887	1.057	0.047
36.000	107.335	80.004	19.995	100.909	19.886	1.102	0.065
38.000	107.495	80.004	19.996	100.926	19.884	1.230	0.074
40.000	107.660	80.004	19.994	100.951	19.884	1.249	0.101
42.000	107.856	80.003	19.995	100.965	19.882	1.407	0.119
44.001	108.076	80.002	19.995	100.961	19.885	1.203	0.105
46.000	108.297	80.002	19.996	100.969	19.879	1.585	0.120
48.000	108.498	80.003	19.996	100.984	19.877	1.708	0.124
50.000	108.782	80.001	19.995	101.001	19.873	1.962	0.136
52.000	109.031	80.003	19.997	101.004	19.871	2.113	0.133
54.000	109.332	80.002	19.997	101.006	19.873	2.010	0.144
56.001	109.673	80.002	19.996	101.012	19.871	2.137	0.150
58.000	110.032	80.002	19.996	101.023	19.871	2.119	0.196
60.000	110.369	80.002	19.995	101.036	19.870	2.187	0.178
62.001	110.759	80.003	19.995	101.035	19.868	2.330	0.200
64.000	111.131	80.002	19.996	101.045	19.865	2.534	0.182
66.000	111.570	80.001	19.995	101.049	19.864	2.603	0.200
68.000	112.052	80.001	19.995	101.053	19.861	2.785	0.224
70.000	112.508	80.000	19.995	101.053	19.861	2.805	0.247
72.000	112.947	80.002	19.996	101.059	19.863	2.680	0.234
74.000	113.473	80.000	19.994	101.065	19.862	2.724	0.248
76.000	114.019	80.000	19.996	101.076	19.861	2.805	0.262
78.000	114.569	80.000	19.995	101.085	19.861	2.807	0.258
80.000	115.167	80.000	19.996	101.086	19.860	2.864	0.301
82.000	115.718	79.999	19.996	101.087	19.858	2.978	0.298
84.000	116.308	80.002	19.997	101.083	19.858	3.034	0.279
86.000	116.979	80.002	19.996	101.083	19.857	3.095	0.318
88.000	117.599	80.003	19.995	101.081	19.857	3.038	0.305
90.000	118.266	80.001	19.995	101.082	19.856	3.156	0.320
92.001	118.955	80.002	19.995	101.082	19.859	2.961	0.352
94.000	119.659	80.004	19.996	101.082	19.858	2.970	0.345
96.001	120.375	80.001	19.995	101.082	19.854	3.239	0.331
98.000	121.061	80.003	19.995	101.083	19.854	3.251	0.348
100.001	121.830	80.002	19.995	101.083	19.855	3.191	0.410
102.000	122.548	80.003	19.995	101.081	19.858	3.035	0.423
104.000	123.310	80.002	19.995	101.083	19.856	3.143	0.377
106.000	124.069	80.003	19.994	101.083	19.857	3.040	0.367
108.000	124.875	80.002	19.994	101.084	19.858	3.035	0.413
110.000	125.631	80.005	19.995	101.082	19.857	3.051	0.414
112.001	126.438	80.004	19.995	101.085	19.860	2.862	0.393
114.001	127.236	80.004	19.994	101.084	19.859	2.917	0.398
116.000	128.100	80.005	19.995	101.085	19.857	3.068	0.443
118.000	128.960	80.004	19.994	101.084	19.856	3.143	0.435
120.000	129.784	80.004	19.995	101.085	19.853	3.323	0.429
122.000	130.621	80.002	19.995	101.087	19.855	3.207	0.430
124.000	131.478	80.002	19.994	101.086	19.855	3.208	0.418
126.000	132.389	80.002	19.995	101.088	19.856	3.165	0.449
128.000	133.227	80.003	19.996	101.088	19.859	2.952	0.458
130.000	134.096	80.002	19.995	101.089	19.857	3.049	0.412
132.000	135.035	80.003	19.995	101.087	19.857	3.071	0.490
134.000	135.850	80.001	19.994	101.089	19.860	2.845	0.431
136.000	136.775	80.002	19.996	101.090	19.858	3.004	0.471
138.000	137.715	80.002	19.995	101.087	19.856	3.165	0.455
140.000	138.590	80.002	19.994	101.087	19.858	2.979	0.441
142.000	139.555	80.002	19.995	101.089	19.854	3.261	0.470
144.000	140.478	80.001	19.995	101.087	19.854	3.268	0.468
146.000	141.388	80.002	19.995	101.092	19.854	3.266	0.479
148.000	142.314	80.001	19.997	101.091	19.858	3.001	0.463
150.000	143.270	80.000	19.995	101.086	19.858	2.970	0.460
152.000	144.233	80.000	19.995	101.085	19.857	3.036	0.460
154.000	145.194	80.002	19.995	101.084	19.859	2.917	0.484
156.000	146.144	80.000	19.996	101.084	19.861	2.814	0.474
158.000	147.063	80.001	19.995	101.083	19.860	2.882	0.443
160.000	148.037	80.002	19.995	101.085	19.860	2.875	0.479
162.000	149.005	80.002	19.995	101.086	19.860	2.886	0.481
164.000	149.989	80.002	19.996	101.085	19.863	2.685	0.461
166.000	151.006	80.002	19.996	101.083	19.860	2.887	0.488
168.000	151.958	80.003	19.996	101.083	19.860	2.875	0.474
170.000	152.939	80.003	19.997	101.084	19.860	2.856	0.547
172.000	153.891	80.004	19.997	101.082	19.856	3.114	0.448
174.000	154.859	80.003	19.996	101.082	19.858	3.020	0.487
176.000	155.869	80.003	19.998	101.082	19.859	2.955	0.496
178.000	156.824	80.002	19.997	101.081	19.859	2.913	0.495
180.000	157.758	80.001	19.996	101.081	19.861	2.827	0.485
182.000	158.803	80.002	19.997	101.082	19.858	3.020	0.493
184.000	159.816	80.002	19.996	101.083	19.859	2.909	0.511
186.000	160.578	80.003	19.996	101.083	19.861	2.797	0.457
188.000	161.763	80.004	19.995	101.084	19.860	2.847	0.716
190.000	162.644	80.004	19.995	101.085	19.860	2.862	0.426
192.000	163.743	80.003	19.995	101.083	19.860	2.834	0.509
194.000	164.710	80.003	19.994	101.081	19.859	2.955	0.543
196.000	165.720	80.004	19.994	101.079	19.864	2.615	0.481
198.000	166.721	80.004	19.995	101.080	19.863	2.644	0.503
200.000	167.698	80.002	19.996	101.075	19.864	2.606	0.508
202.001	168.736	80.002	19.995	101.082	19.866	2.494	0.503
204.000	169.755	80.002	19.995	101.079	19.864	2.591	0.501
206.000	170.731	80.001	19.995	101.065	19.864	2.620	0.491
208.000	171.708	80.001	19.995	101.068	19.865	2.541	0.485
210.000	172.695	80.000	19.995	101.066	19.866	2.446	0.479
212.000	173.690	80.001	19.995	101.063	19.867	2.425	0.486
214.000	174.711	80.001	19.996	101.061	19.865	2.510	0.503
216.000	175.693	80.002	19.995	101.057	19.864	2.616	0.472
218.000	176.725	80.001	19.995	101.053	19.862	2.762	0.502
220.000	177.675	80.003	19.995	101.051	19.865	2.521	0.499
222.000	178.732	80.002	19.995	101.052	19.864	2.598	0.535
224.000	179.711	80.003	19.994	101.057	19.862	2.721	0.570
226.000	180.691	80.002	19.995	101.048	19.866	2.462	0.491
228.000	181.649	80.002	19.996	101.048	19.868	2.333	0.470
230.000	182.642	80.002	19.995	101.048	19.862	2.730	0.472
232.000	183.623	80.001	19.996	101.053	19.865	2.541	0.487
234.000	184.616	80.002	19.996	101.045	19.863	2.693	0.496
236.002	185.665	80.000	19.996	101.046	19.868	2.304	0.500
238.000	186.664	80.001	19.996	101.047	19.865	2.523	0.543
240.001	187.698	80.000	19.998	101.046	19.868	2.319	0.522
242.000	188.692	80.001	19.996	101.046	19.863	2.675	0.498
244.000	189.646	80.001	19.996	101.045	19.863	2.690	0.484
246.000	190.644	80.001	19.996	101.045	19.867	2.420	0.501
248.000	191.654	80.002	19.996	101.045	19.864	2.565	0.480
250.000	192.660	80.004	19.996	101.044	19.868	2.321	0.535
252.000	193.762	80.003	19.995	101.044	19.864	2.626	0.603
254.000	194.672	80.003	19.995	101.046	19.865	2.506	0.497
256.000	195.649	80.002	19.997	101.047	19.862	2.741	0.451
258.000	196.610	80.003	19.996	101.047	19.866	2.471	0.483
260.000	197.644	80.001	19.996	101.046	19.866	2.490	0.506
262.000	198.593	80.002	19.996	101.045	19.861	2.767	0.489
264.000	199.601	80.002	19.995	101.046	19.865	2.504	0.503
266.000	200.627	80.002	19.997	101.046	19.863	2.651	0.510
268.000	201.583	80.003	19.997	101.046	19.862	2.710	0.499
270.000	202.594	80.003	19.996	101.045	19.861	2.778	0.501
272.000	203.558	80.003	19.996	101.046	19.863	2.635	0.508
274.000	204.560	80.003	19.996	101.046	19.862	2.721	0.501
276.000	205.523	80.004	19.996	101.044	19.858	2.995	0.489
278.000	206.563	80.003	19.995	101.045	19.861	2.769	0.481
280.000	207.565	80.003	19.995	101.046	19.859	2.929	0.477
282.000	208.550	80.003	19.994	101.044	19.856	3.122	0.492
284.000	209.519	80.002	19.995	101.044	19.854	3.283	0.500
286.000	210.530	80.002	19.995	101.043	19.857	3.074	0.521
288.000	211.482	80.002	19.995	101.044	19.857	3.068	0.466
290.000	212.495	80.003	19.996	101.044	19.858	3.017	0.499
292.000	213.484	80.001	19.996	101.044	19.858	2.975	0.505
294.000	214.441	80.002	19.996	101.044	19.858	2.995	0.489
296.000	215.380	80.002	19.995	101.046	19.855	3.184	0.474
298.000	216.402	80.001	19.996	101.043	19.854	3.278	0.501
300.000	217.426	80.001	19.997	101.045	19.856	3.147	0.542
302.000	218.379	80.002	19.996	101.046	19.857	3.101	0.488
304.000	219.383	80.003	19.997	101.043	19.851	3.469	0.502
306.000	220.386	80.003	19.995	101.043	19.853	3.333	0.480
308.000	221.359	80.002	19.996	101.044	19.852	3.405	0.465
310.000	222.327	80.003	19.996	101.043	19.855	3.177	0.495
312.000	223.348	80.002	19.996	101.044	19.851	3.440	0.498
314.000	224.355	80.001	19.994	101.046	19.848	3.671	0.499
316.000	225.369	80.000	19.996	101.046	19.848	3.649	0.512
318.000	226.347	80.001	19.996	101.048	19.847	3.761	0.500
320.000	227.355	80.002	19.996	101.046	19.844	3.978	0.506
322.000	228.368	80.002	19.995	101.048	19.843	4.000	0.524
324.000	229.372	80.002	19.997	101.049	19.842	4.084	0.506
326.000	230.375	80.002	19.996	101.048	19.836	4.518	0.483
328.000	231.361	80.003	19.996	101.049	19.836	4.467	0.491
330.000	232.354	80.004	19.996	101.048	19.834	4.643	0.492
332.000	233.324	80.004	19.996	101.047	19.831	4.827	0.523
334.000	234.333	80.003	19.996	101.046	19.831	4.836	0.510
336.000	235.332	80.002	19.996	101.047	19.828	4.996	0.501
338.000	236.280	80.003	19.995	101.048	19.826	5.187	0.491
340.000	237.270	80.002	19.996	101.048	19.822	5.439	0.492
342.000	238.243	80.002	19.996	101.050	19.821	5.481	0.512
344.000	239.241	80.001	19.995	101.048	19.822	5.455	0.497
346.000	240.209	80.001	19.995	101.049	19.816	5.841	0.506
348.000	241.159	80.003	19.995	101.048	19.812	6.122	0.482
350.000	242.203	80.002	19.996	101.046	19.810	6.255	0.511
352.000	243.209	80.002	19.995	101.050	19.805	6.574	0.477
354.000	244.243	80.004	19.996	101.046	19.805	6.578	0.530
356.000	245.196	80.003	19.996	101.050	19.800	6.915	0.505
358.000	246.229	80.004	19.996	101.043	19.800	6.939	0.515
360.000	247.225	80.004	19.996	101.055	19.795	7.275	0.527
362.000	248.212	80.003	19.996	101.049	19.793	7.363	0.455
364.000	249.220	80.003	19.996	101.057	19.787	7.766	0.522
366.000	250.246	80.001	19.996	101.055	19.781	8.208	0.524
368.000	251.295	80.002	19.995	101.061	19.780	8.299	0.501
370.000	252.250	80.001	19.996	101.066	19.777	8.437	0.482
372.000	253.247	80.001	19.996	101.058	19.774	8.692	0.486
374.000	254.263	80.001	19.996	101.057	19.771	8.907	0.533
376.001	255.249	80.002	19.995	101.060	19.769	9.026	0.517
378.000	256.242	80.002	19.996	101.065	19.765	9.312	0.522
380.000	257.224	80.002	19.995	101.071	19.760	9.605	0.481
382.000	258.223	80.001	19.995	101.074	19.754	10.010	0.487
384.000	259.252	80.002	19.995	101.064	19.752	10.157	0.500
386.000	260.255	80.002	19.995	101.078	19.751	10.258	0.499
388.000	261.221	80.002	19.995	101.078	19.746	10.541	0.481
390.000	262.240	80.003	19.995	101.078	19.739	11.028	0.500
392.000	263.237	80.002	19.996	101.084	19.738	11.109	0.492
394.000	264.237	80.001	19.996	101.081	19.730	11.619	0.492
396.000	265.236	80.001	19.994	101.085	19.729	11.692	0.479
398.000	266.267	80.001	19.995	101.085	19.723	12.089	0.518
400.000	267.289	79.999	19.994	101.086	19.721	12.232	0.522
402.000	268.279	80.000	19.995	101.087	19.716	12.567	0.496
404.000	269.252	80.001	19.994	101.088	19.710	12.964	0.494
406.000	270.295	80.001	19.994	101.088	19.706	13.245	0.529
408.000	271.336	80.002	19.995	101.088	19.702	13.523	0.534
410.000	272.339	80.004	19.994	101.088	19.695	14.013	0.511
412.000	273.349	80.003	19.995	101.087	19.692	14.228	0.501
414.000	274.328	80.004	19.994	101.085	19.686	14.602	0.517
416.000	275.347	80.005	19.994	101.084	19.680	15.019	0.504
418.000	276.375	80.003	19.995	101.087	19.677	15.234	0.489
420.000	277.322	80.002	19.995	101.085	19.670	15.711	0.474
422.000	278.323	80.003	19.996	101.084	19.664	16.096	0.512
424.000	279.373	80.003	19.996	101.089	19.659	16.422	0.528
426.000	280.354	80.003	19.996	101.094	19.653	16.869	0.500
428.000	281.289	80.003	19.996	101.092	19.650	17.071	0.437
430.000	282.308	80.002	19.995	101.092	19.643	17.495	0.523
432.000	283.339	80.003	19.995	101.096	19.634	18.127	0.533
434.000	284.333	80.004	19.995	101.112	19.630	18.414	0.479
436.000	285.308	80.004	19.995	101.113	19.624	18.797	0.511
438.000	286.358	80.005	19.996	101.115	19.616	19.343	0.521
440.000	287.357	80.004	19.995	101.114	19.614	19.518	0.528
442.000	288.373	80.004	19.996	101.119	19.601	20.333	0.513
444.000	289.370	80.003	19.995	101.118	19.597	20.666	0.503
446.000	290.337	80.002	19.994	101.122	19.589	21.168	0.516
448.000	291.392	80.001	19.996	101.119	19.577	22.011	0.509
450.000	292.427	80.000	19.996	101.123	19.570	22.437	0.508
452.000	293.372	80.001	19.996	101.125	19.562	23.031	0.460
454.000	294.391	79.999	19.996	101.125	19.555	23.511	0.491
456.000	295.406	80.001	19.996	101.128	19.548	23.982	0.470
458.000	296.399	80.001	19.996	101.142	19.540	24.463	0.520
460.000	297.414	80.001	19.996	101.148	19.530	25.181	0.497
462.000	298.390	80.002	19.996	101.150	19.520	25.821	0.490
464.000	299.358	80.002	19.996	101.153	19.511	26.433	0.478
466.000	300.379	80.001	19.996	101.157	19.502	27.062	0.479
468.000	301.363	80.002	19.995	101.159	19.493	27.663	0.491
470.000	302.413	80.001	19.995	101.165	19.479	28.591	0.512
472.000	303.432	80.002	19.995	101.165	19.468	29.388	0.509
474.000	304.443	80.002	19.994	101.163	19.460	29.934	0.511
476.000	305.387	80.001	19.996	101.164	19.446	30.862	0.472
478.000	306.415	80.001	19.996	101.168	19.436	31.501	0.473
480.000	307.466	80.001	19.997	101.173	19.425	32.251	0.515
482.000	308.387	80.000	19.995	101.173	19.416	32.884	0.504
484.000	309.479	80.001	19.996	101.180	19.402	33.838	0.504
486.000	310.445	80.001	19.995	101.189	19.391	34.566	0.483
488.000	311.490	80.002	19.995	101.195	19.382	35.219	0.515
490.000	312.515	80.002	19.996	101.194	19.368	36.111	0.516
492.000	313.522	80.003	19.996	101.194	19.357	36.887	0.524
494.000	314.541	80.003	19.995	101.200	19.344	37.768	0.528
496.000	315.544	80.003	19.995	101.203	19.333	38.474	0.495
498.000	316.514	80.003	19.996	101.204	19.320	39.357	0.507
500.000	317.559	80.003	19.996	101.202	19.305	40.431	0.540
502.000	318.577	80.003	19.995	101.203	19.294	41.166	0.518
504.000	319.562	80.001	19.996	101.207	19.289	41.497	0.488
506.000	320.565	80.005	19.995	101.211	19.276	42.361	0.501
508.000	321.588	80.005	19.994	101.214	19.260	43.422	0.486
510.000	322.610	80.002	19.995	101.219	19.252	43.990	0.509
512.002	323.596	80.003	19.996	101.230	19.240	44.799	0.489
514.000	324.534	80.003	19.996	101.231	19.230	45.503	0.477
516.000	325.562	80.004	19.995	101.233	19.218	46.313	0.534
518.000	326.641	80.004	19.995	101.234	19.210	46.823	0.552
520.000	327.601	80.005	19.995	101.237	19.202	47.398	0.490
522.001	328.594	80.002	19.995	101.237	19.196	47.764	0.512
524.000	329.593	80.005	19.995	101.236	19.186	48.464	0.501
526.000	330.597	80.003	19.996	101.237	19.178	49.014	0.483
528.000	331.619	80.002	19.995	101.232	19.168	49.688	0.527
530.000	332.594	80.001	19.996	101.242	19.158	50.374	0.505
532.001	333.632	80.001	19.995	101.243	19.150	50.915	0.535
534.000	334.619	80.000	19.995	101.242	19.149	50.976	0.489
536.000	335.686	80.002	19.995	101.238	19.142	51.416	0.502
538.000	336.620	80.001	19.996	101.244	19.133	52.043	0.470
540.000	337.653	80.002	19.996	101.242	19.125	52.611	0.527
542.000	338.633	80.002	19.996	101.240	19.119	52.966	0.535
544.000	339.566	80.002	19.996	101.243	19.112	53.441	0.448
546.000	340.576	80.001	19.996	101.239	19.107	53.815	0.456
548.000	341.649	80.002	19.997	101.239	19.100	54.291	0.518
550.000	342.624	80.001	19.996	101.242	19.094	54.677	0.471
552.000	343.579	80.001	19.997	101.246	19.088	55.084	0.499
554.000	344.605	80.001	19.996	101.248	19.076	55.909	0.509
556.000	345.568	80.002	19.997	101.250	19.069	56.361	0.523
558.000	346.549	80.002	19.996	101.262	19.061	56.934	0.486
560.000	347.560	80.002	19.996	101.269	19.052	57.513	0.479
562.000	348.575	80.002	19.995	101.276	19.042	58.224	0.512
564.000	349.553	80.001	19.995	101.272	19.034	58.756	0.481
566.000	350.543	80.001	19.995	101.278	19.025	59.397	0.500
568.000	351.526	80.002	19.996	101.280	19.013	60.209	0.479
570.000	352.535	80.003	19.995	101.282	19.000	61.068	0.473
572.000	353.497	80.002	19.996	101.281	18.988	61.919	0.509
574.001	354.495	80.003	19.996	101.281	18.977	62.628	0.476
576.000	355.457	80.004	19.995	101.280	18.968	63.233	0.472
578.000	356.435	80.004	19.996	101.297	18.953	64.293	0.482
580.000	357.440	80.004	19.995	101.295	18.943	64.943	0.520
582.000	358.390	80.004	19.996	101.303	18.933	65.598	0.496
584.000	359.334	80.003	19.996	101.305	18.921	66.462	0.432
586.001	360.280	80.003	19.996	101.295	18.912	67.055	0.484
588.000	361.267	80.002	19.995	101.305	18.904	67.565	0.483
590.000	362.270	80.003	19.996	101.313	18.895	68.190	0.497
592.000	363.216	80.004	19.996	101.310	18.889	68.578	0.483
594.000	364.234	80.002	19.995	101.317	18.884	68.927	0.512
596.000	365.182	80.004	19.995	101.314	18.880	69.200	0.499
598.000	366.154	80.004	19.994	101.304	18.878	69.276	0.469
600.000	367.104	80.004	19.994	101.299	18.880	69.152	0.463
602.000	368.133	80.004	19.994	101.290	18.879	69.204	0.503
604.000	369.116	80.005	19.996	101.281	18.883	68.953	0.473
606.000	370.088	80.005	19.995	101.281	18.886	68.715	0.483
608.000	371.041	80.005	19.995	101.256	18.897	67.974	0.450
610.000	372.030	80.004	19.995	101.239	18.911	67.005	0.504
612.000	373.021	80.003	19.997	101.241	18.918	66.501	0.524
614.000	374.050	80.003	19.995	101.244	18.938	65.186	0.459
616.000	375.051	80.003	19.996	101.231	18.961	63.629	0.485
618.000	376.023	80.002	19.996	101.198	18.984	62.064	0.473
620.000	376.995	80.004	19.997	101.182	19.015	59.940	0.489
622.000	377.962	80.003	19.997	101.167	19.046	57.829	0.478
624.000	378.992	80.003	19.996	101.153	19.077	55.727	0.494
626.000	379.953	80.003	19.996	101.137	19.114	53.251	0.497
628.000	380.956	80.004	19.996	101.123	19.151	50.726	0.505
630.000	381.973	80.003	19.996	101.110	19.190	48.074	0.494
632.000	382.975	80.004	19.996	101.084	19.229	45.432	0.485
634.000	383.984	80.002	19.996	101.073	19.271	42.640	0.498
636.000	384.972	80.003	19.997	101.056	19.317	39.482	0.483
638.000	385.993	80.003	19.998	101.042	19.355	36.951	0.469
640.000	386.982	80.001	19.997	101.032	19.402	33.767	0.500
642.000	388.027	80.001	19.998	101.007	19.441	31.114	0.508
644.000	389.014	80.001	19.998	101.006	19.483	28.290	0.499
646.000	389.989	80.001	19.997	100.997	19.517	26.022	0.486
648.000	390.939	80.001	19.997	100.994	19.548	23.931	0.459
650.000	391.946	80.001	19.997	100.999	19.580	21.735	0.486
652.000	392.937	80.002	19.997	100.997	19.613	19.552	0.502
654.000	394.013	80.001	19.995	100.979	19.640	17.682	0.560
656.000	394.989	80.003	19.995	100.966	19.665	16.000	0.476
658.000	395.977	80.004	19.996	100.968	19.688	14.493	0.504
660.000	396.993	80.003	19.995	100.969	19.704	13.387	0.485
662.000	397.953	80.004	19.994	100.967	19.723	12.089	0.493
664.000	398.955	80.004	19.994	100.968	19.737	11.131	0.508
666.000	399.961	80.003	19.995	100.968	19.749	10.365	0.526
668.000	400.903	80.003	19.995	100.968	19.754	9.981	0.495
670.001	401.914	80.003	19.996	100.966	19.766	9.230	0.480
672.000	402.923	80.003	19.996	100.966	19.775	8.612	0.489
674.000	403.931	80.003	19.995	100.966	19.778	8.414	0.503
676.000	404.903	80.004	19.996	100.964	19.780	8.226	0.503
678.000	405.913	80.005	19.996	100.963	19.789	7.685	0.510
680.001	406.892	80.004	19.996	100.962	19.791	7.534	0.512
682.000	407.896	80.005	19.996	100.963	19.792	7.459	0.462
684.000	408.873	80.006	19.996	100.964	19.793	7.356	0.485
686.000	409.885	80.005	19.995	100.964	19.794	7.295	0.520
688.000	410.889	80.005	19.995	100.964	19.798	7.033	0.507
690.000	411.881	80.007	19.995	100.964	19.799	6.946	0.492
692.000	412.868	80.002	19.995	100.964	19.802	6.752	0.479
694.000	413.846	80.003	19.995	100.962	19.804	6.647	0.466
696.000	414.783	80.003	19.994	100.958	19.804	6.633	0.478
698.000	415.797	80.003	19.996	100.959	19.806	6.486	0.508
700.000	416.721	80.001	19.996	100.963	19.809	6.334	0.491
702.000	417.731	80.002	19.996	100.955	19.808	6.392	0.506
704.000	418.740	80.002	19.996	100.963	19.810	6.244	0.490
706.000	419.745	80.002	19.996	100.963	19.808	6.339	0.489
708.000	420.791	80.001	19.997	100.964	19.808	6.400	0.528
710.000	421.765	80.001	19.997	100.966	19.811	6.148	0.515
712.000	422.764	80.002	19.996	100.963	19.812	6.117	0.490
714.000	423.718	80.002	19.995	100.966	19.812	6.099	0.466
716.001	424.731	80.003	19.996	100.969	19.816	5.846	0.500
718.000	425.712	80.002	19.996	100.964	19.816	5.864	0.473
720.000	426.739	80.001	19.996	100.965	19.816	5.819	0.498
722.000	427.689	80.002	19.995	100.963	19.818	5.680	0.475
724.000	428.740	79.999	19.994	100.964	19.819	5.612	0.504
726.001	429.715	80.020	19.999	100.971	19.821	5.514	0.496
728.000	430.704	79.998	19.997	100.967	19.821	5.474	0.493
730.000	431.674	79.999	19.995	100.963	19.823	5.362	0.489
732.000	432.676	80.000	19.997	100.964	19.825	5.250	0.478
734.000	433.702	80.000	19.996	100.961	19.828	4.993	0.500
736.000	434.727	80.002	19.997	100.960	19.827	5.086	0.499
738.000	435.706	80.003	19.997	100.946	19.830	4.883	0.496
740.000	436.681	80.002	19.996	100.948	19.830	4.864	0.498
742.000	437.618	80.003	19.998	100.951	19.833	4.704	0.477
744.000	438.630	80.003	19.996	100.948	19.835	4.547	0.487
746.000	439.614	80.003	19.996	100.943	19.836	4.468	0.483
748.000	440.664	80.003	19.995	100.948	19.835	4.559	0.530
750.000	441.567	80.002	19.995	100.954	19.838	4.317	0.493
752.000	442.521	80.004	19.996	100.947	19.837	4.437	0.478
754.000	443.478	80.003	19.995	100.943	19.837	4.402	0.487
756.000	444.483	80.004	19.995	100.951	19.841	4.123	0.479
758.000	445.425	80.004	19.996	100.944	19.845	3.875	0.465
760.000	446.392	80.005	19.995	100.944	19.846	3.817	0.485
762.000	447.323	80.004	19.995	100.945	19.844	3.910	0.438
764.000	448.325	80.005	19.995	100.949	19.849	3.615	0.501
766.000	449.337	80.003	19.995	100.955	19.851	3.492	0.489
768.000	450.341	80.003	19.995	100.962	19.851	3.437	0.539
770.000	451.345	80.002	19.996	100.963	19.850	3.552	0.512
772.000	452.346	80.003	19.996	100.964	19.854	3.293	0.466
774.000	453.386	80.003	19.995	100.960	19.855	3.207	0.518
776.000	454.447	80.002	19.994	100.961	19.856	3.137	0.503
778.000	455.536	80.001	19.995	100.966	19.857	3.069	0.537
780.000	456.590	80.002	19.994	100.967	19.860	2.875	0.539
782.000	457.671	80.003	19.995	100.962	19.860	2.846	0.519
784.000	458.777	80.003	19.995	100.968	19.859	2.901	0.552
786.000	459.848	80.003	19.995	100.963	19.862	2.756	0.560
788.000	460.964	80.002	19.994	100.956	19.864	2.594	0.550
790.000	462.026	80.002	19.995	100.957	19.865	2.554	0.517
792.000	463.160	80.002	19.996	100.965	19.868	2.298	0.529
794.000	464.254	80.001	19.994	100.965	19.870	2.195	0.550
796.000	465.367	80.001	19.997	100.968	19.870	2.170	0.564
798.000	466.474	80.003	19.995	100.969	19.866	2.441	0.566
800.000	467.547	80.002	19.997	100.969	19.869	2.232	0.538
802.000	468.641	80.001	19.997	100.964	19.871	2.093	0.536
804.000	469.788	80.001	19.997	100.954	19.872	2.071	0.559
806.000	470.901	80.002	19.997	100.955	19.874	1.889	0.568
808.000	471.980	80.001	19.996	100.954	19.875	1.847	0.548
810.000	473.091	80.001	19.997	100.964	19.872	2.028	0.560
812.000	474.181	80.001	19.996	100.964	19.880	1.522	0.554
814.000	475.276	80.003	19.996	100.963	19.879	1.547	0.549
816.000	476.374	80.002	19.996	100.944	19.880	1.527	0.533
818.000	477.451	80.002	19.996	100.943	19.879	1.588	0.523
820.000	478.548	80.003	19.996	100.950	19.881	1.458	0.524
822.000	479.718	80.003	19.996	100.957	19.879	1.570	0.562
824.000	480.737	80.003	19.997	100.953	19.883	1.305	0.534
826.000	481.873	80.003	19.996	100.954	19.881	1.459	0.547
828.000	482.926	80.003	19.996	100.955	19.883	1.318	0.534
830.000	484.026	80.002	19.996	100.960	19.882	1.362	0.550
832.000	485.061	80.003	19.998	100.956	19.887	1.043	0.542
834.000	486.125	80.002	19.996	100.957	19.886	1.138	0.527
836.000	487.194	80.001	19.996	100.957	19.891	0.795	0.522
838.000	488.275	80.002	19.996	100.957	19.890	0.826	0.537
840.000	489.314	80.004	19.995	100.953	19.891	0.778	0.549
842.000	490.379	80.004	19.996	100.955	19.887	1.030	0.529
844.000	491.400	80.005	19.996	100.940	19.889	0.896	0.498
846.000	492.454	80.006	19.996	100.942	19.888	0.969	0.528
848.000	493.538	80.004	19.996	100.955	19.885	1.180	0.526
850.000	494.618	80.005	19.995	100.959	19.885	1.146	0.549
852.000	495.655	80.004	19.996	100.953	19.886	1.100	0.504
854.000	496.698	80.001	19.995	100.953	19.888	0.984	0.503
856.000	497.740	80.002	19.996	100.959	19.889	0.912	0.538
858.000	498.759	80.002	19.996	100.960	19.889	0.929	0.507
860.001	499.778	80.002	19.995	100.961	19.892	0.675	0.528
862.000	500.821	80.002	19.995	100.956	19.894	0.589	0.456
864.000	501.893	80.002	19.996	100.964	19.892	0.727	0.546
866.000	502.908	80.003	19.995	100.959	19.891	0.798	0.505
868.000	503.956	80.002	19.996	100.959	19.892	0.725	0.521
870.000	505.014	80.001	19.995	100.951	19.892	0.677	0.527
872.000	506.079	80.002	19.995	100.953	19.893	0.663	0.549
874.000	507.123	80.003	19.995	100.950	19.895	0.521	0.536
876.000	508.215	80.002	19.995	100.941	19.896	0.446	0.552
878.000	509.211	80.003	19.995	100.950	19.897	0.340	0.519
880.000	510.247	80.001	19.996	100.945	19.894	0.565	0.492
882.000	511.311	80.002	19.996	100.947	19.894	0.586	0.531
884.000	512.316	80.001	19.995	100.954	19.898	0.294	0.497
886.000	513.398	80.000	19.996	100.952	19.897	0.393	0.540
888.000	514.458	80.002	19.997	100.951	19.894	0.595	0.538
890.000	515.528	80.000	19.996	100.946	19.896	0.446	0.538
892.000	516.577	80.002	19.997	100.947	19.898	0.294	0.513
894.000	517.612	80.002	19.997	100.948	19.898	0.312	0.527
896.000	518.661	80.001	19.997	100.951	19.897	0.369	0.511
898.000	519.742	80.002	19.996	100.953	19.897	0.391	0.524
900.000	520.784	80.002	19.996	100.945	19.897	0.336	0.553
902.000	521.821	80.002	19.997	100.954	19.898	0.310	0.513
904.000	522.902	80.003	19.996	100.962	19.897	0.340	0.576
906.000	523.939	80.003	19.996	100.953	19.899	0.215	0.520
908.000	524.967	80.004	19.996	100.952	19.900	0.167	0.529
910.000	526.000	80.002	19.995	100.952	19.901	0.103	0.538
912.000	527.020	80.002	19.995	100.955	19.897	0.334	0.506
914.000	528.070	80.001	19.996	100.944	19.898	0.321	0.533
916.000	529.118	80.002	19.997	100.956	19.899	0.248	0.550
918.000	530.129	80.001	19.996	100.964	19.893	0.639	0.533
920.000	531.186	80.002	19.996	100.952	19.896	0.461	0.505
922.000	532.196	80.002	19.996	100.958	19.893	0.604	0.536
924.000	533.256	80.004	19.996	100.954	19.893	0.655	0.512
926.000	534.262	80.003	19.996	100.964	19.892	0.676	0.508
928.000	535.277	80.003	19.996	100.964	19.897	0.362	0.520
930.000	536.309	80.006	19.995	100.963	19.899	0.240	0.542
932.000	537.307	80.002	19.994	100.953	19.896	0.417	0.492
934.000	538.326	80.003	19.996	100.954	19.896	0.415	0.486
936.000	539.318	80.004	19.996	100.951	19.899	0.259	0.480
938.000	540.344	80.002	19.995	100.950	19.900	0.189	0.492
940.000	541.357	80.001	19.996	100.943	19.898	0.270	0.501
942.000	542.440	80.002	19.996	100.944	19.897	0.389	0.554
944.000	543.430	80.002	19.995	100.952	19.898	0.321	0.487
946.000	544.426	80.002	19.995	100.959	19.898	0.294	0.504
948.000	545.474	80.002	19.995	100.950	19.900	0.195	0.510
950.000	546.492	80.003	19.995	100.945	19.899	0.255	0.557
952.000	547.550	80.002	19.995	100.949	19.899	0.257	0.548
954.000	548.552	80.002	19.996	100.949	19.898	0.318	0.510
956.000	549.572	80.005	19.996	100.949	19.901	0.094	0.506
958.000	550.573	80.003	19.995	100.948	19.907	-0.327	0.538
960.000	551.614	80.003	19.996	100.949	19.903	-0.064	0.515
962.000	552.619	80.002	19.996	100.952	19.903	-0.062	0.497
964.000	553.650	80.003	19.995	100.945	19.905	-0.167	0.504
966.000	554.656	80.002	19.996	100.954	19.902	0.037	0.493
968.000	555.720	80.002	19.996	100.955	19.901	0.088	0.525
970.000	556.744	80.002	19.994	100.958	19.902	0.015	0.493
972.000	557.778	80.002	19.995	100.958	19.905	-0.182	0.506
974.000	558.809	80.001	19.995	100.952	19.898	0.277	0.490
976.000	559.815	80.002	19.996	100.949	19.901	0.125	0.527
978.000	560.773	80.003	19.995	100.961	19.902	0.059	0.486
980.000	561.786	80.002	19.996	100.954	19.901	0.090	0.501
982.000	562.812	80.004	19.996	100.952	19.903	-0.057	0.513
984.000	563.815	80.003	19.996	100.952	19.902	0.004	0.504
986.000	564.835	80.002	19.997	100.953	19.902	0.061	0.490
988.000	565.791	80.004	19.995	100.944	19.900	0.162	0.505
990.000	566.777	80.004	19.997	100.946	19.903	-0.039	0.479
992.000	567.785	80.003	19.996	100.957	19.902	0.053	0.466
994.000	568.814	80.003	19.995	100.950	19.901	0.121	0.497
996.000	569.840	80.004	19.996	100.952	19.901	0.116	0.523
998.000	570.852	80.003	19.996	100.946	19.901	0.130	0.483
1000.000	571.836	80.004	19.995	100.955	19.899	0.211	0.521
1002.000	572.811	80.004	19.995	100.958	19.902	0.061	0.492
1004.000	573.875	80.005	19.995	100.955	19.903	-0.070	0.546
1006.000	574.895	80.005	19.996	100.947	19.900	0.193	0.515
1008.000	575.839	80.003	19.996	100.943	19.903	-0.029	0.469
1010.000	576.848	80.004	19.996	100.946	19.899	0.259	0.505
1012.000	577.842	80.003	19.996	100.955	19.900	0.191	0.476
1014.000	578.860	80.003	19.996	100.946	19.899	0.251	0.512
1016.000	579.869	80.004	19.997	100.953	19.903	-0.006	0.500
1018.000	580.891	80.002	19.996	100.958	19.902	0.007	0.497
1020.000	581.893	80.002	19.996	100.952	19.899	0.250	0.505
1022.000	582.873	80.003	19.997	100.947	19.901	0.127	0.498
1024.000	583.870	80.002	19.996	100.948	19.903	-0.029	0.487
1026.000	584.855	80.004	19.996	100.957	19.900	0.143	0.521
1028.000	585.891	80.003	19.996	100.959	19.898	0.314	0.511
1030.001	586.907	80.003	19.995	100.961	19.901	0.079	0.502
1032.001	587.879	80.003	19.996	100.960	19.900	0.162	0.497
1034.000	588.848	80.002	19.994	100.958	19.899	0.213	0.485
1036.000	589.832	80.003	19.995	100.957	19.900	0.160	0.494
1038.001	590.846	80.003	19.996	100.953	19.900	0.149	0.501
1040.000	591.825	80.004	19.995	100.960	19.900	0.173	0.484
1042.000	592.782	80.003	19.996	100.963	19.898	0.268	0.473
1044.000	593.811	80.004	19.996	100.962	19.899	0.252	0.487
1046.000	594.802	80.002	19.995	100.958	19.902	0.035	0.471
1048.000	595.810	80.002	19.995	100.959	19.902	0.028	0.491
1050.001	596.803	80.002	19.995	100.957	19.900	0.196	0.510
1052.001	597.780	80.002	19.995	100.961	19.902	0.059	0.490
1054.001	598.792	80.002	19.996	100.966	19.901	0.068	0.485
1056.001	599.797	80.002	19.995	100.965	19.901	0.119	0.500
1058.000	600.803	80.003	19.995	100.967	19.904	-0.094	0.508
1060.001	601.821	80.002	19.995	100.969	19.899	0.213	0.500
1062.001	602.841	80.002	19.995	100.967	19.902	0.040	0.488
1064.001	603.854	80.003	19.995	100.962	19.905	-0.174	0.527
1066.001	604.865	80.003	19.995	100.959	19.901	0.114	0.519
1068.000	605.873	80.004	19.995	100.959	19.897	0.374	0.506
1070.000	606.897	80.004	19.995	100.952	19.900	0.132	0.509
1072.000	607.904	80.005	19.995	100.961	19.898	0.301	0.527
1074.000	608.935	80.005	19.996	100.965	19.900	0.149	0.493
1076.000	609.968	80.002	19.996	100.962	19.898	0.329	0.531
1078.000	611.021	80.003	19.996	100.960	19.900	0.174	0.529
1080.000	612.031	80.004	19.997	100.962	19.898	0.310	0.523
1082.000	613.085	80.004	19.996	100.964	19.900	0.136	0.529
1084.000	614.156	80.003	19.996	100.959	19.903	-0.026	0.540
1086.000	615.206	80.005	19.996	100.954	19.902	0.044	0.547
1088.000	616.209	80.006	19.997	100.961	19.902	0.046	0.497
1090.000	617.254	80.006	19.995	100.962	19.902	0.040	0.501
1092.000	618.337	80.005	19.996	100.963	19.903	-0.026	0.555
1094.000	619.324	80.005	19.994	100.962	19.900	0.163	0.517
1096.001	620.435	80.005	19.995	100.961	19.900	0.196	0.543
1098.001	621.486	80.003	19.996	100.957	19.900	0.143	0.533
1100.000	622.522	80.003	19.996	100.957	19.904	-0.101	0.514
1102.000	623.571	80.002	19.996	100.965	19.901	0.092	0.527
1104.000	624.572	80.003	19.996	100.961	19.905	-0.193	0.504
1106.001	625.591	80.003	19.997	100.959	19.903	-0.040	0.486
1108.000	626.604	80.001	19.997	100.956	19.905	-0.140	0.503
1110.000	627.666	80.002	19.997	100.953	19.905	-0.174	0.540
1112.000	628.639	80.002	19.997	100.963	19.904	-0.097	0.488
1114.000	629.680	80.001	19.996	100.955	19.901	0.114	0.503
1116.000	630.686	80.005	19.995	100.957	19.901	0.086	0.490
1118.000	631.602	80.003	19.996	100.963	19.903	-0.009	0.496
1120.000	632.614	80.001	19.994	100.954	19.901	0.081	0.503
1122.000	633.576	80.003	19.995	100.952	19.903	-0.006	0.508
1124.000	634.579	80.001	19.995	100.955	19.905	-0.162	0.478
1126.000	635.561	80.004	19.995	100.949	19.899	0.250	0.475
1128.001	636.500	80.001	19.996	100.959	19.900	0.141	0.467
1130.000	637.484	80.001	19.996	100.957	19.901	0.084	0.497
1132.000	638.414	80.003	19.996	100.961	19.903	-0.017	0.445
1134.000	639.354	80.001	19.996	100.959	19.900	0.198	0.462
1136.000	640.318	80.003	19.996	100.937	19.904	-0.092	0.455
1138.001	641.244	80.002	19.995	100.949	19.898	0.279	0.455
1140.000	642.137	80.001	19.996	100.951	19.903	-0.026	0.428
1142.001	643.093	80.004	19.996	100.961	19.897	0.369	0.457
1144.000	644.040	80.004	19.996	100.961	19.902	0.028	0.464
1146.000	644.983	80.005	19.995	100.960	19.901	0.101	0.466
1148.001	645.922	80.005	19.995	100.961	19.903	-0.059	0.474
1150.001	646.892	80.006	19.995	100.945	19.903	-0.066	0.453
1152.000	647.792	80.005	19.996	100.939	19.904	-0.097	0.443
1154.000	648.749	80.004	19.994	100.945	19.903	-0.048	0.463
1156.001	649.666	80.005	19.994	100.954	19.904	-0.112	0.442
1158.000	650.642	80.005	19.995	100.953	19.906	-0.239	0.456
1160.000	651.588	80.005	19.995	100.957	19.905	-0.198	0.489
1162.001	652.505	80.004	19.994	100.959	19.904	-0.121	0.477
1164.001	653.493	80.004	19.995	100.963	19.902	-0.002	0.459
1166.000	654.419	80.003	19.995	100.963	19.905	-0.156	0.468
1168.000	655.383	80.004	19.996	100.962	19.906	-0.239	0.496
1170.000	656.302	80.004	19.996	100.956	19.908	-0.406	0.452
1172.001	657.252	80.005	19.996	100.961	19.906	-0.250	0.464
1174.001	658.159	80.004	19.996	100.964	19.906	-0.224	0.477
1176.000	659.067	80.008	19.995	100.960	19.907	-0.286	0.458
1178.000	659.997	80.004	19.995	100.963	19.908	-0.349	0.488
1180.000	660.937	80.001	19.995	100.965	19.903	-0.064	0.472
1182.000	661.885	80.001	19.996	100.962	19.905	-0.165	0.495
1184.000	662.831	80.002	19.996	100.964	19.899	0.200	0.500
1186.000	663.755	80.001	19.995	100.968	19.904	-0.136	0.474
1188.000	664.676	80.002	19.996	100.961	19.902	-0.002	0.452
1190.000	665.651	80.002	19.996	100.967	19.902	0.028	0.500
1192.001	666.580	80.001	19.996	100.965	19.906	-0.217	0.480
1194.000	667.523	80.002	19.997	100.968	19.902	0.039	0.443
1196.000	668.475	80.002	19.996	100.965	19.901	0.079	0.473
1198.000	669.426	80.000	19.997	100.965	19.900	0.176	0.471
1200.000	670.437	80.002	19.996	100.964	19.903	-0.035	0.497
1202.000	671.415	80.002	19.997	100.962	19.900	0.193	0.497
1204.000	672.414	79.999	19.997	100.958	19.900	0.167	0.501
1206.000	673.401	80.001	19.997	100.960	19.902	0.053	0.522
1208.001	674.395	80.000	19.996	100.964	19.902	0.033	0.512
1210.001	675.410	80.002	19.996	100.963	19.900	0.165	0.493
1212.000	676.411	80.003	19.995	100.963	19.900	0.132	0.491
1214.001	677.443	80.003	19.994	100.964	19.900	0.174	0.500
1216.000	678.400	80.001	19.996	100.962	19.905	-0.169	0.472
1218.000	679.407	80.001	19.995	100.963	19.904	-0.112	0.484
1220.001	680.453	80.002	19.996	100.965	19.900	0.138	0.529
1222.000	681.418	80.003	19.996	100.966	19.898	0.301	0.477
1224.000	682.406	80.003	19.996	100.966	19.900	0.184	0.467
1226.001	683.438	80.002	19.995	100.966	19.901	0.097	0.492
1228.000	684.512	80.004	19.995	100.966	19.904	-0.107	0.529
1230.001	685.612	80.005	19.995	100.969	19.899	0.224	0.549
1232.000	686.579	80.004	19.996	100.968	19.900	0.176	0.528
1234.000	687.598	80.003	19.994	100.969	19.901	0.094	0.543
1236.000	688.634	80.003	19.994	100.968	19.901	0.079	0.520
1238.000	689.749	80.003	19.995	100.975	19.900	0.182	0.552
1240.000	690.860	80.004	19.996	100.996	19.900	0.193	0.573
1242.000	692.005	80.002	19.995	101.002	19.899	0.224	0.581
1244.000	693.149	80.003	19.995	100.997	19.894	0.562	0.579
1246.000	694.289	80.003	19.995	100.991	19.897	0.360	0.577
1248.001	695.479	80.004	19.994	101.001	19.899	0.239	0.617
1250.000	696.666	80.005	19.994	100.985	19.897	0.341	0.575
1252.000	697.872	80.005	19.994	100.991	19.895	0.520	0.595
1254.001	699.073	80.004	19.994	100.987	19.897	0.393	0.615
1256.000	700.255	80.005	19.994	100.990	19.898	0.303	0.571
1258.000	701.445	80.006	19.994	100.984	19.897	0.382	0.575
1260.001	702.718	80.003	19.995	100.978	19.895	0.503	0.617
1262.000	703.935	80.004	19.996	100.965	19.897	0.386	0.601
1264.001	705.186	80.002	19.995	100.966	19.897	0.360	0.625
1266.000	706.404	80.002	19.994	100.976	19.901	0.106	0.588
1268.000	707.645	80.002	19.997	100.988	19.894	0.575	0.603
1270.001	708.888	80.002	19.995	100.991	19.894	0.566	0.635
1272.000	710.073	80.003	19.996	100.984	19.892	0.690	0.586
1274.000	711.312	80.002	19.995	100.984	19.897	0.393	0.617
1276.000	712.501	80.002	19.996	100.986	19.895	0.510	0.593
1278.000	713.699	80.002	19.996	100.979	19.893	0.635	0.586
1280.000	714.898	80.004	19.996	100.978	19.892	0.672	0.587
1282.000	716.095	80.003	19.996	100.979	19.895	0.512	0.573
1284.001	717.279	80.002	19.996	100.977	19.896	0.413	0.586
1286.001	718.466	80.000	19.996	100.975	19.892	0.694	0.585
1288.000	719.633	80.002	19.997	100.979	19.895	0.534	0.605
1290.000	720.788	79.999	19.998	100.974	19.896	0.437	0.577
1292.000	721.949	80.000	19.998	100.974	19.893	0.604	0.558
1294.000	723.127	80.003	19.997	100.978	19.897	0.391	0.566
1296.000	724.260	79.999	19.996	100.981	19.896	0.417	0.582
1298.000	725.445	80.004	19.997	100.979	19.891	0.758	0.602
1300.001	726.519	80.002	19.997	100.984	19.894	0.600	0.524
1302.000	727.698	80.003	19.997	100.985	19.893	0.666	0.578
1304.000	728.842	80.004	19.997	100.991	19.892	0.692	0.587
1306.001	729.913	80.004	19.996	100.984	19.891	0.788	0.555
1308.000	731.038	80.005	19.996	100.978	19.892	0.716	0.570
1310.000	732.188	80.004	19.996	100.973	19.892	0.733	0.550
1312.000	733.265	80.003	19.994	100.980	19.891	0.778	0.541
1314.000	734.337	80.004	19.995	100.976	19.894	0.567	0.558
1316.000	735.422	80.004	19.995	100.973	19.896	0.437	0.548
1318.000	736.474	80.002	19.996	100.971	19.896	0.406	0.517
1320.000	737.572	80.002	19.997	100.969	19.893	0.630	0.532
1322.000	738.587	80.003	19.997	100.969	19.894	0.562	0.517
1324.001	739.730	80.001	19.996	100.970	19.890	0.834	0.552
1326.001	740.752	80.005	19.996	100.968	19.890	0.837	0.536
1328.000	741.809	80.004	19.996	100.965	19.890	0.846	0.538
1330.000	742.874	80.005	19.996	100.966	19.889	0.940	0.517
1331.000	743.370	80.006	19.996	100.966	19.890	0.848	0.537