File: 01_Data/Wood_Stud/MCC/Wood_Stud_MCC_30K_min_211004_R2.txt
Sample ID:	C:\MCC\MCC Cal\Test\Wood_Stud_MCC_30K_min_211004_R2.txt
Sample Weight (mg):	4.27
Heating Rate (C/s):	0.5
Combustor Temp (C):	900
N2 Flow Rate (cc/min):	80
O2 Flow Rate (cc/min):	20
Calibration File:	C:\MCC\MCC Cal\Coeff1 JN10440_30_210304.txt.txt
T Correction Coefficients:	0	1.024463	0
Time Shift (s):	14
*
Time (s)	Temperature (C)	N2 flow rate (cc/min)	O2 flow rate (cc/min)	Flow Rate (cc/min)	Oxygen (%)	HRR (W/g)	Heating rate (C/s)
0.000	107.895	79.996	19.996	100.702	20.049	0.312	0.019
2.000	107.867	79.995	19.996	100.699	20.049	0.302	-0.022
4.000	107.837	79.994	19.996	100.705	20.052	0.114	-0.032
6.000	107.846	79.994	19.996	100.711	20.049	0.317	-0.016
8.000	107.851	79.995	19.997	100.706	20.047	0.469	-0.027
10.000	107.873	79.994	19.996	100.720	20.049	0.325	-0.005
12.000	107.817	79.994	19.996	100.733	20.046	0.545	-0.050
14.000	107.831	79.996	19.996	100.738	20.044	0.696	-0.005
16.000	107.844	79.996	19.995	100.742	20.044	0.656	0.009
18.000	107.855	79.994	19.997	100.752	20.043	0.786	0.006
20.000	107.912	79.994	19.997	100.769	20.039	1.047	0.009
22.001	107.956	79.995	19.996	100.777	20.036	1.300	0.045
24.000	108.017	79.995	19.995	100.792	20.032	1.535	0.031
26.000	108.102	79.993	19.996	100.824	20.030	1.734	0.019
28.000	108.267	79.995	19.997	100.843	20.026	1.977	0.086
30.000	108.427	79.994	19.996	100.850	20.023	2.245	0.064
32.000	108.550	79.995	19.996	100.862	20.018	2.619	0.043
33.999	108.785	79.993	19.996	100.897	20.016	2.732	0.096
35.999	108.970	79.994	19.995	100.904	20.015	2.794	0.123
37.999	109.256	79.994	19.995	100.915	20.009	3.235	0.152
39.999	109.546	79.996	19.995	100.904	20.008	3.300	0.123
41.999	109.875	79.995	19.996	100.911	20.011	3.105	0.152
43.999	110.217	79.996	19.996	100.930	20.008	3.318	0.181
45.999	110.571	79.996	19.995	100.922	20.007	3.405	0.189
47.999	110.954	79.997	19.995	100.922	20.004	3.643	0.194
49.999	111.396	79.997	19.995	100.936	20.007	3.380	0.218
51.999	111.806	79.996	19.995	100.937	20.004	3.627	0.196
53.999	112.285	79.994	19.996	100.937	20.007	3.395	0.208
56.000	112.846	79.994	19.995	100.944	20.002	3.800	0.282
57.999	113.318	79.995	19.996	100.941	20.003	3.698	0.256
59.999	113.844	79.995	19.996	100.938	19.999	3.992	0.251
61.999	114.403	79.997	19.997	100.938	20.005	3.578	0.272
64.000	114.996	79.995	19.996	100.954	20.006	3.472	0.302
65.999	115.597	79.997	19.995	100.955	20.004	3.594	0.282
67.999	116.235	79.998	19.995	100.947	19.999	4.016	0.346
70.000	116.844	79.997	19.995	100.964	20.000	3.891	0.329
71.999	117.525	79.997	19.996	100.967	20.004	3.659	0.353
73.999	118.159	79.997	19.996	100.973	20.003	3.735	0.328
75.999	118.854	79.997	19.995	100.971	20.002	3.813	0.329
77.999	119.603	79.995	19.996	100.961	19.999	4.010	0.358
79.999	120.340	79.996	19.996	100.966	19.998	4.082	0.342
81.999	121.063	79.996	19.995	100.973	19.996	4.191	0.384
83.999	121.830	79.996	19.997	100.972	19.997	4.151	0.359
85.999	122.628	79.995	19.996	100.964	19.998	4.074	0.369
87.999	123.422	79.995	19.998	100.970	20.001	3.867	0.398
89.999	124.194	79.995	19.997	100.970	20.000	3.914	0.407
91.999	124.983	79.994	19.996	100.973	19.997	4.151	0.412
94.000	125.802	79.996	19.997	100.974	19.999	4.020	0.389
96.000	126.642	79.995	19.996	100.974	19.994	4.345	0.429
98.000	127.471	79.994	19.994	100.973	19.994	4.390	0.436
99.999	128.320	79.994	19.995	100.974	19.998	4.090	0.430
101.999	129.160	79.995	19.996	100.975	19.996	4.227	0.424
103.999	130.047	79.996	19.996	100.974	19.995	4.287	0.429
106.000	130.889	79.995	19.997	100.974	19.991	4.560	0.430
107.999	131.802	79.994	19.995	100.975	19.994	4.348	0.438
110.000	132.701	79.994	19.997	100.976	19.994	4.378	0.433
111.999	133.587	79.994	19.997	100.976	19.992	4.550	0.449
113.999	134.526	79.995	19.996	100.975	19.994	4.392	0.461
115.999	135.442	79.993	19.998	100.978	19.996	4.215	0.491
117.999	136.375	79.994	19.997	100.984	19.998	4.092	0.489
119.999	137.318	79.996	19.996	100.980	19.995	4.283	0.458
121.999	138.266	79.995	19.996	100.976	19.992	4.484	0.510
123.999	139.195	79.997	19.995	100.976	19.996	4.209	0.443
125.999	140.198	79.996	19.996	100.977	19.998	4.042	0.521
127.999	141.167	79.996	19.996	100.976	19.996	4.201	0.481
130.000	142.153	79.996	19.996	100.973	19.997	4.160	0.490
132.000	143.148	79.995	19.997	100.978	19.998	4.066	0.475
134.000	144.135	79.996	19.996	100.974	19.997	4.178	0.476
136.000	145.114	79.995	19.995	100.974	19.997	4.146	0.478
138.000	146.172	79.996	19.995	100.973	19.995	4.322	0.537
140.000	147.152	79.996	19.995	100.972	19.999	4.020	0.500
142.000	148.136	79.996	19.994	100.970	19.996	4.249	0.481
144.000	149.125	79.996	19.996	100.969	19.996	4.208	0.508
146.000	150.123	79.997	19.996	100.969	19.998	4.108	0.498
148.000	151.123	79.996	19.996	100.957	19.999	3.995	0.486
150.000	152.116	79.998	19.996	100.953	19.997	4.166	0.512
152.000	153.118	79.997	19.997	100.962	20.001	3.881	0.491
154.000	154.111	79.997	19.996	100.962	19.996	4.202	0.506
156.000	155.083	79.997	19.995	100.967	19.998	4.072	0.467
158.000	156.145	79.994	19.994	100.946	19.995	4.292	0.477
160.000	157.147	79.994	19.995	100.952	19.994	4.360	0.513
162.000	158.142	79.995	19.995	100.971	19.996	4.250	0.479
164.000	159.184	79.997	19.995	100.953	19.997	4.151	0.511
166.000	160.144	79.995	19.996	100.958	19.997	4.109	0.501
168.000	161.151	79.995	19.995	100.949	19.998	4.103	0.511
170.000	162.175	79.996	19.995	100.948	19.997	4.129	0.502
172.000	163.148	79.995	19.996	100.938	19.996	4.185	0.489
174.000	164.143	79.995	19.996	100.943	19.999	3.989	0.508
176.000	165.188	79.995	19.996	100.941	20.000	3.956	0.515
178.000	166.242	79.994	19.997	100.937	19.999	4.009	0.526
180.000	167.207	79.995	19.996	100.939	20.001	3.858	0.502
182.000	168.256	79.994	19.996	100.939	19.999	3.964	0.507
184.000	169.221	79.996	19.995	100.939	19.997	4.119	0.485
186.000	170.213	79.996	19.995	100.939	19.999	3.964	0.481
188.000	171.247	79.995	19.996	100.937	20.000	3.934	0.493
190.000	172.238	79.996	19.996	100.936	20.000	3.944	0.509
192.000	173.213	79.994	19.997	100.935	20.000	3.908	0.482
194.000	174.276	79.994	19.996	100.934	20.002	3.765	0.508
196.000	175.209	79.994	19.996	100.934	20.001	3.836	0.464
198.000	176.210	79.995	19.995	100.934	19.999	3.986	0.463
200.000	177.237	79.996	19.996	100.931	19.998	4.082	0.498
202.000	178.276	79.996	19.997	100.932	20.001	3.864	0.505
204.000	179.226	79.996	19.998	100.932	20.001	3.860	0.488
206.000	180.204	79.996	19.998	100.931	20.001	3.882	0.483
208.000	181.195	79.996	19.997	100.935	20.002	3.759	0.465
210.000	182.224	79.997	19.997	100.931	19.999	4.008	0.528
212.000	183.164	79.995	19.997	100.930	20.005	3.572	0.474
214.000	184.138	79.995	19.996	100.929	20.005	3.585	0.472
216.000	185.108	79.996	19.996	100.927	20.007	3.376	0.472
218.000	186.141	79.996	19.995	100.931	20.005	3.548	0.495
220.000	187.200	79.996	19.995	100.924	20.004	3.663	0.525
222.000	188.132	79.995	19.996	100.923	20.003	3.701	0.463
224.000	189.092	79.997	19.994	100.927	20.002	3.761	0.459
226.000	190.110	79.997	19.996	100.927	20.004	3.593	0.510
228.000	191.143	79.997	19.995	100.929	20.003	3.731	0.512
230.000	192.088	79.996	19.995	100.927	20.004	3.620	0.485
232.000	193.072	79.997	19.997	100.918	20.003	3.711	0.452
234.000	194.079	79.998	19.996	100.929	20.002	3.785	0.539
236.000	195.028	79.996	19.996	100.929	20.003	3.735	0.489
238.000	195.985	79.995	19.995	100.924	20.002	3.787	0.467
240.000	196.985	79.996	19.995	100.908	20.001	3.848	0.497
242.000	197.953	79.997	19.995	100.928	20.001	3.841	0.524
244.000	198.921	79.994	19.995	100.923	20.000	3.948	0.506
246.000	199.901	79.995	19.994	100.927	19.999	3.980	0.475
248.000	200.854	79.996	19.995	100.926	20.001	3.823	0.511
250.000	201.801	79.995	19.995	100.932	19.999	4.016	0.478
252.000	202.800	79.996	19.996	100.923	19.999	3.986	0.510
254.000	203.749	79.996	19.995	100.928	20.000	3.927	0.493
256.000	204.736	79.996	19.995	100.926	19.997	4.120	0.501
258.000	205.718	79.997	19.996	100.927	19.997	4.174	0.496
260.000	206.725	79.996	19.995	100.924	19.999	4.020	0.492
262.000	207.722	79.994	19.996	100.921	20.000	3.909	0.491
264.000	208.687	79.997	19.997	100.923	19.997	4.134	0.461
266.000	209.652	79.995	19.996	100.911	19.992	4.485	0.475
268.000	210.627	79.995	19.998	100.918	19.996	4.237	0.469
270.000	211.599	79.994	19.996	100.918	19.995	4.287	0.458
272.000	212.592	79.996	19.995	100.927	19.995	4.290	0.491
274.000	213.554	79.995	19.997	100.904	19.991	4.619	0.502
276.000	214.583	79.996	19.995	100.906	19.993	4.421	0.495
278.000	215.536	79.996	19.996	100.912	19.989	4.764	0.484
280.000	216.506	79.997	19.996	100.916	19.992	4.494	0.487
282.000	217.463	79.996	19.995	100.922	19.990	4.676	0.461
284.000	218.460	79.997	19.996	100.906	19.992	4.537	0.484
286.000	219.431	79.997	19.996	100.920	19.990	4.638	0.527
288.000	220.380	79.996	19.997	100.922	19.991	4.616	0.498
290.000	221.347	79.995	19.996	100.926	19.991	4.570	0.502
292.000	222.296	79.997	19.996	100.925	19.992	4.544	0.464
294.000	223.276	79.995	19.996	100.917	19.992	4.488	0.509
296.000	224.269	79.995	19.997	100.916	19.987	4.901	0.496
298.000	225.237	79.994	19.995	100.924	19.985	5.036	0.521
300.000	226.175	79.995	19.996	100.910	19.983	5.171	0.477
302.000	227.174	79.996	19.995	100.927	19.981	5.325	0.506
304.000	228.162	79.997	19.995	100.920	19.982	5.265	0.524
306.000	229.175	79.998	19.995	100.925	19.979	5.488	0.498
308.000	230.132	79.998	19.996	100.928	19.979	5.494	0.458
310.000	231.102	79.997	19.996	100.933	19.973	5.903	0.484
312.000	232.090	79.997	19.995	100.934	19.972	6.018	0.461
314.000	233.061	79.999	19.996	100.928	19.972	6.019	0.487
316.000	234.006	79.997	19.995	100.928	19.969	6.190	0.477
318.000	234.999	79.995	19.996	100.932	19.969	6.212	0.501
320.000	235.939	79.996	19.995	100.931	19.968	6.298	0.485
322.000	236.929	79.996	19.996	100.933	19.965	6.473	0.486
324.000	237.859	79.996	19.995	100.926	19.964	6.609	0.488
326.000	238.878	79.998	19.995	100.926	19.957	7.112	0.484
328.000	239.813	79.995	19.995	100.932	19.959	6.929	0.488
330.000	240.779	79.996	19.996	100.931	19.953	7.380	0.462
332.000	241.769	79.996	19.995	100.891	19.949	7.671	0.498
334.000	242.794	79.997	19.996	100.925	19.953	7.411	0.505
336.000	243.805	79.998	19.996	100.985	19.948	7.756	0.502
338.000	244.756	79.998	19.995	100.935	19.946	7.921	0.503
340.000	245.765	79.996	19.996	100.933	19.945	8.005	0.480
342.000	246.698	79.999	19.994	100.934	19.941	8.276	0.501
344.000	247.739	79.997	19.995	100.935	19.940	8.341	0.542
346.000	248.673	79.994	19.996	100.937	19.938	8.469	0.471
348.000	249.711	79.995	19.996	100.936	19.931	9.014	0.520
350.000	250.694	79.993	19.996	100.936	19.930	9.099	0.485
352.000	251.654	79.994	19.997	100.943	19.926	9.361	0.482
354.000	252.684	79.996	19.996	100.889	19.922	9.661	0.509
356.000	253.664	79.995	19.996	100.961	19.922	9.702	0.508
358.000	254.667	79.995	19.997	100.988	19.921	9.786	0.475
360.000	255.678	79.996	19.997	100.944	19.914	10.295	0.511
362.000	256.643	79.997	19.996	100.939	19.907	10.755	0.488
364.000	257.606	79.997	19.994	100.950	19.904	11.009	0.517
366.000	258.611	79.996	19.997	100.955	19.906	10.892	0.504
368.000	259.620	79.998	19.996	100.942	19.902	11.167	0.516
370.000	260.598	79.997	19.995	100.950	19.894	11.726	0.450
372.000	261.593	79.996	19.997	100.957	19.891	11.954	0.488
374.000	262.616	79.995	19.997	100.965	19.888	12.189	0.487
376.000	263.557	79.996	19.996	100.967	19.884	12.483	0.464
378.000	264.575	79.997	19.997	100.952	19.879	12.881	0.548
380.000	265.592	79.996	19.997	100.947	19.873	13.320	0.504
382.000	266.584	79.998	19.995	100.957	19.869	13.594	0.501
384.000	267.570	79.997	19.996	100.957	19.865	13.894	0.467
386.000	268.594	79.997	19.998	100.962	19.862	14.071	0.520
388.000	269.572	79.997	19.997	100.960	19.856	14.528	0.476
390.000	270.584	79.998	19.997	100.961	19.852	14.879	0.485
392.000	271.584	79.998	19.996	100.970	19.847	15.249	0.505
394.000	272.584	79.996	19.997	100.966	19.838	15.865	0.504
396.000	273.593	79.996	19.995	100.966	19.836	16.048	0.502
398.000	274.580	79.997	19.996	100.971	19.831	16.392	0.504
400.000	275.598	79.995	19.996	100.971	19.824	16.898	0.513
402.000	276.622	79.995	19.996	100.972	19.823	16.961	0.517
404.000	277.597	79.998	19.996	100.973	19.816	17.494	0.522
406.000	278.604	79.996	19.996	100.973	19.813	17.699	0.530
408.000	279.590	79.996	19.996	100.975	19.808	18.130	0.479
410.000	280.614	79.996	19.997	100.978	19.801	18.572	0.516
412.000	281.589	79.995	19.995	100.983	19.798	18.844	0.512
414.000	282.589	79.994	19.997	100.979	19.791	19.317	0.469
416.000	283.623	79.995	19.995	100.975	19.784	19.859	0.496
418.000	284.630	79.997	19.995	100.988	19.778	20.286	0.485
420.000	285.669	79.997	19.995	100.994	19.768	21.035	0.514
422.000	286.671	79.997	19.996	100.984	19.764	21.348	0.479
424.000	287.732	79.996	19.995	101.001	19.761	21.621	0.497
426.000	288.758	79.996	19.995	101.002	19.756	21.951	0.496
428.000	289.758	79.996	19.995	101.008	19.750	22.352	0.529
430.000	290.767	79.995	19.994	101.012	19.740	23.085	0.494
432.000	291.778	79.995	19.995	101.042	19.736	23.388	0.499
434.000	292.837	79.994	19.995	101.150	19.729	23.897	0.505
436.000	293.829	79.995	19.995	101.028	19.721	24.512	0.516
438.000	294.865	79.997	19.995	101.015	19.710	25.366	0.500
440.000	295.907	79.997	19.996	101.012	19.704	25.797	0.520
442.000	296.892	79.997	19.995	101.012	19.692	26.638	0.537
444.000	297.877	79.997	19.996	101.010	19.686	27.120	0.498
446.000	298.862	79.996	19.996	101.007	19.677	27.795	0.500
448.000	299.848	79.996	19.996	101.010	19.672	28.144	0.487
450.000	300.847	79.998	19.995	101.010	19.663	28.783	0.510
452.000	301.823	79.997	19.995	101.016	19.654	29.466	0.488
454.000	302.798	79.998	19.995	101.030	19.644	30.233	0.495
456.000	303.796	79.997	19.995	101.029	19.636	30.771	0.510
458.000	304.779	79.996	19.998	101.024	19.623	31.765	0.470
460.000	305.759	79.997	19.995	101.006	19.613	32.465	0.477
462.000	306.783	79.998	19.995	101.004	19.606	33.039	0.476
464.000	307.776	79.999	19.994	101.025	19.595	33.860	0.476
466.000	308.708	79.998	19.996	101.029	19.584	34.667	0.465
468.000	309.702	79.998	19.996	101.020	19.578	35.081	0.518
470.000	310.739	79.998	19.998	101.027	19.567	35.897	0.517
472.000	311.627	79.999	19.996	101.046	19.558	36.577	0.447
474.000	312.669	79.995	19.998	101.048	19.549	37.212	0.513
476.000	313.649	79.996	19.996	101.050	19.540	37.868	0.469
478.000	314.666	79.994	19.998	101.057	19.528	38.822	0.508
480.000	315.604	79.994	19.997	101.058	19.517	39.615	0.473
482.000	316.653	79.995	19.997	101.064	19.507	40.369	0.520
484.000	317.606	79.994	19.996	101.062	19.496	41.159	0.479
486.000	318.625	79.995	19.996	101.073	19.482	42.203	0.475
488.000	319.573	79.994	19.995	101.077	19.474	42.783	0.482
490.000	320.564	79.996	19.993	101.082	19.464	43.507	0.467
492.000	321.538	79.995	19.996	101.086	19.453	44.354	0.468
494.000	322.519	79.995	19.995	101.089	19.446	44.815	0.484
496.000	323.518	79.996	19.995	101.084	19.437	45.483	0.514
498.000	324.424	79.996	19.995	101.095	19.427	46.221	0.471
500.000	325.421	79.995	19.995	101.094	19.421	46.672	0.521
502.000	326.418	79.993	19.995	101.095	19.412	47.370	0.486
504.000	327.391	79.995	19.996	101.094	19.403	48.013	0.493
506.000	328.368	79.996	19.997	101.096	19.392	48.881	0.510
508.000	329.384	79.994	19.996	101.099	19.386	49.286	0.502
510.000	330.344	79.995	19.995	101.106	19.377	49.987	0.508
512.000	331.279	79.994	19.996	101.103	19.369	50.570	0.462
514.000	332.261	79.996	19.996	101.116	19.366	50.795	0.468
516.000	333.292	79.993	19.995	101.108	19.357	51.455	0.504
518.000	334.231	79.996	19.994	101.116	19.348	52.099	0.506
520.000	335.243	79.996	19.994	101.128	19.343	52.490	0.471
522.000	336.215	79.998	19.994	101.126	19.337	52.947	0.478
524.000	337.179	79.997	19.995	101.126	19.333	53.214	0.493
526.000	338.162	79.996	19.996	101.128	19.322	53.998	0.480
528.000	339.165	79.997	19.995	101.128	19.319	54.247	0.473
530.000	340.163	79.997	19.995	101.127	19.312	54.797	0.523
532.000	341.139	79.996	19.995	101.127	19.302	55.504	0.507
534.000	342.178	79.996	19.995	101.129	19.297	55.872	0.532
536.000	343.174	79.996	19.996	101.130	19.286	56.706	0.511
538.000	344.220	79.996	19.996	101.128	19.279	57.210	0.554
540.000	345.280	79.996	19.995	101.123	19.267	58.100	0.555
542.000	346.302	79.996	19.995	101.119	19.259	58.708	0.532
544.000	347.331	79.997	19.995	101.128	19.252	59.223	0.508
546.000	348.395	79.997	19.995	101.137	19.241	60.001	0.533
548.000	349.442	79.998	19.995	101.141	19.232	60.695	0.529
550.000	350.497	79.997	19.996	101.146	19.219	61.657	0.520
552.000	351.588	79.998	19.995	101.162	19.207	62.510	0.548
554.000	352.676	79.997	19.996	101.167	19.193	63.589	0.541
556.000	353.764	79.995	19.995	101.169	19.179	64.635	0.547
558.000	354.876	79.996	19.995	101.163	19.163	65.817	0.566
560.000	355.941	79.995	19.996	101.160	19.146	67.054	0.555
562.000	357.007	79.995	19.997	101.149	19.128	68.436	0.527
564.000	358.092	79.995	19.995	101.151	19.112	69.577	0.563
566.000	359.220	79.996	19.996	101.185	19.100	70.460	0.553
568.000	360.279	79.994	19.997	101.207	19.081	71.931	0.559
570.000	361.312	79.996	19.997	101.207	19.065	73.071	0.520
572.000	362.427	79.993	19.998	101.214	19.053	73.955	0.525
574.000	363.535	79.995	19.996	101.225	19.036	75.255	0.565
576.000	364.577	79.995	19.997	101.221	19.023	76.168	0.517
578.000	365.652	79.996	19.994	101.220	19.009	77.198	0.542
580.000	366.749	79.996	19.995	101.227	18.995	78.237	0.518
582.000	367.796	79.995	19.997	101.224	18.981	79.265	0.558
584.000	368.885	79.999	19.995	101.224	18.978	79.499	0.523
586.000	369.983	79.998	20.000	101.218	18.972	79.961	0.564
588.000	371.022	79.994	19.996	101.211	18.973	79.872	0.507
590.000	372.079	79.996	19.996	101.209	18.967	80.254	0.535
592.000	373.164	79.993	19.996	101.208	18.971	79.955	0.540
594.000	374.235	79.995	19.995	101.200	18.979	79.353	0.550
596.000	375.270	79.997	19.996	101.175	18.994	78.276	0.513
598.000	376.307	79.997	19.996	101.168	19.010	77.074	0.520
600.000	377.398	79.994	20.000	101.154	19.032	75.419	0.532
602.000	378.481	79.997	19.998	101.139	19.054	73.802	0.554
604.000	379.501	79.999	19.998	101.120	19.083	71.593	0.501
606.000	380.596	79.993	19.995	101.097	19.115	69.208	0.510
608.000	381.630	79.999	19.995	101.090	19.157	66.160	0.545
610.000	382.712	79.997	19.996	101.061	19.196	63.249	0.561
612.000	383.777	79.998	19.997	101.050	19.250	59.246	0.523
614.000	384.795	79.998	19.995	101.042	19.277	57.235	0.511
616.000	385.849	79.998	19.994	101.015	19.331	53.273	0.531
618.000	386.920	79.997	19.994	101.001	19.378	49.783	0.535
620.000	387.956	79.998	19.994	100.979	19.422	46.556	0.558
622.000	389.001	79.998	19.994	100.970	19.469	43.047	0.512
624.000	390.006	79.995	19.998	100.958	19.516	39.585	0.507
626.000	391.051	79.996	19.993	100.938	19.559	36.398	0.532
628.000	392.097	80.000	19.995	100.935	19.602	33.299	0.533
630.000	393.214	79.996	19.993	100.933	19.643	30.226	0.512
632.000	394.195	79.997	19.994	100.913	19.678	27.690	0.494
634.000	395.289	79.996	19.994	100.903	19.713	25.075	0.543
636.000	396.357	79.998	19.996	100.904	19.741	22.996	0.548
638.000	397.324	79.996	19.997	100.900	19.764	21.333	0.523
640.000	398.341	79.997	19.996	100.899	19.785	19.771	0.529
642.000	399.377	79.998	19.993	100.899	19.806	18.209	0.524
644.000	400.400	79.995	19.997	100.898	19.825	16.826	0.504
646.000	401.404	79.992	20.004	100.894	19.836	15.988	0.503
648.000	402.442	79.998	19.995	100.900	19.852	14.860	0.520
650.000	403.440	79.999	20.000	100.893	19.861	14.143	0.507
652.000	404.434	79.992	19.996	100.895	19.870	13.518	0.486
654.000	405.440	79.995	19.997	100.897	19.871	13.411	0.500
656.000	406.462	79.996	19.994	100.894	19.880	12.773	0.513
658.000	407.448	79.995	19.996	100.897	19.883	12.555	0.475
660.000	408.462	79.997	19.998	100.893	19.887	12.278	0.523
662.000	409.491	79.996	19.996	100.898	19.888	12.152	0.496
664.000	410.466	79.997	19.996	100.903	19.894	11.731	0.499
666.000	411.460	79.994	19.995	100.895	19.897	11.485	0.511
668.000	412.408	79.993	19.997	100.898	19.897	11.506	0.459
670.000	413.404	79.992	19.999	100.899	19.900	11.293	0.497
672.000	414.398	79.998	19.993	100.898	19.903	11.075	0.489
674.000	415.369	79.995	19.991	100.903	19.907	10.790	0.491
676.000	416.331	79.996	19.995	100.903	19.903	11.052	0.489
678.000	417.315	79.995	19.998	100.902	19.905	10.955	0.491
680.000	418.322	79.997	19.993	100.902	19.909	10.619	0.463
682.000	419.325	79.995	19.996	100.903	19.910	10.549	0.474
684.000	420.302	79.996	19.995	100.908	19.911	10.467	0.481
686.000	421.300	79.999	19.996	100.906	19.910	10.584	0.493
688.000	422.260	79.997	19.997	100.907	19.913	10.329	0.499
690.000	423.268	79.992	19.996	100.907	19.914	10.292	0.505
692.000	424.248	80.001	19.995	100.906	19.913	10.368	0.467
694.000	425.258	80.000	19.989	100.907	19.914	10.231	0.506
696.000	426.234	80.002	19.992	100.909	19.912	10.390	0.487
698.000	427.210	79.994	19.999	100.911	19.916	10.093	0.491
700.000	428.178	80.001	19.990	100.904	19.917	10.023	0.481
702.000	429.172	80.001	19.996	100.900	19.918	9.974	0.491
704.000	430.131	79.998	19.992	100.898	19.917	10.005	0.459
706.000	431.168	79.997	19.996	100.901	19.916	10.117	0.504
708.000	432.141	79.998	19.994	100.899	19.918	9.988	0.504
710.000	433.162	79.994	20.001	100.901	19.915	10.187	0.517
712.000	434.162	80.000	19.996	100.901	19.918	9.951	0.510
714.000	435.162	79.995	19.995	100.900	19.921	9.730	0.521
716.000	436.178	79.998	19.997	100.901	19.918	9.940	0.493
718.000	437.173	79.997	19.995	100.898	19.920	9.852	0.518
720.000	438.154	79.998	19.994	100.899	19.924	9.523	0.460
722.000	439.132	79.996	19.993	100.899	19.926	9.411	0.505
724.000	440.157	79.998	19.990	100.906	19.925	9.437	0.489
726.000	441.141	79.998	19.996	100.897	19.925	9.417	0.491
728.000	442.154	79.996	19.995	100.897	19.931	9.018	0.522
730.000	443.149	79.995	19.998	100.901	19.928	9.202	0.494
732.000	444.153	79.994	19.995	100.902	19.928	9.198	0.492
734.000	445.138	79.993	19.996	100.905	19.936	8.628	0.456
736.000	446.118	79.994	19.997	100.902	19.929	9.142	0.488
738.000	447.101	79.998	19.995	100.911	19.926	9.361	0.457
740.000	448.154	79.995	19.996	100.903	19.936	8.610	0.502
742.000	449.166	79.997	19.996	100.899	19.937	8.556	0.507
744.000	450.105	79.996	19.995	100.894	19.935	8.726	0.514
746.000	451.274	79.999	19.992	100.901	19.932	8.923	0.571
748.000	452.197	79.995	19.996	100.903	19.936	8.620	0.612
750.000	453.224	79.995	19.997	100.905	19.938	8.476	0.405
752.000	453.942	79.996	19.996	100.898	19.937	8.579	0.112
754.000	455.297	79.989	20.007	100.899	19.939	8.447	0.504
756.000	456.232	79.995	19.999	100.893	19.941	8.303	0.459
758.000	457.147	79.996	19.993	100.897	19.944	8.019	0.499
760.000	458.192	79.995	19.995	100.901	19.945	7.990	0.539
762.000	459.241	79.994	19.998	100.907	19.946	7.899	0.488
764.000	460.176	79.995	19.994	100.916	19.945	7.996	0.530
766.000	461.273	80.001	19.994	100.926	19.948	7.744	0.511
768.000	462.248	79.998	19.997	100.919	19.944	8.036	0.539
770.000	463.253	80.000	19.990	100.915	19.949	7.666	0.521
772.000	464.208	79.996	19.995	100.918	19.948	7.726	0.511
774.000	465.264	79.996	19.997	100.905	19.949	7.698	0.485
776.000	466.277	79.996	19.997	100.908	19.950	7.603	0.514
778.000	467.251	79.996	19.996	100.919	19.953	7.356	0.531
780.000	468.267	79.997	19.995	100.913	19.954	7.352	0.523
782.000	469.274	79.997	19.994	100.913	19.955	7.269	0.469
784.000	470.302	79.996	19.995	100.915	19.954	7.308	0.528
786.000	471.291	79.998	19.996	100.923	19.957	7.067	0.459
788.000	472.350	79.997	19.994	100.927	19.952	7.492	0.531
790.000	473.384	80.000	19.993	100.923	19.955	7.249	0.550
792.000	474.445	79.999	19.994	100.919	19.956	7.177	0.499
794.000	475.484	79.999	19.994	100.922	19.958	7.039	0.519
796.000	476.466	80.000	19.994	100.930	19.957	7.057	0.521
798.000	477.492	79.996	19.994	100.929	19.959	6.980	0.520
800.000	478.535	79.996	19.996	100.923	19.957	7.119	0.524
802.000	479.563	79.997	19.995	100.925	19.957	7.060	0.524
804.000	480.570	79.995	19.995	100.916	19.959	6.961	0.521
806.000	481.610	79.996	19.996	100.899	19.959	6.937	0.540
808.000	482.648	79.995	19.997	100.911	19.960	6.869	0.511
810.000	483.673	79.996	19.996	100.919	19.961	6.819	0.536
812.000	484.663	79.996	19.996	100.927	19.961	6.781	0.544
814.000	485.672	79.996	19.996	100.913	19.960	6.855	0.526
816.000	486.665	79.993	19.997	100.902	19.961	6.785	0.490
818.000	487.718	79.996	19.996	100.904	19.961	6.824	0.549
820.000	488.702	79.995	19.996	100.907	19.960	6.881	0.511
822.000	489.760	79.996	19.996	100.916	19.961	6.767	0.524
824.000	490.736	79.995	19.995	100.916	19.959	6.955	0.502
826.000	491.702	79.995	19.995	100.919	19.962	6.746	0.467
828.000	492.693	79.994	19.996	100.924	19.962	6.708	0.499
830.000	493.694	79.996	19.995	100.916	19.962	6.760	0.520
832.000	494.672	79.995	19.996	100.908	19.961	6.807	0.463
834.000	495.680	79.994	19.997	100.919	19.957	7.077	0.483
836.000	496.653	79.994	19.998	100.901	19.961	6.814	0.482
838.000	497.621	79.995	19.997	100.901	19.959	6.977	0.450
840.000	498.581	79.996	19.996	100.909	19.958	7.057	0.446
842.000	499.518	79.994	19.998	100.902	19.956	7.187	0.460
844.000	500.556	79.996	19.997	100.918	19.956	7.189	0.505
846.000	501.522	79.996	19.996	100.930	19.961	6.804	0.508
848.000	502.473	79.996	19.997	100.929	19.958	7.037	0.482
850.000	503.500	79.995	19.995	100.930	19.958	7.055	0.519
852.000	504.526	79.998	19.997	100.930	19.956	7.138	0.510
854.000	505.507	79.995	19.996	100.927	19.958	7.019	0.527
856.000	506.585	79.997	19.995	100.927	19.958	7.015	0.522
858.000	507.637	79.996	19.994	100.931	19.958	6.985	0.518
860.000	508.714	79.998	19.995	100.934	19.956	7.135	0.539
862.000	509.779	79.995	19.995	100.935	19.960	6.860	0.519
864.000	510.833	79.997	19.995	100.935	19.960	6.876	0.534
866.000	511.893	79.998	19.995	100.935	19.958	7.043	0.535
868.000	512.982	79.997	19.995	100.933	19.957	7.087	0.543
870.000	514.076	79.998	19.995	100.931	19.958	7.005	0.554
872.000	515.192	80.000	19.995	100.930	19.961	6.817	0.553
874.000	516.273	79.998	19.995	100.929	19.956	7.194	0.562
876.000	517.351	79.999	19.994	100.931	19.961	6.766	0.559
878.000	518.447	79.997	19.995	100.934	19.960	6.873	0.558
880.000	519.525	79.997	19.995	100.935	19.960	6.907	0.531
882.000	520.607	79.995	19.996	100.935	19.961	6.766	0.518
884.000	521.681	79.996	19.997	100.934	19.959	6.939	0.524
886.000	522.763	79.997	19.995	100.930	19.962	6.754	0.543
888.000	523.784	79.996	19.996	100.936	19.960	6.895	0.504
890.000	524.897	79.995	19.997	100.934	19.954	7.286	0.578
892.000	525.959	79.995	19.996	100.932	19.958	7.057	0.560
894.000	527.051	79.997	19.995	100.932	19.960	6.858	0.540
896.000	528.165	79.996	19.995	100.928	19.957	7.091	0.549
898.000	529.239	79.996	19.996	100.928	19.959	6.979	0.587
900.000	530.364	79.997	19.995	100.931	19.957	7.129	0.559
902.000	531.412	79.996	19.996	100.931	19.959	6.925	0.551
904.000	532.496	79.996	19.996	100.929	19.958	6.997	0.536
906.000	533.665	79.997	19.996	100.921	19.960	6.868	0.578
908.000	534.756	79.996	19.997	100.925	19.961	6.766	0.551
910.000	535.846	79.997	19.995	100.930	19.957	7.120	0.544
912.000	536.911	79.996	19.996	100.931	19.957	7.111	0.496
914.000	538.027	79.996	19.996	100.931	19.956	7.155	0.521
916.000	539.124	79.995	19.996	100.931	19.954	7.352	0.527
918.000	540.236	79.997	19.996	100.923	19.954	7.316	0.547
920.000	541.317	79.996	19.997	100.929	19.953	7.368	0.572
922.000	542.409	79.995	19.997	100.933	19.953	7.425	0.536
924.000	543.463	79.995	19.995	100.928	19.952	7.437	0.496
926.000	544.590	79.996	19.996	100.926	19.950	7.631	0.556
928.000	545.655	79.996	19.996	100.925	19.954	7.340	0.544
930.000	546.717	79.997	19.997	100.932	19.953	7.356	0.544
932.000	547.796	79.997	19.997	100.932	19.951	7.550	0.507
934.000	548.850	79.996	19.996	100.932	19.954	7.308	0.521
936.000	549.951	79.997	19.996	100.929	19.954	7.318	0.546
938.000	551.028	79.997	19.996	100.931	19.954	7.349	0.512
940.000	552.091	79.997	19.996	100.932	19.957	7.125	0.534
942.000	553.150	79.998	19.997	100.926	19.956	7.149	0.530
944.000	554.254	79.996	19.996	100.927	19.959	6.981	0.566
946.000	555.307	79.996	19.995	100.933	19.959	6.927	0.519
948.000	556.395	79.997	19.995	100.915	19.959	6.953	0.549
950.000	557.409	79.997	19.995	100.924	19.961	6.830	0.496
952.000	558.490	79.999	19.994	100.930	19.956	7.139	0.540
954.000	559.553	79.999	19.995	100.929	19.954	7.304	0.547
956.000	560.618	80.002	19.996	100.931	19.953	7.408	0.531
958.000	561.702	79.999	19.995	100.929	19.953	7.396	0.562
960.000	562.729	79.998	19.995	100.928	19.951	7.503	0.539
962.000	563.732	79.997	19.996	100.923	19.952	7.451	0.511
964.000	564.775	79.996	19.995	100.930	19.954	7.334	0.507
966.000	565.809	79.997	19.996	100.931	19.951	7.523	0.538
968.000	566.792	79.996	19.995	100.929	19.953	7.406	0.480
970.000	567.830	79.996	19.997	100.929	19.954	7.336	0.542
972.000	568.855	79.996	19.996	100.930	19.953	7.416	0.531
974.000	569.866	79.997	19.996	100.931	19.951	7.553	0.515
976.000	570.866	79.996	19.997	100.928	19.949	7.696	0.463
978.000	571.922	79.997	19.994	100.930	19.950	7.589	0.489
980.000	572.960	79.996	19.996	100.925	19.950	7.582	0.514
982.000	573.996	79.997	19.996	100.920	19.949	7.659	0.540
984.000	575.040	79.998	19.995	100.928	19.949	7.713	0.537
986.000	576.060	79.997	19.995	100.931	19.949	7.657	0.509
988.000	577.115	79.997	19.996	100.933	19.948	7.774	0.536
990.000	578.103	79.995	19.996	100.922	19.947	7.866	0.503
992.000	579.123	79.995	19.995	100.926	19.947	7.800	0.517
994.000	580.137	79.996	19.996	100.925	19.945	7.975	0.507
996.000	581.180	79.996	19.997	100.933	19.949	7.717	0.522
998.000	582.163	79.995	19.997	100.934	19.949	7.669	0.493
1000.000	583.127	79.996	19.997	100.933	19.951	7.563	0.494
1002.000	584.163	79.995	19.998	100.933	19.949	7.672	0.522
1004.000	585.197	79.996	19.997	100.934	19.948	7.731	0.498
1006.000	586.213	79.996	19.995	100.933	19.949	7.681	0.521
1008.000	587.193	79.997	19.995	100.930	19.948	7.737	0.511
1010.000	588.236	79.998	19.996	100.928	19.948	7.763	0.519
1012.000	589.263	79.997	19.996	100.935	19.954	7.280	0.495
1014.000	590.264	79.998	19.996	100.934	19.948	7.746	0.509
1016.000	591.310	79.998	19.996	100.930	19.949	7.659	0.521
1018.000	592.286	79.998	19.997	100.931	19.950	7.633	0.491
1020.000	593.323	79.997	19.996	100.926	19.946	7.878	0.514
1022.000	594.357	79.996	19.998	100.929	19.949	7.659	0.499
1024.000	595.413	79.996	19.997	100.930	19.949	7.663	0.515
1025.999	596.382	79.996	19.999	100.930	19.953	7.374	0.506
1027.999	597.431	79.997	19.997	100.929	19.944	8.053	0.511
1029.999	598.437	79.996	19.997	100.928	19.946	7.918	0.506
1032.000	599.456	79.998	19.997	100.930	19.943	8.129	0.493
1033.999	600.457	79.999	19.997	100.930	19.944	8.016	0.505
1035.999	601.494	79.999	19.995	100.930	19.943	8.109	0.508
1037.999	602.489	80.000	19.995	100.929	19.944	8.081	0.468
1040.000	603.514	79.999	19.996	100.930	19.941	8.257	0.538
1041.999	604.485	80.000	19.995	100.930	19.943	8.157	0.479
1043.999	605.454	79.998	19.996	100.930	19.941	8.254	0.468
1046.000	606.458	79.998	19.997	100.930	19.945	8.007	0.499
1047.999	607.478	79.995	19.996	100.930	19.946	7.929	0.509
1049.999	608.496	79.996	19.995	100.932	19.946	7.884	0.519
1051.999	609.478	79.996	19.995	100.930	19.943	8.145	0.501
1053.999	610.469	79.996	19.997	100.931	19.944	8.063	0.484
1055.999	611.481	79.995	19.996	100.934	19.940	8.336	0.522
1057.999	612.505	79.995	19.997	100.935	19.939	8.434	0.495
1059.999	613.486	79.996	19.996	100.934	19.941	8.266	0.507
1061.999	614.563	79.997	19.996	100.934	19.942	8.184	0.521
1063.999	615.597	79.998	19.996	100.934	19.940	8.324	0.538
1065.999	616.595	79.998	19.997	100.935	19.942	8.187	0.486
1068.000	617.642	79.996	19.995	100.936	19.942	8.202	0.528
1069.999	618.597	79.998	19.996	100.935	19.937	8.595	0.490
1071.999	619.621	79.996	19.996	100.935	19.938	8.517	0.505
1074.000	620.644	79.998	19.995	100.937	19.940	8.366	0.510
1075.999	621.663	79.998	19.996	100.936	19.939	8.396	0.481
1077.999	622.620	79.998	19.995	100.936	19.942	8.235	0.494
1080.000	623.641	79.997	19.996	100.936	19.937	8.599	0.508
1081.999	624.650	79.997	19.996	100.935	19.940	8.340	0.477
1084.000	625.616	79.996	19.996	100.934	19.938	8.490	0.453
1085.999	626.641	79.997	19.995	100.933	19.937	8.572	0.492
1087.999	627.656	79.997	19.996	100.932	19.936	8.616	0.522
1089.999	628.666	79.997	19.998	100.931	19.935	8.699	0.501
1091.999	629.645	79.997	19.998	100.930	19.934	8.821	0.501
1093.999	630.638	79.998	19.997	100.931	19.939	8.402	0.508
1095.999	631.641	79.999	19.997	100.929	19.937	8.536	0.469
1097.999	632.658	79.999	19.996	100.918	19.937	8.551	0.495
1099.999	633.639	79.998	19.998	100.930	19.939	8.438	0.479
1101.999	634.664	79.997	19.995	100.931	19.936	8.647	0.504
1103.999	635.665	79.997	19.996	100.929	19.935	8.741	0.506
1105.999	636.635	79.997	19.996	100.930	19.937	8.535	0.469
1107.999	637.676	79.998	19.996	100.932	19.935	8.693	0.495
1110.000	638.711	79.996	19.996	100.934	19.940	8.348	0.490
1111.999	639.694	79.998	19.997	100.932	19.937	8.542	0.513
1113.999	640.719	79.998	19.996	100.932	19.940	8.360	0.526
1115.999	641.732	79.999	19.995	100.934	19.938	8.499	0.503
1117.999	642.703	79.998	19.997	100.935	19.936	8.659	0.501
1119.999	643.733	79.997	19.996	100.933	19.939	8.450	0.525
1121.999	644.703	80.000	19.996	100.934	19.936	8.643	0.497
1123.999	645.714	79.998	19.995	100.932	19.933	8.868	0.487
1126.000	646.741	79.997	19.996	100.933	19.933	8.828	0.539
1127.999	647.767	79.995	19.995	100.935	19.934	8.810	0.515
1130.000	648.772	79.996	19.995	100.934	19.932	8.917	0.495
1131.999	649.754	79.996	19.995	100.934	19.932	8.907	0.521
1133.999	650.824	79.996	19.995	100.935	19.936	8.673	0.528
1135.999	651.840	79.996	19.994	100.935	19.934	8.820	0.520
1137.999	652.815	79.995	19.996	100.935	19.934	8.807	0.457
1139.999	653.848	79.995	19.996	100.927	19.933	8.868	0.488
1142.000	654.858	79.996	19.995	100.923	19.930	9.060	0.536
1143.999	655.865	79.997	19.996	100.930	19.936	8.615	0.493
1145.999	656.901	79.998	19.995	100.935	19.934	8.820	0.498
1147.999	657.888	79.998	19.995	100.933	19.933	8.834	0.481
1149.999	658.937	79.999	19.996	100.932	19.934	8.771	0.539
1151.999	659.939	79.998	19.996	100.931	19.931	9.024	0.492
1153.999	660.971	79.997	19.996	100.929	19.935	8.721	0.502
1155.999	661.961	79.998	19.995	100.932	19.933	8.876	0.488
1157.999	663.015	79.997	19.996	100.932	19.933	8.830	0.529
1159.999	663.993	79.998	19.996	100.933	19.934	8.793	0.493
1161.999	665.036	79.999	19.995	100.934	19.933	8.886	0.494
1163.999	665.983	79.999	19.995	100.934	19.929	9.138	0.482
1165.999	667.035	79.997	19.996	100.934	19.929	9.147	0.507
1167.999	668.075	79.997	19.996	100.934	19.928	9.217	0.561
1170.000	669.044	79.999	19.996	100.933	19.931	9.042	0.514
1172.000	670.082	79.999	19.995	100.932	19.928	9.263	0.502
1173.999	671.077	79.998	19.996	100.932	19.928	9.229	0.513
1176.000	672.083	80.000	19.996	100.929	19.930	9.097	0.480
1177.999	673.022	80.000	19.996	100.932	19.928	9.253	0.465
1179.999	674.108	79.998	19.996	100.931	19.927	9.285	0.530
1181.999	675.092	79.998	19.997	100.933	19.928	9.263	0.486
1183.999	676.126	79.998	19.997	100.937	19.929	9.183	0.493
1185.999	677.138	79.997	19.996	100.935	19.927	9.296	0.518
1187.999	678.101	79.997	19.996	100.934	19.926	9.406	0.474
1189.999	679.081	79.998	19.997	100.935	19.927	9.300	0.495
1192.000	680.091	79.998	19.997	100.936	19.925	9.421	0.502
1193.999	681.023	79.998	19.996	100.936	19.924	9.498	0.485
1195.999	682.038	79.997	19.996	100.936	19.926	9.374	0.504
1197.999	682.975	79.999	19.996	100.936	19.925	9.486	0.488
1199.999	683.905	79.999	19.996	100.938	19.924	9.516	0.450
1201.999	684.826	79.998	19.996	100.933	19.919	9.886	0.444
1203.999	685.751	80.000	19.996	100.931	19.924	9.539	0.445
1205.999	686.678	79.999	19.997	100.935	19.922	9.691	0.466
1208.000	687.608	79.997	19.997	100.935	19.925	9.456	0.449
1209.999	688.570	79.997	19.996	100.935	19.925	9.422	0.470
1211.999	689.490	79.998	19.998	100.933	19.925	9.474	0.485
1213.999	690.510	79.997	19.997	100.942	19.928	9.207	0.508
1215.999	691.444	79.997	19.998	100.931	19.922	9.642	0.481
1217.999	692.413	79.997	19.996	100.932	19.922	9.678	0.487
1219.999	693.424	79.996	19.996	100.932	19.920	9.791	0.511
1221.999	694.443	79.999	19.996	100.933	19.921	9.784	0.508
1223.999	695.443	79.996	19.996	100.931	19.922	9.663	0.504
1225.999	696.471	79.998	19.995	100.936	19.922	9.668	0.481
1227.999	697.509	79.998	19.995	100.949	19.922	9.685	0.522
1229.999	698.493	79.999	19.996	100.936	19.920	9.829	0.512
1231.999	699.519	79.999	19.996	100.938	19.920	9.860	0.491
1233.999	700.541	79.998	19.995	100.939	19.921	9.760	0.513
1235.999	701.604	79.999	19.995	100.937	19.923	9.636	0.532
1237.999	702.668	79.998	19.996	100.942	19.919	9.880	0.534
1239.999	703.696	79.997	19.995	100.937	19.921	9.745	0.514
1241.999	704.766	79.997	19.996	100.938	19.917	10.034	0.537
1243.999	705.815	79.997	19.996	100.945	19.916	10.136	0.535
1245.999	706.870	79.997	19.994	100.948	19.915	10.202	0.535
1247.999	707.917	79.998	19.995	100.943	19.915	10.217	0.518
1249.999	708.995	79.997	19.995	100.937	19.917	10.039	0.542
1251.999	710.043	79.997	19.996	100.947	19.916	10.102	0.519
1253.999	711.135	80.001	19.994	100.953	19.912	10.395	0.564
1255.999	712.157	80.000	19.995	100.951	19.915	10.205	0.462
1257.999	713.187	79.999	19.996	100.947	19.910	10.531	0.512
1259.999	714.225	80.000	19.995	100.943	19.911	10.462	0.551
1262.000	715.339	79.999	19.994	100.950	19.914	10.260	0.555
1264.000	716.463	79.998	19.994	100.953	19.911	10.519	0.560
1265.999	717.474	79.997	19.996	100.948	19.910	10.536	0.575
1267.999	718.529	79.998	19.994	100.954	19.911	10.453	0.552
1270.000	719.572	79.996	19.997	100.944	19.909	10.634	0.539
1271.999	720.588	79.997	19.997	100.945	19.910	10.542	0.511
1273.999	721.657	79.999	19.996	100.951	19.906	10.819	0.532
1275.999	722.733	80.000	19.997	100.945	19.910	10.567	0.545
1277.999	723.740	79.999	19.996	100.958	19.906	10.819	0.548
1279.999	724.773	80.000	19.995	100.939	19.908	10.705	0.521
1281.999	725.822	80.000	19.995	100.935	19.907	10.778	0.518
1283.999	726.925	80.000	19.995	100.932	19.906	10.871	0.544
1285.999	727.918	79.999	19.997	100.940	19.904	10.970	0.505
1287.999	728.929	79.999	19.996	100.935	19.903	11.071	0.534
1289.999	729.984	79.999	19.995	100.935	19.904	11.001	0.509
1291.999	730.987	79.998	19.996	100.940	19.909	10.627	0.499
1293.999	732.055	79.999	19.997	100.949	19.907	10.754	0.520
1295.999	733.102	79.997	19.998	100.956	19.909	10.655	0.529
1298.001	734.127	79.997	19.995	100.952	19.907	10.772	0.533
1299.999	735.132	79.996	19.996	100.938	19.905	10.948	0.532
1301.999	736.168	79.996	19.996	100.948	19.904	11.020	0.516
1303.999	737.180	79.997	19.997	100.943	19.902	11.159	0.503
1305.999	738.229	79.997	19.999	100.943	19.903	11.060	0.517
1307.999	739.291	79.997	19.997	100.945	19.905	10.962	0.516
1309.999	740.331	79.996	19.996	100.940	19.902	11.126	0.496
1311.999	741.328	79.997	19.995	100.942	19.902	11.123	0.511
1313.999	742.356	79.998	19.995	100.960	19.901	11.198	0.512
1315.999	743.393	79.999	19.996	100.958	19.904	11.042	0.516
1316.499	743.647	79.997	19.994	100.959	19.903	11.077	0.522