File: 01_Data/PVC_R01/MCC/PVC_MCC_30K_min_210924_R4.txt
Sample ID:	C:\MCC\MCC Cal\Test\PVC_MCC_30K_min_210924_R4.txt
Sample Weight (mg):	4.81
Heating Rate (C/s):	0.5
Combustor Temp (C):	900
N2 Flow Rate (cc/min):	80
O2 Flow Rate (cc/min):	20
Calibration File:	C:\MCC\MCC Cal\Coeff1 JN10440_30_210304.txt.txt
T Correction Coefficients:	0	1.024463	0
Time Shift (s):	14
*
Time (s)	Temperature (C)	N2 flow rate (cc/min)	O2 flow rate (cc/min)	Flow Rate (cc/min)	Oxygen (%)	HRR (W/g)	Heating rate (C/s)
0.000	108.176	80.018	19.996	100.028	20.215	-0.140	0.025
2.000	108.168	80.008	19.995	100.045	20.216	-0.172	0.020
4.000	108.168	80.008	19.995	100.030	20.219	-0.398	0.007
6.000	108.145	80.006	19.997	100.034	20.220	-0.423	0.000
8.000	108.134	80.008	19.997	100.035	20.218	-0.327	0.003
10.000	108.146	80.006	19.997	100.035	20.216	-0.173	-0.008
12.000	108.163	80.004	19.997	100.056	20.215	-0.099	0.011
14.000	108.160	80.006	19.996	100.063	20.214	-0.057	-0.014
16.000	108.147	80.005	19.997	100.065	20.211	0.126	0.004
18.000	108.204	80.005	19.996	100.090	20.209	0.239	0.009
20.000	108.226	80.006	19.996	100.107	20.211	0.133	0.014
22.000	108.299	80.005	19.995	100.127	20.206	0.485	0.037
24.000	108.358	80.006	19.996	100.145	20.203	0.644	0.036
26.000	108.489	80.008	19.995	100.150	20.200	0.859	0.057
28.001	108.562	80.008	19.996	100.146	20.199	0.880	0.026
30.000	108.768	80.009	19.995	100.161	20.200	0.861	0.076
32.000	108.922	80.008	19.995	100.160	20.195	1.167	0.109
34.000	109.118	80.006	19.994	100.158	20.198	1.004	0.118
36.000	109.301	80.007	19.996	100.179	20.194	1.215	0.120
38.000	109.512	80.008	19.994	100.188	20.187	1.706	0.140
40.000	109.794	80.009	19.995	100.209	20.188	1.605	0.157
42.000	110.080	80.008	19.995	100.211	20.188	1.640	0.184
44.000	110.378	80.008	19.995	100.216	20.189	1.557	0.172
46.000	110.626	80.008	19.996	100.215	20.188	1.655	0.130
48.000	110.988	80.007	19.995	100.214	20.184	1.858	0.156
50.001	111.387	80.010	19.995	100.215	20.188	1.608	0.206
52.000	111.715	80.011	19.995	100.220	20.184	1.897	0.171
54.000	112.131	80.011	19.995	100.224	20.184	1.878	0.217
56.000	112.570	80.009	19.995	100.229	20.185	1.848	0.229
58.000	112.999	80.010	19.995	100.235	20.184	1.891	0.218
60.000	113.461	80.010	19.996	100.223	20.184	1.905	0.253
62.000	113.917	80.005	19.996	100.217	20.183	1.923	0.235
64.000	114.450	80.008	19.995	100.221	20.181	2.077	0.257
66.000	114.916	80.008	19.995	100.239	20.182	2.032	0.231
68.000	115.467	80.006	19.996	100.258	20.182	2.050	0.276
70.000	115.997	80.005	19.995	100.258	20.179	2.224	0.258
72.000	116.575	80.008	19.994	100.255	20.179	2.207	0.296
74.001	117.110	80.007	19.995	100.256	20.182	2.040	0.274
76.000	117.714	80.008	19.995	100.258	20.180	2.129	0.278
78.000	118.301	80.008	19.995	100.258	20.177	2.347	0.295
80.001	118.900	80.007	19.996	100.261	20.176	2.411	0.312
82.000	119.586	80.006	19.996	100.275	20.175	2.469	0.322
84.000	120.210	80.008	19.996	100.285	20.176	2.434	0.352
86.000	120.874	80.008	19.995	100.282	20.173	2.592	0.354
88.000	121.617	80.006	19.995	100.288	20.174	2.570	0.384
90.001	122.358	80.006	19.996	100.286	20.175	2.499	0.417
92.001	123.066	80.007	19.996	100.287	20.176	2.389	0.364
94.000	123.802	80.006	19.994	100.295	20.177	2.370	0.356
96.000	124.556	80.007	19.996	100.294	20.175	2.453	0.364
98.000	125.329	80.008	19.995	100.290	20.177	2.333	0.397
100.000	126.051	80.006	19.996	100.289	20.174	2.565	0.362
102.000	126.870	80.008	19.996	100.290	20.175	2.457	0.391
104.000	127.669	80.009	19.995	100.292	20.176	2.439	0.409
106.000	128.493	80.007	19.996	100.294	20.174	2.524	0.425
108.000	129.303	80.010	19.996	100.293	20.176	2.439	0.400
110.000	130.066	80.007	19.997	100.291	20.176	2.393	0.364
112.001	130.938	80.009	19.997	100.281	20.174	2.515	0.397
114.000	131.797	80.008	19.995	100.286	20.175	2.501	0.435
116.000	132.603	80.007	19.996	100.284	20.174	2.563	0.409
118.000	133.509	80.008	19.996	100.281	20.174	2.513	0.465
120.000	134.416	80.010	19.996	100.280	20.176	2.395	0.437
122.000	135.241	80.005	19.996	100.284	20.177	2.358	0.431
124.000	136.111	80.008	19.995	100.280	20.175	2.457	0.439
126.001	137.039	80.009	19.996	100.280	20.172	2.668	0.448
128.000	137.951	80.008	19.995	100.283	20.175	2.501	0.419
130.000	138.883	80.010	19.995	100.290	20.175	2.459	0.439
132.000	139.777	80.010	19.996	100.292	20.175	2.492	0.438
134.000	140.741	80.010	19.995	100.293	20.171	2.714	0.461
136.000	141.636	80.011	19.994	100.288	20.174	2.537	0.461
138.000	142.568	80.009	19.995	100.285	20.173	2.576	0.426
140.000	143.496	80.010	19.995	100.289	20.173	2.615	0.496
142.000	144.462	80.009	19.995	100.290	20.173	2.631	0.508
144.000	145.387	80.008	19.996	100.294	20.175	2.506	0.475
146.000	146.382	80.008	19.995	100.288	20.172	2.685	0.510
148.001	147.299	80.006	19.995	100.295	20.173	2.572	0.472
150.000	148.277	80.006	19.995	100.294	20.175	2.460	0.508
152.000	149.226	80.007	19.995	100.292	20.176	2.432	0.457
154.000	150.228	80.007	19.995	100.284	20.175	2.506	0.472
156.000	151.219	80.007	19.995	100.281	20.177	2.355	0.489
158.000	152.182	80.008	19.995	100.287	20.174	2.545	0.500
160.000	153.150	80.010	19.995	100.281	20.176	2.423	0.510
162.000	154.144	80.009	19.994	100.286	20.177	2.373	0.494
164.000	155.094	80.010	19.994	100.271	20.180	2.178	0.465
166.000	156.099	80.007	19.995	100.262	20.175	2.460	0.495
168.000	157.077	80.008	19.995	100.277	20.177	2.369	0.498
170.000	158.068	80.007	19.994	100.270	20.175	2.488	0.482
172.000	159.059	80.008	19.995	100.267	20.179	2.240	0.499
174.000	160.082	80.005	19.996	100.261	20.177	2.355	0.498
176.000	161.128	80.007	19.995	100.264	20.179	2.236	0.497
178.000	162.121	80.009	19.996	100.264	20.177	2.344	0.501
180.001	163.102	80.005	19.996	100.258	20.175	2.445	0.489
182.000	164.151	80.007	19.996	100.268	20.178	2.259	0.520
184.000	165.142	80.007	19.996	100.256	20.181	2.073	0.516
186.000	166.213	80.008	19.996	100.268	20.178	2.298	0.519
188.000	167.194	80.009	19.996	100.258	20.177	2.374	0.490
190.000	168.203	80.008	19.996	100.257	20.177	2.328	0.494
192.000	169.218	80.008	19.995	100.259	20.179	2.188	0.520
194.000	170.238	80.009	19.997	100.257	20.180	2.153	0.512
196.000	171.268	80.009	19.995	100.256	20.182	1.997	0.511
198.000	172.273	80.010	19.996	100.256	20.183	1.923	0.497
200.000	173.278	80.007	19.996	100.257	20.182	2.025	0.486
202.000	174.262	80.008	19.996	100.257	20.182	2.048	0.511
204.000	175.292	80.007	19.995	100.258	20.181	2.085	0.504
206.000	176.302	80.009	19.996	100.259	20.181	2.107	0.517
208.000	177.362	80.007	19.996	100.258	20.183	1.972	0.532
210.000	178.330	80.007	19.996	100.256	20.182	2.030	0.493
212.000	179.363	80.008	19.996	100.256	20.180	2.121	0.499
214.000	180.359	80.006	19.995	100.252	20.180	2.124	0.467
216.000	181.346	80.006	19.996	100.249	20.181	2.086	0.489
218.000	182.366	80.009	19.995	100.250	20.186	1.765	0.480
220.000	183.330	80.008	19.995	100.242	20.182	2.050	0.488
222.000	184.311	80.009	19.995	100.243	20.183	1.963	0.482
224.000	185.345	80.008	19.994	100.250	20.185	1.810	0.460
226.000	186.345	80.008	19.994	100.257	20.186	1.731	0.493
228.000	187.358	80.010	19.996	100.255	20.186	1.736	0.481
230.000	188.341	80.006	19.994	100.252	20.186	1.777	0.491
232.000	189.377	80.007	19.995	100.247	20.185	1.849	0.508
234.000	190.359	80.007	19.995	100.229	20.186	1.729	0.496
236.000	191.338	80.008	19.995	100.229	20.188	1.603	0.482
238.000	192.349	80.007	19.995	100.235	20.186	1.736	0.509
240.001	193.324	80.007	19.995	100.223	20.187	1.679	0.505
242.000	194.273	80.006	19.995	100.230	20.186	1.764	0.470
244.000	195.248	80.008	19.995	100.227	20.188	1.617	0.466
246.000	196.218	80.006	19.994	100.234	20.189	1.584	0.470
248.000	197.233	80.007	19.996	100.230	20.188	1.605	0.503
250.001	198.264	80.006	19.995	100.230	20.187	1.710	0.540
252.000	199.189	80.006	19.995	100.226	20.189	1.562	0.500
254.000	200.146	80.007	19.994	100.226	20.189	1.591	0.459
256.000	201.095	80.005	19.994	100.229	20.191	1.426	0.474
258.000	202.090	80.008	19.995	100.226	20.189	1.593	0.503
260.000	203.063	80.007	19.994	100.233	20.188	1.621	0.498
262.000	204.042	80.004	19.996	100.233	20.189	1.566	0.523
264.000	204.989	80.007	19.995	100.220	20.187	1.697	0.455
266.000	206.013	80.008	19.995	100.225	20.189	1.566	0.536
268.000	206.964	80.008	19.995	100.230	20.190	1.522	0.488
270.000	207.968	80.008	19.995	100.230	20.188	1.612	0.492
272.000	208.941	80.008	19.995	100.230	20.187	1.670	0.498
274.001	209.892	80.008	19.994	100.234	20.189	1.582	0.481
276.000	210.842	80.009	19.995	100.228	20.185	1.832	0.476
278.000	211.824	80.007	19.995	100.224	20.189	1.561	0.470
280.000	212.806	80.007	19.996	100.221	20.186	1.738	0.484
282.000	213.764	80.008	19.995	100.209	20.188	1.612	0.465
284.000	214.745	80.008	19.995	100.227	20.191	1.461	0.488
286.000	215.741	80.007	19.995	100.242	20.190	1.520	0.498
288.000	216.672	80.008	19.996	100.237	20.189	1.534	0.485
290.000	217.641	80.005	19.995	100.227	20.192	1.364	0.488
292.000	218.621	80.007	19.996	100.225	20.189	1.559	0.505
294.000	219.594	80.009	19.995	100.229	20.189	1.559	0.525
296.000	220.574	80.009	19.994	100.226	20.189	1.537	0.489
298.000	221.576	80.010	19.995	100.225	20.187	1.663	0.513
300.000	222.569	80.010	19.996	100.216	20.186	1.727	0.511
302.000	223.523	80.010	19.996	100.219	20.187	1.711	0.461
304.000	224.512	80.009	19.996	100.223	20.181	2.104	0.476
306.001	225.535	80.008	19.996	100.226	20.182	2.033	0.536
308.000	226.458	80.006	19.996	100.215	20.181	2.071	0.473
310.000	227.490	80.007	19.996	100.216	20.180	2.154	0.492
312.000	228.476	80.005	19.997	100.215	20.176	2.416	0.527
314.000	229.472	80.005	19.997	100.216	20.176	2.381	0.502
316.000	230.395	80.006	19.996	100.215	20.177	2.338	0.464
318.000	231.425	80.006	19.996	100.215	20.173	2.583	0.489
320.000	232.400	80.006	19.996	100.215	20.170	2.769	0.480
322.001	233.330	80.007	19.996	100.215	20.172	2.670	0.469
324.000	234.319	80.006	19.995	100.216	20.164	3.164	0.481
326.000	235.385	80.007	19.995	100.217	20.160	3.459	0.513
328.000	236.331	80.006	19.995	100.217	20.160	3.438	0.515
330.000	237.336	80.006	19.995	100.229	20.157	3.649	0.525
332.000	238.368	80.007	19.995	100.228	20.148	4.228	0.519
334.000	239.320	80.007	19.994	100.237	20.147	4.271	0.463
336.000	240.246	80.007	19.995	100.246	20.147	4.276	0.525
338.000	241.228	80.005	19.996	100.255	20.139	4.797	0.465
340.000	242.193	80.006	19.995	100.256	20.134	5.159	0.461
342.000	243.171	80.006	19.996	100.259	20.126	5.638	0.468
344.000	244.173	80.006	19.995	100.260	20.121	6.005	0.485
346.000	245.121	80.006	19.996	100.264	20.110	6.691	0.484
348.000	246.140	80.006	19.996	100.265	20.099	7.422	0.522
350.000	247.102	80.008	19.995	100.271	20.090	8.007	0.518
352.000	248.120	80.008	19.995	100.261	20.078	8.761	0.481
354.000	249.095	80.007	19.995	100.257	20.069	9.354	0.506
356.001	250.150	80.008	19.995	100.259	20.064	9.676	0.483
358.000	251.140	80.007	19.994	100.253	20.060	9.945	0.493
360.000	252.163	80.008	19.994	100.249	20.062	9.804	0.516
362.000	253.129	80.009	19.994	100.246	20.060	9.955	0.500
364.000	254.168	80.009	19.995	100.239	20.061	9.863	0.499
366.000	255.130	80.008	19.995	100.241	20.062	9.805	0.511
368.000	256.132	80.008	19.995	100.225	20.065	9.595	0.513
370.000	257.103	80.008	19.996	100.222	20.068	9.419	0.489
372.000	258.134	80.008	19.996	100.220	20.072	9.176	0.523
374.000	259.153	80.006	19.996	100.224	20.081	8.600	0.529
376.000	260.119	80.008	19.996	100.223	20.084	8.362	0.495
378.000	261.132	80.009	19.996	100.233	20.090	7.982	0.481
380.000	262.115	80.010	19.996	100.234	20.095	7.703	0.489
382.000	263.110	80.009	19.996	100.236	20.099	7.416	0.506
384.000	264.116	80.010	19.996	100.247	20.102	7.240	0.508
386.000	265.127	80.011	19.996	100.245	20.103	7.150	0.510
388.000	266.164	80.010	19.995	100.258	20.108	6.861	0.517
390.000	267.165	80.009	19.995	100.235	20.107	6.865	0.506
392.000	268.158	80.010	19.996	100.257	20.108	6.805	0.495
394.000	269.194	80.007	19.995	100.257	20.113	6.514	0.506
396.000	270.202	80.008	19.996	100.256	20.113	6.494	0.486
398.000	271.256	80.008	19.996	100.257	20.112	6.577	0.514
400.000	272.245	80.006	19.995	100.257	20.108	6.852	0.497
402.000	273.252	80.006	19.996	100.265	20.110	6.727	0.487
404.000	274.263	80.008	19.995	100.267	20.106	6.951	0.513
406.000	275.249	80.006	19.997	100.271	20.105	7.009	0.514
408.000	276.225	80.006	19.996	100.279	20.107	6.883	0.481
410.000	277.231	80.006	19.996	100.279	20.106	6.992	0.516
412.000	278.205	80.006	19.996	100.286	20.104	7.096	0.475
414.000	279.245	80.006	19.996	100.295	20.099	7.389	0.502
416.000	280.178	80.006	19.996	100.296	20.101	7.261	0.494
418.000	281.163	80.006	19.996	100.296	20.095	7.665	0.496
420.000	282.179	80.006	19.995	100.299	20.091	7.949	0.482
422.000	283.216	80.006	19.995	100.301	20.088	8.137	0.521
424.000	284.176	80.006	19.995	100.300	20.086	8.292	0.499
426.000	285.168	80.005	19.995	100.302	20.082	8.540	0.517
428.000	286.172	80.008	19.995	100.300	20.078	8.769	0.506
430.000	287.180	80.008	19.995	100.298	20.073	9.093	0.520
432.000	288.161	80.007	19.995	100.298	20.070	9.282	0.498
434.000	289.178	80.008	19.996	100.305	20.068	9.438	0.553
436.000	290.144	80.009	19.994	100.311	20.060	9.924	0.501
438.000	291.161	80.008	19.995	100.314	20.062	9.845	0.534
440.000	292.171	80.008	19.995	100.309	20.054	10.358	0.523
442.000	293.138	80.008	19.996	100.303	20.054	10.354	0.511
444.000	294.123	80.010	19.995	100.299	20.052	10.490	0.523
446.000	295.135	80.010	19.996	100.298	20.048	10.721	0.495
448.000	296.117	80.009	19.995	100.297	20.043	11.054	0.511
450.000	297.072	80.008	19.996	100.296	20.041	11.205	0.477
452.000	298.107	80.009	19.996	100.296	20.038	11.364	0.524
454.000	299.038	80.008	19.996	100.293	20.039	11.288	0.493
456.000	300.077	80.009	19.995	100.293	20.036	11.518	0.505
458.000	301.040	80.011	19.995	100.293	20.033	11.737	0.500
460.000	302.042	80.010	19.995	100.285	20.033	11.699	0.481
462.000	303.037	80.011	19.994	100.268	20.034	11.624	0.526
464.000	304.023	80.010	19.995	100.256	20.033	11.685	0.479
466.000	304.975	80.011	19.994	100.263	20.034	11.611	0.490
468.000	306.017	80.010	19.994	100.257	20.035	11.547	0.518
470.000	307.008	80.011	19.995	100.256	20.040	11.255	0.533
472.000	307.976	80.010	19.996	100.256	20.040	11.250	0.474
474.000	308.991	80.007	19.996	100.254	20.036	11.501	0.459
476.000	310.014	80.007	19.995	100.249	20.039	11.319	0.549
478.000	310.995	80.008	19.995	100.242	20.046	10.877	0.466
480.000	312.065	80.007	19.996	100.225	20.047	10.799	0.521
482.000	313.097	80.007	19.995	100.221	20.049	10.685	0.502
484.000	314.117	80.006	19.995	100.219	20.051	10.559	0.519
486.000	315.135	80.007	19.995	100.219	20.057	10.135	0.506
488.001	316.097	80.006	19.995	100.218	20.058	10.107	0.480
490.000	317.118	80.008	19.995	100.216	20.058	10.103	0.528
492.000	318.138	80.008	19.995	100.218	20.062	9.831	0.488
494.000	319.163	80.006	19.995	100.219	20.061	9.870	0.499
496.000	320.180	80.008	19.995	100.218	20.062	9.847	0.491
498.000	321.178	80.009	19.995	100.218	20.061	9.911	0.490
500.000	322.194	80.007	19.995	100.217	20.060	9.953	0.485
502.000	323.250	80.008	19.996	100.217	20.062	9.840	0.507
504.000	324.250	80.006	19.996	100.218	20.060	9.961	0.508
506.000	325.228	80.005	19.997	100.229	20.060	9.931	0.502
508.000	326.287	80.007	19.997	100.242	20.060	9.987	0.508
510.000	327.270	80.006	19.997	100.251	20.058	10.074	0.495
512.000	328.269	80.006	19.997	100.255	20.056	10.212	0.499
514.000	329.304	80.006	19.996	100.259	20.057	10.136	0.511
516.000	330.316	80.007	19.997	100.273	20.057	10.168	0.502
518.000	331.285	80.007	19.995	100.290	20.057	10.178	0.492
520.000	332.327	80.010	19.995	100.294	20.056	10.213	0.498
522.000	333.343	80.009	19.996	100.292	20.053	10.422	0.499
524.000	334.364	80.008	19.995	100.295	20.053	10.419	0.521
526.000	335.355	80.010	19.995	100.297	20.051	10.574	0.496
528.000	336.416	80.008	19.996	100.303	20.047	10.810	0.538
530.000	337.434	80.009	19.996	100.313	20.050	10.598	0.503
532.000	338.437	80.007	19.995	100.313	20.048	10.745	0.496
534.000	339.466	80.007	19.995	100.321	20.049	10.675	0.491
536.000	340.445	80.008	19.996	100.330	20.049	10.693	0.500
538.000	341.457	80.008	19.995	100.333	20.050	10.617	0.504
540.000	342.455	80.009	19.995	100.336	20.049	10.704	0.497
542.000	343.466	80.009	19.994	100.339	20.050	10.603	0.523
544.000	344.451	80.009	19.995	100.345	20.052	10.504	0.484
546.000	345.478	80.010	19.994	100.345	20.052	10.509	0.492
548.000	346.496	80.009	19.995	100.348	20.051	10.532	0.473
550.000	347.517	80.008	19.995	100.363	20.052	10.475	0.510
552.000	348.509	80.009	19.994	100.370	20.051	10.527	0.484
554.000	349.530	80.008	19.995	100.369	20.054	10.356	0.519
556.000	350.580	80.008	19.995	100.370	20.051	10.542	0.525
558.000	351.582	80.006	19.994	100.374	20.052	10.472	0.513
560.000	352.602	80.007	19.994	100.372	20.051	10.531	0.530
562.000	353.653	80.005	19.995	100.371	20.053	10.420	0.534
564.000	354.634	80.008	19.995	100.375	20.056	10.228	0.507
566.000	355.668	80.007	19.995	100.366	20.052	10.464	0.505
568.000	356.656	80.006	19.996	100.366	20.055	10.274	0.499
570.000	357.628	80.005	19.995	100.356	20.054	10.337	0.464
572.000	358.671	80.007	19.996	100.362	20.058	10.062	0.512
574.000	359.637	80.007	19.995	100.359	20.058	10.080	0.497
576.000	360.617	80.007	19.998	100.353	20.063	9.775	0.500
578.000	361.635	80.007	19.997	100.341	20.066	9.542	0.496
580.000	362.604	80.007	19.997	100.346	20.064	9.695	0.483
582.000	363.633	80.007	19.996	100.337	20.067	9.471	0.502
584.000	364.579	80.007	19.997	100.336	20.066	9.553	0.491
586.000	365.634	80.008	19.996	100.337	20.066	9.565	0.533
588.000	366.563	80.006	19.995	100.336	20.067	9.514	0.491
590.000	367.603	80.007	19.995	100.335	20.066	9.561	0.522
592.000	368.589	80.005	19.996	100.335	20.067	9.513	0.521
594.000	369.600	80.006	19.997	100.334	20.064	9.707	0.490
596.001	370.605	80.006	19.996	100.333	20.063	9.792	0.477
598.000	371.633	80.006	19.996	100.334	20.064	9.665	0.519
600.000	372.591	80.006	19.997	100.329	20.064	9.670	0.491
602.000	373.580	80.006	19.997	100.310	20.059	10.009	0.467
604.000	374.639	80.006	19.997	100.311	20.057	10.174	0.514
606.000	375.622	80.008	19.996	100.314	20.054	10.338	0.502
608.000	376.648	80.008	19.997	100.307	20.054	10.352	0.527
610.000	377.606	80.008	19.997	100.299	20.051	10.537	0.501
612.000	378.631	80.008	19.997	100.297	20.050	10.624	0.483
614.000	379.644	80.008	19.996	100.297	20.045	10.922	0.511
616.000	380.658	80.008	19.996	100.298	20.038	11.377	0.504
618.000	381.641	80.008	19.996	100.296	20.037	11.438	0.519
620.000	382.684	80.007	19.995	100.297	20.034	11.671	0.532
622.000	383.638	80.007	19.994	100.299	20.028	12.028	0.486
624.000	384.669	80.009	19.996	100.299	20.024	12.302	0.526
626.000	385.704	80.008	19.995	100.298	20.021	12.488	0.500
628.000	386.671	80.010	19.995	100.299	20.016	12.822	0.476
630.000	387.668	80.010	19.995	100.297	20.010	13.224	0.518
632.000	388.676	80.009	19.995	100.290	20.004	13.587	0.502
634.000	389.684	80.009	19.995	100.285	19.997	14.030	0.502
636.000	390.668	80.009	19.995	100.293	19.990	14.518	0.503
638.000	391.666	80.007	19.994	100.288	19.982	15.024	0.531
640.000	392.675	80.005	19.997	100.283	19.979	15.241	0.499
642.000	393.653	80.005	19.996	100.285	19.970	15.811	0.510
644.000	394.647	80.007	19.996	100.287	19.963	16.243	0.476
646.000	395.649	80.005	19.995	100.272	19.956	16.724	0.519
648.000	396.638	80.007	19.995	100.283	19.946	17.360	0.491
650.000	397.570	80.007	19.995	100.278	19.937	17.945	0.478
652.000	398.579	80.007	19.995	100.270	19.932	18.267	0.490
654.000	399.579	80.008	19.995	100.260	19.923	18.845	0.491
656.000	400.525	80.008	19.995	100.267	19.912	19.584	0.495
658.000	401.520	80.008	19.995	100.262	19.903	20.180	0.490
660.000	402.495	80.007	19.995	100.260	19.889	21.068	0.474
662.001	403.463	80.006	19.995	100.264	19.880	21.635	0.484
664.000	404.441	80.008	19.995	100.270	19.864	22.705	0.478
666.000	405.424	80.007	19.995	100.264	19.848	23.744	0.474
668.000	406.419	80.006	19.996	100.264	19.835	24.614	0.496
670.000	407.405	80.007	19.995	100.260	19.821	25.521	0.476
672.000	408.406	80.007	19.996	100.263	19.802	26.739	0.518
674.000	409.363	80.006	19.995	100.262	19.789	27.557	0.497
676.000	410.394	80.006	19.996	100.267	19.772	28.657	0.535
678.000	411.335	80.006	19.996	100.270	19.753	29.927	0.457
680.000	412.332	80.007	19.995	100.270	19.739	30.850	0.506
682.000	413.311	80.008	19.995	100.267	19.715	32.402	0.484
684.000	414.279	80.007	19.996	100.267	19.693	33.845	0.473
686.000	415.240	80.007	19.995	100.261	19.671	35.250	0.476
688.000	416.273	80.007	19.995	100.262	19.652	36.517	0.469
690.000	417.305	80.008	19.995	100.267	19.626	38.156	0.481
692.001	418.286	80.010	19.994	100.266	19.602	39.734	0.495
694.000	419.286	80.008	19.995	100.269	19.579	41.219	0.507
696.000	420.313	80.008	19.996	100.268	19.554	42.855	0.545
698.000	421.331	80.010	19.997	100.263	19.532	44.272	0.527
700.000	422.299	80.009	19.996	100.262	19.511	45.635	0.492
702.000	423.327	80.009	19.996	100.261	19.485	47.362	0.513
704.000	424.317	80.010	19.997	100.259	19.463	48.783	0.470
706.000	425.290	80.008	19.997	100.257	19.442	50.153	0.498
708.000	426.327	80.005	19.997	100.255	19.419	51.668	0.478
710.000	427.346	80.011	19.996	100.255	19.398	52.992	0.527
712.000	428.354	80.009	19.996	100.257	19.378	54.317	0.543
714.000	429.408	80.010	19.996	100.256	19.354	55.839	0.529
716.000	430.380	80.012	19.995	100.254	19.331	57.369	0.484
718.000	431.439	80.010	19.994	100.255	19.312	58.594	0.549
720.000	432.448	80.011	19.995	100.254	19.292	59.876	0.513
722.000	433.462	80.010	19.995	100.254	19.277	60.870	0.531
724.000	434.525	80.009	19.994	100.254	19.265	61.622	0.518
726.000	435.575	80.008	19.996	100.255	19.255	62.324	0.536
728.000	436.590	80.006	19.995	100.255	19.243	63.084	0.548
730.000	437.558	80.007	19.995	100.252	19.236	63.492	0.492
732.000	438.567	80.007	19.996	100.254	19.239	63.341	0.491
734.000	439.554	80.006	19.996	100.250	19.240	63.265	0.482
736.000	440.590	80.005	19.995	100.238	19.244	62.986	0.524
738.000	441.617	80.010	19.996	100.245	19.250	62.615	0.518
740.000	442.633	80.006	19.997	100.238	19.261	61.903	0.536
742.000	443.609	80.009	19.996	100.239	19.269	61.381	0.495
744.000	444.647	80.009	19.995	100.254	19.274	61.035	0.519
746.000	445.653	80.010	19.995	100.258	19.275	61.001	0.482
748.000	446.624	80.008	19.995	100.259	19.272	61.184	0.495
750.000	447.717	80.007	19.995	100.255	19.272	61.203	0.540
752.000	448.729	80.006	19.994	100.249	19.264	61.708	0.545
754.000	449.702	80.007	19.994	100.256	19.264	61.691	0.480
756.000	450.744	80.007	19.995	100.252	19.265	61.629	0.516
758.000	451.719	80.007	19.995	100.254	19.264	61.667	0.501
760.000	452.751	80.008	19.996	100.252	19.263	61.780	0.493
762.000	453.791	80.007	19.997	100.261	19.266	61.565	0.507
764.000	454.750	80.005	19.996	100.250	19.269	61.392	0.467
766.000	455.834	80.008	19.997	100.246	19.282	60.586	0.517
768.000	456.853	80.009	19.996	100.228	19.303	59.170	0.549
770.000	457.895	80.009	19.997	100.224	19.340	56.754	0.528
772.000	458.944	80.009	19.997	100.197	19.361	55.350	0.526
774.000	459.971	80.012	19.996	100.232	19.370	54.796	0.500
776.000	460.993	80.010	19.995	100.273	19.375	54.500	0.520
778.000	461.967	80.007	19.995	100.277	19.389	53.607	0.472
780.000	463.057	80.008	19.997	100.231	19.409	52.245	0.534
782.000	464.065	80.010	19.996	100.186	19.439	50.327	0.487
784.000	465.053	80.008	19.996	100.195	19.451	49.548	0.473
786.000	466.089	80.012	19.996	100.238	19.471	48.240	0.509
788.000	467.157	80.009	19.995	100.244	19.490	46.989	0.531
790.000	468.139	80.007	19.996	100.244	19.503	46.147	0.505
792.000	469.187	80.010	19.996	100.217	19.522	44.881	0.519
794.000	470.221	80.009	19.996	100.208	19.539	43.821	0.528
796.000	471.234	80.011	19.996	100.216	19.556	42.724	0.508
798.000	472.313	80.011	19.996	100.216	19.588	40.648	0.536
800.000	473.337	80.006	19.996	100.197	19.640	37.234	0.521
802.000	474.417	80.008	19.997	100.177	19.673	35.093	0.538
804.000	475.430	80.008	19.997	100.195	19.683	34.423	0.503
806.000	476.446	80.009	19.997	100.252	19.688	34.138	0.502
808.000	477.469	80.011	19.995	100.273	19.700	33.335	0.513
810.000	478.493	80.008	19.996	100.226	19.718	32.176	0.548
812.000	479.534	80.004	19.996	100.182	19.740	30.731	0.526
814.000	480.506	80.009	19.996	100.180	19.760	29.421	0.495
816.000	481.599	80.008	19.996	100.207	19.771	28.709	0.535
818.000	482.587	80.008	19.994	100.220	19.782	28.014	0.494
820.000	483.589	80.007	19.995	100.220	19.787	27.716	0.498
822.000	484.631	80.008	19.996	100.221	19.797	27.016	0.515
824.000	485.703	80.007	19.995	100.208	19.820	25.551	0.543
826.000	486.722	80.006	19.995	100.182	19.841	24.191	0.514
828.000	487.761	80.010	19.995	100.198	19.854	23.344	0.507
830.000	488.825	80.010	19.995	100.214	19.867	22.462	0.530
832.000	489.824	80.007	19.996	100.217	19.884	21.372	0.498
834.000	490.855	80.010	19.995	100.217	19.895	20.663	0.502
836.000	491.862	80.007	19.995	100.192	19.907	19.891	0.489
838.000	492.918	80.008	19.995	100.196	19.923	18.838	0.515
840.001	493.973	80.010	19.996	100.205	19.939	17.805	0.539
842.000	495.009	80.008	19.995	100.205	19.950	17.071	0.523
844.000	496.031	80.008	19.995	100.207	19.963	16.249	0.488
846.000	497.067	80.007	19.996	100.204	19.978	15.295	0.492
848.000	498.073	80.006	19.996	100.212	19.982	15.049	0.504
850.000	499.110	80.010	19.995	100.217	19.995	14.171	0.515
852.000	500.117	80.011	19.994	100.214	20.006	13.480	0.540
854.000	501.172	80.010	19.995	100.197	20.015	12.859	0.518
856.000	502.204	80.011	19.995	100.188	20.027	12.060	0.561
858.000	503.172	80.009	19.996	100.204	20.033	11.694	0.520
860.000	504.124	80.007	19.995	100.204	20.041	11.165	0.457
862.000	505.182	80.006	19.995	100.202	20.049	10.688	0.495
864.000	506.202	80.010	19.996	100.189	20.057	10.140	0.541
866.000	507.189	80.008	19.995	100.189	20.062	9.809	0.502
868.000	508.211	80.005	19.997	100.200	20.069	9.354	0.527
870.000	509.207	80.007	19.996	100.195	20.073	9.083	0.502
872.000	510.223	80.006	19.995	100.186	20.078	8.758	0.504
874.000	511.226	80.007	19.995	100.187	20.082	8.500	0.501
876.000	512.193	80.011	19.995	100.198	20.088	8.126	0.473
878.000	513.252	80.015	19.996	100.193	20.093	7.803	0.511
880.000	514.268	80.011	19.996	100.196	20.099	7.391	0.497
882.000	515.329	80.007	19.996	100.192	20.103	7.148	0.493
884.000	516.324	80.008	19.995	100.181	20.104	7.077	0.505
886.000	517.357	80.005	19.996	100.191	20.113	6.527	0.514
888.000	518.359	80.008	19.996	100.184	20.117	6.219	0.518
890.000	519.355	80.008	19.996	100.184	20.118	6.201	0.537
892.000	520.364	80.007	19.996	100.188	20.121	6.007	0.493
894.000	521.373	80.005	19.997	100.185	20.127	5.594	0.512
896.000	522.384	80.001	19.996	100.183	20.129	5.473	0.503
898.000	523.420	80.008	19.997	100.183	20.133	5.199	0.506
900.000	524.408	80.006	19.996	100.189	20.135	5.041	0.497
902.000	525.413	80.007	19.997	100.191	20.139	4.816	0.509
904.000	526.437	80.009	19.996	100.193	20.145	4.443	0.517
906.000	527.447	80.010	19.997	100.187	20.145	4.395	0.482
908.000	528.455	80.009	19.996	100.178	20.147	4.285	0.513
910.000	529.448	80.011	19.996	100.180	20.148	4.245	0.492
912.000	530.457	80.006	19.995	100.182	20.149	4.161	0.499
914.000	531.511	80.006	19.994	100.180	20.151	4.025	0.520
916.000	532.489	80.008	19.996	100.188	20.157	3.669	0.500
918.000	533.513	80.007	19.995	100.192	20.159	3.531	0.525
920.000	534.562	80.006	19.997	100.187	20.162	3.340	0.517
922.000	535.553	80.006	19.995	100.189	20.167	3.021	0.498
924.001	536.592	80.007	19.996	100.184	20.169	2.865	0.516
926.000	537.597	80.009	19.995	100.178	20.169	2.838	0.507
928.000	538.618	80.007	19.996	100.181	20.176	2.403	0.465
930.000	539.648	80.008	19.995	100.191	20.177	2.344	0.522
932.000	540.677	80.011	19.996	100.189	20.181	2.109	0.515
934.000	541.674	80.008	19.996	100.196	20.183	1.946	0.465
936.000	542.728	80.011	19.995	100.183	20.177	2.325	0.509
938.000	543.757	80.008	19.996	100.181	20.182	2.015	0.523
940.000	544.738	80.009	19.995	100.185	20.185	1.796	0.507
942.000	545.744	80.010	19.996	100.181	20.189	1.592	0.536
944.000	546.769	80.008	19.995	100.182	20.189	1.571	0.504
946.000	547.805	80.008	19.995	100.183	20.187	1.682	0.530
948.000	548.826	80.009	19.995	100.189	20.188	1.613	0.510
950.000	549.824	80.008	19.994	100.194	20.190	1.479	0.501
952.000	550.833	80.007	19.995	100.191	20.191	1.429	0.484
954.000	551.864	80.008	19.995	100.188	20.193	1.323	0.488
956.000	552.880	80.008	19.994	100.184	20.191	1.401	0.500
958.001	553.910	80.010	19.993	100.192	20.191	1.413	0.516
960.000	554.924	80.011	19.994	100.186	20.196	1.091	0.520
962.000	556.009	80.012	19.995	100.191	20.194	1.227	0.557
964.000	556.949	80.011	19.995	100.187	20.200	0.825	0.485
966.000	557.998	80.010	19.996	100.181	20.196	1.137	0.538
968.000	558.986	80.008	19.995	100.180	20.198	0.992	0.496
970.000	560.041	80.009	19.997	100.182	20.197	1.054	0.547
972.000	561.043	80.009	19.996	100.182	20.200	0.866	0.509
974.000	562.023	80.009	19.997	100.179	20.202	0.733	0.491
976.000	563.039	80.008	19.996	100.181	20.204	0.579	0.506
978.000	564.049	80.008	19.995	100.183	20.203	0.648	0.474
980.000	565.039	80.008	19.996	100.181	20.207	0.383	0.494
982.000	566.096	80.007	19.995	100.188	20.206	0.436	0.559
984.000	567.081	80.008	19.996	100.182	20.206	0.430	0.508
986.000	568.101	80.007	19.996	100.180	20.207	0.382	0.500
988.000	569.090	80.008	19.995	100.183	20.209	0.282	0.486
990.000	570.105	80.008	19.996	100.196	20.209	0.250	0.484
992.000	571.141	80.005	19.995	100.193	20.207	0.377	0.530
994.000	572.148	80.005	19.995	100.184	20.211	0.131	0.491
996.000	573.168	80.009	19.997	100.187	20.209	0.251	0.512
998.000	574.198	80.005	19.996	100.180	20.214	-0.058	0.528
1000.000	575.235	80.007	19.997	100.189	20.214	-0.051	0.508
1002.000	576.238	80.007	19.996	100.204	20.213	-0.027	0.468
1004.000	577.249	80.006	19.998	100.200	20.216	-0.161	0.521
1006.000	578.251	80.007	19.996	100.181	20.217	-0.232	0.479
1008.000	579.257	80.007	19.996	100.184	20.214	-0.060	0.527
1010.000	580.241	80.007	19.996	100.182	20.218	-0.347	0.499
1012.000	581.285	80.009	19.995	100.183	20.218	-0.345	0.508
1014.000	582.315	80.008	19.996	100.187	20.218	-0.324	0.523
1016.000	583.293	80.006	19.995	100.185	20.222	-0.568	0.510
1018.000	584.330	80.010	19.995	100.187	20.222	-0.572	0.512
1020.000	585.319	80.008	19.995	100.184	20.221	-0.492	0.517
1022.000	586.308	80.007	19.994	100.185	20.221	-0.496	0.496
1024.000	587.314	80.007	19.994	100.185	20.221	-0.506	0.485
1026.001	588.339	80.008	19.994	100.182	20.219	-0.402	0.487
1028.000	589.361	80.008	19.995	100.182	20.220	-0.450	0.509
1030.000	590.339	80.009	19.995	100.191	20.224	-0.715	0.518
1032.000	591.373	80.008	19.996	100.187	20.222	-0.586	0.503
1034.000	592.378	80.009	19.995	100.191	20.223	-0.634	0.493
1036.000	593.381	80.008	19.995	100.203	20.225	-0.756	0.483
1038.000	594.378	80.009	19.995	100.195	20.225	-0.779	0.464
1040.000	595.461	80.011	19.995	100.187	20.224	-0.719	0.534
1042.000	596.436	80.011	19.995	100.180	20.224	-0.705	0.501
1044.000	597.471	80.012	19.995	100.179	20.224	-0.691	0.504
1046.000	598.518	80.011	19.994	100.184	20.227	-0.885	0.517
1048.000	599.539	80.009	19.995	100.187	20.228	-0.981	0.494
1050.001	600.547	80.009	19.994	100.179	20.231	-1.151	0.497
1052.001	601.551	80.008	19.995	100.188	20.226	-0.838	0.515
1054.000	602.581	80.007	19.995	100.189	20.227	-0.877	0.520
1056.000	603.580	80.009	19.995	100.194	20.228	-0.958	0.478
1058.000	604.613	80.010	19.995	100.182	20.226	-0.871	0.514
1060.000	605.678	80.008	19.995	100.178	20.230	-1.089	0.521
1062.001	606.727	80.008	19.995	100.179	20.228	-0.981	0.519
1064.000	607.753	80.007	19.996	100.188	20.229	-1.032	0.539
1066.000	608.754	80.009	19.995	100.181	20.227	-0.885	0.524
1068.000	609.723	80.007	19.996	100.189	20.225	-0.791	0.487
1070.000	610.747	80.009	19.996	100.180	20.227	-0.921	0.522
1072.000	611.737	80.006	19.995	100.180	20.226	-0.830	0.481
1074.000	612.796	80.007	19.997	100.180	20.230	-1.084	0.513
1076.000	613.809	80.007	19.995	100.185	20.227	-0.931	0.503
1078.000	614.863	80.010	19.996	100.180	20.226	-0.813	0.533
1080.000	615.865	80.007	19.995	100.179	20.226	-0.827	0.517
1082.001	616.857	80.007	19.995	100.179	20.227	-0.908	0.504
1084.000	617.850	80.006	19.996	100.180	20.228	-0.949	0.507
1086.000	618.848	80.006	19.995	100.183	20.228	-0.976	0.512
1088.000	619.893	80.006	19.995	100.180	20.231	-1.183	0.506
1090.001	620.922	80.005	19.996	100.186	20.230	-1.085	0.490
1092.000	621.914	80.008	19.996	100.188	20.231	-1.188	0.487
1094.000	622.950	80.008	19.996	100.183	20.229	-1.055	0.513
1096.000	623.956	80.007	19.997	100.181	20.229	-1.034	0.509
1098.001	624.962	80.009	19.996	100.177	20.230	-1.123	0.473
1100.000	626.003	80.009	19.996	100.176	20.230	-1.112	0.502
1102.000	627.037	80.009	19.996	100.177	20.226	-0.816	0.496
1104.001	628.021	80.009	19.995	100.177	20.227	-0.940	0.482
1106.000	629.045	80.009	19.996	100.175	20.229	-1.054	0.492
1108.001	630.060	80.009	19.997	100.177	20.230	-1.133	0.496
1110.000	631.090	80.008	19.995	100.182	20.232	-1.209	0.481
1112.000	632.147	80.008	19.995	100.182	20.228	-0.995	0.517
1114.000	633.144	80.008	19.994	100.181	20.229	-1.046	0.509
1116.000	634.184	80.009	19.994	100.179	20.232	-1.259	0.515
1118.000	635.176	80.008	19.995	100.183	20.231	-1.176	0.495
1120.000	636.199	80.010	19.996	100.178	20.232	-1.202	0.507
1122.000	637.219	80.010	19.996	100.175	20.233	-1.316	0.515
1124.000	638.248	80.010	19.995	100.175	20.235	-1.427	0.495
1126.000	639.248	80.010	19.997	100.176	20.233	-1.317	0.496
1128.000	640.243	80.010	19.995	100.176	20.233	-1.289	0.477
1130.000	641.284	80.010	19.996	100.175	20.231	-1.163	0.516
1132.000	642.308	80.008	19.995	100.179	20.233	-1.298	0.510
1134.000	643.297	80.008	19.995	100.179	20.231	-1.193	0.489
1136.001	644.303	80.006	19.995	100.181	20.229	-1.018	0.509
1138.000	645.324	80.008	19.995	100.179	20.227	-0.915	0.521
1140.000	646.336	80.006	19.995	100.182	20.232	-1.215	0.525
1142.001	647.283	80.008	19.995	100.182	20.227	-0.940	0.489
1144.001	648.293	80.008	19.994	100.179	20.229	-1.043	0.488
1146.000	649.297	80.009	19.995	100.179	20.232	-1.250	0.503
1148.000	650.274	80.007	19.994	100.180	20.230	-1.123	0.476
1150.000	651.293	80.009	19.995	100.184	20.231	-1.167	0.478
1152.000	652.273	80.010	19.995	100.187	20.231	-1.174	0.486
1154.001	653.309	80.008	19.994	100.181	20.228	-0.960	0.529
1156.000	654.339	80.007	19.995	100.180	20.233	-1.310	0.524
1158.000	655.313	80.008	19.995	100.181	20.232	-1.262	0.520
1160.000	656.299	80.006	19.995	100.181	20.231	-1.167	0.496
1162.001	657.334	80.008	19.996	100.182	20.232	-1.218	0.504
1164.001	658.314	80.006	19.996	100.184	20.233	-1.278	0.501
1166.001	659.300	80.007	19.996	100.184	20.235	-1.402	0.438
1168.000	660.325	80.007	19.996	100.176	20.234	-1.385	0.495
1170.000	661.348	80.008	19.996	100.175	20.234	-1.360	0.514
1172.000	662.367	80.007	19.996	100.176	20.236	-1.482	0.495
1174.000	663.377	80.008	19.996	100.177	20.234	-1.355	0.504
1176.001	664.390	80.006	19.996	100.185	20.234	-1.335	0.480
1178.000	665.416	80.008	19.995	100.182	20.236	-1.512	0.525
1180.000	666.506	80.008	19.995	100.178	20.236	-1.494	0.529
1182.000	667.511	80.009	19.995	100.177	20.238	-1.627	0.517
1184.000	668.490	80.008	19.995	100.175	20.236	-1.514	0.485
1186.000	669.527	80.008	19.995	100.184	20.239	-1.689	0.498
1188.000	670.522	80.008	19.996	100.176	20.239	-1.693	0.464
1190.000	671.531	80.008	19.996	100.176	20.236	-1.461	0.542
1192.000	672.607	80.007	19.997	100.175	20.235	-1.434	0.472
1194.000	673.590	80.008	19.998	100.175	20.242	-1.870	0.516
1196.000	674.613	80.007	19.997	100.175	20.238	-1.629	0.543
1198.000	675.655	80.007	19.997	100.177	20.240	-1.767	0.538
1200.001	676.654	80.008	19.997	100.177	20.236	-1.471	0.520
1202.000	677.687	80.008	19.995	100.177	20.239	-1.659	0.489
1204.000	678.676	80.008	19.996	100.178	20.242	-1.861	0.498
1206.000	679.684	80.010	19.996	100.179	20.240	-1.781	0.509
1208.001	680.676	80.009	19.995	100.177	20.238	-1.620	0.500
1210.000	681.698	80.010	19.994	100.178	20.237	-1.576	0.519
1212.001	682.634	80.009	19.994	100.178	20.237	-1.565	0.504
1214.000	683.234	80.008	19.995	100.178	20.235	-1.436	-0.027
1216.000	684.736	80.009	19.995	100.178	20.240	-1.726	0.464
1218.001	685.704	80.007	19.996	100.179	20.237	-1.563	0.562
1220.001	686.689	80.006	19.996	100.179	20.237	-1.567	0.480
1222.000	687.687	80.007	19.996	100.184	20.243	-1.953	0.503
1224.000	688.678	80.007	19.996	100.183	20.240	-1.772	0.504
1226.000	689.709	80.008	19.995	100.182	20.239	-1.687	0.495
1228.001	690.677	80.008	19.996	100.182	20.239	-1.693	0.503
1230.000	691.708	80.008	19.996	100.182	20.239	-1.714	0.529
1232.000	692.716	80.008	19.995	100.179	20.238	-1.643	0.498
1234.000	693.725	80.008	19.996	100.179	20.236	-1.501	0.488
1236.000	694.755	80.007	19.997	100.178	20.239	-1.661	0.535
1238.000	695.788	80.008	19.995	100.177	20.238	-1.611	0.532
1240.000	696.782	80.008	19.994	100.175	20.235	-1.406	0.538
1242.000	697.809	80.008	19.995	100.176	20.238	-1.654	0.508
1244.000	698.798	80.007	19.996	100.180	20.240	-1.723	0.512
1246.001	699.793	80.007	19.996	100.179	20.235	-1.413	0.479
1248.000	700.813	80.007	19.996	100.177	20.235	-1.406	0.528
1250.001	701.826	80.008	19.995	100.178	20.238	-1.594	0.492
1252.000	702.811	80.007	19.997	100.179	20.237	-1.560	0.521
1254.000	703.831	80.007	19.995	100.181	20.236	-1.500	0.508
1256.000	704.852	80.009	19.996	100.176	20.238	-1.629	0.512
1258.000	705.876	80.008	19.996	100.177	20.239	-1.686	0.493
1260.000	706.910	80.009	19.995	100.177	20.238	-1.641	0.476
1262.001	707.900	80.010	19.996	100.176	20.238	-1.601	0.487
1264.000	708.945	80.008	19.996	100.176	20.236	-1.498	0.530
1266.000	709.972	80.010	19.996	100.180	20.237	-1.563	0.516
1268.000	710.979	80.009	19.996	100.180	20.237	-1.549	0.491
1270.000	711.998	80.009	19.996	100.181	20.238	-1.592	0.525
1272.000	713.032	80.007	19.996	100.178	20.238	-1.648	0.549
1274.000	714.019	80.008	19.995	100.179	20.240	-1.753	0.527
1276.001	715.055	80.008	19.996	100.181	20.237	-1.537	0.519
1278.000	716.054	80.008	19.996	100.177	20.236	-1.496	0.483
1280.000	717.073	80.009	19.995	100.177	20.238	-1.592	0.512
1282.000	718.022	80.009	19.995	100.178	20.237	-1.581	0.493
1284.000	719.040	80.008	19.995	100.178	20.237	-1.528	0.518
1286.000	720.040	80.008	19.995	100.178	20.236	-1.487	0.493
1288.000	721.027	80.008	19.996	100.177	20.237	-1.540	0.502
1290.000	722.029	80.008	19.996	100.177	20.239	-1.694	0.504
1292.001	723.012	80.008	19.995	100.177	20.242	-1.912	0.511
1294.000	724.053	80.008	19.995	100.178	20.237	-1.551	0.506
1296.001	725.057	80.009	19.996	100.182	20.238	-1.654	0.502
1298.000	726.042	80.009	19.996	100.184	20.241	-1.818	0.502
1300.001	727.028	80.007	19.996	100.179	20.242	-1.880	0.521
1302.000	728.031	80.008	19.996	100.177	20.242	-1.891	0.502
1304.000	729.045	80.008	19.996	100.177	20.241	-1.818	0.487
1306.000	730.010	80.007	19.996	100.181	20.239	-1.657	0.483
1308.000	731.038	80.008	19.995	100.178	20.236	-1.493	0.531
1310.000	732.026	80.007	19.995	100.177	20.239	-1.666	0.471
1312.000	733.064	80.008	19.996	100.178	20.241	-1.834	0.525
1314.000	734.081	80.009	19.996	100.177	20.237	-1.581	0.505
1316.000	735.084	80.009	19.995	100.178	20.241	-1.790	0.500
1318.000	736.065	80.009	19.995	100.177	20.241	-1.788	0.507
1320.000	737.042	80.007	19.996	100.177	20.239	-1.702	0.466
1322.000	738.045	80.009	19.995	100.177	20.240	-1.726	0.513
1324.001	739.053	80.008	19.996	100.176	20.239	-1.716	0.521
1326.001	740.075	80.009	19.996	100.177	20.237	-1.546	0.524
1328.001	741.058	80.008	19.996	100.177	20.235	-1.420	0.481
1330.000	742.055	80.008	19.996	100.178	20.237	-1.556	0.486
1332.000	743.092	80.008	19.996	100.177	20.236	-1.517	0.510
1333.000	743.568	80.008	19.996	100.177	20.234	-1.342	0.474