File: 01_Data/PVC_R01/MCC/PVC_MCC_30K_min_210920_R3.txt
Sample ID:	C:\MCC\PVC_MCC_30K_min_210920_R3.txt
Sample Weight (mg):	4.42
Heating Rate (C/s):	0.5
Combustor Temp (C):	900
N2 Flow Rate (cc/min):	80
O2 Flow Rate (cc/min):	20
Calibration File:	C:\MCC\MCC Cal\Coeff1 JN10440_30_210304.txt.txt
T Correction Coefficients:	0	1.024463	0
Time Shift (s):	14
*
Time (s)	Temperature (C)	N2 flow rate (cc/min)	O2 flow rate (cc/min)	Flow Rate (cc/min)	Oxygen (%)	HRR (W/g)	Heating rate (C/s)
0.000	110.506	80.005	19.994	100.257	20.219	-0.407	0.009
2.001	110.500	80.003	19.994	100.258	20.220	-0.452	-0.017
3.999	110.465	80.003	19.994	100.259	20.219	-0.432	0.028
5.999	110.447	80.002	19.995	100.258	20.219	-0.434	-0.032
8.000	110.458	80.003	19.995	100.260	20.221	-0.579	-0.030
9.999	110.488	80.004	19.994	100.260	20.221	-0.544	0.000
11.999	110.457	80.002	19.994	100.262	20.219	-0.417	0.001
13.999	110.441	80.003	19.994	100.262	20.221	-0.529	0.003
16.000	110.476	80.003	19.994	100.263	20.221	-0.568	0.016
17.999	110.417	80.003	19.994	100.263	20.218	-0.355	0.005
20.000	110.437	80.002	19.994	100.292	20.216	-0.201	0.010
21.999	110.472	80.003	19.994	100.310	20.213	0.008	0.021
24.000	110.515	80.002	19.995	100.324	20.212	0.075	0.045
26.000	110.553	80.000	19.995	100.311	20.208	0.361	0.024
27.999	110.595	80.002	19.995	100.324	20.205	0.549	0.015
29.999	110.652	80.002	19.996	100.344	20.206	0.503	0.039
31.999	110.753	80.001	19.996	100.347	20.202	0.793	0.067
34.001	110.874	80.003	19.996	100.384	20.201	0.855	0.073
36.000	110.990	79.999	19.995	100.411	20.200	0.938	0.071
38.000	111.116	80.002	19.995	100.421	20.195	1.311	0.080
40.000	111.304	80.001	19.995	100.434	20.194	1.342	0.061
42.000	111.556	80.002	19.995	100.450	20.191	1.543	0.127
44.001	111.811	80.002	19.995	100.436	20.187	1.883	0.113
46.000	112.115	80.002	19.995	100.463	20.190	1.644	0.142
48.000	112.434	80.003	19.994	100.452	20.190	1.626	0.193
50.000	112.728	80.002	19.996	100.449	20.187	1.831	0.163
52.000	113.092	80.003	19.995	100.444	20.185	1.969	0.154
54.000	113.486	80.002	19.995	100.441	20.186	1.944	0.194
55.999	113.879	80.003	19.995	100.454	20.187	1.878	0.199
58.000	114.278	80.004	19.996	100.456	20.186	1.917	0.215
59.999	114.747	80.003	19.996	100.457	20.185	2.008	0.223
61.999	115.160	80.003	19.996	100.465	20.184	2.101	0.257
64.001	115.656	80.002	19.995	100.482	20.182	2.175	0.255
65.999	116.129	80.003	19.994	100.492	20.178	2.467	0.251
68.001	116.675	80.004	19.995	100.493	20.181	2.267	0.262
70.000	117.168	80.004	19.994	100.495	20.181	2.296	0.255
71.999	117.801	80.005	19.994	100.495	20.176	2.629	0.316
74.000	118.380	80.005	19.993	100.499	20.179	2.428	0.276
76.001	119.029	80.006	19.994	100.517	20.178	2.496	0.305
77.999	119.640	80.004	19.994	100.500	20.177	2.585	0.319
79.999	120.304	80.005	19.995	100.504	20.179	2.432	0.337
81.999	121.000	80.005	19.993	100.505	20.178	2.502	0.351
83.999	121.703	80.004	19.995	100.509	20.177	2.535	0.356
86.001	122.444	80.003	19.995	100.509	20.175	2.738	0.394
87.999	123.156	80.001	19.995	100.511	20.174	2.773	0.347
89.999	123.923	80.001	19.995	100.508	20.177	2.589	0.406
91.999	124.701	80.003	19.994	100.516	20.179	2.442	0.392
94.001	125.519	80.002	19.994	100.527	20.178	2.514	0.407
95.999	126.269	80.000	19.996	100.527	20.177	2.556	0.368
97.999	127.113	80.002	19.994	100.523	20.176	2.670	0.398
100.000	127.900	80.003	19.995	100.530	20.176	2.655	0.397
101.999	128.787	80.003	19.994	100.521	20.178	2.519	0.426
104.001	129.631	80.003	19.994	100.515	20.174	2.794	0.419
105.999	130.492	80.003	19.994	100.531	20.180	2.378	0.416
107.999	131.407	80.002	19.993	100.528	20.177	2.566	0.457
109.999	132.266	80.003	19.994	100.531	20.179	2.413	0.446
111.999	133.124	80.004	19.994	100.524	20.179	2.407	0.427
113.999	134.078	80.003	19.995	100.530	20.175	2.691	0.469
116.001	134.996	80.002	19.995	100.529	20.180	2.372	0.475
118.000	135.925	80.002	19.994	100.520	20.177	2.569	0.473
120.001	136.885	80.001	19.995	100.527	20.178	2.461	0.470
121.999	137.811	80.002	19.994	100.526	20.180	2.385	0.485
123.999	138.778	80.001	19.995	100.516	20.179	2.447	0.485
126.001	139.744	80.002	19.996	100.520	20.178	2.529	0.529
127.999	140.702	80.003	19.995	100.514	20.179	2.420	0.485
130.000	141.689	80.004	19.995	100.509	20.181	2.256	0.508
132.000	142.630	80.004	19.994	100.502	20.178	2.515	0.454
134.000	143.686	80.006	19.996	100.506	20.180	2.379	0.509
136.000	144.649	80.003	19.995	100.505	20.176	2.615	0.530
138.000	145.656	80.004	19.995	100.503	20.179	2.399	0.514
140.000	146.666	80.004	19.996	100.496	20.181	2.314	0.513
142.001	147.648	80.003	19.995	100.502	20.180	2.377	0.521
144.000	148.627	80.003	19.994	100.501	20.180	2.327	0.491
146.000	149.645	80.003	19.996	100.495	20.181	2.252	0.515
148.000	150.663	80.003	19.995	100.498	20.182	2.184	0.528
150.000	151.628	80.003	19.995	100.499	20.181	2.306	0.527
151.999	152.675	80.003	19.995	100.498	20.182	2.222	0.541
153.999	153.677	80.003	19.995	100.496	20.183	2.166	0.502
155.999	154.654	80.004	19.996	100.495	20.184	2.091	0.468
157.999	155.670	80.005	19.995	100.495	20.182	2.201	0.524
159.999	156.683	80.004	19.995	100.489	20.184	2.058	0.483
161.999	157.756	80.005	19.994	100.488	20.186	1.955	0.523
163.999	158.743	80.003	19.994	100.483	20.184	2.046	0.511
165.999	159.695	80.003	19.994	100.482	20.184	2.092	0.517
168.000	160.739	80.002	19.992	100.482	20.181	2.290	0.505
170.000	161.725	80.002	19.995	100.488	20.182	2.205	0.482
171.999	162.794	80.001	19.994	100.481	20.188	1.804	0.518
174.000	163.813	80.002	19.994	100.475	20.188	1.818	0.519
176.000	164.828	80.002	19.994	100.476	20.186	1.910	0.538
177.999	165.859	80.002	19.994	100.464	20.186	1.912	0.528
180.000	166.847	80.003	19.996	100.461	20.187	1.872	0.526
181.999	167.828	80.003	19.994	100.461	20.185	1.974	0.493
183.999	168.843	80.003	19.995	100.460	20.185	1.980	0.511
186.000	169.857	80.004	19.996	100.458	20.190	1.624	0.515
187.999	170.864	80.004	19.995	100.459	20.188	1.781	0.525
189.999	171.852	80.003	19.995	100.461	20.188	1.810	0.495
191.999	172.807	80.005	19.995	100.458	20.187	1.837	0.477
193.999	173.858	80.004	19.994	100.457	20.185	2.021	0.501
195.999	174.839	80.003	19.995	100.458	20.188	1.786	0.482
197.999	175.837	80.003	19.995	100.458	20.188	1.769	0.477
199.999	176.834	80.003	19.995	100.458	20.188	1.783	0.505
201.999	177.805	80.002	19.995	100.458	20.189	1.713	0.487
203.999	178.798	80.002	19.996	100.458	20.187	1.885	0.476
205.999	179.777	80.003	19.994	100.453	20.186	1.939	0.475
208.000	180.808	80.004	19.995	100.441	20.189	1.717	0.522
209.999	181.825	80.004	19.995	100.446	20.190	1.674	0.496
211.999	182.814	80.004	19.994	100.457	20.191	1.605	0.472
213.999	183.752	80.004	19.994	100.453	20.192	1.506	0.485
215.999	184.751	80.004	19.996	100.454	20.189	1.744	0.502
217.999	185.729	80.004	19.994	100.436	20.190	1.637	0.482
220.000	186.740	80.004	19.995	100.442	20.190	1.657	0.509
222.000	187.757	80.005	19.994	100.447	20.189	1.713	0.497
224.000	188.681	80.002	19.995	100.437	20.190	1.655	0.469
225.999	189.698	80.003	19.995	100.445	20.190	1.649	0.507
227.999	190.642	80.004	19.994	100.443	20.190	1.663	0.484
229.999	191.638	80.003	19.995	100.437	20.186	1.945	0.473
232.000	192.648	80.005	19.995	100.432	20.185	1.970	0.495
234.000	193.622	80.004	19.995	100.439	20.190	1.651	0.513
235.999	194.569	80.003	19.994	100.429	20.191	1.562	0.495
237.999	195.528	80.005	19.995	100.439	20.190	1.651	0.461
239.999	196.495	80.004	19.994	100.440	20.195	1.307	0.477
242.000	197.461	80.005	19.995	100.440	20.196	1.241	0.485
244.000	198.467	80.005	19.995	100.420	20.192	1.479	0.507
246.000	199.423	80.004	19.996	100.417	20.193	1.425	0.501
248.001	200.409	80.004	19.995	100.419	20.195	1.285	0.513
250.000	201.392	80.003	19.995	100.425	20.194	1.378	0.489
252.000	202.398	80.002	19.995	100.422	20.193	1.398	0.530
254.000	203.366	80.002	19.994	100.424	20.194	1.347	0.493
256.000	204.352	80.002	19.995	100.421	20.193	1.409	0.473
258.000	205.272	80.003	19.994	100.417	20.194	1.322	0.451
260.000	206.279	80.002	19.995	100.420	20.199	1.034	0.505
262.000	207.255	80.004	19.995	100.420	20.195	1.301	0.482
264.000	208.268	80.003	19.995	100.426	20.191	1.546	0.477
266.000	209.216	80.003	19.995	100.424	20.193	1.434	0.478
268.000	210.191	80.004	19.995	100.420	20.191	1.548	0.454
270.000	211.183	80.002	19.993	100.420	20.191	1.539	0.497
272.000	212.178	80.003	19.994	100.418	20.188	1.807	0.479
274.001	213.144	80.003	19.995	100.418	20.190	1.629	0.440
276.000	214.131	80.002	19.994	100.419	20.192	1.531	0.473
278.000	215.069	80.004	19.994	100.421	20.191	1.564	0.462
280.000	216.072	80.002	19.994	100.421	20.192	1.504	0.497
282.000	217.095	80.003	19.995	100.422	20.193	1.394	0.470
284.001	218.012	80.003	19.994	100.419	20.191	1.537	0.486
286.000	219.021	80.002	19.995	100.420	20.191	1.602	0.516
288.000	220.000	80.003	19.994	100.420	20.189	1.743	0.516
290.000	220.966	80.003	19.994	100.422	20.192	1.527	0.489
292.000	221.973	80.004	19.994	100.421	20.190	1.670	0.502
294.000	222.982	80.004	19.994	100.421	20.190	1.626	0.523
296.000	223.965	80.004	19.995	100.419	20.186	1.904	0.493
298.000	224.910	80.003	19.994	100.414	20.190	1.655	0.459
300.000	225.914	80.003	19.994	100.416	20.188	1.753	0.504
302.000	226.884	80.005	19.995	100.420	20.187	1.842	0.470
304.000	227.936	80.003	19.995	100.421	20.185	2.010	0.488
306.000	228.935	80.004	19.995	100.418	20.184	2.045	0.510
308.000	229.915	80.003	19.995	100.419	20.185	2.022	0.520
310.000	230.927	80.003	19.995	100.417	20.185	2.026	0.490
312.000	231.917	80.003	19.995	100.416	20.184	2.080	0.505
314.001	232.959	80.003	19.995	100.412	20.183	2.159	0.495
316.000	233.964	80.004	19.995	100.415	20.179	2.418	0.511
318.000	234.948	80.004	19.994	100.414	20.179	2.408	0.508
320.000	235.931	80.006	19.995	100.412	20.173	2.857	0.487
322.000	236.949	80.007	19.994	100.410	20.174	2.760	0.520
324.000	237.972	80.005	19.995	100.413	20.170	3.040	0.525
326.000	238.985	80.005	19.995	100.416	20.168	3.170	0.519
328.000	239.963	80.004	19.995	100.411	20.167	3.257	0.482
330.000	240.959	80.002	19.995	100.415	20.167	3.269	0.477
332.000	241.948	80.003	19.995	100.417	20.165	3.389	0.499
334.000	242.961	80.002	19.996	100.418	20.158	3.926	0.489
336.000	243.958	80.001	19.996	100.417	20.156	4.052	0.512
338.000	244.975	80.002	19.996	100.418	20.156	4.077	0.524
340.000	245.940	80.001	19.996	100.417	20.152	4.328	0.494
342.000	246.929	80.000	19.996	100.425	20.148	4.618	0.470
344.000	247.911	80.002	19.996	100.433	20.147	4.701	0.483
346.000	248.951	80.002	19.995	100.428	20.141	5.128	0.496
348.000	249.979	80.002	19.995	100.429	20.135	5.521	0.500
350.000	251.001	80.003	19.994	100.431	20.129	5.956	0.495
352.000	252.041	80.004	19.995	100.421	20.122	6.439	0.528
354.000	253.032	80.003	19.995	100.420	20.116	6.903	0.499
356.000	254.050	80.003	19.993	100.421	20.111	7.254	0.496
358.000	255.062	80.003	19.994	100.422	20.103	7.813	0.500
360.000	256.087	80.002	19.994	100.422	20.101	7.960	0.491
362.000	257.090	80.001	19.994	100.422	20.096	8.273	0.515
364.000	258.125	80.001	19.994	100.422	20.097	8.222	0.530
366.000	259.149	80.003	19.995	100.421	20.093	8.526	0.500
368.000	260.127	80.002	19.995	100.419	20.092	8.617	0.501
370.000	261.102	80.002	19.994	100.414	20.094	8.466	0.508
372.000	262.155	80.004	19.995	100.417	20.089	8.800	0.525
374.000	263.139	80.004	19.995	100.415	20.093	8.483	0.524
376.000	264.133	80.004	19.995	100.416	20.089	8.769	0.517
378.000	265.141	80.005	19.994	100.416	20.089	8.787	0.521
380.000	266.126	80.005	19.994	100.413	20.090	8.714	0.481
382.000	267.123	80.005	19.994	100.413	20.092	8.619	0.507
384.000	268.143	80.005	19.995	100.413	20.088	8.881	0.508
386.000	269.128	80.005	19.995	100.411	20.095	8.398	0.500
388.000	270.141	80.004	19.994	100.413	20.092	8.553	0.521
390.000	271.156	80.004	19.994	100.416	20.092	8.603	0.511
392.000	272.179	80.004	19.995	100.416	20.099	8.084	0.508
394.000	273.215	80.003	19.995	100.411	20.099	8.097	0.521
396.000	274.184	80.005	19.996	100.413	20.101	7.951	0.510
398.000	275.181	80.004	19.995	100.417	20.103	7.782	0.483
400.000	276.192	80.005	19.995	100.417	20.105	7.680	0.473
402.000	277.165	80.005	19.995	100.419	20.107	7.510	0.523
404.000	278.154	80.006	19.995	100.423	20.109	7.419	0.507
406.000	279.178	80.006	19.995	100.421	20.106	7.584	0.481
408.000	280.157	80.004	19.994	100.426	20.105	7.636	0.469
410.000	281.152	80.004	19.994	100.431	20.104	7.764	0.489
412.000	282.136	80.002	19.995	100.448	20.103	7.820	0.505
414.000	283.160	80.002	19.994	100.452	20.098	8.143	0.516
416.000	284.128	80.003	19.995	100.459	20.098	8.174	0.484
418.000	285.148	80.003	19.995	100.460	20.098	8.142	0.499
420.001	286.100	80.003	19.994	100.460	20.095	8.382	0.467
422.000	287.095	80.003	19.995	100.462	20.093	8.555	0.473
424.000	288.082	80.001	19.995	100.465	20.089	8.790	0.488
426.000	289.059	80.002	19.994	100.464	20.087	8.915	0.489
428.000	290.045	80.001	19.995	100.470	20.084	9.150	0.468
430.000	290.996	80.002	19.995	100.469	20.081	9.369	0.488
432.000	291.963	80.001	19.996	100.474	20.074	9.865	0.494
434.000	293.012	80.003	19.995	100.481	20.072	9.991	0.520
436.000	293.954	80.003	19.997	100.484	20.067	10.387	0.500
438.000	294.956	80.002	19.995	100.487	20.064	10.586	0.500
440.000	295.990	80.004	19.995	100.478	20.060	10.892	0.530
442.000	296.965	80.002	19.995	100.480	20.058	11.036	0.501
444.000	297.928	80.002	19.994	100.466	20.055	11.202	0.479
446.000	298.947	80.002	19.995	100.481	20.053	11.369	0.509
448.000	299.963	80.002	19.994	100.476	20.048	11.729	0.529
450.000	300.921	80.002	19.994	100.473	20.044	12.020	0.498
452.000	301.908	80.002	19.994	100.469	20.046	11.851	0.461
454.000	302.907	80.004	19.995	100.465	20.041	12.234	0.498
456.000	303.866	80.004	19.994	100.461	20.039	12.332	0.475
458.000	304.911	80.005	19.995	100.464	20.036	12.536	0.522
460.000	305.890	80.005	19.994	100.460	20.038	12.446	0.475
462.000	306.924	80.006	19.994	100.455	20.036	12.527	0.513
464.000	307.881	80.005	19.995	100.453	20.038	12.443	0.458
466.000	308.896	80.005	19.994	100.455	20.037	12.493	0.499
468.000	309.923	80.005	19.994	100.450	20.037	12.477	0.528
470.000	310.945	80.004	19.995	100.442	20.038	12.444	0.468
472.000	311.983	80.005	19.994	100.430	20.039	12.372	0.552
474.000	313.013	80.005	19.994	100.425	20.042	12.110	0.544
476.000	313.996	80.004	19.994	100.423	20.041	12.216	0.492
478.000	315.040	80.004	19.994	100.423	20.043	12.023	0.507
480.000	316.066	80.006	19.995	100.417	20.045	11.924	0.531
482.000	317.081	80.006	19.994	100.417	20.046	11.843	0.532
484.000	318.090	80.006	19.994	100.408	20.049	11.605	0.536
486.000	319.119	80.005	19.993	100.395	20.050	11.532	0.503
488.000	320.091	80.005	19.993	100.390	20.057	11.077	0.507
490.000	321.109	80.005	19.995	100.390	20.060	10.815	0.490
492.000	322.132	80.004	19.994	100.382	20.063	10.663	0.513
494.000	323.165	80.001	19.994	100.383	20.062	10.704	0.489
496.000	324.144	80.002	19.996	100.382	20.065	10.501	0.500
498.000	325.197	80.002	19.994	100.379	20.067	10.339	0.502
500.000	326.222	80.003	19.995	100.360	20.072	9.983	0.522
502.000	327.238	80.004	19.995	100.354	20.070	10.157	0.485
504.000	328.265	80.003	19.996	100.345	20.077	9.642	0.520
506.000	329.265	80.003	19.996	100.341	20.077	9.650	0.504
508.000	330.289	80.005	19.994	100.340	20.083	9.216	0.473
510.000	331.296	80.003	19.994	100.339	20.080	9.402	0.549
512.000	332.351	80.004	19.995	100.339	20.084	9.142	0.510
514.000	333.362	80.002	19.995	100.332	20.086	9.027	0.527
516.000	334.353	80.004	19.995	100.317	20.086	9.010	0.484
518.000	335.405	80.002	19.996	100.308	20.087	8.923	0.526
520.000	336.428	80.002	19.996	100.304	20.085	9.053	0.515
522.000	337.452	80.002	19.997	100.301	20.089	8.761	0.524
524.000	338.426	80.001	19.996	100.305	20.091	8.674	0.479
526.000	339.437	80.002	19.995	100.313	20.090	8.741	0.471
528.000	340.485	80.000	19.995	100.313	20.093	8.524	0.500
530.000	341.484	80.003	19.995	100.316	20.089	8.815	0.515
532.000	342.516	80.003	19.995	100.332	20.094	8.471	0.519
534.000	343.497	80.004	19.994	100.338	20.090	8.729	0.504
536.000	344.518	80.002	19.994	100.342	20.091	8.637	0.527
538.000	345.525	80.004	19.994	100.362	20.093	8.503	0.533
540.001	346.541	80.006	19.995	100.380	20.092	8.606	0.506
542.000	347.567	80.005	19.994	100.382	20.091	8.630	0.536
544.000	348.579	80.004	19.995	100.388	20.087	8.968	0.475
546.000	349.595	80.005	19.993	100.399	20.090	8.738	0.519
548.000	350.632	80.003	19.995	100.417	20.091	8.652	0.520
550.000	351.632	80.002	19.995	100.419	20.089	8.836	0.496
552.000	352.657	80.003	19.995	100.427	20.089	8.778	0.516
554.000	353.695	80.004	19.996	100.447	20.087	8.948	0.517
556.000	354.720	80.004	19.995	100.459	20.087	8.963	0.487
558.000	355.718	80.003	19.994	100.461	20.086	9.031	0.475
560.000	356.785	80.004	19.993	100.464	20.083	9.211	0.537
562.001	357.779	80.006	19.994	100.473	20.081	9.397	0.497
564.000	358.793	80.006	19.994	100.474	20.079	9.504	0.474
566.000	359.764	80.006	19.995	100.480	20.078	9.552	0.502
568.000	360.820	80.007	19.994	100.486	20.080	9.452	0.510
570.000	361.845	80.006	19.993	100.485	20.075	9.811	0.508
572.000	362.810	80.005	19.994	100.492	20.076	9.734	0.463
574.000	363.825	80.003	19.995	100.494	20.077	9.678	0.510
576.000	364.787	80.003	19.994	100.496	20.079	9.531	0.479
578.000	365.824	80.003	19.995	100.495	20.078	9.558	0.527
580.000	366.825	80.004	19.994	100.496	20.074	9.856	0.514
582.000	367.823	80.002	19.994	100.496	20.076	9.715	0.513
584.000	368.789	80.004	19.995	100.496	20.074	9.868	0.474
586.000	369.819	80.001	19.995	100.497	20.078	9.616	0.491
588.000	370.837	80.003	19.995	100.497	20.078	9.600	0.509
590.000	371.826	80.002	19.995	100.496	20.078	9.608	0.502
592.000	372.848	80.003	19.995	100.496	20.077	9.693	0.519
594.000	373.861	80.001	19.995	100.497	20.077	9.685	0.488
596.000	374.861	80.004	19.995	100.496	20.079	9.549	0.495
598.000	375.837	80.003	19.995	100.496	20.073	9.929	0.511
600.000	376.855	80.003	19.995	100.494	20.074	9.896	0.491
602.000	377.863	80.003	19.994	100.494	20.072	10.020	0.492
604.000	378.872	79.999	19.995	100.496	20.073	9.934	0.501
606.000	379.855	80.001	19.996	100.485	20.069	10.234	0.469
608.000	380.877	80.002	19.994	100.492	20.068	10.298	0.512
610.000	381.871	80.002	19.996	100.493	20.068	10.281	0.506
612.000	382.852	80.002	19.994	100.496	20.065	10.504	0.495
614.001	383.845	80.002	19.996	100.490	20.062	10.696	0.503
616.000	384.890	80.002	19.996	100.472	20.061	10.773	0.493
618.000	385.930	80.005	19.996	100.477	20.056	11.135	0.506
620.000	386.914	80.004	19.995	100.480	20.051	11.480	0.512
622.000	387.922	80.003	19.995	100.462	20.052	11.461	0.494
624.000	388.948	80.005	19.995	100.462	20.050	11.548	0.485
626.000	389.967	80.004	19.994	100.463	20.043	12.093	0.536
628.000	390.938	80.004	19.995	100.467	20.039	12.366	0.479
630.000	391.954	80.003	19.994	100.465	20.034	12.689	0.496
632.000	393.001	80.004	19.995	100.458	20.031	12.895	0.512
634.000	393.981	80.003	19.995	100.457	20.027	13.216	0.484
636.000	395.043	80.006	19.995	100.457	20.020	13.710	0.508
638.000	396.050	80.003	19.994	100.457	20.013	14.187	0.517
640.000	397.065	80.004	19.994	100.458	20.012	14.289	0.506
642.000	398.078	80.005	19.994	100.455	20.002	14.976	0.496
644.000	399.096	80.007	19.994	100.455	19.996	15.363	0.472
646.000	400.130	80.008	19.993	100.456	19.991	15.744	0.492
648.000	401.121	80.003	19.993	100.456	19.981	16.428	0.498
650.000	402.152	80.004	19.995	100.452	19.975	16.882	0.506
652.000	403.162	80.005	19.995	100.455	19.969	17.309	0.513
654.000	404.190	80.005	19.996	100.455	19.957	18.136	0.486
656.000	405.217	80.003	19.995	100.448	19.950	18.637	0.543
658.000	406.202	80.004	19.995	100.451	19.940	19.374	0.522
660.000	407.196	80.003	19.994	100.454	19.928	20.187	0.501
662.000	408.220	80.003	19.994	100.446	19.921	20.718	0.519
664.000	409.230	80.003	19.994	100.433	19.907	21.687	0.469
666.000	410.243	80.002	19.993	100.433	19.896	22.498	0.506
668.000	411.228	80.003	19.994	100.438	19.886	23.157	0.499
670.000	412.227	80.005	19.994	100.446	19.870	24.359	0.508
672.000	413.230	80.004	19.995	100.450	19.855	25.375	0.494
674.000	414.228	80.003	19.995	100.436	19.840	26.454	0.458
676.000	415.222	80.004	19.995	100.430	19.823	27.639	0.500
678.000	416.229	80.003	19.995	100.432	19.807	28.792	0.513
680.000	417.226	80.003	19.995	100.427	19.787	30.215	0.508
682.001	418.255	80.003	19.995	100.432	19.771	31.358	0.519
684.000	419.244	80.002	19.995	100.433	19.752	32.683	0.513
686.000	420.229	80.002	19.995	100.424	19.733	34.042	0.500
688.000	421.252	80.002	19.995	100.424	19.710	35.637	0.507
690.000	422.225	80.002	19.995	100.435	19.693	36.841	0.473
692.000	423.247	80.003	19.996	100.434	19.670	38.513	0.510
694.000	424.238	80.002	19.995	100.434	19.643	40.385	0.510
696.000	425.254	80.005	19.995	100.437	19.622	41.904	0.496
698.000	426.249	80.006	19.995	100.426	19.601	43.416	0.491
700.000	427.272	80.005	19.996	100.432	19.576	45.163	0.490
702.000	428.284	80.004	19.996	100.427	19.551	46.965	0.520
704.000	429.298	80.004	19.996	100.417	19.525	48.799	0.487
706.000	430.314	80.003	19.995	100.420	19.501	50.452	0.521
708.000	431.307	80.003	19.995	100.419	19.483	51.765	0.505
710.000	432.320	80.004	19.996	100.421	19.461	53.329	0.505
712.000	433.357	80.005	19.996	100.417	19.431	55.418	0.534
714.000	434.358	80.004	19.997	100.421	19.409	57.027	0.515
716.000	435.371	80.003	19.996	100.418	19.388	58.486	0.508
718.000	436.343	80.003	19.996	100.417	19.367	59.966	0.507
720.000	437.364	80.005	19.995	100.420	19.348	61.316	0.525
722.000	438.358	80.005	19.995	100.421	19.326	62.857	0.489
724.000	439.391	80.007	19.995	100.416	19.307	64.230	0.519
726.000	440.377	80.006	19.995	100.417	19.287	65.643	0.495
728.000	441.345	80.005	19.995	100.417	19.270	66.870	0.475
730.000	442.346	80.007	19.995	100.416	19.253	68.021	0.497
732.000	443.391	80.006	19.994	100.418	19.240	68.965	0.512
734.000	444.353	80.004	19.995	100.418	19.231	69.642	0.484
736.001	445.397	80.003	19.995	100.414	19.227	69.884	0.519
738.000	446.378	80.001	19.994	100.396	19.229	69.793	0.490
740.000	447.363	80.005	19.994	100.404	19.234	69.380	0.481
742.000	448.399	80.004	19.996	100.408	19.242	68.855	0.495
744.000	449.388	80.004	19.994	100.412	19.246	68.549	0.486
746.000	450.386	80.004	19.995	100.418	19.256	67.806	0.491
748.000	451.414	80.003	19.994	100.422	19.257	67.778	0.494
750.000	452.449	80.004	19.994	100.418	19.253	68.022	0.527
752.000	453.420	80.004	19.995	100.418	19.255	67.900	0.541
754.000	454.390	80.004	19.994	100.415	19.261	67.460	0.506
756.000	455.369	80.005	19.995	100.410	19.265	67.212	0.489
758.000	456.433	80.004	19.993	100.411	19.266	67.144	0.512
760.000	457.468	80.003	19.995	100.412	19.266	67.083	0.488
762.000	458.479	80.003	19.995	100.402	19.273	66.600	0.526
764.000	459.511	80.005	19.995	100.392	19.289	65.461	0.498
766.000	460.522	80.002	19.995	100.381	19.314	63.702	0.521
768.000	461.566	80.001	19.995	100.376	19.343	61.690	0.513
770.000	462.593	80.000	19.995	100.375	19.379	59.117	0.531
772.001	463.637	80.003	19.996	100.370	19.422	56.034	0.533
774.000	464.648	80.004	19.996	100.381	19.457	53.555	0.515
776.000	465.643	80.004	19.996	100.389	19.489	51.306	0.516
778.000	466.718	80.003	19.995	100.390	19.527	48.615	0.517
780.000	467.719	80.004	19.994	100.395	19.561	46.215	0.494
782.000	468.731	80.005	19.995	100.379	19.581	44.806	0.520
784.000	469.774	80.007	19.995	100.382	19.602	43.310	0.527
786.000	470.799	80.004	19.996	100.396	19.616	42.279	0.533
788.000	471.801	80.005	19.995	100.389	19.624	41.737	0.503
790.000	472.846	80.005	19.996	100.384	19.639	40.676	0.548
792.000	473.871	80.002	19.994	100.372	19.664	38.910	0.529
794.000	474.932	80.004	19.996	100.355	19.675	38.121	0.536
796.000	475.940	80.002	19.995	100.376	19.671	38.408	0.528
798.000	476.985	80.003	19.995	100.402	19.672	38.327	0.522
800.000	478.007	80.004	19.996	100.411	19.698	36.486	0.496
802.001	479.004	80.002	19.995	100.355	19.724	34.667	0.524
804.000	480.057	80.003	19.997	100.340	19.729	34.304	0.535
806.000	481.056	80.003	19.995	100.374	19.740	33.514	0.499
808.000	482.052	80.005	19.995	100.411	19.752	32.687	0.520
810.000	483.130	80.005	19.995	100.394	19.770	31.366	0.558
812.000	484.144	80.004	19.993	100.348	19.785	30.309	0.515
814.000	485.112	80.003	19.995	100.366	19.798	29.444	0.507
816.000	486.177	80.003	19.994	100.381	19.815	28.224	0.527
818.000	487.184	80.001	19.994	100.377	19.829	27.219	0.552
820.000	488.155	80.002	19.994	100.367	19.845	26.058	0.488
822.000	489.194	80.002	19.995	100.379	19.862	24.866	0.494
824.000	490.184	80.001	19.995	100.380	19.876	23.910	0.473
826.000	491.213	80.004	19.995	100.376	19.890	22.884	0.488
828.000	492.240	80.003	19.995	100.378	19.904	21.930	0.508
830.000	493.224	80.002	19.996	100.373	19.921	20.713	0.491
832.000	494.265	80.002	19.994	100.361	19.933	19.827	0.521
834.000	495.296	80.004	19.995	100.367	19.949	18.686	0.498
836.000	496.314	80.003	19.994	100.371	19.958	18.048	0.522
838.000	497.351	80.002	19.995	100.378	19.969	17.332	0.515
840.000	498.332	80.005	19.995	100.368	19.978	16.658	0.474
842.000	499.359	80.002	19.995	100.373	19.991	15.740	0.498
844.000	500.362	80.002	19.994	100.356	20.001	15.027	0.491
846.000	501.396	80.003	19.994	100.348	20.011	14.309	0.480
848.000	502.482	80.002	19.994	100.361	20.022	13.541	0.540
850.000	503.463	80.003	19.995	100.371	20.033	12.748	0.495
852.001	504.480	80.005	19.995	100.364	20.041	12.230	0.531
854.000	505.492	80.001	19.995	100.368	20.050	11.541	0.500
856.000	506.543	80.002	19.996	100.365	20.058	10.993	0.553
858.000	507.554	80.002	19.995	100.356	20.060	10.834	0.524
860.001	508.571	80.003	19.995	100.356	20.067	10.385	0.525
862.000	509.594	80.002	19.994	100.361	20.074	9.874	0.527
864.000	510.588	80.003	19.996	100.361	20.083	9.211	0.525
866.000	511.599	80.003	19.996	100.364	20.089	8.772	0.490
868.000	512.580	80.004	19.996	100.364	20.098	8.144	0.488
870.000	513.641	80.004	19.995	100.360	20.101	7.962	0.481
872.000	514.693	80.003	19.994	100.364	20.105	7.682	0.553
874.000	515.716	80.003	19.996	100.362	20.111	7.203	0.521
876.000	516.737	80.002	19.997	100.359	20.117	6.780	0.531
878.000	517.784	80.006	19.993	100.347	20.118	6.763	0.513
880.000	518.779	80.003	19.994	100.351	20.122	6.482	0.508
882.000	519.832	80.004	19.995	100.349	20.127	6.082	0.542
884.000	520.851	80.005	19.995	100.352	20.136	5.485	0.497
886.000	521.841	80.004	19.994	100.345	20.136	5.497	0.514
888.000	522.855	80.003	19.995	100.352	20.139	5.271	0.524
890.000	523.912	80.005	19.994	100.354	20.147	4.717	0.535
892.000	524.921	80.005	19.996	100.345	20.142	5.016	0.517
894.000	525.906	80.005	19.995	100.344	20.150	4.452	0.493
896.000	526.909	80.003	19.996	100.340	20.153	4.245	0.515
898.000	527.975	80.002	19.996	100.339	20.156	4.021	0.518
900.000	528.964	80.001	19.995	100.342	20.160	3.764	0.477
902.000	529.967	80.003	19.995	100.339	20.163	3.569	0.505
904.000	530.984	80.002	19.995	100.341	20.167	3.262	0.505
906.000	531.991	80.004	19.995	100.340	20.172	2.928	0.511
908.000	533.000	80.004	19.994	100.341	20.174	2.787	0.521
910.000	534.039	80.003	19.995	100.340	20.177	2.577	0.531
912.000	535.044	80.003	19.995	100.340	20.179	2.410	0.528
914.000	536.052	80.005	19.995	100.339	20.184	2.057	0.508
916.000	537.075	80.003	19.994	100.339	20.185	1.989	0.479
918.000	538.063	80.003	19.996	100.339	20.190	1.673	0.500
920.000	539.093	80.003	19.994	100.339	20.194	1.375	0.504
922.000	540.060	80.003	19.995	100.342	20.193	1.456	0.474
924.000	541.100	80.004	19.995	100.342	20.197	1.109	0.514
926.000	542.123	80.003	19.995	100.342	20.198	1.062	0.499
928.000	543.134	80.003	19.996	100.342	20.200	0.898	0.518
930.000	544.125	80.002	19.994	100.343	20.202	0.759	0.468
932.000	545.119	80.004	19.996	100.344	20.202	0.825	0.492
934.000	546.173	80.003	19.996	100.343	20.202	0.819	0.507
936.000	547.116	80.004	19.994	100.347	20.204	0.628	0.495
938.000	548.160	80.002	19.996	100.348	20.210	0.191	0.530
940.000	549.159	80.005	19.993	100.349	20.210	0.240	0.478
942.000	550.168	80.005	19.994	100.346	20.209	0.259	0.512
944.000	551.175	80.006	19.993	100.345	20.208	0.355	0.488
946.000	552.165	80.006	19.994	100.344	20.211	0.178	0.477
948.000	553.174	80.005	19.991	100.346	20.211	0.156	0.474
950.000	554.264	80.003	19.997	100.345	20.213	0.000	0.569
952.000	555.223	80.003	19.996	100.344	20.212	0.114	0.505
954.000	556.209	80.003	19.996	100.343	20.215	-0.108	0.456
956.000	557.243	80.004	19.995	100.340	20.212	0.079	0.475
958.000	558.268	80.005	19.995	100.339	20.215	-0.127	0.538
960.000	559.295	80.004	19.996	100.340	20.219	-0.402	0.510
962.000	560.316	80.004	19.995	100.349	20.217	-0.296	0.498
964.000	561.328	80.005	19.995	100.327	20.221	-0.579	0.498
966.000	562.397	80.006	19.992	100.348	20.222	-0.593	0.500
968.000	563.437	80.005	19.994	100.339	20.221	-0.525	0.551
970.000	564.457	80.007	19.993	100.340	20.220	-0.462	0.534
972.000	565.510	80.006	19.995	100.339	20.224	-0.803	0.518
974.000	566.609	80.006	19.995	100.338	20.221	-0.568	0.553
976.000	567.653	80.006	19.995	100.337	20.221	-0.572	0.526
978.000	568.739	80.005	19.995	100.337	20.222	-0.639	0.550
980.000	569.804	80.002	19.995	100.338	20.223	-0.678	0.528
982.000	570.863	80.004	19.996	100.338	20.221	-0.554	0.543
984.000	571.954	80.003	19.995	100.339	20.224	-0.782	0.531
986.000	573.026	80.002	19.996	100.337	20.222	-0.608	0.541
988.000	574.087	80.003	19.997	100.332	20.225	-0.817	0.516
990.000	575.218	80.003	19.996	100.337	20.227	-0.973	0.563
992.000	576.261	80.004	19.994	100.336	20.226	-0.892	0.548
994.000	577.334	80.002	19.996	100.330	20.227	-0.977	0.520
996.000	578.416	80.002	19.994	100.343	20.227	-1.002	0.541
998.000	579.468	80.003	19.994	100.341	20.227	-1.004	0.517
1000.000	580.528	80.004	19.993	100.341	20.229	-1.114	0.512
1002.000	581.631	80.004	19.997	100.340	20.230	-1.163	0.542
1004.000	582.642	80.003	19.993	100.342	20.230	-1.219	0.532
1006.000	583.688	80.003	19.993	100.343	20.230	-1.167	0.516
1008.000	584.768	80.001	19.996	100.343	20.228	-1.060	0.537
1010.000	585.786	80.002	19.997	100.344	20.231	-1.250	0.516
1012.000	586.816	80.002	19.994	100.344	20.229	-1.143	0.517
1014.000	587.866	80.002	19.995	100.345	20.231	-1.279	0.520
1016.000	588.920	80.005	19.993	100.344	20.228	-1.031	0.503
1018.000	589.961	80.003	19.995	100.341	20.227	-1.012	0.520
1020.000	590.962	80.004	19.996	100.342	20.231	-1.232	0.520
1022.000	591.980	80.005	19.994	100.341	20.232	-1.302	0.529
1024.000	593.026	80.003	19.996	100.342	20.234	-1.462	0.513
1025.999	594.074	80.005	19.996	100.341	20.229	-1.157	0.510
1027.999	595.149	80.004	19.994	100.342	20.227	-1.016	0.529
1029.999	596.082	80.007	19.994	100.340	20.229	-1.109	0.472
1031.999	597.153	80.005	19.997	100.339	20.232	-1.369	0.504
1033.999	598.157	80.005	19.995	100.338	20.233	-1.385	0.512
1035.999	599.209	80.005	19.993	100.339	20.233	-1.394	0.523
1037.999	600.171	80.004	19.995	100.339	20.236	-1.651	0.528
1040.000	601.206	80.004	19.995	100.336	20.233	-1.396	0.539
1041.999	602.231	80.006	19.995	100.339	20.234	-1.476	0.499
1043.999	603.245	80.004	19.995	100.340	20.234	-1.487	0.514
1045.999	604.312	80.005	19.995	100.339	20.237	-1.667	0.518
1047.999	605.321	80.007	19.995	100.336	20.238	-1.748	0.568
1050.001	606.284	80.006	19.994	100.337	20.240	-1.881	0.494
1051.999	607.337	80.007	19.995	100.338	20.239	-1.831	0.506
1054.000	608.306	80.005	19.995	100.338	20.238	-1.738	0.517
1056.001	609.306	80.003	19.994	100.338	20.238	-1.748	0.484
1058.000	610.264	80.005	19.994	100.332	20.235	-1.518	0.484
1060.000	611.320	80.003	19.993	100.336	20.240	-1.895	0.526
1062.000	612.330	80.004	19.994	100.339	20.238	-1.769	0.508
1064.000	613.315	80.004	19.994	100.338	20.239	-1.846	0.490
1066.001	614.348	80.002	19.995	100.342	20.239	-1.802	0.542
1068.001	615.373	80.002	19.993	100.341	20.239	-1.810	0.514
1070.001	616.325	80.003	19.996	100.341	20.242	-2.051	0.469
1071.999	617.312	80.002	19.995	100.341	20.243	-2.082	0.499
1074.000	618.271	80.003	19.995	100.341	20.239	-1.862	0.500
1075.999	619.205	80.001	19.996	100.340	20.241	-1.970	0.471
1077.999	620.187	80.003	19.996	100.341	20.241	-1.943	0.483
1080.001	621.159	80.002	19.995	100.338	20.241	-1.968	0.478
1082.000	622.131	80.004	19.996	100.338	20.241	-1.970	0.496
1084.000	623.117	80.003	19.996	100.339	20.240	-1.906	0.500
1086.000	624.040	80.003	19.996	100.338	20.241	-1.997	0.483
1088.000	625.016	80.003	19.996	100.338	20.243	-2.099	0.502
1090.000	626.021	80.002	19.995	100.333	20.247	-2.380	0.512
1092.001	626.981	80.003	19.995	100.335	20.243	-2.090	0.480
1094.001	627.938	80.003	19.994	100.334	20.243	-2.084	0.479
1095.999	628.942	80.003	19.995	100.339	20.244	-2.175	0.517
1097.999	629.925	80.004	19.995	100.336	20.242	-2.018	0.501
1099.999	630.923	80.005	19.996	100.338	20.242	-2.065	0.486
1102.000	631.916	80.005	19.994	100.339	20.243	-2.090	0.498
1104.000	632.915	80.006	19.995	100.335	20.247	-2.393	0.505
1106.001	633.928	80.006	19.994	100.338	20.245	-2.256	0.489
1107.999	634.956	80.006	19.995	100.338	20.245	-2.223	0.504
1109.999	635.971	80.006	19.995	100.338	20.250	-2.633	0.534
1111.999	636.987	80.004	19.994	100.336	20.246	-2.348	0.485
1114.000	638.008	80.003	19.995	100.334	20.244	-2.207	0.537
1116.000	638.992	80.004	19.994	100.340	20.245	-2.281	0.505
1117.999	640.018	80.004	19.995	100.332	20.247	-2.428	0.534
1119.999	641.020	80.004	19.994	100.336	20.246	-2.337	0.478
1121.999	642.045	80.005	19.994	100.341	20.247	-2.379	0.515
1123.999	643.066	80.005	19.995	100.325	20.244	-2.200	0.517
1125.999	644.046	80.005	19.993	100.333	20.247	-2.364	0.477
1127.999	645.026	80.004	19.994	100.335	20.244	-2.219	0.479
1130.000	646.044	80.007	19.994	100.331	20.242	-2.038	0.501
1131.999	647.070	80.006	19.994	100.328	20.245	-2.240	0.482
1134.000	648.065	80.006	19.995	100.337	20.242	-2.076	0.482
1135.999	649.088	80.005	19.994	100.334	20.246	-2.300	0.494
1137.999	650.080	80.005	19.993	100.331	20.249	-2.509	0.496
1140.001	651.134	80.002	19.994	100.335	20.250	-2.621	0.518
1142.001	652.132	80.003	19.995	100.342	20.248	-2.476	0.504
1144.000	653.155	80.003	19.995	100.341	20.248	-2.463	0.533
1146.000	654.166	80.003	19.995	100.341	20.248	-2.499	0.535
1148.001	655.211	80.002	19.995	100.340	20.246	-2.335	0.509
1150.000	656.214	80.003	19.995	100.340	20.246	-2.337	0.501
1152.000	657.270	80.003	19.995	100.339	20.248	-2.493	0.538
1154.001	658.282	80.004	19.995	100.339	20.249	-2.511	0.510
1156.001	659.294	80.003	19.995	100.339	20.250	-2.599	0.517
1158.000	660.307	80.004	19.995	100.340	20.248	-2.443	0.478
1160.000	661.346	80.003	19.995	100.340	20.250	-2.594	0.511
1162.000	662.349	80.003	19.995	100.341	20.246	-2.331	0.514
1164.000	663.330	80.004	19.995	100.335	20.247	-2.401	0.483
1166.000	664.390	80.003	19.996	100.327	20.251	-2.702	0.520
1168.000	665.352	80.001	19.996	100.334	20.248	-2.460	0.492
1170.000	666.371	80.002	19.997	100.335	20.248	-2.457	0.548
1172.000	667.404	80.002	19.996	100.336	20.246	-2.318	0.534
1174.000	668.412	80.003	19.997	100.335	20.247	-2.383	0.517
1176.000	669.412	80.002	19.996	100.335	20.250	-2.636	0.510
1178.000	670.418	80.002	19.995	100.332	20.250	-2.584	0.487
1180.000	671.471	80.002	19.995	100.332	20.250	-2.619	0.510
1182.000	672.490	80.005	19.995	100.338	20.250	-2.609	0.506
1184.000	673.480	80.005	19.994	100.337	20.249	-2.557	0.506
1186.000	674.501	80.005	19.994	100.341	20.249	-2.557	0.480
1188.000	675.551	80.005	19.993	100.340	20.251	-2.669	0.529
1190.000	676.609	80.005	19.994	100.336	20.251	-2.679	0.547
1192.000	677.577	80.004	19.994	100.340	20.248	-2.451	0.485
1194.000	678.603	80.005	19.994	100.331	20.249	-2.528	0.553
1196.000	679.615	80.004	19.994	100.331	20.249	-2.532	0.502
1198.001	680.618	80.002	19.995	100.335	20.250	-2.638	0.502
1200.000	681.645	80.003	19.994	100.342	20.248	-2.492	0.501
1202.000	682.680	80.004	19.994	100.343	20.251	-2.683	0.492
1204.001	683.703	80.006	19.994	100.342	20.253	-2.791	0.486
1206.001	684.678	80.005	19.994	100.340	20.250	-2.629	0.493
1208.000	685.687	80.005	19.993	100.339	20.251	-2.658	0.488
1210.000	686.681	80.007	19.994	100.342	20.253	-2.829	0.487
1212.000	687.756	80.007	19.994	100.339	20.251	-2.690	0.494
1214.001	688.713	80.007	19.995	100.334	20.254	-2.872	0.486
1216.000	689.757	80.006	19.994	100.337	20.249	-2.509	0.532
1218.000	690.767	80.006	19.994	100.336	20.252	-2.769	0.530
1220.000	691.731	80.004	19.995	100.333	20.254	-2.905	0.480
1222.000	692.750	80.005	19.995	100.311	20.250	-2.625	0.489
1224.000	693.764	80.005	19.994	100.328	20.252	-2.723	0.510
1226.000	694.784	80.004	19.995	100.332	20.249	-2.551	0.504
1228.000	695.758	80.003	19.995	100.331	20.252	-2.764	0.479
1230.000	696.764	80.004	19.994	100.335	20.251	-2.715	0.474
1232.001	697.756	80.004	19.995	100.338	20.253	-2.800	0.485
1234.000	698.751	80.002	19.996	100.332	20.251	-2.663	0.503
1236.000	699.726	80.003	19.996	100.334	20.248	-2.461	0.450
1238.000	700.747	80.003	19.996	100.335	20.251	-2.648	0.497
1240.000	701.751	80.002	19.996	100.336	20.252	-2.729	0.507
1242.000	702.747	80.003	19.994	100.337	20.251	-2.667	0.507
1244.000	703.723	80.004	19.993	100.334	20.248	-2.501	0.500
1246.000	704.757	80.004	19.994	100.334	20.251	-2.669	0.508
1248.000	705.703	80.003	19.993	100.340	20.254	-2.891	0.470
1250.000	706.731	80.003	19.995	100.342	20.252	-2.785	0.499
1252.000	707.743	80.003	19.995	100.343	20.253	-2.841	0.507
1254.000	708.744	80.001	19.995	100.342	20.256	-3.005	0.469
1256.000	709.740	80.003	19.996	100.340	20.253	-2.835	0.486
1258.000	710.772	80.003	19.996	100.333	20.255	-2.940	0.503
1260.000	711.759	80.003	19.996	100.348	20.252	-2.754	0.484
1262.000	712.809	80.003	19.996	100.340	20.252	-2.777	0.518
1264.000	713.812	80.004	19.996	100.340	20.252	-2.756	0.524
1266.000	714.818	80.007	19.995	100.340	20.251	-2.650	0.490
1268.000	715.872	80.006	19.996	100.340	20.254	-2.897	0.515
1270.000	716.907	80.005	19.995	100.340	20.256	-3.059	0.533
1272.000	717.890	80.004	19.995	100.341	20.253	-2.843	0.491
1274.000	718.865	80.004	19.994	100.341	20.256	-3.007	0.472
1276.000	719.896	80.005	19.994	100.341	20.256	-3.069	0.519
1278.001	720.891	80.003	19.994	100.339	20.255	-2.930	0.504
1280.000	721.884	80.004	19.995	100.338	20.255	-2.994	0.480
1282.000	722.892	80.005	19.994	100.338	20.253	-2.856	0.477
1284.000	723.887	80.005	19.995	100.339	20.258	-3.181	0.486
1286.000	724.931	80.005	19.995	100.339	20.252	-2.781	0.527
1288.001	725.903	80.006	19.995	100.339	20.253	-2.835	0.509
1290.000	726.868	80.005	19.994	100.338	20.254	-2.863	0.494
1292.000	727.875	80.006	19.994	100.332	20.252	-2.722	0.501
1294.000	728.857	80.006	19.994	100.339	20.253	-2.816	0.472
1296.000	729.895	80.008	19.995	100.338	20.251	-2.652	0.528
1298.000	730.872	80.006	19.995	100.334	20.251	-2.673	0.502
1300.000	731.870	80.007	19.995	100.341	20.253	-2.806	0.485
1302.000	732.881	80.004	19.994	100.349	20.256	-3.038	0.512
1304.001	733.857	80.006	19.995	100.353	20.252	-2.781	0.507
1306.000	734.880	80.005	19.995	100.343	20.255	-2.930	0.505
1308.000	735.833	80.002	19.994	100.339	20.253	-2.814	0.467
1310.000	736.850	80.005	19.996	100.340	20.252	-2.729	0.482
1312.000	737.851	80.003	19.994	100.339	20.252	-2.766	0.533
1314.002	738.855	80.005	19.994	100.341	20.255	-2.938	0.506
1316.000	739.874	80.002	19.995	100.341	20.250	-2.592	0.510
1318.000	740.869	80.004	19.994	100.342	20.249	-2.536	0.498
1320.000	741.825	80.003	19.994	100.343	20.253	-2.795	0.490
1322.000	742.852	80.004	19.995	100.343	20.251	-2.648	0.511
1323.500	743.627	80.004	19.995	100.341	20.251	-2.677	0.505