File: 01_Data/Overstuffed_Chair/Cone/Overstuffed_Chair_Cone_HF50Scan_210326_R3.csv
Names,Time,Stack TC,Smoke TC,Exh Press,Smoke Comp,Smoke Meas,CO Meter,CO2 Meter,O2 Meter,Sample Mass,Ext Coeff,Start Test,Flame Verif
Chan Gain,,500,500,1,1,1,1,1,1,1,1,1.0,1.0
Offset,,0,0,0.138348,0,0,0,0,0,0,0,0.0,0.0
Gain,,1,1,25.011,13.5067,16.616,1,1,1,1.00091,1.04608,1.0,1.0
Units,sec,C,C,Pa,%,%,%,%,%,g,/m,,
Baseline,,32.5547,34.4848,159.52,101.528,98.2471,-0.00087822,0.0655892,20.9217,-0.0235631,0.301445,,
2,0.25,28.6112,29.9472,159.79,100.554,97.1203,-0.000782782,0.0749791,20.9135,486.052,0.318821,0.0,0.0
4,0.75,28.6546,30.7538,160.229,100.555,97.1452,-0.000758795,0.0750711,20.9132,486.403,0.31655,0.0,0.0
6,1.25,29.2766,29.8643,163.41,100.545,97.0849,-0.000738211,0.0751457,20.913,487.304,0.321347,0.0,0.0
8,1.75,29.1975,29.9781,160.475,100.545,96.9408,-0.000727306,0.075152,20.9129,487.183,0.334969,0.0,0.0
10,2.25,28.4589,30.2843,155.909,100.534,97.1148,-0.000723666,0.0751571,20.9127,487.404,0.317505,0.0,0.0
12,2.75,28.8508,30.8623,158.716,100.545,97.416,-0.000720717,0.0752417,20.9126,490.186,0.290104,0.0,0.0
14,3.25,29.227,30.8932,156.367,100.531,97.1969,-0.000731725,0.0753101,20.9121,490.036,0.309483,0.0,0.0
16,3.75,28.7921,30.709,163.239,100.533,97.2791,-0.000740641,0.0755007,20.9116,487.214,0.301956,0.0,0.0
18,4.25,29.1896,31.4653,157.173,100.505,97.6675,-0.000749145,0.0756551,20.9113,486.413,0.262793,0.0,0.0
20,4.75,29.6455,30.8038,161.094,100.512,97.2973,-0.000757187,0.0759154,20.911,486.173,0.29824,0.0,0.0
22,5.25,29.114,30.7667,157.815,100.49,97.3886,-0.000763701,0.0761263,20.9108,485.552,0.287679,0.0,0.0
24,5.75,29.4822,30.5534,158.347,100.503,97.0357,-0.000765324,0.0763782,20.9106,485.282,0.322197,0.0,0.0
26,6.25,29.0253,30.8813,163.175,100.495,97.4018,-0.000766639,0.0765822,20.9104,485.122,0.286889,0.0,0.0
28,6.75,29.6638,31.0644,156.687,100.5,97.2071,-0.000761614,0.076776,20.9103,484.901,0.305704,0.0,0.0
30,7.25,28.9585,31.3701,157.202,100.476,97.0473,-0.000757545,0.0769586,20.9102,484.841,0.318573,0.0,0.0
32,7.75,29.5042,30.8012,156.821,100.497,97.559,-0.000738417,0.0771065,20.9097,484.861,0.272281,0.0,0.0
34,8.25,29.7412,31.1341,161.588,100.493,97.128,-0.000722923,0.0776052,20.9088,484.911,0.312497,0.0,0.0
36,8.75,29.9424,31.3201,160.003,100.481,97.0854,-0.000673837,0.0780092,20.9081,484.961,0.315467,0.0,0.0
38,9.25,29.1946,31.1121,157.962,100.479,96.6488,-0.000634078,0.0787429,20.9068,485.032,0.356674,0.0,0.0
40,9.75,30.4735,31.5647,158.149,100.484,96.7243,-0.000601873,0.0797032,20.9052,485.122,0.349918,0.0,0.0
42,10.25,29.6639,31.6829,153.474,100.468,96.2679,-0.000502056,0.0815812,20.9038,485.182,0.391849,0.0,0.0
44,10.75,29.8721,31.638,159.408,100.47,96.2248,-0.000354846,0.0831023,20.9018,485.242,0.396183,0.0,0.0
46,11.25,29.98,32.5772,155.162,100.461,95.3268,-0.000235606,0.0867079,20.9001,485.372,0.481396,0.0,0.0
48,11.75,30.1879,32.1834,157.593,100.458,95.232,-2.16898e-06,0.0896284,20.8966,485.372,0.490226,0.0,0.0
50,12.25,30.4565,32.1103,154.748,100.457,94.4592,0.000186915,0.091994,20.8919,485.222,0.564917,0.0,0.0
52,12.75,30.5714,32.5271,155.793,100.452,94.6519,0.00043446,0.0997216,20.8809,485.202,0.545766,0.0,1.0
54,13.25,30.8905,32.4684,148.441,100.463,93.7569,0.000634972,0.111211,20.8654,485.222,0.633886,0.0,1.0
56,13.75,30.5467,33.2176,148.285,100.454,92.4628,0.000827772,0.120518,20.8529,485.112,0.76063,0.0,1.0
58,14.25,30.7932,34.4467,151.285,100.454,93.156,0.00101129,0.141567,20.8218,485.021,0.692132,0.0,1.0
60,14.75,30.9848,34.6242,147.729,100.44,92.0972,0.0011813,0.158616,20.7967,484.861,0.795704,0.0,1.0
62,15.25,32.1652,35.2009,147.584,100.44,92.5962,0.00133823,0.177348,20.7643,484.871,0.746124,0.0,1.0
64,15.75,32.3741,35.7524,152.42,100.464,93.0586,0.00149128,0.196951,20.7381,484.931,0.702593,0.0,1.0
66,16.25,32.8208,36.2546,145.589,100.455,91.2022,0.00163858,0.21541,20.7111,484.751,0.886707,0.0,1.0
68,16.75,33.4914,37.1027,146.104,100.443,92.1682,0.00179035,0.232684,20.6893,484.711,0.788897,0.0,1.0
70,17.25,32.211,36.1554,150.506,100.446,92.8533,0.00194249,0.248697,20.6667,484.531,0.721247,0.0,1.0
72,17.75,32.5263,36.3484,151.074,100.433,92.7498,0.00206573,0.263487,20.6483,484.601,0.73027,0.0,1.0
74,18.25,32.5315,37.0697,148.838,100.439,91.5633,0.00222802,0.277803,20.6298,484.551,0.848947,0.0,1.0
76,18.75,33.0019,37.5471,147.129,100.447,90.9964,0.0024157,0.291501,20.6114,484.571,0.906728,0.0,0.0
78,19.25,33.314,38.176,145.7,100.428,90.9771,0.00261274,0.302597,20.5965,484.491,0.906939,0.0,0.0
80,19.75,33.9149,38.8398,138.801,100.425,88.1501,0.00281287,0.317218,20.5777,484.471,1.19626,0.0,0.0
82,20.25,33.9021,39.5477,144.55,100.432,89.1298,0.00301421,0.329061,20.5625,484.341,1.09548,0.0,0.0
84,20.75,34.8247,40.0319,146.282,100.426,90.5704,0.0032126,0.342862,20.5491,484.131,0.947823,0.0,0.0
86,21.25,34.8311,40.5464,143.589,100.444,90.0623,0.0033733,0.354041,20.5371,484.361,1.00114,0.0,0.0
88,21.75,35.0322,41.4167,151.154,100.426,86.9458,0.00354454,0.36369,20.5274,484.211,1.3226,0.0,0.0
90,22.25,35.3984,41.8329,145.017,100.439,88.3332,0.00368323,0.37204,20.5196,484.141,1.17858,0.0,0.0
92,22.75,35.7864,42.061,146.539,100.423,89.3529,0.00379931,0.378261,20.5132,484.071,1.07178,0.0,0.0
94,23.25,35.8551,41.7751,152.467,100.435,91.1495,0.00389334,0.382814,20.5081,484.061,0.890206,0.0,0.0
96,23.75,36.4709,42.9692,144.702,100.42,89.9244,0.0039558,0.386501,20.5056,484.041,1.01298,0.0,0.0
98,24.25,36.8917,43.239,149.898,100.428,90.1602,0.0040064,0.38749,20.505,483.941,0.98963,0.0,0.0
100,24.75,36.7047,43.9314,141.03,100.412,87.5969,0.00404738,0.388291,20.5045,483.941,1.25286,0.0,0.0
102,25.25,37.711,44.4786,145.365,100.425,91.363,0.00407187,0.387553,20.506,483.88,0.867836,0.0,0.0
104,25.75,37.7208,44.221,150.352,100.418,89.7048,0.0040917,0.385707,20.5089,483.91,1.03519,0.0,0.0
106,26.25,37.6799,44.3734,147.85,100.428,89.4275,0.00410842,0.383135,20.5112,483.79,1.06455,0.0,0.0
108,26.75,38.2109,45.2338,146.845,100.416,91.5055,0.00412255,0.380083,20.514,483.78,0.85267,0.0,0.0
110,27.25,38.0974,44.8732,150.99,100.425,92.9506,0.0041399,0.377543,20.5163,483.7,0.709747,0.0,0.0
112,27.75,38.2134,45.312,149.216,100.414,89.7718,0.00415925,0.375424,20.5181,483.7,1.02797,0.0,0.0
114,28.25,38.5544,45.7682,147.274,100.432,86.0447,0.00418345,0.373708,20.5196,483.68,1.41872,0.0,0.0
116,28.75,38.502,45.912,144.73,100.414,88.0817,0.00421071,0.372738,20.5208,483.66,1.20244,0.0,0.0
118,29.25,38.5821,46.2096,145.262,100.426,91.0907,0.00424788,0.371953,20.5217,483.59,0.895301,0.0,0.0
120,29.75,38.7712,46.6763,145.597,100.413,87.8788,0.00429156,0.371513,20.5221,483.61,1.22349,0.0,0.0
122,30.25,38.7248,46.9771,148.701,100.422,88.5309,0.00434269,0.371333,20.5224,483.47,1.15644,0.0,0.0
124,30.75,39.4291,47.4011,145.755,100.418,90.3011,0.00439827,0.371435,20.5221,483.49,0.974428,0.0,0.0
126,31.25,39.5775,47.0818,145.45,100.43,89.6587,0.0044433,0.37174,20.522,483.4,1.041,0.0,0.0
128,31.75,39.9848,47.9056,150.668,100.412,88.4493,0.00447977,0.372441,20.5218,483.35,1.164,0.0,0.0
130,32.25,39.5658,47.9012,148.256,100.435,88.9838,0.00453678,0.373417,20.5217,483.3,1.11083,0.0,0.0
132,32.75,39.8125,47.7287,142.504,100.412,87.6841,0.00458296,0.374208,20.5207,483.21,1.24373,0.0,0.0
134,33.25,40.8485,48.3065,144.385,100.424,89.1303,0.00462036,0.375892,20.519,483.21,1.09475,0.0,0.0
136,33.75,40.2843,48.8194,143.199,100.426,87.8514,0.00468062,0.377257,20.5174,483.15,1.22755,0.0,0.0
138,34.25,41.156,48.8951,147.559,100.434,87.4696,0.00472944,0.379434,20.5159,483.17,1.2682,0.0,0.0
140,34.75,40.9168,49.4225,145.831,100.423,88.3585,0.00481523,0.382161,20.5132,483.11,1.17444,0.0,0.0
142,35.25,40.7819,49.4852,149.727,100.435,87.0315,0.00488472,0.384369,20.5098,483.03,1.31435,0.0,0.0
144,35.75,40.9536,49.6336,144.056,100.418,87.0878,0.00501237,0.386159,20.505,483.07,1.30691,0.0,0.0
146,36.25,41.4872,50.0971,139.702,100.438,83.4419,0.00511577,0.390392,20.4991,482.96,1.70118,0.0,0.0
148,36.75,41.1316,49.9243,143.726,100.426,87.6654,0.00527286,0.39382,20.4923,482.88,1.24697,0.0,0.0
150,37.25,42.1381,50.1079,158.538,100.441,88.427,0.00546612,0.397899,20.4849,482.82,1.16895,0.0,0.0
152,37.75,42.2041,51.0193,153.321,100.428,87.4615,0.00571355,0.401202,20.4789,482.689,1.26852,0.0,0.0
154,38.25,42.4266,50.9373,142.134,100.444,84.7502,0.00599577,0.408226,20.466,482.719,1.55892,0.0,0.0
156,38.75,42.5776,51.8542,144.652,100.425,83.8115,0.00622437,0.413915,20.4556,482.679,1.65946,0.0,0.0
158,39.25,42.1526,51.9433,144.612,100.445,83.8663,0.00656573,0.425804,20.4399,482.669,1.65527,0.0,0.0
160,39.75,42.6159,51.7474,146.182,100.431,83.3106,0.00698281,0.435434,20.4207,482.539,1.715,0.0,0.0
162,40.25,43.0265,52.7608,137.309,100.451,81.2163,0.00745375,0.449841,20.4051,482.459,1.95042,0.0,0.0
164,40.75,43.6897,53.6215,140.384,100.443,82.1265,0.007955,0.467457,20.3734,482.389,1.84744,0.0,0.0
166,41.25,44.2888,53.951,142.557,100.456,78.4644,0.0084848,0.481726,20.3477,482.209,2.26715,0.0,0.0
168,41.75,44.8509,55.1907,133.492,100.439,78.6672,0.00902535,0.507061,20.3095,482.249,2.24195,0.0,0.0
170,42.25,44.9131,56.0336,128.038,100.448,77.7474,0.00946319,0.527583,20.2786,482.049,2.35071,0.0,0.0
172,42.75,45.9053,57.0335,146.777,100.461,81.6037,0.00999094,0.552814,20.2375,482.019,1.9077,0.0,0.0
174,43.25,46.3901,58.0332,130.888,100.455,79.6063,0.0104184,0.580999,20.1896,481.889,2.13449,0.0,0.0
176,43.75,47.3177,59.0999,138.434,100.456,78.7818,0.0108723,0.612041,20.1389,481.749,2.23014,0.0,0.0
178,44.25,47.4864,60.4927,135.217,100.461,79.1738,0.0112399,0.644576,20.0871,481.759,2.18508,0.0,0.0
180,44.75,48.4301,62.1058,135.974,100.475,81.1179,0.011613,0.677862,20.0349,481.658,1.96376,0.0,0.0
182,45.25,49.6018,63.435,128.973,100.468,82.5915,0.0119153,0.711062,19.9833,481.518,1.79789,0.0,0.0
184,45.75,50.4622,64.5319,123.037,100.468,81.6073,0.0121601,0.737955,19.9415,481.408,1.90794,0.0,0.0
186,46.25,51.0002,65.8842,131.1,100.465,80.766,0.0124665,0.778665,19.8925,481.328,2.00272,0.0,0.0
188,46.75,51.7605,67.4789,119.095,100.473,81.0708,0.0127147,0.811641,19.8391,481.158,1.96891,0.0,0.0
190,47.25,53.3796,68.8353,124.746,100.475,81.0333,0.0129872,0.854993,19.7958,481.048,1.97331,0.0,0.0
192,47.75,54.3667,70.7836,126.571,100.47,80.9704,0.0132723,0.890107,19.7364,480.908,1.97998,0.0,0.0
194,48.25,55.4537,72.5188,122.082,100.476,80.7204,0.0135867,0.928328,19.6882,480.798,2.00888,0.0,0.0
196,48.75,56.2298,74.6342,118.619,100.471,80.7473,0.0139165,0.968087,19.627,480.678,2.00541,0.0,0.0
198,49.25,57.2041,76.7771,125.679,100.475,80.4309,0.0141837,1.00029,19.5774,480.608,2.04178,0.0,0.0
200,49.75,58.5057,78.2333,116.79,100.481,80.0987,0.0145804,1.0449,19.522,480.397,2.08032,0.0,0.0
202,50.25,60.1121,80.1425,124.94,100.499,80.5115,0.0149018,1.08103,19.4635,480.337,2.03477,0.0,0.0
204,50.75,61.0661,82.0813,123.411,100.482,80.6474,0.0153525,1.1172,19.4074,480.127,2.01779,0.0,0.0
206,51.25,62.0017,84.1129,103.955,100.493,78.7763,0.0157176,1.15272,19.3542,479.977,2.23414,0.0,0.0
208,51.75,63.4056,86.2951,117.107,100.493,78.9527,0.0161847,1.18149,19.305,479.867,2.21368,0.0,0.0
210,52.25,65.059,87.5225,126.222,100.486,78.4335,0.016563,1.21418,19.2597,479.697,2.27359,0.0,0.0
212,52.75,65.4157,89.2636,121.45,100.493,75.1227,0.0168694,1.24066,19.223,479.587,2.66993,0.0,0.0
214,53.25,66.4675,90.9313,120.654,100.506,77.5983,0.0172484,1.27089,19.1933,479.406,2.37359,0.0,0.0
216,53.75,67.8834,92.808,125.484,100.492,75.8682,0.0176729,1.29538,19.1581,479.316,2.57926,0.0,0.0
218,54.25,69.1338,95.1297,119.274,100.498,76.1415,0.0181079,1.3184,19.1296,479.146,2.54675,0.0,0.0
220,54.75,69.8692,95.8711,113.257,100.511,77.2971,0.0185422,1.33993,19.1017,478.996,2.40977,0.0,0.0
222,55.25,70.8903,98.0852,105.118,100.502,75.8276,0.0189961,1.35736,19.079,478.796,2.58503,0.0,0.0
224,55.75,71.459,99.4552,115.717,100.507,75.6374,0.0194557,1.37759,19.0607,478.706,2.60852,0.0,0.0
226,56.25,72.6801,100.749,112.554,100.514,72.7425,0.019828,1.39398,19.04,478.556,2.96733,0.0,0.0
228,56.75,72.7247,102.688,119.167,100.525,74.6933,0.0201295,1.41264,19.0233,478.385,2.72544,0.0,0.0
230,57.25,74.29,103.469,107.801,100.52,71.8805,0.0206529,1.43261,19.0043,478.295,3.07725,0.0,0.0
232,57.75,75.6242,104.875,116.38,100.521,72.7871,0.0210769,1.44879,18.9839,478.115,2.96235,0.0,0.0
234,58.25,75.9494,106.176,113.756,100.516,70.5448,0.0215344,1.46706,18.9675,477.945,3.24895,0.0,0.0
236,58.75,76.7853,107.862,114.022,100.535,70.9104,0.0220076,1.48186,18.9541,477.825,3.20325,0.0,0.0
238,59.25,78.2362,108.984,117.666,100.514,71.7902,0.0225042,1.49385,18.9433,477.695,3.08826,0.0,0.0
240,59.75,78.9765,110.249,122.979,100.533,69.6351,0.0230083,1.50476,18.9346,477.505,3.36959,0.0,0.0
242,60.25,80.2349,111.302,105.116,100.522,69.9561,0.0234166,1.5136,18.9275,477.355,3.32645,0.0,0.0
244,60.75,79.9031,113.026,113.406,100.547,68.9861,0.0240381,1.52146,18.9222,477.254,3.4568,0.0,0.0
246,61.25,81.3211,113.635,113.533,100.542,66.8949,0.0245415,1.52845,18.9183,477.064,3.73885,0.0,0.0
248,61.75,82.209,113.524,121.834,100.554,65.7616,0.0250492,1.53411,18.9152,476.974,3.89677,0.0,0.0
250,62.25,82.233,115.654,109.093,100.544,64.9426,0.0255504,1.54097,18.9131,476.794,4.01082,0.0,0.0
252,62.75,82.8549,116.62,116.217,100.559,68.5926,0.0260538,1.54652,18.9114,476.634,3.51046,0.0,0.0
254,63.25,83.5559,117.633,112.532,100.548,66.6824,0.0265492,1.55294,18.9101,476.484,3.7686,0.0,0.0
256,63.75,84.2157,118.92,112.285,100.569,65.7332,0.0269506,1.55813,18.909,476.274,3.90205,0.0,0.0
258,64.25,85.076,119.778,115.16,100.552,66.0435,0.0274237,1.56259,18.9095,476.133,3.85725,0.0,0.0
260,64.75,85.4112,119.992,111.116,100.574,65.2961,0.027807,1.56644,18.9112,476.003,3.96376,0.0,0.0
262,65.25,85.9974,120.953,115.802,100.59,66.0252,0.0282127,1.56875,18.9146,475.863,3.86328,0.0,0.0
264,65.75,86.4442,121.801,114.04,100.587,67.0653,0.0285413,1.56991,18.9193,475.673,3.71957,0.0,0.0
266,66.25,87.2969,122.705,114.329,100.559,62.9706,0.0288452,1.57084,18.9231,475.553,4.29509,0.0,0.0
268,66.75,87.8903,123.17,114.634,100.578,63.6065,0.0291253,1.56809,18.9324,475.393,4.20463,0.0,0.0
270,67.25,88.1451,123.745,108.824,100.572,66.1814,0.0293521,1.56586,18.94,475.223,3.83995,0.0,0.0
272,67.75,88.8841,124.479,117.825,100.589,65.5055,0.0295647,1.55928,18.9508,475.102,3.93569,0.0,0.0
274,68.25,88.6713,124.836,120.834,100.577,65.5937,0.0297629,1.55395,18.9637,474.972,3.92229,0.0,0.0
276,68.75,89.5421,125.467,111.955,100.599,65.6125,0.029919,1.54614,18.9742,474.792,3.92162,0.0,0.0
278,69.25,89.9737,126.192,120.803,100.591,65.9771,0.0300414,1.53666,18.9916,474.652,3.87006,0.0,0.0
280,69.75,89.8879,125.755,128.634,100.609,67.4882,0.0301095,1.52898,19.0056,474.522,3.66395,0.0,0.0
282,70.25,90.2189,126.165,105.764,100.596,63.9619,0.0301367,1.51698,19.0242,474.272,4.15518,0.0,0.0
284,70.75,90.5271,126.38,122.569,100.62,66.5491,0.0301587,1.50726,19.0392,474.252,3.79352,0.0,0.0
286,71.25,90.8157,126.409,117.5,100.601,65.6378,0.0300629,1.49459,19.066,474.072,3.91826,0.0,0.0
288,71.75,90.9874,126.95,123.082,100.632,66.2179,0.0299854,1.48,19.0877,473.951,3.84041,0.0,0.0
290,72.25,91.7301,126.677,118.605,100.618,67.9947,0.0297254,1.46818,19.1137,473.811,3.59609,0.0,0.0
292,72.75,91.6544,126.859,118.26,100.634,68.768,0.0295149,1.44922,19.1424,473.661,3.49378,0.0,0.0
294,73.25,91.0842,127.036,125.577,100.632,66.7945,0.0290968,1.43387,19.1752,473.541,3.76079,0.0,0.0
296,73.75,91.9583,126.52,114.76,100.64,67.4927,0.0287582,1.40807,19.2104,473.481,3.66612,0.0,0.0
298,74.25,91.9211,127.164,125.03,100.64,69.9799,0.0284839,1.38717,19.2389,473.341,3.33408,0.0,0.0
300,74.75,91.5992,126.723,133.256,100.65,69.5079,0.0280069,1.35586,19.2737,473.251,3.39709,0.0,0.0
302,75.25,91.1125,126.542,119.929,100.648,67.3198,0.0273913,1.3305,19.3124,473.151,3.69041,0.0,0.0
304,75.75,91.1779,125.317,122.65,100.66,69.7254,0.0265471,1.29281,19.3437,473.071,3.36928,0.0,0.0
306,76.25,91.2126,124.84,125.836,100.657,70.846,0.0258634,1.26228,19.3908,472.971,3.22271,0.0,0.0
308,76.75,90.7819,124.139,126.89,100.661,72.9945,0.0249479,1.23754,19.4387,472.88,2.94899,0.0,0.0
310,77.25,90.299,122.945,130.599,100.665,73.1715,0.0242064,1.20007,19.4863,472.82,2.92707,0.0,0.0
312,77.75,89.6705,122.824,127.823,100.669,73.7328,0.0233062,1.16972,19.5401,472.65,2.85739,0.0,0.0
314,78.25,89.894,122.386,125.411,100.669,73.099,0.022577,1.1347,19.5974,472.63,2.93658,0.0,0.0
316,78.75,90.1507,121.439,130.614,100.686,75.1593,0.0218165,1.09695,19.6438,472.54,2.68303,0.0,0.0
318,79.25,89.0937,120.155,134.228,100.675,76.9163,0.0210476,1.05946,19.6813,472.45,2.47001,0.0,0.0
320,79.75,88.7206,120.053,130.034,100.701,79.3756,0.0201592,1.02287,19.7408,472.37,2.18361,0.0,0.0
322,80.25,88.612,118.915,133.36,100.682,78.1282,0.0199203,0.988097,19.7593,472.27,2.3272,0.0,0.0
324,80.75,87.9865,118.081,136.251,100.702,79.3249,0.019165,0.95531,19.797,472.25,2.18951,0.0,0.0
326,81.25,87.5791,116.949,137.168,100.71,78.6358,0.0185533,0.923607,19.8331,472.2,2.27033,0.0,0.0
328,81.75,86.9891,115.318,136.889,100.701,80.1195,0.0180578,0.893298,19.8624,472.14,2.09798,0.0,0.0
330,82.25,85.964,114.705,136.329,100.707,79.7554,0.017437,0.868747,19.8989,472.06,2.1403,0.0,0.0
332,82.75,86.173,113.496,138.307,100.723,80.2397,0.0169342,0.832242,19.9286,472.03,2.08621,0.0,0.0
334,83.25,84.989,112.56,140.108,100.716,80.157,0.0163322,0.817284,19.9603,471.97,2.09503,0.0,0.0
336,83.75,84.7054,112.445,141.129,100.722,79.7392,0.0158445,0.791707,19.9929,471.92,2.14359,0.0,0.0
338,84.25,83.4936,111.105,137.683,100.716,77.2013,0.0152687,0.766589,20.0268,471.809,2.43983,0.0,0.0
340,84.75,83.3187,109.706,144.379,100.742,82.336,0.0148022,0.742284,20.061,471.749,1.85133,0.0,0.0
342,85.25,83.0858,109.145,136.276,100.73,81.1915,0.0143168,0.722597,20.0887,471.709,1.97865,0.0,0.0
344,85.75,82.564,107.866,144.16,100.749,81.193,0.0138266,0.697479,20.1241,471.669,1.9802,0.0,0.0
346,86.25,81.9216,106.968,141.484,100.739,82.0606,0.0133482,0.677134,20.1527,471.609,1.88177,0.0,0.0
348,86.75,81.2502,106.006,140.511,100.751,83.2096,0.0128874,0.654254,20.1852,471.629,1.7553,0.0,0.0
350,87.25,81.4582,105.082,140.42,100.761,82.7345,0.0124492,0.635721,20.2115,471.549,1.80875,0.0,0.0
352,87.75,80.8351,103.388,143.634,100.779,84.596,0.0120359,0.617708,20.2387,471.539,1.60623,0.0,0.0
354,88.25,80.0607,102.264,146.147,100.748,83.4961,0.0117011,0.600416,20.2606,471.499,1.72349,0.0,0.0
356,88.75,79.6415,101.709,135.415,100.762,83.1944,0.01143,0.584269,20.2784,471.449,1.75795,0.0,0.0
358,89.25,79.1206,100.805,145.699,100.763,84.6655,0.0110248,0.569265,20.2954,471.429,1.59719,0.0,0.0
360,89.75,78.0775,100.172,137.61,100.77,85.4291,0.0106966,0.557111,20.3114,471.349,1.51544,0.0,0.0
362,90.25,77.7532,99.1575,138.639,100.774,84.7486,0.0103275,0.543066,20.328,471.339,1.5892,0.0,0.0
364,90.75,77.5753,98.2749,139.488,100.765,83.9566,0.0100286,0.531689,20.3445,471.299,1.67453,0.0,0.0
366,91.25,76.9164,97.5696,146.445,100.786,88.5416,0.00974891,0.5193,20.361,471.279,1.18853,0.0,0.0
368,91.75,76.2671,96.4452,147.715,100.777,87.9077,0.00948866,0.506408,20.377,471.239,1.25371,0.0,0.0
370,92.25,75.9568,95.6458,143.418,100.79,87.5163,0.00924378,0.495966,20.39,471.199,1.29582,0.0,0.0
372,92.75,75.1334,94.9173,140.134,100.792,87.7729,0.00901475,0.484525,20.4085,471.199,1.26915,0.0,0.0
374,93.25,75.0946,94.0274,142.102,100.788,90.543,0.00879588,0.472574,20.4235,471.209,0.983607,0.0,0.0
376,93.75,73.8567,92.6833,145.133,100.787,89.1587,0.00858857,0.460883,20.441,471.199,1.12487,0.0,0.0
378,94.25,73.7362,92.0505,140.001,100.794,89.3747,0.00838336,0.449605,20.4552,471.189,1.10338,0.0,0.0
380,94.75,73.6281,91.1683,148.061,100.786,89.9026,0.00818357,0.438495,20.4707,471.179,1.04859,0.0,0.0
382,95.25,72.8989,90.6238,144.007,100.816,90.9609,0.00802174,0.42772,20.4832,471.189,0.943948,0.0,0.0
384,95.75,72.699,89.8765,148.591,100.792,90.7185,0.00780966,0.416335,20.4934,471.129,0.966255,0.0,0.0
386,96.25,71.6798,88.598,145.922,100.803,90.1308,0.00756497,0.40472,20.5078,471.129,1.02683,0.0,0.0
388,96.75,71.9483,88.8274,145.022,100.792,90.3676,0.00729136,0.391884,20.5195,471.119,1.00182,0.0,0.0
390,97.25,70.8978,87.0332,149.431,100.792,93.7467,0.00700187,0.378402,20.5376,471.129,0.66491,0.0,0.0
392,97.75,70.2161,86.2742,146.919,100.79,92.6545,0.00676738,0.367481,20.5522,471.089,0.772262,0.0,0.0
394,98.25,69.6256,85.1987,147.416,100.8,91.8178,0.00641597,0.351111,20.5683,471.059,0.8564,0.0,0.0
396,98.75,70.1301,85.0547,148.363,100.787,91.8995,0.00613132,0.337851,20.5851,471.049,0.847045,0.0,0.0
398,99.25,69.0242,83.6106,148.648,100.799,93.2082,0.00575489,0.327111,20.6032,471.069,0.718412,0.0,0.0
400,99.75,68.8244,83.3873,148.855,100.789,94.0353,0.00544998,0.311337,20.6218,471.049,0.636412,0.0,0.0
402,100.25,68.1926,82.1361,147.69,100.804,93.1601,0.00512262,0.29856,20.6369,471.069,0.723644,0.0,0.0
404,100.75,67.2937,81.0776,151.466,100.782,95.017,0.00478511,0.283681,20.6549,470.999,0.540549,0.0,0.0
406,101.25,67.0852,80.2531,153.994,100.799,96.0514,0.00445377,0.271629,20.6695,471.019,0.442728,0.0,0.0
408,101.75,66.3364,79.0018,147.691,100.794,96.2943,0.00413321,0.258041,20.6857,471.039,0.419104,0.0,0.0
410,102.25,66.2149,78.8452,148.599,100.797,95.8836,0.00387356,0.247035,20.6989,471.059,0.458552,0.0,0.0
412,102.75,65.6257,78.6452,151.312,100.797,97.6492,0.00355591,0.236228,20.7096,471.059,0.291153,0.0,0.0
414,103.25,65.3018,77.3876,150.141,100.811,97.5772,0.00329861,0.225773,20.7205,471.039,0.299198,0.0,0.0
416,103.75,64.4355,76.0122,151.021,100.79,97.9956,0.0030902,0.215502,20.7315,471.049,0.258027,0.0,0.0
418,104.25,64.1911,75.6084,153.474,100.81,97.7354,0.00286968,0.205559,20.7425,471.009,0.284181,0.0,0.0
420,104.75,64.4541,75.3973,155.354,100.794,97.6203,0.00269106,0.197506,20.7532,471.019,0.293607,0.0,0.0
422,105.25,63.65,74.3232,150.51,100.806,97.8916,0.0025513,0.188125,20.7633,471.029,0.269191,0.0,0.0
424,105.75,63.2426,74.0676,153.876,100.804,98.0615,0.0024381,0.180526,20.7728,471.059,0.253095,0.0,0.0
426,106.25,62.4878,72.9727,151.787,100.81,98.2648,0.00235093,0.174371,20.7804,471.029,0.234612,0.0,0.0
428,106.75,61.8545,72.2132,149.26,100.801,98.5011,0.00228441,0.167683,20.7902,471.039,0.211823,0.0,0.0
430,107.25,61.7799,71.5667,154.661,100.806,98.8018,0.00224089,0.160731,20.798,471.019,0.184266,0.0,0.0
432,107.75,61.2022,70.967,153.912,100.79,98.459,0.00221497,0.154277,20.8074,471.019,0.214693,0.0,0.0
434,108.25,60.57,70.2337,150.271,100.813,98.6872,0.00219397,0.148307,20.815,470.999,0.195591,0.0,0.0
436,108.75,60.697,69.8748,151.566,100.787,98.5265,0.00220899,0.142767,20.8218,470.839,0.208148,0.0,0.0
438,109.25,60.1104,68.983,150.15,100.799,98.3607,0.00222116,0.137645,20.828,470.779,0.224691,0.0,0.0
440,109.75,60.132,68.0173,155.794,100.783,98.5437,0.00224788,0.133497,20.8329,470.738,0.206204,0.0,0.0
442,110.25,58.7272,67.6628,154.842,100.803,98.4114,0.00228472,0.128857,20.8379,470.909,0.220375,0.0,0.0
444,110.75,58.4347,66.8443,152.708,100.801,98.3318,0.00231455,0.125098,20.8419,470.979,0.227577,0.0,0.0
446,111.25,58.2247,66.1633,153.834,100.787,98.5462,0.00233255,0.121108,20.846,471.029,0.206306,0.0,0.0
448,111.75,57.3612,65.0732,151.644,100.777,98.5645,0.00234713,0.117876,20.8503,470.979,0.203743,0.0,0.0
450,112.25,57.0855,65.063,155.256,100.781,98.0463,0.00234661,0.114761,20.8542,470.909,0.252417,0.0,0.0
452,112.75,57.2014,64.7556,154.593,100.78,98.3242,0.00234619,0.111791,20.8577,470.839,0.226372,0.0,0.0
454,113.25,56.6935,63.8879,150.901,100.779,98.7765,0.00233722,0.109385,20.8613,470.728,0.184182,0.0,0.0
456,113.75,56.4914,63.7833,153.873,100.762,98.2734,0.00232995,0.106645,20.8649,470.749,0.229455,0.0,0.0
458,114.25,56.6395,62.9997,153.599,100.763,98.1644,0.00231174,0.104425,20.8677,470.738,0.239714,0.0,0.0
460,114.75,55.7863,62.7117,152.138,100.751,98.4311,0.00229699,0.1023,20.87,470.759,0.213765,0.0,0.0
462,115.25,55.4986,62.2612,157.375,100.782,98.5528,0.00225302,0.100579,20.8719,470.819,0.205242,0.0,0.0
464,115.75,55.2765,61.2741,155.886,100.756,98.4692,0.00221741,0.0990621,20.8735,470.769,0.210633,0.0,0.0
466,116.25,55.2707,60.9041,152.778,100.756,98.3226,0.00218856,0.0978335,20.8747,470.719,0.224338,0.0,0.0
468,116.75,54.8003,60.7496,152.541,100.73,98.0275,0.00210001,0.0967702,20.8757,470.688,0.249518,0.0,0.0
470,117.25,54.7345,59.9869,153.7,100.744,98.3647,0.00202828,0.095909,20.8765,470.648,0.21936,0.0,0.0
472,117.75,53.9906,60.0761,149.049,100.736,98.1401,0.00192596,0.0950752,20.8774,470.608,0.239587,0.0,0.0
474,118.25,54.0388,59.1208,151.733,100.742,98.0737,0.00184309,0.0943999,20.8783,470.578,0.246289,0.0,0.0
476,118.75,53.1637,58.6719,151.959,100.725,98.1872,0.00176886,0.0937383,20.8794,470.839,0.234128,0.0,0.0
478,119.25,53.022,58.7424,157.767,100.735,98.4443,0.00170234,0.0930992,20.8806,470.989,0.211071,0.0,0.0
480,119.75,52.8196,58.2155,154.444,100.726,98.1462,0.00165705,0.0925816,20.8817,470.939,0.238118,0.0,0.0
482,120.25,52.627,56.9883,153.11,100.733,98.7364,0.00162036,0.0919838,20.8829,470.899,0.183737,0.0,0.0
484,120.75,52.1724,57.4066,156.845,100.71,98.2679,0.0015984,0.0913388,20.8838,470.939,0.225282,0.0,0.0
486,121.25,52.521,57.3405,149.71,100.727,98.5508,0.00158758,0.0906448,20.885,471.069,0.200438,0.0,0.0
488,121.75,51.933,57.1723,156.302,100.704,98.3434,0.00157882,0.0899282,20.886,471.029,0.217666,0.0,0.0
490,122.25,51.6576,56.8639,154.19,100.716,98.3003,0.00156682,0.0891619,20.8873,471.009,0.222778,0.0,0.0
492,122.75,51.4514,55.229,150.969,100.7,97.9469,0.00155709,0.088374,20.8887,470.849,0.254402,0.0,0.0
494,123.25,51.0927,55.4224,156.152,100.716,98.6365,0.00154922,0.0875287,20.8899,470.899,0.19141,0.0,0.0
496,123.75,51.2124,55.4017,156.127,100.699,98.3789,0.00151216,0.0866577,20.8911,470.889,0.213866,0.0,0.0
498,124.25,51.2321,54.5856,153.655,100.7,98.5615,0.00148214,0.0859522,20.8922,470.738,0.19693,0.0,0.0
500,124.75,50.8839,54.4077,151.617,100.693,98.2765,0.00143698,0.0849606,20.8932,470.849,0.222862,0.0,0.0
502,125.25,50.3775,54.2371,154.226,100.696,98.5929,0.00140041,0.0841574,20.8939,470.849,0.193704,0.0,0.0
504,125.75,50.0574,53.8795,152.069,100.68,98.2278,0.00135975,0.0833001,20.8945,470.859,0.226281,0.0,0.0
506,126.25,50.6538,53.7001,150.753,100.695,98.5392,0.00132681,0.0824197,20.8953,470.829,0.198557,0.0,0.0
508,126.75,49.4272,53.3172,154.962,100.672,98.2075,0.00130014,0.0817066,20.8961,470.829,0.227461,0.0,0.0
510,127.25,49.7068,53.1357,153.542,100.684,98.1376,0.00125158,0.080951,20.8967,470.769,0.235092,0.0,0.0
512,127.75,49.6454,52.8855,153.718,100.68,98.1031,0.00121225,0.0801788,20.8981,470.769,0.237905,0.0,0.0
514,128.25,49.4165,52.5139,155.146,100.675,98.3348,0.00116299,0.0792964,20.8992,470.719,0.215802,0.0,0.0
516,128.75,48.6578,51.9606,151.329,100.666,98.3125,0.00110744,0.0785817,20.901,470.688,0.217059,0.0,0.0
518,129.25,49.4965,52.0002,153.984,100.66,98.0235,0.00104893,0.0780027,20.9024,470.719,0.24355,0.0,0.0
520,129.75,48.6019,52.3359,155.379,100.662,98.0934,0.000989372,0.0773703,20.9034,470.698,0.237152,0.0,0.0
522,130.25,48.6152,51.3904,151.387,100.667,98.6573,0.000941128,0.0767108,20.9042,470.668,0.185007,0.0,0.0
524,130.75,48.4834,51.7611,154.527,100.668,98.1244,0.000883399,0.0761766,20.9051,470.708,0.234861,0.0,0.0
526,131.25,48.7562,51.298,153.921,100.655,97.991,0.000819853,0.0755676,20.906,470.728,0.246175,0.0,0.0
528,131.75,48.2029,50.6925,155.42,100.643,97.8343,0.000768381,0.0750744,20.9068,470.728,0.259732,0.0,0.0
530,132.25,48.2726,50.6601,150.901,100.64,98.3211,0.000714477,0.0744859,20.9074,470.749,0.213925,0.0,0.0
532,132.75,48.1259,50.5831,156.306,100.639,97.849,0.000670815,0.0740092,20.9079,470.738,0.257939,0.0,0.0
534,133.25,47.5819,50.3579,158.401,100.634,97.7993,0.000639111,0.0734342,20.9085,470.608,0.26215,0.0,0.0
536,133.75,47.245,50.2833,153.117,100.645,97.8434,0.000613432,0.0729685,20.9092,470.578,0.259026,0.0,0.0
538,134.25,47.5085,49.7728,159.365,100.63,98.03,0.000607287,0.0725912,20.9098,470.598,0.240227,0.0,0.0
540,134.75,47.7574,50.0967,151.991,100.625,98.1842,0.00060231,0.0722047,20.9103,470.568,0.225358,0.0,0.0
542,135.25,47.4147,49.388,155.86,100.615,97.8475,0.00060683,0.0718917,20.9107,470.478,0.255902,0.0,0.0
544,135.75,47.7088,49.4716,157.065,100.618,97.9499,0.000610492,0.0716246,20.911,470.538,0.24664,0.0,0.0
546,136.25,47.3563,48.6623,156.812,100.608,98.3094,0.000603684,0.0714083,20.9115,470.568,0.212043,0.0,0.0
548,136.75,46.9535,48.8623,154.378,100.606,97.7517,0.00059817,0.0711252,20.9121,470.588,0.264067,0.0,0.0
550,137.25,46.6274,48.9007,151.423,100.595,98.3247,0.000581492,0.0708959,20.9126,470.598,0.209458,0.0,0.0
552,137.75,47.0643,48.8516,157.286,100.599,98.1806,0.000556993,0.0706293,20.913,470.538,0.223321,0.0,0.0
554,138.25,46.4356,49.2271,153.747,100.59,97.9687,0.000537148,0.0704133,20.9133,470.468,0.242326,0.0,0.0
556,138.75,46.1097,48.2818,155.66,100.598,97.9469,0.000507648,0.070171,20.9136,470.428,0.245083,0.0,0.0
558,139.25,45.8358,48.2627,155.862,100.596,98.0732,0.000483753,0.0699747,20.9138,470.398,0.233035,0.0,0.0
560,139.75,46.3148,48.3071,151.94,100.599,97.92,0.000464398,0.0697944,20.9139,470.428,0.247676,0.0,0.0
562,140.25,46.4493,47.6392,153.311,100.583,98.244,0.000448721,0.0696292,20.9141,470.418,0.215894,0.0,0.0
564,140.75,45.7366,47.8293,151.357,100.585,98.0006,0.000445786,0.0694954,20.9144,470.398,0.238883,0.0,0.0
566,141.25,46.0039,47.2875,154.122,100.575,97.9367,0.000443409,0.069414,20.9149,470.378,0.24389,0.0,0.0
568,141.75,45.6054,47.6524,155.091,100.587,98.3586,0.000449837,0.0693481,20.9153,470.418,0.205536,0.0,0.0
570,142.25,45.7833,47.4463,156.494,100.566,98.1776,0.000462561,0.0692947,20.9156,470.468,0.22056,0.0,0.0
572,142.75,45.4478,46.7334,153.924,100.579,97.9322,0.000472868,0.0692514,20.9159,470.448,0.244693,0.0,0.0
574,143.25,45.3245,47.0341,154.568,100.569,97.8941,0.000481217,0.069122,20.9157,470.458,0.247392,0.0,0.0
576,143.75,45.626,46.8788,151.408,100.562,98.3931,0.000487979,0.0690172,20.9155,470.448,0.200101,0.0,0.0
578,144.25,44.9129,46.7224,157.358,100.571,97.8049,0.000477395,0.0688785,20.9153,470.408,0.255875,0.0,0.0
580,144.75,45.0613,46.4437,153.995,100.564,97.7273,0.000454367,0.068766,20.9152,470.338,0.262554,0.0,0.0
582,145.25,44.7572,47.0914,150.772,100.554,97.9768,0.000422234,0.0686679,20.9151,470.368,0.238219,0.0,0.0
584,145.75,44.7195,46.3854,156.447,100.571,97.9783,0.000384073,0.068582,20.915,470.328,0.239656,0.0,0.0
586,146.25,45.4153,46.0931,148.989,100.562,97.8642,0.000342898,0.0685124,20.915,470.288,0.24952,0.0,0.0
588,146.75,44.7887,46.6635,153.191,100.577,97.8718,0.000300308,0.068449,20.9149,470.428,0.250199,0.0,0.0
590,147.25,44.2609,46.3707,157.311,100.553,98.1269,0.000268376,0.0683913,20.9149,470.418,0.224134,0.0,0.0
592,147.75,44.4996,45.8707,153.858,100.548,98.1533,0.000255978,0.0683374,20.9148,470.488,0.221218,0.0,0.0
594,148.25,44.3999,46.422,154.649,100.532,97.9048,0.000234778,0.0682873,20.9148,470.708,0.24297,0.0,0.0
596,148.75,44.5256,46.0153,156.98,100.549,98.0529,0.000235891,0.0682539,20.9148,470.719,0.230684,0.0,0.0
598,149.25,44.866,45.5248,154.77,100.538,97.7877,0.000236794,0.0682332,20.9148,470.869,0.254483,0.0,0.0
600,149.75,44.8345,45.879,156.704,100.56,98.2745,0.000237525,0.0682165,20.9147,470.839,0.210986,0.0,0.0
602,150.25,44.024,45.2725,154.719,100.521,98.0468,0.0002394,0.0681625,20.9147,470.859,0.228695,0.0,0.0
604,150.75,43.63,45.7202,155.07,100.534,97.8409,0.000242074,0.0681394,20.9149,470.929,0.249186,0.0,0.0
606,151.25,44.2702,45.1475,156.462,100.531,97.887,0.00024424,0.0680731,20.915,470.849,0.244522,0.0,0.0
608,151.75,44.1238,45.0145,157.096,100.544,97.7927,0.000239578,0.0680194,20.9151,470.738,0.254609,0.0,0.0
610,152.25,44.3167,45.1688,154.681,100.524,97.7669,0.000230026,0.0679759,20.9152,470.769,0.25523,0.0,0.0
612,152.75,43.7989,45.1055,153.81,100.538,97.8308,0.000216516,0.0679265,20.9153,470.789,0.250438,0.0,0.0
614,153.25,43.7029,45.4043,157.8,100.526,97.741,0.000200376,0.0678737,20.9158,470.759,0.25777,0.0,0.0
616,153.75,43.4902,44.7466,151.853,100.525,97.6213,0.000184737,0.067831,20.9162,470.668,0.268975,0.0,0.0
618,154.25,44.1001,44.9671,155.048,100.518,97.6538,0.00016976,0.0677559,20.916,470.658,0.265285,0.0,0.0
620,154.75,43.4125,44.862,156.036,100.531,97.6548,0.000162119,0.0676951,20.9159,470.598,0.266356,0.0,0.0
622,155.25,42.9669,44.4554,150.253,100.513,97.8754,0.00015997,0.0676459,20.9163,470.568,0.244034,0.0,0.0
624,155.75,43.0071,44.5105,150.691,100.519,98.0539,0.000165288,0.0676734,20.9166,470.588,0.22788,0.0,0.0
626,156.25,43.4524,44.4654,156.096,100.507,97.74,0.000175946,0.0676956,20.9169,470.608,0.256172,0.0,0.0
628,156.75,43.7127,44.7121,157.07,100.519,97.9068,0.000192282,0.0677406,20.917,470.598,0.241652,0.0,0.0
630,157.25,43.0358,44.1724,154.508,100.515,97.7983,0.000221043,0.067777,20.9173,470.608,0.251451,0.0,0.0
632,157.75,42.46875,44.5222,157.617,100.521,97.6726,0.00022878,0.0678065,20.9173,470.658,0.263823,0.0,0.0
634,158.25,43.5399,44.0538,153.789,100.505,97.9631,0.000250357,0.0678375,20.9174,470.728,0.235023,0.0,0.0
636,158.75,43.0217,43.6993,150.748,100.523,98.0407,0.000275347,0.067869,20.9175,470.578,0.229415,0.0,0.0
638,159.25,42.5921,44.1494,154.895,100.498,97.6954,0.000300729,0.0678661,20.9176,470.608,0.259535,0.0,0.0
640,159.75,42.8268,43.8967,151.081,100.515,97.6158,0.000325912,0.0678383,20.9176,470.538,0.268596,0.0,0.0
642,160.25,42.6563,43.8778,155.548,100.512,97.701,0.00034888,0.067799,20.9177,470.538,0.260328,0.0,0.0
644,160.75,42.9614,43.9465,152.247,100.508,97.6371,0.000369796,0.067784,20.9179,470.608,0.265954,0.0,0.0
646,161.25,42.0242,43.8155,154.662,100.51,97.8019,0.000386738,0.0677583,20.9181,470.488,0.250593,0.0,0.0
648,161.75,42.7746,43.7376,153.903,100.519,98.0437,0.000398019,0.0677304,20.9182,470.478,0.228829,0.0,0.0
650,162.25,42.4283,43.7378,153.816,100.499,97.9043,0.000398806,0.0677014,20.9183,470.468,0.240008,0.0,0.0
652,162.75,42.5088,44.0513,156.341,100.505,97.671,0.000391928,0.0676779,20.9184,470.488,0.26246,0.0,0.0
654,163.25,42.4191,43.843,153.269,100.496,97.6153,0.000386357,0.0676461,20.9184,470.358,0.266912,0.0,0.0
656,163.75,42.1184,43.8887,157.011,100.491,97.4449,0.000366437,0.0676204,20.9185,470.338,0.282415,0.0,0.0
658,164.25,42.3376,43.3916,151.975,100.489,97.7557,0.000336437,0.0675591,20.9185,470.348,0.253079,0.0,0.0
660,164.75,42.2634,43.5285,155.709,100.501,97.847,0.000312136,0.0675095,20.9186,470.438,0.245605,0.0,0.0
662,165.25,42.8827,43.281,157.07,100.495,98.0584,0.000254678,0.0674558,20.9186,470.408,0.225196,0.0,0.0
664,165.75,42.5266,43.0588,152.277,100.49,97.9089,0.000208136,0.0674123,20.9186,470.378,0.23879,0.0,0.0
666,166.25,41.9924,43.5594,157.634,100.487,97.9672,0.000144862,0.0674041,20.9187,470.338,0.233025,0.0,0.0
668,166.75,42.1742,43.4037,152.123,100.49,97.7795,9.36103e-05,0.0673974,20.9187,470.378,0.250879,0.0,0.0
670,167.25,42.1376,43.2824,157.419,100.484,97.7278,2.89569e-05,0.0674061,20.9187,470.348,0.255169,0.0,0.0
672,167.75,42.0306,43.0833,159.318,100.484,97.7588,-2.78995e-05,0.067426,20.9187,470.348,0.252266,0.0,0.0
674,168.25,42.0611,43.0856,156.438,100.486,97.851,-7.79914e-05,0.067442,20.9187,470.388,0.24387,0.0,0.0
676,168.75,42.059,42.9527,153.811,100.489,98.0478,-0.000116002,0.0674012,20.9187,470.288,0.225627,0.0,0.0
678,169.25,42.0257,42.799,155.582,100.481,97.848,-0.000144483,0.0673681,20.9187,470.348,0.243667,0.0,0.0
680,169.75,41.7039,42.6483,156.735,100.498,98.2329,-0.000167552,0.0673413,20.9187,470.338,0.209187,0.0,0.0
682,170.25,41.6636,42.4698,156.456,100.485,97.5209,-0.000181363,0.0673196,20.9187,470.789,0.274766,0.0,0.0
684,170.75,42.0245,43.1189,153.007,100.484,97.7867,-0.00019255,0.0673424,20.9187,470.708,0.249648,0.0,0.0
686,171.25,41.0864,42.2441,157.842,100.48,97.8308,-0.000201611,0.0673609,20.9187,470.759,0.245171,0.0,0.0
688,171.75,42.1312,42.6844,157.394,100.49,97.597,-0.000221129,0.0673489,20.9187,470.769,0.268026,0.0,0.0
690,172.25,41.3211,42.7076,155.628,100.479,97.7441,-0.000236939,0.0673392,20.9186,470.849,0.253195,0.0,0.0
692,172.75,42.0263,42.0412,156.621,100.47,97.7202,-0.000249744,0.0673044,20.9185,470.789,0.254642,0.0,0.0
694,173.25,41.0771,41.9848,152.866,100.469,97.7121,-0.000271655,0.0672763,20.9184,470.749,0.255291,0.0,0.0
696,173.75,41.6269,42.6933,157.641,100.471,97.7065,-0.00028646,0.067246,20.9185,470.749,0.256002,0.0,0.0
698,174.25,41.4089,42.6645,155.017,100.471,97.7714,-0.000316161,0.0672148,20.9187,470.719,0.249908,0.0,0.0
700,174.75,41.1832,41.96,152.472,100.472,97.6188,-0.000320107,0.0671895,20.9185,470.668,0.264395,0.0,0.0
702,175.25,41.117,41.9029,155.449,100.47,97.8079,-0.000313393,0.067169,20.9182,470.688,0.246446,0.0,0.0
704,175.75,41.338,41.9541,155.682,100.461,97.7349,-0.00029584,0.0671524,20.9179,470.738,0.252433,0.0,0.0
706,176.25,41.7333,42.4116,157.647,100.463,97.6482,-0.000269444,0.0671389,20.9177,470.668,0.260766,0.0,0.0
708,176.75,41.3963,42.0019,154.13,100.472,97.9596,-0.000237103,0.0671332,20.9176,470.638,0.23242,0.0,0.0
710,177.25,41.3135,42.395,156.217,100.485,97.8272,-0.000210906,0.067196,20.9174,470.618,0.245993,0.0,0.0
712,177.75,41.0661,41.9575,151.649,100.451,97.9616,-0.000177509,0.067213,20.9178,470.648,0.230234,0.0,0.0
714,178.25,40.7159,42.1269,157.255,100.463,97.8008,-0.000150457,0.0672957,20.918,470.608,0.246434,0.0,0.0
716,178.75,41.0904,42.4251,153.018,100.444,97.636,-0.000129185,0.0673628,20.9183,470.598,0.260177,0.0,0.0
718,179.25,41.1076,41.996,154.59,100.46,97.6949,-0.000112533,0.0674306,20.9184,470.538,0.256156,0.0,0.0
720,179.75,41.0162,41.7902,155.247,100.449,97.7801,-9.77619e-05,0.0674855,20.9186,470.518,0.247067,0.0,0.0
722,180.25,40.7491,41.6958,155.918,100.462,98.1497,-8.46441e-05,0.067503,20.9189,470.488,0.213684,0.0,0.0
724,180.75,40.688,42.2284,154.157,100.452,97.7583,-7.40186e-05,0.0675172,20.9194,470.488,0.249451,0.0,0.0
726,181.25,40.7102,42.3398,153.019,100.461,97.7846,-6.05439e-05,0.0675004,20.9198,470.488,0.247768,0.0,0.0
728,181.75,41.069,42.2164,154.329,100.442,97.8566,-4.96293e-05,0.0674612,20.9202,470.478,0.239319,0.0,0.0
730,182.25,40.3536,41.9048,153.01,100.45,97.9205,-4.33525e-05,0.0674295,20.9203,470.488,0.234045,0.0,0.0
732,182.75,40.5603,41.903,159.578,100.464,97.6933,-4.05759e-05,0.0674038,20.9202,470.438,0.256601,0.0,0.0
734,183.25,40.9008,41.4769,154.861,100.46,97.5869,-3.95445e-05,0.067383,20.9202,470.368,0.266231,0.0,0.0
736,183.75,40.6127,41.4688,159.768,100.436,97.4641,-3.87091e-05,0.0673874,20.9202,470.448,0.275632,0.0,0.0
738,184.25,40.4847,41.8008,157.448,100.449,97.4525,-3.80325e-05,0.0674101,20.9202,470.498,0.277935,0.0,0.0
740,184.75,41.1392,41.6646,154.099,100.45,97.6021,-3.74843e-05,0.0674289,20.9201,470.528,0.263936,0.0,0.0
742,185.25,40.6289,41.1769,156.048,100.449,97.8353,-3.70404e-05,0.0674444,20.9201,470.558,0.241882,0.0,0.0
744,185.75,40.7587,41.9733,152.494,100.435,97.5387,-3.98856e-05,0.067457,20.9201,470.548,0.268466,0.0,0.0
746,186.25,40.5549,41.5852,161.996,100.449,97.6573,-4.50747e-05,0.0674671,20.9201,470.548,0.258666,0.0,0.0
748,186.75,41.007,40.9654,153.359,100.45,97.5184,-5.12009e-05,0.067447,20.9201,470.468,0.271805,0.0,0.0
750,187.25,40.293,41.1419,155.195,100.441,97.5204,-5.78939e-05,0.0674052,20.9201,470.488,0.270748,0.0,0.0
752,187.75,40.8235,41.3178,154.366,100.446,97.9702,-6.01103e-05,0.0673714,20.9201,470.418,0.229051,0.0,0.0
754,188.25,40.515,41.404,153.631,100.444,98.243,-5.90212e-05,0.0673036,20.9201,470.408,0.203271,0.0,0.0
756,188.75,40.5135,41.1553,155.833,100.466,97.7785,-5.30112e-05,0.0672486,20.9201,470.338,0.248791,0.0,0.0
758,189.25,40.6004,41.0828,154.768,100.441,97.5782,-4.35278e-05,0.0672183,20.9201,470.428,0.265348,0.0,0.0
760,189.75,39.2515,41.5561,155.99,100.434,97.7522,-3.45642e-05,0.0672065,20.9201,470.448,0.248367,0.0,0.0
762,190.25,39.9279,41.2238,153.526,100.446,97.6751,-2.61496e-05,0.0671969,20.9201,470.458,0.25666,0.0,0.0
764,190.75,39.9938,41.1898,160.913,100.435,97.7598,-1.93339e-05,0.0671892,20.9201,470.448,0.247765,0.0,0.0
766,191.25,39.8533,41.1328,154.569,100.437,97.5483,-1.99031e-05,0.0671829,20.9201,470.468,0.267748,0.0,0.0
768,191.75,39.8687,41.2867,157.814,100.429,97.5483,-2.03641e-05,0.0671643,20.9201,470.478,0.267069,0.0,0.0
770,192.25,39.8138,40.7107,154.223,100.442,97.4854,-3.35549e-05,0.0671493,20.9201,470.548,0.274191,0.0,0.0
772,192.75,40.1491,41.4581,160.386,100.418,97.4986,-5.5775e-05,0.0671237,20.9199,470.498,0.270766,0.0,0.0
774,193.25,39.9812,40.9182,156.805,100.442,97.6452,-7.37733e-05,0.0670958,20.9198,470.458,0.259093,0.0,0.0
776,193.75,40.196,40.9988,160.238,100.443,97.5564,-0.000109055,0.0670669,20.9197,470.448,0.267549,0.0,0.0
778,194.25,39.3752,41.0931,161.731,100.437,97.8952,-0.000137633,0.0670435,20.9196,470.468,0.235179,0.0,0.0
780,194.75,39.8641,40.9232,156.033,100.429,97.7755,-0.000175396,0.0670241,20.9195,470.488,0.245687,0.0,0.0
782,195.25,39.385,40.9197,154.963,100.44,98.0427,-0.000205983,0.0670081,20.9194,470.508,0.221696,0.0,0.0
784,195.75,40.0625,40.8415,154.068,100.424,97.6218,-0.000230759,0.0669952,20.9198,470.498,0.259666,0.0,0.0
786,196.25,39.6825,40.8193,155.787,100.442,97.4733,-0.000250828,0.0669846,20.9202,470.498,0.275336,0.0,0.0
788,196.75,39.2489,41.427,152.465,100.415,97.67,-0.000267083,0.0669761,20.9202,470.478,0.254348,0.0,0.0
790,197.25,39.2682,40.8165,150.711,100.434,97.7496,-0.0002732,0.0669622,20.9202,470.518,0.248567,0.0,0.0
792,197.75,39.1631,40.6728,151.84,100.414,98.2217,-0.000271808,0.0669445,20.9197,470.398,0.202511,0.0,0.0
794,198.25,39.7441,40.9509,149.737,100.436,97.7719,-0.000261708,0.0669301,20.9194,470.468,0.246698,0.0,0.0
796,198.75,39.9777,40.9549,159.298,100.43,97.6376,-0.00024545,0.0669185,20.9191,470.438,0.258716,0.0,0.0
798,199.25,39.8103,40.7728,153.815,100.423,97.6137,-0.000232282,0.0669091,20.9189,470.388,0.260353,0.0,0.0
800,199.75,39.4058,40.7454,155.053,100.426,97.5965,-0.000206232,0.0669086,20.9187,470.378,0.262276,0.0,0.0
802,200.25,39.7207,40.6609,156.398,100.418,97.5884,-0.000171287,0.0669145,20.9185,470.328,0.262286,0.0,0.0
804,200.75,39.1789,40.3922,152.711,100.427,97.5387,-0.000125028,0.0669193,20.9184,470.308,0.267787,0.0,0.0
806,201.25,39.0885,40.5864,153.115,100.429,97.883,-7.13994e-05,0.0669098,20.9183,470.348,0.235604,0.0,0.0
808,201.75,39.4118,40.5206,153.178,100.428,97.9839,-2.79602e-05,0.066902,20.9182,470.388,0.226036,0.0,0.0
810,202.25,39.5631,41.0247,155.132,100.425,98.2917,3.52672e-05,0.0668688,20.9182,470.418,0.19703,0.0,0.0
812,202.75,39.5742,40.2985,158.305,100.423,97.6295,8.64814e-05,0.0668419,20.9181,470.408,0.258914,0.0,0.0
814,203.25,39.6255,40.2172,156.719,100.423,97.6376,0.000130405,0.0667989,20.9184,470.418,0.258075,0.0,0.0
816,203.75,39.8925,40.6836,158.343,100.425,98.0569,0.000165983,0.0667449,20.9189,470.468,0.218974,0.0,0.0
818,204.25,39.2504,40.9223,154.335,100.418,97.7395,0.000177727,0.0667011,20.9193,470.488,0.24805,0.0,0.0
820,204.75,39.5126,39.8599,155.467,100.422,97.7096,0.000187239,0.0666522,20.9196,470.418,0.251274,0.0,0.0
822,205.25,38.839,40.4026,154.129,100.433,97.3896,0.00018019,0.0666126,20.9199,470.398,0.282389,0.0,0.0
824,205.75,38.6969,40.2294,153.913,100.42,97.5128,0.0001612,0.0665409,20.9201,470.378,0.269581,0.0,0.0
826,206.25,38.9303,40.339,158.226,100.425,97.6183,0.000145819,0.0664827,20.9203,470.458,0.26015,0.0,0.0
828,206.75,38.9551,40.0747,152.862,100.422,97.6797,0.000110218,0.0664491,20.9205,470.378,0.254083,0.0,0.0
830,207.25,39.4914,40.1815,158.707,100.427,97.3627,8.13805e-05,0.0664219,20.9206,470.358,0.284356,0.0,0.0
832,207.75,38.9226,39.8515,154.643,100.428,97.4794,4.77666e-05,0.0664069,20.9207,470.288,0.273484,0.0,0.0
834,208.25,39.3107,40.4657,153.168,100.424,97.3987,1.1309e-05,0.0664011,20.9208,470.328,0.280662,0.0,0.0
836,208.75,38.9505,39.9986,153.823,100.426,97.6411,-2.91181e-05,0.0663965,20.9208,470.338,0.258081,0.0,0.0
838,209.25,39.0569,40.5711,156.803,100.414,97.4839,-7.16709e-05,0.0664466,20.9209,470.338,0.271773,0.0,0.0
840,209.75,39.4228,40.0414,154.866,100.428,97.3779,-0.000121971,0.0664871,20.9209,470.348,0.282959,0.0,0.0
842,210.25,38.6171,40.3659,152.217,100.43,97.5889,-0.000162714,0.06652,20.9209,470.318,0.263329,0.0,0.0
844,210.75,39.1058,40.5188,153.834,100.419,97.9154,-0.000209113,0.0665466,20.921,470.238,0.231697,0.0,0.0
846,211.25,39.1832,40.0433,152.38,100.438,97.4717,-0.000246696,0.0665469,20.921,470.328,0.275067,0.0,0.0
848,211.75,38.9617,40.0024,154.222,100.425,98.0123,-0.00027842,0.066528,20.921,470.278,0.223189,0.0,0.0
850,212.25,38.8322,39.8879,152.756,100.414,97.7045,-0.00030527,0.0664985,20.921,470.218,0.250959,0.0,0.0
852,212.75,38.6656,39.8079,150.755,100.431,97.4743,-0.000327019,0.0664619,20.921,470.248,0.274188,0.0,0.0
854,213.25,38.6334,39.8918,157.217,100.413,97.9494,-0.000331172,0.066411,20.921,470.248,0.22791,0.0,0.0
856,213.75,38.9323,39.8402,153.447,100.423,97.5067,-0.00032242,0.0663506,20.9209,470.218,0.270417,0.0,0.0
858,214.25,39.3656,39.5161,153.297,100.423,97.456,-0.000304434,0.0663159,20.9208,470.228,0.275228,0.0,0.0
860,214.75,39.0492,40.0957,152.523,100.429,97.5559,-0.000280059,0.0663005,20.9207,470.238,0.266316,0.0,0.0
862,215.25,38.9702,39.7203,153.429,100.417,97.5686,-0.000260315,0.066288,20.9206,470.278,0.264033,0.0,0.0
864,215.75,39.019,39.4633,159.898,100.427,97.6584,-0.000226054,0.0663041,20.9205,470.278,0.256499,0.0,0.0
866,216.25,39.0599,39.8948,160.758,100.411,97.559,-0.000198303,0.0663172,20.9204,470.298,0.264448,0.0,0.0
868,216.75,39.6616,40.0536,152.623,100.42,97.5752,-0.000164865,0.0662853,20.9204,470.368,0.263675,0.0,0.0
870,217.25,38.7682,40.0743,158.447,100.421,97.564,-0.00013778,0.0662212,20.9204,470.318,0.2648,0.0,0.0
872,217.75,38.3717,39.8467,157.219,100.431,97.5367,-0.000106097,0.0661693,20.9203,470.308,0.268318,0.0,0.0
874,218.25,39.1497,40.0471,152.488,100.41,97.5169,-8.04345e-05,0.0661137,20.9203,470.338,0.268257,0.0,0.0
876,218.75,38.4204,39.6225,151.547,100.432,98.0027,-5.96476e-05,0.0660688,20.9203,470.288,0.224694,0.0,0.0
878,219.25,38.597,39.477,155.357,100.419,97.4799,,0.0660054,,470.278,0.272608,0.0,0.0
880,219.75,38.6394,40.0157,158.834,100.421,97.3201,,0.0659541,,470.298,0.287844,0.0,0.0
882,220.25,37.637,40.3561,156.439,100.418,97.4155,,0.065926,,470.488,0.278597,0.0,0.0
884,220.75,38.5772,39.8776,156.906,100.432,97.6234,,0.0659032,,470.448,0.260315,0.0,0.0
886,221.25,38.309,39.8243,157.322,100.415,97.7309,,0.0658848,,470.378,0.248634,0.0,0.0
888,221.75,38.4871,39.7205,154.582,100.444,97.704,,0.065877,,470.438,0.253755,0.0,0.0
890,222.25,38.8533,39.3559,154.463,100.421,97.6376,,,,470.358,0.257887,0.0,0.0
892,222.75,38.3291,38.7484,154.853,100.43,97.3506,,,,470.338,0.285728,0.0,0.0
894,223.25,38.828,39.6601,156.355,100.412,97.2496,,,,470.488,0.293626,0.0,0.0
896,223.75,38.1583,39.6603,153.178,100.43,97.7101,,,,470.478,0.251904,0.0,0.0
898,224.25,38.3594,39.8672,159.17,100.443,97.5995,,,,470.478,0.263496,0.0,0.0
900,224.75,38.3812,39.8473,160.076,100.433,97.3942,,,,470.478,0.281958,0.0,0.0
902,225.25,38.5709,39.36,156.286,100.432,97.5605,,,,470.558,0.266189,0.0,0.0
904,225.75,38.1516,39.0289,158.168,100.431,97.6933,,,,470.498,0.253588,0.0,0.0
906,226.25,38.0192,39.0279,158.388,100.421,97.3257,,,,470.498,0.287318,0.0,0.0
908,226.75,37.9352,39.7581,157.365,100.44,97.5321,,,,470.478,0.269613,0.0,0.0
910,227.25,37.9927,39.51,152.585,100.418,97.6117,,,,470.408,0.26013,0.0,0.0
912,227.75,38.4067,39.7162,153.873,100.438,97.6797,,,,470.368,0.255514,0.0,0.0
914,228.25,38.04,39.5497,153.695,100.425,97.5007,,,,470.398,0.27114,0.0,0.0
916,228.75,37.9657,39.7185,156.488,100.439,97.5473,,,,470.448,0.268107,0.0,0.0
918,229.25,38.3483,39.8204,154.59,100.415,97.7106,,,,470.508,0.250538,0.0,0.0
920,229.75,37.8801,39.5108,156.191,100.436,97.6234,,,,470.508,0.260653,0.0,0.0